acc_x,acc_y,acc_z,eul_x,eul_y,eul_z
2.04,2.89,-8.79,-144.23939029133862,-27.336531426237315,-17.763999776816537
2.25,3.03,-9.15,-144.23939029133862,-27.324738438026905,-17.752401631441728
2.27,3.0,-9.18,-144.27673180622273,-27.324738438026905,-17.717608294742977
2.29,2.82,-9.1,-144.27673180622273,-27.336531426237315,-17.694413651857158
2.13,2.95,-9.02,-144.3141111196786,-27.336531426237315,-17.648026557290144
2.13,2.75,-9.09,-144.3141111196786,-27.336531426237315,-17.636430239406273
2.17,2.96,-8.92,-144.3141111196786,-27.301153346475186,-17.648026557290144
2.32,3.02,-9.11,-144.3141111196786,-27.28936124283988,-17.648026557290144
2.22,3.03,-9.02,-144.3515283507124,-27.301153346475186,-17.613238149656624
2.09,2.94,-8.82,-144.3515283507124,-27.28936124283988,-17.555261104447528
2.22,2.86,-9.05,-144.3515283507124,-27.28936124283988,-17.578451378167774
2.07,2.91,-8.96,-144.388983618951,-27.27756943376897,-17.462507245696994
2.08,2.65,-9.27,-144.46400874868328,-27.26577791911556,-17.31180678552449
2.17,2.8,-9.14,-144.57683474921032,-27.183245547895737,-17.161136490218524
2.03,3.01,-9.14,-144.65224571956077,-27.041794884833607,-17.010496081346126
1.94,3.1,-9.21,-144.7656551188059,-26.93573444675805,-16.871469682269606
2.04,3.24,-9.23,-144.80353687392875,-26.8414782366778,-16.732468293463864
1.85,3.2,-8.89,-144.87941908090357,-26.817917077101303,-16.628233533749974
2.21,3.31,-9.39,-144.87941908090357,-26.8414782366778,-16.605072138436235
2.01,3.19,-9.08,-144.87941908090357,-26.888604025029306,-16.55875139620892
2.17,3.04,-9.18,-144.9174197897038,-27.006438787370872,-16.477696648278283
1.73,3.01,-8.9,-144.87941908090357,-27.11251495381608,-16.396650200988272
1.98,2.89,-9.02,-144.80353687392875,-27.27756943376897,-16.361918539628213
1.71,3.06,-8.77,-144.72781275910324,-27.43088596976693,-16.29245975343786
1.92,3.03,-9.07,-144.57683474921032,-27.65505415801313,-16.2808838756779
1.65,3.19,-9.2,-144.42647704464702,-27.87933033417513,-16.234582036054892
1.57,3.11,-9.06,-144.1648201843402,-28.23367294753045,-16.1419863535435
1.39,3.37,-9.0,-143.94200484154302,-28.54099280947513,-16.13041264048083
1.52,3.57,-9.23,-143.53692935464713,-29.06155185997118,-16.049401279911372
1.3,3.67,-8.82,-143.09992952909138,-29.59457663056109,-15.979969398223384
1.43,3.5,-8.55,-142.4180463131718,-30.44878609284871,-16.0609738361326
1.59,3.42,-8.79,-141.81789497427926,-31.185744677827834,-16.327188391573927
1.8,2.99,-8.41,-140.98575914579104,-32.25789123557385,-16.63981448789728
1.89,3.04,-8.31,-140.30512782111506,-33.105742400688804,-16.906223928806188
2.03,2.69,-8.35,-139.2059212883253,-34.39903434859307,-17.381357078894993
2.5,2.36,-8.82,-138.3594636167184,-35.33588611084891,-17.833592505981915
2.23,2.28,-8.31,-137.088392741319,-36.62505057506963,-18.460228812044047
2.77,2.37,-8.25,-136.00493912570792,-37.604152605861614,-19.08742247639564
2.85,2.18,-8.37,-134.49971207203987,-38.93838987087892,-19.971122857066124
2.73,2.43,-7.95,-132.75344370342964,-40.253732215798784,-21.100756747738608
3.11,2.44,-7.95,-131.34342588798634,-41.26836056402613,-22.05732086897936
3.15,2.59,-7.95,-129.51205087236005,-42.50761837071936,-23.41318918903326
3.45,2.0,-8.26,-128.1586232989387,-43.369568597791215,-24.57298013035922
4.04,2.91,-8.19,-126.47990511760632,-44.20936716761421,-26.29986168212807
4.06,2.98,-8.26,-125.1463924412778,-44.85325420187507,-27.59605210118816
4.22,3.44,-8.11,-123.502242338284,-45.461363019955,-29.33390567781849
4.44,3.35,-7.88,-122.3984110822012,-45.7223943424676,-30.603201736078947
4.64,3.29,-7.96,-120.96377821929032,-46.05837506360943,-32.2936788968098
4.42,4.12,-7.47,-119.99417813762396,-46.158005222618215,-33.548317235556404
4.8,4.09,-7.32,-118.54340107943032,-46.53194812307301,-35.08341956652468
4.56,4.27,-7.6,-117.4973779425748,-46.781534903600594,-36.17873077462121
4.25,4.35,-7.23,-115.98960027739392,-47.30643546064212,-37.604152605861614
4.71,4.65,-7.0,-114.42822374638148,-47.81985609667796,-38.999166163078655
4.1,4.19,-7.09,-113.3567321523323,-48.070674990989744,-39.948769456648414
4.59,4.66,-6.88,-112.71282300150172,-47.81985609667796,-40.73006975326216
4.38,4.93,-6.53,-111.6447470313604,-47.2313854664036,-42.151265384526
4.37,5.59,-5.89,-110.591135376776,-46.54442190080458,-43.69037629572606
5.16,5.35,-6.82,-109.71042658552564,-46.220292814904006,-44.989651826175965
5.15,5.7,-6.51,-108.6425203865957,-45.51106402154343,-46.656712208804855
5.12,6.71,-6.17,-107.95770664544784,-44.76649060212525,-47.81985609667796
5.87,7.02,-6.23,-107.23982794355229,-43.76445989390753,-49.24023317275956
5.59,5.96,-6.2,-106.81586235047912,-43.27093047786308,-50.0103350226896
5.34,6.37,-5.82,-106.33663306993483,-42.286383276048326,-50.99859116157064
5.77,6.43,-5.7,-105.86006493054606,-41.62366360590611,-51.736087563875465
5.52,6.64,-5.0,-105.40501487729964,-40.64451940316256,-52.55255813835036
5.34,6.29,-5.39,-105.0276111512958,-39.99754361581977,-53.19242764249977
5.63,6.86,-5.48,-104.52067140467182,-38.95054421712168,-54.10413323309202
6.29,7.01,-5.34,-104.40841146453567,-37.96750276694696,-54.56782105444786
6.11,6.9,-4.97,-104.37102298797171,-36.818231622724255,-54.96788438262905
6.15,6.36,-4.92,-104.40841146453567,-35.66074669721593,-55.22637549729378
6.24,5.99,-4.66,-104.55812296797365,-34.61501807279963,-55.25224136431043
6.06,6.18,-4.7,-105.08411822562071,-32.98621503760272,-55.20051268392319
5.92,7.16,-4.44,-105.31051129197044,-31.63808150954527,-55.18758242160568
6.47,7.06,-4.83,-105.76506603938064,-29.92656655764556,-55.09709191896828
6.35,7.38,-4.47,-106.27930542410908,-28.588291341239625,-54.8516623694969
6.01,7.15,-4.36,-107.14328559013715,-26.93573444675805,-54.28434190943172
6.0,7.02,-4.45,-107.91874458790814,-25.52379962585345,-53.78269118475608
5.96,7.23,-4.21,-108.9180458077566,-23.869779338261072,-53.12836054260164
5.84,7.01,-4.23,-109.69052239052932,-22.769918267605057,-52.578118912593965
5.91,6.99,-4.36,-110.75231492282506,-21.31060447484913,-51.93993891277072
6.21,7.03,-4.79,-111.58357510903522,-20.285355318851703,-51.443358765022325
5.91,7.16,-4.58,-112.79560178360884,-18.959614614971,-50.59266598447474
5.81,7.32,-4.69,-113.69123402259356,-18.100426311736804,-49.985047701010245
5.91,7.27,-4.94,-115.04449255970869,-17.103194349757633,-49.03863296676083
5.99,6.82,-5.08,-116.20613978613412,-16.327188391573927,-48.19617622057904
5.66,6.76,-5.08,-117.69645604638976,-15.494110041456644,-47.0813498800656
6.08,6.19,-5.71,-119.26487102928002,-14.93918463283386,-46.08327914813054
5.55,6.21,-5.23,-120.66212588661212,-14.303764676023915,-45.08889233071614
5.56,6.38,-5.61,-121.8536919796764,-13.968904250085991,-44.24647435383947
5.62,5.79,-5.95,-123.52645816564733,-13.576461659580188,-43.0983947119019
5.54,6.11,-6.02,-125.22107317255428,-13.161108413553292,-41.96711256530092
6.06,5.44,-6.68,-126.658333240647,-12.7228682118641,-41.0113310955595
5.45,5.44,-6.3,-128.55324310023371,-12.50381856554563,-39.70501157955701
5.45,5.61,-6.67,-129.9166096140095,-12.342442956629045,-38.768276788891846
5.09,5.15,-6.61,-131.73432389141507,-12.296340166976414,-37.53152975160733
4.8,5.08,-6.5,-133.01147504963205,-12.273289521851868,-36.66126379400549
5.09,5.21,-7.1,-134.61838734283256,-12.377021364647929,-35.55242705989692
4.76,4.68,-6.72,-135.88272800413355,-12.515346343653173,-34.66303165808797
4.45,4.63,-6.66,-137.3712305266047,-12.792051445699697,-33.536349009079444
4.51,4.42,-7.15,-138.3594636167184,-13.126503557539667,-32.84283089936096
4.15,3.97,-7.03,-139.5691405181039,-13.657245433015795,-31.924028325694472
4.5,3.94,-7.51,-140.27139021079807,-14.095906005217,-31.376141122007805
4.32,3.61,-7.48,-141.19218403998903,-14.7196246947995,-30.63884419055943
4.35,3.57,-7.83,-142.06390845011202,-15.274409087771584,-29.879123753551497
4.52,3.21,-8.08,-142.63208125401738,-15.73700413286234,-29.345750980318734
4.49,3.17,-8.45,-143.5003197378201,-16.095692494623034,-28.552816976564145
3.98,3.31,-8.24,-144.09039985888563,-16.51243337847321,-27.926560226864748
3.98,3.02,-8.37,-144.80353687392875,-17.033669594732867,-27.17145638329649
3.83,3.12,-8.35,-145.18454955392758,-17.474100846214462,-26.6883513110376
3.8,3.17,-8.36,-145.6083860120317,-18.216471799125177,-26.1469050177391
3.83,2.53,-8.46,-146.0373496598969,-18.773754707559725,-25.664812206839983
3.59,2.16,-8.27,-146.39227073603638,-19.598895357607173,-25.05404008221464
3.88,1.87,-8.52,-146.5511870394875,-20.23879269230359,-24.70200146162693
3.84,1.72,-8.58,-146.71084020226166,-21.04247844328356,-24.20954412674289
4.0,1.03,-8.72,-146.79094642726758,-21.602179804976902,-23.858067126010045
3.66,1.17,-8.54,-146.9114591288739,-22.150726459273766,-23.40148673707778
3.87,0.75,-8.8,-147.03240000479886,-22.64135196781312,-23.02713820533729
3.65,1.42,-8.76,-147.0728095954594,-22.88682192770989,-22.79329707445838
3.78,1.37,-8.86,-147.113267463602,-23.190884791431422,-22.55955209306089
3.76,1.39,-8.92,-147.23493252348757,-23.366380865675165,-22.34926291674045
3.45,1.36,-8.93,-147.31628725286762,-23.600462193143148,-22.08067087291992
3.68,0.95,-9.12,-147.23493252348757,-23.91663071897709,-21.95225731085252
3.55,1.17,-8.97,-147.23493252348757,-24.0923596055089,-21.823871652385925
3.51,0.92,-8.99,-147.1943287474599,-24.37364567505576,-21.62551192117329
3.5,0.54,-8.93,-147.0728095954594,-24.61989330860375,-21.48553279702964
3.34,0.59,-8.78,-147.0728095954594,-24.748926188008948,-21.368908312577144
3.86,0.11,-9.41,-146.951724947316,-24.96013976228266,-21.275624852029367
3.8,0.05,-9.15,-146.871240884656,-25.14795750167836,-21.147383365420364
3.64,0.17,-8.97,-146.79094642726758,-25.371080328389592,-20.972551741859924
3.5,-0.13,-8.87,-146.7508698708792,-25.46505599443148,-20.83272200177108
3.4,-0.3,-9.02,-146.71084020226166,-25.547298987438325,-20.681275164117206
3.61,-0.33,-8.98,-146.83107004149562,-25.488552629562964,-20.55315637010219
3.86,-0.47,-9.32,-146.9114591288739,-25.394572616004385,-20.471639758994087
3.7,0.08,-9.15,-147.1943287474599,-25.241892093139462,-20.20387293870638
3.4,-0.03,-9.11,-147.23493252348757,-25.38282633662164,-19.92458285893285
3.53,-0.04,-9.65,-147.39783944401512,-25.28886585104528,-19.73845598070809
3.28,0.02,-9.33,-147.72605283657722,-25.0892571067724,-19.52912606682039
3.2,0.54,-9.65,-147.93284627196644,-24.90146071352715,-19.42448582735805
3.28,0.02,-9.43,-148.0992206918234,-24.77239013171025,-19.20363223785156
3.3,-0.29,-9.31,-148.26644461114088,-24.713732248446583,-19.05256341690962
3.34,-0.27,-9.4,-148.5189029496625,-24.49089212710032,-18.83183055191492
3.31,-0.58,-9.35,-148.6458749656724,-24.40881688456287,-18.646004953165537
3.23,-0.84,-9.21,-148.7733502639536,-24.31503217113493,-18.506668239532367
3.07,-0.2,-9.16,-149.07278485727542,-24.127512270969643,-18.286108128329392
3.12,-0.26,-9.04,-149.24516700325162,-24.04549296367276,-18.1816561801528
3.14,-0.2,-8.94,-149.37507492345586,-23.94005793030564,-18.07721946422553
3.17,-0.15,-9.22,-149.54912686270868,-23.83464346005029,-17.949595138790567
3.11,-0.48,-9.07,-149.63651807466178,-23.78779915841677,-17.856791554733764
3.17,-0.32,-8.93,-149.72415559222358,-23.68241421184977,-17.856791554733764
2.97,-0.29,-8.61,-149.81204156148604,-23.62387580431868,-17.90319186690899
2.96,-0.23,-8.57,-149.81204156148604,-23.63558298502357,-17.961196420173227
2.84,-0.28,-8.06,-149.81204156148604,-23.612168873737943,-18.06561632088332
2.8,-0.27,-8.2,-149.81204156148604,-23.55363796786013,-18.262895263137004
2.89,0.2,-8.48,-149.72415559222358,-23.40148673707778,-18.72729753587516
2.89,0.26,-8.6,-149.50552295905456,-23.2493773342699,-19.319861939553064
3.1,0.86,-8.84,-149.24516700325162,-23.17918701849416,-19.878046180611587
3.18,0.87,-8.89,-148.7733502639536,-23.10900551875196,-20.69292362085707
3.28,0.84,-9.11,-148.35037934063973,-23.12070182440919,-21.31060447484913
3.86,0.79,-9.58,-147.8086150107539,-23.07391806563097,-22.11569761985897
3.95,0.77,-9.64,-147.39783944401512,-23.015443848374385,-22.676412633281863
4.41,0.67,-9.88,-146.951724947316,-22.82836708787642,-23.331277218076693
3.98,1.18,-9.38,-146.71084020226166,-22.59460775363036,-23.740958889771715
4.05,1.35,-8.99,-146.5113892939378,-22.068995754971112,-24.24470448957822
3.59,1.67,-8.64,-146.35265556905202,-21.71884947041321,-24.61989330860375
3.98,1.87,-9.22,-146.07660730478975,-21.07744476440248,-25.277122006902648
4.17,2.26,-9.16,-145.91984007134727,-20.459995384570263,-25.782352883412447
4.49,2.51,-9.27,-145.6471679681556,-19.83151281371854,-26.38224270571989
4.56,2.54,-9.41,-145.53094905314887,-19.36635943259494,-26.723683975588173
4.29,2.59,-8.94,-145.41510886588998,-18.76214012304259,-27.06536707365856
4.19,2.81,-8.65,-145.33809060162469,-18.36735912324753,-27.253986698732728
4.34,2.64,-8.81,-145.29964361056955,-17.868391355752113,-27.43088596976693
4.14,2.68,-8.54,-145.2612378633091,-17.49728858817925,-27.57245336826063
4.2,2.5,-8.4,-145.22287322309495,-16.97573712493423,-27.796689641349
4.08,2.86,-8.45,-145.10802458844395,-16.616652750638245,-27.985604401100783
4.38,2.65,-8.51,-145.10802458844395,-15.945255673236543,-28.22185710635222
4.27,2.57,-8.17,-145.10802458844395,-15.494110041456644,-28.36366745712689
4.46,2.57,-8.46,-145.03166189361892,-14.927627478593791,-28.65924846946876
4.2,2.71,-8.22,-144.99354106549774,-14.45391421483677,-28.84852244729204
4.53,2.93,-8.16,-144.7656551188059,-13.8765501759761,-29.21547025317705
4.65,3.06,-8.22,-144.53918747848587,-13.461068017168213,-29.511618949559608
4.17,2.97,-8.0,-144.27673180622273,-12.930431986971731,-29.843545089972302
4.76,3.16,-8.37,-143.83109490597238,-12.434654560583263,-30.306298828005648
4.37,3.54,-7.78,-143.61025532246643,-11.881504040605064,-30.50817000692102
4.38,3.42,-7.78,-143.1724151146164,-11.558962006616271,-30.84087559172584
4.46,3.57,-7.9,-142.73954322436268,-11.38620958683243,-31.114368796125287
4.38,3.48,-7.69,-142.1344807161217,-11.248026360967865,-31.507090202315183
4.67,3.8,-7.93,-141.6082344949301,-11.167427069301608,-31.86443930344973
4.85,3.37,-8.11,-140.98575914579104,-11.086833319532731,-32.3533321925502
5.02,3.53,-8.17,-140.57602612666605,-10.994732910342313,-32.69949961813303
4.86,3.72,-7.93,-140.00247242955643,-10.960197096754332,-33.05792701658909
5.21,3.78,-8.2,-139.60231554875963,-10.937173775974523,-33.32098517464778
4.97,3.69,-7.95,-139.2059212883253,-10.879617409371033,-33.57225481905068
5.16,3.96,-7.9,-138.87838831455554,-10.8450849117299,-33.727885940809074
5.1,3.83,-7.9,-138.5209607780903,-10.833574298853826,-33.90753998612701
4.93,3.95,-7.63,-138.26285199839916,-10.8450849117299,-33.9794256257345
5.11,4.17,-7.66,-137.91042216197232,-10.891128461986716,-34.13522516911611
4.83,4.1,-7.32,-137.71937015042116,-10.98322086133136,-34.18317656247093
4.91,4.12,-7.49,-137.339715842895,-11.121372822035768,-34.339061261923746
4.82,4.32,-7.08,-137.02578084639396,-11.248026360967865,-34.42302630295278
4.63,4.52,-6.85,-136.5279785234642,-11.535926836248436,-34.63902408126335
4.85,4.28,-6.98,-136.03554234590246,-11.823900394126868,-34.90319398604888
4.72,4.46,-6.68,-135.27643200533063,-12.238714488577818,-35.299808644002006
4.8,4.44,-6.46,-134.38132917213414,-12.734398426775371,-35.829309438989284
5.16,4.28,-7.2,-133.6770461216721,-13.138038375794716,-36.263125888125366
5.12,4.29,-7.29,-132.81066902216784,-13.599542044193305,-36.66126379400549
5.25,4.57,-6.98,-132.15647345628565,-13.911181889055529,-36.98735398071332
5.56,4.61,-7.44,-131.1767984012427,-14.373061379793723,-37.59204770944774
5.33,4.89,-7.13,-130.65262969629032,-14.604088706058509,-37.785778398919184
5.4,4.96,-7.12,-130.10645331555745,-14.858287755594215,-37.88268575548643
5.24,5.04,-6.86,-129.78141812262746,-15.054764601110485,-37.94326713356112
5.19,5.41,-6.89,-129.40467932878911,-15.30909493616346,-37.979621244835975
5.36,5.22,-7.11,-129.0838339340417,-15.621331474060083,-37.9917401637673
5.21,5.27,-6.93,-128.89754271482937,-15.817984589415364,-37.96750276694696
4.94,5.19,-6.62,-128.76486449761614,-16.03782888845279,-37.9069169867096
4.96,5.43,-6.73,-128.57965137649458,-16.327188391573927,-37.81000260574194
4.71,5.51,-6.38,-128.44773606463812,-16.55875139620892,-37.71311628724267
4.76,5.51,-6.35,-128.23732310544656,-16.987323268750952,-37.640469908070976
4.56,5.63,-6.09,-128.05386288415187,-17.485694626999518,-37.50732560971657
4.46,5.65,-6.17,-127.81886761171008,-17.949595138790567,-37.47102265081461
4.64,5.47,-6.34,-127.55891058236664,-18.460228812044047,-37.446822845384496
4.68,5.53,-6.2,-127.22274573469288,-19.06418290551579,-37.39842842920397
4.84,5.44,-6.5,-126.83731618493428,-19.633782752905432,-37.37423381555307
4.97,5.6,-6.57,-126.55630673438098,-20.05257586733213,-37.41052638436744
4.96,5.42,-6.74,-126.30202625936262,-20.448351223683986,-37.43472359227642
4.81,5.56,-6.48,-125.97311846044452,-20.92593832998922,-37.43472359227642
4.7,5.62,-6.25,-125.696251455902,-21.275624852029367,-37.50732560971657
4.87,5.68,-6.55,-125.3707171892468,-21.695513718287582,-37.604152605861614
4.71,5.61,-6.3,-125.19616916396942,-21.987276416568136,-37.604152605861614
4.61,5.8,-6.3,-124.9229107357918,-22.337582426465424,-37.676791133557344
4.64,5.68,-6.14,-124.67557399344672,-22.617979384064764,-37.7615559445365
4.62,5.68,-6.35,-124.35555059912924,-22.96866884885643,-37.96750276694696
4.13,5.68,-5.71,-124.06164029835844,-23.237678334824075,-38.12507743338386
4.38,5.83,-5.85,-123.42965193046732,-23.62387580431868,-38.63467883673552
3.97,5.88,-5.26,-122.89990924402274,-23.95177191669858,-39.05995387185956
4.31,6.01,-5.3,-121.80654521371449,-24.45571546342066,-40.09511461656773
3.91,5.72,-4.23,-120.59271162762089,-25.042301608577382,-41.39083180240233
4.77,6.08,-5.3,-117.78511905973166,-26.241026566581308,-44.40732869091076
5.07,6.37,-4.98,-115.55847283517146,-27.14787893324093,-46.769049990136345
5.96,6.34,-5.87,-112.9614299666055,-28.18641141984425,-49.39154002007115
5.94,6.24,-4.83,-111.8081078109232,-28.87218733809866,-50.42795316020507
6.47,6.09,-5.27,-110.69183416222988,-29.393135398012305,-51.37976979085595
6.47,6.21,-5.04,-109.889785903268,-29.653841828798463,-51.9909293300881
6.69,6.06,-5.21,-109.3132704221292,-29.79611144994345,-52.50144503161559
6.44,5.76,-4.71,-109.11541872598389,-29.630134776789287,-52.91066611549383
6.28,6.31,-4.83,-108.60323493215937,-29.357596603435567,-53.461705766242936
5.99,6.5,-4.37,-108.05519160220844,-29.10890564472929,-54.1170004763384
6.62,7.17,-5.33,-107.64651805195676,-28.86035473550121,-54.64519627292022
6.18,6.73,-4.83,-108.11373745608395,-28.37548698522077,-54.29721951219732
6.22,7.11,-4.84,-108.4854908547432,-27.914752300246647,-54.026945257147645
6.35,6.37,-4.81,-109.05615676372436,-27.631452438914533,-53.60288337963247
6.44,6.42,-5.13,-110.06954622730552,-27.053580833430228,-52.68039020015169
6.14,5.93,-5.03,-111.97181334084304,-26.26455976697084,-50.85897732637935
5.91,6.07,-4.76,-113.58654197734045,-25.32409900412527,-49.30326654818019
5.71,5.79,-4.59,-115.45109275023192,-24.06892577380089,-47.544236088592434
5.56,5.4,-5.06,-116.88163381383896,-22.96866884885643,-46.220292814904006
4.66,6.59,-3.75,-118.0740625813446,-21.31060447484913,-45.06407886296696
5.41,5.8,-4.95,-118.52097838323344,-20.39013361769746,-44.76649060212525
4.62,6.08,-3.89,-118.90317397360045,-19.18038869449432,-44.51874337646561
5.06,6.3,-4.55,-118.94828017259012,-17.92639313237552,-44.65497713304196
4.75,6.2,-3.82,-118.6107135023718,-17.26544349477142,-45.02686284001362
4.98,6.13,-3.98,-118.0517930817869,-16.709303811577858,-45.70995860569551
5.59,6.16,-4.66,-117.1448610408126,-16.072546557241562,-46.769049990136345
5.56,6.18,-4.28,-116.59757736800644,-15.239724647140951,-47.25639974151138
5.69,5.94,-4.03,-116.07613737802976,-14.7196246947995,-47.619376147320615
5.88,5.96,-4.32,-115.27961518989136,-13.945814879054648,-48.27150646713053
6.12,6.26,-4.46,-114.61892667196771,-13.149573327758748,-48.63591649318546
6.34,6.15,-4.29,-113.88004967231204,-12.169567773976445,-48.79944259465472
6.02,6.49,-4.1,-113.3567321523323,-11.37469368630907,-48.82460984436268
6.2,6.82,-4.16,-112.6714672903495,-10.269686237501055,-48.83719440997261
6.32,7.14,-4.12,-112.19747600626744,-9.21161989509871,-48.66106748213056
6.28,7.21,-4.03,-111.7059670825154,-8.096899901459961,-48.32173895898989
6.12,7.23,-3.98,-111.46137512854489,-7.338875609975954,-47.995403677336114
6.05,7.0,-3.97,-111.23783703748737,-6.248335760592128,-47.481635948605785
6.13,7.05,-3.79,-111.13643927299914,-5.410731896463338,-47.0813498800656
5.81,6.81,-3.49,-111.05541520272617,-4.49314033842009,-46.68167205165904
5.82,7.05,-3.64,-110.95425230146972,-3.724881599063971,-46.46958798664575
5.7,7.47,-3.48,-110.81284195033062,-2.7160742546883188,-46.03347327955085
5.63,7.38,-3.41,-110.79266112612925,-2.24613838532295,-45.85922505196
5.52,7.48,-3.47,-110.75231492282506,-1.6730962049034406,-45.53591791274641
5.64,7.08,-3.3,-110.79266112612925,-1.4438918508267422,-45.188168526204606
5.94,6.81,-3.6,-110.87341536801527,-1.0542572154525014,-44.96484726352389
5.93,6.63,-3.34,-110.99470186962544,-0.9052827329224428,-44.89044689976561
6.22,6.39,-3.67,-111.0756633938936,-0.7677691897415189,-44.82846183777319
6.02,6.49,-3.28,-111.13643927299914,-0.4583674584234223,-44.679754048391246
6.15,6.74,-3.48,-111.09591679955122,-0.2864791959817692,-44.70453316546126
6.06,6.87,-3.41,-111.13643927299914,0.0687549395409955,-44.50636177945312
6.13,6.89,-3.36,-111.1769826604611,0.2521016332198253,-44.38257587959071
6.22,6.72,-3.57,-111.21754699943544,0.2864791959817692,-44.37020029186166
6.11,6.66,-3.43,-111.3190497567916,0.5156637559929028,-44.196999190211535
6.08,6.52,-3.46,-111.35968772291412,0.5385823103159236,-44.15989850900582
6.07,6.47,-3.38,-111.42068428698192,0.7104722177704716,-44.07334918943469
6.3,6.43,-3.75,-111.40034681062792,0.687553479519944,-44.13516742855202
5.98,6.51,-3.17,-111.46137512854489,0.8709042326408071,-43.98682632143316
6.14,6.66,-3.44,-111.42068428698192,1.0886361860699356,-43.87562138331682
6.09,6.69,-3.44,-111.42068428698192,1.100095864564908,-43.87562138331682
6.16,6.6,-3.63,-111.38001462419376,1.2490727279396536,-43.8262109221212
6.11,6.59,-3.43,-111.38001462419376,1.2490727279396536,-43.83856273356188
6.18,6.71,-3.52,-111.35968772291412,1.2490727279396536,-43.86326796394638
6.18,6.7,-3.62,-111.3393661020306,1.3751317128217122,-43.78915870024722
6.13,6.67,-3.47,-111.3190497567916,1.5355728478655368,-43.6780308968355
6.06,6.6,-3.32,-111.35968772291412,1.4897322301406863,-43.69037629572606
6.02,6.69,-3.35,-111.3393661020306,1.4668120111410634,-43.69037629572606
6.1,6.66,-3.54,-111.2987386824523,1.5699534720315549,-43.62865462912293
6.12,6.67,-3.5,-111.27843287427478,1.581413711340907,-43.60396968900631
6.0,6.78,-3.42,-111.25813232752796,1.5699534720315549,-43.57928687578811
6.14,6.79,-3.53,-111.23783703748737,1.5241126706819226,-43.56694626623634
6.11,6.65,-3.45,-111.23783703748737,1.4782721132478738,-43.56694626623634
6.22,6.73,-3.67,-111.1972622086614,1.4095117183833985,-43.59162801664085
6.08,6.6,-3.56,-111.25813232752796,1.432431792389882,-43.542266640188856
6.04,6.72,-3.43,-111.25813232752796,1.5011923619341792,-43.45590465390315
5.99,6.69,-3.45,-111.2987386824523,1.5011923619341792,-43.41890031609472
6.19,6.76,-3.59,-111.2987386824523,1.5011923619341792,-43.406566594214624
6.08,6.67,-3.53,-111.3393661020306,1.5011923619341792,-43.344905905749854
6.06,6.74,-3.44,-111.35968772291412,1.5470330404085568,-43.307915821839245
5.98,6.63,-3.45,-111.38001462419376,1.5355728478655368,-43.23394986814831
6.09,6.69,-3.65,-111.35968772291412,1.5355728478655368,-43.20929875568471
5.84,6.66,-3.33,-111.40034681062792,1.5011923619341792,-43.17232602381402
6.01,6.82,-3.44,-111.38001462419376,1.4782721132478738,-43.18464974314042
5.99,6.58,-3.52,-111.35968772291412,1.4668120111410634,-43.22162404932176
6.13,6.64,-3.58,-111.3190497567916,1.5699534720315549,-43.20929875568471
5.99,6.62,-3.47,-111.3190497567916,1.4897322301406863,-43.24627621237414
6.13,6.75,-3.63,-111.2987386824523,1.4782721132478738,-43.27093047786308
