acc_x,acc_y,acc_z,eul_x,eul_y,eul_z
-4.15,-0.06,-8.96,-121.6183055994286,51.252642719818056,23.40148673707778
-4.21,0.01,-8.89,-121.59481456130888,51.27806271629933,23.38978453262475
-4.49,0.0,-8.52,-121.59481456130888,51.27806271629933,23.46000147463535
-4.61,0.1,-8.27,-121.5243930799012,51.3034854195264,23.506817731301982
-4.45,0.19,-8.51,-121.54785831198568,51.3034854195264,23.49511329436541
-4.46,-0.13,-8.7,-121.57133213564484,51.31619778683095,23.43659483600268
-4.28,0.23,-8.82,-121.59481456130888,51.328910831615794,23.37808257553645
-4.29,0.08,-8.8,-121.6183055994286,51.328910831615794,23.331277218076693
-4.4,-0.02,-8.84,-121.6418052604753,51.2907737294374,23.34297818708293
-4.35,0.12,-8.72,-121.71235608620218,51.26535237984769,23.34297818708293
-4.22,0.19,-8.8,-121.73589034408552,51.23993373594613,23.28447580744025
-4.35,-0.02,-8.76,-121.78298489723478,51.17639894970855,23.296175790566195
-4.47,-0.07,-8.63,-121.80654521371449,51.1001794642751,23.34297818708293
-4.22,-0.07,-8.72,-121.8301142376418,51.125583264636,23.26107657942957
-4.2,0.06,-8.85,-121.87727845049912,51.11288102782698,23.16748949044666
-4.3,0.01,-8.91,-121.87727845049912,51.125583264636,23.144095168471857
-4.3,-0.05,-8.74,-121.90087366081208,51.125583264636,23.10900551875196
-4.27,0.04,-8.82,-121.87727845049912,51.15098975907829,23.07391806563097
-4.34,0.2,-8.72,-121.92447762133864,51.11288102782698,23.07391806563097
-4.28,-0.03,-8.8,-121.94809034282368,51.1001794642751,23.015443848374385
-4.23,-0.01,-8.73,-122.01898118079964,51.06207881053215,22.92189772810272
-4.35,-0.13,-8.71,-122.04262905399636,51.01128734852718,22.93359014513587
-4.46,-0.11,-8.39,-122.04262905399636,51.01128734852718,22.91020555294516
-4.23,-0.02,-8.71,-122.06628574219845,51.02398420663922,22.84005757373193
-4.27,-0.08,-8.78,-122.11362560713808,51.02398420663922,22.769918267605057
-4.28,-0.03,-8.89,-122.11362560713808,51.03668173616908,22.74654042115177
-4.22,-0.23,-8.75,-122.20841159701892,50.9605066250118,22.62966555670664
-4.3,-0.03,-8.76,-122.25585789752888,50.935120284944745,22.54786734834884
-4.15,-0.08,-9.0,-122.3033398527211,50.90973662321184,22.466080778094224
-4.34,-0.13,-8.7,-122.37462983210789,50.85897732637935,22.41935080242252
-4.18,-0.02,-8.84,-122.3984110822012,50.83360168709925,22.337582426465424
-4.18,-0.06,-8.9,-122.51745226375392,50.782858416372434,22.2091125181558
-4.11,-0.25,-8.82,-122.5651319143896,50.71944432115219,22.162403204703928
-4.32,-0.28,-8.63,-122.63671936413527,50.65604685467434,22.11569761985897
-4.3,-0.26,-8.73,-122.68448977939887,50.61801634307628,22.08067087291992
-4.21,-0.3,-8.71,-122.7322966604894,50.59266598447474,22.01062364188303
-4.23,-0.12,-8.84,-122.7322966604894,50.59266598447474,21.97560315049688
-4.04,-0.1,-8.97,-122.7801400993836,50.541973215859535,21.97560315049688
-3.86,-0.32,-9.0,-122.80407555685306,50.47862213735133,22.01062364188303
-4.25,-0.39,-8.68,-122.80407555685306,50.37729473020999,22.11569761985897
-4.22,-0.4,-8.66,-122.85197400573632,50.326646830888215,22.09234622296079
-4.15,-0.35,-8.82,-122.89990924402274,50.33930781936822,22.01062364188303
-4.15,-0.32,-8.81,-122.92389068833596,50.326646830888215,21.940584737009782
-4.14,-0.35,-8.82,-122.92389068833596,50.35196946524382,21.85888316581779
-4.16,-0.29,-8.73,-122.92389068833596,50.37729473020999,21.83554192755703
-4.24,-0.35,-8.53,-122.97188128580086,50.415287564554994,21.695513718287582
-4.02,-0.3,-8.82,-123.16421485435568,50.49129103156368,21.18235565251096
-4.04,-0.33,-8.66,-123.38130576448056,50.57999179913578,20.623036118505983
-4.09,-0.27,-8.54,-123.502242338284,50.6687250192297,20.25043303206116
-3.82,-0.26,-8.77,-123.81779521129648,50.820914868829576,19.343110284151184
-3.33,-0.14,-9.55,-124.1105266335135,50.92242811941736,18.587944621042265
-3.41,-0.28,-9.58,-124.23291484122736,50.9605066250118,18.286108128329392
-3.51,-0.2,-9.22,-124.23291484122736,50.97320080007504,18.286108128329392
-3.41,-0.26,-9.42,-124.23291484122736,50.97320080007504,18.286108128329392
-3.64,-0.27,-9.02,-124.18392994389636,50.9605066250118,18.390575402245243
-3.61,-0.18,-9.08,-124.18392994389636,50.94781312005565,18.437010245615284
-3.41,-0.27,-9.16,-124.15945231540816,50.9605066250118,18.44861943332721
-3.67,-0.28,-9.0,-124.1105266335135,50.94781312005565,18.599556301853195
-3.86,-0.31,-8.85,-124.06164029835844,50.92242811941736,18.704070115126303
-3.64,-0.4,-9.06,-123.98838434414272,50.935120284944745,18.820214993044136
-3.79,-0.22,-8.89,-123.96398525409832,50.94781312005565,18.91314493847748
-3.65,-0.21,-9.15,-123.93959592332432,50.99859116157064,18.855062255560348
-3.61,-0.21,-9.07,-123.96398525409832,50.99859116157064,18.80859962930239
-3.63,-0.32,-9.15,-123.96398525409832,50.99859116157064,18.796984460560505
-3.56,-0.21,-9.33,-123.96398525409832,50.99859116157064,18.76214012304259
-3.51,-0.24,-9.17,-123.96398525409832,50.99859116157064,18.76214012304259
-3.76,-0.21,-8.92,-123.96398525409832,50.99859116157064,18.83183055191492
-3.68,-0.19,-9.02,-123.93959592332432,50.98589564550729,18.843446306043926
-3.87,-0.42,-8.94,-123.93959592332432,50.9605066250118,18.86667840059343
-3.6,-0.37,-9.06,-123.91521633901591,50.98589564550729,18.86667840059343
-3.63,-0.22,-8.96,-123.8908464883956,50.99859116157064,18.88991127772655
-3.67,-0.33,-9.16,-123.86648635871312,51.03668173616908,18.88991127772655
-3.62,-0.22,-9.08,-123.84213593724544,51.06207881053215,18.91314493847748
-3.69,-0.03,-9.01,-123.79346416819727,51.1001794642751,18.98285063278348
-3.82,-0.19,-8.95,-123.76914279530573,51.0874785737173,19.04094412601985
-3.77,-0.34,-8.97,-123.79346416819727,51.04937993737921,19.05256341690962
-3.61,-0.23,-9.08,-123.79346416819727,51.04937993737921,19.05256341690962
-3.65,-0.32,-9.16,-123.79346416819727,51.04937993737921,19.05256341690962
-3.76,-0.29,-9.06,-123.76914279530573,51.06207881053215,19.08742247639564
-3.75,-0.33,-8.92,-123.69623657185858,51.0874785737173,19.157145947707967
-3.72,-0.2,-8.95,-123.6476805433651,51.138286174965344,19.157145947707967
-3.72,-0.21,-9.15,-123.62341692773376,51.17639894970855,19.157145947707967
-3.69,-0.31,-9.08,-123.57491843142247,51.21451779561868,19.157145947707967
-3.84,-0.14,-8.92,-123.52645816564733,51.23993373594613,19.23849904872923
-3.7,-0.25,-9.17,-123.502242338284,51.26535237984769,19.250121718432275
-3.73,-0.28,-9.11,-123.4780360314948,51.252642719818056,19.33148601143644
-3.7,-0.44,-9.06,-123.45383923298036,51.252642719818056,19.33148601143644
-3.81,-0.3,-8.91,-123.40547411170807,51.26535237984769,19.412860145181693
-3.79,-0.2,-9.11,-123.35714687658856,51.31619778683095,19.43611171140661
-3.71,-0.21,-9.05,-123.35714687658856,51.31619778683095,19.447737797457524
-3.78,-0.26,-9.08,-123.30885743015295,51.35433895468569,19.470990576087328
-3.78,-0.15,-9.18,-123.2364939020704,51.36705403350072,19.645412292934687
-3.68,-0.11,-9.08,-123.18829850358512,51.36705403350072,19.71519382901285
-3.97,-0.12,-8.78,-123.18829850358512,51.35433895468569,19.784982749875187
-3.84,-0.35,-8.96,-123.21239151549196,51.328910831615794,19.72682480222871
-3.79,-0.32,-9.07,-123.2364939020704,51.31619778683095,19.69193249784897
-3.83,-0.26,-8.94,-123.21239151549196,51.328910831615794,19.703563060929827
-3.9,-0.17,-8.89,-123.18829850358512,51.35433895468569,19.71519382901285
-3.82,-0.08,-9.13,-123.16421485435568,51.39248622701663,19.71519382901285
-3.78,-0.04,-9.0,-123.18829850358512,51.39248622701663,19.703563060929827
-3.8,-0.16,-8.95,-123.18829850358512,51.35433895468569,19.73845598070809
-3.96,-0.3,-8.82,-123.21239151549196,51.328910831615794,19.76171895398025
-3.69,-0.3,-9.0,-123.2364939020704,51.328910831615794,19.69193249784897
-3.78,-0.25,-8.99,-123.26060567533968,51.328910831615794,19.66867198617123
-3.85,-0.3,-9.0,-123.28472684734406,51.31619778683095,19.633782752905432
-3.78,-0.32,-9.15,-123.28472684734406,51.31619778683095,19.6570420373131
-3.82,-0.17,-9.04,-123.26060567533968,51.35433895468569,19.66867198617123
-3.78,-0.16,-9.06,-123.2364939020704,51.37976979085595,19.703563060929827
-3.96,-0.05,-9.01,-123.18829850358512,51.37976979085595,19.76171895398025
-3.79,-0.04,-8.95,-123.18829850358512,51.40520334224811,19.72682480222871
-3.71,-0.13,-8.99,-123.21239151549196,51.41792113681584,19.61052428537218
-4.03,-0.37,-8.48,-123.2364939020704,51.40520334224811,19.56400979675284
-3.85,-0.31,-8.84,-123.38130576448056,51.45607859919252,19.16876722159467
-3.52,-0.27,-8.96,-123.69623657185858,51.49424218516168,18.506668239532367
-3.35,-0.22,-9.13,-123.91521633901591,51.57058775662223,17.891591511712036
-3.62,-0.32,-8.61,-124.23291484122736,51.65968866130368,17.033669594732867
-2.78,-0.31,-9.43,-124.972501010871,51.799772186124144,14.973857013009212
-2.49,-0.57,-9.8,-125.29584795913512,51.876216427159775,13.922726077012074
-2.88,-0.23,-9.4,-125.3707171892468,52.0164286876315,13.437990937987554
-2.31,0.18,-9.75,-125.52074054609028,52.14396705080251,12.745928771149693
-2.4,0.2,-9.58,-125.696251455902,52.27157490538662,11.89302513102135
-2.53,-0.03,-9.41,-125.77163105081792,52.28433952334372,11.593515641253695
-2.23,-0.14,-9.56,-125.92268154117136,52.33540497698414,10.925662281710132
-2.07,0.01,-9.1,-126.12469119973764,52.36094189671525,10.13162973120474
-1.72,-0.19,-9.57,-126.60729740721462,52.37371140576522,8.154340029708836
-1.41,-0.34,-9.97,-126.88855686312144,52.39925252360182,6.604129057804274
-1.4,-0.21,-9.79,-126.9655039569828,52.43756945380554,5.949975106955117
-1.33,-0.1,-9.72,-127.19696922706022,52.39925252360182,4.814261580058959
-0.85,0.01,-10.2,-127.48115670522915,52.36094189671525,2.7733864743736323
-0.17,-0.19,-10.35,-127.55891058236664,52.36094189671525,1.5355728478655368
-0.96,-0.26,-9.25,-127.68873899317936,52.27157490538662,0.8136069048374162
0.19,0.03,-10.05,-127.89708982203928,52.08018919976154,-1.3865917007687605
0.67,0.09,-10.17,-128.0015563372832,51.9017033518216,-2.956790311078442
0.22,-0.2,-9.45,-128.05386288415187,51.723352699323634,-4.355527902560735
0.62,-0.3,-9.32,-128.05386288415187,51.634227840640925,-5.15836210329675
1.68,-0.23,-10.58,-127.94929869917114,51.45607859919252,-7.051830951076286
1.36,0.0,-9.85,-127.89708982203928,51.35433895468569,-7.809729533725751
1.55,-0.08,-9.94,-127.87100362286014,51.34162455414572,-7.993512795919138
1.53,0.04,-10.02,-127.84492955883974,51.23993373594613,-8.61393617408195
1.48,-0.23,-9.96,-127.7407542896587,51.15098975907829,-9.499056247386587
0.75,-0.33,-8.81,-127.76677999527551,51.125583264636,-9.476059158737444
2.66,0.08,-10.35,-127.48115670522915,50.9605066250118,-11.09834637461124
1.87,0.22,-9.69,-127.24853393391231,50.820914868829576,-12.227189726180756
2.01,-0.31,-9.53,-127.24853393391231,50.7701742654686,-12.400074265032766
1.08,-0.3,-8.46,-127.068261462492,50.73212580885688,-13.057297449093689
3.33,0.03,-10.08,-126.81171301116376,50.681403847895496,-13.922726077012074
1.76,0.2,-8.81,-126.73497195223707,50.65604685467434,-14.118999098561428
3.01,0.2,-9.85,-126.47990511760632,50.51663080170575,-15.043205913037664
3.01,0.11,-9.96,-126.42902677997118,50.415287564554994,-15.436288478593855
2.45,-0.05,-9.23,-126.32740410450675,50.27600944578726,-15.968397992715149
3.33,-0.06,-9.67,-125.821937957947,50.04827088645171,-17.555261104447528
4.0,-0.07,-9.88,-125.74649376545209,50.02297965952342,-17.763999776816537
2.08,-0.04,-8.54,-125.696251455902,50.03562494735929,-17.763999776816537
4.17,0.38,-9.83,-125.1215196986378,49.947121594647854,-19.029325032716933
3.3,0.21,-9.0,-125.19616916396942,49.9344808584857,-18.959614614971
2.14,0.01,-7.77,-124.99731160468365,49.833378319901584,-19.470990576087328
4.28,0.68,-9.76,-124.18392994389636,49.65654846766405,-21.12406961438943
4.58,0.35,-9.6,-123.98838434414272,49.58080290531658,-21.590514086807826
4.02,0.01,-9.11,-124.08607855408228,49.59342555885964,-21.43888030792546
4.3,0.96,-9.02,-123.62341692773376,49.47984477339551,-22.314222150985408
4.55,0.58,-9.45,-123.6476805433651,49.441996043237744,-22.337582426465424
2.37,-0.02,-8.03,-123.98838434414272,49.47984477339551,-21.70718148045912
5.06,0.64,-9.61,-123.5506835259097,49.366315839864654,-22.524498571325392
4.25,0.17,-9.3,-123.5991628945627,49.341094211246,-22.44271531767953
2.63,0.23,-8.15,-123.74483108000663,49.41676675386262,-22.08067087291992
4.94,0.82,-9.23,-123.33299743586116,49.341094211246,-22.769918267605057
4.18,0.39,-9.14,-123.502242338284,49.32848435315842,-22.57123707542117
3.0,0.31,-7.94,-123.52645816564733,49.290658600791176,-22.524498571325392
5.3,0.84,-9.41,-122.87593702038136,49.17721568249704,-23.68241421184977
4.63,0.4,-9.37,-122.97188128580086,49.13941280029733,-23.56534364989273
2.47,0.13,-7.9,-123.18829850358512,49.21502427217554,-23.144095168471857
5.46,0.72,-9.34,-122.85197400573632,49.13941280029733,-23.70583132960312
3.64,0.52,-8.72,-123.16421485435568,49.189817911228005,-23.144095168471857
4.73,0.54,-9.27,-123.14014055583444,49.17721568249704,-23.16748949044666
4.62,0.7,-8.94,-122.87593702038136,49.1016156188802,-23.64729041599085
4.37,0.35,-8.9,-122.97188128580086,49.11421404634533,-23.448298031292182
2.99,0.4,-8.26,-123.01990890666336,49.12681310673511,-23.34297818708293
5.07,0.59,-9.17,-122.63671936413527,49.05122823331522,-23.998630403703213
3.68,0.35,-8.22,-122.70838865597604,49.02603833164671,-23.91663071897709
4.39,0.53,-8.89,-122.3033398527211,48.93789354543228,-24.596436196111345
5.49,0.56,-9.33,-122.06628574219845,48.82460984436268,-24.948403420997227
4.03,1.0,-8.55,-122.35085755126808,48.887538949850274,-24.162667241251803
4.16,0.78,-8.61,-122.3270942285192,48.84977960308056,-24.127512270969643
5.13,0.96,-8.99,-121.97171183603344,48.69879864666847,-24.76065802803315
3.13,0.7,-7.66,-122.04262905399636,48.64849167574625,-24.61989330860375
5.41,1.15,-8.89,-121.3603761475579,48.39710622669993,-25.74708778893412
5.16,1.2,-8.98,-121.12678863705332,48.23383857270471,-26.158669228245632
4.81,1.0,-8.8,-121.45404882910115,48.28406366468798,-25.62955536451614
4.82,1.01,-8.95,-121.87727845049912,48.39710622669993,-24.948403420997227
2.29,0.28,-6.78,-122.7801400993836,48.72395587995984,-23.34297818708293
4.98,1.12,-9.23,-122.89990924402274,48.76169642019097,-23.155792207151627
4.58,0.91,-9.04,-122.92389068833596,48.78685991006569,-23.08561363949995
4.2,0.86,-9.02,-123.33299743586116,48.90012665540839,-22.314222150985408
4.51,0.84,-9.66,-123.8908464883956,49.13941280029733,-21.112413070583106
2.65,0.37,-8.43,-124.79911472012829,49.47984477339551,-19.192010366536685
3.56,0.63,-9.23,-124.9229107357918,49.59342555885964,-18.738911537329376
3.74,0.78,-9.57,-125.22107317255428,49.74494758083664,-17.961196420173227
3.05,0.64,-9.34,-125.67114640173416,49.9344808584857,-16.744050792597328
2.8,0.31,-9.2,-125.92268154117136,50.1115103596797,-15.922114008308863
3.24,0.39,-9.64,-125.97311846044452,50.21272747501065,-15.598198868035936
2.52,0.57,-9.53,-126.22595924751906,50.37729473020999,-14.696516297153034
2.24,0.55,-9.31,-126.32740410450675,50.51663080170575,-14.130545861300051
2.86,0.58,-9.97,-126.40360438507471,50.71944432115219,-13.507223821905177
2.47,0.52,-9.57,-126.658333240647,51.06207881053215,-11.985198208002224
1.94,0.43,-9.68,-126.78612125881504,51.20181083863503,-11.248026360967865
1.93,0.54,-9.66,-126.81171301116376,51.37976979085595,-10.62640189942489
1.29,0.46,-9.29,-126.88855686312144,51.48152030899618,-10.039600263356236
1.62,0.33,-9.71,-126.9655039569828,51.57058775662223,-9.568049817899787
1.86,0.17,-9.87,-126.9655039569828,51.62149845664168,-9.361079434368332
1.44,0.28,-9.65,-127.01685959928788,51.74882311470209,-8.797813093528106
1.69,0.43,-9.88,-126.91419440082724,51.85073225942561,-8.705871826379285
1.32,0.4,-9.5,-126.81171301116376,51.9017033518216,-8.901253805563371
1.47,0.45,-9.63,-126.78612125881504,51.91444784867411,-8.878266355561609
1.58,0.49,-9.84,-126.73497195223707,52.00367866289412,-8.705871826379285
1.55,0.48,-9.95,-126.76054091134182,52.05468291613776,-8.384121213370948
1.56,0.3,-9.89,-126.81171301116376,52.20776227467979,-7.568544455864768
0.92,0.36,-9.52,-126.83731618493428,52.309870853255504,-7.028869316139518
1.41,0.5,-9.9,-126.81171301116376,52.38648161463618,-6.7418724197947295
0.93,0.37,-9.68,-126.83731618493428,52.42479644291255,-6.420486066048695
1.13,0.39,-9.83,-126.86293079671192,52.539778806860255,-5.697547703194251
0.84,0.32,-9.78,-126.88855686312144,52.6036825036909,-5.284543793645802
0.98,0.42,-9.88,-126.86293079671192,52.65481814526298,-4.9518964029981625
0.91,0.48,-9.98,-126.83731618493428,52.74433270456297,-4.539012581284228
0.74,0.35,-9.8,-126.83731618493428,52.85947382737936,-3.656090990936744
0.31,0.37,-9.81,-126.86293079671192,52.85947382737936,-3.4726557451993814
0.6,0.21,-9.86,-126.81171301116376,52.93626652690735,-3.266301709643329
0.69,0.31,-9.97,-126.76054091134182,53.02589040849176,-2.87655022805785
0.26,0.33,-9.83,-126.76054091134182,53.07711975523274,-2.383676327772471
0.23,0.29,-9.82,-126.78612125881504,53.06431134668802,-2.223215714892369
0.21,0.35,-9.84,-126.76054091134182,53.11554927222101,-1.741858774764144
0.21,0.51,-10.0,-126.76054091134182,53.16679865181976,-1.1230152546764245
0.14,0.32,-10.09,-126.76054091134182,53.17961278851925,-0.5156637559929028
-0.28,0.25,-9.73,-126.76054091134182,53.19242764249977,0.1145915781247664
-0.05,0.21,-9.91,-126.73497195223707,53.25651268144825,0.7563097804494618
-0.38,0.24,-9.92,-126.6838681332996,53.28215172783013,1.5241126706819226
-0.9,0.13,-9.53,-126.658333240647,53.29497233017572,2.085681528609333
-0.81,0.18,-9.61,-126.60729740721462,53.34626194049607,2.47537018520181
-0.59,0.09,-9.88,-126.58179643384616,53.34626194049607,2.521217704700676
-0.69,0.07,-9.71,-126.55630673438098,53.34626194049607,2.6473004867786654
-0.63,0.19,-9.8,-126.55630673438098,53.37191107016693,2.6473004867786654
-0.35,0.23,-10.18,-126.47990511760632,53.436046525616895,2.658762714530565
-0.87,0.35,-9.8,-126.42902677997118,53.461705766242936,3.0026424356334624
-1.03,0.27,-9.49,-126.37819315148278,53.48736790080604,3.2777655386010047
-1.05,0.41,-9.54,-126.40360438507471,53.48736790080604,3.2089830530311807
-0.57,0.09,-10.07,-126.37819315148278,53.48736790080604,3.438262641755622
-0.86,0.11,-9.72,-126.3527930632596,53.48736790080604,3.782208130568333
-0.91,0.04,-9.8,-126.30202625936262,53.500200054022216,4.011523869819651
-0.83,0.14,-9.86,-126.27665951200248,53.500200054022216,4.481672390551605
-1.33,0.04,-9.63,-126.2513038466384,53.48736790080604,4.814261580058959
-0.83,0.14,-9.94,-126.17530318519164,53.525866533741606,5.0780679322633615
-1.33,0.22,-9.57,-126.12469119973764,53.525866533741606,5.3992599817249625
-0.99,0.1,-10.04,-126.09940169684566,53.538700860812206,5.536926565771378
-1.13,0.02,-9.9,-126.02359896120804,53.57720819427434,5.812283928177061
-1.33,0.29,-9.74,-125.92268154117136,53.61572206207956,6.168003805570946
-1.3,0.17,-9.95,-125.79677910995709,53.667084063629616,6.6500424405205285
-1.7,0.19,-9.48,-125.64605206137207,53.70561320811986,7.23553431499132
-1.5,0.1,-9.64,-125.52074054609028,53.75699560652143,7.717845476549469
-1.81,0.18,-9.53,-125.3457502614118,53.80838968539714,8.361141590530956
-2.0,0.35,-9.5,-125.27091255577452,53.82124003233572,8.625427825614647
-1.53,0.09,-9.84,-125.19616916396942,53.82124003233572,8.95872400294449
-2.22,0.19,-9.29,-125.02213252137535,53.85979546306142,9.60254790532585
-1.94,0.3,-9.83,-124.9229107357918,53.911212957858886,9.867062460142211
-1.64,0.37,-9.94,-124.9229107357918,53.92406916451298,9.878564278366849
-2.02,0.26,-9.57,-124.84860239500853,53.89835748467391,10.235170717586842
-2.06,0.18,-9.71,-124.77438620684354,53.89835748467391,10.4537848668845
-2.23,0.16,-9.49,-124.65089633148648,53.88550274467078,11.029269725697889
-2.43,0.05,-9.34,-124.47843555677235,53.911212957858886,11.501374957383891
-2.34,0.26,-9.52,-124.33100356461244,53.98836120988355,11.789339646395064
-2.19,0.21,-9.72,-124.30646648477428,53.9755013315704,11.858462221253813
-2.38,0.13,-9.54,-124.18392994389636,53.94978377937824,12.330917071488786
-2.55,0.19,-9.39,-124.06164029835844,53.92406916451298,12.780520582262024
-2.57,0.24,-9.51,-123.8908464883956,53.93692610492359,13.311076762780564
-2.61,0.17,-9.46,-123.76914279530573,53.962642188164594,13.668786527863627
-2.89,0.25,-9.19,-123.5506835259097,53.962642188164594,14.222925164993963
-2.47,0.27,-9.75,-123.45383923298036,53.98836120988355,14.45391421483677
-2.77,0.38,-9.55,-123.40547411170807,53.962642188164594,14.661854827129083
-2.96,0.38,-9.26,-123.30885743015295,53.93692610492359,14.973857013009212
-3.11,0.04,-9.16,-123.16421485435568,53.88550274467078,15.447852474357363
-2.91,0.23,-9.57,-123.11607559607694,53.88550274467078,15.586632804931574
-3.01,0.06,-9.33,-123.06797364519969,53.85979546306142,15.73700413286234
-3.17,0.16,-9.18,-123.0439366303148,53.80838968539714,15.875832638109523
-3.04,-0.07,-9.46,-123.14014055583444,53.70561320811986,15.875832638109523
-2.95,0.15,-9.36,-123.14014055583444,53.67992638338189,15.945255673236543
-3.27,0.17,-9.11,-123.09201996316364,53.65424247190823,16.10726571114575
-3.06,0.1,-9.46,-122.9958904624243,53.61572206207956,16.466118077182387
-3.33,0.23,-9.2,-122.89990924402274,53.57720819427434,16.79038251334145
-3.18,0.0,-9.29,-122.85197400573632,53.525866533741606,16.917809025605248
-3.44,-0.01,-9.04,-122.82802018843608,53.461705766242936,17.126370676427072
-3.22,0.12,-9.44,-122.7322966604894,53.436046525616895,17.31180678552449
-3.63,0.1,-8.78,-122.5651319143896,53.41039017666287,17.763999776816537
-3.44,-0.03,-9.06,-122.5651319143896,53.3975630858556,17.763999776816537
-3.48,0.1,-9.18,-122.46980875996977,53.42321798982236,17.90319186690899
-3.39,0.22,-9.32,-122.37462983210789,53.41039017666287,18.216471799125177
-3.48,0.0,-9.18,-122.27959441275604,53.41039017666287,18.390575402245243
-3.52,0.05,-9.23,-122.13730880568986,53.3975630858556,18.72729753587516
-3.73,-0.09,-9.12,-121.90087366081208,53.3975630858556,19.23849904872923
-3.69,0.01,-9.06,-121.66531355494112,53.41039017666287,19.71519382901285
-3.84,0.03,-9.06,-121.29021101561548,53.42321798982236,20.506574164810864
-3.97,0.17,-8.98,-121.01031078825766,53.4488757843294,21.03082344341432
-3.97,0.1,-8.99,-120.61584152012747,53.48736790080604,21.76552371074204
-4.52,0.23,-8.41,-120.22373946495335,53.500200054022216,22.524498571325392
-4.31,0.2,-8.81,-119.87969568097152,53.57720819427434,23.03883280540741
-4.43,-0.15,-8.68,-119.67412364784865,53.60288337963247,23.40148673707778
-4.59,0.32,-8.42,-119.24220793672814,53.67992638338189,24.127512270969643
-4.58,0.09,-8.61,-118.90317397360045,53.84694292088121,24.56125248965988
-4.49,0.67,-8.61,-118.54340107943032,54.06553592895308,25.03056340197877
-4.58,0.35,-8.51,-118.31950504112476,54.18134776958782,25.31235434951457
-4.54,0.34,-8.8,-117.94055354353924,54.42603640579737,25.67656503656709
-4.73,0.37,-8.6,-117.65216707446253,54.60650529245762,25.99399574998519
-4.75,0.77,-8.27,-117.3429325945059,54.89039623695746,26.241026566581308
-4.5,0.72,-8.61,-117.1448610408126,55.14879620852955,26.288094094940124
-4.83,0.62,-8.36,-116.83785829536993,55.34279598100365,26.66479763712951
-4.73,0.91,-8.24,-116.6848576958755,55.53696813006854,26.74724052277769
-4.75,1.02,-8.3,-116.64120406641231,55.70539088046685,26.64124511049845
-4.35,0.89,-8.9,-116.4668582991344,55.93880786648987,26.59414349441812
-4.58,0.95,-8.53,-116.24952660685352,56.14650176459217,26.71190613338563
-4.57,1.0,-8.52,-115.96798233708935,56.45841982476564,26.85325924989716
-4.4,0.93,-8.72,-115.75216046951115,56.69265769689071,26.94751777725
-4.61,1.24,-8.64,-115.06583600138664,57.04449995014843,27.761276718209416
-4.78,0.78,-8.29,-114.5341088647508,57.34468103045612,28.422768181257144
-4.74,2.17,-8.31,-113.6702839060659,57.8546700143526,29.357596603435567
-4.26,1.73,-8.91,-113.21085389304196,58.07736528499432,29.985877446985693
-4.23,1.85,-9.06,-112.01279388618184,58.52347906562028,31.459467480314125
-4.93,2.99,-7.95,-111.23783703748737,58.73375160745704,32.53234621871178
-5.0,3.39,-7.82,-110.4101987714497,59.02323151633205,33.476513522752754
-4.4,2.44,-8.67,-109.79009253076951,59.35268933204871,34.00339056621902
-4.96,3.68,-7.28,-108.83922979141936,59.722324202247286,34.90319398604888
-4.81,3.89,-7.59,-108.44628015323634,59.82805979528858,35.31183406453793
-4.63,2.34,-7.96,-107.87980072820756,60.23831733096471,35.51632781311482
-4.6,4.27,-7.79,-106.89278954728871,60.75566190693615,36.17873077462121
-4.6,3.97,-7.52,-106.43226434357533,61.02149795384262,36.43197725116238
-4.73,2.72,-7.05,-106.12661834568743,61.59428159649024,35.841352697842005
-3.64,4.98,-8.82,-106.06943042494876,62.182157850572864,34.591013631336175
-3.45,4.08,-8.35,-105.822052873486,62.691336115096064,33.775785318620265
-4.53,4.84,-6.59,-105.31051129197044,63.20189622403351,33.64407662582565
-4.03,4.67,-6.25,-105.89809368556764,63.49812368940196,31.39994691440291
-0.46,4.64,-11.96,-106.604670219113,63.76783312990714,28.63559484770936
-2.8,5.46,-7.68,-105.93613916476912,64.34905178938227,28.422768181257144
-3.05,4.06,-7.43,-105.55643382820686,65.06800105005402,27.64325314897049
-2.55,4.26,-6.21,-105.5943297282315,65.54435879722949,25.40631916668005
1.12,5.49,-12.16,-105.89809368556764,65.88539584221961,21.275624852029367
-1.61,3.82,-7.36,-105.19724163612636,66.63800657923225,21.25230621784773
-1.7,4.71,-7.17,-104.37102298797171,67.53166897221763,20.27371434520358
0.21,4.7,-9.91,-104.29629314706916,67.75236088092288,18.402183827223173
-0.54,4.41,-8.15,-103.81206807438303,68.15309455975414,17.450913825320047
-0.43,6.12,-7.84,-103.6079880821084,68.13926040565448,15.667598608855752
1.65,5.01,-10.69,-103.99799847995276,67.86281386047486,13.414914406298776
0.28,5.4,-8.3,-103.90498509276028,67.94570061664109,12.711338126294772
-0.03,4.86,-7.71,-103.88639399112432,68.00098090210307,12.100425506938455
1.7,4.85,-9.53,-104.33365022340344,67.173649069206,9.3380846266553
1.2,5.68,-8.29,-104.37102298797171,66.91248837447597,8.522006076442151
0.83,4.69,-7.81,-104.52067140467182,66.8438272739107,8.050949266749551
1.77,5.14,-8.65,-104.70808777910833,66.55574634912462,6.994427393261249
2.21,5.1,-9.23,-104.89590236711722,66.26813997300863,6.064724315991072
1.32,4.7,-8.01,-105.06527849471128,66.22709184452836,5.9958740675037845
1.48,4.22,-8.27,-105.29162283128352,65.94002274269204,5.101008867683621
2.17,4.82,-8.87,-105.46176616813965,65.43536500136207,4.011523869819651
2.46,5.38,-9.08,-105.57537971529776,65.3400500368357,3.954193464226632
1.03,4.73,-7.56,-105.91711433300468,65.39450949953873,4.332593112917143
1.92,4.88,-8.73,-106.1456894229273,65.16317122703664,4.000057708800217
2.49,4.76,-9.04,-106.47054675108936,64.7556530727814,3.335085177891311
1.77,4.82,-8.44,-106.7390046476622,64.52513383249247,3.163128706652845
1.76,4.65,-8.44,-107.20119776385688,64.14609145323304,2.865087475133015
2.45,4.41,-9.05,-107.53011997485687,63.82182237007654,2.544141615361497
2.18,4.47,-8.76,-107.99668693087187,63.40381821677742,2.372214704126748
2.09,4.62,-8.72,-108.28962313901592,63.20189622403351,2.521217704700676
1.36,4.82,-8.13,-108.70148376565116,63.04051613304179,2.910938660030132
1.77,4.09,-8.67,-109.07590597018144,62.74501384121864,2.6473004867786654
1.73,4.31,-8.53,-109.57120014176904,62.28923949337646,2.1086036789736795
2.8,4.64,-9.32,-109.8498937322769,61.94144435552603,1.6730962049034406
2.08,4.2,-8.94,-110.3098558920654,61.63430677668394,1.5928739664684124
1.49,3.98,-8.4,-110.7321495345978,61.40760741658022,1.7877008349543104
1.54,4.22,-8.32,-111.15670835013724,61.08801371359053,1.7533192633889718
1.89,4.54,-8.73,-111.52245118481588,60.675981620918215,1.306372069959298
2.28,4.28,-9.09,-111.88991732477224,60.43713492448142,1.0657168616283692
2.15,3.58,-9.03,-112.34142441987676,60.17208928443668,1.0542572154525014
1.86,3.74,-8.89,-112.6714672903495,59.93385155178053,1.0084187350403075
2.05,3.95,-9.09,-113.04448004610614,59.64305925688446,0.9052827329224428
1.95,3.84,-8.89,-113.29417835148298,59.471426215105645,0.9052827329224428
1.82,4.1,-8.91,-113.54470605704356,59.36587885432352,0.985499555804114
1.6,4.48,-8.62,-113.71219000408917,59.286754689259176,1.0313379546174166
1.71,4.2,-8.74,-114.04828796434656,59.154950108935175,0.8709042326408071
1.66,3.94,-8.74,-114.38591221182236,58.970568079244025,0.6417160846123932
2.13,3.71,-9.47,-114.85268180222258,58.62858825496232,0.2750200056824314
1.97,3.63,-9.17,-115.1512723286105,58.484077048449976,0.2406424508273681
2.1,3.36,-9.4,-115.51550165897758,58.31342248941901,0.4010712754482724
1.42,3.61,-8.73,-115.75216046951115,58.23470667250937,0.7219315974960596
1.52,3.68,-8.92,-116.01122474494797,58.02494481779507,0.6531754234266163
1.81,3.5,-9.24,-116.18445627109944,57.8546700143526,0.4698267083113723
1.66,3.8,-9.2,-116.40158899740273,57.64529274825973,0.343775192742598
1.57,3.84,-9.04,-116.57577410041328,57.540683062151366,0.3666936147093117
1.47,3.44,-8.9,-116.83785829536993,57.37080402823785,0.2750200056824314
1.8,3.67,-9.16,-117.013124056645,57.22716779893635,0.1489690686936551
1.67,3.44,-9.24,-117.29886813726064,57.03145830719132,0.0802140978691341
1.52,3.59,-8.89,-117.47529333345742,56.94018936700064,0.1031324170464276
1.8,3.57,-9.21,-117.69645604638976,56.74474561080106,0.0802140978691341
1.64,3.28,-9.2,-117.89610796371052,56.62756576019291,0.1031324170464276
1.54,3.66,-9.01,-118.0740625813446,56.49744158979394,0.1833465726697912
1.61,3.52,-8.94,-118.25247900079262,56.38039768350901,0.2177240931471762
1.63,3.27,-9.33,-118.49856306250858,56.14650176459217,0.1833465726697912
1.45,3.26,-9.31,-118.67809259864173,56.06859306976256,0.3093975852894872
1.52,3.37,-9.2,-118.83557102370403,55.99071256936834,0.6187974261216272
1.36,3.4,-9.08,-118.9708445669936,55.96475865649774,0.8479852761926534
1.39,3.34,-9.4,-119.10638959402516,55.912860196887344,0.985499555804114
1.32,3.56,-9.09,-119.19690467351394,55.83503588596936,1.0886361860699356
1.55,3.48,-9.43,-119.33290625430892,55.82206789104122,1.2605325708995527
1.33,3.4,-9.26,-119.44645197451608,55.80910067345633,1.4782721132478738
1.21,3.24,-9.13,-119.60574054309872,55.75723957043542,1.6157945246366483
1.41,2.98,-9.52,-119.74257704437856,55.70539088046685,1.6730962049034406
1.13,3.34,-9.24,-119.87969568097152,55.67947118427708,1.9710720103882065
1.12,3.21,-9.39,-119.92546492630352,55.71835189030318,2.1315259137202647
1.12,3.23,-9.3,-120.01709840281568,55.70539088046685,2.2919839967771853
1.08,3.33,-9.31,-120.08590691104772,55.67947118427708,2.349291527927613
1.11,3.11,-9.43,-120.22373946495335,55.60173066165572,2.269061145645111
1.16,3.13,-9.37,-120.31578829659291,55.54991909388129,2.24613838532295
1.12,3.03,-9.26,-120.36186107562722,55.54991909388129,2.269061145645111
1.1,3.19,-9.4,-120.38490958888936,55.53696813006854,2.24613838532295
1.0,3.21,-9.24,-120.47718468766024,55.485171978249646,2.0283765158457068
1.16,3.25,-9.27,-120.5695899160874,55.40750082753502,1.79916139442209
1.17,3.19,-9.3,-120.75479321636242,55.25224136431043,1.3522117780748235
1.63,3.35,-9.79,-120.94052444578816,55.135868994465206,0.8709042326408071
1.12,2.73,-9.36,-121.29021101561548,55.01955829122679,0.4927452222969898
0.91,2.73,-9.33,-121.47748834883792,54.94205197415314,0.3781528311358495
1.17,2.79,-9.74,-121.66531355494112,54.81293529494486,0.2291832708413497
1.12,2.6,-9.34,-121.80654521371449,54.69679474885505,0.1031324170464276
1.17,2.7,-9.41,-121.92447762133864,54.64519627292022,-0.0458366248327759
1.34,2.66,-9.53,-122.01898118079964,54.61940153639184,-0.1718874029970642
1.27,2.67,-9.13,-122.11362560713808,54.59360979768476,-0.3552344019497601
1.41,2.79,-9.37,-122.18470178965724,54.54203530433204,-0.4927452222969898
1.28,2.7,-9.39,-122.27959441275604,54.51625254499015,-0.5385823103159236
1.24,2.57,-9.64,-122.35085755126808,54.490472774077006,-0.5958787923837214
1.33,2.39,-9.58,-122.44600053491276,54.42603640579737,-0.6990128451499703
1.5,2.69,-9.78,-122.46980875996977,54.42603640579737,-0.6990128451499703
1.2,2.65,-9.41,-122.5651319143896,54.451808715885925,-0.4927452222969898
0.91,2.57,-9.18,-122.63671936413527,54.46469598924939,-0.5042044866238587
1.15,2.3,-9.32,-122.75621380444773,54.31009785710634,-0.8136069048374162
1.55,2.28,-9.81,-122.80407555685306,54.24571355108697,-1.1803139285143014
