,TIME,ELAPSED_SECONDS,PSTATE,acc_x,acc_y,acc_z,mag_x,mag_y,mag_z,gyr_x,gyr_y,gyr_z,lin_x,lin_y,lin_z,eul_x,eul_y,eul_z,qua_w,qua_x,qua_y,qua_z
0,921532.0,841.87042,1.0,1.52,0.81,-9.82,-2.38,-15.5,37.25,-0.63,0.5,-0.44,0.043130627931510006,0.07242629908720799,-0.16289332856499605,-164.44410289964102,-12.250239375241625,-9.027691221695424,-0.0285,-0.9908,-0.1067,-0.0787
1,921532.0,841.87042,1.0,1.52,0.81,-9.82,-2.38,-15.5,37.25,-0.63,0.5,-0.44,0.043130627931510006,0.07242629908720799,-0.16289332856499605,-164.44410289964102,-12.250239375241625,-9.027691221695424,-0.0285,-0.9908,-0.1067,-0.0787
2,921565.0,841.874276,1.0,1.63,0.55,-9.71,-2.69,-15.06,37.25,1.06,-0.75,-0.63,0.11649879893175047,-0.18929449493511424,-0.052056589813632925,-164.44410289964102,-12.261764386292771,-9.016196458354324,-0.0279,-0.9908,-0.1068,-0.0786
3,921565.0,841.874276,1.0,1.63,0.55,-9.71,-2.69,-15.06,37.25,1.06,-0.75,-0.63,0.11649879893175047,-0.18929449493511424,-0.052056589813632925,-164.44410289964102,-12.261764386292771,-9.016196458354324,-0.0279,-0.9908,-0.1068,-0.0786
4,921602.0,841.8897720000001,1.0,1.46,0.73,-9.6,-2.69,-15.06,37.25,-1.37,-1.0,0.44,0.012939350550190831,0.022792942616313202,0.06889804921719644,-164.44410289964102,-12.261764386292771,-8.981712713320505,-0.0281,-0.9908,-0.1068,-0.0783
5,921602.0,841.8897720000001,1.0,1.46,0.73,-9.6,-2.69,-15.06,37.25,-1.37,-1.0,0.44,0.012939350550190831,0.022792942616313202,0.06889804921719644,-164.44410289964102,-12.261764386292771,-8.981712713320505,-0.0281,-0.9908,-0.1068,-0.0783
6,921634.0,841.934025,1.0,1.47,0.83,-9.73,-3.38,-15.06,36.5,-0.81,-2.06,1.0,0.029393423996765325,0.10673608403333618,-0.06808763879278956,-164.44410289964102,-12.238714488577818,-8.935735653853007,-0.0284,-0.9908,-0.1066,-0.0779
7,921634.0,841.934025,1.0,1.47,0.83,-9.73,-3.38,-15.06,36.5,-0.81,-2.06,1.0,0.029393423996765325,0.10673608403333618,-0.06808763879278956,-164.44410289964102,-12.238714488577818,-8.935735653853007,-0.0284,-0.9908,-0.1066,-0.0779
8,921671.0,841.997207,1.0,1.64,0.64,-9.82,-2.25,-14.69,37.25,0.94,0.19,-0.19,0.13838459589155253,-0.11273925188210455,-0.16830561717970838,-164.44410289964102,-12.238714488577818,-8.947229783297066,-0.0281,-0.9908,-0.1066,-0.078
9,921671.0,841.997207,1.0,1.64,0.64,-9.82,-2.25,-14.69,37.25,0.94,0.19,-0.19,0.13838459589155253,-0.11273925188210455,-0.16830561717970838,-164.44410289964102,-12.238714488577818,-8.947229783297066,-0.0281,-0.9908,-0.1066,-0.078
10,921706.0,842.0148320000001,1.0,1.45,0.73,-9.53,-2.25,-14.69,37.25,0.31,-0.5,0.19,0.023823222544642662,0.025043293090359464,0.13943192614137698,-164.44410289964102,-12.238714488577818,-8.92424161449454,-0.0282,-0.9908,-0.1066,-0.0778
11,921706.0,842.0148320000001,1.0,1.45,0.73,-9.53,-2.25,-14.69,37.25,0.31,-0.5,0.19,0.023823222544642662,0.025043293090359464,0.13943192614137698,-164.44410289964102,-12.238714488577818,-8.92424161449454,-0.0282,-0.9908,-0.1066,-0.0778
12,921739.0,842.060616,1.0,1.59,0.66,-9.9,-3.06,-14.38,37.25,0.25,-0.75,0.19,0.0834131864886287,-0.08578175441292885,-0.24120468301217454,-164.44410289964102,-12.238714488577818,-8.935735653853007,-0.0281,-0.9908,-0.1066,-0.0779
13,921739.0,842.060616,1.0,1.59,0.66,-9.9,-3.06,-14.38,37.25,0.25,-0.75,0.19,0.0834131864886287,-0.08578175441292885,-0.24120468301217454,-164.44410289964102,-12.238714488577818,-8.935735653853007,-0.0281,-0.9908,-0.1066,-0.0779
14,921774.0,842.078942,1.0,1.49,0.73,-9.72,-2.25,-14.69,36.0,1.25,0.25,0.5,0.0342522570527234,0.010910447093169129,-0.05388283271401306,-164.52900617164656,-12.227189726180756,-8.912747665103913,-0.0281,-0.9909,-0.1065,-0.0777
15,921774.0,842.078942,1.0,1.49,0.73,-9.72,-2.25,-14.69,36.0,1.25,0.25,0.5,0.0342522570527234,0.010910447093169129,-0.05388283271401306,-164.52900617164656,-12.227189726180756,-8.912747665103913,-0.0281,-0.9909,-0.1065,-0.0777
16,921810.0,842.10699,1.0,1.5,0.8,-9.67,-2.69,-15.5,37.88,0.94,-0.25,-1.06,0.06629064490154822,0.07879241477260529,-0.011104188498144651,-164.44410289964102,-12.238714488577818,-8.912747665103913,-0.0281,-0.9908,-0.1066,-0.0777
17,921810.0,842.10699,1.0,1.5,0.8,-9.67,-2.69,-15.5,37.88,0.94,-0.25,-1.06,0.06629064490154822,0.07879241477260529,-0.011104188498144651,-164.44410289964102,-12.238714488577818,-8.912747665103913,-0.0281,-0.9908,-0.1066,-0.0777
18,921845.0,842.20304,1.0,1.48,0.69,-9.7,-2.69,-15.5,37.88,-0.31,1.81,-0.31,0.01583984667770523,-0.023338951051914247,-0.02979775275205832,-164.44410289964102,-12.261764386292771,-8.935735653853007,-0.027999999999999997,-0.9908,-0.1068,-0.0779
19,921845.0,842.20304,1.0,1.48,0.69,-9.7,-2.69,-15.5,37.88,-0.31,1.81,-0.31,0.01583984667770523,-0.023338951051914247,-0.02979775275205832,-164.44410289964102,-12.261764386292771,-8.935735653853007,-0.027999999999999997,-0.9908,-0.1068,-0.0779
20,921880.0,842.207099,1.0,1.53,0.75,-9.77,-1.88,-14.38,36.88,-0.12,-1.06,0.0,0.06116189172164532,0.020137011726533368,-0.11061543578217403,-164.44410289964102,-12.261764386292771,-8.95872400294449,-0.0281,-0.9908,-0.1068,-0.0781
21,921880.0,842.207099,1.0,1.53,0.75,-9.77,-1.88,-14.38,36.88,-0.12,-1.06,0.0,0.06116189172164532,0.020137011726533368,-0.11061543578217403,-164.44410289964102,-12.261764386292771,-8.95872400294449,-0.0281,-0.9908,-0.1068,-0.0781
22,921915.0,842.2519880000001,1.0,1.52,0.71,-9.61,-3.06,-14.38,36.88,1.25,1.56,-0.5,0.06915318009762418,-0.008554731131191151,0.05156185820150228,-164.44410289964102,-12.261764386292771,-8.95872400294449,-0.027999999999999997,-0.9908,-0.1068,-0.0781
23,921915.0,842.2519880000001,1.0,1.52,0.71,-9.61,-3.06,-14.38,36.88,1.25,1.56,-0.5,0.06915318009762418,-0.008554731131191151,0.05156185820150228,-164.44410289964102,-12.261764386292771,-8.95872400294449,-0.027999999999999997,-0.9908,-0.1068,-0.0781
24,921950.0,842.268508,1.0,1.57,0.83,-9.82,-3.06,-14.38,36.88,1.5,-0.5,-1.31,0.10309034829047664,0.09398216316453578,-0.17166347137863447,-164.44410289964102,-12.273289521851867,-8.993207204284674,-0.0278,-0.9908,-0.1069,-0.0784
25,921950.0,842.268508,1.0,1.57,0.83,-9.82,-3.06,-14.38,36.88,1.5,-0.5,-1.31,0.10309034829047664,0.09398216316453578,-0.17166347137863447,-164.44410289964102,-12.273289521851867,-8.993207204284674,-0.0278,-0.9908,-0.1069,-0.0784
26,921985.0,842.30475,1.0,1.42,0.45,-9.68,-2.38,-15.5,37.75,0.81,0.19,-0.06,-0.09296682637684513,-0.22993351343586066,0.015848819882386067,-164.44410289964102,-12.296340166976414,-8.970218312913039,-0.0273,-0.9908,-0.1071,-0.0782
27,921985.0,842.30475,1.0,1.42,0.45,-9.68,-2.38,-15.5,37.75,0.81,0.19,-0.06,-0.09296682637684513,-0.22993351343586066,0.015848819882386067,-164.44410289964102,-12.296340166976414,-8.970218312913039,-0.0273,-0.9908,-0.1071,-0.0782
28,922021.0,842.324247,1.0,1.48,0.7,-9.62,-1.56,-15.06,37.69,-0.5,0.63,-0.19,0.02023411820086518,0.0002843790553440084,0.0483514546802688,-164.44410289964102,-12.273289521851867,-9.004701785923347,-0.0275,-0.9908,-0.1069,-0.0785
29,922021.0,842.324247,1.0,1.48,0.7,-9.62,-1.56,-15.06,37.69,-0.5,0.63,-0.19,0.02023411820086518,0.0002843790553440084,0.0483514546802688,-164.44410289964102,-12.273289521851867,-9.004701785923347,-0.0275,-0.9908,-0.1069,-0.0785
30,922054.0,842.405716,1.0,1.67,0.73,-9.84,-1.56,-15.06,37.69,0.31,1.37,0.19,0.16418863022206925,-0.018803711249002264,-0.19935262413262755,-164.35965769726891,-12.273289521851867,-9.06217605835773,-0.0275,-0.9907,-0.1069,-0.079
31,922054.0,842.405716,1.0,1.67,0.73,-9.84,-1.56,-15.06,37.69,0.31,1.37,0.19,0.16418863022206925,-0.018803711249002264,-0.19935262413262755,-164.35965769726891,-12.273289521851867,-9.06217605835773,-0.0275,-0.9907,-0.1069,-0.079
32,922089.0,842.4175769999999,1.0,1.36,0.72,-9.48,-2.69,-15.06,37.69,0.37,-1.56,0.88,-0.07055378514581119,0.05326042809560922,0.20297437604222426,-164.44410289964102,-12.261764386292771,-9.016196458354324,-0.0274,-0.9908,-0.1068,-0.0786
33,922089.0,842.4175769999999,1.0,1.36,0.72,-9.48,-2.69,-15.06,37.69,0.37,-1.56,0.88,-0.07055378514581119,0.05326042809560922,0.20297437604222426,-164.44410289964102,-12.261764386292771,-9.016196458354324,-0.0274,-0.9908,-0.1068,-0.0786
34,922124.0,842.5145769999999,1.0,1.3,0.89,-9.38,-2.25,-14.38,37.25,-1.63,-0.06,0.44,-0.07965002917070174,0.2283624352073544,0.2983375066582248,-164.44410289964102,-12.273289521851867,-9.027691221695424,-0.0278,-0.9908,-0.1069,-0.0787
35,922124.0,842.5145769999999,1.0,1.3,0.89,-9.38,-2.25,-14.38,37.25,-1.63,-0.06,0.44,-0.07965002917070174,0.2283624352073544,0.2983375066582248,-164.44410289964102,-12.273289521851867,-9.027691221695424,-0.0278,-0.9908,-0.1069,-0.0787
36,922159.0,842.569197,1.0,1.8,0.62,-9.95,-3.06,-15.06,37.25,1.37,4.75,-1.19,0.2342827741607405,-0.1634872583057072,-0.3198145112745632,-164.35965769726891,-12.307865676783145,-9.142643881088318,-0.0278,-0.9907,-0.1072,-0.0797
37,922159.0,842.569197,1.0,1.8,0.62,-9.95,-3.06,-15.06,37.25,1.37,4.75,-1.19,0.2342827741607405,-0.1634872583057072,-0.3198145112745632,-164.35965769726891,-12.307865676783145,-9.142643881088318,-0.0278,-0.9907,-0.1072,-0.0797
38,922193.0,842.584831,1.0,1.57,0.78,-9.68,-3.06,-15.06,37.25,-0.94,-0.25,-0.06,0.09000512487080656,0.05271355759804247,-0.030261118757874076,-164.35965769726891,-12.307865676783145,-9.142643881088318,-0.0278,-0.9907,-0.1072,-0.0797
39,922193.0,842.584831,1.0,1.57,0.78,-9.68,-3.06,-15.06,37.25,-0.94,-0.25,-0.06,0.09000512487080656,0.05271355759804247,-0.030261118757874076,-164.35965769726891,-12.307865676783145,-9.142643881088318,-0.0278,-0.9907,-0.1072,-0.0797
40,922230.0,842.624975,1.0,1.71,0.57,-9.86,-2.25,-14.69,37.69,-0.06,-1.25,-0.19,0.14575758446064113,-0.1891236452595268,-0.2139082166551951,-164.27566318431926,-12.330917071488784,-9.17713147157167,-0.0278,-0.9906,-0.1074,-0.08
41,922230.0,842.624975,1.0,1.71,0.57,-9.86,-2.25,-14.69,37.69,-0.06,-1.25,-0.19,0.14575758446064113,-0.1891236452595268,-0.2139082166551951,-164.27566318431926,-12.330917071488784,-9.17713147157167,-0.0278,-0.9906,-0.1074,-0.08
42,922265.0,842.631052,1.0,1.67,0.62,-9.86,-3.06,-14.69,38.06,-1.19,1.81,0.19,0.11165262220199232,-0.1310215778994934,-0.21149688642965006,-164.27566318431926,-12.330917071488784,-9.21161989509871,-0.0278,-0.9906,-0.1074,-0.0803
43,922265.0,842.631052,1.0,1.67,0.62,-9.86,-3.06,-14.69,38.06,-1.19,1.81,0.19,0.11165262220199232,-0.1310215778994934,-0.21149688642965006,-164.27566318431926,-12.330917071488784,-9.21161989509871,-0.0278,-0.9906,-0.1074,-0.0803
44,922298.0,842.648465,1.0,1.44,0.91,-9.61,-3.06,-14.69,38.06,-2.13,-0.56,0.75,-0.011589815560845628,0.2021142380307291,0.048944557071290966,-164.27566318431926,-12.307865676783145,-9.22311622194562,-0.0283,-0.9906,-0.1072,-0.0804
45,922298.0,842.648465,1.0,1.44,0.91,-9.61,-3.06,-14.69,38.06,-2.13,-0.56,0.75,-0.011589815560845628,0.2021142380307291,0.048944557071290966,-164.27566318431926,-12.307865676783145,-9.22311622194562,-0.0283,-0.9906,-0.1072,-0.0804
46,922333.0,842.6513769999999,1.0,1.77,0.76,-10.01,-1.88,-14.0,36.88,0.25,-0.37,0.63,0.20138872806108127,-0.026271153573986183,-0.38498148895699735,-164.19211217641143,-12.296340166976414,-9.269102460835224,-0.0281,-0.9905,-0.1071,-0.0808
47,922333.0,842.6513769999999,1.0,1.77,0.76,-10.01,-1.88,-14.0,36.88,0.25,-0.37,0.63,0.20138872806108127,-0.026271153573986183,-0.38498148895699735,-164.19211217641143,-12.296340166976414,-9.269102460835224,-0.0281,-0.9905,-0.1071,-0.0808
48,922370.0,842.6908080000001,1.0,1.49,0.72,-9.49,-3.06,-14.38,37.38,1.44,1.31,-0.88,0.013468657251939943,0.014615229636722515,0.1734675045660783,-164.19211217641143,-12.319391311580373,-9.246109154854068,-0.0281,-0.9905,-0.1073,-0.0806
49,922370.0,842.6908080000001,1.0,1.49,0.72,-9.49,-3.06,-14.38,37.38,1.44,1.31,-0.88,0.013468657251939943,0.014615229636722515,0.1734675045660783,-164.19211217641143,-12.319391311580373,-9.246109154854068,-0.0281,-0.9905,-0.1073,-0.0806
50,922404.0,842.6946140000001,1.0,1.6,0.67,-9.76,-3.06,-14.38,37.38,0.19,-0.69,0.12,0.06457139173858098,-0.06643501110478928,-0.10586314877657443,-164.19211217641143,-12.319391311580373,-9.246109154854068,-0.027999999999999997,-0.9905,-0.1073,-0.0806
51,922404.0,842.6946140000001,1.0,1.6,0.67,-9.76,-3.06,-14.38,37.38,0.19,-0.69,0.12,0.06457139173858098,-0.06643501110478928,-0.10586314877657443,-164.19211217641143,-12.319391311580373,-9.246109154854068,-0.027999999999999997,-0.9905,-0.1073,-0.0806
52,922439.0,842.74966,1.0,1.59,0.78,-9.82,-2.38,-13.56,37.75,-0.63,0.19,0.06,0.07156124168619503,0.03641843005484519,-0.17144865087736785,-164.27566318431926,-12.319391311580373,-9.22311622194562,-0.0282,-0.9906,-0.1073,-0.0804
53,922439.0,842.74966,1.0,1.59,0.78,-9.82,-2.38,-13.56,37.75,-0.63,0.19,0.06,0.07156124168619503,0.03641843005484519,-0.17144865087736785,-164.27566318431926,-12.319391311580373,-9.22311622194562,-0.0282,-0.9906,-0.1073,-0.0804
54,922474.0,842.7662630000001,1.0,1.46,0.82,-9.53,-2.25,-14.69,38.19,0.63,-1.06,-0.44,0.008250714765779526,0.11423250980062373,0.13133176960517545,-164.27566318431926,-12.319391311580373,-9.188627520029687,-0.0282,-0.9906,-0.1073,-0.0801
55,922474.0,842.7662630000001,1.0,1.46,0.82,-9.53,-2.25,-14.69,38.19,0.63,-1.06,-0.44,0.008250714765779526,0.11423250980062373,0.13133176960517545,-164.27566318431926,-12.319391311580373,-9.188627520029687,-0.0282,-0.9906,-0.1073,-0.0801
56,922509.0,842.807122,1.0,1.57,0.62,-9.63,-2.25,-14.69,38.19,2.38,1.19,-0.94,0.053329975508444025,-0.0990522742857044,0.03047771424975565,-164.19211217641143,-12.353968967121856,-9.21161989509871,-0.0277,-0.9905,-0.1076,-0.0803
57,922509.0,842.807122,1.0,1.57,0.62,-9.63,-2.25,-14.69,38.19,2.38,1.19,-0.94,0.053329975508444025,-0.0990522742857044,0.03047771424975565,-164.19211217641143,-12.353968967121856,-9.21161989509871,-0.0277,-0.9905,-0.1076,-0.0803
58,922542.0,842.862818,1.0,1.66,0.76,-9.75,-3.06,-15.06,37.25,-0.19,0.44,-2.0,0.14515813957441775,0.007176007243866135,-0.11174591967548507,-164.19211217641143,-12.400074265032766,-9.23461264182475,-0.027999999999999997,-0.9905,-0.10800000000000001,-0.0805
59,922542.0,842.862818,1.0,1.66,0.76,-9.75,-3.06,-15.06,37.25,-0.19,0.44,-2.0,0.14515813957441775,0.007176007243866135,-0.11174591967548507,-164.19211217641143,-12.400074265032766,-9.23461264182475,-0.027999999999999997,-0.9905,-0.10800000000000001,-0.0805
60,922576.0,842.880391,1.0,1.32,0.35,-9.32,-2.38,-15.06,37.0,2.06,-1.44,-2.63,-0.1887879927789648,-0.29424128553147144,0.3936227951274187,-164.19211217641143,-12.480763390340035,-9.188627520029687,-0.0275,-0.9905,-0.1087,-0.0801
61,922576.0,842.880391,1.0,1.32,0.35,-9.32,-2.38,-15.06,37.0,2.06,-1.44,-2.63,-0.1887879927789648,-0.29424128553147144,0.3936227951274187,-164.19211217641143,-12.480763390340035,-9.188627520029687,-0.0275,-0.9905,-0.1087,-0.0801
62,922613.0,842.9243,1.0,1.85,0.69,-10.03,-1.88,-14.69,36.88,-2.88,2.69,0.06,0.26372525480623793,-0.11035366961202693,-0.4118514095796115,-164.1089976777972,-12.480763390340035,-9.257605761151561,-0.0278,-0.9904,-0.1087,-0.0807
63,922613.0,842.9243,1.0,1.85,0.69,-10.03,-1.88,-14.69,36.88,-2.88,2.69,0.06,0.26372525480623793,-0.11035366961202693,-0.4118514095796115,-164.1089976777972,-12.480763390340035,-9.257605761151561,-0.0278,-0.9904,-0.1087,-0.0807
64,922646.0,842.9411630000001,1.0,1.54,0.63,-9.64,-1.88,-14.69,36.88,-1.06,-3.0,-0.37,0.023166277043030824,-0.10225812550614301,0.024671335160460828,-164.1089976777972,-12.469235993000286,-9.21161989509871,-0.0286,-0.9904,-0.1086,-0.0803
65,922646.0,842.9411630000001,1.0,1.54,0.63,-9.64,-1.88,-14.69,36.88,-1.06,-3.0,-0.37,0.023166277043030824,-0.10225812550614301,0.024671335160460828,-164.1089976777972,-12.469235993000286,-9.21161989509871,-0.0286,-0.9904,-0.1086,-0.0803
66,922683.0,842.9876929999999,1.0,1.32,0.86,-9.6,-2.69,-14.38,38.19,-2.75,-2.06,0.5,-0.1290659984565164,0.16156678208407432,0.08043603242919417,-164.1089976777972,-12.469235993000286,-9.17713147157167,-0.0291,-0.9904,-0.1086,-0.08
67,922683.0,842.9876929999999,1.0,1.32,0.86,-9.6,-2.69,-14.38,38.19,-2.75,-2.06,0.5,-0.1290659984565164,0.16156678208407432,0.08043603242919417,-164.1089976777972,-12.469235993000286,-9.17713147157167,-0.0291,-0.9904,-0.1086,-0.08
68,922718.0,843.0099759999999,1.0,1.34,0.94,-9.55,-3.06,-15.06,37.25,-1.5,1.88,-0.25,-0.0882342077069114,0.22406981896208975,0.12038614643805802,-164.1089976777972,-12.457708722341449,-9.188627520029687,-0.0298,-0.9904,-0.1085,-0.0801
69,922718.0,843.0099759999999,1.0,1.34,0.94,-9.55,-3.06,-15.06,37.25,-1.5,1.88,-0.25,-0.0882342077069114,0.22406981896208975,0.12038614643805802,-164.1089976777972,-12.457708722341449,-9.188627520029687,-0.0298,-0.9904,-0.1085,-0.0801
70,922753.0,843.0551230000001,1.0,1.86,0.69,-9.94,-3.06,-15.06,37.25,1.63,3.0,-1.44,0.27833971455799195,-0.1445563747800933,-0.32453603411319243,-164.1089976777972,-12.480763390340035,-9.292096140833058,-0.0296,-0.9904,-0.1087,-0.081
71,922753.0,843.0551230000001,1.0,1.86,0.69,-9.94,-3.06,-15.06,37.25,1.63,3.0,-1.44,0.27833971455799195,-0.1445563747800933,-0.32453603411319243,-164.1089976777972,-12.480763390340035,-9.292096140833058,-0.0296,-0.9904,-0.1087,-0.081
72,922785.0,843.1158720000001,1.0,1.63,0.64,-9.79,-2.69,-14.69,39.38,1.56,-0.12,-0.37,0.06921875272189615,-0.1189548040683756,-0.13777851645385475,-164.02631287450075,-12.515346343653171,-9.315090195791667,-0.0287,-0.9903,-0.109,-0.0812
73,922785.0,843.1158720000001,1.0,1.63,0.64,-9.79,-2.69,-14.69,39.38,1.56,-0.12,-0.37,0.06921875272189615,-0.1189548040683756,-0.13777851645385475,-164.02631287450075,-12.515346343653171,-9.315090195791667,-0.0287,-0.9903,-0.109,-0.0812
74,922822.0,843.1319060000001,1.0,1.79,0.62,-9.82,-2.69,-15.06,37.25,0.0,2.31,1.0,0.20323578608042975,-0.1635210505326098,-0.19099252618030785,-164.02631287450075,-12.50381856554563,-9.384074619875276,-0.0282,-0.9903,-0.1089,-0.0818
75,922822.0,843.1319060000001,1.0,1.79,0.62,-9.82,-2.69,-15.06,37.25,0.0,2.31,1.0,0.20323578608042975,-0.1635210505326098,-0.19099252618030785,-164.02631287450075,-12.50381856554563,-9.384074619875276,-0.0282,-0.9903,-0.1089,-0.0818
76,922855.0,843.178287,1.0,1.43,0.72,-9.52,-2.69,-15.06,37.25,-0.25,-2.81,0.5,-0.07042577707341366,0.020770982392648518,0.15324082105114198,-164.02631287450075,-12.492290914481535,-9.372576979838527,-0.0284,-0.9903,-0.1088,-0.0817
77,922855.0,843.178287,1.0,1.43,0.72,-9.52,-2.69,-15.06,37.25,-0.25,-2.81,0.5,-0.07042577707341366,0.020770982392648518,0.15324082105114198,-164.02631287450075,-12.492290914481535,-9.372576979838527,-0.0284,-0.9903,-0.1088,-0.0817
78,922890.0,843.1983039999999,1.0,1.39,0.69,-9.7,-3.06,-15.06,38.19,0.12,-0.12,1.06,-0.13946258264470787,-0.0048364860222856465,-0.015708514961918496,-164.1089976777972,-12.457708722341449,-9.3380846266553,-0.0283,-0.9904,-0.1085,-0.0814
79,922890.0,843.1983039999999,1.0,1.39,0.69,-9.7,-3.06,-15.06,38.19,0.12,-0.12,1.06,-0.13946258264470787,-0.0048364860222856465,-0.015708514961918496,-164.1089976777972,-12.457708722341449,-9.3380846266553,-0.0283,-0.9904,-0.1085,-0.0814
80,922925.0,843.235841,1.0,1.62,0.99,-9.66,-2.0,-15.5,37.38,-0.12,2.5,1.94,0.14517808424709042,0.2384990052459358,-0.03419048993535512,-164.1089976777972,-12.388547751922633,-9.372576979838527,-0.0284,-0.9904,-0.1079,-0.0817
81,922925.0,843.235841,1.0,1.62,0.99,-9.66,-2.0,-15.5,37.38,-0.12,2.5,1.94,0.14517808424709042,0.2384990052459358,-0.03419048993535512,-164.1089976777972,-12.388547751922633,-9.372576979838527,-0.0284,-0.9904,-0.1079,-0.0817
82,922959.0,843.2489710000001,1.0,1.71,0.78,-9.7,-2.0,-15.5,37.38,2.25,0.19,-0.37,0.17434181378006325,0.020996872881951845,-0.07219932890956926,-164.1089976777972,-12.400074265032766,-9.418568108565768,-0.027999999999999997,-0.9904,-0.10800000000000001,-0.0821
83,922959.0,843.2489710000001,1.0,1.71,0.78,-9.7,-2.0,-15.5,37.38,2.25,0.19,-0.37,0.17434181378006325,0.020996872881951845,-0.07219932890956926,-164.1089976777972,-12.400074265032766,-9.418568108565768,-0.027999999999999997,-0.9904,-0.10800000000000001,-0.0821
84,922994.0,843.313741,1.0,1.54,0.77,-9.71,-3.38,-14.38,36.88,0.56,0.12,-0.81,0.008558276689035162,0.04584863184095645,-0.054710183000032934,-164.1089976777972,-12.400074265032766,-9.407070184120801,-0.0281,-0.9904,-0.10800000000000001,-0.08199999999999999
85,922994.0,843.313741,1.0,1.54,0.77,-9.71,-3.38,-14.38,36.88,0.56,0.12,-0.81,0.008558276689035162,0.04584863184095645,-0.054710183000032934,-164.1089976777972,-12.400074265032766,-9.407070184120801,-0.0281,-0.9904,-0.10800000000000001,-0.08199999999999999
86,923027.0,843.4346960000001,1.0,1.66,0.63,-9.76,-2.69,-15.5,36.56,2.19,1.12,-1.12,0.08351740426460673,-0.10931546584336987,-0.11258257979730857,-164.02631287450075,-12.446181578242712,-9.430066128049686,-0.0276,-0.9903,-0.1084,-0.0822
87,923027.0,843.4346960000001,1.0,1.66,0.63,-9.76,-2.69,-15.5,36.56,2.19,1.12,-1.12,0.08351740426460673,-0.10931546584336987,-0.11258257979730857,-164.02631287450075,-12.446181578242712,-9.430066128049686,-0.0276,-0.9903,-0.1084,-0.0822
88,923064.0,843.4908130000001,1.0,1.65,0.46,-9.71,-3.38,-14.38,37.69,2.69,0.25,-1.12,0.047648752129168664,-0.2616121759720426,-0.04969256029099789,-164.02631287450075,-12.469235993000286,-9.430066128049686,-0.0271,-0.9903,-0.1086,-0.0822
89,923064.0,843.4908130000001,1.0,1.65,0.46,-9.71,-3.38,-14.38,37.69,2.69,0.25,-1.12,0.047648752129168664,-0.2616121759720426,-0.04969256029099789,-164.02631287450075,-12.469235993000286,-9.430066128049686,-0.0271,-0.9903,-0.1086,-0.0822
90,923097.0,843.5660460000001,1.0,1.51,0.65,-9.58,-3.38,-14.38,37.69,-0.37,-0.69,-0.12,-0.02088789273310948,-0.037705488530866416,0.08671471255740215,-164.02631287450075,-12.480763390340035,-9.407070184120801,-0.0269,-0.9903,-0.1087,-0.08199999999999999
91,923097.0,843.5660460000001,1.0,1.51,0.65,-9.58,-3.38,-14.38,37.69,-0.37,-0.69,-0.12,-0.02088789273310948,-0.037705488530866416,0.08671471255740215,-164.02631287450075,-12.480763390340035,-9.407070184120801,-0.0269,-0.9903,-0.1087,-0.08199999999999999
92,923133.0,843.5711039999999,1.0,1.62,0.64,-9.73,-3.06,-14.38,37.69,-0.37,0.81,-0.06,0.052062177646183344,-0.07451336892171273,-0.07761210131594254,-164.02631287450075,-12.492290914481535,-9.441564242690683,-0.0268,-0.9903,-0.1088,-0.0823
93,923133.0,843.5711039999999,1.0,1.62,0.64,-9.73,-3.06,-14.38,37.69,-0.37,0.81,-0.06,0.052062177646183344,-0.07451336892171273,-0.07761210131594254,-164.02631287450075,-12.492290914481535,-9.441564242690683,-0.0268,-0.9903,-0.1088,-0.0823
94,923168.0,843.5806289999999,1.0,1.74,0.64,-9.74,-1.56,-14.38,37.69,0.44,0.63,0.69,0.15823275349859295,-0.09823732681523052,-0.10647825617324712,-164.02631287450075,-12.480763390340035,-9.48755765518811,-0.0267,-0.9903,-0.1087,-0.0827
95,923168.0,843.5806289999999,1.0,1.74,0.64,-9.74,-1.56,-14.38,37.69,0.44,0.63,0.69,0.15823275349859295,-0.09823732681523052,-0.10647825617324712,-164.02631287450075,-12.480763390340035,-9.48755765518811,-0.0267,-0.9903,-0.1087,-0.0827
96,923205.0,843.631952,1.0,1.6,0.84,-9.56,-1.56,-14.38,37.69,-0.31,-0.81,-1.25,0.09885776304040267,0.12350879776451468,0.07864030019185009,-163.94405112777469,-12.492290914481535,-9.464560757916416,-0.0272,-0.9902,-0.1088,-0.0825
97,923205.0,843.631952,1.0,1.6,0.84,-9.56,-1.56,-14.38,37.69,-0.31,-0.81,-1.25,0.09885776304040267,0.12350879776451468,0.07864030019185009,-163.94405112777469,-12.492290914481535,-9.464560757916416,-0.0272,-0.9902,-0.1088,-0.0825
98,923238.0,843.650107,1.0,1.54,0.65,-9.69,-3.38,-14.38,37.25,2.13,-0.19,-0.44,-0.01757337903555314,-0.041815007724308906,-0.02636289948702597,-164.02631287450075,-12.50381856554563,-9.453062452606881,-0.0266,-0.9903,-0.1089,-0.0824
99,923238.0,843.650107,1.0,1.54,0.65,-9.69,-3.38,-14.38,37.25,2.13,-0.19,-0.44,-0.01757337903555314,-0.041815007724308906,-0.02636289948702597,-164.02631287450075,-12.50381856554563,-9.453062452606881,-0.0266,-0.9903,-0.1089,-0.0824
100,923275.0,843.653366,1.0,1.46,0.39,-9.54,-3.06,-14.69,36.88,1.56,-0.81,-0.37,-0.1197355130471815,-0.26728000564626664,0.15214199567906306,-164.02631287450075,-12.515346343653171,-9.430066128049686,-0.0263,-0.9903,-0.109,-0.0822
101,923275.0,843.653366,1.0,1.46,0.39,-9.54,-3.06,-14.69,36.88,1.56,-0.81,-0.37,-0.1197355130471815,-0.26728000564626664,0.15214199567906306,-164.02631287450075,-12.515346343653171,-9.430066128049686,-0.0263,-0.9903,-0.109,-0.0822
102,923310.0,843.691057,1.0,1.39,0.52,-9.56,-2.69,-15.06,37.69,-0.56,0.25,0.63,-0.1613385456287696,-0.12769423449069267,0.1343305234642802,-164.02631287450075,-12.492290914481535,-9.418568108565768,-0.0264,-0.9903,-0.1088,-0.0821
103,923310.0,843.691057,1.0,1.39,0.52,-9.56,-2.69,-15.06,37.69,-0.56,0.25,0.63,-0.1613385456287696,-0.12769423449069267,0.1343305234642802,-164.02631287450075,-12.492290914481535,-9.418568108565768,-0.0264,-0.9903,-0.1088,-0.0821
104,923344.0,843.699859,1.0,1.3,0.62,-9.59,-2.69,-15.06,37.69,-2.06,-1.06,1.06,-0.2229453461798861,-0.0178929451589866,0.11167835408322092,-164.1089976777972,-12.457708722341449,-9.361079434368333,-0.0267,-0.9904,-0.1085,-0.0816
105,923344.0,843.699859,1.0,1.3,0.62,-9.59,-2.69,-15.06,37.69,-2.06,-1.06,1.06,-0.2229453461798861,-0.0178929451589866,0.11167835408322092,-164.1089976777972,-12.457708722341449,-9.361079434368333,-0.0267,-0.9904,-0.1085,-0.0816
106,923379.0,843.7132029999999,1.0,1.09,0.58,-9.43,-3.38,-14.69,37.25,-0.94,-2.38,-0.06,-0.3866960687986066,-0.012981755647957172,0.3040346955484914,-164.19211217641143,-12.434654560583265,-9.23461264182475,-0.027000000000000003,-0.9905,-0.1083,-0.0805
107,923379.0,843.7132029999999,1.0,1.09,0.58,-9.43,-3.38,-14.69,37.25,-0.94,-2.38,-0.06,-0.3866960687986066,-0.012981755647957172,0.3040346955484914,-164.19211217641143,-12.434654560583265,-9.23461264182475,-0.027000000000000003,-0.9905,-0.1083,-0.0805
108,923414.0,843.71603,1.0,1.33,0.79,-9.48,-2.69,-14.38,38.5,0.69,-12.31,3.94,-0.0722716263993045,0.13360823509318293,0.20246728352001675,-164.44410289964102,-12.330917071488784,-8.947229783297066,-0.027000000000000003,-0.9908,-0.1074,-0.078
109,923414.0,843.71603,1.0,1.33,0.79,-9.48,-2.69,-14.38,38.5,0.69,-12.31,3.94,-0.0722716263993045,0.13360823509318293,0.20246728352001675,-164.44410289964102,-12.330917071488784,-8.947229783297066,-0.027000000000000003,-0.9908,-0.1074,-0.078
110,923449.0,843.7560810000001,1.0,1.21,0.3,-9.75,-2.69,-14.38,38.5,6.63,-34.19,5.31,-0.14540291006180714,-0.3324319945099431,-0.016025142891153976,-165.2256794561049,-12.123472436717575,-7.855673444559319,-0.0263,-0.9917,-0.1056,-0.0685
111,923449.0,843.7560810000001,1.0,1.21,0.3,-9.75,-2.69,-14.38,38.5,6.63,-34.19,5.31,-0.14540291006180714,-0.3324319945099431,-0.016025142891153976,-165.2256794561049,-12.123472436717575,-7.855673444559319,-0.0263,-0.9917,-0.1056,-0.0685
112,923484.0,843.7723490000001,1.0,0.2,-0.21,-8.15,-1.56,-14.38,38.06,5.88,-32.25,13.25,-0.8533442923608764,-0.5600254274092242,1.715619469878991,-165.86324083896642,-12.019765115233204,-6.810747745686069,-0.0256,-0.9924,-0.1047,-0.0594
113,923484.0,843.7723490000001,1.0,0.2,-0.21,-8.15,-1.56,-14.38,38.06,5.88,-32.25,13.25,-0.8533442923608764,-0.5600254274092242,1.715619469878991,-165.86324083896642,-12.019765115233204,-6.810747745686069,-0.0256,-0.9924,-0.1047,-0.0594
114,923521.0,843.8098369999999,1.0,0.6,-0.23,-8.67,-1.56,-14.69,36.75,-9.63,-21.56,18.06,-0.4166480855056585,-0.7487714899170522,1.1552023969261729,-166.72765058183754,-11.37469368630907,-6.04177399090254,-0.0287,-0.9933,-0.0991,-0.0527
115,923521.0,843.8098369999999,1.0,0.6,-0.23,-8.67,-1.56,-14.69,36.75,-9.63,-21.56,18.06,-0.4166480855056585,-0.7487714899170522,1.1552023969261729,-166.72765058183754,-11.37469368630907,-6.04177399090254,-0.0287,-0.9933,-0.0991,-0.0527
116,923555.0,843.860926,1.0,-0.13,-0.25,-8.08,-1.56,-14.69,36.75,-12.75,-7.31,18.12,-1.0317770071939711,-0.6620312310456333,1.8152201619456092,-167.13036680379562,-10.833574298853826,-5.777862453568277,-0.0323,-0.9937,-0.0944,-0.0504
117,923555.0,843.860926,1.0,-0.13,-0.25,-8.08,-1.56,-14.69,36.75,-12.75,-7.31,18.12,-1.0317770071939711,-0.6620312310456333,1.8152201619456092,-167.13036680379562,-10.833574298853826,-5.777862453568277,-0.0323,-0.9937,-0.0944,-0.0504
118,923590.0,843.9181580000001,1.0,-0.19,-0.6,-7.89,-0.75,-14.38,37.25,-21.06,12.06,15.13,-1.1897025005546045,-1.081643698580296,2.056627105227649,-167.23302195249303,-10.269686237501055,-6.17947961245989,-0.0385,-0.9938,-0.0895,-0.0539
119,923590.0,843.9181580000001,1.0,-0.19,-0.6,-7.89,-0.75,-14.38,37.25,-21.06,12.06,15.13,-1.1897025005546045,-1.081643698580296,2.056627105227649,-167.23302195249303,-10.269686237501055,-6.17947961245989,-0.0385,-0.9938,-0.0895,-0.0539
120,923625.0,843.981376,1.0,0.45,0.56,-8.06,-2.0,-14.38,38.19,-33.75,40.25,16.31,-0.542812916975581,-0.16611685059562095,1.7346329454396816,-166.82718037176227,-9.694547078719877,-7.247016388579905,-0.0452,-0.9934,-0.0845,-0.0632
121,923625.0,843.981376,1.0,0.45,0.56,-8.06,-2.0,-14.38,38.19,-33.75,40.25,16.31,-0.542812916975581,-0.16611685059562095,1.7346329454396816,-166.82718037176227,-9.694547078719877,-7.247016388579905,-0.0452,-0.9934,-0.0845,-0.0632
122,923662.0,843.998813,1.0,0.57,0.8,-8.15,-2.0,-15.06,37.38,-29.37,55.69,8.94,-0.7233717492739806,-0.06979238286177109,1.62989866859418,-165.31507383873742,-9.315090195791667,-9.430066128049686,-0.0536,-0.9918,-0.0812,-0.0822
123,923662.0,843.998813,1.0,0.57,0.8,-8.15,-2.0,-15.06,37.38,-29.37,55.69,8.94,-0.7233717492739806,-0.06979238286177109,1.62989866859418,-165.31507383873742,-9.315090195791667,-9.430066128049686,-0.0536,-0.9918,-0.0812,-0.0822
124,923697.0,844.002466,1.0,1.28,1.09,-7.71,-2.0,-15.06,37.38,-38.25,70.94,9.88,-0.2034770199871772,0.0408629456894628,1.9182073576271268,-163.69974033883318,-9.108157120464725,-11.466824127666605,-0.0611,-0.9899,-0.0794,-0.0999
125,923697.0,844.002466,1.0,1.28,1.09,-7.71,-2.0,-15.06,37.38,-38.25,70.94,9.88,-0.2034770199871772,0.0408629456894628,1.9182073576271268,-163.69974033883318,-9.108157120464725,-11.466824127666605,-0.0611,-0.9899,-0.0794,-0.0999
126,923734.0,844.0460419999999,1.0,2.47,2.07,-8.81,-4.88,-16.19,36.19,-23.69,68.06,9.31,0.3821398263435864,0.577437494181169,0.4513074037379088,-161.50259041794217,-8.544988083393589,-14.280666944469896,-0.0694,-0.987,-0.0745,-0.1243
127,923734.0,844.0460419999999,1.0,2.47,2.07,-8.81,-4.88,-16.19,36.19,-23.69,68.06,9.31,0.3821398263435864,0.577437494181169,0.4513074037379088,-161.50259041794217,-8.544988083393589,-14.280666944469896,-0.0694,-0.987,-0.0745,-0.1243
128,923768.0,844.088818,1.0,2.49,1.16,-7.98,-7.19,-17.0,35.69,-35.13,73.87,9.25,0.1762682500287649,-0.28081026279545496,1.3736093206044266,-159.73268910086296,-8.200293609338797,-16.396650200988272,-0.0748,-0.9844,-0.0715,-0.1426
129,923768.0,844.088818,1.0,2.49,1.16,-7.98,-7.19,-17.0,35.69,-35.13,73.87,9.25,0.1762682500287649,-0.28081026279545496,1.3736093206044266,-159.73268910086296,-8.200293609338797,-16.396650200988272,-0.0748,-0.9844,-0.0715,-0.1426
130,923801.0,844.1137060000001,1.0,3.25,2.66,-8.78,-7.19,-17.0,35.69,-37.75,75.56,8.88,0.295990763312696,0.7788727480963296,0.1096274306591205,-156.70033876277134,-7.775272426130343,-19.4826172689267,-0.0867,-0.9794,-0.0678,-0.1692
131,923801.0,844.1137060000001,1.0,3.25,2.66,-8.78,-7.19,-17.0,35.69,-37.75,75.56,8.88,0.295990763312696,0.7788727480963296,0.1096274306591205,-156.70033876277134,-7.775272426130343,-19.4826172689267,-0.0867,-0.9794,-0.0678,-0.1692
132,923836.0,844.130274,1.0,3.85,1.87,-8.58,-9.75,-18.06,34.75,-30.0,76.62,5.13,0.4591880982741887,-0.14086459931429607,0.23037183700455444,-154.63414056108863,-7.465189762811248,-21.71884947041321,-0.0926,-0.9756,-0.0651,-0.1884
133,923836.0,844.130274,1.0,3.85,1.87,-8.58,-9.75,-18.06,34.75,-30.0,76.62,5.13,0.4591880982741887,-0.14086459931429607,0.23037183700455444,-154.63414056108863,-7.465189762811248,-21.71884947041321,-0.0926,-0.9756,-0.0651,-0.1884
134,923873.0,844.175416,1.0,4.2,2.99,-8.51,-11.25,-18.19,33.56,-35.06,77.5,-0.37,0.35316499092861603,0.7135896011979594,-0.11132682847890507,-151.34635737161238,-7.327392950256605,-24.842788298368426,-0.1039,-0.9689,-0.0639,-0.2151
135,923873.0,844.175416,1.0,4.2,2.99,-8.51,-11.25,-18.19,33.56,-35.06,77.5,-0.37,0.35316499092861603,0.7135896011979594,-0.11132682847890507,-151.34635737161238,-7.327392950256605,-24.842788298368426,-0.1039,-0.9689,-0.0639,-0.2151
136,923910.0,844.192305,1.0,4.72,2.43,-8.22,-11.25,-18.19,33.56,-27.19,71.87,2.63,0.5285003839772305,0.03581373285603795,0.03571838010444317,-149.20198320614296,-7.35035834348681,-26.994654003838164,-0.1096,-0.9641,-0.0641,-0.2334
137,923910.0,844.192305,1.0,4.72,2.43,-8.22,-11.25,-18.19,33.56,-27.19,71.87,2.63,0.5285003839772305,0.03581373285603795,0.03571838010444317,-149.20198320614296,-7.35035834348681,-26.994654003838164,-0.1096,-0.9641,-0.0641,-0.2334
138,923942.0,844.2542050000001,1.0,5.15,3.15,-8.47,-15.06,-19.0,32.25,-26.19,64.19,5.69,0.3428107373878215,0.4740141173672496,-0.5781317220617712,-146.5113892939378,-6.89110540785609,-29.630134776789287,-0.1184,-0.9576,-0.0601,-0.2557
139,923942.0,844.2542050000001,1.0,5.15,3.15,-8.47,-15.06,-19.0,32.25,-26.19,64.19,5.69,0.3428107373878215,0.4740141173672496,-0.5781317220617712,-146.5113892939378,-6.89110540785609,-29.630134776789287,-0.1184,-0.9576,-0.0601,-0.2557
140,923977.0,844.2953880000001,1.0,5.29,2.93,-8.02,-16.87,-20.75,30.25,-25.81,66.37,-0.56,0.21464816297086567,0.20511615287575904,-0.23333274550124194,-143.9049982588089,-6.604129057804274,-32.18632560419117,-0.1259,-0.9508,-0.0576,-0.2772
141,923977.0,844.2953880000001,1.0,5.29,2.93,-8.02,-16.87,-20.75,30.25,-25.81,66.37,-0.56,0.21464816297086567,0.20511615287575904,-0.23333274550124194,-143.9049982588089,-6.604129057804274,-32.18632560419117,-0.1259,-0.9508,-0.0576,-0.2772
142,924014.0,844.302631,1.0,5.7,2.7,-7.63,-19.19,-20.75,30.87,-32.44,67.81,-1.25,0.4072910101571365,-0.12826265244541912,-0.08347450503191567,-141.78287468010964,-6.523783187455053,-34.17118813606689,-0.1327,-0.9449,-0.0569,-0.2938
143,924014.0,844.302631,1.0,5.7,2.7,-7.63,-19.19,-20.75,30.87,-32.44,67.81,-1.25,0.4072910101571365,-0.12826265244541912,-0.08347450503191567,-141.78287468010964,-6.523783187455053,-34.17118813606689,-0.1327,-0.9449,-0.0569,-0.2938
144,924049.0,844.360702,1.0,6.01,3.41,-7.32,-19.19,-20.75,30.87,-27.81,60.75,6.56,0.4084002402305192,0.43216044515593466,-0.2420835815724676,-139.2059212883253,-6.328670789467022,-36.66126379400549,-0.1403,-0.9373,-0.0552,-0.3145
145,924049.0,844.360702,1.0,6.01,3.41,-7.32,-19.19,-20.75,30.87,-27.81,60.75,6.56,0.4084002402305192,0.43216044515593466,-0.2420835815724676,-139.2059212883253,-6.328670789467022,-36.66126379400549,-0.1403,-0.9373,-0.0552,-0.3145
146,924086.0,844.381434,1.0,6.62,2.76,-7.85,-21.06,-20.75,29.69,-24.37,62.75,1.06,0.20887358242563092,-0.5164506978964187,-0.8119257285620414,-137.27675296577294,-6.145052377433652,-38.51327351873995,-0.1454,-0.9313,-0.0536,-0.3298
147,924086.0,844.381434,1.0,6.62,2.76,-7.85,-21.06,-20.75,29.69,-24.37,62.75,1.06,0.20887358242563092,-0.5164506978964187,-0.8119257285620414,-137.27675296577294,-6.145052377433652,-38.51327351873995,-0.1454,-0.9313,-0.0536,-0.3298
148,924123.0,844.42095,1.0,6.51,3.48,-6.64,-21.69,-21.19,28.06,-33.94,54.56,6.0,0.4783788784195142,0.3382186539928993,-0.10480104365517916,-134.8267795347168,-5.881128455236522,-40.766741444761,-0.1536,-0.9233,-0.0513,-0.3483
149,924123.0,844.42095,1.0,6.51,3.48,-6.64,-21.69,-21.19,28.06,-33.94,54.56,6.0,0.4783788784195142,0.3382186539928993,-0.10480104365517916,-134.8267795347168,-5.881128455236522,-40.766741444761,-0.1536,-0.9233,-0.0513,-0.3483
150,924155.0,844.4796779999999,1.0,7.19,3.44,-6.93,-21.69,-21.19,28.06,-19.75,58.81,5.75,0.464750307680634,0.010405081476007494,-0.7450559704007187,-133.01147504963205,-5.686074397008276,-42.51991407307619,-0.1582,-0.9171,-0.0496,-0.3626
151,924155.0,844.4796779999999,1.0,7.19,3.44,-6.93,-21.69,-21.19,28.06,-19.75,58.81,5.75,0.464750307680634,0.010405081476007494,-0.7450559704007187,-133.01147504963205,-5.686074397008276,-42.51991407307619,-0.1582,-0.9171,-0.0496,-0.3626
152,924190.0,844.486049,1.0,7.35,3.37,-6.91,-24.19,-22.25,27.56,-32.25,56.75,5.06,0.16261416814280952,-0.2040942751567925,-0.8262894881738827,-130.62518646665285,-5.491036825631306,-44.77888374446125,-0.1646,-0.9086,-0.0479,-0.3809
153,924190.0,844.486049,1.0,7.35,3.37,-6.91,-24.19,-22.25,27.56,-32.25,56.75,5.06,0.16261416814280952,-0.2040942751567925,-0.8262894881738827,-130.62518646665285,-5.491036825631306,-44.77888374446125,-0.1646,-0.9086,-0.0479,-0.3809
154,924225.0,844.537979,1.0,6.93,3.4,-5.59,-25.25,-22.69,25.06,-26.81,51.63,3.38,0.5390222606622045,0.16338634566226196,0.2926729186442873,-128.97730409708814,-5.307486603594608,-46.25767230528911,-0.1705,-0.9025,-0.0463,-0.3928
155,924225.0,844.537979,1.0,6.93,3.4,-5.59,-25.25,-22.69,25.06,-26.81,51.63,3.38,0.5390222606622045,0.16338634566226196,0.2926729186442873,-128.97730409708814,-5.307486603594608,-46.25767230528911,-0.1705,-0.9025,-0.0463,-0.3928
156,924262.0,844.5569199999999,1.0,7.34,4.85,-5.38,-26.75,-23.06,24.75,-33.5,56.06,10.06,0.4717429830790524,1.3755039931090862,-0.4025589469682558,-126.58179643384615,-4.917487034889402,-48.49763058758104,-0.1776,-0.8933,-0.0429,-0.4107
157,924262.0,844.5569199999999,1.0,7.34,4.85,-5.38,-26.75,-23.06,24.75,-33.5,56.06,10.06,0.4717429830790524,1.3755039931090862,-0.4025589469682558,-126.58179643384615,-4.917487034889402,-48.49763058758104,-0.1776,-0.8933,-0.0429,-0.4107
158,924297.0,844.6412789999999,1.0,8.24,4.11,-5.85,-26.75,-23.06,24.75,-8.06,59.94,7.88,0.4267421180274864,0.32542441390460874,-1.0894130557801152,-124.87336158426493,-4.883078110442899,-50.28866780725309,-0.1783,-0.8865,-0.0426,-0.4249
159,924297.0,844.6412789999999,1.0,8.24,4.11,-5.85,-26.75,-23.06,24.75,-8.06,59.94,7.88,0.4267421180274864,0.32542441390460874,-1.0894130557801152,-124.87336158426493,-4.883078110442899,-50.28866780725309,-0.1783,-0.8865,-0.0426,-0.4249
160,924334.0,844.6525210000001,1.0,8.71,3.18,-6.46,-28.5,-22.69,21.87,-17.37,43.69,3.38,-0.07573617890038424,-0.8872883008382313,-1.4590094792493693,-122.85197400573631,-4.802792327898413,-52.297104839209034,-0.1811,-0.8782,-0.0419,-0.4407
161,924334.0,844.6525210000001,1.0,8.71,3.18,-6.46,-28.5,-22.69,21.87,-17.37,43.69,3.38,-0.07573617890038424,-0.8872883008382313,-1.4590094792493693,-122.85197400573631,-4.802792327898413,-52.297104839209034,-0.1811,-0.8782,-0.0419,-0.4407
162,924368.0,844.7081509999999,1.0,8.07,4.82,-4.92,-29.25,-23.06,21.0,-29.56,43.88,8.69,0.35273384370159777,1.1488092727471222,-0.7346742095268937,-121.47748834883792,-4.4702044875913645,-53.55153591306849,-0.1859,-0.8724,-0.039,-0.4505
163,924368.0,844.7081509999999,1.0,8.07,4.82,-4.92,-29.25,-23.06,21.0,-29.56,43.88,8.69,0.35273384370159777,1.1488092727471222,-0.7346742095268937,-121.47748834883792,-4.4702044875913645,-53.55153591306849,-0.1859,-0.8724,-0.039,-0.4505
164,924401.0,844.711786,1.0,8.41,4.16,-5.18,-29.25,-23.06,21.0,-11.13,46.06,7.94,0.057045051061902614,0.32718748642951834,-0.9057630900032674,-119.60574054309872,-4.355527902560735,-55.42044409850313,-0.1882,-0.8643,-0.038,-0.465
165,924401.0,844.711786,1.0,8.41,4.16,-5.18,-29.25,-23.06,21.0,-11.13,46.06,7.94,0.057045051061902614,0.32718748642951834,-0.9057630900032674,-119.60574054309872,-4.355527902560735,-55.42044409850313,-0.1882,-0.8643,-0.038,-0.465
166,924438.0,844.756565,1.0,8.09,5.47,-4.69,-30.19,-24.19,19.25,-17.5,45.0,8.38,-0.13545364067732585,1.714719146489233,-0.8894469778648944,-118.18551847027427,-4.126187708974658,-56.78381993878929,-0.1908,-0.858,-0.036000000000000004,-0.4755
167,924438.0,844.756565,1.0,8.09,5.47,-4.69,-30.19,-24.19,19.25,-17.5,45.0,8.38,-0.13545364067732585,1.714719146489233,-0.8894469778648944,-118.18551847027427,-4.126187708974658,-56.78381993878929,-0.1908,-0.858,-0.036000000000000004,-0.4755
168,924473.0,844.773809,1.0,8.9,3.87,-5.36,-31.37,-23.06,17.87,9.38,50.0,2.19,-0.4093225313864045,-0.1660728050588416,-1.2713179945700954,-116.44509519750315,-4.355527902560735,-58.68116315004747,-0.1891,-0.8501,-0.038,-0.49
169,924473.0,844.773809,1.0,8.9,3.87,-5.36,-31.37,-23.06,17.87,9.38,50.0,2.19,-0.4093225313864045,-0.1660728050588416,-1.2713179945700954,-116.44509519750315,-4.355527902560735,-58.68116315004747,-0.1891,-0.8501,-0.038,-0.49
170,924508.0,844.8187550000001,1.0,9.12,3.25,-5.4,-31.37,-23.06,17.87,-3.25,39.5,2.56,-0.4859416839861361,-0.8175243287057219,-1.2383676392678993,-115.30102772408483,-4.596353909147252,-59.920624504637715,-0.1879,-0.8448,-0.0401,-0.4994
171,924508.0,844.8187550000001,1.0,9.12,3.25,-5.4,-31.37,-23.06,17.87,-3.25,39.5,2.56,-0.4859416839861361,-0.8175243287057219,-1.2383676392678993,-115.30102772408483,-4.596353909147252,-59.920624504637715,-0.1879,-0.8448,-0.0401,-0.4994
172,924542.0,844.875847,1.0,9.27,3.77,-5.38,-32.56,-23.75,17.0,-9.69,33.38,4.44,-0.7321662350128575,-0.41266695056707015,-1.5240092302573842,-113.9220736351645,-4.4702044875913645,-61.27437923360549,-0.1899,-0.8383,-0.039,-0.5096
173,924542.0,844.875847,1.0,9.27,3.77,-5.38,-32.56,-23.75,17.0,-9.69,33.38,4.44,-0.7321662350128575,-0.41266695056707015,-1.5240092302573842,-113.9220736351645,-4.4702044875913645,-61.27437923360549,-0.1899,-0.8383,-0.039,-0.5096
174,924577.0,844.895819,1.0,8.84,4.46,-4.75,-32.75,-23.75,16.19,-11.19,15.81,2.56,-0.6185056951367824,0.4724107028771738,-1.147526319235073,-113.16922611259191,-4.3669953627837845,-61.95480935564663,-0.192,-0.8347,-0.0381,-0.5147
175,924577.0,844.895819,1.0,8.84,4.46,-4.75,-32.75,-23.75,16.19,-11.19,15.81,2.56,-0.6185056951367824,0.4724107028771738,-1.147526319235073,-113.16922611259191,-4.3669953627837845,-61.95480935564663,-0.192,-0.8347,-0.0381,-0.5147
176,924614.0,844.9388859999999,1.0,9.01,3.89,-4.77,-33.5,-23.5,14.5,1.75,18.31,-1.88,-0.6044339771734574,-0.13502387505238336,-1.08745520053869,-112.48564315719341,-4.49314033842009,-62.62426048552695,-0.1926,-0.8314,-0.0392,-0.5197
177,924614.0,844.9388859999999,1.0,9.01,3.89,-4.77,-33.5,-23.5,14.5,1.75,18.31,-1.88,-0.6044339771734574,-0.13502387505238336,-1.08745520053869,-112.48564315719341,-4.49314033842009,-62.62426048552695,-0.1926,-0.8314,-0.0392,-0.5197
178,924647.0,844.957152,1.0,8.74,3.88,-4.34,-33.5,-23.5,14.5,-1.63,15.25,0.06,-0.4565380223170504,0.02462779778237678,-0.6847067523821835,-111.86945684906635,-4.584885551911774,-63.22880649321045,-0.193,-0.8284,-0.04,-0.5242
179,924647.0,844.957152,1.0,8.74,3.88,-4.34,-33.5,-23.5,14.5,-1.63,15.25,0.06,-0.4565380223170504,0.02462779778237678,-0.6847067523821835,-111.86945684906635,-4.584885551911774,-63.22880649321045,-0.193,-0.8284,-0.04,-0.5242
180,924684.0,845.0025810000001,1.0,9.45,3.74,-5.26,-34.25,-23.5,15.38,-5.44,18.06,-1.25,-1.0417107068614442,-0.5810177047890077,-1.5746925056067962,-111.2987386824523,-4.825730880475589,-63.808323575638354,-0.1931,-0.8256,-0.0421,-0.5285
181,924684.0,845.0025810000001,1.0,9.45,3.74,-5.26,-34.25,-23.5,15.38,-5.44,18.06,-1.25,-1.0417107068614442,-0.5810177047890077,-1.5746925056067962,-111.2987386824523,-4.825730880475589,-63.808323575638354,-0.1931,-0.8256,-0.0421,-0.5285
182,924721.0,845.021179,1.0,9.14,3.58,-4.8,-33.5,-23.75,15.0,0.31,-1.19,0.31,-0.7709115603485848,-0.5213501414380104,-1.0804933074128087,-111.15670835013724,-5.020716482682318,-63.97037455615307,-0.1923,-0.8249,-0.0438,-0.5297
183,924721.0,845.021179,1.0,9.14,3.58,-4.8,-33.5,-23.75,15.0,0.31,-1.19,0.31,-0.7709115603485848,-0.5213501414380104,-1.0804933074128087,-111.15670835013724,-5.020716482682318,-63.97037455615307,-0.1923,-0.8249,-0.0438,-0.5297
184,924755.0,845.0620369999999,1.0,8.34,3.72,-3.6,-33.5,-23.75,15.0,5.31,-1.5,-1.37,-0.04257218547067393,0.1618026753706414,-0.007931371778788332,-111.31904975679159,-5.0436569106979485,-63.83532215478704,-0.1918,-0.8257,-0.044000000000000004,-0.5287
185,924755.0,845.0620369999999,1.0,8.34,3.72,-3.6,-33.5,-23.75,15.0,5.31,-1.5,-1.37,-0.04257218547067393,0.1618026753706414,-0.007931371778788332,-111.31904975679159,-5.0436569106979485,-63.83532215478704,-0.1918,-0.8257,-0.044000000000000004,-0.5287
186,924790.0,845.1207529999999,1.0,8.38,3.52,-3.52,-33.38,-23.75,12.88,2.44,1.75,1.75,0.06683624826931245,-0.0035032826973031557,0.0598186870589732,-111.2987386824523,-5.089538374458754,-63.889331204462884,-0.191,-0.8256,-0.0444,-0.5291
187,924790.0,845.1207529999999,1.0,8.38,3.52,-3.52,-33.38,-23.75,12.88,2.44,1.75,1.75,0.06683624826931245,-0.0035032826973031557,0.0598186870589732,-111.2987386824523,-5.089538374458754,-63.889331204462884,-0.191,-0.8256,-0.0444,-0.5291
188,924825.0,845.1615029999999,1.0,8.67,3.71,-4.05,-33.0,-24.19,13.19,5.75,-5.75,-0.75,-0.2892277000660024,-0.044363000712751344,-0.4524863799143599,-111.38001462419376,-5.112479412053579,-63.82182237007654,-0.1906,-0.826,-0.0446,-0.5286
189,924825.0,845.1615029999999,1.0,8.67,3.71,-4.05,-33.0,-24.19,13.19,5.75,-5.75,-0.75,-0.2892277000660024,-0.044363000712751344,-0.4524863799143599,-111.38001462419376,-5.112479412053579,-63.82182237007654,-0.1906,-0.826,-0.0446,-0.5286
190,924862.0,845.1858560000001,1.0,8.3,3.55,-3.59,-33.0,-24.19,13.19,-2.88,-12.63,1.12,0.04841499986425216,0.04726473917723984,0.0919177838131482,-111.78766891146809,-5.204245622111723,-63.44422897307763,-0.1895,-0.828,-0.0454,-0.5258
191,924862.0,845.1858560000001,1.0,8.3,3.55,-3.59,-33.0,-24.19,13.19,-2.88,-12.63,1.12,0.04841499986425216,0.04726473917723984,0.0919177838131482,-111.78766891146809,-5.204245622111723,-63.44422897307763,-0.1895,-0.828,-0.0454,-0.5258
192,924895.0,845.2051849999999,1.0,8.14,3.81,-3.61,-33.38,-23.5,14.5,4.31,-7.25,1.25,-0.03450607267907098,0.3375611350579315,0.1271530186973724,-112.03329231056664,-5.123950007684243,-63.20189622403351,-0.1894,-0.8292,-0.0447,-0.524
193,924895.0,845.2051849999999,1.0,8.14,3.81,-3.61,-33.38,-23.5,14.5,4.31,-7.25,1.25,-0.03450607267907098,0.3375611350579315,0.1271530186973724,-112.03329231056664,-5.123950007684243,-63.20189622403351,-0.1894,-0.8292,-0.0447,-0.524
194,924930.0,845.2445849999999,1.0,8.05,3.92,-3.56,-33.75,-22.69,13.69,1.06,-4.31,0.44,-0.013093558047199071,0.4768147899078568,0.18298249665893707,-112.19747600626744,-5.146891353190199,-63.01363300906978,-0.1894,-0.83,-0.0449,-0.5226
195,924930.0,845.2445849999999,1.0,8.05,3.92,-3.56,-33.75,-22.69,13.69,1.06,-4.31,0.44,-0.013093558047199071,0.4768147899078568,0.18298249665893707,-112.19747600626744,-5.146891353190199,-63.01363300906978,-0.1894,-0.83,-0.0449,-0.5226
196,924966.0,845.252116,1.0,8.41,4.07,-4.33,-33.0,-24.19,13.25,2.56,-3.38,-0.06,-0.5347196472998978,0.3145603546075881,-0.4723103891687721,-112.2796992436405,-5.181303758795194,-62.933006816189014,-0.1891,-0.8304,-0.0452,-0.522
197,924966.0,845.252116,1.0,8.41,4.07,-4.33,-33.0,-24.19,13.25,2.56,-3.38,-0.06,-0.5347196472998978,0.3145603546075881,-0.4723103891687721,-112.2796992436405,-5.181303758795194,-62.933006816189014,-0.1891,-0.8304,-0.0452,-0.522
198,924999.0,845.312814,1.0,7.89,4.33,-3.4,-33.0,-24.19,13.25,6.06,-8.19,-1.56,0.07923697383577831,0.959088662122524,0.23403957022874697,-112.63013397663045,-5.284543793645802,-62.63767369990508,-0.1879,-0.8321,-0.0461,-0.5198
199,924999.0,845.312814,1.0,7.89,4.33,-3.4,-33.0,-24.19,13.25,6.06,-8.19,-1.56,0.07923697383577831,0.959088662122524,0.23403957022874697,-112.63013397663045,-5.284543793645802,-62.63767369990508,-0.1879,-0.8321,-0.0461,-0.5198
200,925036.0,845.373262,1.0,8.06,4.72,-3.93,-33.38,-23.75,14.88,12.13,-1.5,-7.31,-0.32304348902200364,1.132083478857753,-0.2581863077149844,-112.71282300150172,-5.709021066543901,-62.59743692135864,-0.1859,-0.8325,-0.0498,-0.5195
201,925036.0,845.373262,1.0,8.06,4.72,-3.93,-33.38,-23.75,14.88,12.13,-1.5,-7.31,-0.32304348902200364,1.132083478857753,-0.2581863077149844,-112.71282300150172,-5.709021066543901,-62.59743692135864,-0.1859,-0.8325,-0.0498,-0.5195
202,925071.0,845.3797539999999,1.0,7.76,5.69,-3.69,-32.69,-23.75,14.5,25.37,5.75,-17.0,-0.2598017243099079,2.160151913205825,-0.266881991110111,-112.83702493862923,-6.78778903124712,-62.557208730764245,-0.1814,-0.8331,-0.0592,-0.5192
203,925071.0,845.3797539999999,1.0,7.76,5.69,-3.69,-32.69,-23.75,14.5,25.37,5.75,-17.0,-0.2598017243099079,2.160151913205825,-0.266881991110111,-112.83702493862923,-6.78778903124712,-62.557208730764245,-0.1814,-0.8331,-0.0592,-0.5192
204,925106.0,845.3959609999999,1.0,8.23,3.38,-3.94,-32.69,-23.75,14.5,89.69,9.75,-41.63,0.03133999467249367,-0.1786573428743934,0.0779296649008856,-113.10682738081556,-8.774827247055486,-62.44997546195721,-0.171,-0.8344,-0.0765,-0.5184
205,925106.0,845.3959609999999,1.0,8.23,3.38,-3.94,-32.69,-23.75,14.5,89.69,9.75,-41.63,0.03133999467249367,-0.1786573428743934,0.0779296649008856,-113.10682738081556,-8.774827247055486,-62.44997546195721,-0.171,-0.8344,-0.0765,-0.5184
206,925140.0,845.4593189999999,1.0,8.32,2.66,-4.16,-33.5,-23.5,15.0,67.19,8.44,-36.69,0.0076743653203658205,-0.9220149260612612,0.17579180458266566,-113.39846355737878,-11.593515641253694,-62.19553975386646,-0.1561,-0.8358,-0.10099999999999999,-0.5165
207,925140.0,845.4593189999999,1.0,8.32,2.66,-4.16,-33.5,-23.5,15.0,67.19,8.44,-36.69,0.0076743653203658205,-0.9220149260612612,0.17579180458266566,-113.39846355737878,-11.593515641253694,-62.19553975386646,-0.1561,-0.8358,-0.10099999999999999,-0.5165
208,925175.0,845.494558,1.0,8.17,4.4,-4.11,-32.38,-24.56,16.56,42.38,0.37,-34.69,0.10448092746633633,0.6894763845307423,-0.31830461969930113,-113.46110408162376,-13.126503557539667,-61.94144435552603,-0.1515,-0.8361,-0.1143,-0.5146
209,925175.0,845.494558,1.0,8.17,4.4,-4.11,-32.38,-24.56,16.56,42.38,0.37,-34.69,0.10448092746633633,0.6894763845307423,-0.31830461969930113,-113.46110408162376,-13.126503557539667,-61.94144435552603,-0.1515,-0.8361,-0.1143,-0.5146
210,925212.0,845.506843,1.0,7.95,4.1,-4.07,-30.37,-25.0,17.75,54.19,-0.12,-44.0,0.2113643660988712,0.3955985437046792,-0.01048944573277488,-113.58654197734043,-15.7832777083714,-61.420935291391004,-0.1425,-0.8367,-0.1373,-0.5107
211,925212.0,845.506843,1.0,7.95,4.1,-4.07,-30.37,-25.0,17.75,54.19,-0.12,-44.0,0.2113643660988712,0.3955985437046792,-0.01048944573277488,-113.58654197734043,-15.7832777083714,-61.420935291391004,-0.1425,-0.8367,-0.1373,-0.5107
212,925247.0,845.5631460000001,1.0,8.17,2.2,-4.34,-30.37,-25.0,17.75,67.06,-0.19,-30.19,-0.009140465561152292,-1.4823844178030383,0.4137296399764967,-113.77509319472591,-17.694413651857158,-60.91512002849741,-0.1332,-0.8376,-0.1538,-0.5069
213,925247.0,845.5631460000001,1.0,8.17,2.2,-4.34,-30.37,-25.0,17.75,67.06,-0.19,-30.19,-0.009140465561152292,-1.4823844178030383,0.4137296399764967,-113.77509319472591,-17.694413651857158,-60.91512002849741,-0.1332,-0.8376,-0.1538,-0.5069
214,925282.0,845.6210060000001,1.0,8.18,3.05,-4.48,-29.69,-25.69,18.56,29.5,-8.81,-12.56,0.09923793096368176,-0.7095631050051934,0.020334450567034423,-114.09040704091221,-19.16876722159467,-60.3443284261737,-0.1245,-0.8391,-0.1665,-0.5026
215,925282.0,845.6210060000001,1.0,8.18,3.05,-4.48,-29.69,-25.69,18.56,29.5,-8.81,-12.56,0.09923793096368176,-0.7095631050051934,0.020334450567034423,-114.09040704091221,-19.16876722159467,-60.3443284261737,-0.1245,-0.8391,-0.1665,-0.5026
216,925319.0,845.634684,1.0,8.34,1.9,-4.91,-29.0,-26.19,18.69,21.56,-2.75,-7.94,-0.33882069328863795,-1.8312841803739164,0.12133643829681162,-114.28023924222178,-19.81987998842397,-60.0396996516268,-0.1204,-0.84,-0.1721,-0.5003
217,925319.0,845.634684,1.0,8.34,1.9,-4.91,-29.0,-26.19,18.69,21.56,-2.75,-7.94,-0.33882069328863795,-1.8312841803739164,0.12133643829681162,-114.28023924222178,-19.81987998842397,-60.0396996516268,-0.1204,-0.84,-0.1721,-0.5003
218,925351.0,845.648217,1.0,7.85,3.54,-4.74,-29.0,-26.19,18.69,-8.25,-13.19,3.88,-0.06754039463608942,-0.14373261528335754,-0.021700788936879437,-114.68260427841713,-19.633782752905432,-59.64305925688446,-0.1218,-0.8419,-0.1705,-0.4973
219,925351.0,845.648217,1.0,7.85,3.54,-4.74,-29.0,-26.19,18.69,-8.25,-13.19,3.88,-0.06754039463608942,-0.14373261528335754,-0.021700788936879437,-114.68260427841713,-19.633782752905432,-59.64305925688446,-0.1218,-0.8419,-0.1705,-0.4973
220,925388.0,845.6845789999999,1.0,7.89,3.08,-4.95,-28.56,-26.5,19.87,2.94,-6.13,2.88,-0.2692933679026837,-0.5760643559861139,0.01703147118254833,-114.91656280775707,-19.622153417094765,-59.418645600644645,-0.121,-0.843,-0.1704,-0.4956
221,925388.0,845.6845789999999,1.0,7.89,3.08,-4.95,-28.56,-26.5,19.87,2.94,-6.13,2.88,-0.2692933679026837,-0.5760643559861139,0.01703147118254833,-114.91656280775707,-19.622153417094765,-59.418645600644645,-0.121,-0.843,-0.1704,-0.4956
222,925423.0,845.7603550000001,1.0,7.7,3.0,-4.27,-29.06,-26.06,20.56,-2.56,-11.88,6.13,0.27980810774131537,-0.5368181652917137,0.5246009977454289,-115.30102772408483,-19.412860145181693,-59.10225237254154,-0.1212,-0.8448,-0.1686,-0.4932
223,925423.0,845.7603550000001,1.0,7.7,3.0,-4.27,-29.06,-26.06,20.56,-2.56,-11.88,6.13,0.27980810774131537,-0.5368181652917137,0.5246009977454289,-115.30102772408483,-19.412860145181693,-59.10225237254154,-0.1212,-0.8448,-0.1686,-0.4932
224,925458.0,845.7638410000001,1.0,8.13,2.76,-4.8,-29.06,-26.06,20.56,-9.38,-6.5,11.81,-0.011800949340373179,-0.9348492764820112,0.014795345857315569,-115.49402564842946,-18.982850632783478,-59.01006437322476,-0.1224,-0.8457,-0.1649,-0.4925
225,925458.0,845.7638410000001,1.0,8.13,2.76,-4.8,-29.06,-26.06,20.56,-9.38,-6.5,11.81,-0.011800949340373179,-0.9348492764820112,0.014795345857315569,-115.49402564842946,-18.982850632783478,-59.01006437322476,-0.1224,-0.8457,-0.1649,-0.4925
226,925493.0,845.807144,1.0,8.12,3.01,-5.24,-28.25,-25.69,20.56,-26.25,-7.94,16.5,-0.3657752371618837,-0.7185983992119809,-0.2830439902322688,-115.73061389075428,-18.054013364312716,-58.970568079244025,-0.1266,-0.8468,-0.1569,-0.4922
227,925493.0,845.807144,1.0,8.12,3.01,-5.24,-28.25,-25.69,20.56,-26.25,-7.94,16.5,-0.3657752371618837,-0.7185983992119809,-0.2830439902322688,-115.73061389075428,-18.054013364312716,-58.970568079244025,-0.1266,-0.8468,-0.1569,-0.4922
228,925528.0,845.825109,1.0,7.77,3.2,-4.4,-29.37,-25.69,21.0,-30.87,-12.31,19.5,0.2297924843991112,-0.3543630501468702,0.3306528364923871,-115.98960027739392,-17.161136490218524,-58.86528222790042,-0.1312,-0.848,-0.1492,-0.4914
229,925528.0,845.825109,1.0,7.77,3.2,-4.4,-29.37,-25.69,21.0,-30.87,-12.31,19.5,0.2297924843991112,-0.3543630501468702,0.3306528364923871,-115.98960027739392,-17.161136490218524,-58.86528222790042,-0.1312,-0.848,-0.1492,-0.4914
230,925564.0,845.869976,1.0,7.77,3.79,-4.63,-29.75,-25.25,19.75,-38.5,-6.88,21.37,0.04542881059260248,0.17612710411215304,0.0015077029007262155,-116.1411089977447,-15.748572284340513,-58.917918323687886,-0.1383,-0.8487,-0.13699999999999998,-0.4918
231,925564.0,845.869976,1.0,7.77,3.79,-4.63,-29.75,-25.25,19.75,-38.5,-6.88,21.37,0.04542881059260248,0.17612710411215304,0.0015077029007262155,-116.1411089977447,-15.748572284340513,-58.917918323687886,-0.1383,-0.8487,-0.13699999999999998,-0.4918
232,925597.0,845.8881970000001,1.0,8.16,2.67,-5.09,-29.75,-25.25,19.75,-31.62,-7.88,23.56,-0.2999402581788405,-1.036742691578678,-0.1159404094133496,-116.20613978613413,-14.754288420181696,-58.996898086234786,-0.1424,-0.8490000000000001,-0.1284,-0.4924
233,925597.0,845.8881970000001,1.0,8.16,2.67,-5.09,-29.75,-25.25,19.75,-31.62,-7.88,23.56,-0.2999402581788405,-1.036742691578678,-0.1159404094133496,-116.20613978613413,-14.754288420181696,-58.996898086234786,-0.1424,-0.8490000000000001,-0.1284,-0.4924
234,925636.0,845.9300529999999,1.0,8.07,3.1,-4.96,-29.75,-25.25,19.75,-48.81,-20.75,37.69,-0.194430173718742,-0.55561895174347,-0.14272105992188774,-116.66302751124852,-12.734398426775371,-58.77320186377301,-0.1501,-0.8511,-0.1109,-0.4907
235,925636.0,845.9300529999999,1.0,8.07,3.1,-4.96,-29.75,-25.25,19.75,-48.81,-20.75,37.69,-0.194430173718742,-0.55561895174347,-0.14272105992188774,-116.66302751124852,-12.734398426775371,-58.77320186377301,-0.1501,-0.8511,-0.1109,-0.4907
236,925671.0,845.998224,1.0,7.81,4.24,-4.37,-30.19,-24.19,18.56,-63.5,-27.5,44.69,0.1996341837522176,0.7316769494969815,-0.06732564480753389,-117.10092120050626,-10.718474180434589,-58.470944728388595,-0.1576,-0.8531,-0.0934,-0.4884
237,925671.0,845.998224,1.0,7.81,4.24,-4.37,-30.19,-24.19,18.56,-63.5,-27.5,44.69,0.1996341837522176,0.7316769494969815,-0.06732564480753389,-117.10092120050626,-10.718474180434589,-58.470944728388595,-0.1576,-0.8531,-0.0934,-0.4884
238,925704.0,846.0020380000001,1.0,8.06,4.26,-4.93,-30.19,-24.19,18.56,-45.38,-20.12,38.0,-0.20916802217810698,0.6121688203048425,-0.5373143306589547,-117.51946956763666,-8.165828301178744,-58.10358051110581,-0.1676,-0.855,-0.0712,-0.4856
239,925704.0,846.0020380000001,1.0,8.06,4.26,-4.93,-30.19,-24.19,18.56,-45.38,-20.12,38.0,-0.20916802217810698,0.6121688203048425,-0.5373143306589547,-117.51946956763666,-8.165828301178744,-58.10358051110581,-0.1676,-0.855,-0.0712,-0.4856
240,925739.0,846.055165,1.0,7.67,4.44,-4.2,-31.69,-24.19,17.75,-37.44,-17.44,31.44,0.14838793677455428,1.1064831156538886,0.06313030047700607,-117.80730258048688,-6.076199569788739,-57.763041497816594,-0.175,-0.8563,-0.053,-0.483
241,925739.0,846.055165,1.0,7.67,4.44,-4.2,-31.69,-24.19,17.75,-37.44,-17.44,31.44,0.14838793677455428,1.1064831156538886,0.06313030047700607,-117.80730258048688,-6.076199569788739,-57.763041497816594,-0.175,-0.8563,-0.053,-0.483
242,925775.0,846.058549,1.0,7.99,3.78,-4.83,-32.75,-22.75,18.56,-32.69,-7.0,23.87,-0.20797508040169016,0.2656554021144266,-0.2603045331872522,-117.76294265360838,-4.928956774809122,-57.73686934640835,-0.1795,-0.8561,-0.043,-0.4828
243,925775.0,846.058549,1.0,7.99,3.78,-4.83,-32.75,-22.75,18.56,-32.69,-7.0,23.87,-0.20797508040169016,0.2656554021144266,-0.2603045331872522,-117.76294265360838,-4.928956774809122,-57.73686934640835,-0.1795,-0.8561,-0.043,-0.4828
244,925812.0,846.098717,1.0,7.62,4.12,-4.48,-32.75,-22.75,18.56,-34.13,-16.5,23.75,-0.17656987127909102,0.7732578756279889,0.08656279162909009,-117.78511905973166,-3.7592774051414257,-57.553756403368006,-0.1846,-0.8562,-0.0328,-0.4814
245,925812.0,846.098717,1.0,7.62,4.12,-4.48,-32.75,-22.75,18.56,-34.13,-16.5,23.75,-0.17656987127909102,0.7732578756279889,0.08656279162909009,-117.78511905973166,-3.7592774051414257,-57.553756403368006,-0.1846,-0.8562,-0.0328,-0.4814
246,925845.0,846.162377,1.0,7.94,3.95,-4.96,-32.5,-21.69,16.5,-28.0,-11.25,17.69,-0.4088293043342127,0.40843493350462734,-0.3379909253857143,-117.85169099664296,-2.2575997541901875,-57.25327616401329,-0.191,-0.8565,-0.0197,-0.4791
247,925845.0,846.162377,1.0,7.94,3.95,-4.96,-32.5,-21.69,16.5,-28.0,-11.25,17.69,-0.4088293043342127,0.40843493350462734,-0.3379909253857143,-117.85169099664296,-2.2575997541901875,-57.25327616401329,-0.191,-0.8565,-0.0197,-0.4791
248,925880.0,846.179484,1.0,7.7,4.33,-4.58,-32.75,-22.75,18.0,-28.19,-11.69,15.88,-0.29072409111716635,0.8971260847095466,-0.09920404147354488,-117.89610796371052,-1.2146932735575866,-56.90108617541996,-0.1976,-0.8567,-0.0106,-0.4764
249,925880.0,846.179484,1.0,7.7,4.33,-4.58,-32.75,-22.75,18.0,-28.19,-11.69,15.88,-0.29072409111716635,0.8971260847095466,-0.09920404147354488,-117.89610796371052,-1.2146932735575866,-56.90108617541996,-0.1976,-0.8567,-0.0106,-0.4764
250,925917.0,846.228774,1.0,7.62,4.56,-4.49,-32.38,-20.87,16.75,-17.5,-11.25,5.44,-0.2947558585220963,1.1428685448440297,-0.0738899889415432,-117.98502779819529,-0.6760941207657828,-56.640582553149535,-0.2008,-0.8571,-0.0059,-0.4744
251,925917.0,846.228774,1.0,7.62,4.56,-4.49,-32.38,-20.87,16.75,-17.5,-11.25,5.44,-0.2947558585220963,1.1428685448440297,-0.0738899889415432,-117.98502779819529,-0.6760941207657828,-56.640582553149535,-0.2008,-0.8571,-0.0059,-0.4744
252,925952.0,846.263211,1.0,7.7,3.56,-4.62,-32.38,-20.87,16.75,2.31,-2.25,-1.63,-0.15766045828969918,0.1610456424527158,0.1496728600799262,-118.07406258134459,-0.5958787923837214,-56.49744158979394,-0.2014,-0.8575,-0.0052,-0.4733
253,925952.0,846.263211,1.0,7.7,3.56,-4.62,-32.38,-20.87,16.75,2.31,-2.25,-1.63,-0.15766045828969918,0.1610456424527158,0.1496728600799262,-118.07406258134459,-0.5958787923837214,-56.49744158979394,-0.2014,-0.8575,-0.0052,-0.4733
254,925986.0,846.323173,1.0,7.62,3.95,-4.62,-33.19,-22.06,18.0,-7.38,-4.63,4.06,-0.2677571821677373,0.5363035941124576,0.07772485143709673,-118.1186232350635,-0.4812859628976946,-56.432409277717255,-0.2019,-0.8577,-0.0042,-0.4728
255,925986.0,846.323173,1.0,7.62,3.95,-4.62,-33.19,-22.06,18.0,-7.38,-4.63,4.06,-0.2677571821677373,0.5363035941124576,0.07772485143709673,-118.1186232350635,-0.4812859628976946,-56.432409277717255,-0.2019,-0.8577,-0.0042,-0.4728
256,926023.0,846.381014,1.0,7.91,4.0,-4.72,-33.56,-21.56,17.19,-3.94,-1.37,1.37,-0.19771128806192453,0.4874318511445881,-0.22180055016290368,-118.1409144049607,-0.2406424508273681,-56.35439663135928,-0.2032,-0.8578,-0.0021,-0.4722
257,926023.0,846.381014,1.0,7.91,4.0,-4.72,-33.56,-21.56,17.19,-3.94,-1.37,1.37,-0.19771128806192453,0.4874318511445881,-0.22180055016290368,-118.1409144049607,-0.2406424508273681,-56.35439663135928,-0.2032,-0.8578,-0.0021,-0.4722
258,926058.0,846.3985470000001,1.0,7.78,3.37,-4.67,-33.56,-21.56,17.19,0.69,-5.38,0.0,-0.09620072277955093,-0.04667626111825118,0.1276641674044825,-118.20783138151,-0.2406424508273681,-56.26341781734521,-0.2032,-0.8581,-0.0021,-0.4715
259,926058.0,846.3985470000001,1.0,7.78,3.37,-4.67,-33.56,-21.56,17.19,0.69,-5.38,0.0,-0.09620072277955093,-0.04667626111825118,0.1276641674044825,-118.20783138151,-0.2406424508273681,-56.26341781734521,-0.2032,-0.8581,-0.0021,-0.4715
260,926091.0,846.4020130000001,1.0,7.61,3.98,-4.69,-33.25,-21.56,17.69,-4.75,-4.44,0.81,-0.3013741505695022,0.5317444650114473,0.04063640973205196,-118.31950504112476,-0.1145915781247664,-56.09455949870071,-0.2043,-0.8586,-0.001,-0.4702
261,926091.0,846.4020130000001,1.0,7.61,3.98,-4.69,-33.25,-21.56,17.69,-4.75,-4.44,0.81,-0.3013741505695022,0.5317444650114473,0.04063640973205196,-118.31950504112476,-0.1145915781247664,-56.09455949870071,-0.2043,-0.8586,-0.001,-0.4702
262,926128.0,846.444973,1.0,7.79,3.2,-4.57,-33.19,-20.75,16.69,7.0,0.56,-2.75,0.056395591890936014,-0.17469483633003868,0.2267073461332796,-118.38659680691794,-0.09167325699941424,-56.01666960756123,-0.2044,-0.8589,-0.0008,-0.4696
263,926128.0,846.444973,1.0,7.79,3.2,-4.57,-33.19,-20.75,16.69,7.0,0.56,-2.75,0.056395591890936014,-0.17469483633003868,0.2267073461332796,-118.38659680691794,-0.09167325699941424,-56.01666960756123,-0.2044,-0.8589,-0.0008,-0.4696
264,926162.0,846.501916,1.0,7.73,3.81,-4.61,-33.19,-20.75,16.69,-3.94,0.12,1.37,-0.1326614864592801,0.3801277509484065,0.0414565137976215,-118.34186164954453,0.06875493954099557,-56.00369069764568,-0.2052,-0.8587,0.0006,-0.4695
265,926162.0,846.501916,1.0,7.73,3.81,-4.61,-33.19,-20.75,16.69,-3.94,0.12,1.37,-0.1326614864592801,0.3801277509484065,0.0414565137976215,-118.34186164954453,0.06875493954099557,-56.00369069764568,-0.2052,-0.8587,0.0006,-0.4695
266,926197.0,846.508592,1.0,8.19,3.79,-5.32,-32.88,-21.69,16.25,-3.88,1.19,0.12,-0.4550368240762278,0.018153835886653317,-0.6592571239418721,-118.27481372474286,0.04583662483277591,-56.068593069762564,-0.2053,-0.8584,0.0004,-0.47
267,926197.0,846.508592,1.0,8.19,3.79,-5.32,-32.88,-21.69,16.25,-3.88,1.19,0.12,-0.4550368240762278,0.018153835886653317,-0.6592571239418721,-118.27481372474286,0.04583662483277591,-56.068593069762564,-0.2053,-0.8584,0.0004,-0.47
268,926232.0,846.565514,1.0,7.84,3.78,-4.67,-32.5,-21.25,17.87,5.56,-2.69,-3.44,-0.10059075381863893,0.3047923590825392,-0.06552722278581767,-118.40897537194479,-0.10313241704642767,-55.97773522242152,-0.2048,-0.8590000000000001,-0.0009,-0.4693
269,926232.0,846.565514,1.0,7.84,3.78,-4.67,-32.5,-21.25,17.87,5.56,-2.69,-3.44,-0.10059075381863893,0.3047923590825392,-0.06552722278581767,-118.40897537194479,-0.10313241704642767,-55.97773522242152,-0.2048,-0.8590000000000001,-0.0009,-0.4693
270,926267.0,846.572616,1.0,7.75,2.98,-4.68,-32.88,-21.25,17.5,-2.25,-1.19,2.06,-0.002393629913687252,-0.4088781759915119,0.2841443997005868,-118.43136127193769,-0.10313241704642767,-55.95178287128961,-0.2045,-0.8591,-0.0009,-0.4691
271,926267.0,846.572616,1.0,7.75,2.98,-4.68,-32.88,-21.25,17.5,-2.25,-1.19,2.06,-0.002393629913687252,-0.4088781759915119,0.2841443997005868,-118.43136127193769,-0.10313241704642767,-55.95178287128961,-0.2045,-0.8591,-0.0009,-0.4691
272,926302.0,846.6359480000001,1.0,7.73,3.88,-4.74,-32.88,-21.25,17.5,-3.06,3.06,-0.69,-0.24831739835321334,0.38401598222838507,-0.04554621176254692,-118.31950504112476,-0.02291831195802168,-56.00369069764568,-0.2056,-0.8586,-0.0002,-0.4695
273,926302.0,846.6359480000001,1.0,7.73,3.88,-4.74,-32.88,-21.25,17.5,-3.06,3.06,-0.69,-0.24831739835321334,0.38401598222838507,-0.04554621176254692,-118.31950504112476,-0.02291831195802168,-56.00369069764568,-0.2056,-0.8586,-0.0002,-0.4695
274,926339.0,846.655106,1.0,7.85,3.32,-4.89,-31.75,-21.19,16.69,-2.88,-2.19,2.0,-0.19209695539459093,-0.2041739316521152,-0.01569247852118849,-118.34186164954453,0.04583662483277591,-55.97773522242152,-0.2059,-0.8587,0.0004,-0.4693
275,926339.0,846.655106,1.0,7.85,3.32,-4.89,-31.75,-21.19,16.69,-2.88,-2.19,2.0,-0.19209695539459093,-0.2041739316521152,-0.01569247852118849,-118.34186164954453,0.04583662483277591,-55.97773522242152,-0.2059,-0.8587,0.0004,-0.4693
276,926373.0,846.658275,1.0,7.8,2.96,-4.89,-32.88,-21.19,17.56,-4.38,-2.38,4.38,-0.1469493351044973,-0.5096849145376918,0.15096114933765925,-118.38659680691794,0.3093975852894872,-55.912860196887344,-0.2063,-0.8589,0.0027,-0.4688
277,926373.0,846.658275,1.0,7.8,2.96,-4.89,-32.88,-21.19,17.56,-4.38,-2.38,4.38,-0.1469493351044973,-0.5096849145376918,0.15096114933765925,-118.38659680691794,0.3093975852894872,-55.912860196887344,-0.2063,-0.8589,0.0027,-0.4688
278,926408.0,846.697643,1.0,7.85,3.31,-5.16,-32.88,-21.19,17.56,-12.56,-4.19,5.19,-0.4033506177901811,-0.3030931773646155,-0.14069350492448507,-118.36422556879907,0.6760941207657828,-55.80910067345633,-0.2083,-0.8588,0.0059,-0.46799999999999997
279,926408.0,846.697643,1.0,7.85,3.31,-5.16,-32.88,-21.19,17.56,-12.56,-4.19,5.19,-0.4033506177901811,-0.3030931773646155,-0.14069350492448507,-118.36422556879907,0.6760941207657828,-55.80910067345633,-0.2083,-0.8588,0.0059,-0.46799999999999997
280,926441.0,846.7607830000001,1.0,7.66,1.94,-4.44,-32.88,-22.0,15.38,-5.31,-6.69,11.75,0.3718530359034993,-1.2029850662628454,0.8307181681488967,-118.52097838323343,1.5011923619341792,-55.57582333465725,-0.2092,-0.8595,0.0131,-0.4662
281,926441.0,846.7607830000001,1.0,7.66,1.94,-4.44,-32.88,-22.0,15.38,-5.31,-6.69,11.75,0.3718530359034993,-1.2029850662628454,0.8307181681488967,-118.52097838323343,1.5011923619341792,-55.57582333465725,-0.2092,-0.8595,0.0131,-0.4662
282,926478.0,846.7767550000001,1.0,8.1,3.61,-5.09,-33.25,-21.56,16.69,-35.31,-5.69,22.81,-0.3134306314435996,-0.012318325080625579,-0.41351680383153605,-118.18551847027427,2.681687249969397,-55.549919093881286,-0.2149,-0.858,0.0234,-0.466
283,926478.0,846.7767550000001,1.0,8.1,3.61,-5.09,-33.25,-21.56,16.69,-35.31,-5.69,22.81,-0.3134306314435996,-0.012318325080625579,-0.41351680383153605,-118.18551847027427,2.681687249969397,-55.549919093881286,-0.2149,-0.858,0.0234,-0.466
284,926513.0,846.8186720000001,1.0,7.9,3.9,-4.48,-33.25,-21.56,16.69,-23.12,-10.5,19.37,-0.047041608738592415,0.5479214085558133,-0.06188429933207296,-118.07406258134459,3.931261580029344,-55.32985731124961,-0.2191,-0.8575,0.0343,-0.4643
285,926513.0,846.8186720000001,1.0,7.9,3.9,-4.48,-33.25,-21.56,16.69,-23.12,-10.5,19.37,-0.047041608738592415,0.5479214085558133,-0.06188429933207296,-118.07406258134459,3.931261580029344,-55.32985731124961,-0.2191,-0.8575,0.0343,-0.4643
286,926547.0,846.875708,1.0,7.85,3.0,-4.58,-33.19,-21.25,16.69,-15.06,-6.88,14.5,0.0766869978372882,-0.2735019043946074,0.2401346567490812,-118.02953078996279,4.504608331312204,-55.22637549729378,-0.2204,-0.8573,0.0393,-0.4635
287,926547.0,846.875708,1.0,7.85,3.0,-4.58,-33.19,-21.25,16.69,-15.06,-6.88,14.5,0.0766869978372882,-0.2735019043946074,0.2401346567490812,-118.02953078996279,4.504608331312204,-55.22637549729378,-0.2204,-0.8573,0.0393,-0.4635
288,926584.0,846.8916839999999,1.0,7.86,3.22,-4.5,-34.0,-19.75,16.69,-19.25,2.25,18.0,0.03095866554239873,-0.01871259479063614,0.19433022796660995,-117.71861115458816,5.571344453661866,-55.265175443686026,-0.2236,-0.8559,0.0486,-0.4638
289,926584.0,846.8916839999999,1.0,7.86,3.22,-4.5,-34.0,-19.75,16.69,-19.25,2.25,18.0,0.03095866554239873,-0.01871259479063614,0.19433022796660995,-117.71861115458816,5.571344453661866,-55.265175443686026,-0.2236,-0.8559,0.0486,-0.4638
290,926619.0,846.945468,1.0,8.39,3.48,-5.13,-34.38,-20.19,15.88,-16.62,-4.06,17.19,-0.27386383165192874,-0.10914701898508006,-0.6208370189302848,-117.45321573278471,6.443440527613203,-55.265175443686026,-0.2265,-0.8547,0.0562,-0.4638
291,926619.0,846.945468,1.0,8.39,3.48,-5.13,-34.38,-20.19,15.88,-16.62,-4.06,17.19,-0.27386383165192874,-0.10914701898508006,-0.6208370189302848,-117.45321573278471,6.443440527613203,-55.265175443686026,-0.2265,-0.8547,0.0562,-0.4638
292,926654.0,846.9488779999999,1.0,8.05,3.4,-4.71,-34.38,-20.19,15.88,-16.94,-11.69,16.12,-0.11945524651958228,0.08086854252338904,-0.11936585344840545,-117.43114513306999,7.384806987935718,-54.993719820860264,-0.2287,-0.8546,0.0644,-0.4617
293,926654.0,846.9488779999999,1.0,8.05,3.4,-4.71,-34.38,-20.19,15.88,-16.94,-11.69,16.12,-0.11945524651958228,0.08086854252338904,-0.11936585344840545,-117.43114513306999,7.384806987935718,-54.993719820860264,-0.2287,-0.8546,0.0644,-0.4617
294,926689.0,846.9864650000001,1.0,7.8,3.46,-4.53,-34.69,-19.75,16.25,-19.37,-5.56,15.56,-0.1580139720903182,0.2527051321592888,0.1503737145572206,-117.29886813726064,8.22327089407658,-54.81293529494486,-0.2317,-0.8540000000000001,0.0717,-0.4603
295,926689.0,846.9864650000001,1.0,7.8,3.46,-4.53,-34.69,-19.75,16.25,-19.37,-5.56,15.56,-0.1580139720903182,0.2527051321592888,0.1503737145572206,-117.29886813726064,8.22327089407658,-54.81293529494486,-0.2317,-0.8540000000000001,0.0717,-0.4603
296,926726.0,847.05244,1.0,7.96,3.55,-4.6,-35.06,-18.69,15.88,-17.19,4.25,15.5,-0.21885410584506265,0.2874532724601515,-0.041881540108235533,-116.83785829536993,9.257605761151561,-54.8774841925425,-0.2356,-0.8519,0.0807,-0.4608
297,926726.0,847.05244,1.0,7.96,3.55,-4.6,-35.06,-18.69,15.88,-17.19,4.25,15.5,-0.21885410584506265,0.2874532724601515,-0.041881540108235533,-116.83785829536993,9.257605761151561,-54.8774841925425,-0.2356,-0.8519,0.0807,-0.4608
298,926760.0,847.0709119999999,1.0,8.59,3.7,-5.71,-35.06,-18.69,15.88,-13.5,-12.31,14.06,-0.7667251597252074,-0.146561641602456,-1.1237137732078804,-116.6848576958755,9.844059122531188,-54.81293529494486,-0.2371,-0.8512,0.0858,-0.4603
299,926760.0,847.0709119999999,1.0,8.59,3.7,-5.71,-35.06,-18.69,15.88,-13.5,-12.31,14.06,-0.7667251597252074,-0.146561641602456,-1.1237137732078804,-116.6848576958755,9.844059122531188,-54.81293529494486,-0.2371,-0.8512,0.0858,-0.4603
300,926795.0,847.110573,1.0,7.66,4.32,-4.1,-35.88,-18.25,16.69,-9.75,-5.0,6.31,-0.3086908682414449,1.2632989569929334,0.19120483645583344,-116.77224597329428,10.706964767003905,-54.36161866399844,-0.2398,-0.8516,0.0933,-0.4568
301,926795.0,847.110573,1.0,7.66,4.32,-4.1,-35.88,-18.25,16.69,-9.75,-5.0,6.31,-0.3086908682414449,1.2632989569929334,0.19120483645583344,-116.77224597329428,10.706964767003905,-54.36161866399844,-0.2398,-0.8516,0.0933,-0.4568
302,926830.0,847.132117,1.0,8.14,3.25,-4.75,-34.69,-18.25,15.75,-4.19,-2.19,7.38,-0.11835782355953235,0.0018281437613520968,-0.16182972779664162,-116.70669462733449,11.04078222065542,-54.31009785710634,-0.2403,-0.8513,0.0962,-0.4564
303,926830.0,847.132117,1.0,8.14,3.25,-4.75,-34.69,-18.25,15.75,-4.19,-2.19,7.38,-0.11835782355953235,0.0018281437613520968,-0.16182972779664162,-116.70669462733449,11.04078222065542,-54.31009785710634,-0.2403,-0.8513,0.0962,-0.4564
304,926865.0,847.2179980000001,1.0,8.14,4.6,-4.98,-36.19,-17.87,16.69,1.63,-2.5,-2.75,-0.8104840242896608,1.033662577305231,-0.7049938924960717,-116.57577410041328,11.489857897732715,-54.14273717736637,-0.2432,-0.8507,0.1001,-0.4551
305,926865.0,847.2179980000001,1.0,8.14,4.6,-4.98,-36.19,-17.87,16.69,1.63,-2.5,-2.75,-0.8104840242896608,1.033662577305231,-0.7049938924960717,-116.57577410041328,11.489857897732715,-54.14273717736637,-0.2432,-0.8507,0.1001,-0.4551
306,926900.0,847.3227730000001,1.0,7.62,3.46,-4.32,-36.19,-17.87,16.69,-2.75,-7.13,-0.37,-0.14671213968126678,0.42650040677788303,0.3994733273160822,-116.79410996273165,11.466824127666605,-53.949783779378244,-0.2426,-0.8517,0.0999,-0.4536
307,926900.0,847.3227730000001,1.0,7.62,3.46,-4.32,-36.19,-17.87,16.69,-2.75,-7.13,-0.37,-0.14671213968126678,0.42650040677788303,0.3994733273160822,-116.79410996273165,11.466824127666605,-53.949783779378244,-0.2426,-0.8517,0.0999,-0.4536
308,926937.0,847.337602,1.0,7.78,3.45,-4.57,-35.19,-17.87,15.88,0.5,0.69,-0.75,-0.222324804075924,0.2783121570706755,0.15320947215091074,-116.79410996273165,11.639588800101585,-53.82124003233572,-0.2438,-0.8517,0.1014,-0.4526
309,926937.0,847.337602,1.0,7.78,3.45,-4.57,-35.19,-17.87,15.88,0.5,0.69,-0.75,-0.222324804075924,0.2783121570706755,0.15320947215091074,-116.79410996273165,11.639588800101585,-53.82124003233572,-0.2438,-0.8517,0.1014,-0.4526
310,926971.0,847.380594,1.0,7.72,3.69,-4.39,-36.0,-18.69,17.0,6.38,3.44,-4.75,-0.19795029397255584,0.5329774988667402,0.2064754876894064,-116.77224597329428,11.512892133606984,-53.70561320811986,-0.2461,-0.8516,0.1003,-0.4517
311,926971.0,847.380594,1.0,7.72,3.69,-4.39,-36.0,-18.69,17.0,6.38,3.44,-4.75,-0.19795029397255584,0.5329774988667402,0.2064754876894064,-116.77224597329428,11.512892133606984,-53.70561320811986,-0.2461,-0.8516,0.1003,-0.4517
312,927004.0,847.384623,1.0,7.95,3.66,-4.7,-36.0,-18.69,17.0,5.88,7.06,-4.69,-0.2796763151057719,0.3026874634324885,-0.11898657697830828,-116.72853831267862,11.086833319532733,-53.85979546306142,-0.2461,-0.8514,0.0966,-0.4529
313,927004.0,847.384623,1.0,7.95,3.66,-4.7,-36.0,-18.69,17.0,5.88,7.06,-4.69,-0.2796763151057719,0.3026874634324885,-0.11898657697830828,-116.72853831267862,11.086833319532733,-53.85979546306142,-0.2461,-0.8514,0.0966,-0.4529
314,927039.0,847.401648,1.0,7.95,3.54,-4.66,-35.56,-17.87,15.38,11.31,0.44,-7.25,-0.19285067554858776,0.218705311783695,-0.06070408321491527,-116.79410996273165,11.086833319532733,-53.79554006963272,-0.2463,-0.8517,0.0966,-0.4524
315,927039.0,847.401648,1.0,7.95,3.54,-4.66,-35.56,-17.87,15.38,11.31,0.44,-7.25,-0.19285067554858776,0.218705311783695,-0.06070408321491527,-116.79410996273165,11.086833319532733,-53.79554006963272,-0.2463,-0.8517,0.0966,-0.4524
316,927076.0,847.4047009999999,1.0,8.02,3.58,-4.85,-36.0,-17.56,15.75,11.63,1.06,-9.31,-0.2777462301393412,0.14738926535037875,-0.2213325207318189,-116.9473481900315,10.902639624835572,-53.692769431450216,-0.2461,-0.8524,0.095,-0.4516
317,927076.0,847.4047009999999,1.0,8.02,3.58,-4.85,-36.0,-17.56,15.75,11.63,1.06,-9.31,-0.2777462301393412,0.14738926535037875,-0.2213325207318189,-116.9473481900315,10.902639624835572,-53.692769431450216,-0.2461,-0.8524,0.095,-0.4516
318,927111.0,847.440091,1.0,7.52,3.73,-4.03,-36.0,-17.56,15.75,13.38,0.19,-8.25,0.005095705461357736,0.730158788100949,0.5238141090696438,-117.18882847106602,10.51132121524803,-53.628561471418074,-0.2441,-0.8535,0.0916,-0.4511
319,927111.0,847.440091,1.0,7.52,3.73,-4.03,-36.0,-17.56,15.75,13.38,0.19,-8.25,0.005095705461357736,0.730158788100949,0.5238141090696438,-117.18882847106602,10.51132121524803,-53.628561471418074,-0.2441,-0.8535,0.0916,-0.4511
320,927143.0,847.4623449999999,1.0,8.01,3.42,-5.06,-35.19,-18.69,17.0,18.25,11.13,-10.38,-0.3527655234827385,-0.07972555017473892,-0.2595955921803981,-117.27684633570152,9.867062460142213,-53.88550274467078,-0.2411,-0.8539,0.086,-0.4531
321,927143.0,847.4623449999999,1.0,8.01,3.42,-5.06,-35.19,-18.69,17.0,18.25,11.13,-10.38,-0.3527655234827385,-0.07972555017473892,-0.2595955921803981,-117.27684633570152,9.867062460142213,-53.88550274467078,-0.2411,-0.8539,0.086,-0.4531
322,927180.0,847.5020599999999,1.0,7.83,3.49,-4.62,-35.19,-17.87,15.25,14.81,2.06,-10.0,-0.14317156359640365,0.2105648089348171,0.07173529238105836,-117.38702490663178,9.729048380447908,-53.83409111073488,-0.2406,-0.8544,0.0848,-0.4527
323,927180.0,847.5020599999999,1.0,7.83,3.49,-4.62,-35.19,-17.87,15.25,14.81,2.06,-10.0,-0.14317156359640365,0.2105648089348171,0.07173529238105836,-117.38702490663178,9.729048380447908,-53.83409111073488,-0.2406,-0.8544,0.0848,-0.4527
324,927217.0,847.5136470000001,1.0,8.13,2.71,-5.05,-35.19,-18.25,16.56,11.81,3.13,-7.38,0.0047378008795107285,-0.6943590077415921,-0.11611892412651947,-117.56367389565743,9.280599254023052,-53.89835748467391,-0.2384,-0.8552,0.0809,-0.4532
325,927217.0,847.5136470000001,1.0,8.13,2.71,-5.05,-35.19,-18.25,16.56,11.81,3.13,-7.38,0.0047378008795107285,-0.6943590077415921,-0.11611892412651947,-117.56367389565743,9.280599254023052,-53.89835748467391,-0.2384,-0.8552,0.0809,-0.4532
326,927250.0,847.573236,1.0,7.92,3.82,-4.88,-35.19,-18.25,16.56,5.75,3.19,-9.31,-0.3719679139847695,0.3557545521484551,-0.23667009693963334,-117.58578661368068,8.993207204284674,-53.911212957858886,-0.2382,-0.8553,0.0784,-0.4533
327,927250.0,847.573236,1.0,7.92,3.82,-4.88,-35.19,-18.25,16.56,5.75,3.19,-9.31,-0.3719679139847695,0.3557545521484551,-0.23667009693963334,-117.58578661368068,8.993207204284674,-53.911212957858886,-0.2382,-0.8553,0.0784,-0.4533
328,927287.0,847.593781,1.0,8.06,3.24,-5.16,-36.0,-18.25,16.56,16.06,5.0,-13.25,-0.28004704091752675,-0.3136277077870277,-0.28839885157974976,-117.69645604638977,8.533497036933403,-53.949783779378244,-0.2373,-0.8558,0.0744,-0.4536
329,927287.0,847.593781,1.0,8.06,3.24,-5.16,-36.0,-18.25,16.56,16.06,5.0,-13.25,-0.28004704091752675,-0.3136277077870277,-0.28839885157974976,-117.69645604638977,8.533497036933403,-53.949783779378244,-0.2373,-0.8558,0.0744,-0.4536
330,927322.0,847.635847,1.0,7.98,2.87,-4.86,-34.06,-19.37,15.25,3.25,0.12,-8.5,0.04516131988124589,-0.5020914375640018,0.045360912819379706,-117.80730258048688,8.361141590530956,-53.85979546306142,-0.2375,-0.8563,0.0729,-0.4529
331,927322.0,847.635847,1.0,7.98,2.87,-4.86,-34.06,-19.37,15.25,3.25,0.12,-8.5,0.04516131988124589,-0.5020914375640018,0.045360912819379706,-117.80730258048688,8.361141590530956,-53.85979546306142,-0.2375,-0.8563,0.0729,-0.4529
332,927356.0,847.652515,1.0,8.08,3.2,-5.21,-34.06,-19.37,15.25,1.75,-1.56,-3.69,-0.25144160902700674,-0.4085252729769671,-0.3146337238459527,-117.85169099664296,8.154340029708836,-53.808389685397145,-0.2379,-0.8565,0.0711,-0.4525
333,927356.0,847.652515,1.0,8.08,3.2,-5.21,-34.06,-19.37,15.25,1.75,-1.56,-3.69,-0.25144160902700674,-0.4085252729769671,-0.3146337238459527,-117.85169099664296,8.154340029708836,-53.808389685397145,-0.2379,-0.8565,0.0711,-0.4525
334,927391.0,847.699425,1.0,8.06,3.57,-5.04,-35.56,-19.75,17.0,4.0,-4.5,-5.44,-0.2285607649216888,-0.0035911616186494744,-0.34509108615348083,-118.00727569803878,8.200293609338797,-53.60288337963247,-0.2385,-0.8572,0.0715,-0.4509
335,927391.0,847.699425,1.0,8.06,3.57,-5.04,-35.56,-19.75,17.0,4.0,-4.5,-5.44,-0.2285607649216888,-0.0035911616186494744,-0.34509108615348083,-118.00727569803878,8.200293609338797,-53.60288337963247,-0.2385,-0.8572,0.0715,-0.4509
336,927428.0,847.76043,1.0,7.75,3.82,-4.44,-34.75,-19.37,17.5,12.19,0.63,-8.81,-0.0057550190435183,0.5347386945166179,0.10703550207574077,-118.27481372474286,7.94756506816392,-53.42321798982236,-0.2374,-0.8584,0.0693,-0.4495
337,927428.0,847.76043,1.0,7.75,3.82,-4.44,-34.75,-19.37,17.5,12.19,0.63,-8.81,-0.0057550190435183,0.5347386945166179,0.10703550207574077,-118.27481372474286,7.94756506816392,-53.42321798982236,-0.2374,-0.8584,0.0693,-0.4495
338,927461.0,847.7768550000001,1.0,8.08,3.65,-5.01,-34.75,-19.37,17.5,9.0,1.44,-8.38,-0.15966306418944615,0.08815311977191276,-0.37547830077327937,-118.40897537194479,7.5455762164051485,-53.448875784329395,-0.2357,-0.8590000000000001,0.0658,-0.4497
339,927461.0,847.7768550000001,1.0,8.08,3.65,-5.01,-34.75,-19.37,17.5,9.0,1.44,-8.38,-0.15966306418944615,0.08815311977191276,-0.37547830077327937,-118.40897537194479,7.5455762164051485,-53.448875784329395,-0.2357,-0.8590000000000001,0.0658,-0.4497
340,927496.0,847.816305,1.0,7.77,3.74,-4.72,-34.19,-20.56,17.0,15.25,-1.56,-10.81,-0.10343505538458607,0.3352100521688297,-0.0175973202908839,-118.72304914641389,7.109236280779951,-53.28215172783013,-0.2341,-0.8604,0.062,-0.4484
341,927496.0,847.816305,1.0,7.77,3.74,-4.72,-34.19,-20.56,17.0,15.25,-1.56,-10.81,-0.10343505538458607,0.3352100521688297,-0.0175973202908839,-118.72304914641389,7.109236280779951,-53.28215172783013,-0.2341,-0.8604,0.062,-0.4484
342,927531.0,847.879727,1.0,7.99,2.67,-5.15,-34.19,-19.75,16.19,18.37,1.56,-9.44,0.07015532225297127,-0.8199782382985649,-0.032771421988000426,-118.94828017259012,6.810747745686069,-53.20524321404206,-0.2325,-0.8614,0.0594,-0.4478
343,927531.0,847.879727,1.0,7.99,2.67,-5.15,-34.19,-19.75,16.19,18.37,1.56,-9.44,0.07015532225297127,-0.8199782382985649,-0.032771421988000426,-118.94828017259012,6.810747745686069,-53.20524321404206,-0.2325,-0.8614,0.0594,-0.4478
344,927565.0,847.896247,1.0,7.83,3.78,-4.95,-33.25,-20.19,16.19,0.88,-3.63,-5.56,-0.18329266206338976,0.2610334419941074,-0.1932532666418556,-119.10638959402516,6.7418724197947295,-53.000280019764396,-0.233,-0.8621,0.0588,-0.4462
345,927565.0,847.896247,1.0,7.83,3.78,-4.95,-33.25,-20.19,16.19,0.88,-3.63,-5.56,-0.18329266206338976,0.2610334419941074,-0.1932532666418556,-119.10638959402516,6.7418724197947295,-53.000280019764396,-0.233,-0.8621,0.0588,-0.4462
346,927600.0,847.901307,1.0,7.53,4.3,-4.59,-33.25,-20.19,16.19,6.06,-0.37,-11.13,-0.22061448433833006,0.8993096112368801,0.03927719701776233,-119.24220793672814,6.4319632645356775,-52.89786697704349,-0.2329,-0.8627,0.0561,-0.4454
347,927600.0,847.901307,1.0,7.53,4.3,-4.59,-33.25,-20.19,16.19,6.06,-0.37,-11.13,-0.22061448433833006,0.8993096112368801,0.03927719701776233,-119.24220793672814,6.4319632645356775,-52.89786697704349,-0.2329,-0.8627,0.0561,-0.4454
348,927637.0,847.9399609999999,1.0,7.72,3.76,-4.87,-33.25,-21.25,18.19,26.75,3.75,-15.19,-0.1047261365290186,0.2647195267064635,-0.06106787236076273,-119.51467199760063,5.571344453661866,-52.89786697704349,-0.23,-0.8639,0.0486,-0.4454
349,927637.0,847.9399609999999,1.0,7.72,3.76,-4.87,-33.25,-21.25,18.19,26.75,3.75,-15.19,-0.1047261365290186,0.2647195267064635,-0.06106787236076273,-119.51467199760063,5.571344453661866,-52.89786697704349,-0.23,-0.8639,0.0486,-0.4454
350,927672.0,847.9970529999999,1.0,7.7,3.37,-4.83,-33.75,-20.56,16.56,16.75,2.63,-11.63,0.05405296379862522,-0.05983119744884768,0.11287372318628107,-119.69693362458544,5.238658808769412,-52.821087070408176,-0.2286,-0.8647,0.0457,-0.4448
351,927672.0,847.9970529999999,1.0,7.7,3.37,-4.83,-33.75,-20.56,16.56,16.75,2.63,-11.63,0.05405296379862522,-0.05983119744884768,0.11287372318628107,-119.69693362458544,5.238658808769412,-52.821087070408176,-0.2286,-0.8647,0.0457,-0.4448
352,927707.0,848.0155390000001,1.0,7.84,3.39,-5.3,-33.75,-20.56,16.56,16.12,2.69,-10.5,-0.19923602268655946,-0.2660101577103502,-0.24010288853363804,-119.87969568097151,4.6078223124450055,-52.87227083326433,-0.2262,-0.8655,0.0402,-0.4452
353,927707.0,848.0155390000001,1.0,7.84,3.39,-5.3,-33.75,-20.56,16.56,16.12,2.69,-10.5,-0.19923602268655946,-0.2660101577103502,-0.24010288853363804,-119.87969568097151,4.6078223124450055,-52.87227083326433,-0.2262,-0.8655,0.0402,-0.4452
354,927741.0,848.0555220000001,1.0,7.53,3.54,-5.09,-31.75,-20.87,17.0,9.69,-1.25,-8.88,-0.2422796102200743,-0.005102043567279058,0.055656483459076256,-120.01709840281569,4.3211257832659316,-52.795499446887185,-0.2254,-0.8661,0.0377,-0.4446
355,927741.0,848.0555220000001,1.0,7.53,3.54,-5.09,-31.75,-20.87,17.0,9.69,-1.25,-8.88,-0.2422796102200743,-0.005102043567279058,0.055656483459076256,-120.01709840281569,4.3211257832659316,-52.795499446887185,-0.2254,-0.8661,0.0377,-0.4446
356,927778.0,848.1174380000001,1.0,7.65,3.61,-5.06,-32.56,-22.37,17.37,14.25,2.5,-8.69,-0.14030855438443013,0.06245742115815145,-0.04903935083227928,-120.20074735368748,3.851001219583861,-52.78270669863224,-0.2231,-0.8669,0.0336,-0.4445
357,927778.0,848.1174380000001,1.0,7.65,3.61,-5.06,-32.56,-22.37,17.37,14.25,2.5,-8.69,-0.14030855438443013,0.06245742115815145,-0.04903935083227928,-120.20074735368748,3.851001219583861,-52.78270669863224,-0.2231,-0.8669,0.0336,-0.4445
358,927811.0,848.1610099999999,1.0,7.56,3.64,-4.98,-32.56,-22.37,17.37,9.19,4.13,-7.25,-0.12990316294547874,0.13418494128152034,0.0512043633419772,-120.26974778474064,3.4726557451993814,-52.821087070408176,-0.2216,-0.8672,0.0303,-0.4448
359,927811.0,848.1610099999999,1.0,7.56,3.64,-4.98,-32.56,-22.37,17.37,9.19,4.13,-7.25,-0.12990316294547874,0.13418494128152034,0.0512043633419772,-120.26974778474064,3.4726557451993814,-52.821087070408176,-0.2216,-0.8672,0.0303,-0.4448
360,927846.0,848.1789220000001,1.0,7.35,3.49,-4.76,-32.69,-21.25,16.56,10.44,0.25,-5.5,-0.030446224826802107,0.13039901894849493,0.3810322948704794,-120.43103091016366,3.254837913384077,-52.7571233277472,-0.2202,-0.8679,0.0284,-0.4443
361,927846.0,848.1789220000001,1.0,7.35,3.49,-4.76,-32.69,-21.25,16.56,10.44,0.25,-5.5,-0.030446224826802107,0.13039901894849493,0.3810322948704794,-120.43103091016366,3.254837913384077,-52.7571233277472,-0.2202,-0.8679,0.0284,-0.4443
362,927881.0,848.194628,1.0,7.62,3.69,-5.11,-32.25,-22.37,17.75,11.94,4.06,-9.0,-0.17390301624055182,0.12068337094914705,-0.08009836662280989,-120.45410373713348,2.9338644268256844,-52.795499446887185,-0.2193,-0.868,0.0256,-0.4446
363,927881.0,848.194628,1.0,7.62,3.69,-5.11,-32.25,-22.37,17.75,11.94,4.06,-9.0,-0.17390301624055182,0.12068337094914705,-0.08009836662280989,-120.45410373713348,2.9338644268256844,-52.795499446887185,-0.2193,-0.868,0.0256,-0.4446
364,927918.0,848.1994900000001,1.0,7.49,3.33,-4.82,-31.5,-22.06,19.06,9.81,0.63,-5.69,0.07421596341360259,-0.05784850747399273,0.29809882009053723,-120.63897960324066,2.383676327772471,-52.83388194622903,-0.2164,-0.8688,0.0208,-0.4449
365,927918.0,848.1994900000001,1.0,7.49,3.33,-4.82,-31.5,-22.06,19.06,9.81,0.63,-5.69,0.07421596341360259,-0.05784850747399273,0.29809882009053723,-120.63897960324066,2.383676327772471,-52.83388194622903,-0.2164,-0.8688,0.0208,-0.4449
366,927950.0,848.2510689999999,1.0,7.33,3.81,-4.78,-31.5,-22.06,19.06,8.13,3.75,-5.06,-0.099063463435873,0.4174515088164537,0.2720120588929049,-120.63897960324066,2.1315259137202647,-52.89786697704349,-0.2153,-0.8688,0.0186,-0.4454
367,927950.0,848.2510689999999,1.0,7.33,3.81,-4.78,-31.5,-22.06,19.06,8.13,3.75,-5.06,-0.099063463435873,0.4174515088164537,0.2720120588929049,-120.63897960324066,2.1315259137202647,-52.89786697704349,-0.2153,-0.8688,0.0186,-0.4454
368,927987.0,848.291964,1.0,7.19,3.82,-4.46,-31.75,-22.37,18.25,12.94,7.75,-5.56,0.05719585259442494,0.5786207625041078,0.5415527718191129,-120.63897960324066,1.7189378496716434,-53.06431134668802,-0.2131,-0.8688,0.015,-0.4467
369,927987.0,848.291964,1.0,7.19,3.82,-4.46,-31.75,-22.37,18.25,12.94,7.75,-5.56,0.05719585259442494,0.5786207625041078,0.5415527718191129,-120.63897960324066,1.7189378496716434,-53.06431134668802,-0.2131,-0.8688,0.015,-0.4467
370,928022.0,848.351552,1.0,7.45,3.92,-4.72,-31.5,-22.37,17.37,11.88,11.13,-5.13,-0.029674363925671424,0.5176464622129764,0.16930277307681685,-120.50027377126791,1.4095117183833985,-53.29497233017572,-0.2121,-0.8682,0.0123,-0.4485
371,928022.0,848.351552,1.0,7.45,3.92,-4.72,-31.5,-22.37,17.37,11.88,11.13,-5.13,-0.029674363925671424,0.5176464622129764,0.16930277307681685,-120.50027377126791,1.4095117183833985,-53.29497233017572,-0.2121,-0.8682,0.0123,-0.4485
372,928057.0,848.36879,1.0,8.05,3.22,-5.49,-31.5,-22.37,17.37,20.62,8.25,-7.94,-0.1554518829339364,-0.4982094267166455,-0.4421851571884972,-120.38490958888936,0.7792286067117273,-53.64140160793269,-0.2084,-0.8677,0.0068,-0.4512
373,928057.0,848.36879,1.0,8.05,3.22,-5.49,-31.5,-22.37,17.37,20.62,8.25,-7.94,-0.1554518829339364,-0.4982094267166455,-0.4421851571884972,-120.38490958888936,0.7792286067117273,-53.64140160793269,-0.2084,-0.8677,0.0068,-0.4512
374,928092.0,848.4165210000001,1.0,7.89,3.04,-5.53,-31.75,-22.75,17.75,10.06,5.63,-8.63,-0.2481205146550016,-0.6471578325153999,-0.272745961565418,-120.40796619724487,0.4010712754482724,-53.73130294840485,-0.2067,-0.8678,0.0035,-0.4519
375,928092.0,848.4165210000001,1.0,7.89,3.04,-5.53,-31.75,-22.75,17.75,10.06,5.63,-8.63,-0.2481205146550016,-0.6471578325153999,-0.272745961565418,-120.40796619724487,0.4010712754482724,-53.73130294840485,-0.2067,-0.8678,0.0035,-0.4519
376,928129.0,848.479906,1.0,7.56,3.25,-4.94,-31.5,-23.19,17.06,5.63,5.69,-6.0,-0.024413322347204582,-0.19520948018500214,0.2107656088384484,-120.36186107562722,0.10313241704642767,-53.808389685397145,-0.2061,-0.8676,0.0009,-0.4525
377,928129.0,848.479906,1.0,7.56,3.25,-4.94,-31.5,-23.19,17.06,5.63,5.69,-6.0,-0.024413322347204582,-0.19520948018500214,0.2107656088384484,-120.36186107562722,0.10313241704642767,-53.808389685397145,-0.2061,-0.8676,0.0009,-0.4525
378,928161.0,848.484173,1.0,7.7,3.34,-4.93,-31.5,-23.19,17.06,10.31,4.81,-5.81,0.03975347839992363,-0.14136972002719927,0.07377096740052203,-120.31578829659293,-0.1833465726697912,-53.93692610492359,-0.2051,-0.8674,-0.0016,-0.4535
379,928161.0,848.484173,1.0,7.7,3.34,-4.93,-31.5,-23.19,17.06,10.31,4.81,-5.81,0.03975347839992363,-0.14136972002719927,0.07377096740052203,-120.31578829659293,-0.1833465726697912,-53.93692610492359,-0.2051,-0.8674,-0.0016,-0.4535
380,928196.0,848.55084,1.0,7.86,3.67,-5.17,-31.19,-22.75,19.0,10.94,8.06,-5.38,-0.13319105809951226,0.049327712591340056,-0.2907371332544653,-120.20074735368748,-0.6760941207657828,-54.16847683303728,-0.2026,-0.8669,-0.0059,-0.4553
381,928196.0,848.55084,1.0,7.86,3.67,-5.17,-31.19,-22.75,19.0,10.94,8.06,-5.38,-0.13319105809951226,0.049327712591340056,-0.2907371332544653,-120.20074735368748,-0.6760941207657828,-54.16847683303728,-0.2026,-0.8669,-0.0059,-0.4553
382,928231.0,848.553636,1.0,8.07,3.64,-5.25,-31.75,-23.19,17.75,12.88,5.38,-7.38,-0.07695534914045417,-0.039810137014545166,-0.4855554501078405,-120.17776326239715,-1.0084187350403075,-54.31009785710634,-0.2007,-0.8668,-0.0088,-0.4564
383,928231.0,848.553636,1.0,8.07,3.64,-5.25,-31.75,-23.19,17.75,12.88,5.38,-7.38,-0.07695534914045417,-0.039810137014545166,-0.4855554501078405,-120.17776326239715,-1.0084187350403075,-54.31009785710634,-0.2007,-0.8668,-0.0088,-0.4564
384,928264.0,848.589666,1.0,8.17,2.44,-5.37,-31.75,-23.19,17.75,19.62,5.31,-7.56,0.08663194292910104,-1.1860247648090376,-0.19961004877566424,-120.26974778474064,-1.5584932484256673,-54.38738352787694,-0.1972,-0.8672,-0.0136,-0.457
385,928264.0,848.589666,1.0,8.17,2.44,-5.37,-31.75,-23.19,17.75,19.62,5.31,-7.56,0.08663194292910104,-1.1860247648090376,-0.19961004877566424,-120.26974778474064,-1.5584932484256673,-54.38738352787694,-0.1972,-0.8672,-0.0136,-0.457
386,928299.0,848.610806,1.0,7.76,3.9,-4.97,-32.38,-23.56,18.56,1.81,2.5,-3.75,-0.058897274117614674,0.3624515388163805,-0.1930329946309364,-120.24673960552259,-1.6501754833924644,-54.38738352787694,-0.1975,-0.8671,-0.0144,-0.457
387,928299.0,848.610806,1.0,7.76,3.9,-4.97,-32.38,-23.56,18.56,1.81,2.5,-3.75,-0.058897274117614674,0.3624515388163805,-0.1930329946309364,-120.24673960552259,-1.6501754833924644,-54.38738352787694,-0.1975,-0.8671,-0.0144,-0.457
388,928333.0,848.647518,1.0,7.78,3.38,-5.01,-31.56,-23.56,19.06,12.75,4.44,-5.38,-0.002092128387642913,-0.1324905361725519,-0.0440018505540305,-120.22373946495337,-2.085681528609333,-54.516252544990145,-0.1954,-0.867,-0.0182,-0.45799999999999996
389,928333.0,848.647518,1.0,7.78,3.38,-5.01,-31.56,-23.56,19.06,12.75,4.44,-5.38,-0.002092128387642913,-0.1324905361725519,-0.0440018505540305,-120.22373946495337,-2.085681528609333,-54.516252544990145,-0.1954,-0.867,-0.0182,-0.45799999999999996
390,928370.0,848.65578,1.0,7.56,3.93,-4.68,-31.25,-23.56,19.06,13.88,3.69,-8.5,0.06795869307358057,0.5243881922627118,0.0998843883324767,-120.24673960552259,-2.4982938949536853,-54.55492780539657,-0.1937,-0.8671,-0.0218,-0.4583
391,928370.0,848.65578,1.0,7.56,3.93,-4.68,-31.25,-23.56,19.06,13.88,3.69,-8.5,0.06795869307358057,0.5243881922627118,0.0998843883324767,-120.24673960552259,-2.4982938949536853,-54.55492780539657,-0.1937,-0.8671,-0.0218,-0.4583
392,928403.0,848.7206359999999,1.0,8.05,2.51,-5.54,-31.25,-23.56,19.06,21.25,7.94,-13.25,-0.14895817684112242,-1.1591299448113397,-0.2147485666968585,-120.26974778474064,-3.2892294003721183,-54.69679474885505,-0.1899,-0.8672,-0.0287,-0.4594
393,928403.0,848.7206359999999,1.0,8.05,2.51,-5.54,-31.25,-23.56,19.06,21.25,7.94,-13.25,-0.14895817684112242,-1.1591299448113397,-0.2147485666968585,-120.26974778474064,-3.2892294003721183,-54.69679474885505,-0.1899,-0.8672,-0.0287,-0.4594
394,928440.0,848.737042,1.0,7.9,3.22,-5.28,-31.25,-23.56,17.69,2.31,-2.19,0.69,-0.09704647437394166,-0.378084210934311,-0.21853998878593828,-120.38490958888936,-3.346549205454908,-54.61940153639184,-0.1891,-0.8677,-0.0292,-0.4588
395,928440.0,848.737042,1.0,7.9,3.22,-5.28,-31.25,-23.56,17.69,2.31,-2.19,0.69,-0.09704647437394166,-0.378084210934311,-0.21853998878593828,-120.38490958888936,-3.346549205454908,-54.61940153639184,-0.1891,-0.8677,-0.0292,-0.4588
396,928477.0,848.792415,1.0,8.09,3.3,-5.54,-30.06,-23.56,19.37,1.37,-0.37,-2.0,-0.20039234277864226,-0.4223711723836652,-0.5282977745025335,-120.43103091016366,-3.5758369454907797,-54.63229852978135,-0.188,-0.8679,-0.0312,-0.4589
397,928477.0,848.792415,1.0,8.09,3.3,-5.54,-30.06,-23.56,19.37,1.37,-0.37,-2.0,-0.20039234277864226,-0.4223711723836652,-0.5282977745025335,-120.43103091016366,-3.5758369454907797,-54.63229852978135,-0.188,-0.8679,-0.0312,-0.4589
398,928509.0,848.850767,1.0,7.91,3.21,-5.35,-30.06,-23.56,19.37,0.31,-6.06,0.25,-0.10816219645678334,-0.4015531645606201,-0.2592208513118237,-120.59271162762087,-3.5987664920103746,-54.45180871588593,-0.1876,-0.8686,-0.0314,-0.4575
399,928509.0,848.850767,1.0,7.91,3.21,-5.35,-30.06,-23.56,19.37,0.31,-6.06,0.25,-0.10816219645678334,-0.4015531645606201,-0.2592208513118237,-120.59271162762087,-3.5987664920103746,-54.45180871588593,-0.1876,-0.8686,-0.0314,-0.4575
400,928544.0,848.893828,1.0,7.93,3.56,-5.51,-30.37,-23.87,18.5,-0.5,-6.44,3.19,-0.22702431852393096,-0.10040890969058892,-0.4820320346268616,-120.87081305028902,-3.4611913427691,-54.219965017577714,-0.1868,-0.8698,-0.0302,-0.4557
401,928544.0,848.893828,1.0,7.93,3.56,-5.51,-30.37,-23.87,18.5,-0.5,-6.44,3.19,-0.22702431852393096,-0.10040890969058892,-0.4820320346268616,-120.87081305028902,-3.4611913427691,-54.219965017577714,-0.1868,-0.8698,-0.0302,-0.4557
402,928579.0,848.911381,1.0,8.28,3.26,-5.95,-30.37,-23.56,18.87,1.69,-6.56,-0.31,-0.31074646706426723,-0.5784847353498668,-0.8777915878497975,-121.03358960360973,-3.438262641755622,-54.05267163514365,-0.1865,-0.8705,-0.03,-0.4544
403,928579.0,848.911381,1.0,8.28,3.26,-5.95,-30.37,-23.56,18.87,1.69,-6.56,-0.31,-0.31074646706426723,-0.5784847353498668,-0.8777915878497975,-121.03358960360973,-3.438262641755622,-54.05267163514365,-0.1865,-0.8705,-0.03,-0.4544
404,928616.0,848.914502,1.0,8.08,3.67,-5.73,-30.37,-23.56,18.87,-0.94,-15.0,3.81,-0.21936048114510676,-0.0592156396155934,-0.7544377511427136,-121.5243930799012,-3.2892294003721183,-53.60288337963247,-0.1859,-0.8726,-0.0287,-0.4509
405,928616.0,848.914502,1.0,8.08,3.67,-5.73,-30.37,-23.56,18.87,-0.94,-15.0,3.81,-0.21936048114510676,-0.0592156396155934,-0.7544377511427136,-121.5243930799012,-3.2892294003721183,-53.60288337963247,-0.1859,-0.8726,-0.0287,-0.4509
406,928651.0,848.9563630000001,1.0,8.01,4.07,-5.8,-30.06,-23.87,18.87,-0.88,-18.87,2.44,-0.2789748943995328,0.3323056954137986,-0.8787019330478945,-121.99534211175566,-3.15166519950434,-53.11554927222101,-0.1854,-0.8746,-0.0275,-0.4471
407,928651.0,848.9563630000001,1.0,8.01,4.07,-5.8,-30.06,-23.87,18.87,-0.88,-18.87,2.44,-0.2789748943995328,0.3323056954137986,-0.8787019330478945,-121.99534211175566,-3.15166519950434,-53.11554927222101,-0.1854,-0.8746,-0.0275,-0.4471
408,928686.0,849.0217880000001,1.0,7.83,3.77,-5.55,-31.25,-23.56,21.87,5.06,-18.37,-0.37,-0.02594394722289494,0.1986918328216749,-0.502770374937306,-122.70838865597605,-3.2892294003721183,-52.45034316588912,-0.1835,-0.8776,-0.0287,-0.4419
409,928686.0,849.0217880000001,1.0,7.83,3.77,-5.55,-31.25,-23.56,21.87,5.06,-18.37,-0.37,-0.02594394722289494,0.1986918328216749,-0.502770374937306,-122.70838865597605,-3.2892294003721183,-52.45034316588912,-0.1835,-0.8776,-0.0287,-0.4419
410,928720.0,849.057332,1.0,7.95,3.75,-6.01,-30.06,-23.87,21.0,5.56,-19.25,0.88,-0.21617984285550987,0.04616021154476857,-0.8392992536087701,-123.2364939020704,-3.3924056518954067,-51.965432739188564,-0.1819,-0.8798,-0.0296,-0.4381
411,928720.0,849.057332,1.0,7.95,3.75,-6.01,-30.06,-23.87,21.0,5.56,-19.25,0.88,-0.21617984285550987,0.04616021154476857,-0.8392992536087701,-123.2364939020704,-3.3924056518954067,-51.965432739188564,-0.1819,-0.8798,-0.0296,-0.4381
412,928755.0,849.086043,1.0,7.91,3.84,-6.12,-30.06,-23.87,21.0,6.69,-21.37,0.31,-0.17805248502887572,0.1514319649223168,-0.9037872306911384,-124.1105266335135,-3.369477361207863,-51.125583264636,-0.1801,-0.8834,-0.0294,-0.4315
413,928755.0,849.086043,1.0,7.91,3.84,-6.12,-30.06,-23.87,21.0,6.69,-21.37,0.31,-0.17805248502887572,0.1514319649223168,-0.9037872306911384,-124.1105266335135,-3.369477361207863,-51.125583264636,-0.1801,-0.8834,-0.0294,-0.4315
414,928790.0,849.1026929999999,1.0,7.5,3.69,-5.96,-30.06,-23.19,21.37,6.38,-29.37,-0.25,-0.15288847673865005,0.1869702708835057,-0.4563596575754172,-124.94770072590693,-3.438262641755622,-50.36463176877203,-0.1779,-0.8868,-0.03,-0.4255
415,928790.0,849.1026929999999,1.0,7.5,3.69,-5.96,-30.06,-23.19,21.37,6.38,-29.37,-0.25,-0.15288847673865005,0.1869702708835057,-0.4563596575754172,-124.94770072590693,-3.438262641755622,-50.36463176877203,-0.1779,-0.8868,-0.03,-0.4255
416,928827.0,849.1458630000001,1.0,7.42,3.7,-5.85,-29.37,-23.56,22.19,7.44,-27.12,-1.69,0.06972484463371037,0.28881894299681976,-0.3363585312104043,-126.02359896120804,-3.564372225995784,-49.32848435315842,-0.1755,-0.8911,-0.0311,-0.4173
417,928827.0,849.1458630000001,1.0,7.42,3.7,-5.85,-29.37,-23.56,22.19,7.44,-27.12,-1.69,0.06972484463371037,0.28881894299681976,-0.3363585312104043,-126.02359896120804,-3.564372225995784,-49.32848435315842,-0.1755,-0.8911,-0.0311,-0.4173
418,928862.0,849.162794,1.0,7.23,3.57,-5.91,-29.37,-23.56,22.19,11.19,-30.94,-1.75,0.06373650026530847,0.22328440936933716,-0.18794762727177167,-126.91419440082724,-3.610231319265168,-48.485062871877595,-0.1738,-0.8946,-0.0315,-0.4106
419,928862.0,849.162794,1.0,7.23,3.57,-5.91,-29.37,-23.56,22.19,11.19,-30.94,-1.75,0.06373650026530847,0.22328440936933716,-0.18794762727177167,-126.91419440082724,-3.610231319265168,-48.485062871877595,-0.1738,-0.8946,-0.0315,-0.4106
420,928894.0,849.199423,1.0,7.14,3.4,-6.17,-28.87,-22.75,22.56,11.19,-29.87,-2.13,0.03727690386286527,0.05739056571471801,-0.22349540051166272,-128.1324147334415,-3.713416405127687,-47.30643546064212,-0.1712,-0.8993,-0.0324,-0.4012
421,928894.0,849.199423,1.0,7.14,3.4,-6.17,-28.87,-22.75,22.56,11.19,-29.87,-2.13,0.03727690386286527,0.05739056571471801,-0.22349540051166272,-128.1324147334415,-3.713416405127687,-47.30643546064212,-0.1712,-0.8993,-0.0324,-0.4012
422,928931.0,849.252781,1.0,7.0,3.31,-6.1,-27.87,-23.19,23.06,11.63,-28.12,-3.5,0.15146004579217445,0.050383179393415516,-0.04934418576141475,-128.97730409708814,-3.82807003686826,-46.45711770819951,-0.1694,-0.9025,-0.0334,-0.3944
423,928931.0,849.252781,1.0,7.0,3.31,-6.1,-27.87,-23.19,23.06,11.63,-28.12,-3.5,0.15146004579217445,0.050383179393415516,-0.04934418576141475,-128.97730409708814,-3.82807003686826,-46.45711770819951,-0.1694,-0.9025,-0.0334,-0.3944
424,928966.0,849.307559,1.0,6.89,3.22,-6.19,-27.87,-23.19,23.06,10.75,-30.69,-3.69,0.16544782942022496,-0.013336439295144055,0.0021077284236774574,-129.86249210271768,-3.873932556571698,-45.61049316943376,-0.1682,-0.9058,-0.0338,-0.3876
425,928966.0,849.307559,1.0,6.89,3.22,-6.19,-27.87,-23.19,23.06,10.75,-30.69,-3.69,0.16544782942022496,-0.013336439295144055,0.0021077284236774574,-129.86249210271768,-3.873932556571698,-45.61049316943376,-0.1682,-0.9058,-0.0338,-0.3876
426,928999.0,849.3186210000001,1.0,6.58,3.43,-6.11,-26.37,-23.56,22.56,5.38,-31.0,-2.75,0.20432999689738512,0.2996967969506894,0.20134776205530255,-131.09368455172458,-3.908329853329541,-44.345450751183655,-0.1666,-0.9103,-0.0341,-0.3774
427,928999.0,849.3186210000001,1.0,6.58,3.43,-6.11,-26.37,-23.56,22.56,5.38,-31.0,-2.75,0.20432999689738512,0.2996967969506894,0.20134776205530255,-131.09368455172458,-3.908329853329541,-44.345450751183655,-0.1666,-0.9103,-0.0341,-0.3774
428,929034.0,849.3734929999999,1.0,6.58,3.29,-6.41,-26.25,-23.19,23.5,10.31,-27.37,-2.19,0.19297067698320933,0.13185260204844096,0.051959989079218616,-132.2130251212284,-3.919795697049856,-43.24627621237414,-0.1643,-0.9143,-0.0342,-0.3685
429,929034.0,849.3734929999999,1.0,6.58,3.29,-6.41,-26.25,-23.19,23.5,10.31,-27.37,-2.19,0.19297067698320933,0.13185260204844096,0.051959989079218616,-132.2130251212284,-3.919795697049856,-43.24627621237414,-0.1643,-0.9143,-0.0342,-0.3685
430,929071.0,849.3896789999999,1.0,6.49,2.94,-6.58,-24.37,-22.75,23.87,13.44,-29.56,-5.44,0.17652166303828154,-0.19784104479416145,0.11181637463679904,-133.0977829759083,-4.022990071019942,-42.421562810614134,-0.1625,-0.9174,-0.0351,-0.3618
431,929071.0,849.3896789999999,1.0,6.49,2.94,-6.58,-24.37,-22.75,23.87,13.44,-29.56,-5.44,0.17652166303828154,-0.19784104479416145,0.11181637463679904,-133.0977829759083,-4.022990071019942,-42.421562810614134,-0.1625,-0.9174,-0.0351,-0.3618
432,929103.0,849.3940039999999,1.0,6.12,3.15,-6.39,-24.37,-22.75,23.87,4.94,-27.75,-0.25,0.20866333222554104,0.1632348705071256,0.4184225852621619,-134.2337582296838,-4.057388916858228,-41.29285086382844,-0.1602,-0.9213,-0.0354,-0.3526
433,929103.0,849.3940039999999,1.0,6.12,3.15,-6.39,-24.37,-22.75,23.87,4.94,-27.75,-0.25,0.20866333222554104,0.1632348705071256,0.4184225852621619,-134.2337582296838,-4.057388916858228,-41.29285086382844,-0.1602,-0.9213,-0.0354,-0.3526
434,929140.0,849.432225,1.0,6.33,2.98,-6.99,-24.37,-22.37,25.25,14.06,-23.69,-2.19,0.10794522608574242,-0.14917976755735185,-0.08149913040437795,-135.03608676528202,-4.149120969117045,-40.57120935574602,-0.1575,-0.924,-0.0362,-0.3467
435,929140.0,849.432225,1.0,6.33,2.98,-6.99,-24.37,-22.37,25.25,14.06,-23.69,-2.19,0.10794522608574242,-0.14917976755735185,-0.08149913040437795,-135.03608676528202,-4.149120969117045,-40.57120935574602,-0.1575,-0.924,-0.0362,-0.3467
436,929177.0,849.490879,1.0,6.05,3.28,-6.68,-23.69,-22.75,27.25,8.56,-26.19,-3.38,0.2598899337674937,0.30459499099758625,0.22421924816122285,-136.03554234590246,-4.389930414609093,-39.58320288872564,-0.1548,-0.9273,-0.0383,-0.3386
437,929177.0,849.490879,1.0,6.05,3.28,-6.68,-23.69,-22.75,27.25,8.56,-26.19,-3.38,0.2598899337674937,0.30459499099758625,0.22421924816122285,-136.03554234590246,-4.389930414609093,-39.58320288872564,-0.1548,-0.9273,-0.0383,-0.3386
438,929212.0,849.50576,1.0,5.99,3.04,-7.07,-23.69,-22.75,27.25,8.56,-25.5,-1.19,0.09909763330044964,0.012762972341898491,0.054900579223680517,-136.77619735313192,-4.435801047006329,-38.85332219688672,-0.1533,-0.9297,-0.0387,-0.3326
439,929212.0,849.50576,1.0,5.99,3.04,-7.07,-23.69,-22.75,27.25,8.56,-25.5,-1.19,0.09909763330044964,0.012762972341898491,0.054900579223680517,-136.77619735313192,-4.435801047006329,-38.85332219688672,-0.1533,-0.9297,-0.0387,-0.3326
440,929245.0,849.550042,1.0,5.82,3.24,-7.18,-22.5,-22.06,26.5,11.75,-22.5,-2.44,0.05402269768448191,0.24239946253068445,0.0158010047034356,-137.71937015042116,-4.584885551911774,-37.943267133561115,-0.1509,-0.9327,-0.04,-0.3251
441,929245.0,849.550042,1.0,5.82,3.24,-7.18,-22.5,-22.06,26.5,11.75,-22.5,-2.44,0.05402269768448191,0.24239946253068445,0.0158010047034356,-137.71937015042116,-4.584885551911774,-37.943267133561115,-0.1509,-0.9327,-0.04,-0.3251
442,929282.0,849.660739,1.0,5.76,2.75,-7.22,-22.87,-22.06,27.25,11.94,-23.12,-4.19,0.11323303069585705,-0.18840724373756368,0.1723269313424698,-138.42399053309921,-4.733977821845079,-37.26537941343616,-0.1486,-0.9349,-0.0413,-0.3195
443,929282.0,849.660739,1.0,5.76,2.75,-7.22,-22.87,-22.06,27.25,11.94,-23.12,-4.19,0.11323303069585705,-0.18840724373756368,0.1723269313424698,-138.42399053309921,-4.733977821845079,-37.26537941343616,-0.1486,-0.9349,-0.0413,-0.3195
444,929316.0,849.665301,1.0,5.75,2.99,-7.39,-21.75,-22.37,28.06,9.75,-23.06,0.19,0.15365156587695256,0.04567637136651026,-0.02132053645371812,-139.37063539830643,-4.802792327898413,-36.383725666731316,-0.146,-0.9378,-0.0419,-0.3122
445,929316.0,849.665301,1.0,5.75,2.99,-7.39,-21.75,-22.37,28.06,9.75,-23.06,0.19,0.15365156587695256,0.04567637136651026,-0.02132053645371812,-139.37063539830643,-4.802792327898413,-36.383725666731316,-0.146,-0.9378,-0.0419,-0.3122
446,929351.0,849.6768619999999,1.0,5.82,2.88,-7.79,-21.75,-22.37,28.06,12.69,-22.69,-3.06,0.09232943534320696,-0.12612837099202354,-0.3336885993466776,-140.06953899210683,-4.89454770282183,-35.73297808318577,-0.1435,-0.9399,-0.0427,-0.3068
447,929351.0,849.6768619999999,1.0,5.82,2.88,-7.79,-21.75,-22.37,28.06,12.69,-22.69,-3.06,0.09232943534320696,-0.12612837099202354,-0.3336885993466776,-140.06953899210683,-4.89454770282183,-35.73297808318577,-0.1435,-0.9399,-0.0427,-0.3068
448,929388.0,849.7227720000001,1.0,5.54,3.04,-7.74,-21.37,-21.69,29.69,13.0,-23.25,-3.69,0.06363292985227635,0.1342474573284793,-0.18428231237401785,-141.02009032147248,-5.146891353190199,-34.8191192303352,-0.1403,-0.9427,-0.0449,-0.2992
449,929388.0,849.7227720000001,1.0,5.54,3.04,-7.74,-21.37,-21.69,29.69,13.0,-23.25,-3.69,0.06363292985227635,0.1342474573284793,-0.18428231237401785,-141.02009032147248,-5.146891353190199,-34.8191192303352,-0.1403,-0.9427,-0.0449,-0.2992
450,929423.0,849.7401710000001,1.0,5.25,3.05,-7.56,-20.25,-21.69,29.25,11.69,-24.31,-2.69,0.05921503944398735,0.27441915889476265,0.11439599464422125,-141.78287468010964,-5.296015172064578,-34.09926566702287,-0.1378,-0.9449,-0.0462,-0.2932
451,929423.0,849.7401710000001,1.0,5.25,3.05,-7.56,-20.25,-21.69,29.25,11.69,-24.31,-2.69,0.05921503944398735,0.27441915889476265,0.11439599464422125,-141.78287468010964,-5.296015172064578,-34.09926566702287,-0.1378,-0.9449,-0.0462,-0.2932
452,929458.0,849.782547,1.0,5.24,3.2,-7.89,-20.25,-21.69,29.25,8.06,-21.25,-5.06,0.027587953671710668,0.3848192123333039,-0.18338769155209,-142.70368938881398,-5.479564528582773,-33.2133487153414,-0.1351,-0.9475,-0.0478,-0.2858
453,929458.0,849.782547,1.0,5.24,3.2,-7.89,-20.25,-21.69,29.25,8.06,-21.25,-5.06,0.027587953671710668,0.3848192123333039,-0.18338769155209,-142.70368938881398,-5.479564528582773,-33.2133487153414,-0.1351,-0.9475,-0.0478,-0.2858
454,929492.0,849.837102,1.0,5.04,2.79,-8.0,-19.5,-21.25,30.5,13.5,-23.25,-5.88,-0.08134656887207903,0.03105912212875217,-0.051246229250201836,-143.35423456188457,-5.8467059276897535,-32.556220911511176,-0.1325,-0.9493,-0.051,-0.2803
455,929492.0,849.837102,1.0,5.04,2.79,-8.0,-19.5,-21.25,30.5,13.5,-23.25,-5.88,-0.08134656887207903,0.03105912212875217,-0.051246229250201836,-143.35423456188457,-5.8467059276897535,-32.556220911511176,-0.1325,-0.9493,-0.051,-0.2803
456,929529.0,849.8534880000001,1.0,5.16,2.83,-8.14,-18.37,-22.06,30.25,16.25,-22.0,-5.81,0.11547128847607105,0.08671342337000842,-0.23691745204338235,-144.35152835071239,-6.2139074058010815,-31.66190266420909,-0.1279,-0.9520000000000001,-0.0542,-0.2728
457,929529.0,849.8534880000001,1.0,5.16,2.83,-8.14,-18.37,-22.06,30.25,16.25,-22.0,-5.81,0.11547128847607105,0.08671342337000842,-0.23691745204338235,-144.35152835071239,-6.2139074058010815,-31.66190266420909,-0.1279,-0.9520000000000001,-0.0542,-0.2728
458,929564.0,849.8565880000001,1.0,4.81,2.74,-8.02,-18.37,-22.06,30.25,11.0,-23.56,-5.81,0.011424553492674586,0.12481861773262935,0.06250356266415835,-145.10802458844395,-6.3975318623814825,-30.93598315774567,-0.1253,-0.9540000000000001,-0.0558,-0.2667
459,929564.0,849.8565880000001,1.0,4.81,2.74,-8.02,-18.37,-22.06,30.25,11.0,-23.56,-5.81,0.011424553492674586,0.12481861773262935,0.06250356266415835,-145.10802458844395,-6.3975318623814825,-30.93598315774567,-0.1253,-0.9540000000000001,-0.0558,-0.2667
460,929597.0,849.8912619999999,1.0,4.71,2.62,-8.22,-18.37,-21.25,31.0,11.81,-22.19,-7.19,-0.01674197273245555,0.022702156121427786,-0.022699129950387587,-145.9981360073074,-6.707435672786218,-30.021467926252928,-0.1224,-0.9563,-0.0585,-0.259
461,929597.0,849.8912619999999,1.0,4.71,2.62,-8.22,-18.37,-21.25,31.0,11.81,-22.19,-7.19,-0.01674197273245555,0.022702156121427786,-0.022699129950387587,-145.9981360073074,-6.707435672786218,-30.021467926252928,-0.1224,-0.9563,-0.0585,-0.259
462,929632.0,849.9545410000001,1.0,4.65,2.43,-8.28,-17.25,-20.87,32.19,14.31,-23.94,-5.5,0.01921285739508534,-0.12570370250364227,0.005138410184498454,-146.67085725236174,-7.063311874799694,-29.33390567781849,-0.1195,-0.958,-0.0616,-0.2532
463,929632.0,849.9545410000001,1.0,4.65,2.43,-8.28,-17.25,-20.87,32.19,14.31,-23.94,-5.5,0.01921285739508534,-0.12570370250364227,0.005138410184498454,-146.67085725236174,-7.063311874799694,-29.33390567781849,-0.1195,-0.958,-0.0616,-0.2532
464,929667.0,850.0207330000001,1.0,4.4,2.53,-8.12,-17.25,-20.87,32.19,10.94,-21.69,-6.38,0.04902009003991867,0.08669298143981119,0.2314016294488965,-147.52054122823532,-7.465189762811248,-28.446410631571,-0.1162,-0.9601,-0.0651,-0.2457
465,929667.0,850.0207330000001,1.0,4.4,2.53,-8.12,-17.25,-20.87,32.19,10.94,-21.69,-6.38,0.04902009003991867,0.08669298143981119,0.2314016294488965,-147.52054122823532,-7.465189762811248,-28.446410631571,-0.1162,-0.9601,-0.0651,-0.2457
466,929701.0,850.0335039999999,1.0,4.52,2.42,-8.52,-16.19,-20.56,32.19,11.94,-19.69,-6.31,0.06434874979880692,-0.0873097287971909,-0.1364599888141953,-148.14094650942238,-7.660420468145224,-27.832105272694303,-0.114,-0.9616,-0.0668,-0.2405
467,929701.0,850.0335039999999,1.0,4.52,2.42,-8.52,-16.19,-20.56,32.19,11.94,-19.69,-6.31,0.06434874979880692,-0.0873097287971909,-0.1364599888141953,-148.14094650942238,-7.660420468145224,-27.832105272694303,-0.114,-0.9616,-0.0668,-0.2405
468,929736.0,850.042699,1.0,4.29,2.17,-8.28,-16.19,-20.19,33.0,12.19,-24.0,-5.63,0.12177441368659872,-0.1992429248793284,0.2349796520901446,-149.0298356031949,-7.982025743589274,-26.912168656137837,-0.1107,-0.9637,-0.0696,-0.2327
469,929736.0,850.042699,1.0,4.29,2.17,-8.28,-16.19,-20.19,33.0,12.19,-24.0,-5.63,0.12177441368659872,-0.1992429248793284,0.2349796520901446,-149.0298356031949,-7.982025743589274,-26.912168656137837,-0.1107,-0.9637,-0.0696,-0.2327
470,929773.0,850.0827949999999,1.0,3.94,2.18,-8.22,-14.69,-20.19,32.56,9.63,-18.62,-5.81,-0.054895022117139716,-0.09409681995277808,0.4347487881315413,-149.59279181341395,-8.280715556970401,-26.32339770363258,-0.1088,-0.965,-0.0722,-0.2277
471,929773.0,850.0827949999999,1.0,3.94,2.18,-8.22,-14.69,-20.19,32.56,9.63,-18.62,-5.81,-0.054895022117139716,-0.09409681995277808,0.4347487881315413,-149.59279181341395,-8.280715556970401,-26.32339770363258,-0.1088,-0.965,-0.0722,-0.2277
472,929806.0,850.1461949999999,1.0,4.02,2.1,-8.5,-14.69,-20.19,32.56,11.5,-17.5,-4.38,0.012299777827826895,-0.1967232092957784,0.17433207052997268,-150.29995438645182,-8.476043091817116,-25.58255007875368,-0.106,-0.9666,-0.0739,-0.2214
473,929806.0,850.1461949999999,1.0,4.02,2.1,-8.5,-14.69,-20.19,32.56,11.5,-17.5,-4.38,0.012299777827826895,-0.1967232092957784,0.17433207052997268,-150.29995438645182,-8.476043091817116,-25.58255007875368,-0.106,-0.9666,-0.0739,-0.2214
474,929843.0,850.164166,1.0,3.75,2.03,-8.42,-14.19,-20.19,32.56,6.31,-16.69,-5.06,-0.1097426859397252,-0.1803853509722073,0.3708025198826253,-150.79583135983617,-8.659903302137069,-25.065778823031927,-0.1044,-0.9677,-0.0755,-0.217
475,929843.0,850.164166,1.0,3.75,2.03,-8.42,-14.19,-20.19,32.56,6.31,-16.69,-5.06,-0.1097426859397252,-0.1803853509722073,0.3708025198826253,-150.79583135983617,-8.659903302137069,-25.065778823031927,-0.1044,-0.9677,-0.0755,-0.217
476,929880.0,850.2027449999999,1.0,3.7,2.08,-8.45,-13.75,-19.75,33.38,8.06,-13.88,-3.94,-0.05686424079839195,-0.10411657737071857,0.3512374655605335,-151.34635737161238,-8.843785851491393,-24.45571546342066,-0.1025,-0.9689,-0.0771,-0.2118
477,929880.0,850.2027449999999,1.0,3.7,2.08,-8.45,-13.75,-19.75,33.38,8.06,-13.88,-3.94,-0.05686424079839195,-0.10411657737071857,0.3512374655605335,-151.34635737161238,-8.843785851491393,-24.45571546342066,-0.1025,-0.9689,-0.0771,-0.2118
478,929912.0,850.2656810000001,1.0,3.58,1.95,-8.48,-13.75,-19.75,33.38,4.69,-12.19,-3.0,-0.12050532576457762,-0.1915908447254888,0.4003717022522793,-151.71920090048613,-8.95872400294449,-24.04549296367276,-0.10099999999999999,-0.9697,-0.0781,-0.2083
479,929912.0,850.2656810000001,1.0,3.58,1.95,-8.48,-13.75,-19.75,33.38,4.69,-12.19,-3.0,-0.12050532576457762,-0.1915908447254888,0.4003717022522793,-151.71920090048613,-8.95872400294449,-24.04549296367276,-0.10099999999999999,-0.9697,-0.0781,-0.2083
480,929947.0,850.272844,1.0,3.56,1.79,-8.57,-12.69,-20.19,34.69,7.56,-10.25,-1.19,-0.11892164143844595,-0.3327139578265821,0.3621934743197084,-152.09692309623645,-9.22311622194562,-23.62387580431868,-0.099,-0.9705,-0.0804,-0.2047
481,929947.0,850.272844,1.0,3.56,1.79,-8.57,-12.69,-20.19,34.69,7.56,-10.25,-1.19,-0.11892164143844595,-0.3327139578265821,0.3621934743197084,-152.09692309623645,-9.22311622194562,-23.62387580431868,-0.099,-0.9705,-0.0804,-0.2047
482,929982.0,850.290494,1.0,3.44,2.29,-8.34,-11.56,-19.06,33.38,0.31,-7.44,-1.37,-0.03259386287098888,0.2071565401343813,0.5013115425346992,-152.23986727877062,-9.441564242690683,-23.38978453262475,-0.0987,-0.9708,-0.0823,-0.2027
483,929982.0,850.290494,1.0,3.44,2.29,-8.34,-11.56,-19.06,33.38,0.31,-7.44,-1.37,-0.03259386287098888,0.2071565401343813,0.5013115425346992,-152.23986727877062,-9.441564242690683,-23.38978453262475,-0.0987,-0.9708,-0.0823,-0.2027
484,930019.0,850.331092,1.0,3.99,1.97,-9.05,-11.56,-19.75,34.0,7.94,-5.44,-2.63,0.17980344317053248,-0.3039599053330171,-0.2719798224398549,-152.3835367338065,-9.706047414595153,-23.16748949044666,-0.09699999999999999,-0.9711,-0.0846,-0.2008
485,930019.0,850.331092,1.0,3.99,1.97,-9.05,-11.56,-19.75,34.0,7.94,-5.44,-2.63,0.17980344317053248,-0.3039599053330171,-0.2719798224398549,-152.3835367338065,-9.706047414595153,-23.16748949044666,-0.09699999999999999,-0.9711,-0.0846,-0.2008
486,930052.0,850.349085,1.0,4.0,2.35,-9.16,-11.56,-19.75,34.0,3.5,-6.19,0.5,0.2327600383229155,0.054132253073992935,-0.458387382481229,-152.62462859250314,-9.706047414595153,-22.945282804181343,-0.0964,-0.9716,-0.0846,-0.1989
487,930052.0,850.349085,1.0,4.0,2.35,-9.16,-11.56,-19.75,34.0,3.5,-6.19,0.5,0.2327600383229155,0.054132253073992935,-0.458387382481229,-152.62462859250314,-9.706047414595153,-22.945282804181343,-0.0964,-0.9716,-0.0846,-0.1989
488,930086.0,850.392317,1.0,3.99,2.32,-9.22,-11.88,-19.06,34.75,4.0,-10.5,-0.56,0.26379410186039604,0.03513728136659533,-0.5006327672127977,-152.91671705681662,-9.878564278366849,-22.59460775363036,-0.095,-0.9722,-0.0861,-0.1959
489,930086.0,850.392317,1.0,3.99,2.32,-9.22,-11.88,-19.06,34.75,4.0,-10.5,-0.56,0.26379410186039604,0.03513728136659533,-0.5006327672127977,-152.91671705681662,-9.878564278366849,-22.59460775363036,-0.095,-0.9722,-0.0861,-0.1959
490,930123.0,850.454452,1.0,4.0,2.54,-9.27,-11.88,-19.06,34.38,6.19,-9.13,0.5,0.333833228137188,0.25666281544167835,-0.5956180014966499,-153.1625065187994,-9.947577287046574,-22.325902171258928,-0.0938,-0.9727,-0.0867,-0.1936
491,930123.0,850.454452,1.0,4.0,2.54,-9.27,-11.88,-19.06,34.38,6.19,-9.13,0.5,0.333833228137188,0.25666281544167835,-0.5956180014966499,-153.1625065187994,-9.947577287046574,-22.325902171258928,-0.0938,-0.9727,-0.0867,-0.1936
492,930156.0,850.5114269999999,1.0,4.04,2.48,-9.5,-11.88,-19.06,34.38,9.19,-13.13,-0.12,0.3659489228631488,0.199420313278764,-0.8022289664368945,-153.71118144535646,-9.970582425862727,-21.847212431989455,-0.0914,-0.9738,-0.0869,-0.1895
493,930156.0,850.5114269999999,1.0,4.04,2.48,-9.5,-11.88,-19.06,34.38,9.19,-13.13,-0.12,0.3659489228631488,0.199420313278764,-0.8022289664368945,-153.71118144535646,-9.970582425862727,-21.847212431989455,-0.0914,-0.9738,-0.0869,-0.1895
494,930193.0,850.518661,1.0,4.07,2.65,-9.91,-11.19,-19.37,34.25,9.69,-17.37,-3.75,0.35691977588358315,0.3256607549893924,-1.2188682801645625,-154.0662728728033,-10.14313387414705,-21.368908312577144,-0.0895,-0.9745,-0.0884,-0.1854
495,930193.0,850.518661,1.0,4.07,2.65,-9.91,-11.19,-19.37,34.25,9.69,-17.37,-3.75,0.35691977588358315,0.3256607549893924,-1.2188682801645625,-154.0662728728033,-10.14313387414705,-21.368908312577144,-0.0895,-0.9745,-0.0884,-0.1854
496,930230.0,850.577677,1.0,3.46,2.18,-9.23,-11.19,-20.19,35.69,11.06,-22.31,-6.31,0.1540331354822439,0.1360381981948251,-0.2866481429166843,-154.84376268843482,-10.453784866884499,-20.49492914898236,-0.0862,-0.976,-0.0911,-0.1779
497,930230.0,850.577677,1.0,3.46,2.18,-9.23,-11.19,-20.19,35.69,11.06,-22.31,-6.31,0.1540331354822439,0.1360381981948251,-0.2866481429166843,-154.84376268843482,-10.453784866884499,-20.49492914898236,-0.0862,-0.976,-0.0911,-0.1779
498,930263.0,850.5851849999999,1.0,3.13,1.96,-9.15,-11.19,-20.19,35.69,9.44,-22.94,-3.81,-0.027670115119948643,0.027859758414984448,-0.060439651897885575,-155.4292933262199,-10.603384906468607,-19.796614956633128,-0.0842,-0.9771,-0.0924,-0.1719
499,930263.0,850.5851849999999,1.0,3.13,1.96,-9.15,-11.19,-20.19,35.69,9.44,-22.94,-3.81,-0.027670115119948643,0.027859758414984448,-0.060439651897885575,-155.4292933262199,-10.603384906468607,-19.796614956633128,-0.0842,-0.9771,-0.0924,-0.1719
500,930297.0,850.5976890000001,1.0,3.1,1.88,-9.14,-10.06,-18.69,35.06,11.81,-20.44,-4.31,0.08839977984644172,-0.004154929521831496,-0.025753989639756725,-156.13951067883625,-10.902639624835572,-18.959614614971002,-0.0812,-0.9784,-0.095,-0.1647
501,930297.0,850.5976890000001,1.0,3.1,1.88,-9.14,-10.06,-18.69,35.06,11.81,-20.44,-4.31,0.08839977984644172,-0.004154929521831496,-0.025753989639756725,-156.13951067883625,-10.902639624835572,-18.959614614971002,-0.0812,-0.9784,-0.095,-0.1647
502,930332.0,850.637822,1.0,3.03,1.41,-9.31,-8.88,-18.25,35.88,17.94,-22.94,-6.81,0.004711291874029931,-0.42604203723828415,-0.07583784397100858,-156.58711361479934,-11.30560069930953,-18.344143604670897,-0.0781,-0.9792,-0.0985,-0.1594
503,930332.0,850.637822,1.0,3.03,1.41,-9.31,-8.88,-18.25,35.88,17.94,-22.94,-6.81,0.004711291874029931,-0.42604203723828415,-0.07583784397100858,-156.58711361479934,-11.30560069930953,-18.344143604670897,-0.0781,-0.9792,-0.0985,-0.1594
504,930369.0,850.697561,1.0,2.47,1.59,-9.05,-8.56,-18.25,36.0,7.0,-21.69,-6.5,-0.23929462703967766,-0.0728718870388193,0.29513446515754005,-157.21671751944734,-11.674144907935558,-17.416134643761747,-0.0756,-0.9803,-0.1017,-0.1514
505,930369.0,850.697561,1.0,2.47,1.59,-9.05,-8.56,-18.25,36.0,7.0,-21.69,-6.5,-0.23929462703967766,-0.0728718870388193,0.29513446515754005,-157.21671751944734,-11.674144907935558,-17.416134643761747,-0.0756,-0.9803,-0.1017,-0.1514
506,930404.0,850.714323,1.0,2.3,1.22,-8.71,-8.56,-18.25,36.0,10.94,-19.37,-1.63,-0.25025501564251684,-0.32726917986030296,0.7251981716269977,-157.74491268375093,-11.789339646395064,-16.767216307875252,-0.0735,-0.9812,-0.1027,-0.1458
507,930404.0,850.714323,1.0,2.3,1.22,-8.71,-8.56,-18.25,36.0,10.94,-19.37,-1.63,-0.25025501564251684,-0.32726917986030296,0.7251981716269977,-157.74491268375093,-11.789339646395064,-16.767216307875252,-0.0735,-0.9812,-0.1027,-0.1458
508,930441.0,850.752474,1.0,2.35,1.48,-9.22,-7.06,-18.25,36.5,11.44,-15.56,-6.69,-0.1953503571371079,-0.12556296633232975,0.18026063640929732,-158.28578665640208,-11.916067673936475,-16.10726571114575,-0.0718,-0.9821,-0.1038,-0.1401
509,930441.0,850.752474,1.0,2.35,1.48,-9.22,-7.06,-18.25,36.5,11.44,-15.56,-6.69,-0.1953503571371079,-0.12556296633232975,0.18026063640929732,-158.28578665640208,-11.916067673936475,-16.10726571114575,-0.0718,-0.9821,-0.1038,-0.1401
510,930476.0,850.808696,1.0,2.09,1.24,-8.93,-6.25,-18.25,36.06,-0.88,-13.06,-1.5,-0.3263837156873142,-0.2555020214093696,0.5611758430305542,-158.5921035424659,-12.00824269100582,-15.667598608855753,-0.0707,-0.9826,-0.1046,-0.1363
