TIME,ELAPSED_SECONDS,PSTATE,acc_x,acc_y,acc_z,mag_x,mag_y,mag_z,gyr_x,gyr_y,gyr_z,lin_x,lin_y,lin_z,eul_x,eul_y,eul_z,qua_w,qua_x,qua_y,qua_z
412502.0,377.538364,1.0,-1.46,1.86,-9.5,11.38,-26.56,39.88,-4.19,-3.81,0.5,0.16786465056361788,-0.035328232336623286,0.018301141531013698,-160.12726585571855,-13.39183842112712,8.269226458088283,-0.1046,-0.985,-0.1166,0.0721
412536.0,377.549337,1.0,-1.55,1.55,-9.43,11.38,-26.56,39.88,-2.94,0.0,0.75,-2.6200462185377305e-05,-0.30164657353902274,0.12993003174703688,-160.12726585571855,-13.368762981498051,8.29220473923879,-0.1049,-0.985,-0.1164,0.0723
412573.0,377.551329,1.0,-1.4,1.79,-9.81,12.19,-27.0,40.19,-0.31,1.06,0.56,0.23353328331546852,-0.20927911708800817,-0.25823273437573313,-160.0609663655873,-13.357225465957494,8.22327089407658,-0.1059,-0.9849,-0.1163,0.0717
412608.0,377.554321,1.0,-1.38,1.61,-9.57,11.75,-27.75,40.19,-2.5,-0.88,1.94,0.1808193881202429,-0.324989530177137,0.01159583199485148,-160.12726585571855,-13.311076762780564,8.22327089407658,-0.1056,-0.985,-0.1159,0.0717
412643.0,377.557314,1.0,-1.19,1.63,-9.86,11.75,-27.75,40.19,-2.75,-1.81,1.25,0.3804186418739206,-0.42354970548327825,-0.24165768358034612,-160.12726585571855,-13.264930228136947,8.108387763620353,-0.1063,-0.985,-0.1155,0.0707
412678.0,377.561336,1.0,-1.51,1.51,-9.61,11.75,-27.37,39.38,-0.25,-1.25,0.25,0.016728217810505153,-0.4253987378636831,-0.028544765766099545,-160.12726585571855,-13.253393932396618,8.1313637329408,-0.1069,-0.985,-0.1154,0.0709
412712.0,377.563664,1.0,-1.49,1.47,-9.45,12.19,-27.75,39.38,-5.06,-1.19,3.19,0.008743495424447856,-0.436059997974675,0.13745793295251296,-160.12726585571855,-13.195714475135587,8.142851840335263,-0.1071,-0.985,-0.1149,0.071
412747.0,377.58767,1.0,-1.46,1.8,-9.49,12.19,-27.75,39.38,-1.5,1.88,2.75,0.11178059439220167,-0.1509442286422094,0.039540860722556914,-160.12726585571855,-13.138038375794714,8.096899901459961,-0.1078,-0.985,-0.1144,0.0706
412782.0,377.592252,1.0,-1.26,1.87,-9.97,11.06,-27.75,39.06,-0.44,1.19,0.56,0.35752156252306505,-0.2485791343384025,-0.40588086880537766,-160.19378503937318,-13.080365619179066,8.004999928704901,-0.1085,-0.9851,-0.1139,0.0698
412817.0,377.604584,1.0,-1.42,1.73,-9.61,11.75,-27.37,39.06,-1.37,0.25,2.63,0.12470502279839069,-0.2653878372593458,-0.056180118841330895,-160.19378503937318,-13.04576356339961,7.982025743589274,-0.1085,-0.9851,-0.1136,0.0696
412852.0,377.65339,1.0,-1.38,1.66,-9.83,11.06,-27.37,40.19,-6.19,-2.31,3.31,0.1587060181562725,-0.3964635280149104,-0.24852424367946924,-160.32749140960402,-12.907367253850758,7.924591684679524,-0.1088,-0.9853,-0.1124,0.0691
412887.0,377.670347,1.0,-1.57,2.06,-9.58,11.06,-27.37,40.19,-1.19,0.0,1.25,0.04223596534045537,0.05588799019210282,-0.11705861401039286,-160.26052613773837,-12.849707716341905,7.947565068163919,-0.11,-0.9852,-0.1119,0.0693
412923.0,377.772727,1.0,-1.38,2.02,-9.9,11.38,-27.37,40.56,-3.13,1.31,2.44,0.2365925679883878,-0.09422426265568197,-0.3879537561594155,-160.32749140960402,-12.780520582262026,7.867159619602529,-0.11,-0.9853,-0.1113,0.0686
412958.0,377.781752,1.0,-1.38,2.13,-9.98,11.06,-26.56,39.06,-2.19,-1.5,2.25,0.2647743028769225,-0.01615422945618801,-0.4875878838555483,-160.3946831522595,-12.711338126294772,7.844187348567063,-0.1104,-0.9854,-0.1107,0.0684
412991.0,377.78862,1.0,-1.9,2.62,-9.59,11.06,-26.56,39.06,-9.69,-6.25,-0.94,-0.1383495201909749,0.5932578129189631,-0.29638937326157055,-160.12726585571855,-12.67674864442774,8.039461810968866,-0.1128,-0.985,-0.1104,0.0701
413026.0,377.808695,1.0,-1.85,3.65,-9.62,11.06,-27.37,39.06,-16.56,-7.31,-3.25,0.17582662379925407,1.4814857942692243,-0.5405082978005034,-159.73268910086296,-12.722868211864098,8.188805090876484,-0.1162,-0.9844,-0.1108,0.0714
413063.0,377.879893,1.0,-1.64,3.95,-9.29,12.19,-28.5,39.38,-8.94,-10.63,-13.44,0.4776123428481098,1.739029191555885,-0.2603189540037647,-159.15467994543425,-13.126503557539667,8.487533709607298,-0.1192,-0.9835,-0.1143,0.074
413097.0,377.921752,1.0,-2.02,4.03,-7.82,12.19,-28.5,39.38,8.75,-11.56,-20.56,0.049853381349824866,2.2767896526489935,1.0723816552582086,-158.71585002764485,-13.622622983127282,8.912747665103911,-0.1182,-0.9828,-0.1186,0.0777
413132.0,377.92574,1.0,-2.36,4.25,-6.64,11.38,-28.06,39.0,31.06,5.56,-29.94,-0.2566666164664688,2.9654581337050474,2.1345003465303645,-158.46906001766973,-14.534774284595127,9.246109154854068,-0.1113,-0.9824,-0.1265,0.0806
413167.0,377.976115,1.0,-1.58,2.13,-7.19,13.25,-28.5,39.06,51.06,21.94,-39.56,0.021738333635642815,0.8590547948748056,2.1914709276305677,-158.65388815245834,-15.551935573755918,9.06217605835773,-0.0986,-0.9827,-0.1353,0.079
413204.0,378.018814,1.0,-0.79,1.27,-8.07,14.06,-25.87,40.69,41.81,30.94,-43.94,0.5931302078014056,-0.056504530161659336,1.6208755226115201,-158.5921035424659,-17.26544349477142,8.303694005010767,-0.082,-0.9826,-0.1501,0.0724
413239.0,378.049851,1.0,-0.66,0.84,-7.97,14.06,-25.87,40.69,36.06,29.25,-39.25,0.5127676960707629,-0.22158627178365717,1.784800536564319,-158.2857866564021,-18.820214993044136,7.534092210574165,-0.0667,-0.9821,-0.1635,0.0657
413276.0,378.068915,1.0,-0.37,-0.04,-8.88,12.88,-24.75,41.38,41.63,39.38,-35.06,0.5053252493125223,-1.0314760921201993,0.9933870705401215,-158.1040290229696,-19.831512813718547,6.764830589593756,-0.0537,-0.9818,-0.1722,0.059
413310.0,378.111833,1.0,-0.39,-0.35,-8.64,12.88,-22.87,42.19,29.12,41.44,-36.25,0.19271819899773962,-1.0262313896253745,1.2139840091259995,-157.508647592303,-21.263965423591053,5.491036825631306,-0.0406,-0.9808,-0.1845,0.0479
413345.0,378.147513,1.0,-0.12,-0.14,-8.69,12.88,-22.87,42.19,30.06,49.94,-35.63,0.36637645207375386,-0.7302982779055999,1.1531805963068233,-156.98580474112185,-22.337582426465428,4.263789782102698,-0.0306,-0.9799,-0.1937,0.0372
413380.0,378.173455,1.0,0.65,-0.96,-9.67,12.19,-21.75,43.5,31.5,55.63,-30.06,0.5535018707345006,-1.5303496313720113,0.20432394404600807,-156.19500732541923,-23.577049581358693,2.4639083675369537,-0.0162,-0.9785,-0.2043,0.0215
413415.0,378.245616,1.0,0.61,-0.91,-9.34,9.88,-20.25,45.0,13.38,52.88,-29.31,0.31918599396073666,-1.2930593373651758,0.4974116932795205,-155.6456486519571,-24.279867169785643,1.100095864564908,-0.0096,-0.9775,-0.2103,0.0096
413452.0,378.289497,1.0,1.47,-1.43,-10.13,9.88,-20.25,45.0,6.88,56.81,-23.69,0.5400702443759553,-1.9407373346693404,-0.33063576735214006,-154.73873772257048,-25.2653784326321,-0.9625804159917916,-0.0029,-0.9758,-0.2187,-0.0084
413485.0,378.341357,1.0,1.44,-1.05,-9.87,8.75,-17.69,45.75,-4.75,53.31,-20.75,0.40806829710740145,-1.5052891031677396,-0.10095238305819265,-154.0152535944028,-25.88816308640127,-2.509755787270372,-0.0015,-0.9744,-0.224,-0.0219
413521.0,378.44109,1.0,2.06,-1.32,-10.04,7.69,-19.06,45.5,-5.5,54.5,-13.19,0.4693356005265019,-1.90457799951183,-0.33928055061259066,-153.1625065187994,-26.452866060028953,-4.596353909147253,0.0005,-0.9727,-0.2288,-0.0401
413556.0,378.535837,1.0,2.13,-1.93,-9.61,5.06,-18.06,45.75,-7.19,56.38,-6.63,0.02316597365138917,-2.4385997043336154,0.07697401260510617,-152.62462859250314,-26.641245110498456,-6.168003805570945,0.0001,-0.9716,-0.2304,-0.0538
413591.0,378.547835,1.0,2.5,-2.5,-10.6,5.06,-18.06,45.75,-11.94,62.69,4.13,-0.43494825101524914,-2.9744900451405254,-0.9554700973738743,-152.09692309623645,-26.499953978465857,-8.556479215940191,0.0006,-0.9705,-0.2292,-0.0746
413626.0,378.551824,1.0,3.51,-1.98,-11.73,2.5,-18.75,46.69,-27.25,55.19,24.62,0.18559770347026694,-2.8748797960750494,-2.2570981592822577,-152.23986727877065,-25.67656503656709,-10.361732200036482,-0.002,-0.9708,-0.2222,-0.0903
413663.0,378.555812,1.0,3.5,-1.99,-11.11,0.25,-19.5,46.69,-34.13,46.44,35.63,-0.06854732730651714,-2.919654027152172,-1.6438138170535836,-152.67309729035,-24.24470448957822,-12.400074265032764,-0.0081,-0.9717,-0.21,-0.108
413698.0,378.560774,1.0,3.11,-1.0,-11.85,0.25,-19.5,46.69,-40.5,45.69,55.13,-0.45377639075473386,-1.7862977886315425,-2.346449489328787,-153.21193002249612,-22.68809999960854,-13.96890425008599,-0.0101,-0.9728,-0.1967,-0.1216
413732.0,378.564789,1.0,3.8,0.29,-12.64,-2.38,-19.06,45.88,-45.88,38.31,67.06,0.039608570789441355,-0.908285859911388,-3.364042766813945,-154.3228637180319,-19.947852442498814,-15.852692930840096,-0.0195,-0.975,-0.1732,-0.1379
413767.0,378.569777,1.0,3.51,0.83,-12.93,-6.0,-21.37,44.19,-42.13,5.06,68.37,-0.3141131836720521,-0.4109043700953263,-3.607014320627677,-155.59138277018496,-17.485694626999514,-16.59349169701811,-0.0276,-0.9774,-0.152,-0.1443
413804.0,378.608671,1.0,2.83,1.91,-12.2,-7.06,-21.0,43.19,-42.44,-16.25,76.56,-0.46914519062406246,0.5981437629532474,-2.839263443834515,-157.62647223808008,-14.38461134345722,-16.43138337904295,-0.0399,-0.981,-0.1252,-0.1429
413839.0,378.718464,1.0,2.99,3.34,-12.35,-7.06,-21.0,43.19,-37.06,-28.37,75.06,-0.02659399913518179,1.7640007606033463,-3.2127890845305167,-159.79792218460952,-11.259541000283246,-15.725436142775802,-0.0497,-0.9845,-0.0981,-0.1368
413876.0,378.730431,1.0,2.59,4.45,-11.71,-7.88,-22.87,41.5,-31.0,-56.81,59.13,0.09773728501161982,2.8246724660850413,-2.6691815507408005,-161.5740259283265,-9.22311622194562,-14.46546520944767,-0.0574,-0.9871,-0.0804,-0.1259
413911.0,378.741403,1.0,2.23,3.54,-11.15,-7.88,-23.25,40.0,-7.5,-63.19,48.5,0.01541937640513269,1.9724404226681542,-1.9379760486171271,-163.53886738912243,-7.557060298129735,-12.815113562902273,-0.0613,-0.9897,-0.0659,-0.1116
413945.0,378.75383,1.0,1.53,4.34,-9.85,-7.88,-23.25,40.0,-11.06,-65.75,37.63,0.042968195797676745,2.948912460526716,-0.6576258485382169,-166.05072408085044,-5.7319679651977244,-10.396251161173769,-0.0641,-0.9926,-0.05,-0.0906
413980.0,378.854673,1.0,1.33,3.92,-9.24,-6.56,-23.69,42.0,3.06,-59.06,16.31,0.25315310412623304,2.621071402064344,0.03020902124133329,-167.97602060615887,-4.860139072417077,-8.1313637329408,-0.0644,-0.9945,-0.0424,-0.0709
414015.0,378.866025,1.0,0.93,3.44,-8.51,-5.06,-24.0,42.0,-3.94,-57.38,-0.88,0.16929075348277917,2.2569385057315503,0.8625922395575127,-169.0045461043646,-4.6766337060034004,-6.5008278159272015,-0.0649,-0.9954,-0.0408,-0.0567
414052.0,378.878992,1.0,0.24,3.35,-7.69,-5.06,-24.0,42.0,-4.5,-52.44,-9.06,-0.12847446943191862,2.2833730776031276,1.732871349381604,-169.8762554971796,-4.8486696265391345,-4.401398006442045,-0.0671,-0.9961,-0.0423,-0.0384
414085.0,378.985713,1.0,-0.07,3.39,-7.31,-3.25,-22.87,41.5,1.81,-36.69,-23.62,-0.21695010179465138,2.380614244218779,2.1112807123339463,-170.0069733247971,-5.318958088351593,-3.163128706652845,-0.0679,-0.9962,-0.0464,-0.0276
414119.0,379.001834,1.0,0.12,2.65,-6.89,-1.37,-24.75,41.56,5.13,-16.12,-34.13,0.08809996629835366,1.6969855945260777,2.6218411446504577,-169.7471998361046,-6.512305468988995,-2.269061145645111,-0.0666,-0.996,-0.0568,-0.0198
414156.0,379.114368,1.0,-0.25,1.97,-7.35,0.37,-24.37,42.38,14.56,-10.88,-38.56,-0.2823322470510583,1.0470460395691772,2.2707437443929406,-169.24641346971597,-7.602997386301145,-1.7877008349543104,-0.0641,-0.9956,-0.0663,-0.0156
414191.0,379.125375,1.0,-0.01,1.85,-7.99,0.37,-24.37,42.38,12.75,-0.5,-41.38,-0.00983517314894869,0.8730766102958024,1.6518759073642322,-168.4218955829601,-9.188627520029689,-1.5470330404085568,-0.0603,-0.9949,-0.0801,-0.0135
414226.0,379.226674,1.0,0.52,0.77,-9.03,2.25,-24.75,42.0,17.19,7.0,-45.88,0.30316615780253103,-0.32024663423435906,0.7396917242591847,-167.54604215985927,-10.568860221135683,-1.627254827906764,-0.0557,-0.9941,-0.0921,-0.0142
414263.0,379.238032,1.0,0.63,0.28,-9.18,2.69,-23.56,43.19,19.44,10.56,-43.88,0.27846924128733064,-0.7261151320738506,0.633705451130739,-166.33674754112943,-12.365495103087909,-1.8793858210517667,-0.0491,-0.9929,-0.1077,-0.0164
414298.0,379.250004,1.0,0.76,0.43,-9.15,2.69,-23.56,43.19,12.06,12.19,-40.88,0.40124053486202893,-0.5580050706507831,0.6408092652767703,-165.3150738387374,-13.588001782657653,-2.1315259137202647,-0.046,-0.9918,-0.1183,-0.0186
414330.0,379.352724,1.0,1.02,-0.29,-9.57,3.38,-22.87,44.0,16.37,16.12,-39.06,0.3619854846643341,-1.2289404081562285,0.26369071149346546,-163.9440511277747,-15.170359975770202,-2.704611892754087,-0.0391,-0.9902,-0.132,-0.0236
414367.0,379.367685,1.0,0.82,-0.38,-9.45,3.38,-22.87,43.56,0.88,9.63,-31.0,0.09526446106616282,-1.2361957975467885,0.3948465260325662,-163.06535294380294,-16.10726571114575,-2.9797163137078666,-0.0381,-0.9891,-0.1401,-0.026
414402.0,379.381246,1.0,1.03,-0.43,-9.66,3.06,-22.5,43.56,-0.25,17.44,-26.12,0.16503863808870423,-1.311919754097883,0.1726981210073717,-162.00854277151578,-17.172725448331995,-3.5299782811888885,-0.0359,-0.9877,-0.1493,-0.0308
414437.0,379.491397,1.0,1.05,-0.03,-9.68,3.06,-22.5,43.56,-0.5,18.62,-20.87,0.2057134961960434,-0.9186613744486273,0.1154404141650609,-161.21954183361512,-17.85679155473376,-4.057388916858228,-0.0352,-0.9866,-0.1552,-0.0354
414474.0,379.542219,1.0,0.86,0.38,-9.44,3.06,-22.5,44.38,0.63,14.38,-14.13,0.0860115895078945,-0.4421399313716481,0.33064270327649936,-160.52975543717122,-18.49505809550988,-4.561948975165956,-0.0348,-0.9856,-0.1607,-0.0398
414509.0,379.619013,1.0,0.82,0.8,-9.48,3.38,-22.5,44.0,1.31,22.19,-15.06,0.09348607153475003,-0.013406995888102721,0.25814851511294634,-159.99488438452414,-18.936379383880695,-5.089538374458754,-0.0342,-0.9848,-0.1645,-0.0444
414541.0,379.687841,1.0,1.39,0.86,-10.21,3.38,-22.5,44.0,-0.31,23.12,-17.94,0.43078893147912045,-0.14067000139334418,-0.5234241936940158,-159.15467994543425,-19.63378275290543,-5.949975106955118,-0.0328,-0.9835,-0.1705,-0.0519
414578.0,379.864358,1.0,1.56,0.62,-10.61,3.06,-22.87,44.0,-0.56,14.0,-13.38,0.3863302603936277,-0.41795252265904914,-0.9202397924191956,-158.5921035424659,-20.075850034388896,-6.386054856968827,-0.0319,-0.9826,-0.1743,-0.0557
414615.0,379.985034,1.0,1.17,0.59,-10.05,1.56,-22.87,44.75,5.0,9.19,-10.56,0.03355164314408443,-0.24772380329771035,-0.32532943170642703,-158.22503424547796,-20.40177671287519,-6.684478178549482,-0.0302,-0.982,-0.1771,-0.0583
414648.0,380.029958,1.0,1.17,0.65,-10.12,1.56,-22.87,44.75,-5.44,9.75,-10.25,-0.0035980370546512264,-0.1929678608120207,-0.39964954777063255,-157.863978815261,-20.681275164117206,-6.959986103018455,-0.0304,-0.9814,-0.1795,-0.0607
