TIME,ELAPSED_SECONDS,PSTATE,acc_x,acc_y,acc_z,mag_x,mag_y,mag_z,gyr_x,gyr_y,gyr_z,lin_x,lin_y,lin_z,eul_x,eul_y,eul_z,qua_w,qua_x,qua_y,qua_z
1700116.0,121.563564,1.0,-0.62,0.63,-9.77,3.19,-22.37,44.56,-0.94,1.19,1.06,-0.006956299298085666,0.24799857549558413,-0.0001154359861317289,-175.13792719078657,-2.5212177047006765,3.4726557451993814,-0.0202,-0.9991,-0.022,0.0303
1700153.0,121.649694,1.0,-0.35,0.55,-9.86,3.19,-22.06,45.0,0.06,0.81,-0.25,0.2540902429932525,0.15896337162919458,-0.0703317654431217,-175.13792719078657,-2.486832027635776,3.415334078437867,-0.0199,-0.9991,-0.0217,0.0298
1700186.0,121.656675,1.0,-0.27,0.45,-10.1,3.19,-22.06,45.0,-0.37,-4.13,-0.5,0.35153707539284595,0.04371661863221898,-0.3007685894262657,-175.13792719078657,-2.486832027635776,3.4611913427691,-0.02,-0.9991,-0.0217,0.0302
1700220.0,121.660664,1.0,-0.48,0.56,-10.0,4.0,-21.69,45.5,0.12,-3.5,1.0,0.16274234563222517,0.1559524949928155,-0.2179793571504991,-175.13792719078657,-2.4639083675369537,3.5873017007906127,-0.0205,-0.9991,-0.0215,0.0313
1700255.0,121.694619,1.0,-0.59,0.49,-9.81,4.0,-22.37,45.38,-3.81,-2.63,2.0,0.04971832538169341,0.0884147530217874,-0.03276110634012319,-174.87488253375375,-2.4295230620087382,3.656090990936744,-0.021,-0.999,-0.0212,0.0319
1700290.0,121.736147,1.0,-0.6,0.63,-9.84,4.69,-22.06,45.0,-3.25,-2.75,2.63,0.06489501096529343,0.19729698162918768,-0.06955182755454814,-174.87488253375375,-2.4295230620087382,3.7592774051414257,-0.0225,-0.999,-0.0212,0.0328
1700325.0,121.779644,1.0,-0.92,0.8,-9.38,4.69,-22.06,45.0,-5.56,-9.81,2.19,-0.23607648785409469,0.3733427665945436,0.358068991694358,-174.62468664214506,-2.360753104216733,4.011523869819651,-0.0239,-0.9989,-0.0206,0.035
1700362.0,121.818712,1.0,-0.87,0.62,-9.56,4.0,-22.37,44.56,3.75,-2.13,-0.31,-0.15099542995404763,0.1818796922927066,0.19004872108318516,-174.38562149779352,-2.3263684457528235,4.194987989089829,-0.0239,-0.9988,-0.0203,0.0366
1700397.0,121.849027,1.0,-0.74,0.73,-9.7,4.69,-22.37,45.38,-1.25,-0.19,0.81,-0.006594332952069459,0.2797989222968041,0.0551286275240912,-174.38562149779352,-2.337829975144579,4.194987989089829,-0.0239,-0.9988,-0.0204,0.0366
1700433.0,121.868635,1.0,-0.76,0.64,-9.65,4.69,-22.37,45.38,1.06,0.0,-0.19,-0.030168108257965953,0.1930618582345895,0.10760277853854561,-174.38562149779352,-2.3263684457528235,4.217921750764655,-0.0239,-0.9988,-0.0203,0.0368
1700466.0,121.909577,1.0,-0.72,0.62,-9.74,3.19,-22.37,43.75,2.0,3.13,-0.63,-0.0027479829043188797,0.1805679381761256,0.022081145508110467,-174.62468664214506,-2.2232157148923686,4.11472114096103,-0.0232,-0.9989,-0.0194,0.0359
1700503.0,121.946638,1.0,-0.66,0.57,-9.72,4.0,-21.69,44.56,1.63,-0.63,-0.56,0.04607737150738839,0.14318824621861093,0.04876734022283635,-174.62468664214506,-2.2232157148923686,4.068855279934243,-0.0225,-0.9989,-0.0194,0.0355
1700536.0,122.08085,1.0,-0.78,0.55,-9.57,4.0,-21.69,44.56,1.94,-1.69,-1.12,-0.08267375653256803,0.14052675197110986,0.19055841963528053,-174.62468664214506,-2.24613838532295,4.080321683767285,-0.0222,-0.9989,-0.0196,0.0356
1700571.0,122.09182,1.0,-1.07,0.52,-9.22,4.25,-22.75,44.56,2.38,3.81,0.12,-0.40273447061024864,0.15275484743186285,0.5201990685209346,-174.87488253375375,-2.269061145645111,4.045922594423996,-0.0214,-0.999,-0.0198,0.0353
1700605.0,122.222475,1.0,-1.35,0.69,-8.42,4.25,-22.75,44.56,4.25,4.5,1.5,-0.7490730145233946,0.38559731984870127,1.292825693271661,-174.87488253375375,-2.2575997541901875,3.919795697049856,-0.0204,-0.999,-0.0197,0.0342
1700642.0,122.233487,1.0,-1.8,0.71,-7.45,4.0,-22.06,44.19,9.63,19.06,5.31,-1.326967222442113,0.4955800820029216,2.2409274057670965,-175.41603200644556,-2.1086036789736795,3.438262641755622,-0.0181,-0.9992,-0.0184,0.03
1700675.0,122.24541,1.0,-2.33,0.1,-6.03,4.0,-22.06,44.19,12.75,39.06,4.88,-2.059633485635653,-0.009462176426237742,3.6782227652140946,-176.37614572385218,-1.936689544653667,2.532679647359437,-0.0151,-0.9995,-0.0169,0.0221
1700712.0,122.255433,1.0,-2.14,-0.94,-3.8,3.19,-21.25,44.25,13.56,96.94,28.75,-2.1800718234234684,-0.9633352698540577,6.035380717308788,-178.3794171258687,-1.4095117183833985,-0.25210163321982526,-0.0101,-0.9999,-0.0123,-0.0022
1700749.0,122.264363,1.0,0.1,-1.02,-4.65,0.25,-21.25,45.0,38.19,166.69,63.69,-0.2551502102544799,-1.0471559728394813,5.168626418909269,-175.7121263163045,0.14896906869365514,-4.412865642375664,-0.0029,-0.9993,0.0013,-0.0385
1700782.0,122.30525,1.0,5.69,0.78,-11.89,0.25,-21.25,45.0,7.25,168.69,64.19,3.1195470611083786,1.1377157373273923,-2.97343720762764,-167.97602060615887,2.830699387947472,-11.674144907935558,0.0056,-0.9945,0.0247,-0.1017
1700816.0,122.44522,1.0,4.53,1.16,-9.78,-6.06,-19.75,46.19,20.19,119.31,40.81,1.440804079257034,1.6326451703594411,-0.8128346086285312,-162.68057392822612,4.779853967883568,-16.55875139620892,0.0107,-0.9886,0.0417,-0.144
1700853.0,122.562458,1.0,4.28,-0.36,-7.79,-13.88,-19.5,43.75,37.25,130.13,42.5,1.331434445660731,0.2614747295650082,1.0151192298378966,-158.77799072087697,6.145052377433651,-20.168955080859906,0.0187,-0.9829,0.0536,-0.1751
1700890.0,122.657361,1.0,5.44,-0.45,-9.44,-13.88,-19.5,43.75,20.94,160.44,45.19,0.7181144754101361,0.5264192451768919,-1.0615096592299746,-152.52794284369597,7.982025743589274,-26.076325639174165,0.0256,-0.9714,0.0696,-0.2256
1700925.0,122.750708,1.0,7.39,-0.79,-11.1,-18.75,-17.25,43.38,6.25,127.31,18.5,0.811469803962662,0.5699895156377003,-3.5148675077511307,-148.4345315385202,8.671395302011163,-30.128257166842044,0.0282,-0.9623,0.0756,-0.2599
1700962.0,122.840976,1.0,8.18,-0.37,-12.08,-25.06,-15.88,41.06,5.0,73.5,-2.94,0.014791154342996826,1.0202845439182793,-4.751320348616407,-144.80353687392875,9.303593121383253,-33.73986021591224,0.0248,-0.9532,0.0811,-0.2902
1700997.0,122.872733,1.0,8.76,-1.83,-12.24,-27.69,-15.5,38.25,17.19,43.75,-5.19,0.18025846983136518,-0.30657217554121413,-5.3517674762815535,-143.3178010626215,9.06217605835773,-35.323859886762655,0.027,-0.9492,0.079,-0.3034
1701031.0,122.924593,1.0,9.29,-0.61,-13.27,-27.69,-15.5,38.25,17.75,-15.69,-3.81,-0.2694104163461475,1.1005688029211362,-6.363856063126191,-142.9553690729635,8.832292528579133,-35.70889932534102,0.0315,-0.9482,0.077,-0.3066
1701066.0,122.931574,1.0,10.2,0.14,-14.97,-30.0,-14.0,39.5,15.38,-83.12,-29.81,-0.1156927489499413,2.1018034135301455,-8.185835587008635,-144.65224571956077,8.062436803571837,-34.12323828365854,0.0352,-0.9528,0.0703,-0.2934
1701103.0,122.938559,1.0,7.89,-1.03,-11.31,-28.37,-14.38,39.0,26.87,-183.75,-59.88,1.6258497328085686,0.5130118343297632,-3.916415674409775,-150.88687816852095,5.536926565771378,-28.15096848573949,0.0413,-0.9679,0.0483,-0.2432
1701138.0,122.945581,1.0,6.12,-0.98,-9.93,-28.37,-14.38,39.0,8.5,-194.75,-48.81,1.828771605239428,0.24505269616687017,-1.7525560104477496,-156.47442582901172,3.6904861286986015,-22.676412633281863,0.0439,-0.979,0.0322,-0.1966
1701173.0,122.951521,1.0,4.8,-1.47,-9.73,-23.06,-14.69,42.19,4.31,-174.94,-36.94,1.9964254804052644,-0.4213770759557849,-0.9502327576137297,-163.30044367130742,1.7418587747641439,-15.725436142775802,0.0456,-0.9894,0.0152,-0.1368
1701208.0,122.958505,1.0,2.76,-1.56,-8.0,-14.88,-15.06,45.38,-10.5,-163.13,-44.13,1.4113220726019544,-0.8830781247165533,1.3639286950513636,-169.4938307856925,-0.13750990383378794,-9.349581983346612,0.0413,-0.9958,-0.0012,-0.0815
1701244.0,122.965484,1.0,1.15,-2.12,-7.34,-7.88,-17.0,47.38,-24.44,-156.75,-37.19,0.4727665628205399,-1.618688894731268,2.266833156126899,-173.5168579087077,-1.432431792389882,-4.8486696265391345,0.035,-0.9984,-0.0125,-0.0423
1701279.0,122.998671,1.0,0.07,-2.31,-7.25,-7.88,-17.0,47.38,-22.12,-144.13,-20.31,0.07883712556832523,-1.928744380646784,2.446131687968193,-176.03023344776122,-2.486832027635776,0.7906880314747026,0.0263,-0.9994,-0.0217,0.0069
1701316.0,123.050259,1.0,-1.15,-1.63,-7.06,-0.69,-17.69,47.06,-15.44,-134.0,-2.94,-0.6304222989367582,-1.2896192596933453,2.612037439894257,-174.15632086245736,-2.796311555732279,4.745446786894517,0.0208,-0.9987,-0.0244,0.0414
1701353.0,123.085165,1.0,-2.07,-1.36,-7.17,4.38,-18.06,45.38,-3.56,-112.19,7.0,-0.9282065740942391,-1.0381642597617435,2.3498378442888486,-170.0069733247971,-2.750461504037132,9.372576979838527,0.017,-0.9962,-0.024,0.0817
1701388.0,123.091187,1.0,-2.88,-2.03,-6.83,4.38,-18.06,45.38,-0.88,-97.19,14.69,-1.4274375273919544,-1.7147165227549477,2.4523064295659722,-167.233021952493,-2.486832027635776,12.342442956629046,0.0155,-0.9938,-0.0217,0.1075
1701423.0,123.095169,1.0,-3.29,-0.4,-7.2,9.75,-18.87,47.38,-15.19,-58.31,32.31,-1.290066509409039,-0.19759628414275524,1.988671737700077,-164.61437509688025,-1.5241126706819226,15.22816347918777,0.0093,-0.991,-0.0133,0.1325
1701457.0,123.099126,1.0,-3.45,-0.37,-7.19,13.06,-19.56,44.25,-11.38,-48.44,36.19,-1.183689960973338,-0.3040895759014507,1.9172959322629586,-162.9104094445606,-0.19480574417599017,17.103194349757633,0.0038,-0.9889,-0.0017,0.1487
1701494.0,123.104113,1.0,-3.58,-0.32,-6.84,13.75,-20.25,43.88,-18.75,-8.63,50.94,-1.3270503618761496,-0.39538830465907066,2.2048735348845474,-162.3040971793563,1.0313379546174166,17.682816604505923,-0.0021,-0.9881,0.009,0.1537
1701529.0,123.108134,1.0,-3.21,0.32,-7.99,13.75,-20.25,43.88,-35.31,19.25,60.69,-0.7201825445392229,-0.0459805181814265,1.2202757422303794,-162.45372607444324,3.1516651995043397,17.126370676427076,-0.0153,-0.9883,0.0275,0.1489
1701566.0,123.140017,1.0,-3.15,0.59,-7.52,13.75,-21.75,44.19,-35.38,22.75,66.25,-0.9083920465298376,-0.007447788161024281,1.6828720352687618,-162.52901727888843,4.837200229263812,16.466118077182383,-0.0268,-0.9884,0.0422,0.1432
1701603.0,123.201559,1.0,-3.11,1.02,-7.69,11.88,-23.69,43.38,-34.88,38.75,72.06,-1.0386034121084338,0.04543919970121821,1.5140124080460815,-162.37875406030932,7.269980754447582,15.205041610922962,-0.0438,-0.9882,0.0634,0.1323
1701638.0,123.215844,1.0,-2.44,2.39,-7.02,11.88,-23.69,43.38,-43.38,42.75,75.56,-0.9324039359669875,1.2672475928914824,2.1600294105824727,-162.00854277151578,9.23461264182475,13.96890425008599,-0.0571,-0.9877,0.0805,0.1216
1701670.0,123.220824,1.0,-1.88,2.37,-7.29,8.56,-25.5,42.19,-41.63,56.75,71.62,-0.6449131757859295,0.943880404166494,1.9971316551641154,-161.14943788464134,11.720221376139573,11.835420883076138,-0.0761,-0.9865,0.1021,0.1031
1701707.0,123.26967,1.0,-1.31,4.06,-7.42,5.56,-26.69,41.0,-27.31,71.25,65.19,-0.7117282965376954,2.4029214354053257,1.622793243728104,-160.3946831522595,13.426452603767608,9.890066196362191,-0.0895,-0.9854,0.1169,0.0862
1701744.0,123.276331,1.0,-0.06,3.34,-8.07,2.19,-28.56,41.38,-1.81,71.87,51.88,0.2768907133218925,1.7451511896597274,1.2531782570113474,-159.8633643903993,15.309094936163461,6.959986103018455,-0.0962,-0.9846,0.1332,0.0607
1701777.0,123.281639,1.0,0.11,3.48,-9.28,2.19,-28.56,41.38,-21.75,76.62,51.25,0.1847551249003495,1.525465602792391,0.014830953544930026,-159.0283735374385,16.581911426258042,4.779853967883568,-0.103,-0.9833,0.1442,0.0417
1701816.0,123.307614,1.0,0.31,3.93,-9.03,-1.5,-27.87,40.25,-21.62,69.81,49.63,-0.28080022904554425,1.7585330457720172,0.11590117659652854,-157.44996317553054,18.158446707979895,1.94815034703792,-0.114,-0.9807,0.1578,0.017
1701851.0,123.335525,1.0,0.86,4.55,-10.22,-5.19,-29.37,40.56,-2.19,74.19,25.56,-0.2907722481663109,2.0322992603747387,-1.2240213855493192,-156.47442582901172,18.959614614971,-0.22918327084134968,-0.1204,-0.979,0.1647,-0.002
1701885.0,123.34048,1.0,2.01,3.96,-10.81,-5.19,-29.37,40.56,13.81,77.56,4.5,0.41965801893525745,1.592792112865606,-1.7633413756379497,-156.02889725740354,19.12228331882828,-3.243374149708243,-0.1215,-0.9782,0.1661,-0.0283
1701918.0,123.382838,1.0,2.65,4.15,-10.81,-9.0,-29.75,38.88,32.38,74.44,-8.88,0.3947773153121015,1.9643200726755234,-1.9017528596303013,-156.25063177900063,18.483448143006754,-6.236859579751597,-0.1167,-0.9786,0.1606,-0.0544
1701955.0,123.42206,1.0,3.14,4.38,-11.88,-10.75,-28.25,38.56,58.5,51.19,-46.56,0.37456202393177307,2.205297606162642,-3.045383526196602,-157.21671751944734,17.242262917799223,-7.9935127959191385,-0.1075,-0.9803,0.1499,-0.0697
1701992.0,123.47596,1.0,2.73,1.86,-9.89,-12.25,-27.87,40.06,90.31,38.13,-65.37,0.6607128262694351,0.5952178105298837,-0.5824680722538282,-160.12726585571855,14.338412369029564,-9.798053639345571,-0.0823,-0.985,0.1248,-0.0854
1702027.0,123.482942,1.0,2.69,0.37,-9.97,-12.25,-27.87,40.06,59.38,27.12,-52.56,0.7900878172355286,-0.60862268261059,-0.47825348380906796,-161.7899992062843,12.492290914481536,-10.776022876638457,-0.0664,-0.9874,0.1088,-0.0939
1702064.0,123.512125,1.0,2.57,0.64,-10.08,-12.69,-25.56,42.06,44.88,18.31,-48.75,0.4080698782915262,-0.18989406428646027,-0.6057617868426579,-163.22171672296716,10.292697102933527,-11.754779974813852,-0.0531,-0.9893,0.0897,-0.1024
1702098.0,123.578748,1.0,2.75,0.02,-10.29,-13.38,-23.75,41.69,47.44,9.19,-41.88,0.5499715826871201,-0.6136949007044123,-0.8125735981302338,-164.10899767779725,8.855279263547427,-12.215665087929846,-0.0422,-0.9904,0.0772,-0.1064
1702133.0,123.612545,1.0,2.76,-0.07,-10.19,-13.38,-23.75,41.69,33.31,6.56,-37.19,0.5163233529329352,-0.5078165568053625,-0.7258773576597193,-165.1368197605061,7.143680335170353,-12.526874248925028,-0.0308,-0.9916,0.0623,-0.1091
1702168.0,123.61953,1.0,2.79,0.11,-10.16,-13.06,-23.0,42.88,23.81,1.44,-30.37,0.5064281480145996,-0.2437836282106913,-0.7150371305658432,-165.6781993872616,6.133576755953127,-12.619102083523115,-0.0255,-0.9922,0.0535,-0.1099
1702205.0,123.652124,1.0,2.87,-0.05,-10.32,-12.69,-22.25,43.25,23.69,-5.06,-27.0,0.5648318412813447,-0.27903452317214394,-0.886567697491845,-166.33674754112943,4.96336629149859,-12.58451568698019,-0.0179,-0.9929,0.0433,-0.1096
1702240.0,123.779737,1.0,2.49,-0.03,-9.96,-12.69,-22.25,43.25,18.37,-13.81,-24.44,0.32891964392447104,-0.1994321697826644,-0.45271833715879417,-166.92746455946425,4.1720543955147065,-12.238714488577818,-0.0134,-0.9935,0.0364,-0.1066
1702275.0,123.915374,1.0,2.25,-0.19,-9.64,-11.88,-21.5,43.75,15.31,-10.13,-20.62,0.23793693727671217,-0.28224969531018257,-0.08738462311390727,-167.7591504670043,3.243374149708243,-11.835420883076138,-0.0083,-0.9943,0.0283,-0.1031
1702309.0,123.927348,1.0,2.27,-0.02,-9.49,-10.75,-20.37,44.56,10.94,-4.19,-16.87,0.3078484264376372,-0.05223578805234047,0.05391188351258869,-168.08593042045837,2.509755787270372,-11.651107384541652,-0.0046,-0.9946,0.0219,-0.1015
1702346.0,123.939315,1.0,2.19,-0.22,-9.69,-9.69,-20.37,45.38,7.5,-7.06,-14.06,0.20946932218685632,-0.21921181591002337,-0.12555362169584328,-168.30883818145554,2.0054546535892377,-11.570479767497385,-0.0021,-0.9948,0.0175,-0.1008
1702381.0,123.950324,1.0,2.18,-0.31,-9.76,-9.69,-20.37,45.38,3.63,-4.81,-8.69,0.2162424602902907,-0.28422472272896504,-0.19227771777840452,-168.4218955829601,1.6043342375287626,-11.397725602729446,-0.0004,-0.9949,0.014,-0.0993
1702416.0,123.962298,1.0,1.96,0.0,-9.62,-10.06,-20.75,44.56,-1.31,-5.31,-5.94,0.04557372412387717,0.01347317681745946,-0.010872167490932227,-168.6513771745933,1.432431792389882,-11.248026360967865,-0.0006,-0.9951,0.0125,-0.098
1702453.0,124.03462,1.0,1.81,0.0,-9.31,-10.06,-19.25,45.0,-2.06,-3.0,-3.75,-0.016105305073515153,-0.0060701434832346555,0.3223522520111377,-168.7678701513817,1.2949121758820281,-11.09834637461124,-0.0014,-0.9952,0.0113,-0.0967
1702486.0,124.167699,1.0,1.82,0.19,-9.27,-10.06,-19.25,45.0,-2.94,-2.19,-0.37,0.010646350756806755,0.17262082653470742,0.3593493958347018,-168.88558009980704,1.2605325708995527,-11.01775734240615,-0.002,-0.9953,0.011,-0.096
1702520.0,124.26469,1.0,1.86,0.4,-9.43,-9.0,-20.06,46.25,-3.0,-3.5,-1.31,0.02873307323621721,0.3663565829505199,0.19366621427398378,-169.0045461043646,1.2032334798806035,-10.937173775974522,-0.0028,-0.9954,0.0105,-0.0953
1702557.0,124.35919,1.0,1.91,0.0,-9.6,-9.38,-20.75,45.38,0.19,2.38,-0.88,0.048295342756729864,-0.03466703128100876,0.018669321800322436,-169.0045461043646,1.1573944243672372,-10.971708923508501,-0.0028,-0.9954,0.0101,-0.0956
1702590.0,124.447954,1.0,1.94,0.37,-9.5,-9.38,-20.75,45.38,-2.44,1.37,1.19,0.083275373793806,0.3253635753919054,0.10934605736069791,-169.0045461043646,1.1803139285143014,-11.00624507066077,-0.0034,-0.9954,0.0103,-0.0959
