TIME,ELAPSED_SECONDS,PSTATE,acc_x,acc_y,acc_z,mag_x,mag_y,mag_z,gyr_x,gyr_y,gyr_z,lin_x,lin_y,lin_z,eul_x,eul_y,eul_z,qua_w,qua_x,qua_y,qua_z
2018979.0,441.012696,1.0,-1.66,1.79,-9.49,9.38,-25.5,42.19,-2.88,2.94,1.94,0.03529105612887384,0.08954676450319964,0.008153384787831897,-165.6781993872616,-1.535572847865537,9.855560741569812,-0.0886,-0.9922,-0.0134,0.0859
2019014.0,441.056379,1.0,-1.66,1.84,-9.45,9.38,-25.5,42.19,0.12,7.5,0.56,0.003015758813442848,0.13266796654379803,0.03802214774501422,-165.77042087262134,-1.5241126706819226,9.694547078719877,-0.0893,-0.9923,-0.0133,0.0845
2019047.0,441.07788,1.0,-1.66,1.85,-9.61,7.88,-26.69,42.19,0.5,7.56,-0.25,-0.021581162921012975,0.11517116737269452,-0.11889632529680583,-166.05072408085044,-1.535572847865537,9.395572354596672,-0.0893,-0.9926,-0.0134,0.0819
2019084.0,441.13741,1.0,-1.54,1.83,-9.53,8.25,-26.69,42.88,-1.88,7.81,0.5,0.046169708847123236,0.11117011695031488,-0.018160917421376155,-166.14541230093116,-1.5470330404085568,9.17713147157167,-0.0892,-0.9927,-0.0135,0.08
2019117.0,441.141935,1.0,-1.48,1.83,-9.56,8.25,-26.69,42.88,-0.88,5.13,1.19,0.07265837574381262,0.10586624653202077,-0.037963405222143365,-166.33674754112943,-1.5470330404085568,8.958724002944487,-0.0892,-0.9929,-0.0135,0.0781
2019151.0,441.186281,1.0,-1.37,1.86,-9.68,8.25,-25.19,42.19,-1.06,7.44,2.0,0.15499181362270176,0.10712190434561279,-0.14339534840517132,-166.4334221875333,-1.535572847865537,8.69437956401469,-0.0895,-0.993,-0.0134,0.0758
2019186.0,441.24221,1.0,-1.32,1.74,-9.72,7.5,-26.69,42.19,-0.75,8.88,-0.44,0.1616863042138167,-0.027967365136690292,-0.1543477093420229,-166.53078742603913,-1.535572847865537,8.441571750266656,-0.09,-0.9931,-0.0134,0.0736
2019221.0,441.256143,1.0,-1.29,1.63,-9.77,7.88,-26.25,42.19,-0.44,9.56,2.31,0.13082394254231422,-0.13984975254341253,-0.18020271458287063,-166.82718037176227,-1.581413711340907,8.073924421552887,-0.0898,-0.9934,-0.0138,0.0704
2019256.0,441.307112,1.0,-1.18,2.02,-9.75,7.88,-26.25,42.19,-3.19,6.75,1.75,0.20983084863454582,0.23012974761717012,-0.2152416035957483,-166.92746455946425,-1.5470330404085568,7.832701331508732,-0.0906,-0.9935,-0.0135,0.0683
2019293.0,441.322969,1.0,-1.37,1.65,-9.68,7.5,-26.69,42.5,2.94,4.75,0.63,-0.03335847063125086,-0.10547888265570415,-0.10745920949284837,-167.02852064224473,-1.569953472031555,7.648935698119245,-0.09,-0.9936,-0.0137,0.0667
2019328.0,441.36286,1.0,-1.17,1.32,-9.9,7.06,-26.25,43.0,-1.06,7.56,3.94,0.13776661021213632,-0.46643983057620964,-0.2374902940004091,-167.233021952493,-1.5126525087430307,7.407773121999346,-0.0897,-0.9938,-0.0132,0.0646
2019360.0,441.382805,1.0,-1.02,1.35,-10.51,7.06,-26.25,43.0,-7.63,-19.5,11.0,0.40232824475611584,-0.5939362876245066,-0.8144785497217413,-166.92746455946425,-1.1917736982377245,7.6259663887868285,-0.0917,-0.9935,-0.0104,0.0665
2019395.0,441.441871,1.0,-1.1,1.99,-11.27,6.0,-26.69,42.5,-26.5,-84.25,9.31,0.9890122573561788,-0.28401213925371016,-1.6442972035965564,-164.52900617164653,-0.6187974261216272,10.407757691617306,-0.0992,-0.9909,-0.0054,0.0907
2019434.0,441.484604,1.0,-3.39,6.25,-7.3,6.0,-27.37,42.06,64.19,-141.75,-26.94,-1.2696205724307486,4.748810866185028,0.8802028366956893,-162.00854277151578,-0.687553479519944,14.361511562916563,-0.0931,-0.9877,-0.006,0.125
2019469.0,441.501851,1.0,-2.76,4.99,-8.52,6.0,-27.37,42.06,143.25,-127.44,-37.31,0.18982386596873702,3.8846012646930443,0.3207689173459549,-160.46210370241806,-0.8021474641450599,18.181656180152796,-0.0615,-0.9855,-0.007,0.158
2019504.0,441.558274,1.0,-4.41,2.44,-4.94,12.0,-27.37,44.5,127.19,-60.94,-81.62,-2.1321336424553348,2.4384396198729847,3.5366166387694653,-157.80436691060555,-2.2117544130994498,22.022297601396424,-0.0114,-0.9813,-0.0193,0.191
2019538.0,441.569965,1.0,-3.16,0.78,-7.13,16.06,-21.37,43.38,113.25,-9.06,-98.94,-0.07272848401949217,1.411718668872844,2.0973918665887092,-156.41828103776766,-5.089538374458754,22.73485185773412,0.032,-0.9789,-0.0444,0.1971
2019575.0,441.626811,1.0,-2.67,1.24,-7.44,19.06,-15.88,45.0,82.75,-4.38,-154.25,0.6734006639808009,2.3434493234806375,2.1859625760185946,-154.47803544959177,-8.441571750266656,22.956975705375932,0.0617,-0.9753,-0.0736,0.199
2019608.0,441.640774,1.0,-2.35,-2.07,-5.6,19.06,-15.88,45.0,76.69,70.94,-192.19,-0.4779472196650806,-0.4427158534304406,3.423628056724559,-152.0020244138963,-14.638747929971785,20.54151049721856,0.1017,-0.9703,-0.1274,0.1783
2019645.0,441.682662,1.0,-1.78,-10.12,-2.97,21.69,-9.88,46.88,15.94,220.13,-82.37,-3.34329039567389,-8.13343571705487,3.717862537234449,-152.52794284369597,-17.149547708947626,15.262847451308845,0.1287,-0.9714,-0.1491,0.1328
2019682.0,441.723553,1.0,1.09,-2.38,-5.96,18.0,-4.75,49.69,-67.44,285.38,-46.56,1.023847122710935,-1.1450145891038483,3.480926431896833,-156.58711361479934,-17.833592505981912,4.49314033842009,0.1251,-0.9792,-0.155,0.0392
2019719.0,441.758461,1.0,4.1,-0.35,-8.21,18.0,-4.75,49.69,-56.0,342.63,-68.06,3.332117349077797,0.5119192554593136,1.2643123429025689,-156.25063177900063,-18.378967167629526,-5.318958088351593,0.1212,-0.9786,-0.1597,-0.0464
2019751.0,441.811354,1.0,6.79,-8.66,-7.88,7.75,-4.38,51.25,-20.37,366.5,-10.69,0.8361327599022368,-7.138931093533853,-1.6620310422817948,-148.85861645005238,-18.239683153744327,-19.226876578818004,0.1382,-0.9633,-0.1585,-0.167
2019788.0,441.81634,1.0,8.61,-2.56,-8.4,-7.0,-5.88,50.5,-119.75,368.0,51.0,1.8611243328782137,-1.1645296766115034,-2.2940023315836022,-140.6780748758918,-13.85346307502466,-33.48847986776374,0.1257,-0.9417,-0.1206,-0.2881
2019825.0,441.875131,1.0,10.19,-2.05,-9.6,-22.37,-8.5,44.06,-101.31,291.75,57.25,0.5772972911131626,-0.08867844343777836,-4.330445315917727,-133.7645266360233,-10.120125690641803,-42.75363018855425,0.116,-0.9197,-0.0882,-0.3645
2019858.0,441.911449,1.0,10.03,-3.37,-8.69,-22.37,-8.5,44.06,-110.75,183.69,59.88,-0.8224446160478864,-1.4867763301939951,-3.779629144692585,-127.76677999527553,-5.4336758888612415,-50.567318276092784,0.0955,-0.8979,-0.0474,-0.4271
2019895.0,441.941984,1.0,9.52,-1.19,-6.62,-33.56,-10.0,37.25,-105.31,92.87,102.44,0.2759949107060935,0.3151748996504549,-1.8421864909073484,-125.64605206137206,-1.2834522947560847,-53.436046525616895,0.0793,-0.8896,-0.0112,-0.4496
2019934.0,441.974853,1.0,10.86,-2.37,-7.86,-40.0,-10.69,32.0,-86.19,54.06,130.31,-0.45166627825127126,-0.10056456805386282,-3.799304003330411,-123.21239151549197,4.5160763693433355,-55.822067891041215,0.0739,-0.8797,0.0394,-0.4681
2019969.0,442.005195,1.0,10.94,-0.44,-8.33,-40.0,-10.69,32.0,-101.62,3.94,135.69,-0.9093186684592949,2.1742298482036655,-3.7473886647807557,-122.58898532309728,9.430066128049688,-55.8609742090792,0.0671,-0.8771,0.0822,-0.4684
2020003.0,442.036112,1.0,11.12,-1.0,-8.37,-42.06,-8.5,27.69,-123.37,-52.0,102.62,-0.4595711341618234,1.9959154345986474,-3.996118416175653,-123.18829850358513,15.262847451308845,-53.92406916451298,0.055,-0.8796,0.1328,-0.4534
2020038.0,442.066528,1.0,13.7,0.28,-13.87,-42.56,-6.56,27.69,-153.5,-192.56,74.37,-1.4837763568202949,3.7969029564999923,-9.259740210573758,-128.76486449761617,20.180594156388953,-46.407242416234105,0.0313,-0.9017,0.1752,-0.394
2020075.0,442.125169,1.0,10.79,4.1,-6.94,-40.69,-6.56,29.87,-62.5,-434.75,-15.69,3.0401564996860495,7.320788809988629,-1.0819311590382092,-139.66874405322235,21.182355652510953,-33.75183487047058,0.027,-0.9387,0.1838,-0.2903
2020110.0,442.139836,1.0,6.76,-0.71,-5.0,-40.69,-6.56,29.87,-21.19,-318.06,-55.63,4.379653829832442,1.6311300119865173,2.7810007620412147,-151.43912137388483,19.12228331882828,-20.63468349632429,0.0348,-0.9691,0.1661,-0.1791
2020147.0,442.196529,1.0,2.79,3.24,-5.85,-28.75,-9.56,41.56,-83.44,-264.75,-84.06,0.3969864201583413,3.992888591020396,3.7731234622354526,-158.65388815245834,17.137959104392674,-12.307865676783145,0.0223,-0.9827,0.149,-0.1072
2020184.0,442.234583,1.0,0.2,0.19,-4.53,-17.56,-12.5,46.06,-1.94,-249.88,-120.37,-0.058455621983208916,0.420758870585322,5.288182902290609,-166.72765058183754,12.711338126294772,-2.3951379752687134,0.0236,-0.9933,0.1107,-0.0209
2020218.0,442.259577,1.0,-1.16,-0.92,-6.1,-17.56,-12.5,46.06,-12.63,-151.63,-92.06,-0.7254134738469706,-0.7379043583797857,3.615424559923908,-169.4938307856925,9.53355259965066,2.750461504037132,0.0275,-0.9958,0.0831,0.024
2020253.0,442.288438,1.0,-0.66,2.92,-9.8,-5.56,-15.06,48.06,7.69,-208.38,-125.62,0.6681022991968864,3.4823165728126337,0.19264403970840682,-168.53606406960452,5.3992599817249625,9.591048446078224,0.0288,-0.995,0.0471,0.0836
2020288.0,442.319355,1.0,-3.64,-1.26,-3.52,2.25,-15.88,47.69,58.44,-212.13,-177.69,-2.417023834478059,-0.7609359648488845,5.245227826931114,-161.4314273445042,-1.0313379546174166,17.439320584956544,0.0542,-0.9869,-0.009,0.1516
2020325.0,442.38618,1.0,-4.48,-4.41,-4.93,13.5,-14.0,46.88,11.56,-42.81,-64.0,-2.742391954305899,-3.341456640246549,3.088216113273827,-158.71585002764485,-3.633161082340258,19.30823806837105,0.0705,-0.9828,-0.0317,0.1677
2020360.0,442.395158,1.0,-2.28,-1.06,-9.78,13.5,-14.0,46.88,-2.13,24.25,-56.75,0.9763214730155465,0.4534082319893562,-0.23384885994182447,-158.65388815245834,-5.812283928177061,18.762140123042595,0.0717,-0.9827,-0.0507,0.163
2020397.0,442.452902,1.0,-2.59,-4.02,-9.64,16.75,-11.38,46.38,3.25,1.06,-52.69,0.3183464399369824,-2.34155013640271,-0.6916307403351496,-157.98368078519854,-7.6374510050387485,18.73891153732938,0.0743,-0.9816,-0.0666,0.1628
2020433.0,442.475081,1.0,-3.37,-0.96,-8.68,17.56,-10.19,46.5,9.88,5.19,-22.81,-0.40161435579799676,0.7231991708253911,0.4826707599687108,-157.508647592303,-8.648411389524659,18.72729753587516,0.0759,-0.9808,-0.0754,0.1627
2020468.0,442.52395,1.0,-2.5,-2.39,-10.06,17.56,-10.19,46.5,12.19,1.56,-31.75,0.6573289929697737,-0.5243600166708267,-0.7980029961106379,-157.1587733939545,-9.384074619875278,18.56472183693924,0.0812,-0.9802,-0.0818,0.1613
2020501.0,442.533986,1.0,-2.9,-2.24,-9.32,17.19,-9.5,46.88,-0.31,5.69,-18.19,0.037596739670196166,-0.3228877273689654,-0.20256225675031203,-156.70033876277134,-10.258180960550504,18.49505809550988,0.0839,-0.9794,-0.0894,0.1607
2020536.0,442.564085,1.0,-2.72,-2.26,-9.72,17.56,-8.69,47.69,4.31,-1.31,-12.63,0.3230248630998127,-0.2815989200358785,-0.5277951706927126,-156.47442582901172,-10.637910557080563,18.448619433327217,0.0855,-0.979,-0.0927,0.1603
2020573.0,442.66784,1.0,-2.59,-2.67,-10.14,18.0,-8.38,47.69,-2.13,-11.13,-5.75,0.549479409278611,-0.6403628298718185,-0.961107790036765,-156.08414094937433,-11.01775734240615,18.657617598655083,0.0856,-0.9783,-0.096,0.1621
2020608.0,442.719663,1.0,-2.82,-2.09,-9.39,18.0,-8.38,47.69,-2.38,-5.75,0.63,0.2253974340286098,-0.15714201313732334,-0.21418341765746263,-155.91878451766874,-11.063807546045702,18.947996901150272,0.0845,-0.978,-0.0964,0.1646
2020644.0,442.734786,1.0,-2.83,-2.17,-9.11,18.69,-8.38,47.25,0.63,4.0,0.31,0.11328256601990039,-0.2642101381049672,0.027730833591144588,-155.8639137604186,-11.063807546045702,18.97123252547226,0.0848,-0.9779,-0.0964,0.1648
2020679.0,442.744639,1.0,-2.88,-2.2,-8.81,19.06,-8.38,47.25,-3.5,6.38,2.81,-0.06969578697898915,-0.3256929831446964,0.2861685742522564,-156.08414094937433,-11.00624507066077,18.785369486689323,0.0846,-0.9783,-0.0959,0.1632
2020714.0,442.75462,1.0,-3.0,-2.08,-8.88,19.06,-8.38,47.25,-6.06,9.56,9.38,-0.18385542777569008,-0.20278367185499507,0.20946937420648304,-156.47442582901172,-10.764512919793646,18.506668239532367,0.0833,-0.979,-0.0938,0.1608
2020747.0,442.822523,1.0,-2.61,-1.69,-9.7,19.06,-8.38,48.88,0.75,5.88,4.63,0.46455619142897864,0.18479428451939509,-0.3672498725864184,-156.814109146573,-10.534336497867198,18.239683153744327,0.0825,-0.9796,-0.0918,0.1585
2020784.0,442.913279,1.0,-2.88,-1.8,-8.87,18.0,-8.69,48.06,-2.81,3.25,6.44,-0.08212341756960106,0.006860182170624146,0.30904458167547944,-156.98580474112185,-10.384744735841709,18.193261198253683,0.0818,-0.9799,-0.0905,0.1581
2020820.0,442.925247,1.0,-2.94,-1.46,-8.95,18.0,-8.69,48.06,-5.88,6.06,8.81,-0.08526726491384973,0.32506419550915555,0.2795957458072529,-157.21671751944734,-10.166142467644526,18.05401336431272,0.0802,-0.9803,-0.0886,0.1569
2020853.0,442.937256,1.0,-2.86,-1.27,-9.11,17.56,-9.06,47.69,-5.31,8.69,6.06,0.017785724374291823,0.46963249614830227,0.1856454273698649,-157.6856148741907,-9.844059122531188,17.763999776816537,0.0781,-0.9811,-0.0858,0.1544
2020888.0,442.948222,1.0,-2.78,-1.35,-9.17,17.56,-10.19,47.25,-4.44,4.56,3.06,0.04952961058667782,0.35873475223583806,0.13666260625364401,-158.1040290229696,-9.694547078719877,17.474100846214466,0.0768,-0.9818,-0.0845,0.1519
2020925.0,443.060929,1.0,-2.53,-1.56,-9.57,17.19,-9.88,46.88,-1.12,9.88,3.56,0.3308988896082492,0.14991574052358644,-0.2077112475084686,-158.40779810685115,-9.56804981789979,17.195903895593172,0.0764,-0.9823,-0.0834,0.1495
