TIME,ELAPSED_SECONDS,PSTATE,acc_x,acc_y,acc_z,mag_x,mag_y,mag_z,gyr_x,gyr_y,gyr_z,lin_x,lin_y,lin_z,eul_x,eul_y,eul_z,qua_w,qua_x,qua_y,qua_z
961990.0,314.118961,1.0,-0.95,1.04,-9.77,6.06,-25.06,43.0,-0.25,1.37,2.81,0.014443054227150864,-0.09088867094425622,-0.06393917429342366,-169.4938307856925,-5.92702598542953,5.318958088351593,-0.0598,-0.9958,-0.0517,0.0464
962023.0,314.124584,1.0,-0.91,1.42,-9.88,6.5,-25.5,42.06,2.56,1.37,-1.5,0.09238834771192883,0.2555478214276957,-0.2125844869341531,-169.4938307856925,-5.938500516393254,5.250129975900072,-0.0604,-0.9958,-0.0518,0.0458
962058.0,314.165185,1.0,-0.88,0.8,-9.91,8.38,-24.75,42.06,5.06,-0.44,2.38,0.05801562216797845,-0.33546995170590216,-0.16864919847454907,-169.36940436804014,-6.225383461526625,5.238658808769412,-0.0591,-0.9957,-0.0543,0.0457
962095.0,314.226047,1.0,-1.03,1.29,-9.68,6.88,-25.5,42.5,-5.44,0.19,3.75,-0.05577973689975352,0.16305737109876567,-0.011583085167707452,-169.36940436804014,-6.076199569788739,5.250129975900072,-0.0605,-0.9957,-0.053,0.0458
962127.0,314.247962,1.0,-0.97,1.21,-9.83,6.88,-25.5,42.5,2.5,-1.81,-0.44,0.01869349850872537,0.04866244753001757,-0.14479122825000168,-169.36940436804014,-6.064724315991071,5.318958088351593,-0.061,-0.9957,-0.0529,0.0464
962164.0,314.271901,1.0,-0.94,1.09,-10.04,6.88,-25.06,43.38,1.56,-1.44,1.81,0.061750855684225336,-0.0876901763184133,-0.33543051953835956,-169.36940436804014,-6.053249123067683,5.364844561963228,-0.0604,-0.9957,-0.0528,0.0468
962199.0,314.295796,1.0,-1.18,1.32,-9.5,5.69,-24.75,43.25,-1.5,-6.38,1.19,-0.17283474361262052,0.2237595610766016,0.14720592644032138,-169.36940436804014,-5.89260274896743,5.525454047712893,-0.0606,-0.9957,-0.0514,0.0482
962234.0,314.350647,1.0,-0.93,1.39,-9.99,5.69,-24.75,43.25,-1.06,-5.31,0.0,0.15359139815912531,0.19338711323794602,-0.3193616090613407,-169.24641346971597,-5.869654220523909,5.6860743970082765,-0.0612,-0.9956,-0.0512,0.0496
962269.0,314.424019,1.0,-0.1,1.9,-11.96,6.88,-25.06,42.56,-1.19,-37.63,-1.94,1.3459963619105637,0.3537922323628687,-2.2235089702731408,-168.88558009980704,-5.846705927689754,6.328670789467022,-0.0615,-0.9953,-0.051,0.0552
962306.0,314.492706,1.0,-1.78,0.98,-9.18,7.56,-25.5,42.56,41.63,-106.12,-28.12,-0.13126033333827025,0.030158980004249762,0.40542342253591457,-166.62885834304856,-6.386054856968827,9.76355056625781,-0.0565,-0.9932,-0.0557,0.0851
962340.0,314.562648,1.0,-2.88,0.71,-8.12,7.56,-25.5,42.56,30.94,-117.62,-25.62,-0.9022462992579914,0.12618145601983705,1.209968671973936,-164.19211217641143,-6.8451863308548155,13.114968872872081,-0.0481,-0.9905,-0.0597,0.1142
962375.0,314.567633,1.0,-3.81,-0.14,-6.88,10.56,-24.0,41.25,24.62,-58.31,-11.25,-1.7162267127230688,-0.3533876201643915,2.1385483404984553,-161.21954183361512,-7.4651897628112485,16.581911426258042,-0.0392,-0.9866,-0.0651,0.1442
962410.0,314.574644,1.0,-4.6,-1.02,-5.17,14.75,-23.25,41.69,5.69,8.81,4.31,-3.050544251942053,-0.9420783376072043,3.5828273665411583,-161.14943788464134,-7.4881569438495115,16.720885966499374,-0.0371,-0.9865,-0.0653,0.1454
962447.0,314.58061,1.0,-3.15,-0.7,-6.48,16.25,-22.06,41.69,-44.69,103.37,31.81,-1.5733363245578618,-1.0107277019671561,2.813371632717386,-163.37954086931006,-6.959986103018455,14.188281840563283,-0.0441,-0.9895,-0.0607,0.1235
962480.0,314.591194,1.0,-2.71,0.83,-6.32,16.25,-22.06,41.69,-70.0,122.25,38.0,-1.5955411930228949,0.2017353517387141,3.06951773551046,-166.62885834304856,-6.053249123067683,9.246109154854068,-0.0652,-0.9932,-0.0528,0.0806
962516.0,314.647186,1.0,-0.86,1.79,-6.28,11.69,-23.56,43.0,-78.19,228.5,54.0,-0.3619131831807062,0.788858935128788,3.2775749944339365,-168.7678701513817,-5.066597540981832,3.415334078437867,-0.082,-0.9952,-0.0442,0.0298
962553.0,314.678104,1.0,2.92,3.36,-9.64,6.06,-26.25,42.5,-79.94,312.94,49.69,1.6005881623535212,1.063045191154945,-0.6362256794331369,-164.70021747025422,-4.000057708800217,-8.349651905481078,-0.1055,-0.9911,-0.0349,-0.0728
962588.0,314.73477,1.0,4.05,2.5,-8.35,6.06,-26.25,42.5,-32.38,297.5,47.31,1.4398656855512195,0.2346179382527387,0.3068215157260763,-158.1040290229696,-3.541442893959926,-17.05684380992257,-0.1151,-0.9818,-0.0309,-0.1483
962623.0,314.747948,1.0,8.23,3.03,-13.01,-5.75,-29.25,40.06,-59.88,262.0,55.44,1.2007537405303865,-0.9290040005778458,-5.809656926463521,-148.6458749656724,-2.3149069396375412,-27.525259478424015,-0.1265,-0.9628,-0.0202,-0.2379
962658.0,314.769023,1.0,5.35,3.98,-8.73,-16.19,-30.37,34.88,-24.5,36.06,20.69,0.12370043617524962,1.095826167616619,-1.1231104371027616,-146.03734965989693,-1.4438918508267422,-29.843545089972302,-0.1368,-0.9564,-0.0126,-0.2575
962695.0,314.792413,1.0,6.57,3.16,-9.0,-20.37,-31.19,32.88,-14.31,45.69,21.94,0.744266690021202,0.18019140672429407,-1.750343473696681,-144.690009668053,-0.8136069048374162,-31.471372637897833,-0.1356,-0.9529,-0.0071,-0.2712
962729.0,314.859199,1.0,8.93,4.19,-11.53,-20.37,-31.19,32.88,2.06,12.94,-1.94,1.1952121842209746,0.28735012516386466,-5.31719864180603,-143.97904817901195,-0.7677691897415189,-32.17439925332779,-0.1367,-0.951,-0.0067,-0.2771
962766.0,314.927051,1.0,8.38,4.57,-10.43,-21.5,-30.75,32.75,5.38,-54.88,-23.25,1.6228471810090075,0.9780605013498572,-4.204201675854343,-145.1845495539276,-1.1573944243672372,-30.864650439334792,-0.1361,-0.9542,-0.0101,-0.2661
962801.0,314.951952,1.0,7.31,4.18,-9.26,-20.75,-30.75,32.5,18.94,-60.25,-43.44,1.922700724787298,0.9400769594484428,-2.5252426865755897,-147.47959058337605,-2.452446574526375,-28.316392423916934,-0.1349,-0.96,-0.0214,-0.2446
962836.0,314.998827,1.0,7.57,4.85,-10.05,-20.75,-30.75,32.5,21.94,-75.69,-67.94,2.3392548577634447,1.2275975015287928,-3.416465785799895,-149.20198320614298,-4.000057708800217,-26.099850978803428,-0.1352,-0.9641,-0.0349,-0.2258
962871.0,315.00481,1.0,6.21,4.22,-8.43,-19.56,-31.5,33.5,43.88,-109.37,-77.37,2.790348802858527,1.1198718020486371,-1.0743996141393577,-152.7702885732456,-6.672999532212699,-21.695513718287582,-0.1289,-0.9719,-0.0582,-0.1882
962908.0,315.011881,1.0,3.77,3.04,-9.59,-14.38,-31.5,34.69,53.75,-108.0,-85.56,0.7090657195897627,0.1348800478122345,-0.9125679368648338,-155.05511767406654,-8.981712713320505,-18.3441436046709,-0.1224,-0.9764,-0.0783,-0.1594
962945.0,315.044661,1.0,3.14,3.2,-9.28,-9.19,-31.06,37.19,63.06,-156.88,-96.12,1.4582218563448448,0.5144752120865564,-0.3828987767529082,-158.5921035424659,-12.169567773976446,-12.06585603312212,-0.1105,-0.9826,-0.106,-0.1051
962979.0,315.144693,1.0,-0.52,0.56,-8.68,-9.19,-31.06,37.19,96.94,-177.75,-68.69,-1.5208521743126941,-0.8019390737606336,1.2643843528859815,-161.14943788464134,-14.142092768246478,-6.374577915681861,-0.0926,-0.9865,-0.1231,-0.0556
963016.0,315.154367,1.0,-1.76,-0.54,-8.74,-2.06,-29.56,40.0,80.06,-163.56,-49.75,-1.8989681862830572,-1.3326602688755464,1.181411659220922,-161.9354035928643,-15.887402736014533,0.8021474641450599,-0.0742,-0.9876,-0.1382,0.007
963051.0,315.162345,1.0,-3.44,-0.95,-8.09,5.0,-26.56,42.0,50.94,-134.31,-31.75,-2.97417545746297,-1.0471064586460592,1.545775445058096,-161.07959134463852,-16.66297690980209,5.250129975900072,-0.0627,-0.9864,-0.1449,0.0458
963086.0,315.219218,1.0,-6.94,-1.35,-6.3,5.0,-26.56,42.0,34.81,-77.06,13.13,-6.0507773843650225,-0.22011766479521766,2.5254590769090584,-159.79792218460952,-16.651395613206024,9.315090195791667,-0.0566,-0.9845,-0.1448,0.0812
963121.0,315.29259,1.0,-6.88,-2.23,-7.73,11.69,-24.37,41.69,54.06,-30.5,62.75,-5.7150111742077625,-1.3650551565182494,1.0012271425590598,-161.21954183361512,-14.315313760812993,11.086833319532733,-0.0433,-0.9866,-0.1246,0.0966
963158.0,315.371786,1.0,-5.69,-3.85,-3.85,13.19,-22.06,41.56,99.75,-94.94,92.94,-5.293638762386552,-2.976804245766194,4.792956238336155,-161.86255690793462,-11.31711591010567,13.79574779269871,-0.0249,-0.9875,-0.0986,0.1201
963192.0,315.39746,1.0,-5.31,-4.69,0.01,13.19,-22.06,41.56,39.19,3.88,98.37,-5.707821568370252,-3.9970329860763183,8.52727505422953,-163.6997403388332,-7.304427851725569,14.442363367873067,-0.0125,-0.9899,-0.0637,0.1257
963227.0,315.403723,1.0,5.92,3.31,-13.97,14.69,-21.75,42.88,-100.0,83.69,89.06,8.67932518374331,1.8543159145326642,-2.936749344129103,-167.54604215985927,-4.733977821845079,10.868106466869213,-0.0316,-0.9941,-0.0413,0.0947
963262.0,315.408686,1.0,2.22,7.2,-11.81,11.38,-21.37,43.56,-143.19,-3.94,4.75,4.921612175713979,5.108846677976951,-2.273164535529416,-165.49550626988113,-4.000057708800217,10.810553401892456,-0.0764,-0.992,-0.0349,0.0942
963299.0,315.414706,1.0,-1.17,4.23,-9.6,9.5,-26.56,40.69,2.56,14.25,25.81,0.8299029548962245,2.586150756593051,-0.39358947511173703,-165.58656489485412,-3.564372225995784,10.269686237501054,-0.0829,-0.9921,-0.0311,0.0895
963332.0,315.490707,1.0,-1.02,1.19,-10.26,9.5,-26.56,40.69,61.56,8.31,30.37,0.7704189988203197,-0.20686636897709038,-0.5416716451578729,-167.233021952493,-2.2575997541901875,9.798053639345571,-0.0676,-0.9938,-0.0197,0.0854
963368.0,315.521643,1.0,-1.23,0.9,-10.38,8.69,-27.0,39.5,-15.56,2.06,4.19,0.547312900500605,-0.46001089633468745,-0.6602568288677784,-167.54604215985927,-1.9137679978932431,9.683046840720888,-0.0654,-0.9941,-0.0167,0.0844
963405.0,315.530578,1.0,-1.49,2.38,-9.36,8.38,-26.69,41.88,-32.31,-1.19,8.38,0.19073362999001753,0.9321624650137283,0.08097296335055226,-166.72765058183754,-1.7647797695524667,9.729048380447907,-0.0764,-0.9933,-0.0154,0.0848
963438.0,315.543677,1.0,-1.22,2.27,-9.55,8.38,-26.69,41.88,-9.94,3.88,12.56,0.45355051753669867,0.7206890099120457,-0.048232002288724374,-166.62885834304856,-1.4553519237055776,9.60254790532585,-0.0798,-0.9932,-0.0127,0.0837
963473.0,315.625483,1.0,-1.32,1.62,-9.47,8.38,-27.0,40.75,-2.56,0.94,7.44,0.2949761459027236,0.05813973219470273,0.11349216341811719,-166.62885834304856,-1.1803139285143014,9.499056247386589,-0.0815,-0.9932,-0.0103,0.0828
963508.0,315.63047,1.0,-1.64,2.39,-9.21,7.56,-28.5,40.25,-12.0,-9.5,0.56,-0.0029503414464232547,0.7997355144624999,0.18447693969845602,-166.14541230093116,-1.1459346897143055,9.706047414595151,-0.0847,-0.9927,-0.01,0.0846
963545.0,315.6438,1.0,-1.79,1.58,-9.49,8.06,-28.06,40.25,9.75,2.19,0.25,-0.13331734847549137,-0.007415872186500343,0.021826471216497723,-166.33674754112943,-1.1803139285143014,9.694547078719877,-0.0828,-0.9929,-0.0103,0.0845
963577.0,315.702721,1.0,-1.65,1.61,-9.68,8.06,-28.06,40.25,-2.5,8.63,0.31,-0.0004954341625835745,-0.01140943160355434,-0.14407206321809873,-166.53078742603913,-1.1917736982377245,9.476059158737442,-0.0829,-0.9931,-0.0104,0.0826
963614.0,315.736681,1.0,-1.45,1.82,-9.71,7.56,-27.75,41.88,-0.56,0.69,0.56,0.19538506836446878,0.17359406968069377,-0.1748674083919699,-166.4334221875333,-1.2146932735575866,9.395572354596672,-0.0837,-0.993,-0.0106,0.0819
963649.0,315.756785,1.0,-1.73,1.9,-9.39,6.88,-27.0,39.88,-8.38,-9.56,1.69,-0.10271414316552685,0.27681781625759316,0.07588324185621076,-166.24074892993923,-1.100095864564908,9.56804981789979,-0.0852,-0.9928,-0.0096,0.0834
963684.0,315.783743,1.0,-1.7,2.18,-9.45,6.88,-27.0,39.88,-6.56,-1.5,0.19,-0.04049234945112279,0.5084868652434709,-0.02618791575508439,-166.05072408085044,-1.0886361860699356,9.648546712798435,-0.0869,-0.9926,-0.0095,0.0841
963719.0,315.837936,1.0,-1.9,1.63,-9.18,6.5,-28.06,40.25,3.0,6.81,-0.44,-0.32137534151045766,0.03381069920065505,0.29692472917915325,-166.24074892993923,-0.9740399810272837,9.53355259965066,-0.0858,-0.9928,-0.0085,0.0831
963756.0,315.899056,1.0,-1.56,1.42,-9.65,7.25,-28.5,40.25,2.25,8.0,2.31,0.032352382368300625,-0.25063018141551074,-0.06799621318246274,-166.4334221875333,-0.9282017781870658,9.23461264182475,-0.0856,-0.993,-0.0081,0.0805
963788.0,315.971904,1.0,-1.62,1.68,-9.44,7.25,-28.5,40.25,-0.06,3.13,2.44,-0.06666639436992206,0.03143230721265466,0.08271213502343322,-166.4334221875333,-0.8823637238721431,9.154139652218912,-0.0861,-0.993,-0.0077,0.0798
963823.0,315.980881,1.0,-1.79,1.97,-9.24,7.69,-28.87,40.25,-0.5,2.25,-0.37,-0.27458649535266,0.34093429087159643,0.20087225606495274,-166.53078742603913,-0.893823223927814,9.050681021579292,-0.0867,-0.9931,-0.0078,0.0789
963858.0,315.991852,1.0,-1.56,2.26,-9.25,6.56,-28.06,40.75,-2.13,3.81,-0.81,-0.06160859818702291,0.6202758647997543,0.17777871452856253,-166.62885834304856,-0.8479852761926534,8.912747665103911,-0.0869,-0.9932,-0.0074,0.0777
