TIME,ELAPSED_SECONDS,PSTATE,acc_x,acc_y,acc_z,mag_x,mag_y,mag_z,gyr_x,gyr_y,gyr_z,lin_x,lin_y,lin_z,eul_x,eul_y,eul_z,qua_w,qua_x,qua_y,qua_z
1110900.0,463.284894,1.0,0.91,1.1,-10.17,-2.06,-25.87,42.38,1.81,2.56,-3.69,0.37823137365351506,0.05689843424898987,-0.45593756825802956,-173.3172743700655,0.9740399810272837,-2.922401528803222,-0.0515,-0.9983,0.0085,-0.0255
1110935.0,463.307672,1.0,0.54,0.89,-9.64,-2.06,-25.87,42.38,2.75,5.88,-2.75,0.013106708949035095,-0.08972414516986484,0.11102842157842474,-173.5168579087077,0.8479852761926534,-3.082884815106741,-0.0508,-0.9984,0.0074,-0.0269
1110972.0,463.396924,1.0,0.63,0.74,-9.87,-2.38,-25.06,42.88,1.81,9.25,0.06,0.051838921622743395,-0.2500892877455095,-0.1077923985597895,-173.3172743700655,0.8021474641450599,-3.3236211837162597,-0.0502,-0.9983,0.007,-0.029
1111007.0,463.4005,1.0,0.88,0.96,-10.22,-2.75,-26.56,42.88,-1.94,1.19,0.06,0.25093231577444736,-0.07427450436516854,-0.49266630113870313,-173.1234747164887,0.8021474641450599,-3.4726557451993814,-0.0507,-0.9982,0.007,-0.0303
1111042.0,463.417803,1.0,0.72,1.14,-9.98,-2.75,-26.56,42.88,-1.31,2.31,0.94,0.09443899736270323,0.11539547834383755,-0.26291628457030214,-173.1234747164887,0.8136069048374162,-3.5185137037623337,-0.0513,-0.9982,0.0071,-0.0307
1111074.0,463.49633,1.0,0.76,1.08,-10.03,-2.75,-26.19,43.19,-1.63,2.63,1.12,0.11386880597066118,0.04093779890850876,-0.30919193192278804,-172.93498296022827,0.8479852761926534,-3.6216961826700946,-0.0518,-0.9981,0.0074,-0.0316
1111111.0,463.61701,1.0,0.88,1.29,-10.07,-2.75,-25.5,42.75,-4.25,-0.69,2.31,0.22056226230517934,0.2250493831559778,-0.3788350185736338,-172.75138501198413,0.9052827329224427,-3.656090990936744,-0.0529,-0.998,0.0079,-0.0319
1111144.0,463.73692,1.0,0.76,1.51,-9.77,-2.75,-25.5,42.75,-3.81,-9.13,0.19,0.1463654701160303,0.45302726199591087,-0.09708381351933326,-172.75138501198413,0.9511208605830096,-3.4726557451993814,-0.054,-0.998,0.0083,-0.0303
1111179.0,463.870325,1.0,0.61,1.42,-9.69,-2.75,-26.19,42.75,0.06,-2.81,-1.06,0.040772714143126776,0.3586763301520227,0.0008206686292933085,-172.75138501198413,0.9282017781870658,-3.2548379133840775,-0.0546,-0.998,0.0081,-0.0284
1111214.0,463.940156,1.0,0.88,1.27,-10.14,-2.75,-26.19,42.5,-2.44,-8.25,-1.19,0.3336107749557841,0.15587570086314773,-0.44377958205722123,-172.93498296022827,0.893823223927814,-3.002642435633463,-0.055,-0.9981,0.0078,-0.0262
1111250.0,463.944129,1.0,0.68,1.5,-9.76,-2.75,-25.87,42.88,-3.56,-10.19,-4.44,0.20604177862063325,0.40791026425962224,-0.08077413380625842,-173.1234747164887,0.8021474641450599,-2.681687249969397,-0.0558,-0.9982,0.007,-0.0234
1111283.0,463.948116,1.0,1.14,1.56,-10.69,-2.75,-25.87,42.88,-0.06,-13.5,-6.88,0.7229294019552908,0.344583675016839,-1.026998285351544,-173.1234747164887,0.5729601824818275,-2.165909426065293,-0.0568,-0.9982,0.005,-0.0189
1111322.0,463.952105,1.0,0.98,2.11,-10.97,-2.06,-27.0,43.19,1.31,-100.25,-24.69,0.979540493195189,0.8562193147731189,-1.3316078937282807,-173.5168579087077,0.10313241704642769,0.011459155921715059,-0.0567,-0.9984,0.0009,0.0001
1111357.0,463.956094,1.0,0.68,2.38,-10.84,-0.25,-26.56,43.19,7.19,-102.81,-38.06,1.539987679603936,1.1667964133958122,-1.143209545964723,-172.22653193357402,-1.1803139285143014,4.321125783265932,-0.0545,-0.9977,-0.0103,0.0377
1111392.0,463.973573,1.0,-0.04,2.91,-10.27,-0.25,-26.56,43.19,6.19,-182.44,-78.62,1.7465773386614785,1.773332728624399,-0.5734925150940864,-168.6513771745933,-2.87655022805785,9.22311622194562,-0.0527,-0.9951,-0.0251,0.0804
1111427.0,464.004993,1.0,-3.59,1.24,-5.7,3.88,-26.19,42.88,36.56,-158.56,-85.5,-1.7813967813138467,1.0044394323527872,3.2695690815579237,-162.6046318184389,-5.6860743970082765,15.748572284340511,-0.0408,-0.9885,-0.0496,0.137
1111461.0,464.00995,1.0,-5.11,-2.41,-5.12,11.38,-25.87,42.75,70.62,-46.31,-50.81,-3.574286464659253,-2.1300676884789933,3.417449117960726,-160.32749140960402,-7.304427851725569,18.019205613951,-0.0241,-0.9853,-0.0637,0.1566
1111498.0,464.013939,1.0,-5.92,-3.56,-3.27,16.87,-23.19,41.19,-15.5,81.81,18.62,-5.128102744043423,-2.9593783196678416,4.973685877681868,-161.4314273445042,-7.304427851725569,16.987323268750952,-0.0137,-0.9869,-0.0637,0.1477
1111533.0,464.016932,1.0,-4.6,-0.36,-1.86,16.87,-23.19,41.19,-45.38,217.13,42.44,-4.128485005939823,0.037776155537357886,7.031152834120907,-166.05072408085044,-6.48935022815341,12.042810329741007,-0.0214,-0.9926,-0.0566,0.1049
1111570.0,464.020923,1.0,0.54,0.37,-7.59,15.06,-21.37,42.75,9.56,310.44,60.88,0.6258437029245302,-0.059971405534892754,2.214461706100284,-174.38562149779352,-4.75691579950709,0.5500415954991054,-0.0251,-0.9988,-0.0415,0.0048
1111607.0,464.036879,1.0,2.88,-1.39,-8.02,3.88,-23.56,44.0,28.94,242.06,63.31,1.7738791052813858,-1.7377903424919545,1.537409548459859,-172.0592752206678,-3.1287382797377283,-7.166643396943946,-0.0135,-0.9976,-0.0273,-0.0625
1111642.0,464.078786,1.0,6.92,3.44,-11.08,3.88,-23.56,44.0,-71.87,242.5,37.19,3.5225384698420834,2.7488546996513143,-2.941758550430416,-163.22171672296716,-1.1230152546764245,-16.51243337847321,-0.0244,-0.9893,-0.0098,-0.1436
1111674.0,464.080786,1.0,8.23,2.6,-13.09,-6.56,-23.56,43.69,-15.25,215.88,12.81,1.9136051576570643,1.5778860717631862,-5.6752552718043745,-154.68638599830706,-0.5500415954991054,-24.995350383000982,-0.0332,-0.9757,-0.0048,-0.2164
1111711.0,464.102703,1.0,9.62,2.02,-15.57,-16.25,-24.0,40.0,16.94,68.44,4.13,1.0382361278905545,0.9308219152765447,-8.55377854360387,-151.34635737161238,-0.5844194845105756,-28.422768181257144,-0.0295,-0.9689,-0.0051,-0.2455
1111748.0,464.12667,1.0,8.86,2.19,-14.72,-22.37,-23.5,38.38,43.88,-67.75,-22.94,1.3738336538705562,1.455207331660757,-7.397101123326957,-153.3110465719337,-1.535572847865537,-26.5588202853178,-0.0181,-0.973,-0.0134,-0.2297
1111783.0,464.174561,1.0,7.0,0.63,-12.64,-22.37,-23.5,38.38,46.88,-237.56,-49.06,2.0503787636235833,0.17118776037708355,-4.50883607894187,-158.84031180775503,-3.082884815106741,-20.890980569305803,-0.0077,-0.983,-0.0269,-0.1813
1111822.0,464.195835,1.0,3.97,-0.4,-10.46,-17.87,-22.75,40.88,21.56,-248.94,-36.25,1.8433632345064208,-0.6904936015795367,-1.2141362955348072,-167.86710278173726,-4.8486696265391345,-11.052294827398207,-0.002,-0.9944,-0.0423,-0.0963
1111857.0,464.277939,1.0,1.18,0.49,-8.07,-8.5,-22.06,45.0,-8.13,-212.38,-30.81,0.5932870458671293,0.31866276631337226,1.6639315029271824,-172.75138501198413,-5.7090210665439,-4.424333322525306,-0.0051,-0.998,-0.0498,-0.0386
1111891.0,464.284965,1.0,-0.87,-0.73,-7.21,-8.5,-22.06,45.0,2.94,-157.63,-25.19,-0.6776971995603116,-0.7381819390373148,2.5768703401080577,-172.75138501198413,-6.776309776380446,2.2117544130994498,-0.0069,-0.998,-0.0591,0.0193
1111926.0,464.306668,1.0,-1.52,-1.41,-7.44,0.0,-22.5,44.38,2.56,-111.69,-6.63,-0.7925382764828524,-1.3945966812047923,2.251579968750643,-170.0069733247971,-7.155161830094744,6.879625535030392,-0.0086,-0.9962,-0.0624,0.06
1111961.0,464.382669,1.0,-1.61,-1.15,-8.43,6.88,-22.06,44.0,-10.63,-92.5,15.25,-0.32297707954030075,-1.2447071414605948,1.243596225902314,-168.08593042045837,-6.810747745686071,9.60254790532585,-0.0123,-0.9946,-0.0594,0.0837
1111998.0,464.435554,1.0,-2.55,-1.28,-7.35,9.88,-22.06,44.56,-23.31,-81.62,29.62,-1.0026426079548691,-1.4243575211233281,2.117091270610329,-165.6781993872616,-5.812283928177061,12.768989848771895,-0.0215,-0.9922,-0.0507,0.1112
1112033.0,464.441505,1.0,-3.34,-0.33,-6.94,9.88,-22.06,44.56,-26.75,-47.81,46.88,-1.5626214860255119,-0.5792606318051432,2.279979340813953,-164.61437509688025,-4.642227799866185,14.280666944469896,-0.0308,-0.991,-0.0405,0.1243
1112070.0,464.452106,1.0,-3.45,-0.76,-6.83,13.06,-23.19,42.38,-17.69,-12.38,59.0,-1.592800149211219,-1.209559565019599,2.3817625703252334,-163.9440511277747,-2.647300486778665,15.1934809103634,-0.0394,-0.9902,-0.0231,0.1322
1112104.0,464.514031,1.0,-3.19,0.72,-6.76,13.56,-24.0,41.75,-37.81,20.44,71.0,-1.3458705255036238,0.04918979418787506,2.418936355527282,-164.10899767779725,-0.8365258107465946,14.788953503219902,-0.0493,-0.9904,-0.0073,0.1287
1112139.0,464.517049,1.0,-2.96,0.51,-6.81,13.56,-24.0,41.75,-25.12,54.63,83.5,-1.3494878457122697,-0.439729504013121,2.5002609795894903,-165.0484852184611,1.8793858210517667,12.999629346780692,-0.0617,-0.9915,0.0164,0.1132
1112174.0,464.560095,1.0,-3.2,1.81,-4.91,12.0,-26.06,42.06,-30.31,119.44,91.12,-2.5147077390011057,0.7561034306614409,4.263297892335362,-166.72765058183754,4.89454770282183,8.671395302011163,-0.0768,-0.9933,0.0427,0.0756
1112213.0,464.617703,1.0,0.13,2.37,-6.29,6.38,-28.0,42.06,-34.38,241.81,94.12,0.17750016842818178,1.2355856044408011,3.200613222604143,-167.44083871780595,7.028869316139516,2.383676327772471,-0.0889,-0.994,0.0613,0.0208
1112248.0,464.65261,1.0,3.5,3.39,-11.91,6.38,-28.0,42.06,-53.94,206.06,79.31,1.8048198932386559,1.0748626813275075,-2.8889199111642654,-163.06535294380294,9.384074619875278,-6.11062569758793,-0.1107,-0.9891,0.0818,-0.0533
1112283.0,464.671984,1.0,1.3,4.79,-6.97,-2.88,-29.06,40.88,-27.75,114.31,64.19,-0.7450414764002213,2.987208811920449,1.8231359421162052,-159.66766312617878,10.92566228171013,-9.76355056625781,-0.1222,-0.9843,0.0952,-0.0851
1112320.0,464.697774,1.0,3.46,1.3,-6.6,-10.75,-31.06,38.5,87.25,199.44,58.25,1.258921588794977,0.2508253032089178,2.3518660929684847,-155.91878451766874,12.342442956629046,-16.24615724549883,-0.1091,-0.978,0.1075,-0.1413
1112354.0,464.771987,1.0,7.57,1.93,-12.98,-16.37,-30.0,37.69,-17.56,140.06,61.31,1.8847393496523277,0.07508030615473599,-5.225060499191363,-151.71920090048613,13.334150842815472,-21.730517688284202,-0.1034,-0.9697,0.1161,-0.1885
1112389.0,464.810908,1.0,6.2,5.15,-10.8,-16.37,-30.0,37.69,-10.75,68.12,30.44,-0.18327177065597589,2.9990525395103163,-3.330115025048496,-147.97436096195162,14.962299399917931,-24.479166312304468,-0.1191,-0.9612,0.1302,-0.212
1112424.0,464.8159,1.0,6.18,1.59,-10.27,-22.25,-28.06,34.5,38.69,61.94,15.25,0.6314525938706228,-0.11774177472602498,-2.267322192123787,-146.59103083752737,15.077882439571027,-26.499953978465857,-0.1132,-0.9578,0.1312,-0.2292
1112463.0,464.849762,1.0,6.66,2.25,-11.31,-25.0,-27.69,32.06,-10.94,17.69,11.13,-0.02169216067284596,0.3535266467783133,-3.5053276276924006,-145.1845495539276,15.262847451308845,-28.35184823709937,-0.1093,-0.9542,0.1328,-0.2449
1112498.0,464.925676,1.0,5.22,2.38,-8.56,-25.0,-27.69,32.06,-17.0,-16.25,-7.19,0.02052497444602608,0.8581282072837806,-0.4622153075833051,-145.29964361056955,15.424724640986323,-27.8321052726943,-0.1145,-0.9545,0.1342,-0.2405
1112532.0,464.93254,1.0,4.63,1.95,-8.16,-26.87,-27.0,33.25,-5.94,-0.75,-7.06,-0.13974874734289422,0.403361308853693,0.23362696951814854,-145.41510886588998,15.170359975770202,-27.690458980540107,-0.1167,-0.9548,0.132,-0.2393
1112567.0,464.951921,1.0,4.47,1.68,-7.98,-26.06,-28.06,32.5,0.56,5.94,-7.63,-0.12775235648669137,0.13454417753049808,0.5088396556390897,-145.41510886588998,14.858287755594212,-27.8321052726943,-0.1179,-0.9548,0.1293,-0.2405
1112604.0,465.029782,1.0,4.48,1.69,-8.0,-26.5,-28.5,31.19,-10.56,9.31,-1.5,-0.16669586949412807,0.08945041124824249,0.4851312873104696,-145.108024588444,14.788953503219902,-28.091903034402698,-0.1202,-0.954,0.1287,-0.2427
1112637.0,465.03776,1.0,4.61,1.98,-8.19,-26.5,-28.5,31.19,-7.69,11.19,1.0,-0.2789313989359421,0.2603632569813915,0.20961877940361973,-144.65224571956077,14.858287755594212,-28.43458925193111,-0.1236,-0.9528,0.1293,-0.2456
1112674.0,465.054817,1.0,4.91,2.49,-8.47,-26.5,-27.69,31.19,-10.06,-0.37,0.44,-0.3290391894623679,0.6674587318044463,-0.2678391708282657,-144.35152835071236,14.950741939900693,-28.576466242295997,-0.1257,-0.952,0.1301,-0.2468
1112711.0,465.117719,1.0,4.91,1.97,-7.98,-26.5,-27.69,32.5,10.63,1.06,-5.81,0.056080155334926385,0.34049363672005345,0.238456905192038,-144.53918747848587,14.719624694799501,-28.552816976564145,-0.1247,-0.9525,0.1281,-0.2466
1112743.0,465.160601,1.0,4.97,1.8,-8.23,-26.5,-27.69,32.5,0.19,3.5,-2.19,0.034553624678128614,0.11965739110495432,0.026144483628387505,-144.53918747848587,14.569430825374985,-28.65924846946876,-0.1241,-0.9525,0.1268,-0.2475
1112778.0,465.166589,1.0,4.98,1.72,-8.37,-26.87,-28.06,32.0,-2.69,3.5,0.88,-0.013134179245617439,-0.01674398158199264,-0.08350910551575907,-144.38898361895096,14.592535930080526,-28.777535311725245,-0.1251,-0.9521,0.127,-0.2485
1112815.0,465.194024,1.0,5.02,2.19,-8.32,-27.19,-28.87,32.5,-7.19,-0.94,2.31,-0.10035526414334095,0.4182889875185923,-0.14492591258185605,-144.23939029133865,14.73117911928188,-28.76570522000204,-0.1268,-0.9517,0.1282,-0.2484
