TIME,ELAPSED_SECONDS,PSTATE,acc_x,acc_y,acc_z,mag_x,mag_y,mag_z,gyr_x,gyr_y,gyr_z,lin_x,lin_y,lin_z,eul_x,eul_y,eul_z,qua_w,qua_x,qua_y,qua_z
2226118.0,648.644907,1.0,-2.37,-0.9,-9.67,21.37,-11.25,45.25,-1.88,5.44,1.06,0.15135047187188166,-0.15760018071623152,-0.18775119355343683,-146.1552551844325,-29.80796936990455,15.690733139619654,0.0071,-0.9567,-0.2572,0.1365
2226151.0,648.656629,1.0,-2.34,-0.8,-9.64,21.37,-12.06,46.5,-4.25,5.44,3.5,0.18239674694083785,-0.08333597670188032,-0.14347495105928765,-146.35265556905202,-29.68940484166728,15.494110041456644,0.0068,-0.9572,-0.2562,0.1348
2226188.0,648.668593,1.0,-2.41,-0.8,-9.4,21.37,-12.38,46.88,-1.94,2.63,1.5,0.030437592696545,-0.045942918548965456,0.06986085772182982,-146.5113892939378,-29.57087281914313,15.332219618835126,0.006,-0.9576,-0.2552,0.1334
2226221.0,648.678577,1.0,-2.29,-0.63,-9.66,21.37,-12.38,46.88,-2.63,3.81,1.5,0.2570899606406507,0.02564111374306871,-0.13768744828803747,-146.59103083752737,-29.535319528051428,15.205041610922962,0.0056,-0.9578,-0.2549,0.1323
2226257.0,648.728713,1.0,-2.39,-0.62,-9.58,20.25,-12.38,46.06,-1.94,3.44,1.44,0.1319240381080986,0.07658675406738566,-0.08524721526010737,-146.83107004149565,-29.357596603435574,15.077882439571027,0.0049,-0.9584,-0.2534,0.1312
2226292.0,648.738363,1.0,-2.34,-0.71,-9.48,20.25,-12.06,46.38,1.0,4.06,0.25,0.08421490323814007,-0.013204020069991773,0.016714683363501237,-146.992038514199,-29.262840587223423,14.950741939900693,0.0051,-0.9588,-0.2526,0.1301
2226327.0,648.741354,1.0,-2.28,-0.67,-9.65,20.25,-12.06,46.38,-1.5,3.13,-0.06,0.1721694422346678,-0.008523951771977747,-0.13015456813994142,-147.03240000479883,-29.262840587223423,14.800508833176536,0.0052,-0.9589,-0.2526,0.1288
2226362.0,648.778901,1.0,-2.35,-0.8,-9.59,19.87,-12.38,45.25,-0.25,1.25,-0.12,0.025519371337654473,-0.08338278390977738,-0.09905522845465953,-147.15377378773437,-29.203628467396104,14.742733694368157,0.0052,-0.9592,-0.2521,0.1283
2226397.0,648.812567,1.0,-2.2,-0.7,-9.65,19.87,-12.75,46.06,0.75,2.25,0.12,0.190184206798915,-0.06416908498765761,-0.11364295414284165,-147.31628725286765,-29.073389830335397,14.592535930080526,0.0054,-0.9596,-0.251,0.127
2226432.0,648.838497,1.0,-2.25,-0.7,-9.59,19.87,-12.75,46.06,0.44,0.94,-0.19,0.12877482421260167,-0.03772166081933508,-0.06769018661267623,-147.35703857325035,-29.073389830335397,14.569430825374985,0.0053,-0.9597,-0.251,0.1268
2226464.0,648.892964,1.0,-2.33,-0.66,-9.56,21.37,-12.38,46.38,-1.25,1.19,0.94,0.06584231004131991,0.032346260732776994,-0.05502929460419459,-147.31628725286765,-29.120744884467253,14.534774284595127,0.0049,-0.9596,-0.2514,0.1265
2226501.0,648.920691,1.0,-2.21,-0.66,-9.55,21.06,-12.75,45.25,-0.5,4.63,0.94,0.14389154187978193,-0.017833518059394832,-0.016851269395202095,-147.35703857325035,-29.120744884467253,14.407711711634986,0.005,-0.9597,-0.2514,0.1254
2226536.0,649.01162,1.0,-2.22,-0.58,-9.46,20.25,-13.19,45.69,0.37,4.0,-0.63,0.12477962931635567,0.0744300714049469,0.073444453594524,-147.47959058337605,-29.10890564472929,14.2344732300193,0.0053,-0.96,-0.2513,0.1239
2226571.0,649.107189,1.0,-2.31,-0.93,-9.24,20.25,-13.19,45.69,0.69,7.44,-0.63,-0.19865801650312975,-0.1555862031682285,0.24030650178383262,-147.52054122823532,-29.120744884467253,14.049721543626418,0.006,-0.9601,-0.2514,0.1223
2226608.0,649.159118,1.0,-2.5,-1.15,-8.58,20.25,-13.19,45.25,-2.0,17.31,1.12,-0.688166166069224,-0.19163166684797633,0.8245230452003387,-147.72605283657722,-29.10890564472929,13.588001782657653,0.0068,-0.9606,-0.2513,0.1183
2226642.0,649.163069,1.0,-2.82,-1.81,-7.64,19.19,-13.19,46.38,-3.31,33.13,2.94,-1.595566066667524,-0.5343654159137391,1.635559342739219,-148.2664446111409,-28.90768703373302,12.803582439206055,0.0079,-0.9619,-0.2496,0.1115
2226677.0,649.167059,1.0,-3.5,-3.04,-5.98,19.19,-13.19,46.38,-12.81,88.5,21.12,-3.391207999273956,-1.1493312058739475,3.141010789476776,-149.63651807466178,-28.44641063157099,10.292697102933527,0.0104,-0.9651,-0.2457,0.0897
2226712.0,649.170021,1.0,-3.35,-3.09,-3.36,18.75,-12.75,46.75,-29.31,160.06,49.13,-4.092038449543577,-1.2281506473003283,6.090863768932234,-152.81901206638815,-26.723683975588177,4.481672390551605,0.0127,-0.972,-0.2311,0.0391
2226749.0,649.172554,1.0,0.5,-1.55,-2.11,15.06,-13.56,47.56,-58.75,313.0,81.81,-0.3038797711183181,-1.5250459958952405,7.641819338006094,-155.214797761141,-24.40881688456287,-3.6216961826700946,0.0154,-0.9767,-0.2114,-0.0316
2226786.0,649.206271,1.0,4.96,-1.12,-3.2,15.06,-13.56,47.56,-82.25,388.44,92.37,3.0339908241610933,-2.4392704826389435,5.23053164582332,-152.3835367338065,-20.36684806544824,-18.367359123247535,0.017,-0.9711,-0.1768,-0.1596
2226821.0,649.23371,1.0,9.21,2.1,-4.6,4.56,-15.38,48.06,-116.06,379.38,101.81,5.940036711555749,-0.06305673408264512,1.1402731495706977,-145.60838601203167,-16.651395613206024,-29.867263871711454,0.0096,-0.9553,-0.1448,-0.2577
2226857.0,649.291871,1.0,11.63,2.26,-6.06,-12.06,-18.37,44.75,-44.25,316.63,104.62,4.495617340028213,0.7545842707737405,-2.695674876211566,-134.64810211296725,-11.777819636455906,-43.59162801664085,0.0143,-0.9227,-0.1026,-0.3713
2226892.0,649.306187,1.0,13.13,3.06,-7.23,-27.5,-18.37,36.75,-14.38,265.56,92.12,2.862045812671786,2.3073559339108742,-5.043205297625432,-127.42938014555915,-8.751841754333862,-51.634227840640925,0.0247,-0.8966,-0.0763,-0.4355
2226927.0,649.35203,1.0,14.36,3.21,-9.91,-27.5,-18.37,36.75,7.94,213.13,40.56,-1.1805439458571003,3.647988969150439,-7.514443859016437,-118.72304914641387,-6.3631010384043885,-60.662704726542785,0.0407,-0.8604,-0.0555,-0.505
2226962.0,649.457512,1.0,14.79,2.49,-11.98,-37.25,-16.25,30.37,-4.5,117.37,-2.31,-4.539768326720033,3.431526534747892,-8.525827442534355,-113.5447060570436,-5.9729244673372195,-65.85808871965587,0.0436,-0.8365,-0.0521,-0.5436
2226999.0,649.472427,1.0,12.56,0.24,-7.95,-43.25,-14.38,23.06,2.81,-23.62,-33.38,-2.1660089500194566,0.5894007115241069,-4.889428117296818,-113.29417835148298,-6.672999532212699,-66.09033392975714,0.0396,-0.8353,-0.0582,-0.5453
2227036.0,649.481533,1.0,10.67,-1.27,-5.04,-43.25,-14.38,23.06,-5.75,-61.75,-22.25,-0.08722053291496401,-1.4341532164870048,-1.9746486181608205,-115.3224465772307,-7.499640647274436,-63.98388526065868,0.0329,-0.8449,-0.0654,-0.5298
2227070.0,649.490379,1.0,9.39,-2.23,-4.41,-43.0,-15.5,21.5,-29.44,-51.5,8.94,0.08928574153480362,-2.4612418596852814,-0.5145619716868275,-116.96926663704076,-7.1781250358345785,-62.43657558225824,0.0269,-0.8525,-0.0626,-0.5183
2227105.0,649.588547,1.0,9.07,-1.42,-4.53,-42.19,-15.88,23.87,-60.56,-49.31,40.88,0.3432522620192673,-1.6162945300909088,-0.2964173499000733,-119.06117764081604,-5.089538374458754,-60.636153637362085,0.017,-0.8619,-0.0444,-0.5048
2227142.0,649.59749,1.0,11.07,0.72,-9.35,-40.69,-15.88,25.87,-72.37,-130.19,57.13,-2.035952915693402,0.7038182360973857,-4.540661093567893,-121.90087366081207,-2.704611892754087,-58.0118417792849,0.0084,-0.8742,-0.0236,-0.4849
2227177.0,649.60746,1.0,11.11,1.52,-9.27,-40.69,-15.88,25.87,-48.0,-247.38,18.19,0.07021564039589379,1.3365640526898028,-4.680726101175164,-130.0792914251156,-0.5844194845105756,-49.909201333575915,-0.0046,-0.9066,-0.0051,-0.4219
2227212.0,649.652922,1.0,11.71,0.59,-11.04,-38.75,-17.0,27.5,-56.06,-349.56,-2.0,1.6221718197719701,0.12892884590511713,-6.215389069351671,-139.0746070515941,0.19480574417599017,-40.87678270719479,-0.0168,-0.9369,0.0017,-0.3492
2227249.0,649.719742,1.0,10.83,0.59,-9.64,-32.88,-17.25,33.75,-67.62,-540.13,-17.87,6.255291756295784,-0.13136141575075283,-3.2861216401864297,-156.87120131517742,0.870904232640807,-22.723163534007305,-0.0368,-0.9797,0.0076,-0.197
2227286.0,649.727769,1.0,4.34,0.07,-2.41,-32.88,-17.25,33.75,-85.25,-459.31,-0.25,4.153550493578479,-0.11183360301504666,7.089277824067768,-171.57737873151558,1.8908465277120163,-4.1720543955147065,-0.0627,-0.9973,0.0165,-0.0364
2227320.0,649.737694,1.0,-0.1,1.99,-3.52,-18.69,-19.5,42.25,-75.37,-299.25,22.87,0.1514869189763476,1.3862735316931236,6.009835886996029,-168.6513771745933,3.1287382797377283,5.364844561963228,-0.0823,-0.9951,0.0273,0.0468
2227355.0,649.850433,1.0,-2.08,1.83,-4.82,-1.06,-22.56,44.0,-45.94,-221.5,-6.25,-0.849670158963764,0.7223001043639362,4.360179291348172,-161.28990608516978,3.7592774051414257,14.523222401516826,-0.0971,-0.9867,0.0328,0.1264
2227392.0,649.858458,1.0,-3.27,1.45,-5.84,7.88,-26.0,42.0,-31.5,-144.63,-15.63,-1.165364199933766,-0.026521668399983864,3.0581521758455015,-156.98580474112185,3.6216961826700946,19.273367657733324,-0.1038,-0.9799,0.0316,0.1674
2227425.0,649.868385,1.0,-4.4,2.71,-5.56,7.88,-26.0,42.0,-18.69,-94.12,-10.75,-1.8448132018534045,1.084412323762348,2.5239022931012007,-153.21193002249612,3.4726557451993814,23.366380865675165,-0.1084,-0.9728,0.0303,0.2025
2227462.0,649.978217,1.0,-4.49,1.44,-6.58,13.5,-27.19,40.25,-4.5,-56.88,-11.38,-1.2460878869366787,-0.33904144637489436,1.8152536341782097,-151.6723326334128,3.2548379133840775,25.183180957237056,-0.1072,-0.9696,0.0284,0.218
2227499.0,649.993049,1.0,-4.28,2.08,-7.41,16.19,-27.87,39.5,-17.94,-28.37,1.12,-0.48408163614256083,0.07027130594442096,1.0138332207698983,-150.2106621453537,3.105811485245125,26.594143494418116,-0.1119,-0.9664,0.0271,0.23
2227533.0,650.062774,1.0,-4.6,2.4,-7.37,16.19,-27.87,39.5,-6.19,-11.06,4.06,-0.708833056588279,0.30032863057723974,0.8264351689648688,-149.59279181341398,3.2204467196467967,27.10072754559724,-0.1148,-0.965,0.0281,0.2343
2227568.0,650.069843,1.0,-4.49,1.78,-7.78,19.19,-27.56,37.38,-2.25,8.06,2.0,-0.4241794552242544,-0.3801581304193401,0.6670410594795264,-149.59279181341398,3.1975194185389713,27.088940429595656,-0.1151,-0.965,0.0279,0.2342
2227603.0,650.076824,1.0,-4.31,2.33,-8.32,18.06,-28.25,37.75,-6.63,18.37,1.69,-0.12533218154939574,0.01994296761693576,0.1520503644733786,-150.07721211196608,3.140201723904295,26.417553105892512,-0.1174,-0.9661,0.0274,0.2285
2227640.0,650.084175,1.0,-4.03,2.39,-9.04,17.69,-28.69,38.56,-4.56,16.19,5.56,0.342200152460296,-0.0592555398848867,-0.36949798618067753,-150.56941987552764,3.1516651995043397,25.81762046190519,-0.118,-0.9672,0.0275,0.2234
2227675.0,650.102754,1.0,-4.01,2.15,-9.1,17.69,-28.69,38.56,-3.25,-1.94,2.56,0.3661143877213633,-0.3384656379405421,-0.3552396504064106,-150.56941987552764,3.243374149708243,25.700071520307276,-0.1196,-0.9672,0.0283,0.2224
2227712.0,650.142649,1.0,-4.11,2.36,-8.56,17.69,-27.87,38.19,-5.69,2.19,1.69,0.04180505029730375,-0.06692003543595346,0.022526429305131046,-150.43438697810745,3.266301709643329,25.700071520307276,-0.1216,-0.9669,0.0285,0.2224
2227746.0,650.194509,1.0,-4.05,2.53,-8.45,18.06,-28.69,37.38,-0.56,8.75,1.37,-0.0036559589089688593,0.12500931235305113,0.10148337052940981,-150.70506138327715,3.266301709643329,25.39457261600438,-0.1218,-0.9675,0.0285,0.2198
2227781.0,650.203354,1.0,-3.9,2.03,-8.78,18.06,-28.69,37.38,-0.06,8.94,-0.25,0.22488441419177585,-0.4064953359537003,-0.001687705345464252,-150.9782044157604,3.243374149708243,25.10099664997855,-0.1213,-0.9681,0.0283,0.2173
2227814.0,650.233507,1.0,-3.93,2.02,-8.79,17.69,-27.87,37.75,-5.06,7.38,1.44,0.1554030855881896,-0.4476951071312982,-0.020089997173036167,-151.16170585731885,3.2089830530311807,24.819321185763364,-0.1227,-0.9685,0.028,0.2149
2227851.0,650.317786,1.0,-4.06,2.64,-8.3,16.19,-28.25,37.38,-4.88,2.88,3.19,-0.17861166190132116,0.20741981063713616,0.2010123378565769,-151.06981274894218,3.4611913427691,24.795855130586254,-0.1244,-0.9683,0.0302,0.2147
2227888.0,650.325765,1.0,-3.93,2.49,-8.64,16.19,-28.25,37.38,-2.13,4.06,1.12,0.049045807037734646,-0.010980156520490836,-0.006202487680369018,-151.207760054273,3.5299782811888885,24.596436196111345,-0.1248,-0.9686,0.0308,0.213
2227920.0,650.333703,1.0,-3.94,2.31,-8.59,16.56,-28.69,37.38,-1.75,7.94,1.69,-0.016430697798363925,-0.1799653468165084,0.0796184638058719,-151.34635737161238,3.5070491615651807,24.373645675055762,-0.1251,-0.9689,0.0306,0.2111
