TIME,ELAPSED_SECONDS,PSTATE,acc_x,acc_y,acc_z,mag_x,mag_y,mag_z,gyr_x,gyr_y,gyr_z,lin_x,lin_y,lin_z,eul_x,eul_y,eul_z,qua_w,qua_x,qua_y,qua_z
3380406.0,708.233645,1.0,-5.42,-2.45,-7.82,35.06,-10.06,31.56,0.69,9.69,-4.0,-0.08719879331786684,-0.2499523768416395,-0.014817312970864194,-131.70630400699523,-29.96215210560615,36.769926221818416,0.0331,-0.9125,-0.2585,0.3154
3380441.0,708.243619,1.0,-5.41,-2.4,-7.87,34.69,-9.38,31.56,0.06,7.19,-1.25,-0.06743747234304509,-0.18719312273198674,-0.0384203868548223,-131.84655671079122,-30.045196559032803,36.50436716998177,0.0339,-0.913,-0.2592,0.3132
3380475.0,708.272755,1.0,-5.38,-2.34,-7.94,34.38,-9.0,32.38,0.69,3.75,0.5,0.004592018238949613,-0.13379653663353713,-0.06480771404372554,-131.93089302515688,-30.045196559032803,36.37166381418113,0.0349,-0.9133,-0.2592,0.3121
3380508.0,708.294175,1.0,-5.48,-2.27,-7.92,34.38,-9.0,32.38,-1.0,1.81,-0.37,-0.05816152687988918,-0.02212034255389811,-0.08808738546083283,-132.01536875371883,-30.045196559032803,36.28724251436374,0.0347,-0.9136,-0.2592,0.3114
3380543.0,708.335454,1.0,-5.61,-2.1,-7.55,34.38,-9.75,31.87,1.19,-1.19,-2.5,-0.2788045385258733,0.22663218878557687,0.1756840110504161,-131.93089302515688,-30.09265778200395,36.32342057290312,0.0347,-0.9133,-0.2596,0.3117
3380578.0,708.383478,1.0,-5.54,-2.3,-7.48,34.69,-9.38,33.56,2.81,7.0,-5.31,-0.38310526507415377,0.06982721578158435,0.22644360786999052,-132.01536875371883,-30.187596092266826,36.14256765746203,0.0365,-0.9136,-0.2604,0.3102
3380615.0,708.403531,1.0,-5.18,-2.43,-8.41,34.38,-9.0,32.38,-0.44,16.06,-4.13,0.28484081684253715,-0.2551805350596682,-0.3579527272878291,-132.24132459051677,-30.294427058078597,35.73297808318577,0.0382,-0.9144,-0.2613,0.3068
3380647.0,708.465151,1.0,-5.32,-2.02,-8.0,34.38,-9.0,32.38,-0.63,5.75,-3.13,0.0908314808291526,0.24278102576161456,-0.007401508710382032,-132.41145409892673,-30.42503487303701,35.408051904136364,0.0392,-0.915,-0.2624,0.3041
3380684.0,708.47712,1.0,-5.28,-2.49,-8.12,33.19,-9.0,32.75,6.25,1.94,-7.69,-0.026127757544430974,-0.14219629729930855,-0.1929498696607883,-132.3830594327069,-30.50817000692102,35.335886110848904,0.0415,-0.9149,-0.2631,0.3035
3380721.0,708.522563,1.0,-5.18,-2.55,-8.32,33.19,-8.56,34.06,3.19,2.94,-7.25,0.13351532104789676,-0.20278385926460468,-0.31749699446167057,-132.32631788342704,-30.60320173607895,35.263734790800676,0.0442,-0.9147,-0.2639,0.3029
3380754.0,708.546626,1.0,-5.2,-2.44,-8.29,33.19,-8.56,34.06,-0.44,-3.31,-1.88,0.16119779265195433,-0.0803521466654129,-0.2772608883493408,-132.2130251212284,-30.710138215163173,35.28778362498224,0.0448,-0.9143,-0.2648,0.3031
3380789.0,708.584527,1.0,-5.27,-2.34,-8.23,33.69,-8.25,33.56,2.25,-6.25,-3.31,0.16450535438381353,0.043349895849971454,-0.2408600783681205,-131.98719464152975,-30.817102104618424,35.51632781311482,0.0449,-0.9135,-0.2657,0.305
3380824.0,708.622484,1.0,-5.4,-2.3,-7.9,34.06,-7.5,33.56,2.94,-6.69,-7.5,-0.053202783397945375,0.18105837324862867,-0.03328838036170367,-131.6782993972313,-30.98354512892485,35.745018073663594,0.0455,-0.9124,-0.2671,0.3069
3380858.0,708.651637,1.0,-5.31,-2.27,-8.17,34.06,-7.5,33.56,5.19,-9.88,-11.69,0.2257702015751719,0.1616157855480272,-0.19439035358034396,-131.31561745343842,-31.233335490801053,35.973855599658116,0.0466,-0.9111,-0.2692,0.3088
3380893.0,708.696948,1.0,-5.31,-2.7,-7.87,34.5,-8.25,34.0,7.63,-15.5,-14.31,-0.03920977604712572,-0.13115717506164853,-0.06270967471508193,-130.5429424226509,-31.649991911429222,36.52850049317351,0.0493,-0.9083,-0.2727,0.3134
3380928.0,708.714034,1.0,-5.1,-2.42,-7.95,34.5,-7.88,32.75,5.63,-22.75,-15.38,0.4215879294921461,0.006867116894154979,0.06544286431029533,-129.51205087236005,-32.17439925332779,37.337945134050294,0.0508,-0.9045,-0.2771,0.3201
3380963.0,708.768296,1.0,-5.06,-2.74,-6.75,34.69,-6.75,32.38,8.81,-25.56,-25.94,-0.3024511939878174,-0.14897559282406986,0.9432404106829129,-128.47409395200594,-32.75921457984873,38.12507743338386,0.0526,-0.9006,-0.282,0.3266
3380998.0,708.787851,1.0,-5.18,-3.96,-5.4,34.69,-6.75,32.38,11.31,-17.12,-31.12,-1.6707278940947559,-0.8605087927039013,1.5518215389371637,-127.1197096819897,-33.75183487047058,38.853322196886715,0.0576,-0.8954,-0.2903,0.3326
3381035.0,708.854485,1.0,-4.58,-4.33,-5.4,37.06,-5.69,30.69,7.0,17.0,-11.44,-1.4914556945194644,-1.3995127072353748,1.762880728472366,-126.7349719522371,-34.375043949019776,38.69539839808244,0.0614,-0.8939,-0.2955,0.3313
3381071.0,708.916318,1.0,-4.05,-4.55,-4.48,37.06,-4.56,32.75,12.0,35.06,-0.5,-1.9369386066198877,-1.709386230811325,2.7001974709178516,-127.58485235552222,-34.183176562470926,37.616257937648726,0.0681,-0.8972,-0.2939,0.3224
3381104.0,708.921306,1.0,-4.06,-5.47,1.08,37.06,-4.56,32.75,-5.0,142.81,14.0,-5.900257565331602,-2.13582150430514,6.943762093620338,-129.78141812262746,-33.668020251284275,35.01131860953798,0.0755,-0.9055,-0.2896,0.3008
3381139.0,708.967182,1.0,-1.67,-5.64,2.17,34.69,-3.75,33.19,-58.06,363.25,33.0,-4.9092873925007785,-3.897881768727724,9.69344657755638,-139.0091009386789,-31.99554685526558,22.74654042115177,0.0882,-0.9367,-0.2756,0.1972
3381176.0,708.972169,1.0,3.76,-3.32,-1.72,28.5,-4.88,38.06,-121.81,529.13,55.06,1.9620003839424465,-4.485853211097424,7.770458589081901,-147.35703857325035,-29.641988140572543,8.2807155569704,0.0918,-0.9597,-0.2558,0.0722
3381213.0,709.016441,1.0,9.99,-1.2,-7.28,10.88,-10.5,46.38,-161.25,597.56,94.94,6.743585849898494,-3.224980449464039,-0.11111441470674599,-149.63651807466178,-24.221263990434835,-14.73117911928188,0.0905,-0.9651,-0.2098,-0.1282
3381248.0,709.048862,1.0,14.74,0.37,-15.57,10.88,-10.5,46.38,-165.75,509.13,118.81,3.0116614415743355,0.6741287709901688,-11.413737502622505,-139.5691405181039,-16.81354941000451,-35.311834064537926,0.0783,-0.9384,-0.1462,-0.3033
3381284.0,709.083922,1.0,16.03,1.62,-17.53,-12.25,-17.25,42.75,-108.19,235.5,80.87,-0.4725861922301853,2.7486850530223634,-13.83880607025174,-132.98273895587263,-12.204140573704523,-44.518743376465615,0.0653,-0.917,-0.1063,-0.3788
3381321.0,709.11396,1.0,15.66,-0.15,-11.82,-28.37,-20.0,35.19,-117.0,32.56,75.81,1.5405547318981352,0.17944125404080113,-9.752618696819281,-130.62518646665285,-8.004999928704901,-48.27150646713052,0.0478,-0.9086,-0.0698,-0.4089
3381356.0,709.154235,1.0,15.71,5.61,-15.02,-28.37,-20.0,35.19,-151.56,-32.44,62.06,-0.23215383863947192,5.810825876761822,-11.874148122420687,-131.53850453910292,-4.378462866761455,-48.15851940424126,0.0211,-0.9119,-0.0382,-0.408
3381391.0,709.202026,1.0,15.9,4.65,-17.06,-31.69,-20.69,31.56,-70.94,-386.13,-29.56,1.6956325740632607,3.663762254091528,-13.627892374863434,-140.71214769326966,-2.647300486778665,-39.157238011195425,-0.0129,-0.9418,-0.0231,-0.3351
3381426.0,709.217099,1.0,12.33,2.2,-8.93,-30.56,-23.25,32.25,-21.0,-611.88,-68.5,8.00427085486385,0.8597278275698086,-3.3008408409077,-156.70033876277134,-3.7592774051414257,-22.699787605080818,-0.0293,-0.9794,-0.0328,-0.1968
3381465.0,709.267303,1.0,3.82,1.43,0.2,-12.88,-25.25,40.0,-10.63,-620.13,-38.56,3.9213022082153444,1.1163713429816944,10.039896685752899,-172.75138501198413,-4.906017344265485,2.085681528609333,-0.0423,-0.998,-0.0428,0.0182
3381497.0,709.309063,1.0,-4.37,6.06,8.02,-12.88,-25.25,40.0,-32.38,-494.06,-50.19,-6.24162577965863,7.365472905315735,14.99633366162723,-156.25063177900063,-5.938500516393254,22.057320868979353,-0.0551,-0.9786,-0.0518,0.1913
3381536.0,709.351981,1.0,-6.65,0.88,3.15,10.56,-24.5,38.69,3.81,-134.5,-119.87,-7.089647816872935,2.1052757787275427,9.33324982233635,-149.81204156148604,-8.76333445653462,28.22185710635222,-0.0498,-0.9655,-0.0764,0.2438
3381573.0,709.376276,1.0,-7.02,0.97,3.12,24.75,-22.87,34.56,-29.5,16.0,-89.44,-7.194597268283962,2.7205542232785236,8.916675356876775,-146.951724947316,-12.66521907501552,29.855404317236438,-0.0495,-0.9587,-0.1103,0.2576
3381608.0,709.401213,1.0,-5.96,4.34,3.49,24.75,-22.87,34.56,1.44,153.31,-115.06,-5.375723601929864,6.129729556927266,10.06221078452386,-148.0992206918234,-15.7832777083714,27.04179488483361,-0.0439,-0.9615,-0.1373,0.2338
3381643.0,709.456501,1.0,-2.34,2.96,1.7,28.5,-21.37,31.5,46.5,355.0,-184.69,-1.4483952421793354,3.7204700643300335,10.896353502268544,-152.47972490837182,-21.858883165817783,16.51243337847321,-0.0073,-0.9713,-0.1896,0.1436
3381678.0,709.47038,1.0,5.44,0.62,-2.93,26.69,-18.69,36.5,40.75,428.75,-212.06,5.153472543876296,-1.9043409789759083,6.912154158699433,-150.12163073433226,-29.440524955343978,0.9740399810272837,0.0434,-0.9662,-0.2541,0.0085
3381714.0,709.519619,1.0,13.0,-4.53,-17.27,16.87,-13.88,44.0,29.0,467.88,-253.69,4.955974587319012,-7.134142480903639,-10.498918865511117,-140.98575914579104,-35.63667282414923,-12.261764386292771,0.0809,-0.9426,-0.306,-0.1068
3381749.0,709.545498,1.0,13.12,-9.43,-26.23,16.87,-13.88,44.0,-19.06,302.63,-163.19,-6.118473911783195,-5.650539355374609,-19.853219891558716,-129.56581673326838,-41.14593859433644,-25.018825462277388,0.1052,-0.9047,-0.3514,-0.2166
3381786.0,709.583623,1.0,8.16,-2.63,-16.86,2.25,-11.25,48.0,-35.63,-83.37,17.31,-2.039006216715168,-1.2908542691699916,-8.95336729487376,-129.53892711088812,-41.29285086382844,-25.44156044788708,0.0946,-0.9046,-0.3526,-0.2202
3381823.0,709.613603,1.0,3.48,-1.18,-6.31,-4.06,-13.0,47.19,23.31,-79.56,4.19,-0.17932304617601935,-1.1965712669077102,2.6056111549220873,-132.07176372350168,-41.133699099479514,-21.403893300909647,0.0847,-0.9138,-0.3513,-0.1857
3381858.0,709.651956,1.0,2.97,-1.7,-7.53,-4.06,-13.0,47.19,1.94,-1.5,3.0,-1.1179880953655816,-0.9483637435993285,1.6664713269948983,-132.32631788342704,-41.243872234969274,-20.63468349632429,0.0855,-0.9147,-0.3522,-0.1791
3381893.0,709.72358,1.0,3.0,-0.5,-9.21,-0.37,-13.06,45.88,-14.06,16.87,6.38,-0.8520727605906142,0.4051307748207038,0.15346705001129202,-132.41145409892673,-40.80341749737213,-21.33392533931821,0.0836,-0.915,-0.3486,-0.1851
3381927.0,709.745993,1.0,3.4,-0.38,-9.92,0.37,-12.88,46.69,1.56,5.38,-3.75,-0.7437501683095926,0.4760729302839619,-0.6494960515904378,-132.24132459051677,-40.840097916410194,-21.62551192117329,0.0839,-0.9144,-0.3489,-0.1876
3381964.0,709.768928,1.0,3.05,-0.82,-8.45,-1.06,-14.0,46.56,17.19,-16.06,-14.25,-0.784535905823428,-0.06668319270024947,0.8201347263088063,-132.04355843852292,-41.30509675325747,-21.08910064572278,0.0853,-0.9137,-0.3527,-0.183
3381999.0,709.798182,1.0,2.68,-1.68,-8.05,-1.06,-14.0,46.56,6.81,2.63,-6.06,-1.4892430872301836,-0.5571397382143952,1.3049413282540936,-131.73432389141507,-41.67270371214475,-20.949244597725627,0.0875,-0.9126,-0.3557,-0.1818
3382034.0,709.831098,1.0,3.0,-0.69,-9.66,-0.37,-12.56,47.0,-9.5,3.0,9.44,-1.0737467432273027,0.4380623727182938,-0.2654336617363917,-131.87465337051762,-41.39083180240233,-21.205671619155694,0.0867,-0.9131,-0.3534,-0.184
3382071.0,709.894752,1.0,3.06,-0.46,-9.21,-0.69,-13.25,47.38,0.88,-11.94,1.44,-0.7065259611831571,0.40654107910125775,0.12497424540165447,-131.6782993972313,-41.80760523510253,-20.844373279203694,0.0863,-0.9124,-0.3568,-0.1809
