TIME,ELAPSED_SECONDS,PSTATE,acc_x,acc_y,acc_z,mag_x,mag_y,mag_z,gyr_x,gyr_y,gyr_z,lin_x,lin_y,lin_z,eul_x,eul_y,eul_z,qua_w,qua_x,qua_y,qua_z
3415367.0,743.234408,1.0,-1.29,-2.52,-9.5,17.69,-6.5,44.19,-1.56,0.37,1.06,0.061992367344183785,-0.1866828022267829,-0.10424332390092061,-142.063908450112,-33.967443729776726,12.238714488577818,0.0952,-0.9457,-0.2921,0.1066
3415404.0,743.272032,1.0,-1.27,-2.59,-9.48,18.5,-7.19,44.19,-0.63,0.5,1.63,0.03328982499608635,-0.2548609482251791,-0.09917342284686192,-142.063908450112,-33.931500337029355,12.215665087929846,0.0953,-0.9457,-0.2918,0.1064
3415439.0,743.293962,1.0,-1.31,-2.5,-9.37,18.5,-7.19,44.19,-1.19,-2.38,2.0,0.028006054013947623,-0.18010485144576932,0.022490460038261162,-142.16981440543415,-33.83566809114509,12.261764386292771,0.0951,-0.946,-0.291,0.1068
3415474.0,743.331859,1.0,-1.39,-2.24,-9.32,17.37,-6.5,43.38,-1.19,-0.94,1.37,0.09298081876850761,0.05654540516865603,0.12159671235643366,-142.20517991761645,-33.775785318620265,12.307865676783145,0.0945,-0.9461,-0.2905,0.1072
3415508.0,743.373466,1.0,-1.28,-2.37,-9.54,18.87,-6.5,44.56,1.19,-3.25,0.0,0.18475735990712627,-0.09052744923112338,-0.10418091869172308,-142.16981440543415,-33.78776111254545,12.400074265032764,0.0945,-0.946,-0.2906,0.108
3415543.0,743.413361,1.0,-1.43,-2.55,-9.23,18.5,-7.19,42.5,1.56,1.44,-0.31,-0.1052593280266928,-0.17683947075459844,0.12687994718125317,-142.1344807161217,-33.81171384093137,12.423127669242316,0.0951,-0.9459,-0.2908,0.1082
3415580.0,743.479184,1.0,-1.4,-2.36,-9.32,18.5,-7.19,42.5,-0.12,3.0,0.31,0.02773911277668084,-0.020822979933172003,0.09115737506691879,-142.16981440543415,-33.78776111254545,12.319391311580377,0.0953,-0.946,-0.2906,0.1073
3415615.0,743.48417,1.0,-1.27,-2.43,-9.59,19.56,-6.88,43.75,1.06,-0.31,-0.69,0.16183127966765298,-0.11379495412182172,-0.1656497019412484,-142.1344807161217,-33.85962386452366,12.296340166976416,0.0955,-0.9459,-0.2912,0.1071
3415650.0,743.534037,1.0,-1.35,-2.47,-9.24,18.5,-7.19,44.19,-1.12,-1.44,1.31,-0.011412066895506112,-0.1471737066158757,0.14853374139086384,-142.1344807161217,-33.83566809114509,12.319391311580377,0.0953,-0.9459,-0.291,0.1073
3415685.0,743.547002,1.0,-1.34,-2.43,-9.36,18.5,-7.19,44.19,-0.5,3.63,0.75,0.03638429117974662,-0.10343375667833082,0.044576570582727015,-142.20517991761645,-33.78776111254545,12.238714488577818,0.0953,-0.9461,-0.2906,0.1066
3415719.0,743.580967,1.0,-1.14,-2.28,-9.69,19.56,-7.19,43.75,-0.37,-0.69,1.12,0.35835493206214813,-0.05483064175194191,-0.2064751536866236,-142.16981440543415,-33.81171384093137,12.215665087929846,0.0953,-0.946,-0.2908,0.1064
3415754.0,743.602996,1.0,-1.41,-2.49,-9.18,18.87,-7.56,43.75,0.06,-0.25,0.06,-0.09371544350888783,-0.13044790580643206,0.1923481137724501,-142.16981440543415,-33.81171384093137,12.261764386292771,0.0955,-0.946,-0.2908,0.1068
3415791.0,743.646164,1.0,-1.38,-2.22,-9.48,18.5,-6.5,42.88,0.0,1.44,0.06,0.13646060038550645,0.10753205588168813,-0.025593658570526756,-142.20517991761645,-33.81171384093137,12.181091916848366,0.0953,-0.9461,-0.2908,0.1061
3415824.0,743.699598,1.0,-1.54,-2.1,-9.47,18.5,-6.5,42.88,-0.44,-1.69,-0.44,0.07341478222492204,0.291752765254305,-0.010273682789701866,-142.16981440543415,-33.81171384093137,12.215665087929846,0.0952,-0.946,-0.2908,0.1064
3415861.0,743.716192,1.0,-1.54,-1.65,-10.3,18.87,-6.06,43.38,7.69,-7.81,-7.81,0.5589526353064265,0.7670974403086468,-0.6949324268800527,-141.85294621850556,-34.07529458830543,12.377021364647927,0.096,-0.9451,-0.293,0.1078
3415896.0,743.762287,1.0,0.39,-1.44,-15.66,19.19,-6.88,42.5,25.19,-89.75,-14.56,4.026161031760429,0.33774201866893594,-5.396548929013564,-140.78037862226373,-34.59101363133617,13.96890425008599,0.0968,-0.942,-0.2973,0.1216
3415930.0,743.786643,1.0,-0.31,-0.15,-14.12,19.19,-6.88,42.5,103.94,-336.13,-38.81,5.993020322963943,0.6630346117652022,-2.9658631635141557,-134.58869098980696,-36.118460981567104,24.279867169785643,0.0934,-0.9225,-0.31,0.2103
3415965.0,743.832901,1.0,-3.63,-3.92,-5.89,20.69,-5.75,42.56,70.19,-247.63,-36.56,-1.0260546477645658,-0.8141019481645012,1.9631909494410262,-128.18484420355125,-37.41052638436744,32.65173422155782,0.0947,-0.8995,-0.3207,0.2811
3416002.0,743.857234,1.0,-4.7,-5.47,-3.95,31.87,-2.38,37.19,64.0,-163.13,-53.0,-2.741017975651143,-1.3470059654151174,2.1721365651900637,-121.3135909011287,-39.157238011195425,40.31476039756773,0.095,-0.8717,-0.3351,0.3446
3416039.0,743.916513,1.0,-5.19,-5.09,-2.76,31.87,-2.38,37.19,41.0,-94.94,-31.0,-3.1791362260161673,-0.618180106665926,2.737509584634479,-117.87389590745228,-39.98534936807033,43.90032983148112,0.0986,-0.8566,-0.3419,0.3738
3416072.0,743.961392,1.0,-4.95,-5.46,-1.88,36.75,1.25,31.0,11.25,32.75,-14.13,-3.7468810678910183,-0.8590939810777207,3.2437741216402785,-116.55397754456402,-40.57120935574602,44.75409801174843,0.1064,-0.8506,-0.3467,0.3807
3416107.0,743.974355,1.0,-4.62,-6.3,-0.69,39.38,3.56,26.87,5.56,108.62,-6.13,-5.111127660574777,-1.5001842164935195,4.050234331036272,-118.92572331092977,-40.461276767806375,41.31734313597096,0.1193,-0.8613,-0.3458,0.3528
3416143.0,744.017327,1.0,-2.68,-5.91,-0.9,37.88,4.25,29.75,-46.19,289.44,11.19,-4.111350925138365,-2.500147801659312,5.360690650183353,-123.96398525409832,-39.64410140012822,34.56701075551299,0.1323,-0.8828,-0.3391,0.2971
3416178.0,744.040439,1.0,0.73,-5.89,-2.48,37.88,4.25,29.75,-98.81,432.13,17.31,-1.6794098959915487,-4.468730339231192,5.495567588762615,-134.05726525899885,-37.54363247388456,18.901528010085144,0.1477,-0.9207,-0.3218,0.1642
3416215.0,744.083364,1.0,5.17,-1.73,-11.02,30.75,1.69,37.19,-170.56,461.44,53.81,5.116201429801437,-1.5798766652120255,-1.2609004359553868,-141.0200903214725,-34.62702088107143,4.8486696265391345,0.145,-0.9427,-0.2976,0.0423
3416252.0,744.102564,1.0,7.49,1.09,-19.84,15.06,-2.75,45.38,-91.44,235.94,30.81,5.333303721783071,3.2556801684752443,-10.487935929548103,-143.94200484154302,-30.852762845389066,-9.165635515674055,0.1363,-0.9509,-0.266,-0.0799
3416287.0,744.15835,1.0,6.71,-0.43,-20.69,15.06,-2.75,45.38,35.81,-123.0,-10.06,3.807056915669931,2.5594988007335395,-11.459294219100487,-144.1648201843402,-30.769559206882445,-9.09666171745326,0.1343,-0.9515,-0.2653,-0.0793
3416322.0,744.17157,1.0,3.92,-7.43,-9.16,0.5,-8.38,47.88,-18.75,-208.75,55.56,-0.02806253114874191,-5.867618155208405,-1.149953930005605,-145.26123786330908,-31.352336718545892,-0.9969591404369118,0.1264,-0.9544,-0.2702,-0.0087
3416356.0,744.223369,1.0,1.62,-4.31,-11.67,3.5,-7.56,47.06,-142.31,-191.06,141.69,0.9487389114663913,-3.2448312294024015,-2.2747557448032314,-150.93250619783007,-27.371912162371505,5.491036825631306,0.069,-0.968,-0.2366,0.0479
3416393.0,744.265318,1.0,-1.61,0.58,-7.81,10.56,-10.56,46.69,-162.06,-221.94,155.63,0.2522614474893611,1.0802472941916035,1.8886938277607088,-154.11739099299157,-23.389784532624752,10.787532942523711,0.0135,-0.9746,-0.2027,0.094
3416428.0,744.288555,1.0,-4.6,3.6,-3.89,10.56,-10.56,46.69,-121.25,-188.44,115.94,-1.850075679992646,4.268465257072359,4.552173401187712,-153.61058909469406,-19.157145947707967,17.207493384994194,-0.0462,-0.9736,-0.1664,0.1496
3416465.0,744.330757,1.0,-5.4,8.03,-2.71,17.37,-18.5,40.5,-32.44,-82.19,29.5,-1.3856141782179408,8.56889781689241,4.743146908979122,-152.09692309623645,-17.6712197397126,19.947852442498814,-0.0668,-0.9705,-0.1536,0.1732
3416502.0,744.352124,1.0,-4.14,5.2,0.51,20.69,-23.0,36.0,83.0,83.19,-84.44,-2.068800257660744,6.237759414780655,8.688561015518827,-151.81316645370248,-19.16876722159467,19.784982749875187,-0.0448,-0.9699,-0.1665,0.1718
3416539.0,744.394008,1.0,-0.99,0.33,-3.67,20.69,-23.0,36.0,100.12,246.94,-122.87,0.14790980168311457,0.4318891002595503,6.01857733759725,-153.21193002249612,-22.15072645927377,14.800508833176536,-0.0084,-0.9728,-0.1921,0.1288
3416573.0,744.437588,1.0,3.56,-2.67,-17.36,21.06,-20.69,36.75,52.5,267.0,-97.25,3.6461365077161227,-2.961439428588861,-7.488079401696316,-153.3110465719337,-25.94695623100749,4.4587366294239885,0.0385,-0.973,-0.2245,0.0389
3416608.0,744.462521,1.0,2.52,-3.47,-16.83,15.5,-16.25,43.0,42.0,10.88,-61.94,1.677464188177852,-2.5043001068299207,-7.29758324420923,-150.70506138327715,-28.422768181257144,2.2002931334350637,0.0579,-0.9675,-0.2455,0.0192
3416645.0,744.531879,1.0,-0.07,-3.38,-9.9,9.88,-13.56,45.0,35.13,-71.81,-26.56,-0.6194235252601203,-1.87998272249932,-0.4657051077373904,-149.24516700325162,-29.487919662093987,4.596353909147253,0.063,-0.9642,-0.2545,0.0401
3416678.0,744.535867,1.0,-0.52,-2.79,-10.42,9.88,-13.56,45.0,8.69,-67.44,-9.75,-0.22404529467246104,-1.2343371509627503,-0.9198179882843238,-148.14094650942238,-30.116390374671145,7.212570385921346,0.0616,-0.9616,-0.2598,0.0629
3416715.0,744.589724,1.0,-1.67,-1.07,-7.61,12.88,-12.5,45.88,5.25,-49.38,-6.44,-0.5882883495626082,0.47966009661180126,1.9791508457689826,-147.6025936178383,-30.353789240195113,8.866772764864926,0.0581,-0.9603,-0.2618,0.0773
3416752.0,744.622811,1.0,-1.87,-2.43,-6.6,16.56,-11.69,43.38,28.06,13.75,-19.44,-1.5252885654511636,-0.5522196509918625,2.71226149575509,-146.63092085313292,-30.995436476359295,9.441564242690683,0.0651,-0.9579,-0.2672,0.0823
3416786.0,744.652781,1.0,-1.08,-3.39,-7.14,16.56,-11.69,43.38,0.88,49.75,-1.12,-1.3440066096618595,-1.613201620268829,2.110590828869152,-146.63092085313292,-31.11436879612529,8.41859128124216,0.0709,-0.9579,-0.2682,0.0734
3416821.0,744.696383,1.0,-1.24,-1.62,-4.0,16.56,-10.69,43.75,-28.5,137.31,2.69,-1.385744954191024,-0.27442566102210725,5.544443824964974,-147.7673081897566,-30.674489682178663,5.009246344236124,0.0724,-0.9607,-0.2645,0.0437
3416856.0,744.725216,1.0,2.19,-0.82,-3.24,15.06,-11.06,44.56,-69.5,406.31,-14.88,1.3744302236333241,-1.2178221904873818,6.2578543348877105,-148.0159281250563,-30.235073199393444,-4.263789782102698,0.0806,-0.9613,-0.2608,-0.0372
3416893.0,744.805308,1.0,8.96,0.65,-15.37,4.56,-12.56,45.88,-52.56,491.38,-17.81,2.2915282224939224,1.1754168377869814,-7.808919637765362,-140.50813431460048,-28.931355072204077,-23.553637967860126,0.1002,-0.9412,-0.2498,-0.2041
3416928.0,744.812291,1.0,9.99,-0.38,-13.57,4.56,-12.56,45.88,35.13,229.13,-28.06,0.3805630746824482,0.9895596891604928,-7.014923748248917,-132.24132459051677,-28.742045975943412,-34.20715457242007,0.1259,-0.9144,-0.2482,-0.2941
3416965.0,744.816279,1.0,7.46,-0.05,-7.93,-13.25,-15.06,45.0,8.75,60.56,-9.94,1.1521662706470357,0.3311381326206112,-1.0147113016989646,-130.3788376016962,-29.014203146635065,-36.01000138130928,0.1335,-0.9077,-0.2505,-0.3091
3417001.0,744.853025,1.0,8.1,-1.0,-9.25,-18.87,-14.75,43.38,11.69,53.31,-12.0,0.037450887454648196,0.07516928928416378,-2.528885943321532,-128.4213907260083,-29.23915478171118,-37.9917401637673,0.14,-0.9004,-0.2524,-0.3255
3417036.0,744.89828,1.0,7.18,-0.74,-7.95,-18.87,-14.75,43.38,5.88,9.31,-6.88,0.158491422898849,0.1228940914314397,-0.9293770822664555,-127.89708982203929,-29.41682953361233,-38.44045190034536,0.1412,-0.8984,-0.2539,-0.3292
3417069.0,744.93477,1.0,7.0,-0.94,-7.97,-20.37,-14.75,40.88,1.81,1.19,-4.44,-0.09785703183428307,0.03847382810628186,-0.8419857701759845,-127.68873899317937,-29.641988140572543,-38.51327351873995,0.142,-0.8976,-0.2558,-0.3298
3417106.0,744.969869,1.0,6.8,-0.68,-7.6,-21.5,-14.5,41.69,-4.13,-10.06,-1.25,0.13474346634463696,0.12710951916433177,-0.41235618301091037,-127.89708982203929,-29.68940484166728,-38.30698746477587,0.1404,-0.8984,-0.2562,-0.3281
3417143.0,745.017485,1.0,6.46,-0.61,-7.39,-21.5,-14.5,41.25,1.31,-7.44,-3.19,0.10209147609035307,0.1658410248337605,-0.025840736583065294,-128.1586232989387,-29.772396589189743,-37.97962124483598,0.1384,-0.8994,-0.2569,-0.3254
3417176.0,745.034259,1.0,6.41,-0.58,-7.42,-21.5,-14.5,41.25,-2.44,-5.25,-1.5,0.08945177459024078,0.19952661328412635,-0.013385005569688246,-128.2635811405088,-29.855404317236438,-37.83422856646789,0.1378,-0.8998,-0.2576,-0.3242
3417212.0,745.081896,1.0,6.45,-0.8,-7.5,-21.87,-14.5,41.69,2.88,-5.81,-1.69,-0.026207381552879827,0.007933811385859357,-0.11765099441714,-128.3424298098244,-29.95028992789253,-37.664683622171815,0.137,-0.9001,-0.2584,-0.3228
3417247.0,745.12271,1.0,6.3,-0.66,-7.3,-20.37,-14.38,42.19,-1.88,-7.38,0.12,0.08189642933346031,0.08295460847009373,0.14217838962232854,-128.47409395200594,-29.997740610960527,-37.483123203499495,0.1368,-0.9006,-0.2588,-0.3213
3417282.0,745.155623,1.0,6.37,-1.07,-7.38,-20.37,-14.38,42.19,-3.25,-3.56,0.37,-0.11676159512328876,-0.2746807302190102,0.0037362889470138327,-128.60607229870925,-30.03333207787963,-37.31375483691922,0.136,-0.9011,-0.2591,-0.3199
3417317.0,745.204088,1.0,6.17,-0.52,-7.44,-20.0,-15.19,42.19,-0.63,-5.81,-0.06,0.03947523332082481,0.2577694452036555,0.1306541019503502,-128.76486449761617,-30.009604103998097,-37.20491981438743,0.1349,-0.9017,-0.2589,-0.319
3417354.0,745.229025,1.0,6.04,-0.57,-7.2,-19.56,-14.75,43.0,-3.94,-3.0,-0.69,0.06374821690174537,0.13848955194496237,0.3926573927772825,-128.89754271482937,-30.045196559032803,-37.05986053192884,0.1337,-0.9022,-0.2592,-0.3178
3417389.0,745.263928,1.0,6.12,-0.28,-7.42,-19.56,-14.75,43.0,-7.56,-2.25,-0.06,0.16035718082534212,0.41011759719953467,0.19440316947046554,-129.00391708769308,-29.997740610960527,-37.05986053192884,0.132,-0.9026,-0.2588,-0.3178
3417421.0,745.286868,1.0,6.08,-0.95,-7.4,-19.19,-15.56,41.38,-4.88,-1.75,-0.88,-0.223842396582155,-0.17105807554721963,0.18638317852968989,-129.05718198573572,-30.045196559032803,-36.99943733948034,0.1305,-0.9028,-0.2592,-0.3173
3417456.0,745.34571,1.0,6.28,-0.33,-7.26,-18.5,-14.75,43.0,-5.25,0.63,1.56,0.3131555549804763,0.19082542564153593,0.20871171850883563,-129.05718198573572,-30.116390374671145,-37.011521124582174,0.1295,-0.9028,-0.2598,-0.3174
