TIME,ELAPSED_SECONDS,PSTATE,acc_x,acc_y,acc_z,mag_x,mag_y,mag_z,gyr_x,gyr_y,gyr_z,lin_x,lin_y,lin_z,eul_x,eul_y,eul_z,qua_w,qua_x,qua_y,qua_z
3184101.0,511.533398,1.0,-3.86,-0.24,-9.19,27.37,-18.37,37.0,2.44,0.31,-4.38,0.29834166088295655,-0.18219198649056978,-0.15784187532611504,-146.07660730478977,-22.75822922439662,24.479166312304468,-0.0338,-0.9565,-0.1973,0.212
3184136.0,511.574867,1.0,-3.81,-0.53,-9.57,25.5,-18.0,38.25,1.81,-2.81,-4.56,0.3830886644384728,-0.49487218233318275,-0.4885063659000153,-146.03734965989693,-22.86343926833653,24.49089212710031,-0.0325,-0.9564,-0.1982,0.2121
3184171.0,511.602201,1.0,-3.98,-0.05,-9.15,25.87,-18.75,37.75,-0.37,-8.94,1.0,0.3159735048481258,0.05400585947474246,-0.16644601434661865,-145.84171829017612,-22.816676842803343,24.795855130586254,-0.0327,-0.9559,-0.1978,0.2147
3184207.0,511.638111,1.0,-4.26,-0.13,-8.85,25.87,-18.75,36.06,4.69,-13.13,0.06,0.0007925747451209553,0.1270749776814935,-0.015307611488278638,-145.5696464213463,-22.7816075509135,25.183180957237056,-0.0319,-0.9552,-0.1975,0.218
3184242.0,511.669538,1.0,-4.39,0.1,-8.81,25.87,-18.75,36.06,8.69,-15.69,-2.5,0.08033313023561206,0.4034707424118656,-0.02843810068340069,-145.108024588444,-22.769918267605057,25.81762046190519,-0.0301,-0.954,-0.1974,0.2234
3184277.0,511.707487,1.0,-4.21,-1.15,-8.73,27.0,-19.5,35.75,14.0,-14.38,-4.63,-0.19108216233241038,-0.7652525008837625,0.0784756482971325,-144.690009668053,-22.816676842803343,26.358703855877888,-0.0273,-0.9529,-0.1978,0.228
3184314.0,511.765205,1.0,-4.04,-1.06,-8.58,27.37,-17.69,37.0,2.75,-0.75,4.0,-0.045977440617134935,-0.7145332153245638,0.2909299348051295,-144.690009668053,-22.676412633281863,26.54704645350268,-0.0262,-0.9529,-0.1966,0.2296
3184349.0,511.772217,1.0,-3.94,-0.86,-8.52,27.37,-17.69,37.0,-6.0,5.94,13.44,0.054013061890495484,-0.5739890043816733,0.39807841808629796,-144.99354106549774,-22.407668898888776,26.358703855877888,-0.0269,-0.9537,-0.1943,0.228
3184384.0,511.831108,1.0,-3.94,-0.01,-8.51,27.37,-17.69,36.19,-9.13,18.62,12.25,0.250792669170703,0.17530370840492637,0.43380776048109837,-145.76376947074462,-22.022297601396424,25.67656503656709,-0.0295,-0.9557,-0.191,0.2222
3184418.0,511.848103,1.0,-3.71,-1.06,-9.05,27.69,-18.37,36.56,-7.69,31.62,8.88,0.11247627378778158,-0.9392322851204493,0.014030748623875766,-146.5113892939378,-21.882225322200526,24.76065802803315,-0.0301,-0.9576,-0.1898,0.2144
3184455.0,511.89231,1.0,-4.1,-0.7,-10.44,26.19,-18.37,37.5,-21.62,9.75,27.31,0.2697469531907539,-0.7730031818849268,-1.4015301672724743,-147.6025936178383,-21.275624852029367,23.822932006064157,-0.0359,-0.9603,-0.1846,0.2064
3184490.0,511.915511,1.0,-4.22,1.1,-11.41,26.19,-18.37,37.5,-23.25,-29.62,37.44,1.259430944063734,0.4857310156493802,-2.333547653974625,-147.6436957459843,-20.11076285425295,24.44399042905254,-0.047,-0.9604,-0.1746,0.2117
3184527.0,511.957571,1.0,-4.33,5.53,-9.6,25.06,-19.5,36.69,30.0,-69.81,-24.87,2.34813301973627,4.8830748798920816,-0.7825733444663534,-146.31308564363076,-19.98275837630303,26.25279302590076,-0.0477,-0.9571,-0.1735,0.2271
3184564.0,511.996043,1.0,-4.35,4.74,-5.05,26.19,-21.37,36.69,84.56,-56.44,-108.0,0.7255018386988878,5.258138578093995,3.5842528915212917,-142.63208125401738,-22.723163534007305,29.168105022171193,-0.0198,-0.9473,-0.197,0.2518
3184599.0,512.022121,1.0,-3.07,2.82,-4.28,26.19,-21.37,36.69,50.69,11.44,-201.63,0.9791996003227101,3.411622041536475,5.000643009947828,-139.23881312164076,-27.265777919115557,29.677550179192284,0.0068,-0.9374,-0.2357,0.2561
3184631.0,512.080914,1.0,-2.26,-5.94,-0.68,29.56,-16.5,35.38,47.75,120.31,-235.56,-4.506754248795349,-3.548487608570367,6.9868979128853095,-135.24632190274463,-35.21564193303898,26.1821984911941,0.047,-0.9247,-0.3025,0.2265
3184668.0,512.090908,1.0,0.58,-5.95,1.04,30.0,-9.75,37.5,-55.0,364.5,-106.19,-3.4591187822267075,-4.9814129010042345,9.60534734190781,-136.55893204947213,-38.74398218156732,17.33498950133432,0.0658,-0.929,-0.3317,0.1507
3184705.0,512.142405,1.0,5.28,-8.09,-6.27,24.37,-6.75,42.75,-103.44,445.19,-2.75,-0.5490786514341437,-8.40084221052564,1.947657520782962,-139.43670037409964,-39.05995387185956,0.36669361470931167,0.0913,-0.938,-0.3343,0.0032
3184740.0,512.177012,1.0,8.26,-7.29,-11.62,24.37,-6.75,42.75,-169.19,418.69,61.56,-0.45104285667284794,-7.329693942052486,-4.422483742335951,-139.5028685781741,-34.999303175225506,-16.801965875210325,0.0894,-0.9382,-0.3007,-0.1461
3184779.0,512.213449,1.0,11.58,-5.49,-15.96,7.5,-9.75,46.75,-208.75,320.56,165.56,-0.5842755857328576,-5.6363815400520485,-9.861799994213508,-138.39171512082905,-29.02603985005446,-27.879330334175126,0.0735,-0.9348,-0.2506,-0.2409
3184816.0,512.26844,1.0,12.98,0.73,-17.31,-8.56,-16.5,43.56,-254.56,59.56,235.63,0.277748200395437,-0.17214794431131497,-11.839195352456128,-139.60231554875963,-17.555261104447528,-35.9015751355927,0.0302,-0.9385,-0.1526,-0.3082
3184850.0,512.292377,1.0,10.85,5.89,-10.69,-8.56,-16.5,43.56,-184.81,-113.12,147.25,3.712803483374861,4.220132683572745,-5.526199390341008,-143.72051272987528,-10.741493332748478,-34.555009904291715,-0.0086,-0.9503,-0.0936,-0.297
3184885.0,512.335263,1.0,12.3,5.26,-17.97,-19.19,-22.5,39.0,-114.44,-349.38,81.56,3.349144688171652,2.469932452554086,-12.206100022146517,-152.62462859250314,-5.330429626451235,-26.1821984911941,-0.0496,-0.9716,-0.0465,-0.2265
3184920.0,512.3582,1.0,5.07,11.35,-5.14,-19.19,-25.75,37.69,-78.44,-479.31,42.13,4.440139748625415,10.203120600245185,2.248310960930044,-167.233021952493,-1.8908465277120163,-8.866772764864926,-0.0774,-0.9938,-0.0165,-0.0773
3184957.0,512.394275,1.0,1.48,14.22,-5.44,-7.88,-27.19,39.69,150.38,-356.5,-173.63,2.8320943258164286,13.358267498262787,2.9125705709148866,-171.73489373084854,-4.584885551911774,2.280522559802512,-0.0557,-0.9974,-0.04,0.0199
3184992.0,512.424765,1.0,1.21,5.43,-1.61,-7.88,-27.19,39.69,257.0,-272.88,-317.44,2.881485092689106,4.9520988225259295,8.96115552187033,-159.15467994543425,-14.800508833176536,14.349961892702815,0.0232,-0.9835,-0.1288,0.1249
3185029.0,512.462683,1.0,-0.77,-2.48,-0.71,7.69,-23.75,41.75,103.37,-103.0,-285.13,-1.3222727290136025,-1.9028091179559325,8.436134662351169,-148.98694437514695,-23.038832805407417,18.98285063278348,0.0665,-0.9636,-0.1997,0.1649
3185068.0,512.496466,1.0,0.78,-7.19,-13.35,19.25,-12.56,42.06,59.38,-16.06,-222.13,2.0449350866275258,-5.195349437064124,-4.312612895713684,-140.50813431460048,-32.12669742786024,19.354734757827334,0.0968,-0.9412,-0.2767,0.1681
3185102.0,512.532233,1.0,-0.43,-10.03,-9.8,19.25,-12.56,42.06,71.06,-143.38,-107.44,-1.435893540746618,-6.70075579142155,-2.4352404407518993,-134.73735728971755,-36.35960237870008,22.454397929674286,0.113,-0.923,-0.312,0.1947
3185137.0,512.580412,1.0,-2.91,-3.86,-3.58,23.75,-5.38,41.75,36.81,-186.38,0.69,-2.0726903279103364,-0.9641970008622963,4.242624573376297,-129.7274367362795,-37.664683622171815,29.333905677818493,0.1108,-0.9053,-0.3228,0.2532
3185172.0,512.597276,1.0,-3.26,-5.97,-3.38,27.87,-1.75,38.88,67.62,-87.25,-60.06,-3.0823737376060727,-2.242306903556935,3.236723676822754,-125.22107317255427,-39.108592274648124,33.967443729776726,0.1193,-0.8879,-0.3347,0.2921
3185209.0,512.640503,1.0,-3.34,-7.04,-1.59,32.75,2.5,36.0,85.56,-45.63,-35.88,-4.515666444105253,-2.835656252251129,3.9063864309167604,-122.541287565057,-39.81467938235784,36.27518399341681,0.1351,-0.8769,-0.3405,0.3113
3185244.0,512.710575,1.0,-3.15,-3.97,0.57,32.75,2.5,36.0,63.38,56.63,-29.0,-4.160839171130357,-0.7016744721521992,6.942497363160062,-121.92447762133865,-39.6684640703974,35.60056506187857,0.1643,-0.8743,-0.3393,0.3057
3185278.0,512.750465,1.0,-0.61,-11.15,1.9,35.38,5.06,33.5,29.69,224.25,-4.44,-6.921926841457001,-7.735534066147508,5.273103759694451,-124.0127932062898,-38.853322196886715,31.185744677827838,0.1936,-0.883,-0.3326,0.2688
3185315.0,512.754457,1.0,2.04,-6.81,2.32,31.25,8.0,37.25,-104.81,505.06,78.56,-2.5412575239502813,-6.970277576223479,8.869985328219196,-134.14543141113884,-33.88358116240482,16.940979741891212,0.2123,-0.921,-0.2914,0.1473
3185352.0,512.782058,1.0,8.43,-4.3,-9.96,31.25,8.0,37.25,-163.0,598.06,80.19,6.566268283898036,-3.222851750527773,-1.823218761856035,-142.063908450112,-28.11552830000698,0.34377519274259805,0.2159,-0.9457,-0.2429,0.003
3185385.0,512.831335,1.0,10.36,-0.05,-16.29,17.75,4.56,45.88,-175.44,457.5,82.87,4.907603247168684,4.281281828922862,-8.367019312214142,-143.61025532246643,-19.889680039418103,-19.750087364581695,0.1959,-0.95,-0.1727,-0.1715
3185422.0,512.850689,1.0,9.97,0.04,-16.08,-4.19,-2.06,47.5,-110.81,254.5,53.13,0.9236878141344054,5.009090849183958,-8.414895205789799,-139.83527593342117,-14.523222401516826,-30.888426648702456,0.1762,-0.9392,-0.1264,-0.2663
3185459.0,512.892209,1.0,7.35,1.21,-8.36,-19.56,-7.69,43.38,-53.06,51.56,14.06,2.170125090565798,3.3607328783331694,-0.6514679765666838,-139.40365501423122,-12.780520582262026,-33.14160783025417,0.1635,-0.9379,-0.1113,-0.2852
3185491.0,512.946091,1.0,8.13,-2.17,-10.01,-19.56,-7.69,43.38,-41.81,67.37,-1.94,0.398471488601988,0.6423128850858388,-3.2484085839521963,-138.1343678726239,-11.92758912667584,-35.660746697215934,0.1523,-0.934,-0.1039,-0.3062
3185528.0,512.983014,1.0,7.38,-0.28,-10.15,-24.06,-9.19,41.0,-32.88,4.94,5.75,0.0965792370254932,2.364545664700857,-2.5207542787003643,-138.26285199839916,-11.167427069301608,-36.33548075823788,0.1423,-0.9344,-0.0973,-0.3118
3185565.0,512.999996,1.0,5.96,-0.21,-7.78,-25.56,-11.06,40.19,-5.88,-28.37,-14.94,0.43990196093530276,1.640004368061298,0.15206705004793086,-139.27173038736439,-11.294085603048902,-35.504295540348124,0.1356,-0.9375,-0.0984,-0.3049
3185600.0,513.034996,1.0,5.56,-1.98,-7.68,-25.56,-11.06,40.19,6.56,-22.12,-15.81,-0.21699635439113552,-0.06960938333340072,0.12344458464642294,-139.60231554875963,-11.916067673936476,-34.91520624744419,0.1352,-0.9385,-0.1038,-0.3
3185635.0,513.06763,1.0,5.67,-1.94,-7.75,-24.87,-11.75,42.19,-6.38,-13.44,-2.75,-0.06107497925927641,-0.09695391479874516,0.010637046491122959,-140.17034192327273,-12.261764386292771,-34.27909787153104,0.1329,-0.9402,-0.1068,-0.2947
3185670.0,513.099553,1.0,5.16,-1.0,-7.71,-23.69,-11.5,41.38,-0.06,-12.63,-6.44,-0.14100660654125896,0.7967900130708786,0.5106862085482344,-140.50813431460048,-12.353968967121855,-33.967443729776726,0.1312,-0.9412,-0.1076,-0.2921
3185707.0,513.141765,1.0,5.17,-1.92,-7.42,-22.06,-11.75,41.88,8.63,-6.31,-13.63,-0.199058875399861,-0.17854544535856626,0.5654272947479377,-140.54206620040912,-12.976563032466053,-33.6081640231361,0.1321,-0.9413,-0.113,-0.2891
3185741.0,513.171021,1.0,5.55,-1.49,-7.81,-22.06,-11.75,41.88,-10.25,-2.0,-2.63,0.030982649034873688,0.2426425995978274,0.11341191129511152,-140.6780748758918,-13.10343432167045,-33.57225481905068,0.1296,-0.9417,-0.1141,-0.2888
3185778.0,513.207035,1.0,5.54,-0.87,-7.61,-22.56,-12.19,43.0,1.88,-3.5,-9.13,0.3082274287526827,0.7278365934865239,0.38667920676786594,-140.74624891732873,-13.2187858542384,-33.524381159227765,0.1279,-0.9419,-0.1151,-0.2884
3185815.0,513.249276,1.0,5.8,-1.86,-7.7,-22.06,-12.56,42.19,10.56,1.12,-14.63,0.1615541113779031,-0.2067032205592746,-0.007664751815703141,-140.40650617828152,-13.830376539145913,-33.56028583882476,0.1298,-0.9409,-0.1204,-0.2887
3185850.0,513.273053,1.0,5.97,-2.08,-7.81,-22.06,-12.56,42.19,15.81,1.56,-12.25,0.16336647798388482,-0.39497810548853857,-0.23230929317655047,-140.17034192327273,-14.222925164993965,-33.56028583882476,0.1313,-0.9402,-0.1238,-0.2887
