TIME,ELAPSED_SECONDS,PSTATE,acc_x,acc_y,acc_z,mag_x,mag_y,mag_z,gyr_x,gyr_y,gyr_z,lin_x,lin_y,lin_z,eul_x,eul_y,eul_z,qua_w,qua_x,qua_y,qua_z
2195568.0,551.679754,1.0,-1.6,-1.64,-9.53,16.56,-14.69,41.75,5.81,-6.56,-3.31,0.08860683583290296,-0.2816463043505128,0.00954204979911566,-153.1625065187994,-23.109005518751953,12.042810329741007,0.0527,-0.9727,-0.2003,0.1049
2195603.0,551.720022,1.0,-1.73,-1.67,-9.5,17.0,-15.0,43.5,2.94,-3.88,0.5,-0.016968685417135365,-0.24198904772619328,0.01007134393359621,-153.01476916887478,-23.144095168471857,12.192616183384212,0.0538,-0.9724,-0.2006,0.1062
2195638.0,551.739234,1.0,-1.8,-1.6,-9.4,17.0,-15.0,43.5,0.25,-1.19,2.81,-0.0634751022047535,-0.1584309863638929,0.10454350017431224,-153.06392657993817,-23.05052764872174,12.261764386292771,0.0539,-0.9725,-0.1998,0.1068
2195673.0,551.803886,1.0,-1.77,-1.18,-9.62,17.37,-13.5,41.75,-2.5,1.63,4.31,0.16025088438558044,0.21727269017927728,-0.042045966073676055,-153.11317220133924,-23.027138205337284,12.204140573704523,0.0533,-0.9726,-0.1996,0.1063
2195709.0,551.809066,1.0,-1.73,-1.39,-9.78,17.37,-13.88,43.06,1.56,-2.44,0.94,0.154087741482261,0.02013489807837432,-0.2207749712378444,-153.1625065187994,-22.98036223475966,12.204140573704523,0.0534,-0.9727,-0.1992,0.1063
2195744.0,551.851391,1.0,-1.79,-1.35,-9.48,17.37,-13.88,43.06,-0.31,0.63,2.5,0.05276827114286298,0.05994968034421533,0.06546826751049295,-153.21193002249612,-22.921897728102717,12.238714488577818,0.0534,-0.9728,-0.1987,0.1066
2195777.0,551.894329,1.0,-1.78,-1.28,-9.74,16.56,-13.88,42.56,3.88,1.56,-2.19,0.1393114263324542,0.14581275909819896,-0.175019748382649,-153.21193002249612,-22.921897728102717,12.181091916848366,0.0538,-0.9728,-0.1987,0.1061
2195812.0,551.917268,1.0,-1.62,-1.44,-9.91,17.0,-14.25,42.69,2.63,0.81,-0.81,0.2581876467917409,-0.029701887263842736,-0.3342847171223422,-153.1625065187994,-22.956975705375932,12.134996086138983,0.0549,-0.9727,-0.199,0.1057
2195847.0,551.965203,1.0,-1.84,-1.25,-9.48,15.06,-13.88,41.75,0.31,-1.94,0.88,0.04081682059730063,0.20352494763819898,0.07138361520881631,-153.3110465719337,-22.79329707445838,12.169567773976446,0.0551,-0.973,-0.1976,0.106
2195881.0,552.005125,1.0,-1.73,-1.02,-9.88,15.06,-13.88,41.75,-1.37,0.31,-0.56,0.3082650499052556,0.38602862593074694,-0.26328816063281657,-153.36074062083046,-22.79329707445838,12.134996086138983,0.0545,-0.9731,-0.1976,0.1057
2195918.0,552.041033,1.0,-1.72,-1.53,-9.69,16.19,-14.25,42.56,1.94,0.25,-2.88,0.08082053885563645,-0.08930887209326488,-0.15231038579653067,-153.26144320712007,-22.86343926833653,12.111948910357556,0.0548,-0.9729,-0.1982,0.1055
2195955.0,552.060071,1.0,-1.92,-1.43,-9.45,17.69,-14.25,42.56,-1.19,0.81,-0.69,-0.12126801598299841,0.06584766282265364,0.05909860728601579,-153.1625065187994,-22.99205586322248,12.088902226339817,0.0546,-0.9727,-0.1993,0.1053
2195990.0,552.110505,1.0,-1.97,-1.48,-9.33,17.69,-14.25,42.56,0.19,8.0,-0.75,-0.23772583882276965,0.04371560634408575,0.1597968669146841,-153.21193002249612,-23.015443848374385,11.92758912667584,0.0549,-0.9728,-0.1995,0.1039
2196025.0,552.128209,1.0,-2.0,-0.97,-9.88,15.88,-14.25,42.25,1.25,18.5,-1.75,-0.05238051439490732,0.6124219924867956,-0.3016384597161288,-153.46040280996561,-22.98036223475966,11.294085603048902,0.0566,-0.9733,-0.1992,0.0984
2196062.0,552.171019,1.0,0.12,-2.83,-15.61,17.0,-13.88,42.25,18.94,12.75,-10.5,2.2636670122206066,-1.338358771243616,-5.83879686026,-153.36074062083046,-23.237678334824075,10.741493332748478,0.0618,-0.9731,-0.2014,0.0936
2196097.0,552.223353,1.0,0.81,-2.72,-17.26,17.0,-13.88,42.25,11.56,-99.5,5.88,4.113160279052605,-1.608767562135436,-7.1183575169804545,-151.9546930927713,-23.284475807440252,13.703410648771607,0.0606,-0.9702,-0.2018,0.1193
2196131.0,552.229925,1.0,-1.65,-0.35,-10.46,16.19,-13.19,43.06,10.13,-212.19,25.37,2.0075315089941173,0.6934312118884509,-0.5734063772445257,-149.37507492345586,-22.921897728102717,19.11066283969618,0.0517,-0.9645,-0.1987,0.166
2196168.0,552.28445,1.0,-3.59,-1.73,-7.53,20.37,-13.88,40.19,33.38,-183.06,-1.81,-0.028523499573475775,-0.2195060341311782,1.29002487551835,-143.83109490597238,-22.804986838376163,27.183245547895737,0.0449,-0.9506,-0.1977,0.235
2196203.0,552.311377,1.0,-4.91,-1.37,-4.33,27.06,-12.75,37.0,13.44,-135.0,-3.75,-1.9603469301133323,0.575862826824494,3.43802990469859,-139.86866179765227,-23.366380865675165,31.804859125621785,0.0408,-0.9393,-0.2025,0.274
2196238.0,552.378198,1.0,-5.35,-1.59,-2.93,27.06,-12.75,37.0,8.88,-79.25,-5.0,-2.762978742064785,0.542213542511665,4.166840344948242,-136.65191882638644,-23.56534364989273,35.57649524988903,0.0379,-0.9293,-0.2042,0.3055
2196273.0,552.39615,1.0,-6.02,-1.66,-0.37,31.56,-11.88,33.69,5.94,13.44,-10.44,-4.730198097584413,0.9398959218333687,5.822340572542112,-135.97435612355386,-24.068925773800885,36.01000138130928,0.0388,-0.9271,-0.2085,0.3091
2196310.0,552.422082,1.0,-5.3,-2.7,-0.4,33.06,-11.88,34.19,-22.94,100.31,1.5,-4.729401035365064,-0.2618468029154405,6.186677334565792,-137.97429037596618,-24.25642512530879,33.39275962065839,0.042,-0.9335,-0.2101,0.2873
2196344.0,552.442078,1.0,-4.43,-1.49,0.79,33.06,-11.88,34.19,-51.81,224.69,10.94,-4.459182597849043,0.5028511452289313,8.279583765423974,-142.3824879692619,-24.11579445991055,28.044656157547973,0.04,-0.9466,-0.2089,0.2423
2196379.0,552.487286,1.0,-1.32,-0.72,-2.28,33.0,-10.88,34.5,-40.38,383.81,-9.94,-0.8124986141411287,-0.015825648273538495,7.1991999907236055,-150.93250619783007,-23.98691540045918,15.147239662385429,0.0488,-0.968,-0.2078,0.1318
2196414.0,552.534466,1.0,3.29,-1.39,-7.54,25.75,-13.06,40.25,-49.88,444.81,-12.5,2.4402750619025158,-1.5821432624121559,1.986823894551076,-155.214797761141,-23.577049581358693,-1.6616358358374437,0.064,-0.9767,-0.2043,-0.0145
2196451.0,552.560065,1.0,6.56,-0.65,-13.3,10.88,-14.19,44.75,-55.19,398.81,0.31,2.8290793024597045,-0.498224618234395,-4.75680366079693,-151.9546930927713,-22.699787605080818,-13.991994191085649,0.0716,-0.9702,-0.1968,-0.1218
2196486.0,552.602549,1.0,8.83,0.02,-20.99,10.88,-14.19,44.75,-25.62,213.63,4.44,-0.10706008104425546,1.8648550699685305,-12.888288944774876,-146.5113892939378,-21.62551192117329,-23.541932535122793,0.0779,-0.9576,-0.1876,-0.204
2196523.0,552.643399,1.0,8.85,0.3,-18.16,-5.19,-17.25,44.0,35.31,-127.31,7.13,1.6692940085087868,1.463233845201851,-10.274946157362907,-147.6436957459843,-21.660511797125544,-21.78886220109525,0.0809,-0.9604,-0.1879,-0.189
2196559.0,552.677308,1.0,6.74,-0.59,-14.33,-10.38,-17.69,43.19,51.19,-135.75,-15.75,2.411020181379605,0.22725167212934289,-5.854127067645617,-150.479330837061,-22.699787605080818,-15.771709071970362,0.0864,-0.967,-0.1968,-0.1372
2196596.0,552.716205,1.0,6.17,-2.45,-17.54,-10.38,-17.69,43.19,60.63,-186.38,-15.5,1.9341436542506232,-0.7579120406957376,-8.832224903365022,-151.6255402012684,-23.834643460050298,-10.92566228171013,0.0916,-0.9695,-0.2065,-0.0952
2196631.0,552.739446,1.0,3.51,-3.95,-11.77,-4.19,-16.37,44.38,58.25,-248.0,29.12,1.74323636212215,-2.7126048724250538,-2.685683720801368,-153.06392657993817,-24.479166312304468,-1.4438918508267422,0.0955,-0.9725,-0.212,-0.0126
2196666.0,552.821117,1.0,0.63,-5.57,-6.73,3.0,-13.75,45.19,-20.31,-225.88,96.5,-0.39646740485907994,-4.483655725160322,2.2930393543036605,-154.9492208405226,-22.127373666986443,7.4651897628112485,0.0776,-0.9762,-0.1919,0.0651
2196703.0,552.824136,1.0,-1.24,-2.58,-6.59,12.25,-11.19,44.75,-84.0,-144.0,129.88,-0.5080526114912777,-1.6143941285297019,2.823977578804392,-156.87120131517742,-18.947996901150272,11.904546342091734,0.0485,-0.9797,-0.1646,0.1037
2196738.0,552.861598,1.0,-1.85,-1.54,-5.49,12.25,-11.19,44.75,-75.25,-133.31,122.37,-0.5138046130312404,-1.106760524994077,3.9376393542486525,-157.62647223808008,-14.696516297153032,16.69772182857332,0.0108,-0.981,-0.1279,0.1452
2196774.0,552.880131,1.0,-3.55,-0.17,-2.11,15.25,-15.69,42.38,-80.19,-63.06,129.19,-2.6444035005702733,0.36929089970725265,6.651613651942327,-157.6856148741907,-11.37469368630907,18.9944689370341,-0.0161,-0.9811,-0.0991,0.165
2196811.0,552.923591,1.0,-3.96,0.39,1.58,18.69,-20.69,39.06,-53.44,67.12,106.62,-4.156948527397083,1.003410664436293,10.014125249287108,-159.60284227959588,-7.407773121999346,18.274501601194086,-0.0444,-0.9842,-0.0646,0.1588
2196846.0,552.966475,1.0,-3.24,2.98,0.87,18.69,-20.69,39.06,-54.63,229.69,102.94,-3.047465001557722,3.2860329387821,9.583390981100736,-164.52900617164653,-4.825730880475589,12.965030073382623,-0.0596,-0.9909,-0.0421,0.1129
2196881.0,552.988458,1.0,2.12,2.01,-6.7,15.69,-24.25,38.25,27.44,385.25,29.69,2.1771735706420774,1.1116686617641645,2.9183549983505275,-172.57231796598282,-3.541442893959926,-0.3323159869732291,-0.0562,-0.9979,-0.0309,-0.0029
2196916.0,553.030431,1.0,4.87,1.93,-14.3,7.38,-27.25,38.69,7.31,353.13,21.31,1.2758571701270573,0.310763169044118,-5.3659376083877355,-164.44410289964105,-3.426798342942307,-14.142092768246478,-0.0482,-0.9908,-0.0299,-0.1231
2196953.0,553.054922,1.0,5.61,0.74,-14.74,-6.0,-26.5,39.88,-9.63,60.69,40.0,0.7791240248737683,-0.8575097967409889,-5.939617580044411,-161.00999937311445,-2.6702249688891855,-17.972797887176398,-0.0468,-0.9863,-0.0233,-0.1562
2196987.0,553.100164,1.0,4.37,2.3,-10.92,-6.0,-26.5,39.88,-22.44,-6.31,43.31,0.7424299739462628,1.057727484217015,-2.1081857228674377,-160.87156803103977,-0.893823223927814,-18.158446707979895,-0.0519,-0.9861,-0.0078,-0.1578
2197024.0,553.140313,1.0,4.33,2.16,-11.36,-12.0,-26.5,39.06,-14.56,13.31,17.31,0.4573089921212916,0.8218666290823899,-2.5051128197478594,-160.3946831522595,-0.1718874029970642,-18.576333132780544,-0.0554,-0.9854,-0.0015,-0.1614
2197061.0,553.172274,1.0,3.91,2.1,-11.09,-13.5,-26.5,39.06,-10.81,1.12,10.38,0.07226331244237838,0.7396206479844717,-2.115343931836648,-159.9290177639615,0.3896120513439707,-18.855062255560348,-0.0588,-0.9847,0.0034,-0.1638
2197096.0,553.205376,1.0,3.3,1.73,-10.03,-13.5,-26.5,39.06,-9.94,-1.31,9.19,-0.1518253433297243,0.4684684223046354,-0.8817215505415579,-159.9290177639615,0.7104722177704716,-18.808599629302385,-0.0609,-0.9847,0.0062,-0.1634
2197129.0,553.239127,1.0,3.15,1.61,-9.59,-13.06,-26.5,37.5,-8.69,-0.12,8.13,-0.15155299822134616,0.3629763121190339,-0.4074569059203892,-159.79792218460952,1.0657168616283692,-18.785369486689323,-0.0634,-0.9845,0.0093,-0.1632
2197166.0,553.283067,1.0,3.34,1.53,-9.8,-12.69,-26.87,36.19,-5.0,0.94,6.38,-0.054165477297745124,0.23132582948713945,-0.6566216901398114,-159.66766312617878,1.2834522947560847,-18.86667840059343,-0.0649,-0.9843,0.0112,-0.1639
2197202.0,553.314803,1.0,3.13,1.22,-10.04,-13.75,-26.87,39.06,-2.25,-15.31,5.63,-0.26532783547824224,-0.11592467050425878,-0.7764999380141528,-159.8633643903993,1.501192361934179,-18.576333132780544,-0.0656,-0.9846,0.0131,-0.1614
2197235.0,553.346751,1.0,2.8,1.34,-9.22,-13.75,-26.87,39.06,-2.0,-18.56,5.81,-0.2122421516824906,0.11381999100056205,0.08111668409912554,-160.46210370241806,1.776240293369341,-17.891591511712036,-0.0659,-0.9855,0.0155,-0.1555
2197272.0,553.393242,1.0,2.72,1.26,-9.41,-13.06,-27.56,37.5,-0.5,4.31,4.19,-0.3370839691807306,0.011628091574506772,-0.06352422263699253,-160.46210370241806,1.8450038134157025,-17.85679155473376,-0.0658,-0.9855,0.0161,-0.1552
2197309.0,553.427151,1.0,2.96,1.52,-9.95,-13.75,-27.56,39.06,0.25,2.94,2.44,-0.31918594375083487,0.20698424189774833,-0.6780902379323539,-160.3946831522595,1.936689544653667,-18.03080801097451,-0.0655,-0.9854,0.0169,-0.1567
2197344.0,553.458068,1.0,2.87,1.11,-9.66,-13.75,-27.56,39.06,0.0,-8.25,2.25,-0.2636258435421439,-0.1499059278336597,-0.3270871994450779,-160.52975543717122,1.9710720103882062,-17.85679155473376,-0.065,-0.9856,0.0172,-0.1552
2197377.0,553.520902,1.0,2.58,1.64,-9.14,-13.75,-27.19,37.5,-6.31,-8.81,6.06,-0.35669883415148274,0.42407976389704716,0.18487665536295061,-160.80272323312002,2.2232157148923686,-17.508882729880764,-0.0662,-0.986,0.0194,-0.1522
2197413.0,553.541843,1.0,2.74,1.35,-9.48,-13.5,-27.56,37.06,1.63,5.06,-0.37,-0.3007878100817589,0.09916746433606129,-0.1482579607660579,-160.7341221464449,2.2346770389286066,-17.578451378167774,-0.0659,-0.9859,0.0195,-0.1528
2197448.0,553.56291,1.0,2.9,1.47,-9.62,-13.06,-27.56,37.5,0.06,-1.75,1.06,-0.20157053381032175,0.2037378999509092,-0.3438751188311926,-160.66576217664587,2.2346770389286066,-17.601642377536205,-0.0658,-0.9858,0.0195,-0.153
