,TIME,ELAPSED_SECONDS,PSTATE,acc_x,acc_y,acc_z,mag_x,mag_y,mag_z,gyr_x,gyr_y,gyr_z,lin_x,lin_y,lin_z,eul_x,eul_y,eul_z,qua_w,qua_x,qua_y,qua_z
0,2648373.0,1369.474935,1.0,7.89,-0.5,-6.0,-42.25,-22.25,-4.69,-0.69,-1.25,-0.63,-0.15984728671611936,-0.02936293795765477,-0.1168416568113262,-85.7654543452423,70.91515282684179,-42.60599837478333,-0.2615,-0.6805,0.5801,-0.3633
1,2648373.0,1369.474935,1.0,7.89,-0.5,-6.0,-42.25,-22.25,-4.69,-0.69,-1.25,-0.63,-0.15984728671611936,-0.02936293795765477,-0.1168416568113262,-85.7654543452423,70.91515282684179,-42.60599837478333,-0.2615,-0.6805,0.5801,-0.3633
2,2648408.0,1369.570951,1.0,7.86,-0.74,-6.05,-42.25,-22.25,-4.69,2.56,0.56,0.25,0.05340403829553608,-0.12785609730427686,-0.13872585147368532,-85.7654543452423,70.92922160534616,-42.64289936464318,-0.261,-0.6805,0.5802,-0.3636
3,2648408.0,1369.570951,1.0,7.86,-0.74,-6.05,-42.25,-22.25,-4.69,2.56,0.56,0.25,0.05340403829553608,-0.12785609730427686,-0.13872585147368532,-85.7654543452423,70.92922160534616,-42.64289936464318,-0.261,-0.6805,0.5802,-0.3636
4,2648442.0,1369.630803,1.0,7.77,-0.73,-6.05,-42.25,-20.5,-5.5,0.5,0.81,-0.06,0.03326997132693155,-0.1827596055820204,-0.06623164800811132,-85.7654543452423,70.91515282684179,-42.679804993171246,-0.2609,-0.6805,0.5801,-0.3639
5,2648442.0,1369.630803,1.0,7.77,-0.73,-6.05,-42.25,-20.5,-5.5,0.5,0.81,-0.06,0.03326997132693155,-0.1827596055820204,-0.06623164800811132,-85.7654543452423,70.91515282684179,-42.679804993171246,-0.2609,-0.6805,0.5801,-0.3639
6,2648477.0,1369.647072,1.0,8.05,-0.43,-5.95,-43.06,-21.5,-4.69,-0.37,0.19,1.19,-0.2285142428244977,0.1187141816355759,-0.2095163416651058,-85.71854745258325,70.94329161439869,-42.69210790112656,-0.2609,-0.6802,0.5803,-0.364
7,2648477.0,1369.647072,1.0,8.05,-0.43,-5.95,-43.06,-21.5,-4.69,-0.37,0.19,1.19,-0.2285142428244977,0.1187141816355759,-0.2095163416651058,-85.71854745258325,70.94329161439869,-42.69210790112656,-0.2609,-0.6802,0.5803,-0.364
8,2648514.0,1369.649824,1.0,7.97,-0.76,-6.0,-42.25,-20.06,-3.88,1.75,-0.19,-0.81,0.07641552229204884,-0.029650197856697424,-0.19793802418769424,-85.74981673368876,70.91515282684179,-42.71671526594671,-0.2606,-0.6804,0.5801,-0.3642
9,2648514.0,1369.649824,1.0,7.97,-0.76,-6.0,-42.25,-20.06,-3.88,1.75,-0.19,-0.81,0.07641552229204884,-0.029650197856697424,-0.19793802418769424,-85.74981673368876,70.91515282684179,-42.71671526594671,-0.2606,-0.6804,0.5801,-0.3642
10,2648547.0,1369.6905800000002,1.0,7.68,-0.81,-5.98,-42.25,-20.06,-3.88,0.63,-0.56,-1.0,0.1150522079818046,-0.19577346424033212,0.04205396431384045,-85.79673551557339,70.87295386927123,-42.70441132531611,-0.2605,-0.6807,0.5798,-0.3641
11,2648547.0,1369.6905800000002,1.0,7.68,-0.81,-5.98,-42.25,-20.06,-3.88,0.63,-0.56,-1.0,0.1150522079818046,-0.19577346424033212,0.04205396431384045,-85.79673551557339,70.87295386927123,-42.70441132531611,-0.2605,-0.6807,0.5798,-0.3641
12,2648584.0,1369.706862,1.0,7.97,-0.54,-6.04,-42.69,-20.75,-3.19,-0.75,1.37,-0.69,-0.14023962617145824,-0.02385402044616125,-0.2070338292887932,-85.78109393885542,70.87295386927123,-42.71671526594671,-0.2609,-0.6806,0.5798,-0.3642
13,2648584.0,1369.706862,1.0,7.97,-0.54,-6.04,-42.69,-20.75,-3.19,-0.75,1.37,-0.69,-0.14023962617145824,-0.02385402044616125,-0.2070338292887932,-85.78109393885542,70.87295386927123,-42.71671526594671,-0.2609,-0.6806,0.5798,-0.3642
14,2648621.0,1369.748703,1.0,8.0,-0.71,-5.92,-42.25,-20.5,-5.06,-0.88,0.25,-3.31,0.06720490683272118,0.049191670538135,-0.17050208263597,-85.84367215482173,70.78858910682754,-42.679804993171246,-0.2614,-0.6809999999999999,0.5792,-0.3639
15,2648621.0,1369.748703,1.0,8.0,-0.71,-5.92,-42.25,-20.5,-5.06,-0.88,0.25,-3.31,0.06720490683272118,0.049191670538135,-0.17050208263597,-85.84367215482173,70.78858910682754,-42.679804993171246,-0.2614,-0.6809999999999999,0.5792,-0.3639
16,2648653.0,1369.807763,1.0,7.83,-0.76,-5.95,-42.25,-20.5,-5.06,1.94,-1.12,0.63,0.09773841409653028,-0.08372057044948766,-0.056029051276761166,-85.8749731823786,70.77453260444078,-42.69210790112656,-0.2612,-0.6812,0.5791,-0.364
17,2648653.0,1369.807763,1.0,7.83,-0.76,-5.95,-42.25,-20.5,-5.06,1.94,-1.12,0.63,0.09773841409653028,-0.08372057044948766,-0.056029051276761166,-85.8749731823786,70.77453260444078,-42.69210790112656,-0.2612,-0.6812,0.5791,-0.364
18,2648688.0,1369.8274800000002,1.0,7.87,-0.66,-6.08,-42.25,-21.5,-4.25,-0.94,-0.06,1.0,-0.02505352786192261,-0.13881576458570688,-0.15924195728331192,-85.8749731823786,70.77453260444078,-42.69210790112656,-0.261,-0.6812,0.5791,-0.364
19,2648688.0,1369.8274800000002,1.0,7.87,-0.66,-6.08,-42.25,-21.5,-4.25,-0.94,-0.06,1.0,-0.02505352786192261,-0.13881576458570688,-0.15924195728331192,-85.8749731823786,70.77453260444078,-42.69210790112656,-0.261,-0.6812,0.5791,-0.364
20,2648725.0,1369.8639660000001,1.0,8.02,-0.47,-5.89,-42.69,-20.06,-3.5,-4.0,1.5,-1.75,-0.1530383164103688,0.1310930921640414,-0.15290791563546868,-85.89062667972252,70.74642327318205,-42.65520072513622,-0.2615,-0.6813,0.5789,-0.3637
21,2648725.0,1369.8639660000001,1.0,8.02,-0.47,-5.89,-42.69,-20.06,-3.5,-4.0,1.5,-1.75,-0.1530383164103688,0.1310930921640414,-0.15290791563546868,-85.89062667972252,70.74642327318205,-42.65520072513622,-0.2615,-0.6813,0.5789,-0.3637
22,2648758.0,1369.93096,1.0,7.91,-0.53,-6.0,-42.69,-20.06,-3.5,0.5,-0.63,0.63,-0.12306612751051292,-0.02982799612303233,-0.13482700389166702,-85.8749731823786,70.77453260444078,-42.64289936464318,-0.2615,-0.6812,0.5791,-0.3636
23,2648758.0,1369.93096,1.0,7.91,-0.53,-6.0,-42.69,-20.06,-3.5,0.5,-0.63,0.63,-0.12306612751051292,-0.02982799612303233,-0.13482700389166702,-85.8749731823786,70.77453260444078,-42.64289936464318,-0.2615,-0.6812,0.5791,-0.3636
24,2648795.0,1369.935559,1.0,7.99,-0.64,-6.03,-42.69,-20.75,-5.5,-0.31,-0.31,-0.81,-0.016793380381620704,-0.02830841179798327,-0.223779532985958,-85.8749731823786,70.76047732673608,-42.65520072513622,-0.2615,-0.6812,0.579,-0.3637
25,2648795.0,1369.935559,1.0,7.99,-0.64,-6.03,-42.69,-20.75,-5.5,-0.31,-0.31,-0.81,-0.016793380381620704,-0.02830841179798327,-0.223779532985958,-85.8749731823786,70.76047732673608,-42.65520072513622,-0.2615,-0.6812,0.579,-0.3637
26,2648829.0,1370.009064,1.0,8.01,-0.64,-5.87,-41.88,-19.25,-4.38,0.12,-0.69,-0.06,0.02179791536625864,0.1086963425375036,-0.14394344742838427,-85.90628216751116,70.76047732673608,-42.63059851955768,-0.2617,-0.6814,0.579,-0.3635
27,2648829.0,1370.009064,1.0,8.01,-0.64,-5.87,-41.88,-19.25,-4.38,0.12,-0.69,-0.06,0.02179791536625864,0.1086963425375036,-0.14394344742838427,-85.90628216751116,70.76047732673608,-42.63059851955768,-0.2617,-0.6814,0.579,-0.3635
28,2648866.0,1370.0124,1.0,7.78,-0.62,-5.93,-42.69,-20.75,-3.88,1.69,-2.75,0.63,-0.025012338322829564,-0.058643213096427615,0.004934060610134239,-85.92193964679629,70.78858910682754,-42.58140028916194,-0.2612,-0.6815,0.5792,-0.3631
29,2648866.0,1370.0124,1.0,7.78,-0.62,-5.93,-42.69,-20.75,-3.88,1.69,-2.75,0.63,-0.025012338322829564,-0.058643213096427615,0.004934060610134239,-85.92193964679629,70.78858910682754,-42.58140028916194,-0.2612,-0.6815,0.5792,-0.3631
30,2648899.0,1370.051053,1.0,7.87,-0.76,-6.05,-42.69,-20.75,-3.88,1.37,-0.12,2.0,0.07709344183715737,-0.11772144449305764,-0.1481075692596452,-85.92193964679629,70.80264683442816,-42.64289936464318,-0.2603,-0.6815,0.5793,-0.3636
31,2648899.0,1370.051053,1.0,7.87,-0.76,-6.05,-42.69,-20.75,-3.88,1.37,-0.12,2.0,0.07709344183715737,-0.11772144449305764,-0.1481075692596452,-85.92193964679629,70.80264683442816,-42.64289936464318,-0.2603,-0.6815,0.5793,-0.3636
32,2648936.0,1370.058632,1.0,7.74,-0.41,-6.04,-42.25,-20.75,-4.69,-3.25,-0.69,-0.56,-0.2631278908249062,-0.11992178884239645,-0.015451734233403512,-85.92193964679629,70.80264683442816,-42.59369907468167,-0.2606,-0.6815,0.5793,-0.3632
33,2648936.0,1370.058632,1.0,7.74,-0.41,-6.04,-42.25,-20.75,-4.69,-3.25,-0.69,-0.56,-0.2631278908249062,-0.11992178884239645,-0.015451734233403512,-85.92193964679629,70.80264683442816,-42.59369907468167,-0.2606,-0.6815,0.5793,-0.3632
34,2648971.0,1370.114289,1.0,8.04,-0.7,-5.98,-41.88,-20.75,-3.88,2.13,-0.63,1.37,0.04360819656818049,0.05795503196615126,-0.2375891219774271,-85.92193964679629,70.83076596739934,-42.60599837478333,-0.2601,-0.6815,0.5795,-0.3633
35,2648971.0,1370.114289,1.0,8.04,-0.7,-5.98,-41.88,-20.75,-3.88,2.13,-0.63,1.37,0.04360819656818049,0.05795503196615126,-0.2375891219774271,-85.92193964679629,70.83076596739934,-42.60599837478333,-0.2601,-0.6815,0.5795,-0.3633
36,2649006.0,1370.1212970000001,1.0,7.85,-0.64,-5.98,-41.88,-20.75,-3.88,-1.06,-0.12,-1.31,-0.015337657307512131,-0.04399161673305296,-0.08224930649137185,-85.96892404416114,70.80264683442816,-42.55680426104336,-0.2604,-0.6818,0.5793,-0.3629
37,2649006.0,1370.1212970000001,1.0,7.85,-0.64,-5.98,-41.88,-20.75,-3.88,-1.06,-0.12,-1.31,-0.015337657307512131,-0.04399161673305296,-0.08224930649137185,-85.96892404416114,70.80264683442816,-42.55680426104336,-0.2604,-0.6818,0.5793,-0.3629
38,2649040.0,1370.138319,1.0,7.88,-0.88,-6.15,-42.69,-20.5,-3.5,5.31,-0.31,1.75,0.1635937211690497,-0.19728002460561056,-0.22458211207305645,-85.96892404416114,70.80264683442816,-42.65520072513622,-0.2592,-0.6818,0.5793,-0.3637
39,2649040.0,1370.138319,1.0,7.88,-0.88,-6.15,-42.69,-20.5,-3.5,5.31,-0.31,1.75,0.1635937211690497,-0.19728002460561056,-0.22458211207305645,-85.96892404416114,70.80264683442816,-42.65520072513622,-0.2592,-0.6818,0.5793,-0.3637
40,2649075.0,1370.226046,1.0,7.96,-0.54,-5.92,-41.56,-20.75,-3.88,-4.5,1.25,-1.88,-0.11044919029057998,0.09181079597761023,-0.12707899540278866,-85.98458949996679,70.78858910682754,-42.63059851955768,-0.2596,-0.6819,0.5792,-0.3635
41,2649075.0,1370.226046,1.0,7.96,-0.54,-5.92,-41.56,-20.75,-3.88,-4.5,1.25,-1.88,-0.11044919029057998,0.09181079597761023,-0.12707899540278866,-85.98458949996679,70.78858910682754,-42.63059851955768,-0.2596,-0.6819,0.5792,-0.3635
42,2649112.0,1370.232541,1.0,7.98,-0.3,-5.92,-41.56,-21.19,-3.88,-1.06,-0.19,-1.0,-0.3368416302036379,0.14719923998897966,-0.12721481183977446,-85.95326058406742,70.81670578777461,-42.59369907468167,-0.2601,-0.6817,0.5794,-0.3632
43,2649112.0,1370.232541,1.0,7.98,-0.3,-5.92,-41.56,-21.19,-3.88,-1.06,-0.19,-1.0,-0.3368416302036379,0.14719923998897966,-0.12721481183977446,-85.95326058406742,70.81670578777461,-42.59369907468167,-0.2601,-0.6817,0.5794,-0.3632
44,2649147.0,1370.29126,1.0,7.82,-0.58,-6.09,-41.56,-21.19,-3.88,-2.31,-2.5,-3.19,-0.10762198581144776,-0.13048362278694106,-0.12049921477230717,-85.98458949996679,70.80264683442816,-42.59369907468167,-0.2598,-0.6819,0.5793,-0.3632
45,2649147.0,1370.29126,1.0,7.82,-0.58,-6.09,-41.56,-21.19,-3.88,-2.31,-2.5,-3.19,-0.10762198581144776,-0.13048362278694106,-0.12049921477230717,-85.98458949996679,70.80264683442816,-42.59369907468167,-0.2598,-0.6819,0.5793,-0.3632
46,2649184.0,1370.308316,1.0,7.54,-0.73,-6.06,-41.56,-20.75,-4.69,-3.81,-0.94,-6.06,0.05522580535871091,-0.30271420059868204,0.1105985241064058,-86.0943036593405,70.73237044324748,-42.47073434166396,-0.2605,-0.6826,0.5788,-0.3622
47,2649184.0,1370.308316,1.0,7.54,-0.73,-6.06,-41.56,-20.75,-4.69,-3.81,-0.94,-6.06,0.05522580535871091,-0.30271420059868204,0.1105985241064058,-86.0943036593405,70.73237044324748,-42.47073434166396,-0.2605,-0.6826,0.5788,-0.3622
48,2649219.0,1370.311293,1.0,6.57,-0.8,-5.9,-41.56,-20.5,-4.25,-6.75,6.88,-8.88,0.13260402988031206,-0.7992185654926425,0.9772351917677238,-86.18842251678954,70.56383173343356,-42.36010990852977,-0.2628,-0.6832,0.5776,-0.3613
49,2649219.0,1370.311293,1.0,6.57,-0.8,-5.9,-41.56,-20.5,-4.25,-6.75,6.88,-8.88,0.13260402988031206,-0.7992185654926425,0.9772351917677238,-86.18842251678954,70.56383173343356,-42.36010990852977,-0.2628,-0.6832,0.5776,-0.3613
50,2649251.0,1370.345241,1.0,5.12,-1.63,-6.12,-41.56,-20.5,-4.25,-6.75,24.87,-28.25,0.8730003510445409,-2.113753417034365,1.990281477530521,-86.36116191059776,69.83551038215226,-42.48302850521899,-0.2699,-0.6843,0.5724,-0.3623
51,2649251.0,1370.345241,1.0,5.12,-1.63,-6.12,-41.56,-20.5,-4.25,-6.75,24.87,-28.25,0.8730003510445409,-2.113753417034365,1.990281477530521,-86.36116191059776,69.83551038215226,-42.48302850521899,-0.2699,-0.6843,0.5724,-0.3623
52,2649288.0,1370.404809,1.0,2.78,-1.56,-4.8,-41.56,-20.75,-4.25,-34.25,51.69,-53.31,0.9670192228896772,-2.576611352751648,4.744244666620107,-86.48694417859592,68.66575661319368,-42.507618370719364,-0.2849,-0.6851,0.564,-0.3625
53,2649288.0,1370.404809,1.0,2.78,-1.56,-4.8,-41.56,-20.75,-4.25,-34.25,51.69,-53.31,0.9670192228896772,-2.576611352751648,4.744244666620107,-86.48694417859592,68.66575661319368,-42.507618370719364,-0.2849,-0.6851,0.564,-0.3625
54,2649325.0,1370.421806,1.0,-0.54,-4.83,-3.58,-41.88,-22.25,-4.69,-28.56,75.81,-73.75,4.05243947050337,-4.261635292208873,8.445364220265938,-86.66010715009037,66.22709184452836,-43.11071528826148,-0.3094,-0.6862,0.5463,-0.3674
55,2649325.0,1370.421806,1.0,-0.54,-4.83,-3.58,-41.88,-22.25,-4.69,-28.56,75.81,-73.75,4.05243947050337,-4.261635292208873,8.445364220265938,-86.66010715009037,66.22709184452836,-43.11071528826148,-0.3094,-0.6862,0.5463,-0.3674
56,2649360.0,1370.474045,1.0,-1.97,-5.09,-2.51,-41.88,-22.25,-4.69,-98.0,134.56,-110.5,4.2704024323026415,-4.122135791993944,10.734421296465957,-86.21981154246382,63.49812368940196,-43.221624049321754,-0.34700000000000003,-0.6834,0.5262,-0.3683
57,2649360.0,1370.474045,1.0,-1.97,-5.09,-2.51,-41.88,-22.25,-4.69,-98.0,134.56,-110.5,4.2704024323026415,-4.122135791993944,10.734421296465957,-86.21981154246382,63.49812368940196,-43.221624049321754,-0.34700000000000003,-0.6834,0.5262,-0.3683
58,2649395.0,1370.478374,1.0,-0.29,0.53,-0.69,-41.88,-24.06,-8.69,-177.88,184.81,-87.69,-0.6224078944127659,-0.6682998676180602,9.7224852810594,-82.0214061143213,59.8677251126705,-43.542266640188856,-0.4276,-0.6562,0.499,-0.3709
59,2649395.0,1370.478374,1.0,-0.29,0.53,-0.69,-41.88,-24.06,-8.69,-177.88,184.81,-87.69,-0.6224078944127659,-0.6682998676180602,9.7224852810594,-82.0214061143213,59.8677251126705,-43.542266640188856,-0.4276,-0.6562,0.499,-0.3709
60,2649430.0,1370.5291439999999,1.0,4.87,2.06,1.17,-38.19,-27.0,-16.5,-113.56,39.06,-52.0,-0.7141189201561001,2.65495941127438,5.140749798285362,-79.15182427198795,58.90475801998696,-41.52560730818473,-0.4761,-0.6371,0.4917,-0.3545
61,2649430.0,1370.5291439999999,1.0,4.87,2.06,1.17,-38.19,-27.0,-16.5,-113.56,39.06,-52.0,-0.7141189201561001,2.65495941127438,5.140749798285362,-79.15182427198795,58.90475801998696,-41.52560730818473,-0.4761,-0.6371,0.4917,-0.3545
62,2649466.0,1370.533124,1.0,7.17,-0.88,1.67,-32.69,-27.0,-27.75,-219.19,22.81,-44.94,2.7671044218386545,3.566057158725333,3.9245951329195528,-76.3987758164682,59.247204266053025,-38.683253582612885,-0.5134,-0.6184,0.4943,-0.3312
63,2649466.0,1370.533124,1.0,7.17,-0.88,1.67,-32.69,-27.0,-27.75,-219.19,22.81,-44.94,2.7671044218386545,3.566057158725333,3.9245951329195528,-76.3987758164682,59.247204266053025,-38.683253582612885,-0.5134,-0.6184,0.4943,-0.3312
64,2649501.0,1370.612293,1.0,8.44,5.22,9.74,-32.69,-27.0,-27.75,-289.0,123.06,10.25,-4.680295539001227,10.030531113228266,1.3904228610638771,-67.53166897221763,60.596333747101795,-35.32385988676265,-0.5869,-0.5558,0.5045,-0.3034
65,2649501.0,1370.612293,1.0,8.44,5.22,9.74,-32.69,-27.0,-27.75,-289.0,123.06,10.25,-4.680295539001227,10.030531113228266,1.3904228610638771,-67.53166897221763,60.596333747101795,-35.32385988676265,-0.5869,-0.5558,0.5045,-0.3034
66,2649538.0,1370.629642,1.0,15.81,10.25,3.06,-23.56,-21.25,-35.19,-150.13,321.25,-42.69,-4.279061401715052,0.8155256164176663,-8.778471777629521,-60.02646555170329,56.49744158979394,-36.10640826375515,-0.6555,-0.5002,0.4733,-0.3099
67,2649538.0,1370.629642,1.0,15.81,10.25,3.06,-23.56,-21.25,-35.19,-150.13,321.25,-42.69,-4.279061401715052,0.8155256164176663,-8.778471777629521,-60.02646555170329,56.49744158979394,-36.10640826375515,-0.6555,-0.5002,0.4733,-0.3099
68,2649575.0,1370.633103,1.0,11.03,2.33,2.05,-16.06,-6.5,-36.56,-42.94,122.94,22.25,1.9713547456260203,0.37906298318750503,-1.4744125262727257,-55.79613423290889,50.4026226278441,-39.04779541564693,-0.6986,-0.4679,0.4258,-0.3342
69,2649575.0,1370.633103,1.0,11.03,2.33,2.05,-16.06,-6.5,-36.56,-42.94,122.94,22.25,1.9713547456260203,0.37906298318750503,-1.4744125262727257,-55.79613423290889,50.4026226278441,-39.04779541564693,-0.6986,-0.4679,0.4258,-0.3342
70,2649610.0,1370.717282,1.0,12.69,3.16,4.73,-16.06,-6.5,-36.56,-119.56,-35.06,55.06,0.4542327177957821,2.0683297858173413,-3.937813777651877,-51.54513650446032,53.37191107016693,-38.50113546048416,-0.7075,-0.4348,0.4491,-0.3297
71,2649610.0,1370.717282,1.0,12.69,3.16,4.73,-16.06,-6.5,-36.56,-119.56,-35.06,55.06,0.4542327177957821,2.0683297858173413,-3.937813777651877,-51.54513650446032,53.37191107016693,-38.50113546048416,-0.7075,-0.4348,0.4491,-0.3297
72,2649645.0,1370.784108,1.0,16.82,11.24,4.45,-11.19,-1.56,-40.38,-47.94,67.69,12.25,-5.290786157672648,-2.611605218278286,-10.048817761239999,-47.83239125050407,56.09455949870071,-37.14447095017847,-0.7164,-0.4054,0.4702,-0.3185
73,2649645.0,1370.784108,1.0,16.82,11.24,4.45,-11.19,-1.56,-40.38,-47.94,67.69,12.25,-5.290786157672648,-2.611605218278286,-10.048817761239999,-47.83239125050407,56.09455949870071,-37.14447095017847,-0.7164,-0.4054,0.4702,-0.3185
74,2649681.0,1370.817393,1.0,11.72,-1.01,2.46,-15.75,5.25,-43.06,85.37,58.13,-33.5,4.552856039097248,1.3294852438281284,-1.2357261425564108,-49.555559524438046,52.24604776210595,-38.974854277526724,-0.7206,-0.4191,0.4403,-0.3336
75,2649681.0,1370.817393,1.0,11.72,-1.01,2.46,-15.75,5.25,-43.06,85.37,58.13,-33.5,4.552856039097248,1.3294852438281284,-1.2357261425564108,-49.555559524438046,52.24604776210595,-38.974854277526724,-0.7206,-0.4191,0.4403,-0.3336
76,2649716.0,1370.825209,1.0,9.63,2.63,4.91,-15.75,3.75,-45.56,-68.31,22.44,42.69,-0.4825817380280406,1.9629493664816935,-1.1329955450234321,-47.74465793118145,53.077119755232744,-39.558846745858816,-0.7226,-0.4047,0.4468,-0.3384
77,2649716.0,1370.825209,1.0,9.63,2.63,4.91,-15.75,3.75,-45.56,-68.31,22.44,42.69,-0.4825817380280406,1.9629493664816935,-1.1329955450234321,-47.74465793118145,53.077119755232744,-39.558846745858816,-0.7226,-0.4047,0.4468,-0.3384
78,2649751.0,1370.84318,1.0,10.31,2.16,4.13,-15.75,3.75,-45.56,-96.44,24.75,-22.62,0.4850451011907378,1.0198179455386294,-1.4513828036370686,-44.85325420187507,53.25651268144825,-38.04022025359053,-0.7398,-0.3815,0.4482,-0.3259
79,2649751.0,1370.84318,1.0,10.31,2.16,4.13,-15.75,3.75,-45.56,-96.44,24.75,-22.62,0.4850451011907378,1.0198179455386294,-1.4513828036370686,-44.85325420187507,53.25651268144825,-38.04022025359053,-0.7398,-0.3815,0.4482,-0.3259
80,2649788.0,1370.928369,1.0,9.11,1.44,6.49,-15.75,4.75,-46.56,-64.81,47.13,10.44,-0.3953336512878041,3.2487230986648417,-0.9857227480272376,-42.778242722959625,53.10273871771935,-37.1565598653149,-0.7521,-0.3647,0.447,-0.3186
81,2649788.0,1370.928369,1.0,9.11,1.44,6.49,-15.75,4.75,-46.56,-64.81,47.13,10.44,-0.3953336512878041,3.2487230986648417,-0.9857227480272376,-42.778242722959625,53.10273871771935,-37.1565598653149,-0.7521,-0.3647,0.447,-0.3186
82,2649825.0,1370.9338539999999,1.0,10.51,2.55,5.43,-17.0,7.38,-49.0,-95.56,115.12,-2.19,-0.1372930841313751,0.5990605891010556,-2.279283022304716,-38.51327351873995,51.50696474252449,-37.56783922201158,-0.7738,-0.3298,0.4345,-0.322
83,2649825.0,1370.9338539999999,1.0,10.51,2.55,5.43,-17.0,7.38,-49.0,-95.56,115.12,-2.19,-0.1372930841313751,0.5990605891010556,-2.279283022304716,-38.51327351873995,51.50696474252449,-37.56783922201158,-0.7738,-0.3298,0.4345,-0.322
84,2649860.0,1370.994436,1.0,10.16,3.99,4.93,-17.0,7.38,-49.0,-159.0,74.19,-39.06,-0.8518760302397703,-1.3136168537052575,-2.0676633692337987,-34.63902408126335,50.326646830888215,-35.9015751355927,-0.7973,-0.2977,0.4252,-0.3082
85,2649860.0,1370.994436,1.0,10.16,3.99,4.93,-17.0,7.38,-49.0,-159.0,74.19,-39.06,-0.8518760302397703,-1.3136168537052575,-2.0676633692337987,-34.63902408126335,50.326646830888215,-35.9015751355927,-0.7973,-0.2977,0.4252,-0.3082
86,2649894.0,1371.025133,1.0,10.18,4.19,5.57,-14.0,10.56,-49.69,-102.75,36.0,29.87,-1.1760358174422778,-1.72097423185801,-2.353472838580773,-30.63884419055943,50.0103350226896,-34.54300944397086,-0.8145,-0.2642,0.4227,-0.2969
87,2649894.0,1371.025133,1.0,10.18,4.19,5.57,-14.0,10.56,-49.69,-102.75,36.0,29.87,-1.1760358174422778,-1.72097423185801,-2.353472838580773,-30.63884419055943,50.0103350226896,-34.54300944397086,-0.8145,-0.2642,0.4227,-0.2969
88,2649931.0,1371.054778,1.0,9.39,4.97,5.3,-11.19,16.5,-49.56,-85.31,51.38,1.63,-1.812238704948374,-2.930520607082447,-1.5551649891534556,-26.982869511205863,49.56818089392642,-33.727885940809074,-0.8281,-0.2333,0.4192,-0.2901
89,2649931.0,1371.054778,1.0,9.39,4.97,5.3,-11.19,16.5,-49.56,-85.31,51.38,1.63,-1.812238704948374,-2.930520607082447,-1.5551649891534556,-26.982869511205863,49.56818089392642,-33.727885940809074,-0.8281,-0.2333,0.4192,-0.2901
90,2649966.0,1371.09853,1.0,8.1,2.45,5.89,-9.25,22.37,-48.69,-70.75,49.13,-78.06,-0.7634368659087235,-0.5876239784623574,-0.4586538051344355,-25.559049077875773,48.434798213187825,-31.74528777217434,-0.8414,-0.2212,0.4102,-0.2735
91,2649966.0,1371.09853,1.0,8.1,2.45,5.89,-9.25,22.37,-48.69,-70.75,49.13,-78.06,-0.7634368659087235,-0.5876239784623574,-0.4586538051344355,-25.559049077875773,48.434798213187825,-31.74528777217434,-0.8414,-0.2212,0.4102,-0.2735
92,2650001.0,1371.149592,1.0,7.95,0.91,5.86,-9.25,22.37,-48.69,-53.0,62.13,-76.62,0.6417361506510568,0.4633367138383384,-0.07989104338605912,-24.25642512530879,46.20783414121839,-28.65924846946876,-0.8606,-0.2101,0.3924,-0.2475
93,2650001.0,1371.149592,1.0,7.95,0.91,5.86,-9.25,22.37,-48.69,-53.0,62.13,-76.62,0.6417361506510568,0.4633367138383384,-0.07989104338605912,-24.25642512530879,46.20783414121839,-28.65924846946876,-0.8606,-0.2101,0.3924,-0.2475
94,2650038.0,1371.156222,1.0,8.08,0.76,5.08,-9.75,27.5,-47.5,-36.31,36.25,-34.69,1.4883043154814737,0.018468716251940017,0.3485841738895044,-23.448298031292186,44.927644585005865,-27.537057504249983,-0.8695,-0.2032,0.3821,-0.23800000000000002
95,2650038.0,1371.156222,1.0,8.08,0.76,5.08,-9.75,27.5,-47.5,-36.31,36.25,-34.69,1.4883043154814737,0.018468716251940017,0.3485841738895044,-23.448298031292186,44.927644585005865,-27.537057504249983,-0.8695,-0.2032,0.3821,-0.23800000000000002
96,2650075.0,1371.1732539999998,1.0,8.55,0.28,6.02,-9.38,30.69,-45.56,-23.44,29.19,11.69,1.6165041980160206,0.6260027978606891,-0.5091793255979766,-22.279183498407725,44.24647435383947,-26.87682214392707,-0.8757,-0.1932,0.3766,-0.2324
97,2650075.0,1371.1732539999998,1.0,8.55,0.28,6.02,-9.38,30.69,-45.56,-23.44,29.19,11.69,1.6165041980160206,0.6260027978606891,-0.5091793255979766,-22.279183498407725,44.24647435383947,-26.87682214392707,-0.8757,-0.1932,0.3766,-0.2324
98,2650109.0,1371.214466,1.0,10.02,3.05,4.56,-9.38,30.69,-45.56,-64.12,18.0,22.75,1.81013193463114,-3.095441072061404,-1.0394629880074469,-20.320279509683687,44.13516742855202,-26.9593013980579,-0.8795,-0.1764,0.3757,-0.2331
99,2650109.0,1371.214466,1.0,10.02,3.05,4.56,-9.38,30.69,-45.56,-64.12,18.0,22.75,1.81013193463114,-3.095441072061404,-1.0394629880074469,-20.320279509683687,44.13516742855202,-26.9593013980579,-0.8795,-0.1764,0.3757,-0.2331
100,2650144.0,1371.221975,1.0,8.78,3.62,5.49,-9.38,34.69,-44.69,-8.5,-24.69,1.56,0.06538742319071299,-2.8989133185457248,-0.7728077392438539,-19.273367657733324,44.927644585005865,-26.888604025029306,-0.8785,-0.1674,0.3821,-0.2325
101,2650144.0,1371.221975,1.0,8.78,3.62,5.49,-9.38,34.69,-44.69,-8.5,-24.69,1.56,0.06538742319071299,-2.8989133185457248,-0.7728077392438539,-19.273367657733324,44.927644585005865,-26.888604025029306,-0.8785,-0.1674,0.3821,-0.2325
102,2650179.0,1371.335715,1.0,7.57,2.94,6.58,-8.56,38.38,-43.69,-18.06,-22.87,-8.75,-1.0464880360660198,-1.4418510057259055,-0.4924193010416218,-19.13390399645449,45.709958605695505,-26.42932380663794,-0.8771,-0.1662,0.3884,-0.2286
103,2650179.0,1371.335715,1.0,7.57,2.94,6.58,-8.56,38.38,-43.69,-18.06,-22.87,-8.75,-1.0464880360660198,-1.4418510057259055,-0.4924193010416218,-19.13390399645449,45.709958605695505,-26.42932380663794,-0.8771,-0.1662,0.3884,-0.2286
104,2650216.0,1371.380616,1.0,7.0,2.7,6.58,-8.88,39.5,-45.88,5.25,-18.0,-13.63,-1.326180672337977,-0.9999569594070936,-0.03345827702878701,-19.319861939553064,46.38230826013582,-25.794108466717553,-0.8758,-0.1678,0.3938,-0.2232
105,2650216.0,1371.380616,1.0,7.0,2.7,6.58,-8.88,39.5,-45.88,5.25,-18.0,-13.63,-1.326180672337977,-0.9999569594070936,-0.03345827702878701,-19.319861939553064,46.38230826013582,-25.794108466717553,-0.8758,-0.1678,0.3938,-0.2232
106,2650251.0,1371.435488,1.0,6.68,1.12,6.22,-8.88,39.5,-45.88,26.37,-13.38,-21.56,-0.4459241372785583,0.4518048862252778,0.6326528336294253,-20.518219394705007,46.54442190080458,-25.34758912480893,-0.8741,-0.1781,0.3951,-0.2194
107,2650251.0,1371.435488,1.0,6.68,1.12,6.22,-8.88,39.5,-45.88,26.37,-13.38,-21.56,-0.4459241372785583,0.4518048862252778,0.6326528336294253,-20.518219394705007,46.54442190080458,-25.34758912480893,-0.8741,-0.1781,0.3951,-0.2194
108,2650288.0,1371.45284,1.0,6.36,0.19,6.9,-10.06,39.75,-44.75,10.44,-5.13,-9.69,-0.5470206717654742,1.7538883053181378,0.6022845032843485,-21.182355652510953,46.60679955433233,-25.0892571067724,-0.8732,-0.1838,0.3956,-0.2172
109,2650288.0,1371.45284,1.0,6.36,0.19,6.9,-10.06,39.75,-44.75,10.44,-5.13,-9.69,-0.5470206717654742,1.7538883053181378,0.6022845032843485,-21.182355652510953,46.60679955433233,-25.0892571067724,-0.8732,-0.1838,0.3956,-0.2172
110,2650322.0,1371.495604,1.0,7.66,1.02,6.1,-10.38,36.38,-46.38,-1.12,19.75,5.38,0.34981972261612193,0.3053258093422726,-0.02749471684336591,-21.08910064572278,46.09573205363145,-25.335843929176026,-0.8748,-0.183,0.3915,-0.2193
111,2650322.0,1371.495604,1.0,7.66,1.02,6.1,-10.38,36.38,-46.38,-1.12,19.75,5.38,0.34981972261612193,0.3053258093422726,-0.02749471684336591,-21.08910064572278,46.09573205363145,-25.335843929176026,-0.8748,-0.183,0.3915,-0.2193
112,2650357.0,1371.5170449999998,1.0,7.93,1.12,5.73,-10.38,36.38,-46.38,-3.25,-0.63,1.31,0.7102491790276761,-0.05613086880437335,-0.014989141673746431,-21.042478443283557,45.85922505196,-25.523799625853453,-0.8752,-0.1826,0.3896,-0.2209
113,2650357.0,1371.5170449999998,1.0,7.93,1.12,5.73,-10.38,36.38,-46.38,-3.25,-0.63,1.31,0.7102491790276761,-0.05613086880437335,-0.014989141673746431,-21.042478443283557,45.85922505196,-25.523799625853453,-0.8752,-0.1826,0.3896,-0.2209
114,2650392.0,1371.520316,1.0,7.31,0.97,6.57,-10.06,36.69,-45.25,-0.94,-4.63,-2.44,-0.11377732876061065,0.6547003440742349,-0.04729957257896622,-21.065789103644565,46.058375063609425,-25.382826336621637,-0.8748,-0.1828,0.3912,-0.2197
115,2650392.0,1371.520316,1.0,7.31,0.97,6.57,-10.06,36.69,-45.25,-0.94,-4.63,-2.44,-0.11377732876061065,0.6547003440742349,-0.04729957257896622,-21.065789103644565,46.058375063609425,-25.382826336621637,-0.8748,-0.1828,0.3912,-0.2197
116,2650427.0,1371.5608339999999,1.0,7.16,1.09,6.22,-11.19,37.06,-44.88,-10.0,3.31,-3.5,-0.036296202734418526,0.4038500426473816,0.2684275383082646,-20.937591354374124,45.95878171202678,-25.21840683143225,-0.8757,-0.1817,0.3904,-0.2183
117,2650427.0,1371.5608339999999,1.0,7.16,1.09,6.22,-11.19,37.06,-44.88,-10.0,3.31,-3.5,-0.036296202734418526,0.4038500426473816,0.2684275383082646,-20.937591354374124,45.95878171202678,-25.21840683143225,-0.8757,-0.1817,0.3904,-0.2183
118,2650464.0,1371.570946,1.0,7.17,1.27,6.31,-10.38,37.06,-44.19,-6.44,2.63,-4.75,-0.16717758266522587,0.2705556544721639,0.1766577209954434,-20.69292362085707,45.92144367093,-24.93666734562011,-0.8769,-0.1796,0.3901,-0.2159
119,2650464.0,1371.570946,1.0,7.17,1.27,6.31,-10.38,37.06,-44.19,-6.44,2.63,-4.75,-0.16717758266522587,0.2705556544721639,0.1766577209954434,-20.69292362085707,45.92144367093,-24.93666734562011,-0.8769,-0.1796,0.3901,-0.2159
120,2650499.0,1371.669175,1.0,7.2,1.1,6.16,-10.38,37.06,-44.19,-1.94,3.19,-2.5,0.04901828848947581,0.32294710709161,0.2730828620702148,-20.599742008899195,45.821900740364754,-24.807588026066757,-0.8777,-0.1788,0.3893,-0.2148
121,2650499.0,1371.669175,1.0,7.2,1.1,6.16,-10.38,37.06,-44.19,-1.94,3.19,-2.5,0.04901828848947581,0.32294710709161,0.2730828620702148,-20.599742008899195,45.821900740364754,-24.807588026066757,-0.8777,-0.1788,0.3893,-0.2148
122,2650535.0,1371.7253449999998,1.0,7.43,1.88,6.26,-10.38,37.5,-44.56,-4.63,5.25,0.75,-0.2711331951500554,-0.3860084400830923,-0.07790281106193042,-20.320279509683687,45.77214298203665,-24.772390131710253,-0.8784,-0.1764,0.3889,-0.2145
123,2650535.0,1371.7253449999998,1.0,7.43,1.88,6.26,-10.38,37.5,-44.56,-4.63,5.25,0.75,-0.2711331951500554,-0.3860084400830923,-0.07790281106193042,-20.320279509683687,45.77214298203665,-24.772390131710253,-0.8784,-0.1764,0.3889,-0.2145
124,2650570.0,1371.738597,1.0,7.41,1.51,6.2,-10.75,37.38,-45.0,1.56,1.94,-1.25,-0.03669646054182935,-0.10224744788319397,0.028286188544367263,-20.331921330362565,45.64778844933024,-24.79585513058625,-0.8788,-0.1765,0.3879,-0.2147
125,2650570.0,1371.738597,1.0,7.41,1.51,6.2,-10.75,37.38,-45.0,1.56,1.94,-1.25,-0.03669646054182935,-0.10224744788319397,0.028286188544367263,-20.331921330362565,45.64778844933024,-24.79585513058625,-0.8788,-0.1765,0.3879,-0.2147
126,2650605.0,1371.795263,1.0,7.16,1.33,6.27,-10.75,37.38,-45.0,7.5,-1.56,-0.88,-0.1385738383402531,0.16541073349033886,0.19931756167072834,-20.459995384570266,45.67265480727474,-24.772390131710253,-0.8785,-0.1776,0.3881,-0.2145
127,2650605.0,1371.795263,1.0,7.16,1.33,6.27,-10.75,37.38,-45.0,7.5,-1.56,-0.88,-0.1385738383402531,0.16541073349033886,0.19931756167072834,-20.459995384570266,45.67265480727474,-24.772390131710253,-0.8785,-0.1776,0.3881,-0.2145
128,2650640.0,1371.84442,1.0,7.21,0.98,6.06,-10.38,37.38,-45.69,4.25,0.37,0.69,0.2065952690184408,0.3677197121038348,0.3467239639176096,-20.63468349632429,45.635356121986106,-24.854522251558684,-0.8782,-0.1791,0.3878,-0.2152
129,2650640.0,1371.84442,1.0,7.21,0.98,6.06,-10.38,37.38,-45.69,4.25,0.37,0.69,0.2065952690184408,0.3677197121038348,0.3467239639176096,-20.63468349632429,45.635356121986106,-24.854522251558684,-0.8782,-0.1791,0.3878,-0.2152
130,2650677.0,1371.853109,1.0,6.94,1.09,6.53,-10.75,37.0,-45.69,1.88,-1.94,-3.63,-0.2953621300225542,0.5743677889928154,0.2371430714735343,-20.669626923426364,45.635356121986106,-24.79585513058625,-0.8782,-0.1794,0.3878,-0.2147
131,2650677.0,1371.853109,1.0,6.94,1.09,6.53,-10.75,37.0,-45.69,1.88,-1.94,-3.63,-0.2953621300225542,0.5743677889928154,0.2371430714735343,-20.669626923426364,45.635356121986106,-24.79585513058625,-0.8782,-0.1794,0.3878,-0.2147
132,2650712.0,1371.8560109999999,1.0,7.02,0.51,6.17,-10.75,37.0,-45.69,12.38,3.88,5.63,0.2911715865392941,0.8830630528987772,0.4929601430315334,-20.84437327920369,45.51106402154343,-24.924931536010146,-0.8781,-0.1809,0.3868,-0.2158
133,2650712.0,1371.8560109999999,1.0,7.02,0.51,6.17,-10.75,37.0,-45.69,12.38,3.88,5.63,0.2911715865392941,0.8830630528987772,0.4929601430315334,-20.84437327920369,45.51106402154343,-24.924931536010146,-0.8781,-0.1809,0.3868,-0.2158
134,2650744.0,1371.896785,1.0,7.01,-0.18,6.17,-10.38,36.25,-45.38,4.0,-4.19,28.12,0.6207867629273742,1.4376211722410863,0.5985411192309247,-21.054133663315955,45.57320299258629,-25.876405289927124,-0.8755,-0.1827,0.3873,-0.2239
135,2650744.0,1371.896785,1.0,7.01,-0.18,6.17,-10.38,36.25,-45.38,4.0,-4.19,28.12,0.6207867629273742,1.4376211722410863,0.5985411192309247,-21.054133663315955,45.57320299258629,-25.876405289927124,-0.8755,-0.1827,0.3873,-0.2239
136,2650781.0,1371.913574,1.0,7.26,1.4,6.49,-11.19,37.38,-45.69,-7.88,6.25,24.56,-0.33927031473695474,0.0719608491305056,-0.02530897518549935,-20.343563363128432,45.709958605695505,-26.65302123047702,-0.8745,-0.1766,0.3884,-0.2305
137,2650781.0,1371.913574,1.0,7.26,1.4,6.49,-11.19,37.38,-45.69,-7.88,6.25,24.56,-0.33927031473695474,0.0719608491305056,-0.02530897518549935,-20.343563363128432,45.709958605695505,-26.65302123047702,-0.8745,-0.1766,0.3884,-0.2305
138,2650818.0,1371.956266,1.0,7.53,1.97,6.12,-8.56,37.38,-46.88,-15.94,2.5,10.0,-0.2985097724236029,-0.7537402138417703,-0.061428212387934174,-19.784982749875187,45.74726752330664,-26.912168656137837,-0.8748,-0.1718,0.3887,-0.2327
139,2650818.0,1371.956266,1.0,7.53,1.97,6.12,-8.56,37.38,-46.88,-15.94,2.5,10.0,-0.2985097724236029,-0.7537402138417703,-0.061428212387934174,-19.784982749875187,45.74726752330664,-26.912168656137837,-0.8748,-0.1718,0.3887,-0.2327
140,2650851.0,1371.969614,1.0,7.45,1.48,6.4,-8.56,37.38,-46.88,1.69,-3.38,2.81,-0.2829680436480128,-0.20264289983337855,-0.1196667862717895,-19.68030213963965,45.90899880278562,-27.006438787370872,-0.8742,-0.1709,0.39,-0.2335
141,2650851.0,1371.969614,1.0,7.45,1.48,6.4,-8.56,37.38,-46.88,1.69,-3.38,2.81,-0.2829680436480128,-0.20264289983337855,-0.1196667862717895,-19.68030213963965,45.90899880278562,-27.006438787370872,-0.8742,-0.1709,0.39,-0.2335
142,2650888.0,1372.017072,1.0,7.61,1.53,5.95,-8.56,40.0,-46.5,2.19,0.81,1.37,0.05570079866842653,-0.5107555625379357,0.039791437679959074,-19.71519382901285,45.85922505196,-27.15966751179376,-0.8740000000000001,-0.1712,0.3896,-0.2348
143,2650888.0,1372.017072,1.0,7.61,1.53,5.95,-8.56,40.0,-46.5,2.19,0.81,1.37,0.05570079866842653,-0.5107555625379357,0.039791437679959074,-19.71519382901285,45.85922505196,-27.15966751179376,-0.8740000000000001,-0.1712,0.3896,-0.2348
144,2650923.0,1372.023764,1.0,7.17,1.4,6.57,-8.56,38.5,-46.5,-4.19,-1.94,-8.44,-0.4950894098315736,0.03521214437222775,-0.005966704078547379,-19.72682480222871,45.88411078347371,-26.87682214392707,-0.8745,-0.1713,0.3898,-0.2324
145,2650923.0,1372.023764,1.0,7.17,1.4,6.57,-8.56,38.5,-46.5,-4.19,-1.94,-8.44,-0.4950894098315736,0.03521214437222775,-0.005966704078547379,-19.72682480222871,45.88411078347371,-26.87682214392707,-0.8745,-0.1713,0.3898,-0.2324
146,2650957.0,1372.0761400000001,1.0,7.44,1.31,6.03,-8.56,38.5,-46.5,0.88,6.63,-8.63,0.08334646874708856,-0.2084909374626146,0.14330767474092987,-19.808247369439112,45.67265480727474,-26.66479763712951,-0.8755,-0.172,0.3881,-0.2306
147,2650957.0,1372.0761400000001,1.0,7.44,1.31,6.03,-8.56,38.5,-46.5,0.88,6.63,-8.63,0.08334646874708856,-0.2084909374626146,0.14330767474092987,-19.808247369439112,45.67265480727474,-26.66479763712951,-0.8755,-0.172,0.3881,-0.2306
148,2650992.0,1372.1563820000001,1.0,7.25,1.02,6.11,-8.88,38.75,-46.88,5.06,0.88,-9.94,0.12494497895934716,0.1693789197750778,0.2729886081857984,-20.075850034388896,45.49863792387894,-26.405782688920823,-0.8763,-0.1743,0.3867,-0.2284
149,2650992.0,1372.1563820000001,1.0,7.25,1.02,6.11,-8.88,38.75,-46.88,5.06,0.88,-9.94,0.12494497895934716,0.1693789197750778,0.2729886081857984,-20.075850034388896,45.49863792387894,-26.405782688920823,-0.8763,-0.1743,0.3867,-0.2284
150,2651027.0,1372.199412,1.0,6.95,1.15,6.67,-9.69,38.75,-46.88,1.06,0.12,-4.31,-0.44292092570715497,0.4415167809481919,0.12559716543123933,-20.25043303206116,45.461363019954995,-26.288094094940124,-0.8764,-0.1758,0.3864,-0.2274
151,2651027.0,1372.199412,1.0,6.95,1.15,6.67,-9.69,38.75,-46.88,1.06,0.12,-4.31,-0.44292092570715497,0.4415167809481919,0.12559716543123933,-20.25043303206116,45.461363019954995,-26.288094094940124,-0.8764,-0.1758,0.3864,-0.2274
152,2651064.0,1372.2199460000002,1.0,7.2,1.05,6.22,-9.69,38.75,-46.88,3.94,6.69,-2.88,0.0701646884951666,0.2458090074838193,0.2376607718563992,-20.343563363128432,45.225406324165256,-26.26455976697084,-0.8771,-0.1766,0.3845,-0.2272
153,2651064.0,1372.2199460000002,1.0,7.2,1.05,6.22,-9.69,38.75,-46.88,3.94,6.69,-2.88,0.0701646884951666,0.2458090074838193,0.2376607718563992,-20.343563363128432,45.225406324165256,-26.26455976697084,-0.8771,-0.1766,0.3845,-0.2272
154,2651097.0,1372.266542,1.0,7.23,0.99,6.33,-9.25,38.5,-46.5,5.94,3.0,-2.75,0.08793667397573468,0.3594179500440342,0.15341293264501488,-20.518219394705007,45.051672965046905,-26.26455976697084,-0.8774,-0.1781,0.3831,-0.2272
155,2651097.0,1372.266542,1.0,7.23,0.99,6.33,-9.25,38.5,-46.5,5.94,3.0,-2.75,0.08793667397573468,0.3594179500440342,0.15341293264501488,-20.518219394705007,45.051672965046905,-26.26455976697084,-0.8774,-0.1781,0.3831,-0.2272
156,2651131.0,1372.2714349999999,1.0,7.08,0.88,6.48,-9.25,38.75,-45.0,3.63,2.13,-1.94,-0.008817780051895263,0.5672123584577379,0.18535110706626945,-20.599742008899195,44.91524480207666,-26.29986168212807,-0.8777,-0.1788,0.382,-0.2275
157,2651131.0,1372.2714349999999,1.0,7.08,0.88,6.48,-9.25,38.75,-45.0,3.63,2.13,-1.94,-0.008817780051895263,0.5672123584577379,0.18535110706626945,-20.599742008899195,44.91524480207666,-26.29986168212807,-0.8777,-0.1788,0.382,-0.2275
158,2651168.0,1372.2899439999999,1.0,7.44,1.29,6.23,-9.25,37.75,-46.19,-3.13,5.63,-0.69,0.15488622582024236,-0.011584313141136726,0.0185717381173216,-20.518219394705007,44.77888374446125,-26.335166138238048,-0.8782,-0.1781,0.3809,-0.2278
159,2651168.0,1372.2899439999999,1.0,7.44,1.29,6.23,-9.25,37.75,-46.19,-3.13,5.63,-0.69,0.15488622582024236,-0.011584313141136726,0.0185717381173216,-20.518219394705007,44.77888374446125,-26.335166138238048,-0.8782,-0.1781,0.3809,-0.2278
160,2651201.0,1372.292932,1.0,7.4,1.1,6.08,-9.25,37.75,-46.19,1.81,2.38,-2.75,0.34652721984471524,0.08542279904676242,0.17290608440260868,-20.54151049721856,44.64258950046725,-26.26455976697084,-0.8788,-0.1783,0.3798,-0.2272
161,2651201.0,1372.292932,1.0,7.4,1.1,6.08,-9.25,37.75,-46.19,1.81,2.38,-2.75,0.34652721984471524,0.08542279904676242,0.17290608440260868,-20.54151049721856,44.64258950046725,-26.26455976697084,-0.8788,-0.1783,0.3798,-0.2272
162,2651238.0,1372.335728,1.0,7.01,1.39,6.52,-9.25,38.06,-46.5,-3.94,-2.5,0.06,-0.3181324563408651,0.16153146163906662,0.139421890188828,-20.49492914898236,44.74170597311218,-26.19396354392425,-0.8787,-0.1779,0.3806,-0.2266
163,2651238.0,1372.335728,1.0,7.01,1.39,6.52,-9.25,38.06,-46.5,-3.94,-2.5,0.06,-0.3181324563408651,0.16153146163906662,0.139421890188828,-20.49492914898236,44.74170597311218,-26.19396354392425,-0.8787,-0.1779,0.3806,-0.2266
164,2651275.0,1372.3402859999999,1.0,7.1,1.02,6.39,-9.69,38.75,-45.0,3.63,2.81,0.44,0.02082032545127793,0.3762084342313689,0.2076639218737668,-20.48328434708745,44.6673653156106,-26.229260388868166,-0.8789,-0.1778,0.38,-0.2269
165,2651275.0,1372.3402859999999,1.0,7.1,1.02,6.39,-9.69,38.75,-45.0,3.63,2.81,0.44,0.02082032545127793,0.3762084342313689,0.2076639218737668,-20.48328434708745,44.6673653156106,-26.229260388868166,-0.8789,-0.1778,0.38,-0.2269
166,2651308.0,1372.395804,1.0,7.05,1.46,6.55,-9.69,38.75,-45.0,-8.75,0.0,1.12,-0.3451896617465593,0.07169447420281637,0.07976437304868432,-20.29699650405997,44.679754048391246,-26.229260388868166,-0.8792,-0.1762,0.3801,-0.2269
167,2651308.0,1372.395804,1.0,7.05,1.46,6.55,-9.69,38.75,-45.0,-8.75,0.0,1.12,-0.3451896617465593,0.07169447420281637,0.07976437304868432,-20.29699650405997,44.679754048391246,-26.229260388868166,-0.8792,-0.1762,0.3801,-0.2269
168,2651342.0,1372.413803,1.0,7.35,1.49,6.13,-9.25,38.5,-45.69,1.56,3.81,1.56,0.07803181941857518,-0.25347281473669714,0.12423487941424582,-20.22715256357965,44.593044465749166,-26.288094094940124,-0.8795,-0.1756,0.3794,-0.2274
169,2651342.0,1372.413803,1.0,7.35,1.49,6.13,-9.25,38.5,-45.69,1.56,3.81,1.56,0.07803181941857518,-0.25347281473669714,0.12423487941424582,-20.22715256357965,44.593044465749166,-26.288094094940124,-0.8795,-0.1756,0.3794,-0.2274
170,2651379.0,1372.46125,1.0,7.16,0.95,6.58,-9.69,38.75,-45.69,5.63,-4.19,0.75,-0.013244602400877659,0.4899152662206455,0.04835570168990877,-20.4134200209308,44.605429900527255,-26.35870385587789,-0.879,-0.1772,0.3795,-0.228
171,2651379.0,1372.46125,1.0,7.16,0.95,6.58,-9.69,38.75,-45.69,5.63,-4.19,0.75,-0.013244602400877659,0.4899152662206455,0.04835570168990877,-20.4134200209308,44.605429900527255,-26.35870385587789,-0.879,-0.1772,0.3795,-0.228
172,2651414.0,1372.528766,1.0,6.93,1.26,6.72,-9.69,38.75,-45.69,-2.38,-1.94,2.56,-0.4197457490482641,0.3590318759751269,0.08729767496364005,-20.378490735265764,44.70453316546126,-26.38224270571989,-0.8786,-0.1769,0.3803,-0.2282
173,2651414.0,1372.528766,1.0,6.93,1.26,6.72,-9.69,38.75,-45.69,-2.38,-1.94,2.56,-0.4197457490482641,0.3590318759751269,0.08729767496364005,-20.378490735265764,44.70453316546126,-26.38224270571989,-0.8786,-0.1769,0.3803,-0.2282
174,2651447.0,1372.5491140000001,1.0,7.37,1.12,6.19,-8.88,38.06,-46.5,-0.94,3.63,-0.19,0.2457069217200779,0.08710145011458237,0.12060635741781488,-20.308637900960072,44.617815884427785,-26.38224270571989,-0.879,-0.1763,0.3796,-0.2282
175,2651447.0,1372.5491140000001,1.0,7.37,1.12,6.19,-8.88,38.06,-46.5,-0.94,3.63,-0.19,0.2457069217200779,0.08710145011458237,0.12060635741781488,-20.308637900960072,44.617815884427785,-26.38224270571989,-0.879,-0.1763,0.3796,-0.2282
176,2651484.0,1372.552109,1.0,7.21,1.4,6.39,-9.25,38.5,-46.19,-4.38,-1.69,-0.88,-0.12320797687704232,-0.0170883035016981,0.07213779936471099,-20.20387293870638,44.65497713304196,-26.29986168212807,-0.8793,-0.1754,0.3799,-0.2275
177,2651484.0,1372.552109,1.0,7.21,1.4,6.39,-9.25,38.5,-46.19,-4.38,-1.69,-0.88,-0.12320797687704232,-0.0170883035016981,0.07213779936471099,-20.20387293870638,44.65497713304196,-26.29986168212807,-0.8793,-0.1754,0.3799,-0.2275
178,2651518.0,1372.614916,1.0,7.1,0.96,6.33,-8.88,38.5,-45.38,3.0,-0.69,-3.31,0.08714234418693872,0.3628942521024223,0.25357646455389826,-20.27371434520358,44.63020241766851,-26.25279302590076,-0.8793,-0.17600000000000002,0.3797,-0.2271
179,2651518.0,1372.614916,1.0,7.1,0.96,6.33,-8.88,38.5,-45.38,3.0,-0.69,-3.31,0.08714234418693872,0.3628942521024223,0.25357646455389826,-20.27371434520358,44.63020241766851,-26.25279302590076,-0.8793,-0.17600000000000002,0.3797,-0.2271
180,2651553.0,1372.660382,1.0,6.99,1.22,6.56,-8.88,38.5,-45.38,-3.0,-3.38,1.69,-0.2739359253487013,0.2868049136687668,0.15135083061644214,-20.23879269230359,44.754098011748425,-26.241026566581308,-0.879,-0.1757,0.3807,-0.22699999999999998
181,2651553.0,1372.660382,1.0,6.99,1.22,6.56,-8.88,38.5,-45.38,-3.0,-3.38,1.69,-0.2739359253487013,0.2868049136687668,0.15135083061644214,-20.23879269230359,44.754098011748425,-26.241026566581308,-0.879,-0.1757,0.3807,-0.22699999999999998
182,2651590.0,1372.7154050000001,1.0,7.18,1.2,6.34,-9.25,38.5,-45.38,-1.37,1.88,0.5,-0.01176665799472948,0.1288640495151273,0.15412413354917653,-20.14567756040377,44.69214333160206,-26.26455976697084,-0.8793,-0.1749,0.3802,-0.2272
183,2651590.0,1372.7154050000001,1.0,7.18,1.2,6.34,-9.25,38.5,-45.38,-1.37,1.88,0.5,-0.01176665799472948,0.1288640495151273,0.15412413354917653,-20.14567756040377,44.69214333160206,-26.26455976697084,-0.8793,-0.1749,0.3802,-0.2272
184,2651625.0,1372.771076,1.0,7.32,1.27,6.29,-9.25,38.75,-46.19,-2.19,2.06,1.37,0.07552298798212997,-0.01209121873211605,0.07250647934468724,-20.05257586733213,44.605429900527255,-26.31162955164407,-0.8797,-0.1741,0.3795,-0.2276
185,2651625.0,1372.771076,1.0,7.32,1.27,6.29,-9.25,38.75,-46.19,-2.19,2.06,1.37,0.07552298798212997,-0.01209121873211605,0.07250647934468724,-20.05257586733213,44.605429900527255,-26.31162955164407,-0.8797,-0.1741,0.3795,-0.2276
186,2651660.0,1372.840417,1.0,7.16,1.17,6.58,-9.25,38.75,-46.19,4.06,-1.88,-0.06,-0.1423942051916065,0.26214532689770664,0.016762170309940316,-20.11076285425295,44.63020241766851,-26.335166138238048,-0.8795,-0.1746,0.3797,-0.2278
187,2651660.0,1372.840417,1.0,7.16,1.17,6.58,-9.25,38.75,-46.19,4.06,-1.88,-0.06,-0.1423942051916065,0.26214532689770664,0.016762170309940316,-20.11076285425295,44.63020241766851,-26.335166138238048,-0.8795,-0.1746,0.3797,-0.2278
188,2651693.0,1372.846363,1.0,7.18,1.02,6.31,-9.69,38.75,-45.0,-0.88,0.0,-1.12,0.11113632992649414,0.2514946206434665,0.19762824063459128,-20.09912503821932,44.617815884427785,-26.31162955164407,-0.8796,-0.1745,0.3796,-0.2276
189,2651693.0,1372.846363,1.0,7.18,1.02,6.31,-9.69,38.75,-45.0,-0.88,0.0,-1.12,0.11113632992649414,0.2514946206434665,0.19762824063459128,-20.09912503821932,44.617815884427785,-26.31162955164407,-0.8796,-0.1745,0.3796,-0.2276
190,2651729.0,1372.849737,1.0,7.22,1.23,6.35,-10.06,38.5,-45.38,-1.69,-0.94,-1.0,-0.003631139076119949,0.08345583699057901,0.1135172794549426,-20.075850034388896,44.64258950046725,-26.288094094940124,-0.8796,-0.1743,0.3798,-0.2274
191,2651729.0,1372.849737,1.0,7.22,1.23,6.35,-10.06,38.5,-45.38,-1.69,-0.94,-1.0,-0.003631139076119949,0.08345583699057901,0.1135172794549426,-20.075850034388896,44.64258950046725,-26.288094094940124,-0.8796,-0.1743,0.3798,-0.2274
192,2651764.0,1372.903266,1.0,7.04,1.26,6.46,-10.06,38.5,-45.38,-0.56,-0.69,-2.38,-0.1944474542976684,0.1614934452829908,0.17249668719415645,-20.064212846329454,44.65497713304196,-26.229260388868166,-0.8796,-0.1742,0.3799,-0.2269
193,2651764.0,1372.903266,1.0,7.04,1.26,6.46,-10.06,38.5,-45.38,-0.56,-0.69,-2.38,-0.1944474542976684,0.1614934452829908,0.17249668719415645,-20.064212846329454,44.65497713304196,-26.229260388868166,-0.8796,-0.1742,0.3799,-0.2269
194,2651797.0,1372.978039,1.0,7.09,0.95,6.3,-8.19,38.5,-46.19,0.88,-0.19,-0.5,0.10437619296928717,0.3386435881596286,0.2811565151174662,-20.122400879873982,44.617815884427785,-26.205728877683853,-0.8798,-0.1747,0.3796,-0.2267
195,2651797.0,1372.978039,1.0,7.09,0.95,6.3,-8.19,38.5,-46.19,0.88,-0.19,-0.5,0.10437619296928717,0.3386435881596286,0.2811565151174662,-20.122400879873982,44.617815884427785,-26.205728877683853,-0.8798,-0.1747,0.3796,-0.2267
196,2651834.0,1372.988117,1.0,7.13,1.34,6.59,-9.25,39.56,-45.69,-1.63,0.88,1.56,-0.2503047706479817,0.12724398662544467,0.009622058340420736,-20.040939097265657,44.605429900527255,-26.217494492617092,-0.8799,-0.174,0.3795,-0.2268
197,2651834.0,1372.988117,1.0,7.13,1.34,6.59,-9.25,39.56,-45.69,-1.63,0.88,1.56,-0.2503047706479817,0.12724398662544467,0.009622058340420736,-20.040939097265657,44.605429900527255,-26.217494492617092,-0.8799,-0.174,0.3795,-0.2268
198,2651869.0,1372.990988,1.0,7.27,1.57,6.33,-10.06,38.06,-46.19,3.88,3.38,-5.0,-0.11347679884782252,-0.2233872122050412,0.0432529902729808,-20.075850034388896,44.506361779453115,-26.158669228245632,-0.8804,-0.1743,0.3787,-0.2263
199,2651869.0,1372.990988,1.0,7.27,1.57,6.33,-10.06,38.06,-46.19,3.88,3.38,-5.0,-0.11347679884782252,-0.2233872122050412,0.0432529902729808,-20.075850034388896,44.506361779453115,-26.158669228245632,-0.8804,-0.1743,0.3787,-0.2263
200,2651904.0,1373.032459,1.0,7.33,0.95,6.19,-10.06,38.06,-46.19,7.44,-1.5,-1.37,0.3531481388323767,0.2509467772052432,0.17546045212744765,-20.366848065448238,44.43208368482341,-26.1821984911941,-0.8801,-0.1768,0.3781,-0.2265
201,2651904.0,1373.032459,1.0,7.33,0.95,6.19,-10.06,38.06,-46.19,7.44,-1.5,-1.37,0.3531481388323767,0.2509467772052432,0.17546045212744765,-20.366848065448238,44.43208368482341,-26.1821984911941,-0.8801,-0.1768,0.3781,-0.2265
202,2651940.0,1373.051471,1.0,6.86,0.92,6.64,-9.25,37.69,-45.0,1.88,-2.88,0.06,-0.19287312354886627,0.6342606227109902,0.23815411921023436,-20.436707276203283,44.51874337646561,-26.1469050177391,-0.8797,-0.1774,0.3788,-0.2262
203,2651940.0,1373.051471,1.0,6.86,0.92,6.64,-9.25,37.69,-45.0,1.88,-2.88,0.06,-0.19287312354886627,0.6342606227109902,0.23815411921023436,-20.436707276203283,44.51874337646561,-26.1469050177391,-0.8797,-0.1774,0.3788,-0.2262
204,2651975.0,1373.1818449999998,1.0,7.13,1.17,6.57,-10.06,38.5,-45.38,-3.0,5.19,1.37,-0.10913651403271496,0.2955261020549225,0.045940315540111236,-20.320279509683687,44.419705914934724,-26.19396354392425,-0.8801,-0.1764,0.37799999999999995,-0.2266
205,2651975.0,1373.1818449999998,1.0,7.13,1.17,6.57,-10.06,38.5,-45.38,-3.0,5.19,1.37,-0.10913651403271496,0.2955261020549225,0.045940315540111236,-20.320279509683687,44.419705914934724,-26.19396354392425,-0.8801,-0.1764,0.37799999999999995,-0.2266
206,2652010.0,1373.222928,1.0,7.36,1.34,6.29,-10.06,38.5,-45.38,-2.5,0.31,-0.12,0.10982946560469464,-0.059015226629940076,0.03353613125218935,-20.21551264575777,44.38257587959071,-26.170433719349266,-0.8805,-0.1755,0.3777,-0.2264
207,2652010.0,1373.222928,1.0,7.36,1.34,6.29,-10.06,38.5,-45.38,-2.5,0.31,-0.12,0.10982946560469464,-0.059015226629940076,0.03353613125218935,-20.21551264575777,44.38257587959071,-26.170433719349266,-0.8805,-0.1755,0.3777,-0.2264
208,2652045.0,1373.243924,1.0,7.2,1.26,6.19,-9.25,38.06,-45.0,3.44,-1.69,-2.5,0.11323186135253432,0.018352820067769504,0.2290437374952479,-20.29699650405997,44.40732869091076,-26.123377437941194,-0.8804,-0.1762,0.3779,-0.226
209,2652045.0,1373.243924,1.0,7.2,1.26,6.19,-9.25,38.06,-45.0,3.44,-1.69,-2.5,0.11323186135253432,0.018352820067769504,0.2290437374952479,-20.29699650405997,44.40732869091076,-26.123377437941194,-0.8804,-0.1762,0.3779,-0.226
210,2652080.0,1373.247908,1.0,7.0,1.08,6.69,-8.88,37.69,-45.38,0.25,-0.06,-0.44,-0.20831329361775666,0.4752363706562031,0.07765950952732759,-20.378490735265764,44.43208368482341,-26.13514108768563,-0.8802,-0.1769,0.3781,-0.2261
211,2652080.0,1373.247908,1.0,7.0,1.08,6.69,-8.88,37.69,-45.38,0.25,-0.06,-0.44,-0.20831329361775666,0.4752363706562031,0.07765950952732759,-20.378490735265764,44.43208368482341,-26.13514108768563,-0.8802,-0.1769,0.3781,-0.2261
212,2652116.0,1373.297126,1.0,7.23,1.27,6.38,-9.69,37.69,-44.5,-2.75,2.81,2.19,0.01839248138449057,0.08067804703094184,0.0812526934959692,-20.23879269230359,44.37020029186166,-26.158669228245632,-0.8806,-0.1757,0.3776,-0.2263
213,2652116.0,1373.297126,1.0,7.23,1.27,6.38,-9.69,37.69,-44.5,-2.75,2.81,2.19,0.01839248138449057,0.08067804703094184,0.0812526934959692,-20.23879269230359,44.37020029186166,-26.158669228245632,-0.8806,-0.1757,0.3776,-0.2263
214,2652151.0,1373.355683,1.0,7.29,1.24,6.27,-9.69,37.69,-44.5,2.0,-1.06,0.0,0.13244131386109764,0.03232415166427338,0.11252732450213188,-20.20387293870638,44.38257587959071,-26.158669228245632,-0.8806,-0.1754,0.3777,-0.2263
215,2652151.0,1373.355683,1.0,7.29,1.24,6.27,-9.69,37.69,-44.5,2.0,-1.06,0.0,0.13244131386109764,0.03232415166427338,0.11252732450213188,-20.20387293870638,44.38257587959071,-26.158669228245632,-0.8806,-0.1754,0.3777,-0.2263
216,2652188.0,1373.3621150000001,1.0,7.13,1.07,6.64,-8.88,38.06,-45.69,-5.06,-1.81,0.56,-0.1095802467338154,0.4000996887055584,0.013830568976908708,-20.21551264575777,44.48160022735979,-26.1821984911941,-0.8801,-0.1755,0.3785,-0.2265
217,2652188.0,1373.3621150000001,1.0,7.13,1.07,6.64,-8.88,38.06,-45.69,-5.06,-1.81,0.56,-0.1095802467338154,0.4000996887055584,0.013830568976908708,-20.21551264575777,44.48160022735979,-26.1821984911941,-0.8801,-0.1755,0.3785,-0.2265
218,2652223.0,1373.462614,1.0,7.28,1.32,6.37,-9.69,38.75,-45.38,2.69,1.75,-2.63,0.01620505102619224,0.021200834544223723,0.04360806006468465,-20.20387293870638,44.444462000793465,-26.123377437941194,-0.8804,-0.1754,0.3782,-0.226
219,2652223.0,1373.462614,1.0,7.28,1.32,6.37,-9.69,38.75,-45.38,2.69,1.75,-2.63,0.01620505102619224,0.021200834544223723,0.04360806006468465,-20.20387293870638,44.444462000793465,-26.123377437941194,-0.8804,-0.1754,0.3782,-0.226
220,2652256.0,1373.467617,1.0,7.17,0.97,6.38,-9.69,38.75,-45.38,-0.63,-1.81,-2.06,0.1362395630460379,0.3734011339312912,0.1683819826309101,-20.343563363128432,44.444462000793465,-26.041039726290627,-0.8804,-0.1766,0.3782,-0.2253
221,2652256.0,1373.467617,1.0,7.17,0.97,6.38,-9.69,38.75,-45.38,-0.63,-1.81,-2.06,0.1362395630460379,0.3734011339312912,0.1683819826309101,-20.343563363128432,44.444462000793465,-26.041039726290627,-0.8804,-0.1766,0.3782,-0.2253
222,2652291.0,1373.479568,1.0,7.1,1.42,6.4,-8.56,38.5,-45.69,-5.13,-1.06,0.0,-0.16591979298664672,0.016011721126616973,0.14442384620491033,-20.25043303206116,44.49398072982355,-25.99399574998519,-0.8804,-0.1758,0.3786,-0.2249
223,2652291.0,1373.479568,1.0,7.1,1.42,6.4,-8.56,38.5,-45.69,-5.13,-1.06,0.0,-0.16591979298664672,0.016011721126616973,0.14442384620491033,-20.25043303206116,44.49398072982355,-25.99399574998519,-0.8804,-0.1758,0.3786,-0.2249
224,2652327.0,1373.483085,1.0,7.2,1.28,6.41,-8.88,38.75,-45.0,5.06,3.63,-3.06,-0.012025983961221842,0.1231807253882834,0.08290679665477008,-20.331921330362565,44.38257587959071,-25.9116795113663,-0.8809,-0.1765,0.3777,-0.2242
225,2652327.0,1373.483085,1.0,7.2,1.28,6.41,-8.88,38.75,-45.0,5.06,3.63,-3.06,-0.012025983961221842,0.1231807253882834,0.08290679665477008,-20.331921330362565,44.38257587959071,-25.9116795113663,-0.8809,-0.1765,0.3777,-0.2242
226,2652364.0,1373.522898,1.0,7.25,1.26,6.33,-8.88,38.75,-45.0,0.19,-1.88,1.37,0.07936276545323051,0.08775291215604486,0.10072392476803672,-20.343563363128432,44.3578252491314,-25.93519704664329,-0.8809,-0.1766,0.3775,-0.2244
227,2652364.0,1373.522898,1.0,7.25,1.26,6.33,-8.88,38.75,-45.0,0.19,-1.88,1.37,0.07936276545323051,0.08775291215604486,0.10072392476803672,-20.343563363128432,44.3578252491314,-25.93519704664329,-0.8809,-0.1766,0.3775,-0.2244
228,2652397.0,1373.5914189999999,1.0,7.01,1.29,6.53,-9.69,37.69,-44.5,1.31,1.81,1.06,-0.20943612754540786,0.22221638930947565,0.1447735577761069,-20.355205608113067,44.39495201253494,-25.99399574998519,-0.8806,-0.1767,0.3778,-0.2249
229,2652397.0,1373.5914189999999,1.0,7.01,1.29,6.53,-9.69,37.69,-44.5,1.31,1.81,1.06,-0.20943612754540786,0.22221638930947565,0.1447735577761069,-20.355205608113067,44.39495201253494,-25.99399574998519,-0.8806,-0.1767,0.3778,-0.2249
230,2652432.0,1373.601292,1.0,7.33,1.17,6.33,-10.06,38.5,-46.19,-0.12,0.88,-0.31,0.17506228187651202,0.13405698677909386,0.05380006155842132,-20.331921330362565,44.33307679780215,-26.029278313836883,-0.8807,-0.1765,0.3773,-0.2252
231,2652432.0,1373.601292,1.0,7.33,1.17,6.33,-10.06,38.5,-46.19,-0.12,0.88,-0.31,0.17506228187651202,0.13405698677909386,0.05380006155842132,-20.331921330362565,44.33307679780215,-26.029278313836883,-0.8807,-0.1765,0.3773,-0.2252
232,2652469.0,1373.604257,1.0,7.07,1.1,6.63,-9.69,38.75,-46.19,-1.37,-1.31,0.63,-0.13650679783842345,0.4000019000458307,0.061232390984791614,-20.285355318851703,44.40732869091076,-26.05280141790223,-0.8806,-0.1761,0.3779,-0.2254
233,2652469.0,1373.604257,1.0,7.07,1.1,6.63,-9.69,38.75,-46.19,-1.37,-1.31,0.63,-0.13650679783842345,0.4000019000458307,0.061232390984791614,-20.285355318851703,44.40732869091076,-26.05280141790223,-0.8806,-0.1761,0.3779,-0.2254
234,2652504.0,1373.643783,1.0,7.22,1.26,6.33,-9.69,38.75,-46.19,-0.19,2.5,1.19,0.050645017860233565,0.07496337360633598,0.12281214640169225,-20.25043303206116,44.37020029186166,-26.06456338881546,-0.8807,-0.1758,0.3776,-0.2255
235,2652504.0,1373.643783,1.0,7.22,1.26,6.33,-9.69,38.75,-46.19,-0.19,2.5,1.19,0.050645017860233565,0.07496337360633598,0.12281214640169225,-20.25043303206116,44.37020029186166,-26.06456338881546,-0.8807,-0.1758,0.3776,-0.2255
236,2652540.0,1373.712246,1.0,7.28,1.49,6.24,-9.69,37.75,-44.5,-2.44,-1.0,0.44,0.01794835593585753,-0.18352402471545887,0.10499566741983736,-20.21551264575777,44.3578252491314,-26.0880881691222,-0.8807,-0.1755,0.3775,-0.2257
237,2652540.0,1373.712246,1.0,7.28,1.49,6.24,-9.69,37.75,-44.5,-2.44,-1.0,0.44,0.01794835593585753,-0.18352402471545887,0.10499566741983736,-20.21551264575777,44.3578252491314,-26.0880881691222,-0.8807,-0.1755,0.3775,-0.2257
238,2652573.0,1373.748494,1.0,7.06,1.19,6.55,-9.25,38.5,-45.69,3.38,-3.06,-1.69,-0.14390637018041774,0.2872101377383736,0.10824800310371607,-20.27371434520358,44.40732869091076,-26.05280141790223,-0.8806,-0.17600000000000002,0.3779,-0.2254
239,2652573.0,1373.748494,1.0,7.06,1.19,6.55,-9.25,38.5,-45.69,3.38,-3.06,-1.69,-0.14390637018041774,0.2872101377383736,0.10824800310371607,-20.27371434520358,44.40732869091076,-26.05280141790223,-0.8806,-0.17600000000000002,0.3779,-0.2254
240,2652608.0,1373.755322,1.0,7.1,0.94,6.52,-9.25,38.5,-45.69,0.5,2.06,0.19,0.0372133672205906,0.4814233375494082,0.13344749331365868,-20.343563363128432,44.38257587959071,-26.041039726290627,-0.8806,-0.1766,0.3777,-0.2253
241,2652608.0,1373.755322,1.0,7.1,0.94,6.52,-9.25,38.5,-45.69,0.5,2.06,0.19,0.0372133672205906,0.4814233375494082,0.13344749331365868,-20.343563363128432,44.38257587959071,-26.041039726290627,-0.8806,-0.1766,0.3777,-0.2253
242,2652643.0,1373.826276,1.0,7.17,1.38,6.38,-8.88,38.06,-46.19,-4.75,-1.06,0.44,-0.07510593018717121,0.011780717873367765,0.11067556140244683,-20.22715256357965,44.39495201253494,-26.017517180397213,-0.8808,-0.1756,0.3778,-0.2251
243,2652643.0,1373.826276,1.0,7.17,1.38,6.38,-8.88,38.06,-46.19,-4.75,-1.06,0.44,-0.07510593018717121,0.011780717873367765,0.11067556140244683,-20.22715256357965,44.39495201253494,-26.017517180397213,-0.8808,-0.1756,0.3778,-0.2251
244,2652680.0,1373.874542,1.0,7.28,1.29,6.28,-10.06,38.5,-45.38,0.56,1.44,0.81,0.09819668816599623,-0.0006349965032174111,0.10658520603018573,-20.168955080859906,44.38257587959071,-26.041039726290627,-0.8809,-0.1751,0.3777,-0.2253
245,2652680.0,1373.874542,1.0,7.28,1.29,6.28,-10.06,38.5,-45.38,0.56,1.44,0.81,0.09819668816599623,-0.0006349965032174111,0.10658520603018573,-20.168955080859906,44.38257587959071,-26.041039726290627,-0.8809,-0.1751,0.3777,-0.2253
