,TIME,ELAPSED_SECONDS,PSTATE,acc_x,acc_y,acc_z,mag_x,mag_y,mag_z,gyr_x,gyr_y,gyr_z,lin_x,lin_y,lin_z,eul_x,eul_y,eul_z,qua_w,qua_x,qua_y,qua_z
0,3142168.0,1864.312156,1.0,-0.68,2.02,-9.16,-25.69,-14.5,31.87,1.25,-3.69,-3.38,-0.1014716827087409,-0.2136915203290808,0.4049246566522324,-103.66360039479626,74.93336628710402,9.60254790532585,-0.069,-0.7862,0.6083,0.0837
1,3142168.0,1864.312156,1.0,-0.68,2.02,-9.16,-25.69,-14.5,31.87,1.25,-3.69,-3.38,-0.1014716827087409,-0.2136915203290808,0.4049246566522324,-103.66360039479626,74.93336628710402,9.60254790532585,-0.069,-0.7862,0.6083,0.0837
2,3142203.0,1864.315487,1.0,-0.26,1.83,-9.98,-25.69,-14.5,31.87,2.81,5.38,-2.56,0.3422481113832353,0.12919923745147555,-0.3364793882754231,-103.81206807438305,74.81791076036653,9.48755765518811,-0.069,-0.787,0.6075,0.0827
3,3142203.0,1864.315487,1.0,-0.26,1.83,-9.98,-25.69,-14.5,31.87,2.81,5.38,-2.56,0.3422481113832353,0.12919923745147555,-0.3364793882754231,-103.81206807438305,74.81791076036653,9.48755765518811,-0.069,-0.787,0.6075,0.0827
4,3142240.0,1864.322909,1.0,-0.37,1.88,-9.8,-25.25,-14.88,32.25,1.19,-1.63,-0.56,0.2286854660071649,0.044003059946910006,-0.17618860875014164,-103.81206807438305,74.81791076036653,9.51055493545105,-0.0687,-0.787,0.6075,0.0829
5,3142240.0,1864.322909,1.0,-0.37,1.88,-9.8,-25.25,-14.88,32.25,1.19,-1.63,-0.56,0.2286854660071649,0.044003059946910006,-0.17618860875014164,-103.81206807438305,74.81791076036653,9.51055493545105,-0.0687,-0.787,0.6075,0.0829
6,3142277.0,1864.341793,1.0,-0.37,1.88,-9.75,-24.87,-14.88,31.87,0.56,-1.12,-2.06,0.21878259913782755,0.05101926710103455,-0.1272984198730871,-103.88639399112431,74.74579622029077,9.53355259965066,-0.0685,-0.7874,0.607,0.0831
7,3142277.0,1864.341793,1.0,-0.37,1.88,-9.75,-24.87,-14.88,31.87,0.56,-1.12,-2.06,0.21878259913782755,0.05101926710103455,-0.1272984198730871,-103.88639399112431,74.74579622029077,9.53355259965066,-0.0685,-0.7874,0.607,0.0831
8,3142309.0,1864.382507,1.0,-0.6,1.72,-9.6,-24.87,-14.88,31.87,0.69,-0.63,-2.81,0.2730313829959514,-0.20053119557533536,0.04121907742928066,-103.97938807566652,74.65930449968721,9.53355259965066,-0.0679,-0.7879,0.6064,0.0831
9,3142309.0,1864.382507,1.0,-0.6,1.72,-9.6,-24.87,-14.88,31.87,0.69,-0.63,-2.81,0.2730313829959514,-0.20053119557533536,0.04121907742928066,-103.97938807566652,74.65930449968721,9.53355259965066,-0.0679,-0.7879,0.6064,0.0831
10,3142344.0,1864.430746,1.0,-0.6,1.67,-9.8,-25.25,-14.06,31.87,5.81,0.31,1.06,0.34402734095649795,-0.2063420836437072,-0.14462972339196334,-103.99799847995277,74.65930449968721,9.476059158737444,-0.067,-0.7879999999999999,0.6064,0.0826
11,3142344.0,1864.430746,1.0,-0.6,1.67,-9.8,-25.25,-14.06,31.87,5.81,0.31,1.06,0.34402734095649795,-0.2063420836437072,-0.14462972339196334,-103.99799847995277,74.65930449968721,9.476059158737444,-0.067,-0.7879999999999999,0.6064,0.0826
12,3142381.0,1864.455126,1.0,-0.35,2.05,-9.74,-24.87,-14.06,33.56,1.12,-1.25,-1.19,0.0398109251568835,0.136703246439416,-0.15188037915992506,-104.01661275346248,74.64489405402493,9.51055493545105,-0.067,-0.7881,0.6063,0.0829
13,3142381.0,1864.455126,1.0,-0.35,2.05,-9.74,-24.87,-14.06,33.56,1.12,-1.25,-1.19,0.0398109251568835,0.136703246439416,-0.15188037915992506,-104.01661275346248,74.64489405402493,9.51055493545105,-0.067,-0.7881,0.6063,0.0829
14,3142416.0,1864.472569,1.0,-0.18,2.19,-9.94,-25.25,-14.5,32.25,-1.0,-1.5,-5.13,-0.006944871680126086,0.3562053521990157,-0.36709903935723176,-104.16566658300283,74.48647019368201,9.568049817899789,-0.0663,-0.7889,0.6052,0.0834
15,3142416.0,1864.472569,1.0,-0.18,2.19,-9.94,-25.25,-14.5,32.25,-1.0,-1.5,-5.13,-0.006944871680126086,0.3562053521990157,-0.36709903935723176,-104.16566658300283,74.48647019368201,9.568049817899789,-0.0663,-0.7889,0.6052,0.0834
16,3142451.0,1864.531084,1.0,-0.79,1.8,-9.03,-25.25,-14.5,32.25,4.38,-1.81,-5.44,-0.009419567039779142,-0.29906803359870016,0.570012647422157,-104.31496972568995,74.35697442762857,9.568049817899789,-0.0643,-0.7897,0.6043,0.0834
17,3142451.0,1864.531084,1.0,-0.79,1.8,-9.03,-25.25,-14.5,32.25,4.38,-1.81,-5.44,-0.009419567039779142,-0.29906803359870016,0.570012647422157,-104.31496972568995,74.35697442762857,9.568049817899789,-0.0643,-0.7897,0.6043,0.0834
18,3142488.0,1864.5345690000001,1.0,-0.45,1.58,-10.1,-25.25,-14.06,32.25,5.06,0.37,-3.5,0.4867068993574947,-0.07154969517291887,-0.4142549029544558,-104.61433000481749,74.0983151328391,9.315090195791667,-0.0654,-0.7913,0.6025,0.0812
19,3142488.0,1864.5345690000001,1.0,-0.45,1.58,-10.1,-25.25,-14.06,32.25,5.06,0.37,-3.5,0.4867068993574947,-0.07154969517291887,-0.4142549029544558,-104.61433000481749,74.0983151328391,9.315090195791667,-0.0654,-0.7913,0.6025,0.0812
20,3142522.0,1864.580274,1.0,-0.75,2.14,-9.14,-24.5,-14.5,32.25,-1.75,1.06,-5.94,-0.3182588854652401,-0.19851005710077047,0.39702699803800456,-104.74561874233255,73.96915070870061,9.3380846266553,-0.0652,-0.792,0.6016,0.0814
21,3142522.0,1864.580274,1.0,-0.75,2.14,-9.14,-24.5,-14.5,32.25,-1.75,1.06,-5.94,-0.3182588854652401,-0.19851005710077047,0.39702699803800456,-104.74561874233255,73.96915070870061,9.3380846266553,-0.0652,-0.792,0.6016,0.0814
22,3142555.0,1864.597653,1.0,-1.05,2.07,-8.4,-24.5,-14.5,32.25,1.06,14.0,-9.63,-0.5116586860919375,-0.5533429805628944,1.1245179499325475,-105.140661692498,73.58231300844331,8.970218312913039,-0.0672,-0.7941,0.5989,0.0782
23,3142555.0,1864.597653,1.0,-1.05,2.07,-8.4,-24.5,-14.5,32.25,1.06,14.0,-9.63,-0.5116586860919375,-0.5533429805628944,1.1245179499325475,-105.140661692498,73.58231300844331,8.970218312913039,-0.0672,-0.7941,0.5989,0.0782
24,3142592.0,1864.6445899999999,1.0,-1.55,1.98,-6.93,-24.19,-14.06,32.25,7.44,45.31,-11.06,-0.9254394477213688,-1.1357840245424904,2.5815993788489435,-105.61328387022331,73.18217678230073,8.108387763620353,-0.0711,-0.7966,0.5961,0.0707
25,3142592.0,1864.6445899999999,1.0,-1.55,1.98,-6.93,-24.19,-14.06,32.25,7.44,45.31,-11.06,-0.9254394477213688,-1.1357840245424904,2.5815993788489435,-105.61328387022331,73.18217678230073,8.108387763620353,-0.0711,-0.7966,0.5961,0.0707
26,3142629.0,1864.662163,1.0,-1.15,1.73,-2.51,-24.87,-14.06,32.25,30.44,235.0,-11.94,-1.591092886261333,-0.8918147303352449,7.106911139657086,-106.6622162163593,72.21469959987994,3.082884815106741,-0.0936,-0.8021,0.5893,0.0269
27,3142629.0,1864.662163,1.0,-1.15,1.73,-2.51,-24.87,-14.06,32.25,30.44,235.0,-11.94,-1.591092886261333,-0.8918147303352449,7.106911139657086,-106.6622162163593,72.21469959987994,3.082884815106741,-0.0936,-0.8021,0.5893,0.0269
28,3142664.0,1864.713901,1.0,4.19,2.56,-6.63,-24.87,-14.06,32.25,48.44,304.0,-15.38,-0.4619056390889544,2.948205648363492,2.115009951509988,-107.1625852400296,70.64807912994407,-4.4702044875913645,-0.1287,-0.8047,0.5782,-0.039
29,3142664.0,1864.713901,1.0,4.19,2.56,-6.63,-24.87,-14.06,32.25,48.44,304.0,-15.38,-0.4619056390889544,2.948205648363492,2.115009951509988,-107.1625852400296,70.64807912994407,-4.4702044875913645,-0.1287,-0.8047,0.5782,-0.039
30,3142699.0,1864.789507,1.0,4.53,0.09,-6.76,-30.19,-14.06,28.37,83.87,244.75,-67.75,1.4220468529071162,1.14295368450282,1.8758215676596288,-108.07470230594728,66.69286830197329,-14.373061379793723,-0.1647,-0.8094,0.5497,-0.1251
31,3142699.0,1864.789507,1.0,4.53,0.09,-6.76,-30.19,-14.06,28.37,83.87,244.75,-67.75,1.4220468529071162,1.14295368450282,1.8758215676596288,-108.07470230594728,66.69286830197329,-14.373061379793723,-0.1647,-0.8094,0.5497,-0.1251
32,3142735.0,1864.8793719999999,1.0,2.25,0.02,-3.39,-35.69,-13.0,22.06,73.06,159.63,-59.0,0.4839160193729514,0.12792138811597192,5.768771670399574,-109.37271990346242,62.396381639113685,-21.170698001897183,-0.1788,-0.816,0.518,-0.1837
33,3142735.0,1864.8793719999999,1.0,2.25,0.02,-3.39,-35.69,-13.0,22.06,73.06,159.63,-59.0,0.4839160193729514,0.12792138811597192,5.768771670399574,-109.37271990346242,62.396381639113685,-21.170698001897183,-0.1788,-0.816,0.518,-0.1837
34,3142770.0,1864.8955010000002,1.0,0.56,2.39,-2.64,-39.38,-14.88,16.56,38.25,188.94,-72.31,-2.3529874488846763,0.01822043504157178,7.075639549427158,-109.63083923692189,59.286754689259176,-25.59430098947942,-0.1958,-0.8173,0.4946,-0.2215
35,3142770.0,1864.8955010000002,1.0,0.56,2.39,-2.64,-39.38,-14.88,16.56,38.25,188.94,-72.31,-2.3529874488846763,0.01822043504157178,7.075639549427158,-109.63083923692189,59.286754689259176,-25.59430098947942,-0.1958,-0.8173,0.4946,-0.2215
36,3142805.0,1864.9380859999999,1.0,-0.26,1.67,-0.88,-39.38,-14.88,16.56,63.38,254.69,-96.44,-1.7881839463408322,0.12305029028454995,9.159999553383113,-109.19450172299595,53.11554927222101,-33.811713840931375,-0.2261,-0.8151,0.4471,-0.2908
37,3142805.0,1864.9380859999999,1.0,-0.26,1.67,-0.88,-39.38,-14.88,16.56,63.38,254.69,-96.44,-1.7881839463408322,0.12305029028454995,9.159999553383113,-109.19450172299595,53.11554927222101,-33.811713840931375,-0.2261,-0.8151,0.4471,-0.2908
38,3142842.0,1864.956114,1.0,5.7,0.44,-1.93,-40.88,-16.0,10.75,71.75,323.81,-98.81,1.328038812043514,1.5836463751856271,4.137710322064851,-107.1625852400296,47.55675792365637,-41.66044293714295,-0.2518,-0.8047,0.4032,-0.3556
39,3142842.0,1864.956114,1.0,5.7,0.44,-1.93,-40.88,-16.0,10.75,71.75,323.81,-98.81,1.328038812043514,1.5836463751856271,4.137710322064851,-107.1625852400296,47.55675792365637,-41.66044293714295,-0.2518,-0.8047,0.4032,-0.3556
40,3142879.0,1864.959419,1.0,12.74,-1.15,-3.55,-41.25,-18.87,1.37,18.06,356.56,-151.5,4.157254618496307,-0.32747919613668364,-2.7966270108844657,-101.75523946512085,38.549690389311564,-52.51422225376784,-0.3058,-0.7758,0.3301,-0.4424
41,3142879.0,1864.959419,1.0,12.74,-1.15,-3.55,-41.25,-18.87,1.37,18.06,356.56,-151.5,4.157254618496307,-0.32747919613668364,-2.7966270108844657,-101.75523946512085,38.549690389311564,-52.51422225376784,-0.3058,-0.7758,0.3301,-0.4424
42,3142916.0,1864.998462,1.0,15.63,-4.53,-2.55,-41.25,-18.87,1.37,83.25,316.5,-133.0,7.4761834025921985,-3.78635348540284,-4.373988526328168,-97.70183943099724,30.94787313807167,-59.94707947928739,-0.335,-0.753,0.2668,-0.4996
43,3142916.0,1864.998462,1.0,15.63,-4.53,-2.55,-41.25,-18.87,1.37,83.25,316.5,-133.0,7.4761834025921985,-3.78635348540284,-4.373988526328168,-97.70183943099724,30.94787313807167,-59.94707947928739,-0.335,-0.753,0.2668,-0.4996
44,3142950.0,1865.0026890000001,1.0,13.18,-0.08,-4.02,-39.06,-23.69,-9.88,-165.5,205.06,-73.94,1.537572049088228,-4.616639688667691,-3.0852742232833834,-90.14484388488701,25.758842544663853,-66.63800657923225,-0.3839,-0.708,0.2229,-0.5493
45,3142950.0,1865.0026890000001,1.0,13.18,-0.08,-4.02,-39.06,-23.69,-9.88,-165.5,205.06,-73.94,1.537572049088228,-4.616639688667691,-3.0852742232833834,-90.14484388488701,25.758842544663853,-66.63800657923225,-0.3839,-0.708,0.2229,-0.5493
46,3142985.0,1865.1015670000002,1.0,10.12,3.2,-2.84,-32.5,-27.69,-19.19,-227.5,102.87,-70.5,-1.14270421293493,-2.8934362132564284,-0.7310088463262137,-82.67603357506403,26.629469277048536,-66.8438272739107,-0.4554,-0.6605,0.2303,-0.5508
47,3142985.0,1865.1015670000002,1.0,10.12,3.2,-2.84,-32.5,-27.69,-19.19,-227.5,102.87,-70.5,-1.14270421293493,-2.8934362132564284,-0.7310088463262137,-82.67603357506403,26.629469277048536,-66.8438272739107,-0.4554,-0.6605,0.2303,-0.5508
48,3143022.0,1865.189786,1.0,12.21,-2.67,1.54,-25.56,-25.0,-29.56,-83.87,27.19,80.62,6.212567379193331,-2.4789684465887136,-0.8630886097223804,-80.0766693058582,27.59605210118816,-67.71095944217275,-0.4678,-0.6433,0.2385,-0.5571
49,3143022.0,1865.189786,1.0,12.21,-2.67,1.54,-25.56,-25.0,-29.56,-83.87,27.19,80.62,6.212567379193331,-2.4789684465887136,-0.8630886097223804,-80.0766693058582,27.59605210118816,-67.71095944217275,-0.4678,-0.6433,0.2385,-0.5571
50,3143057.0,1865.235664,1.0,9.11,9.28,5.17,-25.56,-25.0,-29.56,-325.88,42.5,111.06,-5.050576302757137,5.66605810581383,-1.9503421558011365,-71.1544897805901,35.60056506187857,-67.71095944217275,-0.5076,-0.5818,0.3057,-0.5571
51,3143057.0,1865.235664,1.0,9.11,9.28,5.17,-25.56,-25.0,-29.56,-325.88,42.5,111.06,-5.050576302757137,5.66605810581383,-1.9503421558011365,-71.1544897805901,35.60056506187857,-67.71095944217275,-0.5076,-0.5818,0.3057,-0.5571
52,3143094.0,1865.291351,1.0,12.67,-1.18,-0.55,-19.19,-18.37,-35.5,-15.69,154.88,-43.13,3.3622259985367857,-4.342133059692582,-1.6853087898098609,-66.28182481526375,35.03535067049245,-68.19460380315536,-0.5443,-0.5467,0.301,-0.5606
53,3143094.0,1865.291351,1.0,12.67,-1.18,-0.55,-19.19,-18.37,-35.5,-15.69,154.88,-43.13,3.3622259985367857,-4.342133059692582,-1.6853087898098609,-66.28182481526375,35.03535067049245,-68.19460380315536,-0.5443,-0.5467,0.301,-0.5606
54,3143131.0,1865.295568,1.0,10.12,5.23,4.85,-8.56,-5.56,-37.5,-208.69,-110.06,104.31,-2.4879426273928433,2.8954808182932603,-1.97113129843212,-63.26917919273301,39.023479875283186,-68.4993168665412,-0.5447,-0.5245,0.33399999999999996,-0.5628
55,3143131.0,1865.295568,1.0,10.12,5.23,4.85,-8.56,-5.56,-37.5,-208.69,-110.06,104.31,-2.4879426273928433,2.8954808182932603,-1.97113129843212,-63.26917919273301,39.023479875283186,-68.4993168665412,-0.5447,-0.5245,0.33399999999999996,-0.5628
56,3143165.0,1865.3124,1.0,7.06,8.42,7.71,-8.56,-5.56,-37.5,-118.94,-86.69,25.81,-6.385616789582024,6.953497894423142,0.264277902410166,-61.447593803930225,44.989651826175965,-65.21757686713724,-0.5497,-0.5109,0.3826,-0.5389
57,3143165.0,1865.3124,1.0,7.06,8.42,7.71,-8.56,-5.56,-37.5,-118.94,-86.69,25.81,-6.385616789582024,6.953497894423142,0.264277902410166,-61.447593803930225,44.989651826175965,-65.21757686713724,-0.5497,-0.5109,0.3826,-0.5389
58,3143200.0,1865.3152710000002,1.0,8.58,2.02,5.42,-7.5,-0.06,-35.19,-28.75,59.31,-46.44,-0.13255096067179806,3.5376178410360937,0.08343601214556706,-60.55652194040018,44.48160022735979,-64.28137325688984,-0.5652,-0.5042,0.3785,-0.532
59,3143200.0,1865.3152710000002,1.0,8.58,2.02,5.42,-7.5,-0.06,-35.19,-28.75,59.31,-46.44,-0.13255096067179806,3.5376178410360937,0.08343601214556706,-60.55652194040018,44.48160022735979,-64.28137325688984,-0.5652,-0.5042,0.3785,-0.532
60,3143235.0,1865.353686,1.0,9.0,6.9,5.75,-9.19,6.06,-34.75,-45.88,46.06,54.31,-5.19002397670911,3.653031896684568,-1.211131495518492,-57.8546700143526,44.70453316546126,-65.51710409627202,-0.5732,-0.4837,0.3803,-0.5411
61,3143235.0,1865.353686,1.0,9.0,6.9,5.75,-9.19,6.06,-34.75,-45.88,46.06,54.31,-5.19002397670911,3.653031896684568,-1.211131495518492,-57.8546700143526,44.70453316546126,-65.51710409627202,-0.5732,-0.4837,0.3803,-0.5411
62,3143272.0,1865.3602690000002,1.0,9.21,1.79,3.57,-9.88,8.56,-35.75,36.44,51.56,-45.63,-0.18390125240422492,0.9309691198381334,-0.1869768104863727,-57.18801133423565,43.307915821839245,-65.85808871965587,-0.5825,-0.4786,0.369,-0.5436
63,3143272.0,1865.3602690000002,1.0,9.21,1.79,3.57,-9.88,8.56,-35.75,36.44,51.56,-45.63,-0.18390125240422492,0.9309691198381334,-0.1869768104863727,-57.18801133423565,43.307915821839245,-65.85808871965587,-0.5825,-0.4786,0.369,-0.5436
64,3143307.0,1865.4075469999998,1.0,7.82,0.57,7.99,-9.88,8.56,-35.75,121.19,20.0,42.25,1.7444729744791272,5.290448800519986,0.09658483387528173,-58.996898086234786,40.32696746513329,-68.77680821232158,-0.5654,-0.4924,0.3447,-0.5648
65,3143307.0,1865.4075469999998,1.0,7.82,0.57,7.99,-9.88,8.56,-35.75,121.19,20.0,42.25,1.7444729744791272,5.290448800519986,0.09658483387528173,-58.996898086234786,40.32696746513329,-68.77680821232158,-0.5654,-0.4924,0.3447,-0.5648
66,3143342.0,1865.427011,1.0,11.23,-1.69,5.64,-11.06,10.19,-40.06,-22.25,132.13,-105.81,4.303702362844416,1.040117407080957,-2.075054496894994,-57.907047347217045,37.192829183479816,-69.55624736247115,-0.5819,-0.4841,0.3189,-0.5704
67,3143342.0,1865.427011,1.0,11.23,-1.69,5.64,-11.06,10.19,-40.06,-22.25,132.13,-105.81,4.303702362844416,1.040117407080957,-2.075054496894994,-57.907047347217045,37.192829183479816,-69.55624736247115,-0.5819,-0.4841,0.3189,-0.5704
68,3143380.0,1865.433447,1.0,10.41,0.08,7.45,-11.69,9.25,-43.5,-133.31,92.0,-153.94,3.2890093503540627,2.2290413688406767,-2.362606019546986,-54.31009785710634,33.931500337029355,-66.17237591930831,-0.6392,-0.4564,0.2918,-0.5459
69,3143380.0,1865.433447,1.0,10.41,0.08,7.45,-11.69,9.25,-43.5,-133.31,92.0,-153.94,3.2890093503540627,2.2290413688406767,-2.362606019546986,-54.31009785710634,33.931500337029355,-66.17237591930831,-0.6392,-0.4564,0.2918,-0.5459
70,3143415.0,1865.473255,1.0,9.29,4.78,11.17,-11.69,9.25,-43.5,-132.81,69.56,-79.06,-1.1900013512990493,5.225621500055956,-4.518090022843674,-51.163694017238186,33.2731430190265,-63.525076929588316,-0.6741,-0.4318,0.2863,-0.5264
71,3143415.0,1865.473255,1.0,9.29,4.78,11.17,-11.69,9.25,-43.5,-132.81,69.56,-79.06,-1.1900013512990493,5.225621500055956,-4.518090022843674,-51.163694017238186,33.2731430190265,-63.525076929588316,-0.6741,-0.4318,0.2863,-0.5264
72,3143450.0,1865.5790510000002,1.0,15.18,5.71,6.31,-12.56,12.5,-44.25,-112.81,162.94,13.69,-0.8805675368544783,-3.7350969754163543,-7.167632058375063,-45.287480525770206,31.530903656573717,-63.94335613096246,-0.7053,-0.385,0.2717,-0.5295
73,3143450.0,1865.5790510000002,1.0,15.18,5.71,6.31,-12.56,12.5,-44.25,-112.81,162.94,13.69,-0.8805675368544783,-3.7350969754163543,-7.167632058375063,-45.287480525770206,31.530903656573717,-63.94335613096246,-0.7053,-0.385,0.2717,-0.5295
74,3143485.0,1865.6345149999997,1.0,14.29,8.39,2.41,-11.69,17.0,-44.19,-103.44,120.94,33.56,-4.244859813654154,-8.444373854266741,-4.016447170019475,-38.950544217121674,30.63884419055943,-65.73525876311373,-0.7243,-0.3334,0.2642,-0.5427
75,3143485.0,1865.6345149999997,1.0,14.29,8.39,2.41,-11.69,17.0,-44.19,-103.44,120.94,33.56,-4.244859813654154,-8.444373854266741,-4.016447170019475,-38.950544217121674,30.63884419055943,-65.73525876311373,-0.7243,-0.3334,0.2642,-0.5427
76,3143522.0,1865.6954440000002,1.0,10.52,5.27,3.99,-5.38,25.87,-46.19,-13.75,-21.0,-40.0,-2.2474798366331936,-4.544298013564845,-1.536259236515905,-38.0038595239246,30.50817000692102,-65.28560716576904,-0.7306,-0.3256,0.2631,-0.5394
77,3143522.0,1865.6954440000002,1.0,10.52,5.27,3.99,-5.38,25.87,-46.19,-13.75,-21.0,-40.0,-2.2474798366331936,-4.544298013564845,-1.536259236515905,-38.0038595239246,30.50817000692102,-65.28560716576904,-0.7306,-0.3256,0.2631,-0.5394
78,3143557.0,1865.711262,1.0,8.1,3.82,6.1,-5.38,25.87,-46.19,-23.5,-31.19,-66.75,-1.3636640751751947,-1.0536145005106403,-0.8911402753040711,-38.67110921893018,30.805215870860085,-62.89270673851754,-0.7401,-0.3311,0.2656,-0.5217
79,3143557.0,1865.711262,1.0,8.1,3.82,6.1,-5.38,25.87,-46.19,-23.5,-31.19,-66.75,-1.3636640751751947,-1.0536145005106403,-0.8911402753040711,-38.67110921893018,30.805215870860085,-62.89270673851754,-0.7401,-0.3311,0.2656,-0.5217
80,3143593.0,1865.7857170000002,1.0,7.14,3.15,5.87,-4.69,28.19,-47.0,-21.31,0.63,-36.06,-0.8818965328966879,-0.5110156418287635,0.09479531003108654,-38.80472209856705,30.61508221704001,-61.63430677668394,-0.7466,-0.3322,0.264,-0.5123
81,3143593.0,1865.7857170000002,1.0,7.14,3.15,5.87,-4.69,28.19,-47.0,-21.31,0.63,-36.06,-0.8818965328966879,-0.5110156418287635,0.09479531003108654,-38.80472209856705,30.61508221704001,-61.63430677668394,-0.7466,-0.3322,0.264,-0.5123
82,3143630.0,1865.797932,1.0,8.14,3.63,4.94,-8.06,29.5,-47.38,-1.63,8.63,-14.19,-0.8553978675658969,-2.060964831888171,-0.1362277750651213,-38.25846833636598,30.28255562108873,-60.9683017245208,-0.7531,-0.3277,0.2612,-0.5073
83,3143630.0,1865.797932,1.0,8.14,3.63,4.94,-8.06,29.5,-47.38,-1.63,8.63,-14.19,-0.8553978675658969,-2.060964831888171,-0.1362277750651213,-38.25846833636598,30.28255562108873,-60.9683017245208,-0.7531,-0.3277,0.2612,-0.5073
84,3143665.0,1865.8507670000001,1.0,7.13,3.19,6.15,-8.06,29.5,-47.38,6.06,-24.87,-9.13,-0.8476378812095802,-0.33653487713301233,-0.0930345555205232,-38.683253582612885,30.54380438300529,-60.55652194040018,-0.7528,-0.3312,0.2634,-0.5042
85,3143665.0,1865.8507670000001,1.0,7.13,3.19,6.15,-8.06,29.5,-47.38,6.06,-24.87,-9.13,-0.8476378812095802,-0.33653487713301233,-0.0930345555205232,-38.683253582612885,30.54380438300529,-60.55652194040018,-0.7528,-0.3312,0.2634,-0.5042
86,3143700.0,1865.860991,1.0,6.35,1.15,6.86,-8.5,30.75,-46.25,1.75,17.31,-6.5,0.8793077863093054,1.2348883854649677,0.5111420261246824,-39.37623490539532,29.8198276164604,-60.63615363736209,-0.752,-0.3369,0.2573,-0.5048
87,3143700.0,1865.860991,1.0,6.35,1.15,6.86,-8.5,30.75,-46.25,1.75,17.31,-6.5,0.8793077863093054,1.2348883854649677,0.5111420261246824,-39.37623490539532,29.8198276164604,-60.63615363736209,-0.752,-0.3369,0.2573,-0.5048
88,3143735.0,1865.864632,1.0,6.28,1.25,6.14,-8.88,30.0,-47.75,-47.25,3.56,-2.56,0.6656584276079305,0.5934553486182468,0.9802572143286667,-38.028099568652365,30.413159765182687,-60.11912281043993,-0.7578,-0.3258,0.2623,-0.5009
89,3143735.0,1865.864632,1.0,6.28,1.25,6.14,-8.88,30.0,-47.75,-47.25,3.56,-2.56,0.6656584276079305,0.5934553486182468,0.9802572143286667,-38.028099568652365,30.413159765182687,-60.11912281043993,-0.7578,-0.3258,0.2623,-0.5009
90,3143772.0,1865.910705,1.0,7.29,3.6,6.65,-9.19,30.0,-45.38,-47.44,6.38,0.0,-1.361180105822818,-0.4318064481299999,-0.5994699258352565,-36.66126379400549,31.233335490801053,-59.64305925688446,-0.7625,-0.3145,0.2692,-0.4973
91,3143772.0,1865.910705,1.0,7.29,3.6,6.65,-9.19,30.0,-45.38,-47.44,6.38,0.0,-1.361180105822818,-0.4318064481299999,-0.5994699258352565,-36.66126379400549,31.233335490801053,-59.64305925688446,-0.7625,-0.3145,0.2692,-0.4973
92,3143804.0,1865.929055,1.0,7.49,2.34,5.68,-9.19,30.0,-45.38,9.44,-3.13,0.25,-0.03647390903024061,-0.8926729246878411,0.16093049840296558,-36.56470362370221,31.304732073341746,-59.590233417807454,-0.7628,-0.3137,0.2698,-0.4969
93,3143804.0,1865.929055,1.0,7.49,2.34,5.68,-9.19,30.0,-45.38,9.44,-3.13,0.25,-0.03647390903024061,-0.8926729246878411,0.16093049840296558,-36.56470362370221,31.304732073341746,-59.590233417807454,-0.7628,-0.3137,0.2698,-0.4969
94,3143841.0,1866.065813,1.0,5.82,2.25,7.16,-8.88,32.88,-46.38,-16.56,-9.69,-2.5,-0.7610746094932104,1.2575562023038347,0.4236964225366666,-36.48023552286196,31.804859125621785,-59.247204266053025,-0.7633,-0.313,0.27399999999999997,-0.4943
95,3143841.0,1866.065813,1.0,5.82,2.25,7.16,-8.88,32.88,-46.38,-16.56,-9.69,-2.5,-0.7610746094932104,1.2575562023038347,0.4236964225366666,-36.48023552286196,31.804859125621785,-59.247204266053025,-0.7633,-0.313,0.27399999999999997,-0.4943
96,3143878.0,1866.1079989999998,1.0,6.87,1.8,6.62,-9.25,32.75,-45.56,-15.69,17.56,7.69,0.029008742169802208,0.27508588967982783,0.10176534091327838,-35.70889932534101,31.840606172111105,-59.39226049534915,-0.765,-0.3066,0.2743,-0.4954
97,3143878.0,1866.1079989999998,1.0,6.87,1.8,6.62,-9.25,32.75,-45.56,-15.69,17.56,7.69,0.029008742169802208,0.27508588967982783,0.10176534091327838,-35.70889932534101,31.840606172111105,-59.39226049534915,-0.765,-0.3066,0.2743,-0.4954
98,3143913.0,1866.12586,1.0,8.27,2.79,5.66,-9.25,32.75,-45.56,-28.25,16.06,5.63,-0.3480878656819144,-1.741307262026633,-0.4431931137739032,-34.62702088107143,31.90019165418321,-59.471426215105645,-0.7681,-0.2976,0.2748,-0.496
99,3143913.0,1866.12586,1.0,8.27,2.79,5.66,-9.25,32.75,-45.56,-28.25,16.06,5.63,-0.3480878656819144,-1.741307262026633,-0.4431931137739032,-34.62702088107143,31.90019165418321,-59.471426215105645,-0.7681,-0.2976,0.2748,-0.496
100,3143946.0,1866.129602,1.0,7.54,2.4,5.44,-8.75,33.19,-45.19,-9.88,-12.13,-0.88,-0.2784057694663866,-1.331968508321305,0.3012015560617467,-34.32706780881908,32.36526393220739,-59.247204266053025,-0.7687,-0.2951,0.2787,-0.4943
101,3143946.0,1866.129602,1.0,7.54,2.4,5.44,-8.75,33.19,-45.19,-9.88,-12.13,-0.88,-0.2784057694663866,-1.331968508321305,0.3012015560617467,-34.32706780881908,32.36526393220739,-59.247204266053025,-0.7687,-0.2951,0.2787,-0.4943
102,3143983.0,1866.175346,1.0,6.53,1.69,7.08,-9.19,35.69,-44.75,13.5,-1.69,0.81,-0.19902166679899505,0.7748241948980721,0.0607053129445081,-34.699045966979874,32.52040941662392,-59.18130413501813,-0.7673,-0.2982,0.28,-0.4938
103,3143983.0,1866.175346,1.0,6.53,1.69,7.08,-9.19,35.69,-44.75,13.5,-1.69,0.81,-0.19902166679899505,0.7748241948980721,0.0607053129445081,-34.699045966979874,32.52040941662392,-59.18130413501813,-0.7673,-0.2982,0.28,-0.4938
104,3144019.0,1866.194864,1.0,7.16,1.68,6.34,-8.75,35.69,-44.0,1.12,4.0,1.56,0.15458373182240906,-0.15509377490702558,0.09914518203359536,-34.747070547477996,32.305608836158264,-59.36587885432352,-0.767,-0.2986,0.2782,-0.4952
105,3144019.0,1866.194864,1.0,7.16,1.68,6.34,-8.75,35.69,-44.0,1.12,4.0,1.56,0.15458373182240906,-0.15509377490702558,0.09914518203359536,-34.747070547477996,32.305608836158264,-59.36587885432352,-0.767,-0.2986,0.2782,-0.4952
106,3144052.0,1866.2514809999998,1.0,7.18,1.76,6.17,-8.75,35.69,-44.0,-1.44,-3.19,1.0,0.1032592412599702,-0.3117453950568945,0.18318636481359007,-34.77108519878443,32.34140081327868,-59.40545261479044,-0.7666,-0.2988,0.2785,-0.4955
107,3144052.0,1866.2514809999998,1.0,7.18,1.76,6.17,-8.75,35.69,-44.0,-1.44,-3.19,1.0,0.1032592412599702,-0.3117453950568945,0.18318636481359007,-34.77108519878443,32.34140081327868,-59.40545261479044,-0.7666,-0.2988,0.2785,-0.4955
108,3144089.0,1866.3088440000001,1.0,6.38,1.87,6.88,-8.0,34.19,-43.19,-6.31,-5.88,-0.88,-0.4091173814870199,0.6736732574864792,0.27174112207605816,-34.73506381234489,32.651734221557824,-59.20766160334654,-0.7667,-0.2985,0.2811,-0.494
109,3144089.0,1866.3088440000001,1.0,6.38,1.87,6.88,-8.0,34.19,-43.19,-6.31,-5.88,-0.88,-0.4091173814870199,0.6736732574864792,0.27174112207605816,-34.73506381234489,32.651734221557824,-59.20766160334654,-0.7667,-0.2985,0.2811,-0.494
110,3144124.0,1866.4363870000002,1.0,7.24,1.92,6.12,-8.75,35.0,-44.88,-17.12,4.31,1.06,-0.08142413659926118,-0.4419091007615139,0.1445339555383498,-34.39903434859307,32.795047946580326,-59.128599522356026,-0.7677,-0.2957,0.2823,-0.4934
111,3144124.0,1866.4363870000002,1.0,7.24,1.92,6.12,-8.75,35.0,-44.88,-17.12,4.31,1.06,-0.08142413659926118,-0.4419091007615139,0.1445339555383498,-34.39903434859307,32.795047946580326,-59.128599522356026,-0.7677,-0.2957,0.2823,-0.4934
112,3144159.0,1866.4408399999998,1.0,7.26,2.42,6.32,-8.75,35.0,-44.88,-17.19,-9.13,0.63,-0.6427657537273679,-0.4862507715233142,-0.08561022570313702,-33.991407904492696,33.309024075692264,-58.87843997243265,-0.7687,-0.2923,0.2866,-0.4915
113,3144159.0,1866.4408399999998,1.0,7.26,2.42,6.32,-8.75,35.0,-44.88,-17.19,-9.13,0.63,-0.6427657537273679,-0.4862507715233142,-0.08561022570313702,-33.991407904492696,33.309024075692264,-58.87843997243265,-0.7687,-0.2923,0.2866,-0.4915
114,3144194.0,1866.4535190000001,1.0,7.15,2.11,6.1,-8.75,35.25,-43.25,3.31,-11.06,-1.37,-0.3767304495596899,-0.4320572760615393,0.19124565704193053,-34.13522516911611,33.536349009079444,-58.77320186377301,-0.7681,-0.2935,0.2885,-0.4907
115,3144194.0,1866.4535190000001,1.0,7.15,2.11,6.1,-8.75,35.25,-43.25,3.31,-11.06,-1.37,-0.3767304495596899,-0.4320572760615393,0.19124565704193053,-34.13522516911611,33.536349009079444,-58.77320186377301,-0.7681,-0.2935,0.2885,-0.4907
116,3144230.0,1866.4568010000003,1.0,6.96,1.77,6.49,-9.06,35.69,-44.06,10.19,-11.19,2.94,-0.17612638520927182,0.1889201890140766,0.1304994917340192,-34.73506381234489,33.727885940809074,-58.70745568211353,-0.7658,-0.2985,0.2901,-0.4902
117,3144230.0,1866.4568010000003,1.0,6.96,1.77,6.49,-9.06,35.69,-44.06,10.19,-11.19,2.94,-0.17612638520927182,0.1889201890140766,0.1304994917340192,-34.73506381234489,33.727885940809074,-58.70745568211353,-0.7658,-0.2985,0.2901,-0.4902
118,3144265.0,1866.5012769999998,1.0,7.4,1.73,5.79,-9.06,35.69,-44.06,8.69,-19.81,3.94,0.10322841393428096,-0.4893283412336733,0.26584805943850043,-35.131494837214326,34.00339056621902,-58.73375160745704,-0.7635,-0.3018,0.2924,-0.4904
119,3144265.0,1866.5012769999998,1.0,7.4,1.73,5.79,-9.06,35.69,-44.06,8.69,-19.81,3.94,0.10322841393428096,-0.4893283412336733,0.26584805943850043,-35.131494837214326,34.00339056621902,-58.73375160745704,-0.7635,-0.3018,0.2924,-0.4904
120,3144300.0,1866.5183690000001,1.0,6.95,1.81,6.34,-9.75,35.25,-44.5,1.56,-29.06,2.25,-0.2757581159224538,0.335485478601856,0.2366130640655193,-35.805224148583044,34.87917065061918,-58.4972102111192,-0.7596,-0.3074,0.2997,-0.4886
121,3144300.0,1866.5183690000001,1.0,6.95,1.81,6.34,-9.75,35.25,-44.5,1.56,-29.06,2.25,-0.2757581159224538,0.335485478601856,0.2366130640655193,-35.805224148583044,34.87917065061918,-58.4972102111192,-0.7596,-0.3074,0.2997,-0.4886
122,3144335.0,1866.521532,1.0,6.84,1.59,6.55,-10.19,33.06,-45.25,-9.31,-13.81,3.0,-0.2015410582631587,0.7031949639824944,0.2316252979710889,-35.92566698091841,35.43211039129503,-58.31342248941901,-0.7582,-0.3084,0.3043,-0.4872
123,3144335.0,1866.521532,1.0,6.84,1.59,6.55,-10.19,33.06,-45.25,-9.31,-13.81,3.0,-0.2015410582631587,0.7031949639824944,0.2316252979710889,-35.92566698091841,35.43211039129503,-58.31342248941901,-0.7582,-0.3084,0.3043,-0.4872
124,3144372.0,1866.5483329999997,1.0,7.54,1.95,6.05,-11.0,33.5,-43.69,-18.31,-1.0,1.12,-0.2867657950529583,-0.2095794930263264,-0.04882775680562723,-35.4802322080149,35.829309438989284,-58.15602096155954,-0.7592,-0.3047,0.3076,-0.486
125,3144372.0,1866.5483329999997,1.0,7.54,1.95,6.05,-11.0,33.5,-43.69,-18.31,-1.0,1.12,-0.2867657950529583,-0.2095794930263264,-0.04882775680562723,-35.4802322080149,35.829309438989284,-58.15602096155954,-0.7592,-0.3047,0.3076,-0.486
126,3144407.0,1866.575416,1.0,7.62,1.64,5.44,-11.0,33.5,-43.69,7.69,0.0,-1.19,0.1436332368373867,-0.5997633052560305,0.3215430701365314,-35.58852995304725,35.793182116680164,-58.12979906907962,-0.759,-0.3056,0.3073,-0.4858
127,3144407.0,1866.575416,1.0,7.62,1.64,5.44,-11.0,33.5,-43.69,7.69,0.0,-1.19,0.1436332368373867,-0.5997633052560305,0.3215430701365314,-35.58852995304725,35.793182116680164,-58.12979906907962,-0.759,-0.3056,0.3073,-0.4858
128,3144443.0,1866.619417,1.0,7.47,1.5,6.03,-10.56,35.0,-44.88,-1.5,-12.5,0.0,0.1049521668354456,0.03856682260499466,0.09071990335610636,-35.793182116680164,36.07025258875129,-57.998739571431635,-0.7581,-0.3073,0.3096,-0.4848
129,3144443.0,1866.619417,1.0,7.47,1.5,6.03,-10.56,35.0,-44.88,-1.5,-12.5,0.0,0.1049521668354456,0.03856682260499466,0.09071990335610636,-35.793182116680164,36.07025258875129,-57.998739571431635,-0.7581,-0.3073,0.3096,-0.4848
130,3144478.0,1866.629105,1.0,7.51,1.47,5.92,-11.0,35.25,-44.06,-23.37,-8.81,0.5,0.10796074167066473,-0.039045236518574944,0.1322394263390354,-35.57649524988903,36.51643362197993,-57.74995501006216,-0.7585,-0.3055,0.3133,-0.4829
131,3144478.0,1866.629105,1.0,7.51,1.47,5.92,-11.0,35.25,-44.06,-23.37,-8.81,0.5,0.10796074167066473,-0.039045236518574944,0.1322394263390354,-35.57649524988903,36.51643362197993,-57.74995501006216,-0.7585,-0.3055,0.3133,-0.4829
132,3144511.0,1866.641388,1.0,7.52,1.88,5.78,-11.0,35.25,-44.06,-20.81,-10.63,1.31,-0.35623385604626256,-0.2965184331224415,0.14857699040719474,-34.96325925488904,37.33794513405029,-57.29244480095832,-0.7599,-0.3004,0.3201,-0.4794
133,3144511.0,1866.641388,1.0,7.52,1.88,5.78,-11.0,35.25,-44.06,-20.81,-10.63,1.31,-0.35623385604626256,-0.2965184331224415,0.14857699040719474,-34.96325925488904,37.33794513405029,-57.29244480095832,-0.7599,-0.3004,0.3201,-0.4794
134,3144546.0,1866.644345,1.0,7.41,1.81,5.56,-11.0,35.25,-45.25,-14.5,-22.62,2.25,-0.384147035409548,-0.2952965742459457,0.379931006181172,-34.903193986048876,38.270597450084026,-56.861990212559824,-0.7589,-0.2999,0.3278,-0.4761
135,3144546.0,1866.644345,1.0,7.41,1.81,5.56,-11.0,35.25,-45.25,-14.5,-22.62,2.25,-0.384147035409548,-0.2952965742459457,0.379931006181172,-34.903193986048876,38.270597450084026,-56.861990212559824,-0.7589,-0.2999,0.3278,-0.4761
136,3144583.0,1866.6807420000002,1.0,7.33,1.81,5.95,-11.69,36.0,-43.25,-2.44,-30.62,3.5,-0.5529235619646187,0.16382131476534867,0.211081329438942,-35.227664546585345,38.974854277526724,-56.5494817192817,-0.7568,-0.3026,0.3336,-0.4737
137,3144583.0,1866.6807420000002,1.0,7.33,1.81,5.95,-11.69,36.0,-43.25,-2.44,-30.62,3.5,-0.5529235619646187,0.16382131476534867,0.211081329438942,-35.227664546585345,38.974854277526724,-56.5494817192817,-0.7568,-0.3026,0.3336,-0.4737
138,3144617.0,1866.7019309999998,1.0,7.36,1.81,6.57,-11.69,36.0,-43.25,4.5,-6.44,3.69,-0.7150210322200521,0.7125776627718532,-0.17290800614444102,-35.528360490512846,39.364064490012716,-56.51045043124189,-0.7546,-0.3051,0.3368,-0.4734
139,3144617.0,1866.7019309999998,1.0,7.36,1.81,6.57,-11.69,36.0,-43.25,4.5,-6.44,3.69,-0.7150210322200521,0.7125776627718532,-0.17290800614444102,-35.528360490512846,39.364064490012716,-56.51045043124189,-0.7546,-0.3051,0.3368,-0.4734
140,3144652.0,1866.764309,1.0,7.63,1.74,5.81,-12.75,35.56,-44.06,-1.12,15.31,-2.0,-0.3609703169303571,-0.05748113859303894,0.06668098829358549,-35.34791273696944,38.974854277526724,-56.65360014298316,-0.7559,-0.3036,0.3336,-0.4745
141,3144652.0,1866.764309,1.0,7.63,1.74,5.81,-12.75,35.56,-44.06,-1.12,15.31,-2.0,-0.3609703169303571,-0.05748113859303894,0.06668098829358549,-35.34791273696944,38.974854277526724,-56.65360014298316,-0.7559,-0.3036,0.3336,-0.4745
142,3144687.0,1866.814734,1.0,7.98,1.29,5.28,-12.06,35.19,-44.75,6.5,5.5,-1.75,0.3229397447941125,-0.5167178466363169,0.1706958392435336,-35.383995029265094,38.62253627833281,-56.78381993878929,-0.7564,-0.3039,0.3307,-0.4755
143,3144687.0,1866.814734,1.0,7.98,1.29,5.28,-12.06,35.19,-44.75,6.5,5.5,-1.75,0.3229397447941125,-0.5167178466363169,0.1706958392435336,-35.383995029265094,38.62253627833281,-56.78381993878929,-0.7564,-0.3039,0.3307,-0.4755
144,3144724.0,1866.818906,1.0,7.62,0.88,5.91,-12.06,35.56,-43.56,3.25,-10.31,1.06,0.4493338353185683,0.3476513596539619,0.13999920271924535,-35.624636497255686,38.707543665525726,-56.7968463150502,-0.7552,-0.3059,0.3314,-0.4756
145,3144724.0,1866.818906,1.0,7.62,0.88,5.91,-12.06,35.56,-43.56,3.25,-10.31,1.06,0.4493338353185683,0.3476513596539619,0.13999920271924535,-35.624636497255686,38.707543665525726,-56.7968463150502,-0.7552,-0.3059,0.3314,-0.4756
146,3144757.0,1866.8571399999998,1.0,7.42,1.48,5.93,-12.06,35.56,-43.56,-11.63,-0.31,-0.06,-0.20700797701010945,0.2489224496358846,0.19900276919882745,-35.44414023991489,38.93838987087892,-56.66661853000819,-0.7556,-0.3044,0.3333,-0.4746
147,3144757.0,1866.8571399999998,1.0,7.42,1.48,5.93,-12.06,35.56,-43.56,-11.63,-0.31,-0.06,-0.20700797701010945,0.2489224496358846,0.19900276919882745,-35.44414023991489,38.93838987087892,-56.66661853000819,-0.7556,-0.3044,0.3333,-0.4746
148,3144794.0,1866.9081170000002,1.0,7.69,1.74,5.74,-12.06,35.56,-44.0,-4.0,3.38,0.81,-0.32787583777058904,-0.15592022129332328,0.060908041606166925,-35.26373479080068,38.96269901927492,-56.640582553149535,-0.7563,-0.3029,0.3335,-0.4744
149,3144794.0,1866.9081170000002,1.0,7.69,1.74,5.74,-12.06,35.56,-44.0,-4.0,3.38,0.81,-0.32787583777058904,-0.15592022129332328,0.060908041606166925,-35.26373479080068,38.96269901927492,-56.640582553149535,-0.7563,-0.3029,0.3335,-0.4744
150,3144830.0,1866.964534,1.0,7.68,1.64,5.76,-11.69,34.5,-43.19,-1.81,4.25,-0.94,-0.2355898960253209,-0.1250451226768443,0.0712269933615346,-35.131494837214326,38.877624971743764,-56.60153456365382,-0.7572,-0.3018,0.3328,-0.4741
151,3144830.0,1866.964534,1.0,7.68,1.64,5.76,-11.69,34.5,-43.19,-1.81,4.25,-0.94,-0.2355898960253209,-0.1250451226768443,0.0712269933615346,-35.131494837214326,38.877624971743764,-56.60153456365382,-0.7572,-0.3018,0.3328,-0.4741
152,3144865.0,1866.987236,1.0,7.5,1.72,6.02,-11.69,34.5,-43.19,-1.25,0.25,-1.0,-0.41748951635565995,0.14255104087316894,0.04682511916944776,-35.143514652215984,38.877624971743764,-56.51045043124189,-0.7576,-0.3019,0.3328,-0.4734
153,3144865.0,1866.987236,1.0,7.5,1.72,6.02,-11.69,34.5,-43.19,-1.25,0.25,-1.0,-0.41748951635565995,0.14255104087316894,0.04682511916944776,-35.143514652215984,38.877624971743764,-56.51045043124189,-0.7576,-0.3019,0.3328,-0.4734
154,3144898.0,1867.0484350000002,1.0,7.65,1.41,5.54,-12.06,35.56,-43.56,-2.31,6.19,-1.56,0.038598641999434184,-0.2259115176250206,0.2594161529089938,-34.9993031752255,38.719689385129655,-56.48443354177373,-0.7588,-0.3007,0.3315,-0.4732
155,3144898.0,1867.0484350000002,1.0,7.65,1.41,5.54,-12.06,35.56,-43.56,-2.31,6.19,-1.56,0.038598641999434184,-0.2259115176250206,0.2594161529089938,-34.9993031752255,38.719689385129655,-56.48443354177373,-0.7588,-0.3007,0.3315,-0.4732
156,3144935.0,1867.052112,1.0,7.7,1.52,5.83,-12.06,35.56,-43.56,-5.94,3.88,2.5,-0.12292285399362335,-0.09448407344449916,0.030901295587055344,-34.8191192303352,38.73183555708117,-56.51045043124189,-0.7592,-0.2992,0.3316,-0.4734
157,3144935.0,1867.052112,1.0,7.7,1.52,5.83,-12.06,35.56,-43.56,-5.94,3.88,2.5,-0.12292285399362335,-0.09448407344449916,0.030901295587055344,-34.8191192303352,38.73183555708117,-56.51045043124189,-0.7592,-0.2992,0.3316,-0.4734
158,3144970.0,1867.0971170000003,1.0,7.64,1.57,5.81,-12.06,35.56,-43.56,-5.69,5.31,2.63,-0.20040864532117664,-0.14208275050153985,0.08398324304023498,-34.53100937438062,38.707543665525726,-56.56249373757082,-0.76,-0.2968,0.3314,-0.4738
159,3144970.0,1867.0971170000003,1.0,7.64,1.57,5.81,-12.06,35.56,-43.56,-5.69,5.31,2.63,-0.20040864532117664,-0.14208275050153985,0.08398324304023498,-34.53100937438062,38.707543665525726,-56.56249373757082,-0.76,-0.2968,0.3314,-0.4738
160,3145005.0,1867.114955,1.0,7.52,1.46,5.77,-12.06,36.0,-43.56,-1.56,5.44,0.56,-0.12535902625425055,-0.09429339093043776,0.21757841454589052,-34.411030131340006,38.62253627833281,-56.57550655085348,-0.7607,-0.2958,0.3307,-0.4739
161,3145005.0,1867.114955,1.0,7.52,1.46,5.77,-12.06,36.0,-43.56,-1.56,5.44,0.56,-0.12535902625425055,-0.09429339093043776,0.21757841454589052,-34.411030131340006,38.62253627833281,-56.57550655085348,-0.7607,-0.2958,0.3307,-0.4739
162,3145039.0,1867.1179379999999,1.0,7.31,1.48,5.89,-11.69,36.69,-43.19,-6.06,3.13,0.81,-0.2483365400671536,0.06939505861702644,0.3065387749296846,-34.20715457242007,38.598252513901095,-56.57550655085348,-0.7614,-0.2941,0.3305,-0.4739
163,3145039.0,1867.1179379999999,1.0,7.31,1.48,5.89,-11.69,36.69,-43.19,-6.06,3.13,0.81,-0.2483365400671536,0.06939505861702644,0.3065387749296846,-34.20715457242007,38.598252513901095,-56.57550655085348,-0.7614,-0.2941,0.3305,-0.4739
