,TIME,ELAPSED_SECONDS,PSTATE,acc_x,acc_y,acc_z,mag_x,mag_y,mag_z,gyr_x,gyr_y,gyr_z,lin_x,lin_y,lin_z,eul_x,eul_y,eul_z,qua_w,qua_x,qua_y,qua_z
0,3308992.0,2031.409173,1.0,5.47,-1.25,-8.01,-39.38,-16.75,12.56,-0.56,0.81,-0.31,-0.3019311451148209,0.0035901063775813924,0.031563059478916244,-117.89610796371052,48.47249577682955,-35.73297808318577,-0.0589,-0.8567,0.4105,-0.3068
1,3308992.0,2031.409173,1.0,5.47,-1.25,-8.01,-39.38,-16.75,12.56,-0.56,0.81,-0.31,-0.3019311451148209,0.0035901063775813924,0.031563059478916244,-117.89610796371052,48.47249577682955,-35.73297808318577,-0.0589,-0.8567,0.4105,-0.3068
2,3309029.0,2031.478132,1.0,5.32,-1.47,-7.78,-41.19,-16.0,12.56,3.31,0.25,-4.44,-0.10480150197434976,-0.1622367674266424,0.26964859093651583,-118.00727569803878,48.30917991037589,-35.76909927860193,-0.0585,-0.8572,0.4092,-0.3071
3,3309029.0,2031.478132,1.0,5.32,-1.47,-7.78,-41.19,-16.0,12.56,3.31,0.25,-4.44,-0.10480150197434976,-0.1622367674266424,0.26964859093651583,-118.00727569803878,48.30917991037589,-35.76909927860193,-0.0585,-0.8572,0.4092,-0.3071
4,3309064.0,2031.4960640000002,1.0,5.33,-1.58,-7.7,-41.19,-16.0,12.56,-1.44,3.5,-2.56,0.015258147127725856,-0.21250781593245227,0.3119194815959165,-118.0517930817869,48.221283839840105,-35.829309438989284,-0.0588,-0.8574,0.4085,-0.3076
5,3309064.0,2031.4960640000002,1.0,5.33,-1.58,-7.7,-41.19,-16.0,12.56,-1.44,3.5,-2.56,0.015258147127725856,-0.21250781593245227,0.3119194815959165,-118.0517930817869,48.221283839840105,-35.829309438989284,-0.0588,-0.8574,0.4085,-0.3076
6,3309096.0,2031.5367399999998,1.0,6.25,-1.17,-7.99,-39.38,-15.69,13.75,-2.5,6.75,-5.0,0.0028066019159358746,0.5144697164891413,-0.3917230581794904,-118.00727569803878,48.058128241744505,-36.01000138130928,-0.0606,-0.8572,0.4072,-0.3091
7,3309096.0,2031.5367399999998,1.0,6.25,-1.17,-7.99,-39.38,-15.69,13.75,-2.5,6.75,-5.0,0.0028066019159358746,0.5144697164891413,-0.3917230581794904,-118.00727569803878,48.058128241744505,-36.01000138130928,-0.0606,-0.8572,0.4072,-0.3091
8,3309133.0,2031.602033,1.0,6.5,-1.3,-7.75,-40.38,-15.69,11.75,1.88,1.69,-3.25,0.3341248346655544,0.6569883719210464,-0.3648408874766389,-118.07406258134459,47.94523502960248,-36.07025258875129,-0.0613,-0.8575,0.4063,-0.3096
9,3309133.0,2031.602033,1.0,6.5,-1.3,-7.75,-40.38,-15.69,11.75,1.88,1.69,-3.25,0.3341248346655544,0.6569883719210464,-0.3648408874766389,-118.07406258134459,47.94523502960248,-36.07025258875129,-0.0613,-0.8575,0.4063,-0.3096
10,3309170.0,2031.6200239999998,1.0,6.42,-1.36,-7.79,-39.38,-16.0,12.19,2.94,-1.44,-3.94,0.3158194576047334,0.5367943830431697,-0.3600707033798063,-118.16321281406336,47.78225428161778,-36.14256765746203,-0.0613,-0.8579,0.405,-0.3102
11,3309170.0,2031.6200239999998,1.0,6.42,-1.36,-7.79,-39.38,-16.0,12.19,2.94,-1.44,-3.94,0.3158194576047334,0.5367943830431697,-0.3600707033798063,-118.16321281406336,47.78225428161778,-36.14256765746203,-0.0613,-0.8579,0.405,-0.3102
12,3309203.0,2031.622941,1.0,6.21,-1.7,-7.94,-39.38,-16.0,12.19,-0.25,-4.0,-3.81,0.3983206221084197,0.11488148944251995,-0.4073522971108936,-118.29715573552454,47.64442766376834,-36.1305141127441,-0.0612,-0.8585,0.4039,-0.3101
13,3309203.0,2031.622941,1.0,6.21,-1.7,-7.94,-39.38,-16.0,12.19,-0.25,-4.0,-3.81,0.3983206221084197,0.11488148944251995,-0.4073522971108936,-118.29715573552454,47.64442766376834,-36.1305141127441,-0.0612,-0.8585,0.4039,-0.3101
14,3309242.0,2031.6258480000001,1.0,5.73,-1.58,-8.17,-39.69,-16.37,12.5,3.25,-2.88,-1.56,-0.01181177514831555,-0.1824973683482656,-0.29507040755998304,-118.43136127193769,47.606851295352534,-35.98590378205003,-0.0606,-0.8591,0.4036,-0.3089
15,3309242.0,2031.6258480000001,1.0,5.73,-1.58,-8.17,-39.69,-16.37,12.5,3.25,-2.88,-1.56,-0.01181177514831555,-0.1824973683482656,-0.29507040755998304,-118.43136127193769,47.606851295352534,-35.98590378205003,-0.0606,-0.8591,0.4036,-0.3089
16,3309277.0,2031.7000280000002,1.0,4.78,-1.3,-8.12,-38.56,-17.19,12.19,-2.06,-4.81,2.31,-0.6392880952569981,-0.5851791704641811,0.3344973370770941,-118.49856306250858,47.619376147320615,-35.877484931095594,-0.0601,-0.8594,0.4037,-0.308
17,3309277.0,2031.7000280000002,1.0,4.78,-1.3,-8.12,-38.56,-17.19,12.19,-2.06,-4.81,2.31,-0.6392880952569981,-0.5851791704641811,0.3344973370770941,-118.49856306250858,47.619376147320615,-35.877484931095594,-0.0601,-0.8594,0.4037,-0.308
18,3309309.0,2031.7938510000001,1.0,4.47,-0.45,-8.43,-38.56,-17.19,12.19,4.63,4.63,-4.25,-1.5593485711144963,-0.3354051510016164,0.38835740428793386,-118.43136127193769,47.68200947327645,-35.877484931095594,-0.0604,-0.8591,0.4042,-0.308
19,3309309.0,2031.7938510000001,1.0,4.47,-0.45,-8.43,-38.56,-17.19,12.19,4.63,4.63,-4.25,-1.5593485711144963,-0.3354051510016164,0.38835740428793386,-118.43136127193769,47.68200947327645,-35.877484931095594,-0.0604,-0.8591,0.4042,-0.308
20,3309344.0,2031.7998690000002,1.0,4.75,-1.07,-8.47,-40.0,-16.37,12.56,5.0,7.06,-4.94,-1.0439577476989597,-0.5995608736279502,0.11134294040493843,-118.47615510912563,47.36899357064292,-36.23901092380315,-0.0597,-0.8593,0.4017,-0.311
21,3309344.0,2031.7998690000002,1.0,4.75,-1.07,-8.47,-40.0,-16.37,12.56,5.0,7.06,-4.94,-1.0439577476989597,-0.5995608736279502,0.11134294040493843,-118.47615510912563,47.36899357064292,-36.23901092380315,-0.0597,-0.8593,0.4017,-0.311
22,3309381.0,2031.8120399999998,1.0,5.07,-0.31,-7.93,-40.38,-16.37,12.19,8.88,10.19,-7.06,-1.2173496995423734,0.28299549990013784,0.4726330053689996,-118.43136127193769,47.18136407572362,-36.54056778374004,-0.0598,-0.8591,0.4002,-0.3135
23,3309381.0,2031.8120399999998,1.0,5.07,-0.31,-7.93,-40.38,-16.37,12.19,8.88,10.19,-7.06,-1.2173496995423734,0.28299549990013784,0.4726330053689996,-118.43136127193769,47.18136407572362,-36.54056778374004,-0.0598,-0.8591,0.4002,-0.3135
24,3309418.0,2031.8156780000002,1.0,6.04,-1.9,-7.84,-40.38,-16.37,12.19,24.12,13.13,-12.81,0.3548521950670512,-0.15221049368540585,-0.26350947665518376,-118.54340107943031,46.61927683962218,-37.10820677500307,-0.0574,-0.8596,0.3957,-0.3182
25,3309418.0,2031.8156780000002,1.0,6.04,-1.9,-7.84,-40.38,-16.37,12.19,24.12,13.13,-12.81,0.3548521950670512,-0.15221049368540585,-0.26350947665518376,-118.54340107943031,46.61927683962218,-37.10820677500307,-0.0574,-0.8596,0.3957,-0.3182
26,3309451.0,2031.858923,1.0,6.2,-2.23,-7.68,-40.0,-16.37,11.75,11.19,6.56,-10.13,0.6699995512309657,-0.2623448566048945,-0.2867922164870613,-118.79053985855312,45.92144367093,-37.62836370499113,-0.0555,-0.8607,0.3901,-0.3225
27,3309451.0,2031.858923,1.0,6.2,-2.23,-7.68,-40.0,-16.37,11.75,11.19,6.56,-10.13,0.6699995512309657,-0.2623448566048945,-0.2867922164870613,-118.79053985855312,45.92144367093,-37.62836370499113,-0.0555,-0.8607,0.3901,-0.3225
28,3309488.0,2031.876943,1.0,6.68,-1.65,-7.65,-39.69,-15.69,11.75,3.06,6.13,-11.31,0.4924528891224985,0.3967462460592857,-0.4630862462836802,-118.9708445669936,45.47378742330781,-37.87057079932817,-0.0563,-0.8615,0.3865,-0.3245
29,3309488.0,2031.876943,1.0,6.68,-1.65,-7.65,-39.69,-15.69,11.75,3.06,6.13,-11.31,0.4924528891224985,0.3967462460592857,-0.4630862462836802,-118.9708445669936,45.47378742330781,-37.87057079932817,-0.0563,-0.8615,0.3865,-0.3245
30,3309522.0,2031.8804460000001,1.0,6.35,-1.87,-7.36,-40.0,-16.75,11.75,5.5,3.63,-11.69,0.6185349964946367,0.10299106357329536,-0.07240902902374025,-119.17426448564116,45.06407886296696,-38.05234138049009,-0.0562,-0.8624,0.3832,-0.326
31,3309522.0,2031.8804460000001,1.0,6.35,-1.87,-7.36,-40.0,-16.75,11.75,5.5,3.63,-11.69,0.6185349964946367,0.10299106357329536,-0.07240902902374025,-119.17426448564116,45.06407886296696,-38.05234138049009,-0.0562,-0.8624,0.3832,-0.326
32,3309557.0,2031.921769,1.0,6.43,-1.05,-7.63,-40.0,-16.75,11.75,1.69,6.06,-5.88,-0.07856614580878135,0.5899228004406752,-0.20884391943567596,-119.21955248767715,44.766490602125245,-38.306987464775865,-0.0569,-0.8626,0.3808,-0.3281
33,3309557.0,2031.921769,1.0,6.43,-1.05,-7.63,-40.0,-16.75,11.75,1.69,6.06,-5.88,-0.07856614580878135,0.5899228004406752,-0.20884391943567596,-119.21955248767715,44.766490602125245,-38.306987464775865,-0.0569,-0.8626,0.3808,-0.3281
34,3309594.0,2031.977483,1.0,6.64,-1.49,-7.68,-39.69,-16.75,11.0,10.13,4.69,-8.56,0.2823824662003309,0.3693175857033945,-0.4440067918193833,-119.3556000073112,44.444462000793465,-38.50113546048416,-0.0565,-0.8632,0.3782,-0.3297
35,3309594.0,2031.977483,1.0,6.64,-1.49,-7.68,-39.69,-16.75,11.0,10.13,4.69,-8.56,0.2823824662003309,0.3693175857033945,-0.4440067918193833,-119.3556000073112,44.444462000793465,-38.50113546048416,-0.0565,-0.8632,0.3782,-0.3297
36,3309631.0,2031.9934190000001,1.0,6.41,-1.91,-7.49,-40.38,-17.87,10.56,2.0,2.06,-5.0,0.5359930233265606,-0.023545677638373785,-0.220735356114016,-119.46918424877704,44.147532698220644,-38.67110921893018,-0.055999999999999994,-0.8637,0.3758,-0.3311
37,3309631.0,2031.9934190000001,1.0,6.41,-1.91,-7.49,-40.38,-17.87,10.56,2.0,2.06,-5.0,0.5359930233265606,-0.023545677638373785,-0.220735356114016,-119.46918424877704,44.147532698220644,-38.67110921893018,-0.055999999999999994,-0.8637,0.3758,-0.3311
38,3309664.0,2032.0474829999998,1.0,6.61,-1.59,-7.6,-40.38,-17.87,10.56,6.38,1.94,-2.94,0.3483111810533237,0.2805196860220478,-0.3806061579115809,-119.49192425354241,44.060987161952966,-38.74398218156732,-0.0559,-0.8638,0.3751,-0.3317
39,3309664.0,2032.0474829999998,1.0,6.61,-1.59,-7.6,-40.38,-17.87,10.56,6.38,1.94,-2.94,0.3483111810533237,0.2805196860220478,-0.3806061579115809,-119.49192425354241,44.060987161952966,-38.74398218156732,-0.0559,-0.8638,0.3751,-0.3317
40,3309699.0,2032.1281370000002,1.0,6.33,-2.34,-7.73,-39.0,-16.75,11.75,3.56,-2.06,-2.25,0.6337948943458098,-0.4574901844725976,-0.4249875406389521,-119.60574054309872,43.887975339090566,-38.8168714421915,-0.0543,-0.8643,0.3737,-0.3323
41,3309699.0,2032.1281370000002,1.0,6.33,-2.34,-7.73,-39.0,-16.75,11.75,3.56,-2.06,-2.25,0.6337948943458098,-0.4574901844725976,-0.4249875406389521,-119.60574054309872,43.887975339090566,-38.8168714421915,-0.0543,-0.8643,0.3737,-0.3323
42,3309733.0,2032.159175,1.0,6.23,-1.54,-7.66,-40.75,-17.87,12.19,-4.31,-2.63,2.63,0.08671737380256289,0.08616060416447369,-0.18560482298019032,-119.58296175366009,43.986826321433156,-38.73183555708117,-0.0544,-0.8642,0.3745,-0.3316
43,3309733.0,2032.159175,1.0,6.23,-1.54,-7.66,-40.75,-17.87,12.19,-4.31,-2.63,2.63,0.08671737380256289,0.08616060416447369,-0.18560482298019032,-119.58296175366009,43.986826321433156,-38.73183555708117,-0.0544,-0.8642,0.3745,-0.3316
44,3309770.0,2032.1912760000002,1.0,5.87,-1.54,-7.75,-39.0,-17.5,11.0,-1.37,-2.63,-0.44,-0.11668863698586945,-0.15874584638986056,-0.03470069582688673,-119.65132148129857,44.0239043163285,-38.58611130749907,-0.0547,-0.8645,0.3748,-0.3304
45,3309770.0,2032.1912760000002,1.0,5.87,-1.54,-7.75,-39.0,-17.5,11.0,-1.37,-2.63,-0.44,-0.11668863698586945,-0.15874584638986056,-0.03470069582688673,-119.65132148129857,44.0239043163285,-38.58611130749907,-0.0547,-0.8645,0.3748,-0.3304
46,3309805.0,2032.2950050000002,1.0,6.23,-1.65,-7.88,-39.0,-17.5,11.0,-6.56,-2.81,1.88,0.0929354841341848,-0.0618124510915572,-0.3726103963489802,-119.67412364784863,44.098074864095786,-38.464723978916496,-0.0554,-0.8646,0.3754,-0.3294
47,3309805.0,2032.2950050000002,1.0,6.23,-1.65,-7.88,-39.0,-17.5,11.0,-6.56,-2.81,1.88,0.0929354841341848,-0.0618124510915572,-0.3726103963489802,-119.67412364784863,44.098074864095786,-38.464723978916496,-0.0554,-0.8646,0.3754,-0.3294
48,3309842.0,2032.298512,1.0,6.28,-1.22,-7.78,-39.38,-17.5,12.19,-2.63,-4.94,2.56,-0.09083527790507477,0.3220630363329923,-0.26028718828700725,-119.67412364784863,44.28358642561688,-38.24633966792924,-0.055999999999999994,-0.8646,0.3769,-0.3276
49,3309842.0,2032.298512,1.0,6.28,-1.22,-7.78,-39.38,-17.5,12.19,-2.63,-4.94,2.56,-0.09083527790507477,0.3220630363329923,-0.26028718828700725,-119.67412364784863,44.28358642561688,-38.24633966792924,-0.055999999999999994,-0.8646,0.3769,-0.3276
50,3309877.0,2032.341864,1.0,5.7,-1.23,-7.68,-39.69,-17.5,11.75,-4.63,-9.5,-1.44,-0.28078822510192986,0.008271225015736516,0.167853936202361,-119.81110097439955,44.33307679780215,-37.979621244835975,-0.0562,-0.8652,0.3773,-0.3254
51,3309877.0,2032.341864,1.0,5.7,-1.23,-7.68,-39.69,-17.5,11.75,-4.63,-9.5,-1.44,-0.28078822510192986,0.008271225015736516,0.167853936202361,-119.81110097439955,44.33307679780215,-37.979621244835975,-0.0562,-0.8652,0.3773,-0.3254
52,3309912.0,2032.3589780000002,1.0,5.62,-1.28,-7.85,-39.69,-17.5,11.75,-10.44,-8.38,-7.38,-0.29038176794533066,-0.13827304351104353,0.07310701739170787,-120.13181910251943,44.295958202894106,-37.53152975160733,-0.057999999999999996,-0.8666,0.377,-0.3217
53,3309912.0,2032.3589780000002,1.0,5.62,-1.28,-7.85,-39.69,-17.5,11.75,-10.44,-8.38,-7.38,-0.29038176794533066,-0.13827304351104353,0.07310701739170787,-120.13181910251943,44.295958202894106,-37.53152975160733,-0.057999999999999996,-0.8666,0.377,-0.3217
54,3309946.0,2032.4023339999999,1.0,6.36,-1.31,-9.39,-39.38,-18.25,12.19,-20.81,-13.31,-9.94,-0.4961835844495244,-0.28139319599523194,-1.5956488787248675,-120.63897960324066,44.23410474921271,-36.75785092937251,-0.0632,-0.8688,0.3765,-0.3153
55,3309946.0,2032.4023339999999,1.0,6.36,-1.31,-9.39,-39.38,-18.25,12.19,-20.81,-13.31,-9.94,-0.4961835844495244,-0.28139319599523194,-1.5956488787248675,-120.63897960324066,44.23410474921271,-36.75785092937251,-0.0632,-0.8688,0.3765,-0.3153
56,3309983.0,2032.4153059999999,1.0,5.9,-0.12,-12.05,-39.0,-17.5,11.38,-46.75,-84.44,-28.81,-2.3879466790195014,-0.5987402792754114,-3.3829717055733997,-121.80654521371449,44.444462000793465,-34.63902408126335,-0.0692,-0.8738,0.3782,-0.2977
57,3309983.0,2032.4153059999999,1.0,5.9,-0.12,-12.05,-39.0,-17.5,11.38,-46.75,-84.44,-28.81,-2.3879466790195014,-0.5987402792754114,-3.3829717055733997,-121.80654521371449,44.444462000793465,-34.63902408126335,-0.0692,-0.8738,0.3782,-0.2977
58,3310018.0,2032.4185260000002,1.0,1.85,-0.34,-10.24,-39.0,-17.5,11.38,5.25,-191.56,-26.44,-2.699251713324028,-1.854347405877942,-0.0762208322243616,-126.55630673438098,44.0239043163285,-28.10371551481587,-0.0514,-0.8932,0.3748,-0.2428
59,3310018.0,2032.4185260000002,1.0,1.85,-0.34,-10.24,-39.0,-17.5,11.38,5.25,-191.56,-26.44,-2.699251713324028,-1.854347405877942,-0.0762208322243616,-126.55630673438098,44.0239043163285,-28.10371551481587,-0.0514,-0.8932,0.3748,-0.2428
60,3310053.0,2032.457854,1.0,-4.51,3.26,-7.67,-39.38,-19.75,15.0,-24.37,-182.56,-33.19,-7.647275092876879,-2.2146017846648327,4.667455258678723,-130.3242488651211,43.69037629572606,-22.127373666986447,-0.0347,-0.9075,0.3721,-0.1919
61,3310053.0,2032.457854,1.0,-4.51,3.26,-7.67,-39.38,-19.75,15.0,-24.37,-182.56,-33.19,-7.647275092876879,-2.2146017846648327,4.667455258678723,-130.3242488651211,43.69037629572606,-22.127373666986447,-0.0347,-0.9075,0.3721,-0.1919
62,3310090.0,2032.4743850000002,1.0,-7.41,2.76,-7.29,-34.06,-19.69,19.25,50.0,-22.75,-92.44,-9.07825593878486,-3.8592782351638086,5.521671515397266,-134.38132917213414,40.85232569399261,-19.110662839696182,-0.03,-0.9218,0.349,-0.166
63,3310090.0,2032.4743850000002,1.0,-7.41,2.76,-7.29,-34.06,-19.69,19.25,50.0,-22.75,-92.44,-9.07825593878486,-3.8592782351638086,5.521671515397266,-134.38132917213414,40.85232569399261,-19.110662839696182,-0.03,-0.9218,0.349,-0.166
64,3310125.0,2032.515864,1.0,-4.57,-1.52,-7.24,-32.19,-22.25,22.5,53.44,40.5,-108.31,-4.636565050783823,-5.055880882493554,4.463127469694151,-136.9320256088512,37.616257937648726,-19.971122857066124,-0.0255,-0.9302,0.3224,-0.1734
65,3310125.0,2032.515864,1.0,-4.57,-1.52,-7.24,-32.19,-22.25,22.5,53.44,40.5,-108.31,-4.636565050783823,-5.055880882493554,4.463127469694151,-136.9320256088512,37.616257937648726,-19.971122857066124,-0.0255,-0.9302,0.3224,-0.1734
66,3310159.0,2032.5260489999998,1.0,-1.24,-3.79,-8.7,-32.19,-22.25,22.5,109.87,41.44,-49.06,-2.0351336316496544,-4.911109545878968,1.8485764812578582,-138.3272359651665,34.315074743396394,-22.921897728102717,-0.0049,-0.9346,0.295,-0.1987
67,3310159.0,2032.5260489999998,1.0,-1.24,-3.79,-8.7,-32.19,-22.25,22.5,109.87,41.44,-49.06,-2.0351336316496544,-4.911109545878968,1.8485764812578582,-138.3272359651665,34.315074743396394,-22.921897728102717,-0.0049,-0.9346,0.295,-0.1987
68,3310196.0,2032.5952100000002,1.0,-0.44,-2.96,-4.39,-30.37,-22.25,22.5,33.94,1.56,-35.94,-0.4798880100182553,-3.172579198230585,5.57206044151912,-138.91102916961097,32.98621503760272,-23.79950985538602,0.0072,-0.9364,0.2839,-0.2062
69,3310196.0,2032.5952100000002,1.0,-0.44,-2.96,-4.39,-30.37,-22.25,22.5,33.94,1.56,-35.94,-0.4798880100182553,-3.172579198230585,5.57206044151912,-138.91102916961097,32.98621503760272,-23.79950985538602,0.0072,-0.9364,0.2839,-0.2062
70,3310233.0,2032.650134,1.0,2.94,-0.25,-4.4,-29.87,-23.06,23.69,-21.62,94.87,-49.81,0.5392403290442839,0.7014760020783244,4.583312820950535,-138.9763854221543,31.554718508036178,-25.523799625853453,-0.0057,-0.9366,0.2719,-0.2209
71,3310233.0,2032.650134,1.0,2.94,-0.25,-4.4,-29.87,-23.06,23.69,-21.62,94.87,-49.81,0.5392403290442839,0.7014760020783244,4.583312820950535,-138.9763854221543,31.554718508036178,-25.523799625853453,-0.0057,-0.9366,0.2719,-0.2209
72,3310268.0,2032.6536780000001,1.0,6.19,0.55,-5.56,-29.87,-23.06,23.69,-11.5,158.38,-75.06,1.7576393423478132,2.405852476460996,2.0185322682410822,-137.68760819354466,29.713115141941444,-29.2983716924918,-0.023,-0.9326,0.2564,-0.2529
73,3310268.0,2032.6536780000001,1.0,6.19,0.55,-5.56,-29.87,-23.06,23.69,-11.5,158.38,-75.06,1.7576393423478132,2.405852476460996,2.0185322682410822,-137.68760819354466,29.713115141941444,-29.2983716924918,-0.023,-0.9326,0.2564,-0.2529
74,3310303.0,2032.7001100000002,1.0,7.82,-0.11,-5.42,-30.69,-22.0,20.87,-18.06,167.5,-93.81,2.729469567592917,1.6811512417873646,0.8475972385848198,-135.1561066706563,26.19396354392425,-35.21564193303898,-0.0511,-0.9244,0.2266,-0.3025
75,3310303.0,2032.7001100000002,1.0,7.82,-0.11,-5.42,-30.69,-22.0,20.87,-18.06,167.5,-93.81,2.729469567592917,1.6811512417873646,0.8475972385848198,-135.1561066706563,26.19396354392425,-35.21564193303898,-0.0511,-0.9244,0.2266,-0.3025
76,3310338.0,2032.717562,1.0,10.24,-0.68,-5.11,-32.88,-25.19,18.5,9.25,169.69,3.25,3.8544715613123466,1.5737681562239565,-0.8750353901193826,-130.26971625278716,25.054040082214637,-41.53786260419432,-0.0641,-0.9073,0.2169,-0.3546
77,3310338.0,2032.717562,1.0,10.24,-0.68,-5.11,-32.88,-25.19,18.5,9.25,169.69,3.25,3.8544715613123466,1.5737681562239565,-0.8750353901193826,-130.26971625278716,25.054040082214637,-41.53786260419432,-0.0641,-0.9073,0.2169,-0.3546
78,3310374.0,2032.7599079999998,1.0,13.27,0.84,-5.42,-34.38,-25.19,14.25,-76.5,115.19,-24.87,4.271772911664303,3.3114253671891176,-3.4960308662279616,-126.91419440082724,24.924931536010146,-44.927644585005865,-0.0841,-0.8946,0.2158,-0.3821
79,3310374.0,2032.7599079999998,1.0,13.27,0.84,-5.42,-34.38,-25.19,14.25,-76.5,115.19,-24.87,4.271772911664303,3.3114253671891176,-3.4960308662279616,-126.91419440082724,24.924931536010146,-44.927644585005865,-0.0841,-0.8946,0.2158,-0.3821
80,3310409.0,2032.775793,1.0,13.09,0.32,-6.29,-34.38,-25.19,14.25,-2.06,76.0,42.56,3.0644562669425084,2.221691259544709,-4.21789262125006,-123.4780360314948,25.758842544663853,-48.007947366775134,-0.0948,-0.8808,0.2229,-0.4068
81,3310409.0,2032.775793,1.0,13.09,0.32,-6.29,-34.38,-25.19,14.25,-2.06,76.0,42.56,3.0644562669425084,2.221691259544709,-4.21789262125006,-123.4780360314948,25.758842544663853,-48.007947366775134,-0.0948,-0.8808,0.2229,-0.4068
82,3310446.0,2032.77865,1.0,10.88,-0.43,-3.07,-35.38,-25.06,11.5,-10.44,40.13,40.5,4.038800960596514,2.048772671290787,-0.5603561899304754,-121.8536919796764,26.66479763712951,-49.31587513221956,-0.0948,-0.8740000000000001,0.2306,-0.4172
83,3310446.0,2032.77865,1.0,10.88,-0.43,-3.07,-35.38,-25.06,11.5,-10.44,40.13,40.5,4.038800960596514,2.048772671290787,-0.5603561899304754,-121.8536919796764,26.66479763712951,-49.31587513221956,-0.0948,-0.8740000000000001,0.2306,-0.4172
84,3310483.0,2032.859148,1.0,11.79,0.42,-2.57,-36.0,-23.25,11.5,-11.06,143.94,41.88,3.6504643015387592,3.2502020692710936,-1.2339884277403588,-117.58578661368068,28.375486985220768,-52.89786697704349,-0.1002,-0.8553,0.2451,-0.4454
85,3310483.0,2032.859148,1.0,11.79,0.42,-2.57,-36.0,-23.25,11.5,-11.06,143.94,41.88,3.6504643015387592,3.2502020692710936,-1.2339884277403588,-117.58578661368068,28.375486985220768,-52.89786697704349,-0.1002,-0.8553,0.2451,-0.4454
86,3310518.0,2032.960573,1.0,11.47,-1.12,-3.57,-36.0,-23.25,11.5,-11.19,112.87,34.06,2.8313813919828137,1.2162749334833116,-1.85800407542434,-113.85904656766621,28.90768703373302,-56.53647049567268,-0.1058,-0.838,0.2496,-0.4736
87,3310518.0,2032.960573,1.0,11.47,-1.12,-3.57,-36.0,-23.25,11.5,-11.19,112.87,34.06,2.8313813919828137,1.2162749334833116,-1.85800407542434,-113.85904656766621,28.90768703373302,-56.53647049567268,-0.1058,-0.838,0.2496,-0.4736
88,3310553.0,2033.1235809999998,1.0,9.07,1.14,-0.56,-34.56,-20.37,9.5,-48.69,162.88,15.94,2.1214683774178207,3.345256414224333,1.5491242539482677,-108.58359923261342,29.86726387171145,-61.16786271295341,-0.124,-0.812,0.2577,-0.5088
89,3310553.0,2033.1235809999998,1.0,9.07,1.14,-0.56,-34.56,-20.37,9.5,-48.69,162.88,15.94,2.1214683774178207,3.345256414224333,1.5491242539482677,-108.58359923261342,29.86726387171145,-61.16786271295341,-0.124,-0.812,0.2577,-0.5088
90,3310587.0,2033.224143,1.0,22.52,-5.65,-17.11,-36.69,-17.75,7.88,3.88,183.31,21.81,-4.580892660140298,-7.294770541560067,-17.718370348444058,-102.81460845539635,30.318170931025325,-66.78891793624743,-0.1339,-0.7816,0.2615,-0.5504
91,3310587.0,2033.224143,1.0,22.52,-5.65,-17.11,-36.69,-17.75,7.88,3.88,183.31,21.81,-4.580892660140298,-7.294770541560067,-17.718370348444058,-102.81460845539635,30.318170931025325,-66.78891793624743,-0.1339,-0.7816,0.2615,-0.5504
92,3310624.0,2033.2891129999998,1.0,8.94,-4.04,-2.02,-38.69,-14.38,5.75,61.5,84.37,-90.62,2.876802749349824,-2.3529280690627403,0.5053954908947933,-103.01690791684817,28.12734139012517,-67.61439507717935,-0.13699999999999998,-0.7827,0.243,-0.5564
93,3310624.0,2033.2891129999998,1.0,8.94,-4.04,-2.02,-38.69,-14.38,5.75,61.5,84.37,-90.62,2.876802749349824,-2.3529280690627403,0.5053954908947933,-103.01690791684817,28.12734139012517,-67.61439507717935,-0.13699999999999998,-0.7827,0.243,-0.5564
94,3310659.0,2033.305243,1.0,9.59,-1.92,-0.42,-38.69,-14.38,5.75,98.19,76.31,29.81,2.591165467944683,0.04018902414187908,0.3665680956906101,-100.00990479193828,26.32339770363258,-71.91712490112356,-0.129,-0.7661,0.2277,-0.5872
95,3310659.0,2033.305243,1.0,9.59,-1.92,-0.42,-38.69,-14.38,5.75,98.19,76.31,29.81,2.591165467944683,0.04018902414187908,0.3665680956906101,-100.00990479193828,26.32339770363258,-71.91712490112356,-0.129,-0.7661,0.2277,-0.5872
96,3310696.0,2033.308005,1.0,10.06,0.36,-3.29,-37.5,-14.5,5.69,-82.12,1.88,37.81,-0.9782081273552624,0.7283211241681595,-0.7133289543357257,-98.91076580586659,27.725866499273085,-72.10127150439342,-0.1373,-0.7599,0.2396,-0.5885
97,3310696.0,2033.308005,1.0,10.06,0.36,-3.29,-37.5,-14.5,5.69,-82.12,1.88,37.81,-0.9782081273552624,0.7283211241681595,-0.7133289543357257,-98.91076580586659,27.725866499273085,-72.10127150439342,-0.1373,-0.7599,0.2396,-0.5885
98,3310733.0,2033.342221,1.0,9.5,-3.17,-2.71,-38.5,-14.19,3.56,-104.25,6.81,53.69,1.2993515196442005,-1.7835118917382815,-0.33108993355651783,-97.6148043083262,31.138159380012002,-71.43652135500591,-0.1444,-0.7525,0.2684,-0.5838
99,3310733.0,2033.342221,1.0,9.5,-3.17,-2.71,-38.5,-14.19,3.56,-104.25,6.81,53.69,1.2993515196442005,-1.7835118917382815,-0.33108993355651783,-97.6148043083262,31.138159380012002,-71.43652135500591,-0.1444,-0.7525,0.2684,-0.5838
100,3310768.0,2033.3488989999998,1.0,11.62,3.46,-2.71,-38.5,-14.19,3.56,-130.81,-0.12,35.44,-2.3924619980311945,3.940446698953454,-1.7297751568968869,-95.92384977618164,34.699045966979874,-70.28332279396642,-0.1681,-0.7427,0.2982,-0.5756
101,3310768.0,2033.3488989999998,1.0,11.62,3.46,-2.71,-38.5,-14.19,3.56,-130.81,-0.12,35.44,-2.3924619980311945,3.940446698953454,-1.7297751568968869,-95.92384977618164,34.699045966979874,-70.28332279396642,-0.1681,-0.7427,0.2982,-0.5756
102,3310802.0,2033.3655760000001,1.0,15.26,-2.93,-4.36,-39.19,-13.5,2.25,109.44,-88.69,51.44,0.8946343826017463,-0.05944147637755725,-6.307263119796593,-97.51046175424892,35.02333444123644,-69.70978337535752,-0.132,-0.7519,0.3009,-0.5715
103,3310802.0,2033.3655760000001,1.0,15.26,-2.93,-4.36,-39.19,-13.5,2.25,109.44,-88.69,51.44,0.8946343826017463,-0.05944147637755725,-6.307263119796593,-97.51046175424892,35.02333444123644,-69.70978337535752,-0.132,-0.7519,0.3009,-0.5715
104,3310837.0,2033.3684510000003,1.0,13.01,-6.0,-2.42,-39.5,-11.69,3.06,-11.25,-96.69,13.25,4.449649764252535,-1.4948615263707734,-3.944077471390884,-100.51042463462828,35.67278424373711,-66.59687161580996,-0.1165,-0.7689,0.3063,-0.5489999999999999
105,3310837.0,2033.3684510000003,1.0,13.01,-6.0,-2.42,-39.5,-11.69,3.06,-11.25,-96.69,13.25,4.449649764252535,-1.4948615263707734,-3.944077471390884,-100.51042463462828,35.67278424373711,-66.59687161580996,-0.1165,-0.7689,0.3063,-0.5489999999999999
106,3310874.0,2033.411077,1.0,12.6,-5.44,-2.92,-40.06,-10.5,5.06,-40.75,-77.5,-22.12,4.21863670891431,-1.1989289792169453,-3.5217285068174906,-102.48453447446366,36.32342057290312,-63.95686484639014,-0.1191,-0.7798,0.3117,-0.5296
107,3310874.0,2033.411077,1.0,12.6,-5.44,-2.92,-40.06,-10.5,5.06,-40.75,-77.5,-22.12,4.21863670891431,-1.1989289792169453,-3.5217285068174906,-102.48453447446366,36.32342057290312,-63.95686484639014,-0.1191,-0.7798,0.3117,-0.5296
108,3310909.0,2033.5102190000002,1.0,12.53,-4.79,-2.57,-40.06,-10.5,5.06,-23.87,-46.19,-24.94,4.644720999690583,-0.43750938640901627,-3.030213026917336,-104.52067140467182,36.46817032738551,-61.447593803930225,-0.1254,-0.7908,0.3129,-0.5109
109,3310909.0,2033.5102190000002,1.0,12.53,-4.79,-2.57,-40.06,-10.5,5.06,-23.87,-46.19,-24.94,4.644720999690583,-0.43750938640901627,-3.030213026917336,-104.52067140467182,36.46817032738551,-61.447593803930225,-0.1254,-0.7908,0.3129,-0.5109
110,3310946.0,2033.517145,1.0,8.13,-7.78,-0.69,-38.88,-12.06,5.5,-33.38,-87.69,-1.63,6.935665581569201,-3.2088162875058783,1.5180167608179538,-106.58549683521669,36.79407807568971,-59.06273808576779,-0.1214,-0.8017,0.3156,-0.4929
111,3310946.0,2033.517145,1.0,8.13,-7.78,-0.69,-38.88,-12.06,5.5,-33.38,-87.69,-1.63,6.935665581569201,-3.2088162875058783,1.5180167608179538,-106.58549683521669,36.79407807568971,-59.06273808576779,-0.1214,-0.8017,0.3156,-0.4929
112,3310983.0,2033.51992,1.0,4.92,-7.66,-1.59,-40.38,-15.0,5.5,-73.69,-70.44,26.69,5.700586706337164,-4.4623784064799645,4.0620359867774125,-108.11373745608395,38.974854277526724,-55.446332944514495,-0.1301,-0.8096,0.3336,-0.4652
113,3310983.0,2033.51992,1.0,4.92,-7.66,-1.59,-40.38,-15.0,5.5,-73.69,-70.44,26.69,5.700586706337164,-4.4623784064799645,4.0620359867774125,-108.11373745608395,38.974854277526724,-55.446332944514495,-0.1301,-0.8096,0.3336,-0.4652
114,3311017.0,2033.5606239999997,1.0,2.0,-7.31,-1.29,-40.38,-15.0,5.5,-135.81,-26.69,28.69,5.028216796670666,-4.996031122533767,6.830594075062942,-107.80196748253584,41.47659109099214,-53.218059503427035,-0.1451,-0.8079999999999999,0.3541,-0.4479
115,3311017.0,2033.5606239999997,1.0,2.0,-7.31,-1.29,-40.38,-15.0,5.5,-135.81,-26.69,28.69,5.028216796670666,-4.996031122533767,6.830594075062942,-107.80196748253584,41.47659109099214,-53.218059503427035,-0.1451,-0.8079999999999999,0.3541,-0.4479
116,3311052.0,2033.5775039999999,1.0,4.26,-1.81,-1.12,-38.88,-13.88,5.06,-142.88,10.38,48.25,2.194578199396409,0.09458195071472586,5.581371218507232,-105.2161097378776,45.461363019954995,-51.06207881053215,-0.1835,-0.7945,0.3864,-0.431
117,3311052.0,2033.5775039999999,1.0,4.26,-1.81,-1.12,-38.88,-13.88,5.06,-142.88,10.38,48.25,2.194578199396409,0.09458195071472586,5.581371218507232,-105.2161097378776,45.461363019954995,-51.06207881053215,-0.1835,-0.7945,0.3864,-0.431
118,3311087.0,2033.580737,1.0,3.37,-0.84,-0.7,-38.75,-15.88,3.5,-151.63,26.37,58.31,1.3495392293191524,0.6316077273063148,6.592258059471337,-101.35655120840237,49.75757860526172,-49.883924403527324,-0.2164,-0.7736,0.4207,-0.4217
119,3311087.0,2033.580737,1.0,3.37,-0.84,-0.7,-38.75,-15.88,3.5,-151.63,26.37,58.31,1.3495392293191524,0.6316077273063148,6.592258059471337,-101.35655120840237,49.75757860526172,-49.883924403527324,-0.2164,-0.7736,0.4207,-0.4217
120,3311124.0,2033.620197,1.0,4.99,3.06,-0.79,-39.56,-14.06,2.0,-150.0,68.87,71.62,-1.7809385888845632,3.2189177544467653,5.185543397385292,-97.33679783559198,53.11554927222101,-49.77021027536523,-0.2431,-0.7509,0.4471,-0.4208
121,3311124.0,2033.620197,1.0,4.99,3.06,-0.79,-39.56,-14.06,2.0,-150.0,68.87,71.62,-1.7809385888845632,3.2189177544467653,5.185543397385292,-97.33679783559198,53.11554927222101,-49.77021027536523,-0.2431,-0.7509,0.4471,-0.4208
122,3311159.0,2033.682533,1.0,7.13,5.26,-2.36,-39.56,-14.06,2.0,-156.88,78.75,54.13,-4.279125461071383,3.2530328328560567,2.378261030864693,-91.59825645648041,56.92715416608731,-49.808109162272245,-0.2858,-0.7169,0.4766,-0.4211
123,3311159.0,2033.682533,1.0,7.13,5.26,-2.36,-39.56,-14.06,2.0,-156.88,78.75,54.13,-4.279125461071383,3.2530328328560567,2.378261030864693,-91.59825645648041,56.92715416608731,-49.808109162272245,-0.2858,-0.7169,0.4766,-0.4211
124,3311196.0,2033.687279,1.0,7.94,6.09,-2.61,-40.19,-11.19,-1.06,-99.5,71.37,56.31,-5.280680860536814,3.115415018190153,1.4788412297654538,-87.91108432402599,59.11542551802431,-50.14946187500939,-0.3087,-0.6941,0.4933,-0.4238
125,3311196.0,2033.687279,1.0,7.94,6.09,-2.61,-40.19,-11.19,-1.06,-99.5,71.37,56.31,-5.280680860536814,3.115415018190153,1.4788412297654538,-87.91108432402599,59.11542551802431,-50.14946187500939,-0.3087,-0.6941,0.4933,-0.4238
126,3311233.0,2033.7072420000002,1.0,10.2,7.75,-3.42,-41.0,-8.0,-4.25,-81.12,69.75,35.5,-7.126117458071367,2.903604577395164,-0.9908696425799716,-83.44139093704848,61.19448635278197,-50.88435563772038,-0.3369,-0.6655,0.509,-0.4296
127,3311233.0,2033.7072420000002,1.0,10.2,7.75,-3.42,-41.0,-8.0,-4.25,-81.12,69.75,35.5,-7.126117458071367,2.903604577395164,-0.9908696425799716,-83.44139093704848,61.19448635278197,-50.88435563772038,-0.3369,-0.6655,0.509,-0.4296
128,3311267.0,2033.7113550000001,1.0,11.92,5.24,-4.27,-41.0,-8.0,-4.25,-45.63,62.19,31.31,-4.9214430687662665,1.6613076446766015,-2.873900265293365,-81.08320374700905,61.94144435552603,-51.736087563875465,-0.3497,-0.65,0.5146,-0.4363
129,3311267.0,2033.7113550000001,1.0,11.92,5.24,-4.27,-41.0,-8.0,-4.25,-45.63,62.19,31.31,-4.9214430687662665,1.6613076446766015,-2.873900265293365,-81.08320374700905,61.94144435552603,-51.736087563875465,-0.3497,-0.65,0.5146,-0.4363
130,3311302.0,2033.751618,1.0,12.96,4.98,-5.27,-39.88,-4.69,-4.38,-54.13,49.25,11.44,-4.872714365045809,0.4072037158836168,-4.215680043557201,-78.57321863854627,62.61084822614068,-52.23328523623708,-0.3679,-0.6332,0.5196,-0.4402
131,3311302.0,2033.751618,1.0,12.96,4.98,-5.27,-39.88,-4.69,-4.38,-54.13,49.25,11.44,-4.872714365045809,0.4072037158836168,-4.215680043557201,-78.57321863854627,62.61084822614068,-52.23328523623708,-0.3679,-0.6332,0.5196,-0.4402
132,3311337.0,2033.767918,1.0,11.71,3.45,-3.9,-41.06,-2.0,-4.88,-13.38,25.19,-3.44,-3.2276290795729743,0.7473545282312668,-2.5731913452607347,-77.77599278422385,62.59743692135864,-52.47589269472505,-0.3749,-0.6278,0.5195,-0.4421
133,3311337.0,2033.767918,1.0,11.71,3.45,-3.9,-41.06,-2.0,-4.88,-13.38,25.19,-3.44,-3.2276290795729743,0.7473545282312668,-2.5731913452607347,-77.77599278422385,62.59743692135864,-52.47589269472505,-0.3749,-0.6278,0.5195,-0.4421
134,3311374.0,2033.770924,1.0,10.02,3.18,-3.4,-41.06,0.37,-4.69,5.81,19.81,3.63,-2.9904861645017875,0.4503061834668936,-0.82006241923178,-77.23232058732376,62.30262894881712,-52.846677531793524,-0.3807,-0.6241,0.5173,-0.445
135,3311374.0,2033.770924,1.0,10.02,3.18,-3.4,-41.06,0.37,-4.69,5.81,19.81,3.63,-2.9904861645017875,0.4503061834668936,-0.82006241923178,-77.23232058732376,62.30262894881712,-52.846677531793524,-0.3807,-0.6241,0.5173,-0.445
136,3311409.0,2033.8095879999998,1.0,8.68,0.04,-3.12,-41.06,0.37,-4.69,26.69,21.06,14.19,-0.09122756878459937,-0.3547692205318502,0.590131333450417,-76.8953989710222,61.7944910115485,-54.15560663572669,-0.3774,-0.6218,0.5135,-0.4552
137,3311409.0,2033.8095879999998,1.0,8.68,0.04,-3.12,-41.06,0.37,-4.69,26.69,21.06,14.19,-0.09122756878459937,-0.3547692205318502,0.590131333450417,-76.8953989710222,61.7944910115485,-54.15560663572669,-0.3774,-0.6218,0.5135,-0.4552
138,3311446.0,2033.817614,1.0,18.05,1.77,-1.93,-42.19,1.0,-4.88,29.81,62.56,-2.94,-1.093278322589045,3.5011975462844034,-8.059705483177003,-76.48629178886966,60.9683017245208,-55.22637549729378,-0.3804,-0.619,0.5073,-0.4635
139,3311446.0,2033.817614,1.0,18.05,1.77,-1.93,-42.19,1.0,-4.88,29.81,62.56,-2.94,-1.093278322589045,3.5011975462844034,-8.059705483177003,-76.48629178886966,60.9683017245208,-55.22637549729378,-0.3804,-0.619,0.5073,-0.4635
140,3311480.0,2033.883125,1.0,8.37,0.86,-2.52,-42.88,-0.75,-6.19,-29.87,-31.69,-30.75,-0.7555636603063589,0.2653145836912645,1.0599002192582905,-77.76127164487418,60.75566190693615,-54.50336228612648,-0.3749,-0.6277,0.5057,-0.4579
141,3311480.0,2033.883125,1.0,8.37,0.86,-2.52,-42.88,-0.75,-6.19,-29.87,-31.69,-30.75,-0.7555636603063589,0.2653145836912645,1.0599002192582905,-77.76127164487418,60.75566190693615,-54.50336228612648,-0.3749,-0.6277,0.5057,-0.4579
142,3311515.0,2033.940526,1.0,9.58,-1.75,-2.97,-42.88,-0.75,-6.19,48.69,-48.0,-8.5,1.9017351916959584,-0.11207046981010073,-0.1948820561632818,-79.04779472022426,60.941709061307236,-53.42321798982236,-0.3685,-0.6364,0.5071,-0.4495
143,3311515.0,2033.940526,1.0,9.58,-1.75,-2.97,-42.88,-0.75,-6.19,48.69,-48.0,-8.5,1.9017351916959584,-0.11207046981010073,-0.1948820561632818,-79.04779472022426,60.941709061307236,-53.42321798982236,-0.3685,-0.6364,0.5071,-0.4495
144,3311548.0,2033.988871,1.0,9.13,-0.48,-4.64,-42.06,-3.75,-5.88,-11.88,-88.37,-6.75,0.3830760018097845,-1.0050595130333022,-0.3894280769911092,-80.96262485016383,61.99490997256027,-51.48152030899618,-0.3532,-0.6492,0.515,-0.4343
145,3311548.0,2033.988871,1.0,9.13,-0.48,-4.64,-42.06,-3.75,-5.88,-11.88,-88.37,-6.75,0.3830760018097845,-1.0050595130333022,-0.3894280769911092,-80.96262485016383,61.99490997256027,-51.48152030899618,-0.3532,-0.6492,0.515,-0.4343
146,3311585.0,2034.051554,1.0,12.1,-0.29,-4.51,-42.88,-2.88,-3.5,29.81,-102.31,16.25,0.5184358138773768,1.1012856443535974,-3.0522999663242287,-82.93574780842137,63.713859708187826,-49.27805128980349,-0.3304,-0.6622,0.5278,-0.4169
147,3311585.0,2034.051554,1.0,12.1,-0.29,-4.51,-42.88,-2.88,-3.5,29.81,-102.31,16.25,0.5184358138773768,1.1012856443535974,-3.0522999663242287,-82.93574780842137,63.713859708187826,-49.27805128980349,-0.3304,-0.6622,0.5278,-0.4169
148,3311622.0,2034.1277300000002,1.0,15.6,0.55,-6.81,-42.88,-2.88,-3.5,-25.19,-86.5,-0.37,-0.11875227409831846,1.6735743408870565,-7.141023787954528,-84.67554928720209,65.02722926644273,-46.569371208551814,-0.3184,-0.6735,0.5375,-0.3953
149,3311622.0,2034.1277300000002,1.0,15.6,0.55,-6.81,-42.88,-2.88,-3.5,-25.19,-86.5,-0.37,-0.11875227409831846,1.6735743408870565,-7.141023787954528,-84.67554928720209,65.02722926644273,-46.569371208551814,-0.3184,-0.6735,0.5375,-0.3953
150,3311656.0,2034.2115199999998,1.0,13.7,3.84,-5.37,-41.25,-3.88,0.75,-29.75,-108.44,-80.06,-2.5204801449002603,3.341616199541197,-4.813653725098439,-87.10200448418625,65.20397390849297,-42.87671358451489,-0.3185,-0.6890000000000001,0.5388,-0.3655
151,3311656.0,2034.2115199999998,1.0,13.7,3.84,-5.37,-41.25,-3.88,0.75,-29.75,-108.44,-80.06,-2.5204801449002603,3.341616199541197,-4.813653725098439,-87.10200448418625,65.20397390849297,-42.87671358451489,-0.3185,-0.6890000000000001,0.5388,-0.3655
152,3311693.0,2034.222142,1.0,15.14,4.89,-6.56,-40.19,-4.69,0.75,5.5,-140.38,-71.12,-2.5173053777101875,4.596312619619334,-6.58549397014861,-91.46684165640444,64.71495187215974,-38.50113546048416,-0.3035,-0.7161,0.5352,-0.3297
153,3311693.0,2034.222142,1.0,15.14,4.89,-6.56,-40.19,-4.69,0.75,5.5,-140.38,-71.12,-2.5173053777101875,4.596312619619334,-6.58549397014861,-91.46684165640444,64.71495187215974,-38.50113546048416,-0.3035,-0.7161,0.5352,-0.3297
154,3311728.0,2034.226686,1.0,11.75,3.6,-3.29,-38.69,-5.75,1.25,42.13,-167.63,-83.0,-0.8417144220700119,5.841058894160744,-1.4636715493891312,-95.78703781823206,63.99739696031453,-34.675036035061034,-0.2828,-0.7419,0.5299,-0.298
155,3311728.0,2034.226686,1.0,11.75,3.6,-3.29,-38.69,-5.75,1.25,42.13,-167.63,-83.0,-0.8417144220700119,5.841058894160744,-1.4636715493891312,-95.78703781823206,63.99739696031453,-34.675036035061034,-0.2828,-0.7419,0.5299,-0.298
156,3311763.0,2034.2298920000003,1.0,9.86,4.19,-3.26,-38.69,-5.75,1.25,0.37,-107.69,-131.63,-0.9466502808846188,5.640787902450905,0.17915473460180742,-101.57380680599563,61.460924442401364,-30.128257166842047,-0.2662,-0.7748,0.511,-0.2599
157,3311763.0,2034.2298920000003,1.0,9.86,4.19,-3.26,-38.69,-5.75,1.25,0.37,-107.69,-131.63,-0.9466502808846188,5.640787902450905,0.17915473460180742,-101.57380680599563,61.460924442401364,-30.128257166842047,-0.2662,-0.7748,0.511,-0.2599
158,3311798.0,2034.271879,1.0,1.97,5.52,-1.12,-36.06,-10.38,5.0,44.25,-120.44,-132.81,-4.296705403207299,2.762772369788297,6.7226410002103485,-106.56632775318519,58.66801815565057,-26.558820285317804,-0.2546,-0.8016,0.4899,-0.2297
159,3311798.0,2034.271879,1.0,1.97,5.52,-1.12,-36.06,-10.38,5.0,44.25,-120.44,-132.81,-4.296705403207299,2.762772369788297,6.7226410002103485,-106.56632775318519,58.66801815565057,-26.558820285317804,-0.2546,-0.8016,0.4899,-0.2297
160,3311835.0,2034.2887879999998,1.0,4.77,-0.82,-4.47,-36.56,-16.25,6.56,169.31,-98.81,-76.31,2.231631717401616,0.380161975454413,3.6194457242139055,-113.25250462483365,54.800027778247525,-25.17143953683573,-0.2083,-0.8351,0.4602,-0.2179
161,3311835.0,2034.2887879999998,1.0,4.77,-0.82,-4.47,-36.56,-16.25,6.56,169.31,-98.81,-76.31,2.231631717401616,0.380161975454413,3.6194457242139055,-113.25250462483365,54.800027778247525,-25.17143953683573,-0.2083,-0.8351,0.4602,-0.2179
162,3311872.0,2034.2917079999997,1.0,3.86,-1.16,-1.71,-36.56,-16.25,6.56,144.13,-103.56,-72.75,2.6099597296710098,1.2082889424982095,6.505521701837053,-117.85169099664296,52.42479644291255,-24.174386077512,-0.1655,-0.8565,0.4417,-0.2094
163,3311872.0,2034.2917079999997,1.0,3.86,-1.16,-1.71,-36.56,-16.25,6.56,144.13,-103.56,-72.75,2.6099597296710098,1.2082889424982095,6.505521701837053,-117.85169099664296,52.42479644291255,-24.174386077512,-0.1655,-0.8565,0.4417,-0.2094
164,3311904.0,2034.3293350000001,1.0,1.0,-2.46,-2.47,-34.88,-19.69,11.0,53.88,28.0,-106.87,1.867022584058672,-1.9104405354816163,7.35370409130091,-122.63671936413529,48.27150646713053,-24.06892577380089,-0.1402,-0.8773,0.4089,-0.2085
165,3311904.0,2034.3293350000001,1.0,1.0,-2.46,-2.47,-34.88,-19.69,11.0,53.88,28.0,-106.87,1.867022584058672,-1.9104405354816163,7.35370409130091,-122.63671936413529,48.27150646713053,-24.06892577380089,-0.1402,-0.8773,0.4089,-0.2085
166,3311941.0,2034.406075,1.0,4.63,-5.41,-5.23,-33.19,-21.06,14.06,92.44,105.12,-46.56,5.019618244962229,-3.050846406353585,3.2071296477560765,-123.84213593724544,44.679754048391246,-28.10371551481587,-0.1341,-0.8823,0.3801,-0.2428
167,3311941.0,2034.406075,1.0,4.63,-5.41,-5.23,-33.19,-21.06,14.06,92.44,105.12,-46.56,5.019618244962229,-3.050846406353585,3.2071296477560765,-123.84213593724544,44.679754048391246,-28.10371551481587,-0.1341,-0.8823,0.3801,-0.2428
168,3311978.0,2034.456616,1.0,5.7,-4.14,-6.79,-33.5,-22.25,12.75,4.75,12.5,-29.06,4.018046840844909,-2.4196867781343343,1.219792863625937,-123.74483108000663,43.69037629572606,-29.57087281914313,-0.1365,-0.8819,0.3721,-0.2552
169,3311978.0,2034.456616,1.0,5.7,-4.14,-6.79,-33.5,-22.25,12.75,4.75,12.5,-29.06,4.018046840844909,-2.4196867781343343,1.219792863625937,-123.74483108000663,43.69037629572606,-29.57087281914313,-0.1365,-0.8819,0.3721,-0.2552
170,3312011.0,2034.5936530000001,1.0,3.43,-4.06,-6.01,-33.5,-22.25,12.75,5.19,-26.37,-35.88,2.957166188835988,-3.389503829607802,3.16322980249034,-125.37071718924679,42.48302850521899,-28.54099280947513,-0.1358,-0.8885,0.3623,-0.2465
171,3312011.0,2034.5936530000001,1.0,3.43,-4.06,-6.01,-33.5,-22.25,12.75,5.19,-26.37,-35.88,2.957166188835988,-3.389503829607802,3.16322980249034,-125.37071718924679,42.48302850521899,-28.54099280947513,-0.1358,-0.8885,0.3623,-0.2465
172,3312048.0,2034.681773,1.0,-0.17,-2.88,-4.06,-34.38,-22.75,11.5,-35.81,-49.63,-64.56,0.6056747681233118,-3.8344518276040063,6.6862273912748496,-127.068261462492,41.31734313597096,-26.97108530932781,-0.1404,-0.8952,0.3528,-0.2332
173,3312048.0,2034.681773,1.0,-0.17,-2.88,-4.06,-34.38,-22.75,11.5,-35.81,-49.63,-64.56,0.6056747681233118,-3.8344518276040063,6.6862273912748496,-127.068261462492,41.31734313597096,-26.97108530932781,-0.1404,-0.8952,0.3528,-0.2332
174,3312084.0,2034.7767850000002,1.0,0.33,-3.1,-3.86,-33.25,-24.37,12.19,-50.5,60.94,-27.69,1.1732697361946274,-3.75729836279678,6.785946913125287,-127.76677999527551,39.77811923036006,-26.47640945025204,-0.1601,-0.8979,0.3402,-0.22899999999999998
175,3312084.0,2034.7767850000002,1.0,0.33,-3.1,-3.86,-33.25,-24.37,12.19,-50.5,60.94,-27.69,1.1732697361946274,-3.75729836279678,6.785946913125287,-127.76677999527551,39.77811923036006,-26.47640945025204,-0.1601,-0.8979,0.3402,-0.22899999999999998
176,3312121.0,2034.787761,1.0,-0.38,-1.18,-4.85,-33.25,-24.37,12.19,-126.44,128.44,-29.5,-0.8824625196114952,-3.486007344828636,6.3240772881558165,-125.37071718924679,39.41274892746301,-28.056467420340038,-0.1948,-0.8885,0.3372,-0.2424
177,3312121.0,2034.787761,1.0,-0.38,-1.18,-4.85,-33.25,-24.37,12.19,-126.44,128.44,-29.5,-0.8824625196114952,-3.486007344828636,6.3240772881558165,-125.37071718924679,39.41274892746301,-28.056467420340038,-0.1948,-0.8885,0.3372,-0.2424
178,3312156.0,2034.792012,1.0,2.63,-1.84,-6.24,-32.88,-26.87,10.5,-106.5,164.5,-44.5,0.9966688026494772,-3.9324956352325846,4.081073227595152,-121.1734385573545,37.555735630625364,-31.82869013670581,-0.2499,-0.8711,0.3219,-0.2742
179,3312156.0,2034.792012,1.0,2.63,-1.84,-6.24,-32.88,-26.87,10.5,-106.5,164.5,-44.5,0.9966688026494772,-3.9324956352325846,4.081073227595152,-121.1734385573545,37.555735630625364,-31.82869013670581,-0.2499,-0.8711,0.3219,-0.2742
180,3312191.0,2034.7959,1.0,2.63,-1.15,-5.77,-34.38,-28.19,3.0,-119.69,141.31,-9.94,0.5848950161972483,-3.831329877557708,4.6577560227111645,-115.98960027739392,36.685408046310336,-35.20361971980137,-0.3009,-0.848,0.3147,-0.3024
181,3312191.0,2034.7959,1.0,2.63,-1.15,-5.77,-34.38,-28.19,3.0,-119.69,141.31,-9.94,0.5848950161972483,-3.831329877557708,4.6577560227111645,-115.98960027739392,36.685408046310336,-35.20361971980137,-0.3009,-0.848,0.3147,-0.3024
182,3312228.0,2034.799046,1.0,6.24,6.43,-5.34,-35.88,-31.0,-6.06,-186.31,35.06,7.56,-2.4761438089602947,1.4721548689385155,-0.21829747513463185,-111.4817285033188,37.979621244835975,-35.095437786143385,-0.3464,-0.8265,0.3254,-0.3015
183,3312228.0,2034.799046,1.0,6.24,6.43,-5.34,-35.88,-31.0,-6.06,-186.31,35.06,7.56,-2.4761438089602947,1.4721548689385155,-0.21829747513463185,-111.4817285033188,37.979621244835975,-35.095437786143385,-0.3464,-0.8265,0.3254,-0.3015
184,3312263.0,2034.839825,1.0,4.22,0.99,-4.92,-35.88,-31.0,-6.06,-5.88,95.81,-12.25,0.4018688846361974,-2.219967437056738,3.649934481318876,-108.85892668852873,37.313754836919216,-36.830309031624424,-0.3692,-0.8134,0.3199,-0.3159
185,3312263.0,2034.839825,1.0,4.22,0.99,-4.92,-35.88,-31.0,-6.06,-5.88,95.81,-12.25,0.4018688846361974,-2.219967437056738,3.649934481318876,-108.85892668852873,37.313754836919216,-36.830309031624424,-0.3692,-0.8134,0.3199,-0.3159
186,3312297.0,2034.857202,1.0,9.82,9.22,1.65,-37.88,-30.5,-18.56,-187.94,204.56,49.56,-1.2985351880161873,7.909315603209463,-1.1441414350658279,-103.14587806891129,37.737335241131476,-39.86343282424955,-0.4067,-0.7834,0.3234,-0.3409
187,3312297.0,2034.857202,1.0,9.82,9.22,1.65,-37.88,-30.5,-18.56,-187.94,204.56,49.56,-1.2985351880161873,7.909315603209463,-1.1441414350658279,-103.14587806891129,37.737335241131476,-39.86343282424955,-0.4067,-0.7834,0.3234,-0.3409
188,3312334.0,2034.8962350000002,1.0,14.82,4.67,-8.74,-28.87,-25.06,-31.25,-33.25,178.56,-75.31,1.34929949082927,-4.885962450890251,-7.285326533231562,-95.83832110194956,34.255115225601216,-45.84678304356361,-0.4589,-0.7422,0.2945,-0.3895
189,3312334.0,2034.8962350000002,1.0,14.82,4.67,-8.74,-28.87,-25.06,-31.25,-33.25,178.56,-75.31,1.34929949082927,-4.885962450890251,-7.285326533231562,-95.83832110194956,34.255115225601216,-45.84678304356361,-0.4589,-0.7422,0.2945,-0.3895
190,3312371.0,2034.900773,1.0,6.74,2.08,3.77,-28.87,-25.06,-31.25,-54.56,-33.44,71.12,2.982155108908492,4.7664544724508415,4.1185428747372965,-94.98688318439542,34.42302630295278,-45.67265480727474,-0.4673,-0.7372,0.2959,-0.3881
191,3312371.0,2034.900773,1.0,6.74,2.08,3.77,-28.87,-25.06,-31.25,-54.56,-33.44,71.12,2.982155108908492,4.7664544724508415,4.1185428747372965,-94.98688318439542,34.42302630295278,-45.67265480727474,-0.4673,-0.7372,0.2959,-0.3881
192,3312406.0,2034.918522,1.0,20.14,12.13,-0.66,-16.37,-15.88,-35.56,-213.25,18.12,28.62,-1.3769954279989487,4.833028646058792,-13.170247477632726,-88.69365764034536,40.57120935574602,-45.598062543777615,-0.491,-0.6990000000000001,0.3467,-0.3875
193,3312406.0,2034.918522,1.0,20.14,12.13,-0.66,-16.37,-15.88,-35.56,-213.25,18.12,28.62,-1.3769954279989487,4.833028646058792,-13.170247477632726,-88.69365764034536,40.57120935574602,-45.598062543777615,-0.491,-0.6990000000000001,0.3467,-0.3875
194,3312441.0,2034.9216829999998,1.0,5.62,1.12,1.68,-18.0,-9.5,-34.5,-39.75,106.62,-113.37,2.171884188456493,2.0536605192260535,4.636872679485617,-86.10998511892349,37.41052638436744,-45.02686284001362,-0.5334,-0.6827,0.3207,-0.3829
195,3312441.0,2034.9216829999998,1.0,5.62,1.12,1.68,-18.0,-9.5,-34.5,-39.75,106.62,-113.37,2.171884188456493,2.0536605192260535,4.636872679485617,-86.10998511892349,37.41052638436744,-45.02686284001362,-0.5334,-0.6827,0.3207,-0.3829
196,3312478.0,2034.9634010000002,1.0,8.73,3.21,2.0,-20.06,-4.25,-36.19,-156.13,193.94,9.25,1.8213524406082011,2.0095082176681562,0.6873544126086841,-80.76691471699652,36.09435595913239,-47.35648075084825,-0.5684,-0.6479,0.3098,-0.4016
197,3312478.0,2034.9634010000002,1.0,8.73,3.21,2.0,-20.06,-4.25,-36.19,-156.13,193.94,9.25,1.8213524406082011,2.0095082176681562,0.6873544126086841,-80.76691471699652,36.09435595913239,-47.35648075084825,-0.5684,-0.6479,0.3098,-0.4016
198,3312513.0,2034.975026,1.0,10.43,6.38,4.55,-20.06,-4.25,-36.19,-231.0,127.37,-60.31,0.13429298089114572,3.0081708062013246,-2.8868394255284056,-72.38499549855874,34.843138613311,-47.331456908420954,-0.6329,-0.5905,0.2994,-0.4014
199,3312513.0,2034.975026,1.0,10.43,6.38,4.55,-20.06,-4.25,-36.19,-231.0,127.37,-60.31,0.13429298089114572,3.0081708062013246,-2.8868394255284056,-72.38499549855874,34.843138613311,-47.331456908420954,-0.6329,-0.5905,0.2994,-0.4014
200,3312549.0,2035.019127,1.0,8.18,4.79,9.29,-20.56,1.37,-41.06,-167.69,107.5,14.81,0.4991832402857544,7.064428191328585,-1.4185569211297722,-67.39388076848982,34.24312448272413,-46.98137369898728,-0.6683,-0.5548,0.2944,-0.3986
201,3312549.0,2035.019127,1.0,8.18,4.79,9.29,-20.56,1.37,-41.06,-167.69,107.5,14.81,0.4991832402857544,7.064428191328585,-1.4185569211297722,-67.39388076848982,34.24312448272413,-46.98137369898728,-0.6683,-0.5548,0.2944,-0.3986
202,3312586.0,2035.077877,1.0,12.37,6.64,5.66,-23.25,6.69,-45.19,-199.25,150.19,54.75,-0.06257039351341476,0.2919507590505934,-5.327845356639586,-57.998739571431635,34.30308206548676,-49.71968746801213,-0.7079,-0.4848,0.2949,-0.4204
203,3312586.0,2035.077877,1.0,12.37,6.64,5.66,-23.25,6.69,-45.19,-199.25,150.19,54.75,-0.06257039351341476,0.2919507590505934,-5.327845356639586,-57.998739571431635,34.30308206548676,-49.71968746801213,-0.7079,-0.4848,0.2949,-0.4204
204,3312621.0,2035.0849850000002,1.0,12.03,9.26,7.36,-23.25,6.69,-45.19,-185.94,70.37,45.56,-3.335833305750267,-0.07736496737061938,-6.731316344689146,-51.697885027971715,35.504295540348124,-50.28866780725309,-0.7324,-0.436,0.3049,-0.4249
205,3312621.0,2035.0849850000002,1.0,12.03,9.26,7.36,-23.25,6.69,-45.19,-185.94,70.37,45.56,-3.335833305750267,-0.07736496737061938,-6.731316344689146,-51.697885027971715,35.504295540348124,-50.28866780725309,-0.7324,-0.436,0.3049,-0.4249
206,3312656.0,2035.142302,1.0,11.26,8.1,4.27,-20.0,12.5,-49.19,-120.69,77.94,39.19,-2.9328288505206364,-3.6510188015661833,-3.930128248343534,-45.424093194951936,36.263125888125366,-51.26535237984769,-0.753,-0.3861,0.3112,-0.4326
207,3312656.0,2035.142302,1.0,11.26,8.1,4.27,-20.0,12.5,-49.19,-120.69,77.94,39.19,-2.9328288505206364,-3.6510188015661833,-3.930128248343534,-45.424093194951936,36.263125888125366,-51.26535237984769,-0.753,-0.3861,0.3112,-0.4326
208,3312693.0,2035.1516510000001,1.0,9.08,6.31,8.09,-15.56,20.06,-49.75,-84.56,47.5,21.62,-3.1392990821274287,0.13774759657841162,-3.528882493027448,-41.19490148271794,36.35960237870008,-51.697885027971715,-0.7673,-0.3518,0.312,-0.436
209,3312693.0,2035.1516510000001,1.0,9.08,6.31,8.09,-15.56,20.06,-49.75,-84.56,47.5,21.62,-3.1392990821274287,0.13774759657841162,-3.528882493027448,-41.19490148271794,36.35960237870008,-51.697885027971715,-0.7673,-0.3518,0.312,-0.436
210,3312728.0,2035.169484,1.0,10.94,-1.45,3.45,-11.25,26.75,-49.88,-41.13,142.19,-9.56,5.547372706880351,-2.2522794569819635,-0.08488644782326382,-38.44045190034536,33.67999263161277,-52.47589269472505,-0.7825,-0.3292,0.2897,-0.4421
211,3312728.0,2035.169484,1.0,10.94,-1.45,3.45,-11.25,26.75,-49.88,-41.13,142.19,-9.56,5.547372706880351,-2.2522794569819635,-0.08488644782326382,-38.44045190034536,33.67999263161277,-52.47589269472505,-0.7825,-0.3292,0.2897,-0.4421
212,3312762.0,2035.172689,1.0,9.42,2.15,6.31,-11.25,26.75,-49.88,-118.75,34.25,46.25,0.8416859673955992,-1.4566430082537365,-1.6102127861945874,-33.73986021591224,34.06330962524581,-53.19242764249977,-0.7935,-0.2902,0.2929,-0.4477
213,3312762.0,2035.172689,1.0,9.42,2.15,6.31,-11.25,26.75,-49.88,-118.75,34.25,46.25,0.8416859673955992,-1.4566430082537365,-1.6102127861945874,-33.73986021591224,34.06330962524581,-53.19242764249977,-0.7935,-0.2902,0.2929,-0.4477
214,3312799.0,2035.2130710000001,1.0,8.38,1.96,7.23,-7.38,32.38,-48.0,-86.0,32.19,48.5,-0.10517079644312456,-0.579506296459029,-1.4179663211015792,-30.4369103155404,35.37196719600466,-53.82124003233572,-0.7962,-0.2625,0.3038,-0.4526
215,3312799.0,2035.2130710000001,1.0,8.38,1.96,7.23,-7.38,32.38,-48.0,-86.0,32.19,48.5,-0.10517079644312456,-0.579506296459029,-1.4179663211015792,-30.4369103155404,35.37196719600466,-53.82124003233572,-0.7962,-0.2625,0.3038,-0.4526
216,3312836.0,2035.282003,1.0,10.34,4.36,5.12,-4.69,42.19,-45.69,-61.38,26.62,72.87,-1.4304414262433045,-4.814442711687772,-1.4589870748379583,-26.605918469153576,36.40785062374676,-55.265175443686026,-0.7964,-0.2301,0.3124,-0.4638
217,3312836.0,2035.282003,1.0,10.34,4.36,5.12,-4.69,42.19,-45.69,-61.38,26.62,72.87,-1.4304414262433045,-4.814442711687772,-1.4589870748379583,-26.605918469153576,36.40785062374676,-55.265175443686026,-0.7964,-0.2301,0.3124,-0.4638
218,3312871.0,2035.285178,1.0,10.34,3.52,4.58,-4.69,42.19,-45.69,-6.38,13.13,41.56,-0.7923247030501956,-4.987331326820918,-0.9069463990364692,-25.5003013557049,36.40785062374676,-56.75776958698043,-0.7924,-0.2207,0.3124,-0.4753
219,3312871.0,2035.285178,1.0,10.34,3.52,4.58,-4.69,42.19,-45.69,-6.38,13.13,41.56,-0.7923247030501956,-4.987331326820918,-0.9069463990364692,-25.5003013557049,36.40785062374676,-56.75776958698043,-0.7924,-0.2207,0.3124,-0.4753
220,3312906.0,2035.3308960000002,1.0,6.97,5.24,7.05,-0.37,51.88,-46.38,-2.25,-32.5,-14.31,-4.400087384798488,-2.060448758797749,-0.29952543477778626,-25.10099664997855,37.676791133557344,-56.39339939535494,-0.7906,-0.2173,0.3229,-0.4725
221,3312906.0,2035.3308960000002,1.0,6.97,5.24,7.05,-0.37,51.88,-46.38,-2.25,-32.5,-14.31,-4.400087384798488,-2.060448758797749,-0.29952543477778626,-25.10099664997855,37.676791133557344,-56.39339939535494,-0.7906,-0.2173,0.3229,-0.4725
222,3312941.0,2035.345995,1.0,6.72,-0.64,7.14,0.37,55.5,-47.06,35.81,-4.44,-21.87,0.8833881399119421,1.0017482213996345,0.07198380668933346,-26.41755310589251,37.229102364563495,-56.00369069764568,-0.7908,-0.2285,0.3192,-0.4695
223,3312941.0,2035.345995,1.0,6.72,-0.64,7.14,0.37,55.5,-47.06,35.81,-4.44,-21.87,0.8833881399119421,1.0017482213996345,0.07198380668933346,-26.41755310589251,37.229102364563495,-56.00369069764568,-0.7908,-0.2285,0.3192,-0.4695
224,3312977.0,2035.355895,1.0,6.87,0.37,6.9,0.06,51.38,-49.0,-2.94,-12.75,4.75,0.09873986466656104,0.3331562180354526,0.06893685093312207,-26.57059440264536,37.39842842920397,-55.92583364179144,-0.7903,-0.2298,0.3206,-0.4689
225,3312977.0,2035.355895,1.0,6.87,0.37,6.9,0.06,51.38,-49.0,-2.94,-12.75,4.75,0.09873986466656104,0.3331562180354526,0.06893685093312207,-26.57059440264536,37.39842842920397,-55.92583364179144,-0.7903,-0.2298,0.3206,-0.4689
226,3313012.0,2035.360211,1.0,6.56,0.53,6.67,0.06,51.38,-49.0,12.63,-10.88,-1.88,-0.08202512007278906,0.3720883016461491,0.4440530218397658,-27.053580833430228,37.56783922201158,-55.95178287128961,-0.7884,-0.2339,0.322,-0.4691
227,3313012.0,2035.360211,1.0,6.56,0.53,6.67,0.06,51.38,-49.0,12.63,-10.88,-1.88,-0.08202512007278906,0.3720883016461491,0.4440530218397658,-27.053580833430228,37.56783922201158,-55.95178287128961,-0.7884,-0.2339,0.322,-0.4691
228,3313049.0,2035.40719,1.0,6.53,-0.7,7.48,-1.25,49.38,-47.88,-6.81,1.56,0.81,0.8008135606279738,1.522380890753526,0.002449162370096403,-27.3719121623715,37.49522418973963,-56.00369069764568,-0.7875,-0.2366,0.3214,-0.4695
229,3313049.0,2035.40719,1.0,6.53,-0.7,7.48,-1.25,49.38,-47.88,-6.81,1.56,0.81,0.8008135606279738,1.522380890753526,0.002449162370096403,-27.3719121623715,37.49522418973963,-56.00369069764568,-0.7875,-0.2366,0.3214,-0.4695
230,3313084.0,2035.47137,1.0,7.13,0.44,6.25,-2.06,47.0,-46.5,5.31,2.94,8.56,0.3254794760778337,-0.20756603994016665,0.3227700213353764,-27.183245547895737,37.446822845384496,-56.250423997675526,-0.7871,-0.235,0.321,-0.4714
231,3313084.0,2035.47137,1.0,7.13,0.44,6.25,-2.06,47.0,-46.5,5.31,2.94,8.56,0.3254794760778337,-0.20756603994016665,0.3227700213353764,-27.183245547895737,37.446822845384496,-56.250423997675526,-0.7871,-0.235,0.321,-0.4714
232,3313119.0,2035.4864260000002,1.0,6.97,0.25,6.89,-2.06,47.0,-46.5,-9.06,2.88,6.81,0.21814982456299714,0.3955406549108129,0.013210448731211244,-27.065367073658553,37.604152605861614,-56.39339939535494,-0.7862,-0.23399999999999999,0.3223,-0.4725
233,3313119.0,2035.4864260000002,1.0,6.97,0.25,6.89,-2.06,47.0,-46.5,-9.06,2.88,6.81,0.21814982456299714,0.3955406549108129,0.013210448731211244,-27.065367073658553,37.604152605861614,-56.39339939535494,-0.7862,-0.23399999999999999,0.3223,-0.4725
234,3313152.0,2035.5942129999999,1.0,7.31,0.98,6.45,-3.0,47.25,-46.5,-4.25,0.44,2.06,-0.22016444359512044,-0.4513487312523013,0.021620008192442697,-26.85325924989716,37.676791133557344,-56.47142628686849,-0.7861,-0.2322,0.3229,-0.4731
235,3313152.0,2035.5942129999999,1.0,7.31,0.98,6.45,-3.0,47.25,-46.5,-4.25,0.44,2.06,-0.22016444359512044,-0.4513487312523013,0.021620008192442697,-26.85325924989716,37.676791133557344,-56.47142628686849,-0.7861,-0.2322,0.3229,-0.4731
236,3313188.0,2035.645246,1.0,6.7,-0.1,7.0,-1.5,46.5,-46.75,2.5,-5.06,-5.13,0.4118533334390668,0.7960437989230198,0.15798734127203673,-27.14787893324093,37.604152605861614,-56.39339939535494,-0.7859999999999999,-0.2347,0.3223,-0.4725
237,3313188.0,2035.645246,1.0,6.7,-0.1,7.0,-1.5,46.5,-46.75,2.5,-5.06,-5.13,0.4118533334390668,0.7960437989230198,0.15798734127203673,-27.14787893324093,37.604152605861614,-56.39339939535494,-0.7859999999999999,-0.2347,0.3223,-0.4725
238,3313225.0,2035.6645059999998,1.0,7.09,0.33,6.58,-1.5,46.5,-46.75,-4.75,4.69,-1.63,0.2828116429843501,0.07657245139717328,0.13258393477801533,-27.018223861950197,37.59204770944774,-56.27641242483391,-0.7869,-0.2336,0.3222,-0.4716
239,3313225.0,2035.6645059999998,1.0,7.09,0.33,6.58,-1.5,46.5,-46.75,-4.75,4.69,-1.63,0.2828116429843501,0.07657245139717328,0.13258393477801533,-27.018223861950197,37.59204770944774,-56.27641242483391,-0.7869,-0.2336,0.3222,-0.4716
240,3313258.0,2035.7102260000001,1.0,7.49,0.47,6.68,-1.5,46.5,-44.88,3.31,6.0,1.81,0.2809404982886765,-0.17756308908399232,-0.23491082418546586,-26.982869511205863,37.446822845384496,-56.38039768350901,-0.787,-0.2333,0.321,-0.4724
241,3313258.0,2035.7102260000001,1.0,7.49,0.47,6.68,-1.5,46.5,-44.88,3.31,6.0,1.81,0.2809404982886765,-0.17756308908399232,-0.23491082418546586,-26.982869511205863,37.446822845384496,-56.38039768350901,-0.787,-0.2333,0.321,-0.4724
242,3313295.0,2035.767915,1.0,7.45,0.54,6.14,-1.75,46.5,-45.69,6.69,-8.06,-1.25,0.3793346896256435,-0.5365891764193926,0.1597915865580255,-27.14787893324093,37.33794513405029,-56.445414155152676,-0.7867,-0.2347,0.3201,-0.4729
243,3313295.0,2035.767915,1.0,7.45,0.54,6.14,-1.75,46.5,-45.69,6.69,-8.06,-1.25,0.3793346896256435,-0.5365891764193926,0.1597915865580255,-27.14787893324093,37.33794513405029,-56.445414155152676,-0.7867,-0.2347,0.3201,-0.4729
244,3313330.0,2035.9252969999998,1.0,6.76,0.78,7.14,-2.19,45.75,-44.56,8.06,-1.37,-0.75,-0.34172679168658315,0.4823592424027106,-0.0389658954690244,-27.43088596976693,37.362137156703376,-56.445414155152676,-0.7859,-0.2371,0.3203,-0.4729
245,3313330.0,2035.9252969999998,1.0,6.76,0.78,7.14,-2.19,45.75,-44.56,8.06,-1.37,-0.75,-0.34172679168658315,0.4823592424027106,-0.0389658954690244,-27.43088596976693,37.362137156703376,-56.445414155152676,-0.7859,-0.2371,0.3203,-0.4729
246,3313362.0,2035.9384920000002,1.0,7.13,0.47,6.55,-2.19,45.75,-44.56,8.56,2.44,-1.63,0.2738785306612914,0.008147347279558348,0.11721120452917333,-27.666855466190324,37.10820677500307,-56.5494817192817,-0.7856,-0.2391,0.3182,-0.4737
247,3313362.0,2035.9384920000002,1.0,7.13,0.47,6.55,-2.19,45.75,-44.56,8.56,2.44,-1.63,0.2738785306612914,0.008147347279558348,0.11721120452917333,-27.666855466190324,37.10820677500307,-56.5494817192817,-0.7856,-0.2391,0.3182,-0.4737
248,3313399.0,2035.9427219999998,1.0,7.23,0.44,6.26,-1.75,45.0,-45.69,1.25,-0.63,0.25,0.4283360457223202,-0.22418034012587015,0.2452499243292809,-27.796689641349,37.04777503969204,-56.60153456365382,-0.7853,-0.2402,0.3177,-0.4741
249,3313399.0,2035.9427219999998,1.0,7.23,0.44,6.26,-1.75,45.0,-45.69,1.25,-0.63,0.25,0.4283360457223202,-0.22418034012587015,0.2452499243292809,-27.796689641349,37.04777503969204,-56.60153456365382,-0.7853,-0.2402,0.3177,-0.4741
250,3313436.0,2036.032167,1.0,6.49,0.27,7.07,-2.56,44.25,-45.69,6.0,0.63,-0.25,0.11706503669077528,0.8733204861322348,0.24623645739179525,-28.056467420340038,37.05986053192884,-56.640582553149535,-0.7844,-0.2424,0.3178,-0.4744
251,3313436.0,2036.032167,1.0,6.49,0.27,7.07,-2.56,44.25,-45.69,6.0,0.63,-0.25,0.11706503669077528,0.8733204861322348,0.24623645739179525,-28.056467420340038,37.05986053192884,-56.640582553149535,-0.7844,-0.2424,0.3178,-0.4744
252,3313471.0,2036.039062,1.0,6.94,0.11,6.64,-2.56,44.25,-45.69,0.0,11.0,5.19,0.5446161015590849,0.33523827425168795,0.2224803123640715,-27.87933033417513,36.842386864351504,-56.78381993878929,-0.7849,-0.2409,0.316,-0.4755
253,3313471.0,2036.039062,1.0,6.94,0.11,6.64,-2.56,44.25,-45.69,0.0,11.0,5.19,0.5446161015590849,0.33523827425168795,0.2224803123640715,-27.87933033417513,36.842386864351504,-56.78381993878929,-0.7849,-0.2409,0.316,-0.4755
254,3313504.0,2036.04898,1.0,7.28,0.76,6.22,-2.56,44.25,-45.69,-8.38,2.38,5.81,0.15242153766679722,-0.4771092677772868,0.2142814488309828,-27.560654449020664,36.890702437106015,-56.966262181573775,-0.7847,-0.2382,0.3164,-0.4769
255,3313504.0,2036.04898,1.0,7.28,0.76,6.22,-2.56,44.25,-45.69,-8.38,2.38,5.81,0.15242153766679722,-0.4771092677772868,0.2142814488309828,-27.560654449020664,36.890702437106015,-56.966262181573775,-0.7847,-0.2382,0.3164,-0.4769
256,3313539.0,2036.05228,1.0,6.98,0.31,6.97,-2.56,44.25,-45.69,3.63,-2.69,1.19,0.2605222664360888,0.4234181782513464,-0.04983239459784805,-27.725866499273085,36.87862290728264,-57.03145830719132,-0.784,-0.2396,0.3163,-0.4774
257,3313539.0,2036.05228,1.0,6.98,0.31,6.97,-2.56,44.25,-45.69,3.63,-2.69,1.19,0.2605222664360888,0.4234181782513464,-0.04983239459784805,-27.725866499273085,36.87862290728264,-57.03145830719132,-0.784,-0.2396,0.3163,-0.4774
258,3313575.0,2036.09956,1.0,6.85,0.84,6.87,-1.75,43.5,-45.69,1.75,4.63,-1.44,-0.21793916453362328,0.1879448357818372,0.07309056579170026,-27.690458980540107,36.74577605968171,-57.04449995014843,-0.7845,-0.2393,0.3152,-0.4775
259,3313575.0,2036.09956,1.0,6.85,0.84,6.87,-1.75,43.5,-45.69,1.75,4.63,-1.44,-0.21793916453362328,0.1879448357818372,0.07309056579170026,-27.690458980540107,36.74577605968171,-57.04449995014843,-0.7845,-0.2393,0.3152,-0.4775
260,3313610.0,2036.118379,1.0,7.06,0.1,6.63,-1.75,43.5,-45.69,-1.0,5.81,-4.44,0.6170279596925567,0.1973402051330415,0.14275671931877731,-27.702261187008638,36.51643362197993,-57.07058565644391,-0.7851,-0.2394,0.3133,-0.4777
261,3313610.0,2036.118379,1.0,7.06,0.1,6.63,-1.75,43.5,-45.69,-1.0,5.81,-4.44,0.6170279596925567,0.1973402051330415,0.14275671931877731,-27.702261187008638,36.51643362197993,-57.07058565644391,-0.7851,-0.2394,0.3133,-0.4777
262,3313647.0,2036.121383,1.0,6.62,0.27,7.0,-1.75,43.88,-45.38,-1.12,3.31,-1.06,0.2223477420377292,0.6273360950574778,0.19133352546579907,-27.631452438914533,36.46817032738551,-56.953225372056934,-0.7859999999999999,-0.2388,0.3129,-0.4768
263,3313647.0,2036.121383,1.0,6.62,0.27,7.0,-1.75,43.88,-45.38,-1.12,3.31,-1.06,0.2223477420377292,0.6273360950574778,0.19133352546579907,-27.631452438914533,36.46817032738551,-56.953225372056934,-0.7859999999999999,-0.2388,0.3129,-0.4768
264,3313682.0,2036.1600030000002,1.0,7.16,0.74,6.67,-3.0,43.88,-44.56,-4.25,1.81,-0.94,0.06949941787473635,-0.14682915752297387,-0.00536870307105275,-27.466273808985672,36.44404119171296,-56.940189367000634,-0.7865,-0.2374,0.3127,-0.4767
265,3313682.0,2036.1600030000002,1.0,7.16,0.74,6.67,-3.0,43.88,-44.56,-4.25,1.81,-0.94,0.06949941787473635,-0.14682915752297387,-0.00536870307105275,-27.466273808985672,36.44404119171296,-56.940189367000634,-0.7865,-0.2374,0.3127,-0.4767
266,3313717.0,2036.1705969999998,1.0,6.61,0.87,7.15,-3.0,43.88,-44.56,-4.56,4.31,-2.06,-0.3727852757362991,0.4387133674787456,0.047548518849716,-27.36011828826252,36.46817032738551,-56.84895982984303,-0.7871,-0.2365,0.3129,-0.47600000000000003
267,3313717.0,2036.1705969999998,1.0,6.61,0.87,7.15,-3.0,43.88,-44.56,-4.56,4.31,-2.06,-0.3727852757362991,0.4387133674787456,0.047548518849716,-27.36011828826252,36.46817032738551,-56.84895982984303,-0.7871,-0.2365,0.3129,-0.47600000000000003
268,3313752.0,2036.1852170000002,1.0,7.26,0.65,6.23,-1.75,43.88,-45.69,-3.44,3.56,3.19,0.3040380050132958,-0.504581226955567,0.23607223912727626,-27.242195772473625,36.33548075823788,-56.953225372056934,-0.7874,-0.2355,0.3118,-0.4768
269,3313752.0,2036.1852170000002,1.0,7.26,0.65,6.23,-1.75,43.88,-45.69,-3.44,3.56,3.19,0.3040380050132958,-0.504581226955567,0.23607223912727626,-27.242195772473625,36.33548075823788,-56.953225372056934,-0.7874,-0.2355,0.3118,-0.4768
270,3313786.0,2036.2309710000002,1.0,6.53,0.71,7.27,-2.19,45.0,-44.19,7.25,2.88,-1.75,-0.2734499908429913,0.6123418350013249,0.031775955818398316,-27.301153346475182,36.311360803930285,-56.91411976899951,-0.7875,-0.23600000000000002,0.3116,-0.4765
271,3313786.0,2036.2309710000002,1.0,6.53,0.71,7.27,-2.19,45.0,-44.19,7.25,2.88,-1.75,-0.2734499908429913,0.6123418350013249,0.031775955818398316,-27.301153346475182,36.311360803930285,-56.91411976899951,-0.7875,-0.23600000000000002,0.3116,-0.4765
272,3313823.0,2036.2354489999998,1.0,7.03,0.74,6.74,-2.19,45.0,-44.19,1.19,12.44,-1.31,0.05406051921203714,-0.09205001586780193,0.0401406821914474,-27.265777919115557,36.01000138130928,-56.99233821526014,-0.7883,-0.2357,0.3091,-0.4771
273,3313823.0,2036.2354489999998,1.0,7.03,0.74,6.74,-2.19,45.0,-44.19,1.19,12.44,-1.31,0.05406051921203714,-0.09205001586780193,0.0401406821914474,-27.265777919115557,36.01000138130928,-56.99233821526014,-0.7883,-0.2357,0.3091,-0.4771
274,3313856.0,2036.255197,1.0,6.83,0.01,6.88,0.0,43.19,-44.88,-3.94,2.19,-0.69,0.6384853257348623,0.4144489504466653,0.1420771405149548,-27.265777919115557,35.745018073663594,-57.01841747060314,-0.7889,-0.2357,0.3069,-0.4773
275,3313856.0,2036.255197,1.0,6.83,0.01,6.88,0.0,43.19,-44.88,-3.94,2.19,-0.69,0.6384853257348623,0.4144489504466653,0.1420771405149548,-27.265777919115557,35.745018073663594,-57.01841747060314,-0.7889,-0.2357,0.3069,-0.4773
276,3313891.0,2036.3045559999998,1.0,6.76,0.74,6.88,-2.56,44.69,-44.56,-3.19,2.63,1.37,-0.06249800834890884,0.116508335942749,0.1338985917083395,-27.065367073658553,35.793182116680164,-57.03145830719132,-0.7892,-0.23399999999999999,0.3073,-0.4774
277,3313891.0,2036.3045559999998,1.0,6.76,0.74,6.88,-2.56,44.69,-44.56,-3.19,2.63,1.37,-0.06249800834890884,0.116508335942749,0.1338985917083395,-27.065367073658553,35.793182116680164,-57.03145830719132,-0.7892,-0.23399999999999999,0.3073,-0.4774
278,3313928.0,2036.319825,1.0,6.87,0.19,6.98,-1.75,43.88,-45.38,1.75,1.88,0.5,0.4677997572511897,0.3430018466261684,0.02825989117703465,-27.112514953816074,35.624636497255686,-57.109720271622784,-0.7893,-0.2344,0.3059,-0.478
279,3313928.0,2036.319825,1.0,6.87,0.19,6.98,-1.75,43.88,-45.38,1.75,1.88,0.5,0.4677997572511897,0.3430018466261684,0.02825989117703465,-27.112514953816074,35.624636497255686,-57.109720271622784,-0.7893,-0.2344,0.3059,-0.478
280,3313963.0,2036.365674,1.0,6.98,0.77,6.52,-1.75,43.88,-45.38,-7.38,1.56,0.81,0.08478710244917997,-0.3035150473189505,0.2293649064409013,-26.888604025029306,35.696860557625506,-57.05754239979307,-0.7899,-0.2325,0.3065,-0.4776
281,3313963.0,2036.365674,1.0,6.98,0.77,6.52,-1.75,43.88,-45.38,-7.38,1.56,0.81,0.08478710244917997,-0.3035150473189505,0.2293649064409013,-26.888604025029306,35.696860557625506,-57.05754239979307,-0.7899,-0.2325,0.3065,-0.4776
282,3313999.0,2036.384084,1.0,6.94,0.36,6.83,-1.75,44.25,-44.19,8.94,2.0,-1.31,0.3850887836690435,0.11601728449035532,0.07113015674602785,-27.077153605664893,35.56446095223015,-57.12276675948825,-0.7896,-0.2341,0.3054,-0.4781
283,3313999.0,2036.384084,1.0,6.94,0.36,6.83,-1.75,44.25,-44.19,8.94,2.0,-1.31,0.3850887836690435,0.11601728449035532,0.07113015674602785,-27.077153605664893,35.56446095223015,-57.12276675948825,-0.7896,-0.2341,0.3054,-0.4781
284,3314034.0,2036.387466,1.0,6.61,0.58,7.09,-2.19,44.25,-45.38,-1.0,-1.12,-2.19,0.014707398389036562,0.39534934204409344,0.1040687666282345,-27.112514953816074,35.504295540348124,-57.09667459203971,-0.7897,-0.2344,0.3049,-0.4779
285,3314034.0,2036.387466,1.0,6.61,0.58,7.09,-2.19,44.25,-45.38,-1.0,-1.12,-2.19,0.014707398389036562,0.39534934204409344,0.1040687666282345,-27.112514953816074,35.504295540348124,-57.09667459203971,-0.7897,-0.2344,0.3049,-0.4779
286,3314069.0,2036.43198,1.0,6.67,0.59,7.02,-2.19,44.25,-45.38,-6.06,0.56,0.19,0.0276354318841856,0.2872619652716097,0.10953100278165627,-26.94751777725,35.540393572715686,-57.12276675948825,-0.7899,-0.233,0.3052,-0.4781
287,3314069.0,2036.43198,1.0,6.67,0.59,7.02,-2.19,44.25,-45.38,-6.06,0.56,0.19,0.0276354318841856,0.2872619652716097,0.10953100278165627,-26.94751777725,35.540393572715686,-57.12276675948825,-0.7899,-0.233,0.3052,-0.4781
