acc_x,acc_y,acc_z,lin_x,lin_y,lin_z,eul_x,eul_y,eul_z
-2.87,1.95,-9.04,-0.1236260729676949,-0.2754664072815229,0.12833223023536,-154.63414056108863,14.072813487232237,17.729205890532434
-2.87,1.95,-9.04,-0.1236260729676949,-0.2754664072815229,0.12833223023536,-154.63414056108863,14.072813487232237,17.729205890532434
-2.84,2.15,-9.04,-0.1471110150513823,-0.0924949797157492,0.0917386248006408,-154.68638599830706,14.038175786909196,17.659623057349798
-2.84,2.15,-9.04,-0.1471110150513823,-0.0924949797157492,0.0917386248006408,-154.68638599830706,14.038175786909196,17.659623057349798
-2.66,2.24,-9.17,0.0286809586380822,0.0157204061591877,-0.000542782414433,-154.73873772257048,14.061267443693245,17.578451378167774
-2.66,2.24,-9.17,0.0286809586380822,0.0157204061591877,-0.000542782414433,-154.73873772257048,14.061267443693245,17.578451378167774
-2.75,2.05,-9.08,-0.0490963586688616,-0.1673452244500619,0.1019611784344594,-154.73873772257048,14.095906005217,17.555261104447528
-2.75,2.05,-9.08,-0.0490963586688616,-0.1673452244500619,0.1019611784344594,-154.73873772257048,14.095906005217,17.555261104447528
-2.63,2.22,-9.13,0.0363906286701228,0.0080010930699543,0.0495596701601321,-154.79119639620873,14.049721543626418,17.508882729880764
-2.63,2.22,-9.13,0.0363906286701228,0.0080010930699543,0.0495596701601321,-154.79119639620873,14.049721543626418,17.508882729880764
-2.63,2.08,-9.25,0.101847930457356,-0.1311724421897839,-0.0309422252079283,-154.79119639620873,14.095906005217,17.508882729880764
-2.63,2.08,-9.25,0.101847930457356,-0.1311724421897839,-0.0309422252079283,-154.79119639620873,14.095906005217,17.508882729880764
-2.73,2.4,-9.18,-0.0764720552776975,0.1454105231184903,-0.0654474369445914,-154.73873772257048,14.095906005217,17.520477052231193
-2.73,2.4,-9.18,-0.0764720552776975,0.1454105231184903,-0.0654474369445914,-154.73873772257048,14.095906005217,17.520477052231193
-2.71,2.17,-9.07,-0.058762232569345,-0.0520910185153111,0.0952271626494649,-154.84376268843482,14.08435967436596,17.439320584956548
-2.71,2.17,-9.07,-0.058762232569345,-0.0520910185153111,0.0952271626494649,-154.84376268843482,14.08435967436596,17.439320584956548
-2.72,2.01,-9.09,-0.0332084020204691,-0.2038002744908796,0.1100545845898715,-154.84376268843482,14.118999098561428,17.416134643761747
-2.72,2.01,-9.09,-0.0332084020204691,-0.2038002744908796,0.1100545845898715,-154.84376268843482,14.118999098561428,17.416134643761747
-2.6,2.21,-9.28,0.0905939235157647,-0.024144133111464,-0.0803975776066892,-154.84376268843482,14.095906005217,17.36976491594495
-2.6,2.21,-9.28,0.0905939235157647,-0.024144133111464,-0.0803975776066892,-154.84376268843482,14.095906005217,17.36976491594495
-2.66,2.23,-9.14,-0.0225647358031144,-0.0083949518826298,0.0297629515841784,-154.8964372754453,14.095906005217,17.31180678552449
-2.66,2.23,-9.14,-0.0225647358031144,-0.0083949518826298,0.0297629515841784,-154.8964372754453,14.095906005217,17.31180678552449
-2.57,2.16,-9.26,0.102610659742558,-0.0655418950892332,-0.0423740791915658,-154.8964372754453,14.130545861300051,17.253853117357277
-2.57,2.16,-9.26,0.102610659742558,-0.0655418950892332,-0.0423740791915658,-154.8964372754453,14.130545861300051,17.253853117357277
-2.64,2.04,-9.29,0.0750842364174298,-0.206712275505932,-0.061831767353917,-154.8964372754453,14.130545861300051,17.26544349477142
-2.64,2.04,-9.29,0.0750842364174298,-0.206712275505932,-0.061831767353917,-154.8964372754453,14.130545861300051,17.26544349477142
-2.53,2.37,-9.21,0.0832291956466958,0.1366746597503629,-0.0328770688369051,-154.84376268843482,14.153639819523336,17.26544349477142
-2.53,2.37,-9.21,0.0832291956466958,0.1366746597503629,-0.0328770688369051,-154.84376268843482,14.153639819523336,17.26544349477142
-2.76,2.1,-9.02,-0.1318185358561547,-0.1341133965388664,0.1447331368473499,-154.84376268843482,14.188281840563285,17.288624783675054
-2.76,2.1,-9.02,-0.1318185358561547,-0.1341133965388664,0.1447331368473499,-154.84376268843482,14.188281840563285,17.288624783675054
-2.83,2.19,-9.04,-0.2099993679795229,-0.0780388228578605,0.0867523561163405,-154.84376268843482,14.176734355559056,17.277034050168414
-2.83,2.19,-9.04,-0.2099993679795229,-0.0780388228578605,0.0867523561163405,-154.84376268843482,14.176734355559056,17.277034050168414
-2.62,2.26,-9.25,0.0301474241900293,0.0051838808016522,-0.0692582752015535,-154.84376268843482,14.222925164993963,17.242262917799223
-2.62,2.26,-9.25,0.0301474241900293,0.0051838808016522,-0.0692582752015535,-154.84376268843482,14.222925164993963,17.242262917799223
-2.56,2.29,-9.21,0.0598371610417684,0.0496842261797316,-0.022681156890961,-154.84376268843482,14.211377245158012,17.195903895593172
-2.56,2.29,-9.21,0.0598371610417684,0.0496842261797316,-0.022681156890961,-154.84376268843482,14.211377245158012,17.195903895593172
-2.56,2.11,-9.2,0.0897619334783804,-0.1124024236719311,0.0278459580708005,-154.8964372754453,14.211377245158012,17.172725448331995
-2.56,2.11,-9.2,0.0897619334783804,-0.1124024236719311,0.0278459580708005,-154.8964372754453,14.211377245158012,17.172725448331995
-2.72,2.17,-9.15,-0.085096918256044,-0.0935814895588724,0.0181975677043162,-154.8964372754453,14.24602144035678,17.184314583414665
-2.72,2.17,-9.15,-0.085096918256044,-0.0935814895588724,0.0181975677043162,-154.8964372754453,14.24602144035678,17.184314583414665
-2.54,2.28,-9.17,0.0575600207262597,0.0502376838139082,0.0223225821782193,-154.8964372754453,14.2344732300193,17.137959104392678
-2.54,2.28,-9.17,0.0575600207262597,0.0502376838139082,0.0223225821782193,-154.8964372754453,14.2344732300193,17.137959104392678
-2.76,2.04,-9.03,-0.1380212209518506,-0.2100594686671363,0.1496874774367977,-154.8964372754453,14.24602144035678,17.149547708947626
-2.76,2.04,-9.03,-0.1380212209518506,-0.2100594686671363,0.1496874774367977,-154.8964372754453,14.24602144035678,17.149547708947626
-2.68,2.27,-9.25,-0.0454541778567942,-0.0064272355742469,-0.0875752151625395,-154.8964372754453,14.25756979612918,17.137959104392678
-2.68,2.27,-9.25,-0.0454541778567942,-0.0064272355742469,-0.0875752151625395,-154.8964372754453,14.25756979612918,17.137959104392678
-2.53,2.31,-9.23,0.0767691465392158,0.0732347856819468,-0.0380766678311506,-154.8964372754453,14.25756979612918,17.126370676427072
-2.53,2.31,-9.23,0.0767691465392158,0.0732347856819468,-0.0380766678311506,-154.8964372754453,14.25756979612918,17.126370676427072
-2.66,2.1,-9.14,-0.0210371831479794,-0.1384457769234327,0.0595688880066624,-154.84376268843482,14.303764676023915,17.172725448331995
-2.66,2.1,-9.14,-0.0210371831479794,-0.1384457769234327,0.0595688880066624,-154.84376268843482,14.303764676023915,17.172725448331995
-2.78,2.16,-8.95,-0.1967091400768588,-0.0851263860428241,0.1915286272554208,-154.84376268843482,14.280666944469896,17.219083051744406
-2.78,2.16,-8.95,-0.1967091400768588,-0.0851263860428241,0.1915286272554208,-154.84376268843482,14.280666944469896,17.219083051744406
-2.53,2.14,-9.23,0.1256590396307781,-0.0749123318935514,0.0009374839056537,-154.84376268843482,14.338412369029564,17.219083051744406
-2.53,2.14,-9.23,0.1256590396307781,-0.0749123318935514,0.0009374839056537,-154.84376268843482,14.338412369029564,17.219083051744406
-2.84,2.27,-8.88,-0.2923088706362899,0.010556804697795,0.2156467116040499,-154.73873772257048,14.338412369029564,17.253853117357277
-2.84,2.27,-8.88,-0.2923088706362899,0.010556804697795,0.2156467116040499,-154.73873772257048,14.338412369029564,17.253853117357277
-2.59,2.25,-9.28,0.0571093405078248,-0.0103756623210036,-0.0870667368415247,-154.84376268843482,14.315313760812993,17.172725448331995
-2.59,2.25,-9.28,0.0571093405078248,-0.0103756623210036,-0.0870667368415247,-154.84376268843482,14.315313760812993,17.172725448331995
-2.58,2.04,-9.32,0.1248102487142689,-0.1967235602512514,-0.0739432130949477,-154.84376268843482,14.373061379793723,17.195903895593172
-2.58,2.04,-9.32,0.1248102487142689,-0.1967235602512514,-0.0739432130949477,-154.84376268843482,14.373061379793723,17.195903895593172
-2.85,2.18,-8.91,-0.2758383869288355,-0.0930817674388817,0.205699579918301,-154.73873772257048,14.373061379793723,17.230672895970507
-2.85,2.18,-8.91,-0.2758383869288355,-0.0930817674388817,0.205699579918301,-154.73873772257048,14.373061379793723,17.230672895970507
-2.58,2.33,-9.31,0.0603203634240646,0.0689630619714365,-0.1308046816496162,-154.73873772257048,14.419262116395176,17.195903895593172
-2.58,2.33,-9.31,0.0603203634240646,0.0689630619714365,-0.1308046816496162,-154.73873772257048,14.419262116395176,17.195903895593172
-2.63,2.15,-9.23,0.038904226782661,-0.0998739841796763,-0.0280239472349865,-154.73873772257048,14.419262116395176,17.26544349477142
-2.63,2.15,-9.23,0.038904226782661,-0.0998739841796763,-0.0280239472349865,-154.73873772257048,14.419262116395176,17.26544349477142
-2.75,2.18,-9.05,-0.1329305330407119,-0.0751299351922505,0.101286278519824,-154.73873772257048,14.373061379793723,17.277034050168414
-2.75,2.18,-9.05,-0.1329305330407119,-0.0751299351922505,0.101286278519824,-154.73873772257048,14.373061379793723,17.277034050168414
-2.9,2.15,-8.99,-0.2838802371916789,-0.1268194295622025,0.1238854751745926,-154.73873772257048,14.407711711634985,17.288624783675054
-2.9,2.15,-8.99,-0.2838802371916789,-0.1268194295622025,0.1238854751745926,-154.73873772257048,14.407711711634985,17.288624783675054
-2.69,2.32,-9.19,-0.0616053975523551,0.0656806825383053,-0.0455827836350728,-154.73873772257048,14.407711711634985,17.300215695418142
-2.69,2.32,-9.19,-0.0616053975523551,0.0656806825383053,-0.0455827836350728,-154.73873772257048,14.407711711634985,17.300215695418142
-2.34,2.17,-9.46,0.3715035553518816,-0.0184604877808001,-0.1702104439849634,-154.79119639620873,14.38461134345722,17.253853117357277
-2.34,2.17,-9.46,0.3715035553518816,-0.0184604877808001,-0.1702104439849634,-154.79119639620873,14.38461134345722,17.253853117357277
-2.66,2.12,-9.0,-0.0515529026862024,-0.0716284028587972,0.1857242820595228,-154.79119639620873,14.407711711634985,17.31180678552449
-2.66,2.12,-9.0,-0.0515529026862024,-0.0716284028587972,0.1857242820595228,-154.79119639620873,14.407711711634985,17.31180678552449
-2.6,2.18,-9.12,0.0295514732148035,-0.0068433106964216,0.0759830198012849,-154.79119639620873,14.419262116395176,17.32339805412093
-2.6,2.18,-9.12,0.0295514732148035,-0.0068433106964216,0.0759830198012849,-154.79119639620873,14.419262116395176,17.32339805412093
-2.69,2.02,-9.21,0.0056897135378073,-0.1869160665379389,0.0033021018975443,-154.79119639620873,14.46546520944767,17.31180678552449
-2.69,2.02,-9.21,0.0056897135378073,-0.1869160665379389,0.0033021018975443,-154.79119639620873,14.46546520944767,17.31180678552449
-2.79,1.95,-8.99,-0.1332845521293919,-0.2492986289608143,0.1979671859113825,-154.73873772257048,14.46546520944767,17.358172932119437
-2.79,1.95,-8.99,-0.1332845521293919,-0.2492986289608143,0.1979671859113825,-154.73873772257048,14.46546520944767,17.358172932119437
-2.54,2.19,-9.23,0.111369683646223,0.0098050844145134,-0.0131310899166248,-154.79119639620873,14.500119080393963,17.300215695418142
-2.54,2.19,-9.23,0.111369683646223,0.0098050844145134,-0.0131310899166248,-154.79119639620873,14.500119080393963,17.300215695418142
-2.72,2.22,-9.25,-0.0571198555272585,-0.0155459908316024,-0.0870750641137991,-154.73873772257048,14.534774284595128,17.288624783675054
-2.72,2.22,-9.25,-0.0571198555272585,-0.0155459908316024,-0.0870750641137991,-154.73873772257048,14.534774284595128,17.288624783675054
-2.84,2.12,-9.03,-0.2129522297168981,-0.1156614237270639,0.109115582277111,-154.73873772257048,14.511670666824136,17.300215695418142
-2.84,2.12,-9.03,-0.2129522297168981,-0.1156614237270639,0.109115582277111,-154.73873772257048,14.511670666824136,17.300215695418142
-2.81,2.36,-9.07,-0.2311420006972012,0.1128158996976633,0.0258296893977725,-154.73873772257048,14.54632631618216,17.26544349477142
-2.81,2.36,-9.07,-0.2311420006972012,0.1128158996976633,0.0258296893977725,-154.73873772257048,14.54632631618216,17.26544349477142
-2.35,2.43,-9.51,0.3033475317524918,0.2390989600825495,-0.2788996608894436,-154.84376268843482,14.54632631618216,17.184314583414665
-2.35,2.43,-9.51,0.3033475317524918,0.2390989600825495,-0.2788996608894436,-154.84376268843482,14.54632631618216,17.184314583414665
-2.85,2.11,-8.89,-0.2718199352244109,-0.0963922549309235,0.2398573056847351,-154.79119639620873,14.511670666824136,17.26544349477142
-2.85,2.11,-8.89,-0.2718199352244109,-0.0963922549309235,0.2398573056847351,-154.79119639620873,14.511670666824136,17.26544349477142
-2.72,2.0,-8.92,-0.1207579774334813,-0.1631119915758061,0.2712626460908591,-154.84376268843482,14.477016351828802,17.253853117357277
-2.72,2.0,-8.92,-0.1207579774334813,-0.1631119915758061,0.2712626460908591,-154.84376268843482,14.477016351828802,17.253853117357277
-2.5,2.0,-9.21,0.1677175908020242,-0.1422976841206863,0.0585362245647989,-154.8964372754453,14.477016351828802,17.219083051744406
-2.5,2.0,-9.21,0.1677175908020242,-0.1422976841206863,0.0585362245647989,-154.8964372754453,14.477016351828802,17.219083051744406
-2.67,2.25,-9.01,-0.1032396484296098,0.0668570698280748,0.1445398936512774,-154.84376268843482,14.477016351828802,17.230672895970507
-2.67,2.25,-9.01,-0.1032396484296098,0.0668570698280748,0.1445398936512774,-154.84376268843482,14.477016351828802,17.230672895970507
-2.73,2.12,-8.96,-0.1464460474592478,-0.0638273496135344,0.2043909103573504,-154.84376268843482,14.477016351828802,17.230672895970507
-2.73,2.12,-8.96,-0.1464460474592478,-0.0638273496135344,0.2043909103573504,-154.84376268843482,14.477016351828802,17.230672895970507
-2.78,2.2,-8.96,-0.2092858588839056,-0.0010810764761881,0.1730526313871241,-154.84376268843482,14.534774284595128,17.242262917799223
-2.78,2.2,-8.96,-0.2092858588839056,-0.0010810764761881,0.1730526313871241,-154.84376268843482,14.534774284595128,17.242262917799223
-2.86,2.12,-9.09,-0.2287169981778846,-0.1172556614385611,0.0477545889094042,-154.84376268843482,14.54632631618216,17.219083051744406
-2.86,2.12,-9.09,-0.2287169981778846,-0.1172556614385611,0.0477545889094042,-154.84376268843482,14.54632631618216,17.219083051744406
-2.72,2.17,-9.17,-0.1010568447233048,-0.07031480021549,-0.0005434488417837,-154.84376268843482,14.54632631618216,17.103194349757633
-2.72,2.17,-9.17,-0.1010568447233048,-0.07031480021549,-0.0005434488417837,-154.84376268843482,14.54632631618216,17.103194349757633
-2.49,2.37,-9.28,0.0891927783447617,0.1629883837113039,-0.0878373255296214,-154.84376268843482,14.627194705880914,17.033669594732867
-2.49,2.37,-9.28,0.0891927783447617,0.1629883837113039,-0.0878373255296214,-154.84376268843482,14.627194705880914,17.033669594732867
-2.53,2.34,-9.45,0.0949808695048348,0.097305931563495,-0.2512081313374423,-154.9492208405226,14.569430825374988,16.929394296591493
-2.53,2.34,-9.45,0.0949808695048348,0.097305931563495,-0.2512081313374423,-154.9492208405226,14.569430825374988,16.929394296591493
-2.66,2.37,-9.08,-0.1880803081607189,0.1821803245618203,0.0562481556130372,-155.214797761141,14.569430825374988,16.720885966499374
-2.66,2.37,-9.08,-0.1880803081607189,0.1821803245618203,0.0562481556130372,-155.214797761141,14.569430825374988,16.720885966499374
-2.66,1.72,-9.09,-0.1124321284268119,-0.3768628463726207,0.1885715322642873,-155.6456486519571,14.54632631618216,16.350341655632345
-2.66,1.72,-9.09,-0.1124321284268119,-0.3768628463726207,0.1885715322642873,-155.6456486519571,14.54632631618216,16.350341655632345
-2.6,2.1,-9.26,-0.1802499516440478,-0.0399776794065327,-0.0362922298457899,-156.0841409493743,14.361511562916563,15.794846506662765
-2.6,2.1,-9.26,-0.1802499516440478,-0.0399776794065327,-0.0362922298457899,-156.0841409493743,14.361511562916563,15.794846506662765
-2.34,2.37,-9.53,-0.1440925918339702,0.251447983598791,-0.2844060020506642,-157.1587733939545,14.188281840563285,14.500119080393963
-2.34,2.37,-9.53,-0.1440925918339702,0.251447983598791,-0.2844060020506642,-157.1587733939545,14.188281840563285,14.500119080393963
-2.49,2.58,-9.41,-0.4944337561277687,0.4487877144230867,-0.241171895723685,-157.80436691060555,13.991994191085649,13.738036026791262
-2.49,2.58,-9.41,-0.4944337561277687,0.4487877144230867,-0.241171895723685,-157.80436691060555,13.991994191085649,13.738036026791262
-2.98,2.41,-9.57,-1.0967688832485871,0.2463920485908666,-0.4407784079045349,-159.21811781644797,13.39183842112712,12.526874248925028
-2.98,2.41,-9.57,-1.0967688832485871,0.2463920485908666,-0.4407784079045349,-159.21811781644797,13.39183842112712,12.526874248925028
-1.36,2.24,-10.55,0.5272503440516753,0.4663249015194176,-1.0411261850491886,-160.26052613773837,13.172643633299913,11.639588800101585
-1.36,2.24,-10.55,0.5272503440516753,0.4663249015194176,-1.0411261850491886,-160.26052613773837,13.172643633299913,11.639588800101585
-1.88,0.67,-10.08,0.1275206134654684,-0.9353660240842124,-0.4255799081935372,-161.4314273445042,12.642160322280048,11.029269725697889
-1.88,0.67,-10.08,0.1275206134654684,-0.9353660240842124,-0.4255799081935372,-161.4314273445042,12.642160322280048,11.029269725697889
-0.85,0.66,-11.41,1.3498035589526651,-0.7079840308570381,-1.5521786792384589,-162.0085427715158,12.330917071488784,10.925662281710132
-0.85,0.66,-11.41,1.3498035589526651,-0.7079840308570381,-1.5521786792384589,-162.0085427715158,12.330917071488784,10.925662281710132
0.07,-0.23,-11.75,2.7290362227212244,-1.018005070924561,-1.5791449643688615,-161.36053358743402,12.803582439206052,12.330917071488784
0.07,-0.23,-11.75,2.7290362227212244,-1.018005070924561,-1.5791449643688615,-161.36053358743402,12.803582439206052,12.330917071488784
-1.85,0.61,-9.13,0.5902107895469807,-0.3474526210330258,0.4963101619468464,-159.21811781644797,13.230321745568984,15.147239662385427
-1.85,0.61,-9.13,0.5902107895469807,-0.3474526210330258,0.4963101619468464,-159.21811781644797,13.230321745568984,15.147239662385427
-1.23,-0.38,-9.41,2.0629991095220666,-1.03017922353348,0.5931726194714546,-155.8639137604186,14.280666944469896,18.820214993044136
-1.23,-0.38,-9.41,2.0629991095220666,-1.03017922353348,0.5931726194714546,-155.8639137604186,14.280666944469896,18.820214993044136
-2.91,2.17,-7.38,-0.2344900362974166,0.9247283860418172,1.6377276821586957,-151.7661453802759,15.898972996932857,22.41935080242252
-2.91,2.17,-7.38,-0.2344900362974166,0.9247283860418172,1.6377276821586957,-151.7661453802759,15.898972996932857,22.41935080242252
-3.21,1.02,-7.28,0.0122894689278441,-0.3975804958885335,1.7951158948337174,-149.63651807466178,16.755633464025784,24.1626672412518
-3.21,1.02,-7.28,0.0122894689278441,-0.3975804958885335,1.7951158948337174,-149.63651807466178,16.755633464025784,24.1626672412518
-2.98,0.59,-7.57,0.7011059145966458,-1.115603718962786,1.756974302261982,-146.9114591288739,18.51827857520288,25.47680417585264
-2.98,0.59,-7.57,0.7011059145966458,-1.115603718962786,1.756974302261982,-146.9114591288739,18.51827857520288,25.47680417585264
-4.27,4.06,-6.15,-1.849623649690812,1.4675576752208292,1.62348638044522,-144.99354106549774,19.633782752905432,26.21749449261709
-4.27,4.06,-6.15,-1.849623649690812,1.4675576752208292,1.62348638044522,-144.99354106549774,19.633782752905432,26.21749449261709
-3.65,1.14,-7.87,0.274757578176137,-1.5846813535061932,1.205935304052657,-144.1648201843402,20.18059415638896,25.65305965168436
-3.65,1.14,-7.87,0.274757578176137,-1.5846813535061932,1.205935304052657,-144.1648201843402,20.18059415638896,25.65305965168436
-4.95,5.49,-5.99,-2.9406339999980595,1.7986127820243898,0.9387097804003056,-142.88329260111254,21.42721774773248,25.34758912480893
-4.95,5.49,-5.99,-2.9406339999980595,1.7986127820243898,0.9387097804003056,-142.88329260111254,21.42721774773248,25.34758912480893
-3.15,2.5,-9.05,0.5146386341313611,-0.9172411330410116,-0.0406245356325385,-143.97904817901198,21.298944377524897,23.06222273541725
-3.15,2.5,-9.05,0.5146386341313611,-0.9172411330410116,-0.0406245356325385,-143.97904817901198,21.298944377524897,23.06222273541725
-3.95,5.24,-7.41,-1.7477869513266424,1.298446202021668,0.1512122453858762,-143.79419791151398,21.31060447484913,22.314222150985408
-3.95,5.24,-7.41,-1.7477869513266424,1.298446202021668,0.1512122453858762,-143.79419791151398,21.31060447484913,22.314222150985408
-4.06,3.35,-6.98,-1.8558550551884168,-0.4247738532898522,1.2742488615341738,-144.99354106549774,21.695513718287582,19.69193249784897
-4.06,3.35,-6.98,-1.8558550551884168,-0.4247738532898522,1.2742488615341738,-144.99354106549774,21.695513718287582,19.69193249784897
-0.38,4.08,-11.25,2.234506637991281,0.2885455330656033,-1.9524750337820969,-146.871240884656,20.378490735265764,16.38507281218067
-0.38,4.08,-11.25,2.234506637991281,0.2885455330656033,-1.9524750337820969,-146.871240884656,20.378490735265764,16.38507281218067
-2.92,4.67,-7.9,-1.6701170847240174,0.7417092649762049,0.3511819370450304,-148.5189029496625,19.52912606682039,14.038175786909196
-2.92,4.67,-7.9,-1.6701170847240174,0.7417092649762049,0.3511819370450304,-148.5189029496625,19.52912606682039,14.038175786909196
-1.93,3.45,-9.32,-0.5515251977658522,-0.3486214432955745,-0.2960270237152382,-150.79583135983617,18.611168175342147,10.8450849117299
-1.93,3.45,-9.32,-0.5515251977658522,-0.3486214432955745,-0.2960270237152382,-150.79583135983617,18.611168175342147,10.8450849117299
-0.03,4.55,-10.44,0.7589896421876177,0.8849151494349359,-1.5219800981783518,-152.4315896826145,17.462507245696994,8.384121213370948
-0.03,4.55,-10.44,0.7589896421876177,0.8849151494349359,-1.5219800981783518,-152.4315896826145,17.462507245696994,8.384121213370948
-1.06,2.08,-9.32,-0.0825953184471924,-1.1421727781671331,0.2672045570937644,-154.27134430279995,16.825133117850115,6.627085616027942
-1.06,2.08,-9.32,-0.0825953184471924,-1.1421727781671331,0.2672045570937644,-154.27134430279995,16.825133117850115,6.627085616027942
0.64,3.23,-10.47,0.9299678898855516,0.2120880559003872,-1.1274058979880035,-156.6436585308699,15.39003407585724,3.988591587846416
0.64,3.23,-10.47,0.9299678898855516,0.2120880559003872,-1.1274058979880035,-156.6436585308699,15.39003407585724,3.988591587846416
1.64,3.46,-11.01,1.4259803281689531,0.6791164369990192,-1.7426651731465397,-158.3467074683401,14.477016351828802,1.581413711340907
1.64,3.46,-11.01,1.4259803281689531,0.6791164369990192,-1.7426651731465397,-158.3467074683401,14.477016351828802,1.581413711340907
-0.63,2.19,-8.77,-0.6980537363465674,-0.2623661631364239,0.776158043433421,-159.66766312617878,14.176734355559056,1.100095864564908
-0.63,2.19,-8.77,-0.6980537363465674,-0.2623661631364239,0.776158043433421,-159.66766312617878,14.176734355559056,1.100095864564908
0.47,1.12,-9.68,0.4684770445064218,-1.106928296712212,0.1250727005767107,-160.94065918134044,13.195714475135588,0.0
0.47,1.12,-9.68,0.4684770445064218,-1.106928296712212,0.1250727005767107,-160.94065918134044,13.195714475135588,0.0
0.84,3.37,-9.98,0.2594278817704333,1.0841098044565156,-0.7014565423815267,-161.00999937311445,13.39183842112712,-0.2979383891459227
0.84,3.37,-9.98,0.2594278817704333,1.0841098044565156,-0.7014565423815267,-161.00999937311445,13.39183842112712,-0.2979383891459227
-0.17,0.95,-8.94,-0.269679480787219,-0.979923326475376,0.8723328323664391,-162.30409717935632,13.011162702254634,-0.6531754234266163
-0.17,0.95,-8.94,-0.269679480787219,-0.979923326475376,0.8723328323664391,-162.30409717935632,13.011162702254634,-0.6531754234266163
0.05,1.56,-9.22,-0.324955484678297,-0.3751056861324793,0.468652374319829,-162.52901727888843,12.89583508427226,-1.4668120111410634
0.05,1.56,-9.22,-0.324955484678297,-0.3751056861324793,0.468652374319829,-162.52901727888843,12.89583508427226,-1.4668120111410634
1.17,3.13,-10.15,0.1120986732417444,1.2495226095755545,-0.8053444937611527,-162.68057392822612,12.941964550756788,-3.048495041051397
1.17,3.13,-10.15,0.1120986732417444,1.2495226095755545,-0.8053444937611527,-162.68057392822612,12.941964550756788,-3.048495041051397
1.23,-0.03,-10.2,0.7554639261399674,-1.626141781349821,-0.3096110268443333,-163.45901362866948,12.515346343653173,-3.6675560000932936
1.23,-0.03,-10.2,0.7554639261399674,-1.626141781349821,-0.3096110268443333,-163.45901362866948,12.515346343653173,-3.6675560000932936
1.03,2.06,-9.72,0.1688178184828725,0.4387369426586294,-0.1714214789637225,-163.14335483645732,12.988096123558291,-3.3121572228147254
1.03,2.06,-9.72,0.1688178184828725,0.4387369426586294,-0.1714214789637225,-163.14335483645732,12.988096123558291,-3.3121572228147254
1.01,0.3,-10.13,0.5128800926651558,-1.2511934872716712,-0.2878271468341413,-163.30044367130742,13.138038375794716,-3.40386984812725
1.01,0.3,-10.13,0.5128800926651558,-1.2511934872716712,-0.2878271468341413,-163.30044367130742,13.138038375794716,-3.40386984812725
1.85,0.59,-10.41,1.2370361822193017,-0.8662558738929225,-0.6746687264211335,-162.45372607444324,13.922726077012074,-3.5070491615651807
1.85,0.59,-10.41,1.2370361822193017,-0.8662558738929225,-0.6746687264211335,-162.45372607444324,13.922726077012074,-3.5070491615651807
1.59,1.33,-10.06,0.936308640867072,-0.2252358643273494,-0.4194536047195605,-161.4314273445042,14.985414779298193,-2.830699387947472
1.59,1.33,-10.06,0.936308640867072,-0.2252358643273494,-0.4194536047195605,-161.4314273445042,14.985414779298193,-2.830699387947472
0.25,1.25,-8.86,-0.0906610011159491,-0.5789381448666715,0.8746171290744247,-160.26052613773837,15.73700413286234,-1.5699534720315549
0.25,1.25,-8.86,-0.0906610011159491,-0.5789381448666715,0.8746171290744247,-160.26052613773837,15.73700413286234,-1.5699534720315549
1.04,2.59,-9.88,0.2623105323660728,0.5781390847916479,-0.4403519216962248,-158.9028148870971,16.940979741891212,-1.6960169933572922
1.04,2.59,-9.88,0.2623105323660728,0.5781390847916479,-0.4403519216962248,-158.9028148870971,16.940979741891212,-1.6960169933572922
0.87,1.69,-9.47,0.4514716407774685,-0.4812438148067792,0.1703396195543849,-156.70033876277134,18.471838381894354,-1.294912175882028
0.87,1.69,-9.47,0.4514716407774685,-0.4812438148067792,0.1703396195543849,-156.70033876277134,18.471838381894354,-1.294912175882028
0.19,2.38,-9.28,-0.3747600924620375,-0.173496306144683,0.2333353230006079,-155.16145880106285,19.633782752905432,-1.0657168616283692
0.19,2.38,-9.28,-0.3747600924620375,-0.173496306144683,0.2333353230006079,-155.16145880106285,19.633782752905432,-1.0657168616283692
0.64,4.42,-9.12,-0.6803781927028129,1.6173395748602344,-0.1954346934269342,-152.91671705681662,21.403893300909647,-0.9740399810272836
0.64,4.42,-9.12,-0.6803781927028129,1.6173395748602344,-0.1954346934269342,-152.91671705681662,21.403893300909647,-0.9740399810272836
-0.05,2.36,-9.53,-0.6114766915276931,-0.6626376982080573,0.0301471724735886,-152.1444912618588,22.068995754971112,-1.306372069959298
-0.05,2.36,-9.53,-0.6114766915276931,-0.6626376982080573,0.0301471724735886,-152.1444912618588,22.068995754971112,-1.306372069959298
0.69,4.12,-9.21,-0.5889061728285429,1.173452612717654,-0.2208521059738792,-151.20776005427302,22.88682192770989,-1.1230152546764245
0.69,4.12,-9.21,-0.5889061728285429,1.173452612717654,-0.2208521059738792,-151.20776005427302,22.88682192770989,-1.1230152546764245
0.47,3.3,-9.61,-0.3693401269611592,0.2145862988361571,-0.3560534095740504,-150.70506138327715,23.28447580744025,-0.5958787923837214
0.47,3.3,-9.61,-0.3693401269611592,0.2145862988361571,-0.3560534095740504,-150.70506138327715,23.28447580744025,-0.5958787923837214
-0.73,3.88,-8.85,-1.668395677838148,0.4452524791522629,0.271032238576268,-150.43438697810743,23.47170516617001,-0.1718874029970642
-0.73,3.88,-8.85,-1.668395677838148,0.4452524791522629,0.271032238576268,-150.43438697810743,23.47170516617001,-0.1718874029970642
1.53,2.93,-10.17,0.7540816113897378,0.1848409726792974,-0.8588033301769631,-150.479330837061,23.78779915841677,-0.5958787923837214
1.53,2.93,-10.17,0.7540816113897378,0.1848409726792974,-0.8588033301769631,-150.479330837061,23.78779915841677,-0.5958787923837214
-0.18,3.27,-8.91,-0.9338632663077152,0.1907650703650649,0.3618150047356768,-150.479330837061,23.82293200606416,-0.0916732569994142
-0.18,3.27,-8.91,-0.9338632663077152,0.1907650703650649,0.3618150047356768,-150.479330837061,23.82293200606416,-0.0916732569994142
0.04,2.84,-9.16,-0.5472881799348847,-0.1302458986705394,0.2329197106100249,-150.79583135983617,23.56534364989273,-0.0916732569994142
0.04,2.84,-9.16,-0.5472881799348847,-0.1302458986705394,0.2329197106100249,-150.79583135983617,23.56534364989273,-0.0916732569994142
0.43,2.69,-9.34,-0.1620105560094167,-0.1112019916495552,0.0794722645623124,-150.97820441576042,23.600462193143148,-0.2750200056824314
0.43,2.69,-9.34,-0.1620105560094167,-0.1112019916495552,0.0794722645623124,-150.97820441576042,23.600462193143148,-0.2750200056824314
0.05,2.19,-9.44,-0.293310109039255,-0.6739748160970478,0.1437349570534714,-151.16170585731885,23.56534364989273,-0.1375099038337879
0.05,2.19,-9.44,-0.293310109039255,-0.6739748160970478,0.1437349570534714,-151.16170585731885,23.56534364989273,-0.1375099038337879
1.05,3.23,-9.57,0.2190247375060689,0.5256187678598123,-0.3321888425516413,-151.1157235364922,23.331277218076693,-0.2635608181333149
1.05,3.23,-9.57,0.2190247375060689,0.5256187678598123,-0.3321888425516413,-151.1157235364922,23.331277218076693,-0.2635608181333149
0.81,2.28,-9.69,0.3875448828126169,-0.3924775031715746,-0.1656300990199799,-151.1157235364922,23.448298031292182,-0.1489690686936551
0.81,2.28,-9.69,0.3875448828126169,-0.3924775031715746,-0.1656300990199799,-151.1157235364922,23.448298031292182,-0.1489690686936551
0.0,2.79,-8.96,-0.5459112049723459,-0.0840498530997637,0.4385863485040513,-151.06981274894218,23.40148673707778,0.1260507403490224
0.0,2.79,-8.96,-0.5459112049723459,-0.0840498530997637,0.4385863485040513,-151.06981274894218,23.40148673707778,0.1260507403490224
1.11,3.27,-9.92,0.350533868082914,0.4420398550496736,-0.6820642574232849,-151.16170585731885,23.050527648721737,0.0343774682235114
1.11,3.27,-9.92,0.350533868082914,0.4420398550496736,-0.6820642574232849,-151.16170585731885,23.050527648721737,0.0343774682235114
-0.08,2.65,-9.28,-0.5327522816279022,-0.2833637769080275,0.1742473933625117,-151.2538864729402,23.31957649574687,0.2406424508273681
-0.08,2.65,-9.28,-0.5327522816279022,-0.2833637769080275,0.1742473933625117,-151.2538864729402,23.31957649574687,0.2406424508273681
-0.09,2.87,-8.95,-0.631797361818451,-0.0053226677630231,0.4285743038453179,-151.48561418277666,22.99205586322248,0.2864791959817692
-0.09,2.87,-8.95,-0.631797361818451,-0.0053226677630231,0.4285743038453179,-151.48561418277666,22.99205586322248,0.2864791959817692
0.65,2.83,-9.52,0.1052604425946464,0.1010913016159622,-0.1452594041275521,-151.43912137388486,23.155792207151627,0.3552344019497601
0.65,2.83,-9.52,0.1052604425946464,0.1010913016159622,-0.1452594041275521,-151.43912137388486,23.155792207151627,0.3552344019497601
0.05,2.74,-9.31,-0.4038008373289463,-0.1249159563406361,0.1109014013809162,-151.57882322936237,23.097309457161245,0.5042044866238587
0.05,2.74,-9.31,-0.4038008373289463,-0.1249159563406361,0.1109014013809162,-151.57882322936237,23.097309457161245,0.5042044866238587
0.96,2.6,-9.74,0.4878460740834378,-0.0233963755001329,-0.3082231488642417,-151.71920090048613,22.898513619526447,0.3093975852894872
0.96,2.6,-9.74,0.4878460740834378,-0.0233963755001329,-0.3082231488642417,-151.71920090048613,22.898513619526447,0.3093975852894872
0.39,2.77,-9.44,-0.0861909502982104,0.0039582809486833,-0.0387121290483047,-151.6255402012684,23.050527648721737,0.5500415954991054
0.39,2.77,-9.44,-0.0861909502982104,0.0039582809486833,-0.0387121290483047,-151.6255402012684,23.050527648721737,0.5500415954991054
0.15,2.6,-9.4,-0.2240961209822901,-0.2628254863201132,0.0586654035666729,-151.67233263341282,22.816676842803343,0.5958787923837214
0.15,2.6,-9.4,-0.2240961209822901,-0.2628254863201132,0.0586654035666729,-151.67233263341282,22.816676842803343,0.5958787923837214
0.84,3.15,-9.61,0.192310044770386,0.4445380281171536,-0.3297005655752692,-151.71920090048613,22.816676842803343,0.4812859628976946
0.84,3.15,-9.61,0.192310044770386,0.4445380281171536,-0.3297005655752692,-151.71920090048613,22.816676842803343,0.4812859628976946
0.03,2.12,-9.23,-0.1584286834392588,-0.5928968703541989,0.3561699247134573,-151.8602645048557,22.98036223475966,0.7448503787209418
0.03,2.12,-9.23,-0.1584286834392588,-0.5928968703541989,0.3561699247134573,-151.8602645048557,22.98036223475966,0.7448503787209418
0.02,3.17,-9.14,-0.5175914791946445,0.2776714540009728,0.1503620162922789,-151.71920090048613,22.723163534007305,0.9625804159917916
0.02,3.17,-9.14,-0.5175914791946445,0.2776714540009728,0.1503620162922789,-151.71920090048613,22.723163534007305,0.9625804159917916
0.57,2.91,-9.64,0.1060391285697507,0.1496637200025039,-0.2774442317159682,-151.67233263341282,22.91020555294516,0.9167422509706517
0.57,2.91,-9.64,0.1060391285697507,0.1496637200025039,-0.2774442317159682,-151.67233263341282,22.91020555294516,0.9167422509706517
-0.16,2.55,-9.26,-0.4486901356008964,-0.3109687045552212,0.2161507623689527,-151.81316645370248,22.875130477358805,0.9969591404369118
-0.16,2.55,-9.26,-0.4486901356008964,-0.3109687045552212,0.2161507623689527,-151.81316645370248,22.875130477358805,0.9969591404369118
0.64,2.91,-9.56,0.1835944338464371,0.1793536539212643,-0.2036159979985417,-151.81316645370248,22.66472550596455,0.9625804159917916
0.64,2.91,-9.56,0.1835944338464371,0.1793536539212643,-0.2036159979985417,-151.81316645370248,22.66472550596455,0.9625804159917916
0.6,3.19,-9.69,0.0650147414253818,0.4014026789575269,-0.4044639927396325,-151.71920090048613,22.86343926833653,1.1115555540621913
0.6,3.19,-9.69,0.0650147414253818,0.4014026789575269,-0.4044639927396325,-151.71920090048613,22.86343926833653,1.1115555540621913
-0.13,2.56,-8.98,-0.4137876375536809,-0.2202414058893265,0.4797441082189753,-151.95469309277132,22.68809999960854,1.1573944243672372
-0.13,2.56,-8.98,-0.4137876375536809,-0.2202414058893265,0.4797441082189753,-151.95469309277132,22.68809999960854,1.1573944243672372
0.87,2.96,-9.84,0.4102681248945136,0.2628774555106119,-0.4941594589250489,-151.9074399210319,22.66472550596455,1.0657168616283692
0.87,2.96,-9.84,0.4102681248945136,0.2628774555106119,-0.4941594589250489,-151.9074399210319,22.66472550596455,1.0657168616283692
-0.07,2.56,-9.38,-0.2997358032788991,-0.2908507380377534,0.0923067748295167,-151.8602645048557,22.781607550913503,1.3522117780748235
-0.07,2.56,-9.38,-0.2997358032788991,-0.2908507380377534,0.0923067748295167,-151.8602645048557,22.781607550913503,1.3522117780748235
0.0,2.52,-9.11,-0.2493212114790929,-0.2325250636150622,0.3606841399993712,-152.00202441389632,22.58292229556564,1.2719924264668117
0.0,2.52,-9.11,-0.2493212114790929,-0.2325250636150622,0.3606841399993712,-152.00202441389632,22.58292229556564,1.2719924264668117
0.57,3.07,-9.63,0.1112674706179739,0.3297618007891059,-0.3109374942954002,-151.8602645048557,22.73485185773412,1.306372069959298
0.57,3.07,-9.63,0.1112674706179739,0.3297618007891059,-0.3109374942954002,-151.8602645048557,22.73485185773412,1.306372069959298
-0.3,2.88,-8.98,-0.6438870256672113,0.0116328011822905,0.3933575804416822,-151.95469309277132,22.69978760508081,1.4668120111410634
-0.3,2.88,-8.98,-0.6438870256672113,0.0116328011822905,0.3933575804416822,-151.95469309277132,22.69978760508081,1.4668120111410634
0.5,2.56,-9.63,0.2284806601226198,-0.1518758906850108,-0.1665756718565543,-152.09692309623645,22.477763863075143,1.2032334798806037
0.5,2.56,-9.63,0.2284806601226198,-0.1518758906850108,-0.1665756718565543,-152.09692309623645,22.477763863075143,1.2032334798806037
