,TIME,ELAPSED_SECONDS,PSTATE,acc_x,acc_y,acc_z,mag_x,mag_y,mag_z,gyr_x,gyr_y,gyr_z,lin_x,lin_y,lin_z,eul_x,eul_y,eul_z,qua_w,qua_x,qua_y,qua_z
0,484585.0,345.301179,1.0,-1.91,3.75,-8.82,9.0,-30.37,22.87,-1.0,-0.31,-0.56,-0.12224320212396927,0.02225361778708024,0.0348762932449187,-152.62462859250314,-10.591876570929834,8.567970434690707,-0.2049,-0.9716,-0.0923,0.0747
1,484585.0,345.301179,1.0,-1.91,3.75,-8.82,9.0,-30.37,22.87,-1.0,-0.31,-0.56,-0.12224320212396927,0.02225361778708024,0.0348762932449187,-152.62462859250314,-10.591876570929834,8.567970434690707,-0.2049,-0.9716,-0.0923,0.0747
2,484620.0,345.40200699999997,1.0,-1.9,3.6,-8.88,9.0,-30.37,22.87,0.44,1.12,1.0,-0.13967285310349148,-0.1368901365138706,0.04006653470205634,-152.62462859250314,-10.580368342525214,8.556479215940191,-0.2048,-0.9716,-0.0922,0.0746
3,484620.0,345.40200699999997,1.0,-1.9,3.6,-8.88,9.0,-30.37,22.87,0.44,1.12,1.0,-0.13967285310349148,-0.1368901365138706,0.04006653470205634,-152.62462859250314,-10.580368342525214,8.556479215940191,-0.2048,-0.9716,-0.0922,0.0746
4,484655.0,345.444066,1.0,-1.87,3.82,-8.98,9.0,-31.5,22.87,0.69,1.44,-0.25,-0.0559558693473986,0.011610756570969329,-0.1294676588754946,-152.62462859250314,-10.580368342525214,8.544988083393589,-0.205,-0.9716,-0.0922,0.0745
5,484655.0,345.444066,1.0,-1.87,3.82,-8.98,9.0,-31.5,22.87,0.69,1.44,-0.25,-0.0559558693473986,0.011610756570969329,-0.1294676588754946,-152.62462859250314,-10.580368342525214,8.544988083393589,-0.205,-0.9716,-0.0922,0.0745
6,484691.0,345.46213900000004,1.0,-1.72,3.75,-8.98,9.0,-30.75,23.25,0.25,-0.44,0.06,0.06786282034131125,-0.06672012157489537,-0.07526494918836235,-152.67309729035,-10.580368342525214,8.499024412896564,-0.2047,-0.9717,-0.0922,0.0741
7,484691.0,345.46213900000004,1.0,-1.72,3.75,-8.98,9.0,-30.75,23.25,0.25,-0.44,0.06,0.06786282034131125,-0.06672012157489537,-0.07526494918836235,-152.67309729035,-10.580368342525214,8.499024412896564,-0.2047,-0.9717,-0.0922,0.0741
8,484724.0,345.465715,1.0,-2.04,3.82,-8.77,9.0,-30.75,23.25,-0.94,-0.88,-0.88,-0.24321515854747106,0.1235992459162385,0.029509844869684443,-152.62462859250314,-10.591876570929834,8.544988083393589,-0.205,-0.9716,-0.0923,0.0745
9,484724.0,345.465715,1.0,-2.04,3.82,-8.77,9.0,-30.75,23.25,-0.94,-0.88,-0.88,-0.24321515854747106,0.1235992459162385,0.029509844869684443,-152.62462859250314,-10.591876570929834,8.544988083393589,-0.205,-0.9716,-0.0923,0.0745
10,484759.0,345.509984,1.0,-1.78,3.7,-9.13,9.75,-31.5,23.37,1.12,1.69,0.94,0.011474468485815377,-0.16020755948907486,-0.20282060910093944,-152.67309729035,-10.580368342525214,8.476043091817116,-0.2045,-0.9717,-0.0922,0.0739
11,484759.0,345.509984,1.0,-1.78,3.7,-9.13,9.75,-31.5,23.37,1.12,1.69,0.94,0.011474468485815377,-0.16020755948907486,-0.20282060910093944,-152.67309729035,-10.580368342525214,8.476043091817116,-0.2045,-0.9717,-0.0922,0.0739
12,484794.0,345.575991,1.0,-1.59,3.89,-9.08,9.75,-30.37,24.19,-4.13,-0.37,-0.19,0.22640731847178025,-0.006775503100284297,-0.19611430886483028,-152.62462859250314,-10.591876570929834,8.453062112264227,-0.205,-0.9716,-0.0923,0.0737
13,484794.0,345.575991,1.0,-1.59,3.89,-9.08,9.75,-30.37,24.19,-4.13,-0.37,-0.19,0.22640731847178025,-0.006775503100284297,-0.19611430886483028,-152.62462859250314,-10.591876570929834,8.453062112264227,-0.205,-0.9716,-0.0923,0.0737
14,484831.0,345.584883,1.0,-2.05,4.06,-8.63,8.69,-30.75,22.5,5.06,2.44,-0.12,-0.2272861985886316,0.3933967832152703,0.062083311076010624,-152.57624392499284,-10.591876570929834,8.487533709607298,-0.2053,-0.9715,-0.0923,0.07400000000000001
15,484831.0,345.584883,1.0,-2.05,4.06,-8.63,8.69,-30.75,22.5,5.06,2.44,-0.12,-0.2272861985886316,0.3933967832152703,0.062083311076010624,-152.57624392499284,-10.591876570929834,8.487533709607298,-0.2053,-0.9715,-0.0923,0.07400000000000001
16,484864.0,345.604954,1.0,-1.82,3.54,-8.99,8.69,-30.75,22.5,3.31,0.81,0.56,-0.0807181933630011,-0.2300988126117427,-0.022115899628238008,-152.72165046658662,-10.580368342525214,8.441571750266656,-0.204,-0.9718,-0.0922,0.0736
17,484864.0,345.604954,1.0,-1.82,3.54,-8.99,8.69,-30.75,22.5,3.31,0.81,0.56,-0.0807181933630011,-0.2300988126117427,-0.022115899628238008,-152.72165046658662,-10.580368342525214,8.441571750266656,-0.204,-0.9718,-0.0922,0.0736
18,484900.0,345.65342200000003,1.0,-1.99,4.04,-8.86,9.38,-30.75,25.0,-7.31,-1.75,0.31,-0.15279596082223612,0.2723775067957317,-0.12732019766760416,-152.62462859250314,-10.591876570929834,8.464552559408572,-0.2053,-0.9716,-0.0923,0.0738
19,484900.0,345.65342200000003,1.0,-1.99,4.04,-8.86,9.38,-30.75,25.0,-7.31,-1.75,0.31,-0.15279596082223612,0.2723775067957317,-0.12732019766760416,-152.62462859250314,-10.591876570929834,8.464552559408572,-0.2053,-0.9716,-0.0923,0.0738
20,484937.0,345.709871,1.0,-1.71,3.91,-8.96,9.38,-30.37,23.69,3.81,3.38,1.31,0.09221196899090868,0.0732085942744869,-0.11705583272696353,-152.62462859250314,-10.568860221135683,8.407101173980415,-0.2053,-0.9716,-0.0921,0.0733
21,484937.0,345.709871,1.0,-1.71,3.91,-8.96,9.38,-30.37,23.69,3.81,3.38,1.31,0.09221196899090868,0.0732085942744869,-0.11705583272696353,-152.62462859250314,-10.568860221135683,8.407101173980415,-0.2053,-0.9716,-0.0921,0.0733
22,484970.0,345.716083,1.0,-1.66,3.99,-9.07,9.38,-30.37,23.69,-0.44,-2.19,-1.75,0.1696739095684344,0.09436503390498087,-0.2383938528056184,-152.62462859250314,-10.580368342525214,8.407101173980415,-0.2052,-0.9716,-0.0922,0.0733
23,484970.0,345.716083,1.0,-1.66,3.99,-9.07,9.38,-30.37,23.69,-0.44,-2.19,-1.75,0.1696739095684344,0.09436503390498087,-0.2383938528056184,-152.62462859250314,-10.580368342525214,8.407101173980415,-0.2052,-0.9716,-0.0922,0.0733
24,485005.0,345.736915,1.0,-1.98,3.58,-8.89,9.38,-30.75,24.19,4.5,0.75,0.5,-0.24033597395525555,-0.13264480586189986,0.024342298077060683,-152.72165046658662,-10.591876570929834,8.430081473298436,-0.2042,-0.9718,-0.0923,0.0735
25,485005.0,345.736915,1.0,-1.98,3.58,-8.89,9.38,-30.75,24.19,4.5,0.75,0.5,-0.24033597395525555,-0.13264480586189986,0.024342298077060683,-152.72165046658662,-10.591876570929834,8.430081473298436,-0.2042,-0.9718,-0.0923,0.0735
26,485042.0,345.78094100000004,1.0,-1.69,3.58,-8.87,9.0,-30.75,23.37,-3.19,-0.06,0.12,0.03154447859247342,-0.1671790965139779,0.09477808488708027,-152.72165046658662,-10.580368342525214,8.384121213370948,-0.2042,-0.9718,-0.0922,0.0731
27,485042.0,345.78094100000004,1.0,-1.69,3.58,-8.87,9.0,-30.75,23.37,-3.19,-0.06,0.12,0.03154447859247342,-0.1671790965139779,0.09477808488708027,-152.72165046658662,-10.580368342525214,8.384121213370948,-0.2042,-0.9718,-0.0922,0.0731
28,485076.0,345.842756,1.0,-1.71,3.95,-8.94,9.0,-30.75,23.37,-1.94,0.12,-0.19,0.09393638892581932,0.1220554932717386,-0.11436196508691587,-152.62462859250314,-10.591876570929834,8.372631359788455,-0.2051,-0.9716,-0.0923,0.073
29,485076.0,345.842756,1.0,-1.71,3.95,-8.94,9.0,-30.75,23.37,-1.94,0.12,-0.19,0.09393638892581932,0.1220554932717386,-0.11436196508691587,-152.62462859250314,-10.591876570929834,8.372631359788455,-0.2051,-0.9716,-0.0923,0.073
30,485111.0,345.85042000000004,1.0,-1.99,3.62,-8.9,9.38,-31.06,24.56,3.31,1.56,0.75,-0.24905834743247815,-0.10480498443795794,-0.001585613748844139,-152.67309729035,-10.580368342525214,8.384121213370948,-0.2045,-0.9717,-0.0922,0.0731
31,485111.0,345.85042000000004,1.0,-1.99,3.62,-8.9,9.38,-31.06,24.56,3.31,1.56,0.75,-0.24905834743247815,-0.10480498443795794,-0.001585613748844139,-152.67309729035,-10.580368342525214,8.384121213370948,-0.2045,-0.9717,-0.0922,0.0731
32,485146.0,345.869855,1.0,-1.86,3.74,-8.87,9.38,-30.75,23.0,-1.5,2.69,0.25,-0.10637536997756752,-0.007053658609468937,0.002939757109180263,-152.67309729035,-10.591876570929834,8.349651905481078,-0.2047,-0.9717,-0.0923,0.0728
33,485146.0,345.869855,1.0,-1.86,3.74,-8.87,9.38,-30.75,23.0,-1.5,2.69,0.25,-0.10637536997756752,-0.007053658609468937,0.002939757109180263,-152.67309729035,-10.591876570929834,8.349651905481078,-0.2047,-0.9717,-0.0923,0.0728
34,485181.0,345.92352900000003,1.0,-1.72,3.82,-9.0,9.38,-30.75,23.37,-0.12,-0.5,2.06,0.050306744186386,-0.016928407622664787,-0.12048365783420499,-152.67309729035,-10.557352206642195,8.303694005010767,-0.2051,-0.9717,-0.092,0.0724
35,485181.0,345.92352900000003,1.0,-1.72,3.82,-9.0,9.38,-30.75,23.37,-0.12,-0.5,2.06,0.050306744186386,-0.016928407622664787,-0.12048365783420499,-152.67309729035,-10.557352206642195,8.303694005010767,-0.2051,-0.9717,-0.092,0.0724
36,485216.0,345.942422,1.0,-1.81,3.67,-8.99,9.38,-30.75,23.37,1.12,2.0,0.12,-0.07486430511124073,-0.12151641549553327,-0.06982351520700014,-152.7702885732456,-10.545844298925708,8.269226458088282,-0.2045,-0.9719,-0.0919,0.0721
37,485216.0,345.942422,1.0,-1.81,3.67,-8.99,9.38,-30.75,23.37,1.12,2.0,0.12,-0.07486430511124073,-0.12151641549553327,-0.06982351520700014,-152.7702885732456,-10.545844298925708,8.269226458088282,-0.2045,-0.9719,-0.0919,0.0721
38,485251.0,346.000253,1.0,-1.69,3.88,-9.15,8.69,-31.5,23.37,1.88,3.81,1.94,0.08687858829576256,-0.021107909237585654,-0.2742729025453503,-152.7702885732456,-10.52282880334764,8.188805090876484,-0.2048,-0.9719,-0.0917,0.0714
39,485251.0,346.000253,1.0,-1.69,3.88,-9.15,8.69,-31.5,23.37,1.88,3.81,1.94,0.08687858829576256,-0.021107909237585654,-0.2742729025453503,-152.7702885732456,-10.52282880334764,8.188805090876484,-0.2048,-0.9719,-0.0917,0.0714
40,485285.0,346.04333399999996,1.0,-1.97,3.73,-8.78,9.38,-31.06,23.37,3.94,-3.19,2.0,-0.25543498256255304,0.052617620840367474,0.06939246229153362,-152.8678214061549,-10.453784866884499,8.188805090876484,-0.204,-0.9721,-0.0911,0.0714
41,485285.0,346.04333399999996,1.0,-1.97,3.73,-8.78,9.38,-31.06,23.37,3.94,-3.19,2.0,-0.25543498256255304,0.052617620840367474,0.06939246229153362,-152.8678214061549,-10.453784866884499,8.188805090876484,-0.204,-0.9721,-0.0911,0.0714
42,485318.0,346.06245,1.0,-2.29,3.91,-8.66,9.38,-31.06,23.37,7.88,8.0,4.81,-0.5554729040668113,0.33922654041777545,0.05451304407471192,-153.11317220133924,-10.304202691653053,8.1313637329408,-0.2025,-0.9726,-0.0898,0.0709
43,485318.0,346.06245,1.0,-2.29,3.91,-8.66,9.38,-31.06,23.37,7.88,8.0,4.81,-0.5554729040668113,0.33922654041777545,0.05451304407471192,-153.11317220133924,-10.304202691653053,8.1313637329408,-0.2025,-0.9726,-0.0898,0.0709
44,485355.0,346.105578,1.0,-1.43,3.7,-9.53,9.0,-31.06,24.19,7.31,-6.5,7.0,0.31888344695781295,-0.2772001644932143,-0.5072858838447889,-153.4604028099656,-10.097117916179354,8.096899901459961,-0.2,-0.9733,-0.08800000000000001,0.0706
45,485355.0,346.105578,1.0,-1.43,3.7,-9.53,9.0,-31.06,24.19,7.31,-6.5,7.0,0.31888344695781295,-0.2772001644932143,-0.5072858838447889,-153.4604028099656,-10.097117916179354,8.096899901459961,-0.2,-0.9733,-0.08800000000000001,0.0706
46,485390.0,346.176982,1.0,-1.36,3.33,-9.19,8.69,-31.06,24.19,4.44,-12.81,10.56,0.32762624008526275,-0.4404819069319808,-0.046940043048936175,-153.76161968319718,-9.683046840720888,8.430081473298436,-0.1974,-0.9739,-0.0844,0.0735
47,485390.0,346.176982,1.0,-1.36,3.33,-9.19,8.69,-31.06,24.19,4.44,-12.81,10.56,0.32762624008526275,-0.4404819069319808,-0.046940043048936175,-153.76161968319718,-9.683046840720888,8.430081473298436,-0.1974,-0.9739,-0.0844,0.0735
48,485425.0,346.196829,1.0,-2.03,3.38,-8.69,8.69,-31.06,24.19,11.88,-23.94,13.38,-0.2902113388076071,-0.10453774419481876,0.26902717044408675,-153.8627830260387,-9.17713147157167,9.016196458354324,-0.1964,-0.9741,-0.08,0.0786
49,485425.0,346.196829,1.0,-2.03,3.38,-8.69,8.69,-31.06,24.19,11.88,-23.94,13.38,-0.2902113388076071,-0.10453774419481876,0.26902717044408675,-153.8627830260387,-9.17713147157167,9.016196458354324,-0.1964,-0.9741,-0.08,0.0786
50,485459.0,346.200374,1.0,-1.65,3.4,-9.19,9.38,-30.0,23.75,1.19,-12.06,14.63,0.1971838525812014,-0.3211444530610834,-0.12293129875320476,-154.0662728728033,-8.510515201802361,9.430066128049686,-0.1953,-0.9745,-0.0742,0.0822
51,485459.0,346.200374,1.0,-1.65,3.4,-9.19,9.38,-30.0,23.75,1.19,-12.06,14.63,0.1971838525812014,-0.3211444530610834,-0.12293129875320476,-154.0662728728033,-8.510515201802361,9.430066128049686,-0.1953,-0.9745,-0.0742,0.0822
52,485494.0,346.240526,1.0,-2.26,3.78,-8.05,8.25,-31.06,24.19,-9.06,3.13,9.88,-0.489258301698942,0.5131524558362053,0.6581090851170172,-154.01525359440276,-8.188805090876484,9.464560757916416,-0.1965,-0.9744,-0.0714,0.0825
53,485494.0,346.240526,1.0,-2.26,3.78,-8.05,8.25,-31.06,24.19,-9.06,3.13,9.88,-0.489258301698942,0.5131524558362053,0.6581090851170172,-154.01525359440276,-8.188805090876484,9.464560757916416,-0.1965,-0.9744,-0.0714,0.0825
54,485531.0,346.298366,1.0,-1.35,3.64,-9.46,8.69,-30.0,23.75,8.75,-0.56,19.0,0.4827096954701861,-0.2704488645641645,-0.4040085860832239,-154.27134430279997,-7.786758050274272,9.085166406176855,-0.1968,-0.9749,-0.0679,0.0792
55,485531.0,346.298366,1.0,-1.35,3.64,-9.46,8.69,-30.0,23.75,8.75,-0.56,19.0,0.4827096954701861,-0.2704488645641645,-0.4040085860832239,-154.27134430279997,-7.786758050274272,9.085166406176855,-0.1968,-0.9749,-0.0679,0.0792
56,485564.0,346.314615,1.0,-2.38,4.23,-8.15,8.69,-30.0,23.75,-6.69,11.19,19.5,-0.6579912133457726,0.8672791659945016,0.3835573860334112,-154.47803544959174,-7.143680335170353,8.889760035755181,-0.1974,-0.9753,-0.0623,0.0775
57,485564.0,346.314615,1.0,-2.38,4.23,-8.15,8.69,-30.0,23.75,-6.69,11.19,19.5,-0.6579912133457726,0.8672791659945016,0.3835573860334112,-154.47803544959174,-7.143680335170353,8.889760035755181,-0.1974,-0.9753,-0.0623,0.0775
58,485601.0,346.317394,1.0,-2.09,4.44,-8.32,7.19,-30.75,24.19,-17.0,51.06,-9.25,-0.5560965198410198,0.9291441057180896,0.20813199504579494,-154.58200075536982,-7.35035834348681,7.3733240323499585,-0.2006,-0.9755,-0.0641,0.0643
59,485601.0,346.317394,1.0,-2.09,4.44,-8.32,7.19,-30.75,24.19,-17.0,51.06,-9.25,-0.5560965198410198,0.9291441057180896,0.20813199504579494,-154.58200075536982,-7.35035834348681,7.3733240323499585,-0.2006,-0.9755,-0.0641,0.0643
60,485636.0,346.357008,1.0,-0.49,3.94,-9.22,7.19,-31.5,24.56,14.69,25.62,6.63,0.8546340373687852,0.009439249238609282,-0.1954303617419768,-155.05511767406654,-7.5915129998336095,6.271288310584378,-0.1984,-0.9764,-0.0662,0.0547
61,485636.0,346.357008,1.0,-0.49,3.94,-9.22,7.19,-31.5,24.56,14.69,25.62,6.63,0.8546340373687852,0.009439249238609282,-0.1954303617419768,-155.05511767406654,-7.5915129998336095,6.271288310584378,-0.1984,-0.9764,-0.0662,0.0547
62,485670.0,346.423023,1.0,-2.12,3.23,-7.77,7.19,-31.5,24.56,28.12,35.88,10.63,-1.0921048015462214,0.22502390465642708,1.201019788053122,-156.0841409493743,-7.1781250358345785,5.525454047712893,-0.1918,-0.9783,-0.0626,0.0482
63,485670.0,346.423023,1.0,-2.12,3.23,-7.77,7.19,-31.5,24.56,28.12,35.88,10.63,-1.0921048015462214,0.22502390465642708,1.201019788053122,-156.0841409493743,-7.1781250358345785,5.525454047712893,-0.1918,-0.9783,-0.0626,0.0482
64,485705.0,346.431758,1.0,-0.61,3.79,-9.76,6.75,-30.0,23.25,-9.0,47.88,-2.94,0.3655126935886502,-0.13074526398717334,-0.6739561917605954,-156.41828103776766,-7.407773121999347,4.068855279934243,-0.1904,-0.9789,-0.0646,0.0355
65,485705.0,346.431758,1.0,-0.61,3.79,-9.76,6.75,-30.0,23.25,-9.0,47.88,-2.94,0.3655126935886502,-0.13074526398717334,-0.6739561917605954,-156.41828103776766,-7.407773121999347,4.068855279934243,-0.1904,-0.9789,-0.0646,0.0355
66,485742.0,346.49845,1.0,-1.65,4.65,-7.33,4.88,-30.37,25.87,-9.94,33.63,-9.63,-0.7953937514189875,1.6788405291756907,1.1682043494329513,-156.19500732541925,-7.890132207309978,2.87655022805785,-0.1926,-0.9785,-0.0688,0.0251
67,485742.0,346.49845,1.0,-1.65,4.65,-7.33,4.88,-30.37,25.87,-9.94,33.63,-9.63,-0.7953937514189875,1.6788405291756907,1.1682043494329513,-156.19500732541925,-7.890132207309978,2.87655022805785,-0.1926,-0.9785,-0.0688,0.0251
68,485777.0,346.516145,1.0,-0.18,3.44,-10.26,4.88,-30.37,25.87,26.62,67.94,9.0,0.25145297154708285,-0.5925985336435531,-0.9970159695227352,-156.814109146573,-8.200293609338797,1.1917736982377245,-0.1873,-0.9796,-0.0715,0.0104
69,485777.0,346.516145,1.0,-0.18,3.44,-10.26,4.88,-30.37,25.87,26.62,67.94,9.0,0.25145297154708285,-0.5925985336435531,-0.9970159695227352,-156.814109146573,-8.200293609338797,1.1917736982377245,-0.1873,-0.9796,-0.0715,0.0104
70,485812.0,346.563562,1.0,-1.09,3.84,-9.14,4.19,-30.37,25.0,16.37,47.5,-4.75,-0.8705496780611564,0.4710940084504918,-0.11773983984555868,-157.56748354792904,-8.211782210366408,-0.5615008861828721,-0.1807,-0.9809,-0.0716,-0.0049
71,485812.0,346.563562,1.0,-1.09,3.84,-9.14,4.19,-30.37,25.0,16.37,47.5,-4.75,-0.8705496780611564,0.4710940084504918,-0.11773983984555868,-157.56748354792904,-8.211782210366408,-0.5615008861828721,-0.1807,-0.9809,-0.0716,-0.0049
72,485847.0,346.625262,1.0,1.09,3.95,-9.89,3.38,-31.06,26.19,-2.0,14.13,-8.38,1.1358640813129328,0.03510953055095434,-0.8381271282280736,-157.56748354792904,-8.68288738926451,-1.432431792389882,-0.1788,-0.9809,-0.0757,-0.0125
73,485847.0,346.625262,1.0,1.09,3.95,-9.89,3.38,-31.06,26.19,-2.0,14.13,-8.38,1.1358640813129328,0.03510953055095434,-0.8381271282280736,-157.56748354792904,-8.68288738926451,-1.432431792389882,-0.1788,-0.9809,-0.0757,-0.0125
74,485881.0,346.641952,1.0,-1.13,3.39,-8.57,3.0,-30.37,25.37,31.56,24.44,-2.94,-1.1033631296736766,0.4442834844099175,0.5980072124032692,-158.16444882979192,-8.866772764864926,-1.741858774764144,-0.1724,-0.9819,-0.0773,-0.0152
75,485881.0,346.641952,1.0,-1.13,3.39,-8.57,3.0,-30.37,25.37,31.56,24.44,-2.94,-1.1033631296736766,0.4442834844099175,0.5980072124032692,-158.16444882979192,-8.866772764864926,-1.741858774764144,-0.1724,-0.9819,-0.0773,-0.0152
76,485916.0,346.685831,1.0,1.07,1.7,-10.68,3.0,-30.37,25.37,30.31,55.13,1.06,0.4009634880378979,-1.9361263298372091,-0.8792258703333022,-158.9028148870971,-9.17713147157167,-3.4267983429423063,-0.1618,-0.9831,-0.08,-0.0299
77,485916.0,346.685831,1.0,1.07,1.7,-10.68,3.0,-30.37,25.37,30.31,55.13,1.06,0.4009634880378979,-1.9361263298372091,-0.8792258703333022,-158.9028148870971,-9.17713147157167,-3.4267983429423063,-0.1618,-0.9831,-0.08,-0.0299
78,485953.0,346.694364,1.0,0.59,3.85,-9.31,1.19,-30.0,24.56,-18.0,-11.19,6.13,0.3138586809411897,0.5417612529811782,-0.2658217658162805,-158.9028148870971,-8.602444609340731,-3.5529075421905287,-0.1643,-0.9831,-0.075,-0.031
79,485953.0,346.694364,1.0,0.59,3.85,-9.31,1.19,-30.0,24.56,-18.0,-11.19,6.13,0.3138586809411897,0.5417612529811782,-0.2658217658162805,-158.9028148870971,-8.602444609340731,-3.5529075421905287,-0.1643,-0.9831,-0.075,-0.031
80,485988.0,346.71481,1.0,-0.23,3.06,-9.2,1.37,-30.0,27.19,4.06,9.19,3.19,-0.6317358203827951,0.011375696034589213,0.1289808360543212,-159.09143242656367,-8.510515201802361,-3.7822081305683333,-0.1622,-0.9834,-0.0742,-0.033
81,485988.0,346.71481,1.0,-0.23,3.06,-9.2,1.37,-30.0,27.19,4.06,9.19,3.19,-0.6317358203827951,0.011375696034589213,0.1289808360543212,-159.09143242656367,-8.510515201802361,-3.7822081305683333,-0.1622,-0.9834,-0.0742,-0.033
82,486023.0,346.76456,1.0,1.28,2.7,-10.41,1.37,-30.0,27.19,3.13,19.62,2.0,0.5919132609716715,-0.9191614466948029,-0.9683804373767692,-159.0283735374385,-8.544988083393589,-4.378462866761455,-0.1614,-0.9833,-0.0745,-0.0382
83,486023.0,346.76456,1.0,1.28,2.7,-10.41,1.37,-30.0,27.19,3.13,19.62,2.0,0.5919132609716715,-0.9191614466948029,-0.9683804373767692,-159.0283735374385,-8.544988083393589,-4.378462866761455,-0.1614,-0.9833,-0.0745,-0.0382
84,486055.0,346.824415,1.0,0.09,3.84,-9.06,0.75,-30.0,25.87,-18.31,-11.69,5.81,-0.29245966098147635,0.6868936390614733,-0.005584428269409969,-158.840311807755,-8.165828301178744,-4.240855681461491,-0.165,-0.983,-0.0712,-0.037000000000000005
85,486055.0,346.824415,1.0,0.09,3.84,-9.06,0.75,-30.0,25.87,-18.31,-11.69,5.81,-0.29245966098147635,0.6868936390614733,-0.005584428269409969,-158.840311807755,-8.165828301178744,-4.240855681461491,-0.165,-0.983,-0.0712,-0.037000000000000005
86,486092.0,346.831869,1.0,0.06,3.08,-9.35,1.06,-30.0,25.87,3.56,10.31,-3.31,-0.4718841835637589,-0.07574849293434592,-0.026156694078787623,-158.96550158142097,-8.303694005010767,-4.424333322525307,-0.1633,-0.9832,-0.0724,-0.0386
87,486092.0,346.831869,1.0,0.06,3.08,-9.35,1.06,-30.0,25.87,3.56,10.31,-3.31,-0.4718841835637589,-0.07574849293434592,-0.026156694078787623,-158.96550158142097,-8.303694005010767,-4.424333322525307,-0.1633,-0.9832,-0.0724,-0.0386
88,486127.0,346.89574300000004,1.0,1.29,3.42,-9.78,1.06,-30.0,25.87,3.75,14.31,6.25,0.6797573325576668,-0.08605210030935195,-0.6115756169112831,-158.840311807755,-8.269226458088282,-4.768384859798278,-0.1636,-0.983,-0.0721,-0.0416
89,486127.0,346.89574300000004,1.0,1.29,3.42,-9.78,1.06,-30.0,25.87,3.75,14.31,6.25,0.6797573325576668,-0.08605210030935195,-0.6115756169112831,-158.840311807755,-8.269226458088282,-4.768384859798278,-0.1636,-0.983,-0.0721,-0.0416
90,486162.0,346.9141,1.0,0.45,2.82,-9.44,0.69,-29.56,25.87,2.81,-5.19,-0.94,-0.1964461339093684,-0.3581619399155347,-0.047365878882478896,-159.21811781644797,-8.039461810968866,-4.802792327898413,-0.1611,-0.9836,-0.0701,-0.0419
91,486162.0,346.9141,1.0,0.45,2.82,-9.44,0.69,-29.56,25.87,2.81,-5.19,-0.94,-0.1964461339093684,-0.3581619399155347,-0.047365878882478896,-159.21811781644797,-8.039461810968866,-4.802792327898413,-0.1611,-0.9836,-0.0701,-0.0419
92,486197.0,346.91730099999995,1.0,0.19,3.18,-9.32,0.69,-29.25,26.69,-6.75,9.5,-11.44,-0.4163074745468153,0.009293307178219969,-0.0339547436668326,-158.71585002764485,-8.407101173980415,-4.96336629149859,-0.1635,-0.9828,-0.0733,-0.0433
93,486197.0,346.91730099999995,1.0,0.19,3.18,-9.32,0.69,-29.25,26.69,-6.75,9.5,-11.44,-0.4163074745468153,0.009293307178219969,-0.0339547436668326,-158.71585002764485,-8.407101173980415,-4.96336629149859,-0.1635,-0.9828,-0.0733,-0.0433
94,486234.0,346.958017,1.0,1.29,2.36,-9.68,0.69,-29.25,25.87,23.44,14.94,21.06,0.4534920109060525,-0.9754984304685164,-0.1822862701039316,-159.09143242656367,-8.108387763620353,-5.364844561963229,-0.1605,-0.9834,-0.0707,-0.0468
95,486234.0,346.958017,1.0,1.29,2.36,-9.68,0.69,-29.25,25.87,23.44,14.94,21.06,0.4534920109060525,-0.9754984304685164,-0.1822862701039316,-159.09143242656367,-8.108387763620353,-5.364844561963229,-0.1605,-0.9834,-0.0707,-0.0468
96,486266.0,347.023383,1.0,1.35,2.67,-9.58,0.69,-29.25,25.87,-4.13,10.38,18.06,0.4636890530126997,-0.6168224833527087,-0.19996393709914173,-159.3455716366145,-7.4192563007107175,-5.881128455236522,-0.1591,-0.9838,-0.0647,-0.0513
97,486266.0,347.023383,1.0,1.35,2.67,-9.58,0.69,-29.25,25.87,-4.13,10.38,18.06,0.4636890530126997,-0.6168224833527087,-0.19996393709914173,-159.3455716366145,-7.4192563007107175,-5.881128455236522,-0.1591,-0.9838,-0.0647,-0.0513
98,486303.0,347.042186,1.0,2.58,2.29,-11.06,-0.06,-28.87,27.56,-15.69,0.81,18.62,1.3847162843102436,-1.6602900053614882,-1.5753576396944489,-159.0283735374385,-7.063311874799694,-6.2024314124588535,-0.1622,-0.9833,-0.0616,-0.0541
99,486303.0,347.042186,1.0,2.58,2.29,-11.06,-0.06,-28.87,27.56,-15.69,0.81,18.62,1.3847162843102436,-1.6602900053614882,-1.5753576396944489,-159.0283735374385,-7.063311874799694,-6.2024314124588535,-0.1622,-0.9833,-0.0616,-0.0541
100,486340.0,347.091348,1.0,1.32,3.56,-8.88,-0.75,-30.37,27.06,-24.06,-40.75,42.88,0.6367606689096591,0.2807917738658108,0.17409624565951276,-159.09143242656367,-5.307486603594608,-5.261601195679236,-0.1693,-0.9834,-0.0463,-0.0459
101,486340.0,347.091348,1.0,1.32,3.56,-8.88,-0.75,-30.37,27.06,-24.06,-40.75,42.88,0.6367606689096591,0.2807917738658108,0.17409624565951276,-159.09143242656367,-5.307486603594608,-5.261601195679236,-0.1693,-0.9834,-0.0463,-0.0459
102,486375.0,347.112369,1.0,0.37,4.49,-9.21,-0.75,-30.37,27.06,-17.25,-26.19,18.81,-0.2225112149103502,1.0811598346240363,-0.3866165113414368,-159.15467994543428,-4.298191253728037,-4.6766337060034,-0.1725,-0.9835,-0.0375,-0.0408
103,486375.0,347.112369,1.0,0.37,4.49,-9.21,-0.75,-30.37,27.06,-17.25,-26.19,18.81,-0.2225112149103502,1.0811598346240363,-0.3866165113414368,-159.15467994543428,-4.298191253728037,-4.6766337060034,-0.1725,-0.9835,-0.0375,-0.0408
104,486408.0,347.159736,1.0,-0.64,3.8,-9.18,-0.75,-30.37,25.87,-7.75,-18.94,7.5,-1.1631821869640493,0.4632765781405801,-0.07031218541287565,-159.0283735374385,-3.793673550039814,-3.942727502383202,-0.1753,-0.9833,-0.0331,-0.0344
105,486408.0,347.159736,1.0,-0.64,3.8,-9.18,-0.75,-30.37,25.87,-7.75,-18.94,7.5,-1.1631821869640493,0.4632765781405801,-0.07031218541287565,-159.0283735374385,-3.793673550039814,-3.942727502383202,-0.1753,-0.9833,-0.0331,-0.0344
106,486445.0,347.22346600000003,1.0,0.79,1.76,-9.7,-0.06,-31.06,25.5,14.25,-14.88,45.69,0.15620180305236453,-1.6640826422381192,0.05892565241378556,-159.66766312617878,-2.8306993879474716,-3.6904861286986015,-0.1721,-0.9843,-0.0247,-0.0322
107,486445.0,347.22346600000003,1.0,0.79,1.76,-9.7,-0.06,-31.06,25.5,14.25,-14.88,45.69,0.15620180305236453,-1.6640826422381192,0.05892565241378556,-159.66766312617878,-2.8306993879474716,-3.6904861286986015,-0.1721,-0.9843,-0.0247,-0.0322
108,486481.0,347.241069,1.0,0.04,5.06,-8.84,-0.69,-29.56,25.87,-14.13,-19.75,27.87,-0.4067586173597432,1.6775914482043142,-0.2318276913691122,-159.3455716366145,-1.3865917007687605,-3.163128706652845,-0.1765,-0.9838,-0.0121,-0.0276
109,486481.0,347.241069,1.0,0.04,5.06,-8.84,-0.69,-29.56,25.87,-14.13,-19.75,27.87,-0.4067586173597432,1.6775914482043142,-0.2318276913691122,-159.3455716366145,-1.3865917007687605,-3.163128706652845,-0.1765,-0.9838,-0.0121,-0.0276
110,486514.0,347.246426,1.0,-0.09,4.73,-8.62,-0.69,-29.56,25.87,-18.37,-6.56,-4.63,-0.5037291269001488,1.433095064520475,0.09182136009288833,-159.2817477883131,-1.4668120111410634,-3.0370318442136965,-0.1773,-0.9837,-0.0128,-0.0265
111,486514.0,347.246426,1.0,-0.09,4.73,-8.62,-0.69,-29.56,25.87,-18.37,-6.56,-4.63,-0.5037291269001488,1.433095064520475,0.09182136009288833,-159.2817477883131,-1.4668120111410634,-3.0370318442136965,-0.1773,-0.9837,-0.0128,-0.0265
112,486551.0,347.28551600000003,1.0,0.63,3.72,-9.66,-0.37,-30.0,25.87,6.31,41.44,8.44,-0.028031434465102003,0.11750250862114098,-0.5633214271134594,-159.21811781644797,-1.5470330404085568,-4.000057708800217,-0.1765,-0.9836,-0.0135,-0.0349
113,486551.0,347.28551600000003,1.0,0.63,3.72,-9.66,-0.37,-30.0,25.87,6.31,41.44,8.44,-0.028031434465102003,0.11750250862114098,-0.5633214271134594,-159.21811781644797,-1.5470330404085568,-4.000057708800217,-0.1765,-0.9836,-0.0135,-0.0349
114,486586.0,347.306833,1.0,-0.01,3.97,-8.67,-1.56,-30.25,25.5,10.5,10.69,-8.69,-0.6787585124486007,0.7412540181557181,0.32404859730745983,-159.21811781644797,-1.6616358358374437,-4.584885551911774,-0.1755,-0.9836,-0.0145,-0.04
115,486586.0,347.306833,1.0,-0.01,3.97,-8.67,-1.56,-30.25,25.5,10.5,10.69,-8.69,-0.6787585124486007,0.7412540181557181,0.32404859730745983,-159.21811781644797,-1.6616358358374437,-4.584885551911774,-0.1755,-0.9836,-0.0145,-0.04
116,486621.0,347.356096,1.0,1.17,1.69,-10.43,-1.56,-30.25,25.5,24.06,15.44,8.94,0.12193529298469047,-1.799724894778758,-0.6698008344877149,-160.26052613773837,-1.94815034703792,-5.6516548202737225,-0.1634,-0.9852,-0.017,-0.0493
117,486621.0,347.356096,1.0,1.17,1.69,-10.43,-1.56,-30.25,25.5,24.06,15.44,8.94,0.12193529298469047,-1.799724894778758,-0.6698008344877149,-160.26052613773837,-1.94815034703792,-5.6516548202737225,-0.1634,-0.9852,-0.017,-0.0493
118,486656.0,347.430967,1.0,0.75,4.67,-8.94,-1.56,-29.87,26.19,-5.88,-40.75,1.12,0.01852061973539055,1.4871281170713635,-0.1975044845159424,-160.32749140960402,-1.5355728478655368,-4.860139072417077,-0.165,-0.9853,-0.0134,-0.0424
119,486656.0,347.430967,1.0,0.75,4.67,-8.94,-1.56,-29.87,26.19,-5.88,-40.75,1.12,0.01852061973539055,1.4871281170713635,-0.1975044845159424,-160.32749140960402,-1.5355728478655368,-4.860139072417077,-0.165,-0.9853,-0.0134,-0.0424
120,486692.0,347.435962,1.0,0.95,3.46,-10.17,-1.19,-29.5,26.19,38.25,-20.81,-10.0,0.3185906145410679,0.11494297557285282,-0.9724171272004264,-161.4314273445042,-2.051298459271143,-3.7592774051414257,-0.1565,-0.9869,-0.0179,-0.0328
121,486692.0,347.435962,1.0,0.95,3.46,-10.17,-1.19,-29.5,26.19,38.25,-20.81,-10.0,0.3185906145410679,0.11494297557285282,-0.9724171272004264,-161.4314273445042,-2.051298459271143,-3.7592774051414257,-0.1565,-0.9869,-0.0179,-0.0328
122,486727.0,347.481597,1.0,0.46,1.66,-10.79,-1.19,-29.5,26.19,69.87,-120.19,12.94,0.15731210715601585,-1.4354812942547146,-1.0241369683964816,-163.53886738912243,-1.5928739664684124,-1.6043342375287626,-0.1413,-0.9897,-0.0139,-0.013999999999999999
123,486727.0,347.481597,1.0,0.46,1.66,-10.79,-1.19,-29.5,26.19,69.87,-120.19,12.94,0.15731210715601585,-1.4354812942547146,-1.0241369683964816,-163.53886738912243,-1.5928739664684124,-1.6043342375287626,-0.1413,-0.9897,-0.0139,-0.013999999999999999
124,486762.0,347.542843,1.0,-2.53,2.04,-7.15,-2.69,-28.75,26.69,34.81,-152.69,10.5,-1.858371342716021,0.14664598769535353,2.177105393218759,-164.52900617164656,-0.02291831195802168,5.15836210329675,-0.127,-0.9909,-0.0002,0.045
125,486762.0,347.542843,1.0,-2.53,2.04,-7.15,-2.69,-28.75,26.69,34.81,-152.69,10.5,-1.858371342716021,0.14664598769535353,2.177105393218759,-164.52900617164656,-0.02291831195802168,5.15836210329675,-0.127,-0.9909,-0.0002,0.045
126,486797.0,347.550213,1.0,-1.78,1.81,-6.55,1.37,-28.0,28.25,21.37,-23.81,4.5,-0.9560187240874044,0.16429837030913366,2.8492054802996747,-164.52900617164656,0.3552344019497601,6.982946893042854,-0.1201,-0.9909,0.0031,0.0609
127,486797.0,347.550213,1.0,-1.78,1.81,-6.55,1.37,-28.0,28.25,21.37,-23.81,4.5,-0.9560187240874044,0.16429837030913366,2.8492054802996747,-164.52900617164656,0.3552344019497601,6.982946893042854,-0.1201,-0.9909,0.0031,0.0609
128,486834.0,347.568854,1.0,-0.92,2.49,-8.35,3.25,-26.87,29.69,-42.69,143.81,-2.63,-0.3232924173509196,0.3194062037968146,1.056652189151162,-165.04848521846108,-0.06875493954099557,3.9541934642266314,-0.1259,-0.9915,-0.0006,0.0345
129,486834.0,347.568854,1.0,-0.92,2.49,-8.35,3.25,-26.87,29.69,-42.69,143.81,-2.63,-0.3232924173509196,0.3194062037968146,1.056652189151162,-165.04848521846108,-0.06875493954099557,3.9541934642266314,-0.1259,-0.9915,-0.0006,0.0345
130,486866.0,347.616452,1.0,0.85,3.14,-10.48,3.25,-26.87,29.69,-56.75,211.75,-14.63,0.2181249869243844,-0.009056879597891143,-1.1644410789679984,-162.91040944456057,-1.5470330404085568,-3.564372225995784,-0.1445,-0.9889,-0.0135,-0.0311
131,486866.0,347.616452,1.0,0.85,3.14,-10.48,3.25,-26.87,29.69,-56.75,211.75,-14.63,0.2181249869243844,-0.009056879597891143,-1.1644410789679984,-162.91040944456057,-1.5470330404085568,-3.564372225995784,-0.1445,-0.9889,-0.0135,-0.0311
132,486905.0,347.639787,1.0,1.71,3.29,-8.7,0.25,-27.37,28.37,-6.44,104.56,1.5,0.6296471463535764,0.5575175509228225,0.3869409465577576,-161.57402592832648,-1.9137679978932431,-7.155161830094744,-0.1467,-0.9871,-0.0167,-0.0624
133,486905.0,347.639787,1.0,1.71,3.29,-8.7,0.25,-27.37,28.37,-6.44,104.56,1.5,0.6296471463535764,0.5575175509228225,0.3869409465577576,-161.57402592832648,-1.9137679978932431,-7.155161830094744,-0.1467,-0.9871,-0.0167,-0.0624
134,486940.0,347.683809,1.0,2.06,3.3,-9.79,-4.19,-28.06,26.37,-8.13,121.25,5.94,0.03598663924095598,0.18314500282197546,-0.7262917956113988,-159.15467994543428,-2.0398374773549266,-11.593515641253694,-0.149,-0.9835,-0.0178,-0.10099999999999999
135,486940.0,347.683809,1.0,2.06,3.3,-9.79,-4.19,-28.06,26.37,-8.13,121.25,5.94,0.03598663924095598,0.18314500282197546,-0.7262917956113988,-159.15467994543428,-2.0398374773549266,-11.593515641253694,-0.149,-0.9835,-0.0178,-0.10099999999999999
136,486975.0,347.700779,1.0,2.91,3.28,-10.92,-4.19,-28.06,26.37,-7.06,85.87,-7.25,0.06639913315445553,-0.3158923041742692,-1.9563727070800037,-157.04331809093284,-2.670224968889185,-14.46546520944767,-0.1523,-0.98,-0.0233,-0.1259
137,486975.0,347.700779,1.0,2.91,3.28,-10.92,-4.19,-28.06,26.37,-7.06,85.87,-7.25,0.06639913315445553,-0.3158923041742692,-1.9563727070800037,-157.04331809093284,-2.670224968889185,-14.46546520944767,-0.1523,-0.98,-0.0233,-0.1259
138,487008.0,347.744037,1.0,2.85,3.35,-9.08,-6.75,-29.25,25.37,5.19,6.5,5.81,0.32784322933010857,0.332980451224598,-0.27169524294959224,-156.70033876277134,-2.3034454566839293,-15.262847451308847,-0.1509,-0.9794,-0.0201,-0.1328
139,487008.0,347.744037,1.0,2.85,3.35,-9.08,-6.75,-29.25,25.37,5.19,6.5,5.81,0.32784322933010857,0.332980451224598,-0.27169524294959224,-156.70033876277134,-2.3034454566839293,-15.262847451308847,-0.1509,-0.9794,-0.0201,-0.1328
140,487045.0,347.762079,1.0,1.83,2.19,-8.59,-7.19,-28.87,25.87,-2.94,75.81,-1.12,-0.6994604152112154,-0.5148253750708777,0.7967215895887598,-156.0841409493743,-2.4065996467302937,-16.396650200988272,-0.149,-0.9783,-0.021,-0.1426
141,487045.0,347.762079,1.0,1.83,2.19,-8.59,-7.19,-28.87,25.87,-2.94,75.81,-1.12,-0.6994604152112154,-0.5148253750708777,0.7967215895887598,-156.0841409493743,-2.4065996467302937,-16.396650200988272,-0.149,-0.9783,-0.021,-0.1426
142,487079.0,347.846455,1.0,4.4,3.32,-10.31,-7.19,-28.87,25.87,-26.75,99.62,-12.19,0.5489888268318445,-0.36762212929498905,-1.8656233534674571,-152.72165046658662,-3.117274866889664,-20.029302535998788,-0.1569,-0.9718,-0.0272,-0.1739
143,487079.0,347.846455,1.0,4.4,3.32,-10.31,-7.19,-28.87,25.87,-26.75,99.62,-12.19,0.5489888268318445,-0.36762212929498905,-1.8656233534674571,-152.72165046658662,-3.117274866889664,-20.029302535998788,-0.1569,-0.9718,-0.0272,-0.1739
144,487114.0,347.856984,1.0,3.24,3.49,-8.88,-8.25,-28.5,25.0,4.75,-9.25,11.88,-0.0992458525632231,0.3183719257886381,-0.26414389013689643,-152.3835367338065,-3.1287382797377283,-20.343563363128432,-0.158,-0.9711,-0.0273,-0.1766
145,487114.0,347.856984,1.0,3.24,3.49,-8.88,-8.25,-28.5,25.0,4.75,-9.25,11.88,-0.0992458525632231,0.3183719257886381,-0.26414389013689643,-152.3835367338065,-3.1287382797377283,-20.343563363128432,-0.158,-0.9711,-0.0273,-0.1766
146,487151.0,347.904449,1.0,3.17,3.23,-9.21,-9.75,-30.0,23.37,14.0,4.0,20.69,-0.3152200358639711,0.10182391674947633,-0.4498683283104281,-152.7702885732456,-2.4065996467302937,-20.459995384570266,-0.1531,-0.9719,-0.021,-0.1776
147,487151.0,347.904449,1.0,3.17,3.23,-9.21,-9.75,-30.0,23.37,14.0,4.0,20.69,-0.3152200358639711,0.10182391674947633,-0.4498683283104281,-152.7702885732456,-2.4065996467302937,-20.459995384570266,-0.1531,-0.9719,-0.021,-0.1776
148,487186.0,347.92220499999996,1.0,3.82,2.83,-9.27,-10.25,-29.25,24.5,4.5,9.56,-4.06,0.2297891590319925,-0.34842136542713753,-0.6029609194582903,-152.62462859250314,-2.4065996467302937,-20.727870288694774,-0.1526,-0.9716,-0.021,-0.1799
149,487186.0,347.92220499999996,1.0,3.82,2.83,-9.27,-10.25,-29.25,24.5,4.5,9.56,-4.06,0.2297891590319925,-0.34842136542713753,-0.6029609194582903,-152.62462859250314,-2.4065996467302937,-20.727870288694774,-0.1526,-0.9716,-0.021,-0.1799
150,487219.0,347.970048,1.0,2.89,2.95,-8.89,-10.25,-29.25,24.5,-6.69,-9.0,4.0,-0.4923010863633304,-0.048116691285376316,0.016756005457196466,-152.62462859250314,-2.269061145645111,-20.623036118505983,-0.1534,-0.9716,-0.0198,-0.179
151,487219.0,347.970048,1.0,2.89,2.95,-8.89,-10.25,-29.25,24.5,-6.69,-9.0,4.0,-0.4923010863633304,-0.048116691285376316,0.016756005457196466,-152.62462859250314,-2.269061145645111,-20.623036118505983,-0.1534,-0.9716,-0.0198,-0.179
152,487256.0,347.98909100000003,1.0,2.91,3.27,-8.94,-10.25,-28.87,24.56,-8.69,2.94,2.81,-0.5128856537575961,0.2119369726727054,-0.13199331917510726,-152.47972490837182,-2.1086036789736795,-20.681275164117206,-0.155,-0.9713,-0.0184,-0.1795
153,487256.0,347.98909100000003,1.0,2.91,3.27,-8.94,-10.25,-28.87,24.56,-8.69,2.94,2.81,-0.5128856537575961,0.2119369726727054,-0.13199331917510726,-152.47972490837182,-2.1086036789736795,-20.681275164117206,-0.155,-0.9713,-0.0184,-0.1795
154,487292.0,348.031743,1.0,3.56,3.15,-8.98,-11.0,-29.25,25.0,4.13,5.81,1.94,0.042204770204770266,0.04606385486385478,-0.3536943287443286,-152.3835367338065,-1.9366895446536667,-20.890980569305803,-0.1543,-0.9711,-0.0169,-0.1813
155,487292.0,348.031743,1.0,3.56,3.15,-8.98,-11.0,-29.25,25.0,4.13,5.81,1.94,0.042204770204770266,0.04606385486385478,-0.3536943287443286,-152.3835367338065,-1.9366895446536667,-20.890980569305803,-0.1543,-0.9711,-0.0169,-0.1813
156,487325.0,348.090798,1.0,3.05,3.17,-8.98,-11.0,-29.25,25.0,-2.13,-0.31,8.69,-0.4373402363241379,0.1231439444197,-0.18261268984076476,-152.47972490837182,-1.6730962049034406,-20.867676487915002,-0.154,-0.9713,-0.0146,-0.1811
157,487325.0,348.090798,1.0,3.05,3.17,-8.98,-11.0,-29.25,25.0,-2.13,-0.31,8.69,-0.4373402363241379,0.1231439444197,-0.18261268984076476,-152.47972490837182,-1.6730962049034406,-20.867676487915002,-0.154,-0.9713,-0.0146,-0.1811
158,487360.0,348.114774,1.0,3.54,3.14,-9.37,-11.0,-29.25,25.87,-2.88,-3.19,-3.13,-0.1054117131011886,-0.08079280620972629,-0.6895617401091805,-152.4315896826145,-1.6272548279067642,-20.786119068432164,-0.155,-0.9712,-0.0142,-0.1804
159,487360.0,348.114774,1.0,3.54,3.14,-9.37,-11.0,-29.25,25.87,-2.88,-3.19,-3.13,-0.1054117131011886,-0.08079280620972629,-0.6895617401091805,-152.4315896826145,-1.6272548279067642,-20.786119068432164,-0.155,-0.9712,-0.0142,-0.1804
160,487395.0,348.158551,1.0,3.14,3.33,-9.19,-10.19,-29.25,25.37,-3.19,-32.0,-1.81,-0.2971368932718305,0.15265673562898008,-0.4545880143783769,-152.81901206638815,-1.6272548279067642,-20.075850034388896,-0.1567,-0.972,-0.0142,-0.1743
161,487395.0,348.158551,1.0,3.14,3.33,-9.19,-10.19,-29.25,25.37,-3.19,-32.0,-1.81,-0.2971368932718305,0.15265673562898008,-0.4545880143783769,-152.81901206638815,-1.6272548279067642,-20.075850034388896,-0.1567,-0.972,-0.0142,-0.1743
162,487432.0,348.165818,1.0,2.61,3.32,-8.39,-9.75,-29.56,24.56,-3.5,-10.38,5.13,-0.4295676833259278,0.4192165509014731,0.43294587148750097,-153.2614432071201,-1.3751317128217122,-19.459364085641027,-0.1574,-0.9729,-0.012,-0.16899999999999998
163,487432.0,348.165818,1.0,2.61,3.32,-8.39,-9.75,-29.56,24.56,-3.5,-10.38,5.13,-0.4295676833259278,0.4192165509014731,0.43294587148750097,-153.2614432071201,-1.3751317128217122,-19.459364085641027,-0.1574,-0.9729,-0.012,-0.16899999999999998
164,487464.0,348.18413599999997,1.0,3.23,3.13,-9.16,-9.75,-29.56,24.56,-7.19,-3.44,-10.69,-0.0908497570848484,-0.061921263243200686,-0.3974331081874318,-153.1625065187994,-1.581413711340907,-19.459364085641027,-0.1581,-0.9727,-0.0138,-0.16899999999999998
165,487464.0,348.18413599999997,1.0,3.23,3.13,-9.16,-9.75,-29.56,24.56,-7.19,-3.44,-10.69,-0.0908497570848484,-0.061921263243200686,-0.3974331081874318,-153.1625065187994,-1.581413711340907,-19.459364085641027,-0.1581,-0.9727,-0.0138,-0.16899999999999998
166,487501.0,348.23154,1.0,2.62,3.46,-8.51,-10.19,-28.87,25.87,14.69,-7.5,9.69,-0.4068750187089828,0.5263884100105862,0.2770399365736331,-153.5103719816942,-1.4897322301406863,-19.13390399645449,-0.1567,-0.9734,-0.013000000000000001,-0.1662
167,487501.0,348.23154,1.0,2.62,3.46,-8.51,-10.19,-28.87,25.87,14.69,-7.5,9.69,-0.4068750187089828,0.5263884100105862,0.2770399365736331,-153.5103719816942,-1.4897322301406863,-19.13390399645449,-0.1567,-0.9734,-0.013000000000000001,-0.1662
168,487536.0,348.295806,1.0,3.26,2.95,-9.12,-10.19,-29.25,25.75,1.12,2.69,2.88,-0.002559378894598193,-0.1464716781655646,-0.31674071146989924,-153.66083809692267,-1.2719924264668117,-19.192010366536685,-0.1548,-0.9737,-0.0111,-0.1667
169,487536.0,348.295806,1.0,3.26,2.95,-9.12,-10.19,-29.25,25.75,1.12,2.69,2.88,-0.002559378894598193,-0.1464716781655646,-0.31674071146989924,-153.66083809692267,-1.2719924264668117,-19.192010366536685,-0.1548,-0.9737,-0.0111,-0.1667
170,487571.0,348.302858,1.0,2.82,3.08,-8.88,-10.19,-29.25,25.75,-5.44,0.88,-13.63,-0.3344803160322575,0.03711047639332876,-0.0004874891315154173,-153.5103719816942,-1.638715147453804,-19.192010366536685,-0.1566,-0.9734,-0.0143,-0.1667
171,487571.0,348.302858,1.0,2.82,3.08,-8.88,-10.19,-29.25,25.75,-5.44,0.88,-13.63,-0.3344803160322575,0.03711047639332876,-0.0004874891315154173,-153.5103719816942,-1.638715147453804,-19.192010366536685,-0.1566,-0.9734,-0.0143,-0.1667
172,487606.0,348.35770099999996,1.0,2.97,3.28,-8.87,-9.75,-29.56,25.0,-4.63,-8.38,6.88,-0.18124571579994767,0.2095250669658162,-0.1019043464633178,-153.5103719816942,-1.5126525087430307,-19.08742247639564,-0.1572,-0.9734,-0.0132,-0.1658
173,487606.0,348.35770099999996,1.0,2.97,3.28,-8.87,-9.75,-29.56,25.0,-4.63,-8.38,6.88,-0.18124571579994767,0.2095250669658162,-0.1019043464633178,-153.5103719816942,-1.5126525087430307,-19.08742247639564,-0.1572,-0.9734,-0.0132,-0.1658
174,487643.0,348.41506499999997,1.0,2.88,3.25,-8.77,-9.75,-28.87,25.0,-1.31,-1.94,-2.06,-0.2072222530755652,0.20168032459677687,0.024718494182712547,-153.56043390061225,-1.4782721132478738,-18.92476206303288,-0.1581,-0.9735,-0.0129,-0.1644
175,487643.0,348.41506499999997,1.0,2.88,3.25,-8.77,-9.75,-28.87,25.0,-1.31,-1.94,-2.06,-0.2072222530755652,0.20168032459677687,0.024718494182712547,-153.56043390061225,-1.4782721132478738,-18.92476206303288,-0.1581,-0.9735,-0.0129,-0.1644
176,487675.0,348.43284500000004,1.0,3.05,2.94,-9.02,-9.75,-28.87,25.0,3.0,-0.19,-6.75,-0.12076220111530335,-0.1824726473803031,-0.15621204981981407,-153.56043390061225,-1.7303983035632713,-18.971232525472264,-0.1578,-0.9735,-0.0151,-0.1648
177,487675.0,348.43284500000004,1.0,3.05,2.94,-9.02,-9.75,-28.87,25.0,3.0,-0.19,-6.75,-0.12076220111530335,-0.1824726473803031,-0.15621204981981407,-153.56043390061225,-1.7303983035632713,-18.971232525472264,-0.1578,-0.9735,-0.0151,-0.1648
178,487710.0,348.480519,1.0,3.25,3.11,-9.15,-10.19,-29.25,25.0,-5.31,-6.44,4.06,0.05300762190955505,-0.09511697523067596,-0.388703988608853,-153.61058909469406,-1.5470330404085568,-18.76214012304259,-0.159,-0.9736,-0.0135,-0.163
179,487710.0,348.480519,1.0,3.25,3.11,-9.15,-10.19,-29.25,25.0,-5.31,-6.44,4.06,0.05300762190955505,-0.09511697523067596,-0.388703988608853,-153.61058909469406,-1.5470330404085568,-18.76214012304259,-0.159,-0.9736,-0.0135,-0.163
180,487745.0,348.498767,1.0,2.58,3.48,-8.83,-9.06,-29.56,25.0,-13.44,-8.88,-10.75,-0.4367855803574055,0.33621442334239005,-0.01332343266917313,-153.56043390061225,-1.6960169933572922,-18.471838381894354,-0.1624,-0.9735,-0.0148,-0.1605
181,487745.0,348.498767,1.0,2.58,3.48,-8.83,-9.06,-29.56,25.0,-13.44,-8.88,-10.75,-0.4367855803574055,0.33621442334239005,-0.01332343266917313,-153.56043390061225,-1.6960169933572922,-18.471838381894354,-0.1624,-0.9735,-0.0148,-0.1605
182,487782.0,348.503432,1.0,2.66,3.51,-8.79,-9.38,-29.25,25.5,3.31,3.0,-1.25,-0.3415481037236449,0.3721339566662121,-0.011937536460562724,-153.56043390061225,-1.79916139442209,-18.448619433327213,-0.1622,-0.9735,-0.0157,-0.1603
183,487782.0,348.503432,1.0,2.66,3.51,-8.79,-9.38,-29.25,25.5,3.31,3.0,-1.25,-0.3415481037236449,0.3721339566662121,-0.011937536460562724,-153.56043390061225,-1.79916139442209,-18.448619433327213,-0.1622,-0.9735,-0.0157,-0.1603
184,487815.0,348.552772,1.0,3.04,2.97,-9.13,-9.38,-29.25,25.5,5.5,1.06,7.19,-0.0905946979533871,-0.22472237985631205,-0.2611547484391803,-153.71118144535646,-1.6043342375287626,-18.506668239532367,-0.1599,-0.9738,-0.013999999999999999,-0.1608
185,487815.0,348.552772,1.0,3.04,2.97,-9.13,-9.38,-29.25,25.5,5.5,1.06,7.19,-0.0905946979533871,-0.22472237985631205,-0.2611547484391803,-153.71118144535646,-1.6043342375287626,-18.506668239532367,-0.1599,-0.9738,-0.013999999999999999,-0.1608
186,487852.0,348.575017,1.0,3.11,3.21,-9.09,-9.38,-30.0,25.5,-8.5,-4.63,-7.75,0.008907008537776817,-0.04059231830096577,-0.32264281484615154,-153.61058909469406,-1.741858774764144,-18.36735912324753,-0.1622,-0.9736,-0.0152,-0.1596
187,487852.0,348.575017,1.0,3.11,3.21,-9.09,-9.38,-30.0,25.5,-8.5,-4.63,-7.75,0.008907008537776817,-0.04059231830096577,-0.32264281484615154,-153.61058909469406,-1.741858774764144,-18.36735912324753,-0.1622,-0.9736,-0.0152,-0.1596
188,487886.0,348.620158,1.0,3.16,3.4,-8.92,-9.38,-29.56,25.37,11.31,1.81,7.31,0.11077553014436337,0.21479551665664887,-0.24589155265947935,-153.76161968319718,-1.7303983035632713,-18.344143604670897,-0.1609,-0.9739,-0.0151,-0.1594
189,487886.0,348.620158,1.0,3.16,3.4,-8.92,-9.38,-29.56,25.37,11.31,1.81,7.31,0.11077553014436337,0.21479551665664887,-0.24589155265947935,-153.76161968319718,-1.7303983035632713,-18.344143604670897,-0.1609,-0.9739,-0.0151,-0.1594
190,487919.0,348.68514700000003,1.0,2.65,2.96,-8.87,-9.38,-29.56,25.37,7.44,-4.5,5.06,-0.3367395581609425,-0.08473667310179822,0.09375001255025772,-154.0662728728033,-1.5355728478655368,-18.262895263137004,-0.158,-0.9745,-0.0134,-0.1587
191,487919.0,348.68514700000003,1.0,2.65,2.96,-8.87,-9.38,-29.56,25.37,7.44,-4.5,5.06,-0.3367395581609425,-0.08473667310179822,0.09375001255025772,-154.0662728728033,-1.5355728478655368,-18.262895263137004,-0.158,-0.9745,-0.0134,-0.1587
192,487956.0,348.748007,1.0,2.94,3.14,-9.12,-9.75,-29.25,25.37,-10.81,-2.19,-9.75,-0.12830000017199394,-0.0677297202230367,-0.2758373813436705,-153.91350924378722,-1.6730962049034406,-18.1816561801528,-0.1606,-0.9742,-0.0146,-0.158
193,487956.0,348.748007,1.0,2.94,3.14,-9.12,-9.75,-29.25,25.37,-10.81,-2.19,-9.75,-0.12830000017199394,-0.0677297202230367,-0.2758373813436705,-153.91350924378722,-1.6730962049034406,-18.1816561801528,-0.1606,-0.9742,-0.0146,-0.158
194,487991.0,348.766752,1.0,3.07,3.51,-8.95,-9.38,-29.25,24.19,-7.06,-7.56,1.12,0.08131624853803743,0.27119044945261783,-0.2813301450959127,-153.8627830260387,-1.6043342375287626,-17.914792407087575,-0.1634,-0.9741,-0.013999999999999999,-0.1557
195,487991.0,348.766752,1.0,3.07,3.51,-8.95,-9.38,-29.25,24.19,-7.06,-7.56,1.12,0.08131624853803743,0.27119044945261783,-0.2813301450959127,-153.8627830260387,-1.6043342375287626,-17.914792407087575,-0.1634,-0.9741,-0.013999999999999999,-0.1557
196,488026.0,348.76996,1.0,2.44,3.58,-8.73,-9.38,-29.25,24.19,-1.0,-8.56,-3.38,-0.4060662030735788,0.4423412382192309,0.07924826738444679,-154.01525359440276,-1.6043342375287626,-17.636430239406273,-0.1641,-0.9744,-0.013999999999999999,-0.1533
197,488026.0,348.76996,1.0,2.44,3.58,-8.73,-9.38,-29.25,24.19,-1.0,-8.56,-3.38,-0.4060662030735788,0.4423412382192309,0.07924826738444679,-154.01525359440276,-1.6043342375287626,-17.636430239406273,-0.1641,-0.9744,-0.013999999999999999,-0.1533
198,488058.0,348.808774,1.0,2.88,2.68,-9.32,-9.38,-29.56,25.75,10.5,4.88,-0.69,-0.15000442909844985,-0.5812086553769706,-0.2918100395389853,-154.16860854190614,-1.707477412974553,-17.682816604505923,-0.1616,-0.9747,-0.0149,-0.1537
199,488058.0,348.808774,1.0,2.88,2.68,-9.32,-9.38,-29.56,25.75,10.5,4.88,-0.69,-0.15000442909844985,-0.5812086553769706,-0.2918100395389853,-154.16860854190614,-1.707477412974553,-17.682816604505923,-0.1616,-0.9747,-0.0149,-0.1537
200,488095.0,348.863696,1.0,2.72,3.24,-8.95,-9.06,-29.25,25.75,-5.75,-7.0,2.94,-0.18221790365584467,0.06399528034246194,-0.09088510929267456,-154.21992611229572,-1.5011923619341792,-17.532071555357696,-0.1625,-0.9748,-0.0131,-0.1524
201,488095.0,348.863696,1.0,2.72,3.24,-8.95,-9.06,-29.25,25.75,-5.75,-7.0,2.94,-0.18221790365584467,0.06399528034246194,-0.09088510929267456,-154.21992611229572,-1.5011923619341792,-17.532071555357696,-0.1625,-0.9748,-0.0131,-0.1524
202,488130.0,348.871153,1.0,2.84,3.68,-9.14,-9.06,-29.25,25.75,-12.19,-4.25,-12.13,-0.08994858985138145,0.3226329104830459,-0.4420288054000938,-154.01525359440276,-1.638715147453804,-17.277034050168414,-0.1667,-0.9744,-0.0143,-0.1502
203,488130.0,348.871153,1.0,2.84,3.68,-9.14,-9.06,-29.25,25.75,-12.19,-4.25,-12.13,-0.08994858985138145,0.3226329104830459,-0.4420288054000938,-154.01525359440276,-1.638715147453804,-17.277034050168414,-0.1667,-0.9744,-0.0143,-0.1502
204,488165.0,348.890302,1.0,2.49,3.38,-8.8,-9.38,-29.56,24.19,9.19,-1.94,2.81,-0.28700232628939176,0.16813309083179595,0.062222827073320275,-154.0662728728033,-1.7189378496716434,-17.114782424924247,-0.16699999999999998,-0.9745,-0.015,-0.1488
205,488165.0,348.890302,1.0,2.49,3.38,-8.8,-9.38,-29.56,24.19,9.19,-1.94,2.81,-0.28700232628939176,0.16813309083179595,0.062222827073320275,-154.0662728728033,-1.7189378496716434,-17.114782424924247,-0.16699999999999998,-0.9745,-0.015,-0.1488
206,488200.0,348.936116,1.0,2.68,2.85,-9.06,-8.25,-30.0,24.19,6.31,-1.81,7.88,-0.17213830104341016,-0.3617404116447458,-0.05377657697409255,-154.37448496866145,-1.4897322301406863,-17.103194349757633,-0.1638,-0.9751,-0.013000000000000001,-0.1487
207,488200.0,348.936116,1.0,2.68,2.85,-9.06,-8.25,-30.0,24.19,6.31,-1.81,7.88,-0.17213830104341016,-0.3617404116447458,-0.05377657697409255,-154.37448496866145,-1.4897322301406863,-17.103194349757633,-0.1638,-0.9751,-0.013000000000000001,-0.1487
208,488235.0,349.002864,1.0,2.59,3.17,-9.01,-7.88,-29.56,25.5,-4.13,4.25,-10.19,-0.2451442053201801,-0.0636901368584386,-0.08642575453988321,-154.27134430279997,-1.7303983035632713,-17.103194349757633,-0.1649,-0.9749,-0.0151,-0.1487
209,488235.0,349.002864,1.0,2.59,3.17,-9.01,-7.88,-29.56,25.5,-4.13,4.25,-10.19,-0.2451442053201801,-0.0636901368584386,-0.08642575453988321,-154.27134430279997,-1.7303983035632713,-17.103194349757633,-0.1649,-0.9749,-0.0151,-0.1487
210,488269.0,349.021252,1.0,2.51,3.76,-8.97,-7.88,-29.56,25.5,-2.63,2.63,1.44,-0.3437596751760954,0.4871095383040658,-0.22047090200452504,-154.0662728728033,-1.79916139442209,-17.242262917799223,-0.1661,-0.9745,-0.0157,-0.1499
211,488269.0,349.021252,1.0,2.51,3.76,-8.97,-7.88,-29.56,25.5,-2.63,2.63,1.44,-0.3437596751760954,0.4871095383040658,-0.22047090200452504,-154.0662728728033,-1.79916139442209,-17.242262917799223,-0.1661,-0.9745,-0.0157,-0.1499
212,488306.0,349.07465299999996,1.0,2.84,3.3,-9.01,-8.69,-30.37,24.19,0.75,-3.38,2.06,-0.036833100428239264,0.04106051353860618,-0.19998066955809968,-154.16860854190614,-1.6616358358374437,-17.253853117357277,-0.1649,-0.9747,-0.0145,-0.15
213,488306.0,349.07465299999996,1.0,2.84,3.3,-9.01,-8.69,-30.37,24.19,0.75,-3.38,2.06,-0.036833100428239264,0.04106051353860618,-0.19998066955809968,-154.16860854190614,-1.6616358358374437,-17.253853117357277,-0.1649,-0.9747,-0.0145,-0.15
214,488341.0,349.09018199999997,1.0,2.65,3.05,-9.05,-9.06,-29.56,25.37,1.56,2.56,-7.63,-0.2163731315842622,-0.20310448068587728,-0.09988477447355316,-154.16860854190614,-1.8450038134157023,-17.230672895970507,-0.1652,-0.9747,-0.0161,-0.1498
215,488341.0,349.09018199999997,1.0,2.65,3.05,-9.05,-9.06,-29.56,25.37,1.56,2.56,-7.63,-0.2163731315842622,-0.20310448068587728,-0.09988477447355316,-154.16860854190614,-1.8450038134157023,-17.230672895970507,-0.1652,-0.9747,-0.0161,-0.1498
216,488376.0,349.099352,1.0,2.54,3.38,-8.88,-9.06,-29.56,25.37,-7.75,-3.25,0.31,-0.2658838427234891,0.13110497741466332,-0.02404261380273986,-154.01525359440276,-1.8793858210517669,-17.161136490218524,-0.1672,-0.9744,-0.0164,-0.1492
217,488376.0,349.099352,1.0,2.54,3.38,-8.88,-9.06,-29.56,25.37,-7.75,-3.25,0.31,-0.2658838427234891,0.13110497741466332,-0.02404261380273986,-154.01525359440276,-1.8793858210517669,-17.161136490218524,-0.1672,-0.9744,-0.0164,-0.1492
218,488409.0,349.14716200000004,1.0,2.87,3.75,-9.07,-9.06,-30.0,24.56,-3.06,-4.38,2.5,0.005219985062564176,0.37045396480841053,-0.41230477099853147,-154.01525359440276,-1.707477412974553,-17.010496081346126,-0.1685,-0.9744,-0.0149,-0.1479
219,488409.0,349.14716200000004,1.0,2.87,3.75,-9.07,-9.06,-30.0,24.56,-3.06,-4.38,2.5,0.005219985062564176,0.37045396480841053,-0.41230477099853147,-154.01525359440276,-1.707477412974553,-17.010496081346126,-0.1685,-0.9744,-0.0149,-0.1479
220,488445.0,349.210655,1.0,2.69,3.31,-9.07,-9.06,-29.56,24.5,1.31,1.06,-2.31,-0.14411828742605515,-0.0067959427683801366,-0.2151404455437156,-154.16860854190614,-1.6616358358374437,-16.929394296591493,-0.1674,-0.9747,-0.0145,-0.1472
221,488445.0,349.210655,1.0,2.69,3.31,-9.07,-9.06,-29.56,24.5,1.31,1.06,-2.31,-0.14411828742605515,-0.0067959427683801366,-0.2151404455437156,-154.16860854190614,-1.6616358358374437,-16.929394296591493,-0.1674,-0.9747,-0.0145,-0.1472
222,488482.0,349.218568,1.0,2.64,3.24,-8.93,-9.06,-29.56,24.5,-1.19,-0.88,1.56,-0.14746664969546303,-0.02841373584232709,-0.05182585820663554,-154.16860854190614,-1.6043342375287626,-16.906223928806188,-0.1677,-0.9747,-0.013999999999999999,-0.147
223,488482.0,349.218568,1.0,2.64,3.24,-8.93,-9.06,-29.56,24.5,-1.19,-0.88,1.56,-0.14746664969546303,-0.02841373584232709,-0.05182585820663554,-154.16860854190614,-1.6043342375287626,-16.906223928806188,-0.1677,-0.9747,-0.013999999999999999,-0.147
224,488515.0,349.287088,1.0,2.75,3.25,-9.07,-8.69,-29.56,24.5,-3.88,-3.5,-3.0,-0.06095713378617677,-0.0877660625224288,-0.2122561950948452,-154.16860854190614,-1.5699534720315549,-16.767216307875252,-0.1685,-0.9747,-0.0137,-0.1458
225,488515.0,349.287088,1.0,2.75,3.25,-9.07,-8.69,-29.56,24.5,-3.88,-3.5,-3.0,-0.06095713378617677,-0.0877660625224288,-0.2122561950948452,-154.16860854190614,-1.5699534720315549,-16.767216307875252,-0.1685,-0.9747,-0.0137,-0.1458
226,488550.0,349.31176899999997,1.0,2.42,3.67,-8.82,-8.25,-30.0,24.69,-7.56,-1.44,-8.44,-0.2925920248298774,0.35263596032499844,-0.03752278325058889,-154.01525359440276,-1.79916139442209,-16.674558377811383,-0.1714,-0.9744,-0.0157,-0.145
227,488550.0,349.31176899999997,1.0,2.42,3.67,-8.82,-8.25,-30.0,24.69,-7.56,-1.44,-8.44,-0.2925920248298774,0.35263596032499844,-0.03752278325058889,-154.01525359440276,-1.79916139442209,-16.674558377811383,-0.1714,-0.9744,-0.0157,-0.145
228,488587.0,349.315069,1.0,2.67,3.4,-8.99,-7.88,-30.75,24.19,1.56,-5.94,6.56,-0.09960112496151856,0.040899555214399363,-0.16818868753222738,-154.0662728728033,-1.6960169933572922,-16.674558377811383,-0.1706,-0.9745,-0.0148,-0.145
229,488587.0,349.315069,1.0,2.67,3.4,-8.99,-7.88,-30.75,24.19,1.56,-5.94,6.56,-0.09960112496151856,0.040899555214399363,-0.16818868753222738,-154.0662728728033,-1.6960169933572922,-16.674558377811383,-0.1706,-0.9745,-0.0148,-0.145
230,488620.0,349.379532,1.0,2.38,3.22,-9.01,-7.88,-30.75,24.19,1.69,0.12,-0.88,-0.3603750011387633,-0.10570962226032954,-0.04585502838317978,-154.16860854190614,-1.6616358358374437,-16.55875139620892,-0.1703,-0.9747,-0.0145,-0.14400000000000002
231,488620.0,349.379532,1.0,2.38,3.22,-9.01,-7.88,-30.75,24.19,1.69,0.12,-0.88,-0.3603750011387633,-0.10570962226032954,-0.04585502838317978,-154.16860854190614,-1.6616358358374437,-16.55875139620892,-0.1703,-0.9747,-0.0145,-0.14400000000000002
232,488656.0,349.383827,1.0,2.6,3.57,-9.07,-7.56,-30.75,23.75,2.19,4.94,-1.0,-0.1867194356668091,0.17041089651025731,-0.27828410879292065,-154.0662728728033,-1.7762402933693409,-16.651395613206027,-0.171,-0.9745,-0.0155,-0.1448
233,488656.0,349.383827,1.0,2.6,3.57,-9.07,-7.56,-30.75,23.75,2.19,4.94,-1.0,-0.1867194356668091,0.17041089651025731,-0.27828410879292065,-154.0662728728033,-1.7762402933693409,-16.651395613206027,-0.171,-0.9745,-0.0155,-0.1448
234,488691.0,349.43212400000004,1.0,2.7,3.29,-8.97,-7.56,-29.56,23.75,3.88,-0.31,7.88,-0.07838427984976065,-0.02601289287026365,-0.1215008466620784,-154.16860854190614,-1.5928739664684124,-16.755633464025784,-0.1691,-0.9747,-0.0139,-0.1457
235,488691.0,349.43212400000004,1.0,2.7,3.29,-8.97,-7.56,-29.56,23.75,3.88,-0.31,7.88,-0.07838427984976065,-0.02601289287026365,-0.1215008466620784,-154.16860854190614,-1.5928739664684124,-16.755633464025784,-0.1691,-0.9747,-0.0139,-0.1457
236,488726.0,349.496802,1.0,2.5,3.56,-8.81,-7.56,-29.56,23.75,-7.5,-3.0,-7.56,-0.21833754424340854,0.2721465640526919,-0.012614991049385791,-154.0662728728033,-1.6730962049034406,-16.69772182857332,-0.1702,-0.9745,-0.0146,-0.1452
237,488726.0,349.496802,1.0,2.5,3.56,-8.81,-7.56,-29.56,23.75,-7.5,-3.0,-7.56,-0.21833754424340854,0.2721465640526919,-0.012614991049385791,-154.0662728728033,-1.6730962049034406,-16.69772182857332,-0.1702,-0.9745,-0.0146,-0.1452
238,488759.0,349.508445,1.0,2.46,3.22,-9.11,-8.25,-30.37,25.0,1.19,1.94,-3.5,-0.3281605479548051,-0.1623231517961563,-0.1571877068856864,-154.01525359440276,-1.8335431812694831,-16.674558377811383,-0.171,-0.9744,-0.016,-0.145
239,488759.0,349.508445,1.0,2.46,3.22,-9.11,-8.25,-30.37,25.0,1.19,1.94,-3.5,-0.3281605479548051,-0.1623231517961563,-0.1571877068856864,-154.01525359440276,-1.8335431812694831,-16.674558377811383,-0.171,-0.9744,-0.016,-0.145
240,488796.0,349.57526,1.0,2.52,3.5,-8.82,-7.56,-30.0,23.75,4.19,-0.81,5.63,-0.194405361025142,0.21199368372554872,-0.007119165497281087,-154.11739099299157,-1.6272548279067642,-16.651395613206027,-0.1702,-0.9746,-0.0142,-0.1448
241,488796.0,349.57526,1.0,2.52,3.5,-8.82,-7.56,-30.0,23.75,4.19,-0.81,5.63,-0.194405361025142,0.21199368372554872,-0.007119165497281087,-154.11739099299157,-1.6272548279067642,-16.651395613206027,-0.1702,-0.9746,-0.0142,-0.1448
242,488828.0,349.599642,1.0,2.57,3.38,-9.03,-7.56,-30.0,23.75,-1.88,0.75,-6.31,-0.2049103484886829,0.03002093174977549,-0.16968752901028772,-154.11739099299157,-1.7303983035632713,-16.674558377811383,-0.1699,-0.9746,-0.0151,-0.145
243,488828.0,349.599642,1.0,2.57,3.38,-9.03,-7.56,-30.0,23.75,-1.88,0.75,-6.31,-0.2049103484886829,0.03002093174977549,-0.16968752901028772,-154.11739099299157,-1.7303983035632713,-16.674558377811383,-0.1699,-0.9746,-0.0151,-0.145
244,488863.0,349.648858,1.0,2.6,3.29,-9.06,-7.88,-29.56,25.75,0.81,-2.88,0.69,-0.16498870302955093,-0.08049097815401708,-0.17503322129631727,-154.11739099299157,-1.8908465277120163,-16.59349169701811,-0.1704,-0.9746,-0.0165,-0.1443
245,488863.0,349.648858,1.0,2.6,3.29,-9.06,-7.88,-29.56,25.75,0.81,-2.88,0.69,-0.16498870302955093,-0.08049097815401708,-0.17503322129631727,-154.11739099299157,-1.8908465277120163,-16.59349169701811,-0.1704,-0.9746,-0.0165,-0.1443
246,488898.0,349.668049,1.0,2.6,3.16,-9.03,-8.69,-29.56,26.19,1.81,-2.81,4.0,-0.14000818881899807,-0.1854957919502369,-0.10458044925464273,-154.21992611229572,-1.741858774764144,-16.489275388774946,-0.1702,-0.9748,-0.0152,-0.1434
247,488898.0,349.668049,1.0,2.6,3.16,-9.03,-8.69,-29.56,26.19,1.81,-2.81,4.0,-0.14000818881899807,-0.1854957919502369,-0.10458044925464273,-154.21992611229572,-1.741858774764144,-16.489275388774946,-0.1702,-0.9748,-0.0152,-0.1434
248,488931.0,349.671413,1.0,2.1,3.59,-8.85,-8.69,-29.56,26.19,-5.19,-0.25,-5.38,-0.5579214276522272,0.2948377406997795,0.04845373290096333,-154.16860854190614,-1.79916139442209,-16.38507281218067,-0.1713,-0.9747,-0.0157,-0.1425
249,488931.0,349.671413,1.0,2.1,3.59,-8.85,-8.69,-29.56,26.19,-5.19,-0.25,-5.38,-0.5579214276522272,0.2948377406997795,0.04845373290096333,-154.16860854190614,-1.79916139442209,-16.38507281218067,-0.1713,-0.9747,-0.0157,-0.1425
250,488966.0,349.720234,1.0,3.01,3.54,-9.08,-8.25,-30.0,25.0,0.31,0.25,4.5,0.21838045120381794,0.09940540150926358,-0.3904343158563126,-154.0662728728033,-1.867925133192117,-16.581911426258042,-0.1712,-0.9745,-0.0163,-0.1442
251,488966.0,349.720234,1.0,3.01,3.54,-9.08,-8.25,-30.0,25.0,0.31,0.25,4.5,0.21838045120381794,0.09940540150926358,-0.3904343158563126,-154.0662728728033,-1.867925133192117,-16.581911426258042,-0.1712,-0.9745,-0.0163,-0.1442
252,489000.0,349.739908,1.0,2.71,3.23,-9.1,-7.88,-30.37,25.0,0.75,-2.19,-0.06,-0.05278843742389612,-0.16463355479163733,-0.22116677004077626,-154.16860854190614,-1.79916139442209,-16.477696648278283,-0.1708,-0.9747,-0.0157,-0.1433
253,489000.0,349.739908,1.0,2.71,3.23,-9.1,-7.88,-30.37,25.0,0.75,-2.19,-0.06,-0.05278843742389612,-0.16463355479163733,-0.22116677004077626,-154.16860854190614,-1.79916139442209,-16.477696648278283,-0.1708,-0.9747,-0.0157,-0.1433
