acc_x,acc_y,acc_z,lin_x,lin_y,lin_z,eul_x,eul_y,eul_z
8.19,5.03,-1.18,-0.049405638980759,0.0088200709801937,0.1233199276961105,-66.80264364391536,61.23442867267935,-20.890980569305803
8.19,5.03,-1.18,-0.049405638980759,0.0088200709801937,0.1233199276961105,-66.80264364391536,61.23442867267935,-20.890980569305803
8.35,5.14,-1.58,0.1141291435156365,-0.3454687840533861,-0.1183752321011795,-66.73402593846353,61.19448635278197,-20.92593832998922
8.35,5.14,-1.58,0.1141291435156365,-0.3454687840533861,-0.1183752321011795,-66.73402593846353,61.19448635278197,-20.92593832998922
8.28,4.97,-1.42,0.1456187962355036,-0.170218098459161,0.0482935315602528,-66.70658643296115,61.23442867267935,-20.90263293758787
8.28,4.97,-1.42,0.1456187962355036,-0.170218098459161,0.0482935315602528,-66.70658643296115,61.23442867267935,-20.90263293758787
8.12,5.47,-0.94,-0.5413835933483196,0.0261219343992258,-0.0139977102784047,-66.52833488574433,61.40760741658022,-20.82107094211026
8.12,5.47,-0.94,-0.5413835933483196,0.0261219343992258,-0.0139977102784047,-66.52833488574433,61.40760741658022,-20.82107094211026
8.36,5.2,-1.56,0.0587658973023064,-0.3658885673200145,-0.1545684056780274,-66.52833488574433,61.30101752415778,-20.890980569305803
8.36,5.2,-1.56,0.0587658973023064,-0.3658885673200145,-0.1545684056780274,-66.52833488574433,61.30101752415778,-20.890980569305803
8.17,5.15,-1.31,-0.0892577986530177,-0.1826512203006944,0.0626173862870143,-66.52833488574433,61.34098184227653,-20.809420100088577
8.17,5.15,-1.31,-0.0892577986530177,-0.1826512203006944,0.0626173862870143,-66.52833488574433,61.34098184227653,-20.809420100088577
8.25,4.98,-1.07,-0.0320480309864903,0.1136843219788605,0.1116075143454828,-66.5420400796265,61.34098184227653,-20.82107094211026
8.25,4.98,-1.07,-0.0320480309864903,0.1136843219788605,0.1116075143454828,-66.5420400796265,61.34098184227653,-20.82107094211026
8.26,5.45,-1.24,-0.3206931193867891,-0.198007902372892,-0.1595754035204279,-66.45982503485911,61.38095442802087,-20.786119068432164
8.26,5.45,-1.24,-0.3206931193867891,-0.198007902372892,-0.1595754035204279,-66.45982503485911,61.38095442802087,-20.786119068432164
8.31,4.81,-1.31,0.2420267730402849,-0.0207886029687283,0.1190656326193337,-66.56945369468808,61.30101752415778,-20.809420100088577
8.31,4.81,-1.31,0.2420267730402849,-0.0207886029687283,0.1190656326193337,-66.56945369468808,61.30101752415778,-20.809420100088577
8.27,5.43,-1.27,-0.2836460307458297,-0.2162785094314685,-0.1614726184071493,-66.45982503485911,61.35430511840602,-20.786119068432164
8.27,5.43,-1.27,-0.2836460307458297,-0.2162785094314685,-0.1614726184071493,-66.45982503485911,61.35430511840602,-20.786119068432164
8.21,5.12,-1.24,-0.0731283892193692,-0.1064598208960587,0.0527062568146288,-66.48722575330268,61.31433804552232,-20.79776947557341
8.21,5.12,-1.24,-0.0731283892193692,-0.1064598208960587,0.0527062568146288,-66.48722575330268,61.31433804552232,-20.79776947557341
8.23,5.1,-1.31,-0.0213459179459314,-0.149771667998992,0.0375091575690795,-66.47352485739471,61.367629313530685,-20.762818905741057
8.23,5.1,-1.31,-0.0213459179459314,-0.149771667998992,0.0375091575690795,-66.47352485739471,61.367629313530685,-20.762818905741057
8.16,5.14,-1.08,-0.1798931214139757,0.0206453778003457,0.1041342317446645,-66.47352485739471,61.367629313530685,-20.70457229377833
8.16,5.14,-1.08,-0.1798931214139757,0.0206453778003457,0.1041342317446645,-66.47352485739471,61.367629313530685,-20.70457229377833
8.29,5.1,-1.18,-0.0565997937419314,-0.0127946240065206,0.0024094500672884,-66.47352485739471,61.38095442802087,-20.751169149926103
8.29,5.1,-1.18,-0.0565997937419314,-0.0127946240065206,0.0024094500672884,-66.47352485739471,61.38095442802087,-20.751169149926103
8.21,5.15,-1.27,-0.0887545326892613,-0.1283777497381519,0.0334651666767626,-66.50092772303125,61.394280462247146,-20.72787028869477
8.21,5.15,-1.27,-0.0887545326892613,-0.1283777497381519,0.0334651666767626,-66.50092772303125,61.394280462247146,-20.72787028869477
8.26,5.05,-1.42,0.0744452166954877,-0.2080058827795445,0.0241303111652122,-66.50092772303125,61.42093529139101,-20.72787028869477
8.26,5.05,-1.42,0.0744452166954877,-0.2080058827795445,0.0241303111652122,-66.50092772303125,61.42093529139101,-20.72787028869477
8.23,5.16,-1.29,-0.0917358066114865,-0.1328461342032958,0.0088677791904032,-66.47352485739471,61.51425621963604,-20.681275164117206
8.23,5.16,-1.29,-0.0917358066114865,-0.1328461342032958,0.0088677791904032,-66.47352485739471,61.51425621963604,-20.681275164117206
8.3,5.11,-1.31,-0.012994895280162,-0.1143048308849974,-0.0272182896575863,-66.47352485739471,61.48758848560482,-20.70457229377833
8.3,5.11,-1.31,-0.012994895280162,-0.1143048308849974,-0.0272182896575863,-66.47352485739471,61.48758848560482,-20.70457229377833
8.3,5.27,-1.57,-0.0173552434593462,-0.3977301668925475,-0.1416819963634186,-66.48722575330268,61.46092444240136,-20.70457229377833
8.3,5.27,-1.57,-0.0173552434593462,-0.3977301668925475,-0.1416819963634186,-66.48722575330268,61.46092444240136,-20.70457229377833
8.26,4.98,-1.25,0.0405052821329785,-0.0208166875977067,0.0809918738042831,-66.56945369468808,61.46092444240136,-20.751169149926103
8.26,4.98,-1.25,0.0405052821329785,-0.0208166875977067,0.0809918738042831,-66.56945369468808,61.46092444240136,-20.751169149926103
8.17,5.36,-1.04,-0.3942325741686824,0.0005568768711401,-0.0119385119681272,-66.45982503485911,61.55426474750001,-20.69292362085707
8.17,5.36,-1.04,-0.3942325741686824,0.0005568768711401,-0.0119385119681272,-66.45982503485911,61.55426474750001,-20.69292362085707
8.31,5.03,-1.52,0.1472372353453943,-0.2693792415810359,-0.0205141901788277,-66.50092772303125,61.47425600283564,-20.73951961095484
8.31,5.03,-1.52,0.1472372353453943,-0.2693792415810359,-0.0205141901788277,-66.50092772303125,61.47425600283564,-20.73951961095484
8.36,5.11,-1.5,0.093297440861907,-0.2526839941411492,-0.1018890641927381,-66.56945369468808,61.46092444240136,-20.751169149926103
8.36,5.11,-1.5,0.093297440861907,-0.2526839941411492,-0.1018890641927381,-66.56945369468808,61.46092444240136,-20.751169149926103
8.23,5.16,-1.21,-0.1227340036409324,-0.0517166738023577,0.0186542015741988,-66.59687161580996,61.43426408705058,-20.70457229377833
8.23,5.16,-1.21,-0.1227340036409324,-0.0517166738023577,0.0186542015741988,-66.59687161580996,61.43426408705058,-20.70457229377833
8.27,5.09,-1.47,0.0697688208937613,-0.2447075390211855,-0.0115550565252124,-66.67915125155818,61.34098184227653,-20.774468878532232
8.27,5.09,-1.47,0.0697688208937613,-0.2447075390211855,-0.0115550565252124,-66.67915125155818,61.34098184227653,-20.774468878532232
8.19,4.98,-1.3,0.0489168004826591,-0.0736288082609544,0.1340760951272841,-66.74774731388283,61.327659484771935,-20.751169149926103
8.19,4.98,-1.3,0.0489168004826591,-0.0736288082609544,0.1340760951272841,-66.74774731388283,61.327659484771935,-20.751169149926103
8.14,5.21,-0.95,-0.3078563695883476,0.1391459094033584,0.1013904531563305,-66.72030564497379,61.31433804552232,-20.73951961095484
8.14,5.21,-0.95,-0.3078563695883476,0.1391459094033584,0.1013904531563305,-66.72030564497379,61.31433804552232,-20.73951961095484
8.36,5.34,-1.66,0.0060700908653754,-0.4697312002187729,-0.2402458267485752,-66.69286830197329,61.261061463678935,-20.774468878532232
8.36,5.34,-1.66,0.0060700908653754,-0.4697312002187729,-0.2402458267485752,-66.69286830197329,61.261061463678935,-20.774468878532232
8.17,4.95,-1.3,0.0786719661515394,-0.0668886517302236,0.1665910463414892,-66.8163704357792,61.23442867267935,-20.72787028869477
8.17,4.95,-1.3,0.0786719661515394,-0.0668886517302236,0.1665910463414892,-66.8163704357792,61.23442867267935,-20.72787028869477
8.3,5.23,-1.28,-0.0974211319050478,-0.1061235775030127,-0.0857989844202062,-66.74774731388283,61.261061463678935,-20.716221183013424
8.3,5.23,-1.28,-0.0974211319050478,-0.1061235775030127,-0.0857989844202062,-66.74774731388283,61.261061463678935,-20.716221183013424
8.25,5.21,-1.3,-0.0924746069242374,-0.1387922801649437,-0.0355441227574271,-66.73402593846353,61.23442867267935,-20.73951961095484
8.25,5.21,-1.3,-0.0924746069242374,-0.1387922801649437,-0.0355441227574271,-66.73402593846353,61.23442867267935,-20.73951961095484
8.16,5.14,-1.3,-0.0743753484562624,-0.1360301714719036,0.0767392039036991,-66.78891793624743,61.247744610159856,-20.716221183013424
8.16,5.14,-1.3,-0.0743753484562624,-0.1360301714719036,0.0767392039036991,-66.78891793624743,61.247744610159856,-20.716221183013424
8.18,5.24,-1.41,-0.0907915864161013,-0.2534336082288568,-0.0058740531708334,-66.8300983122929,61.22111365086855,-20.69292362085707
8.18,5.24,-1.41,-0.0907915864161013,-0.2534336082288568,-0.0058740531708334,-66.8300983122929,61.22111365086855,-20.69292362085707
8.22,5.11,-1.36,0.0119834207096661,-0.1465339863682944,0.0338057779494338,-66.93996042635567,61.12793410600524,-20.72787028869477
8.22,5.11,-1.36,0.0119834207096661,-0.1465339863682944,0.0338057779494338,-66.93996042635567,61.12793410600524,-20.72787028869477
8.11,5.06,-1.09,-0.1172975439297034,0.0798518046074994,0.1866882030130181,-66.98117667091634,61.1146263962974,-20.72787028869477
8.11,5.06,-1.09,-0.1172975439297034,0.0798518046074994,0.1866882030130181,-66.98117667091634,61.1146263962974,-20.72787028869477
8.2,5.27,-1.31,-0.1466190172538873,-0.1521681143864341,-0.0261699276069098,-66.99491759872723,61.1146263962974,-20.72787028869477
8.2,5.27,-1.31,-0.1466190172538873,-0.1521681143864341,-0.0261699276069098,-66.99491759872723,61.1146263962974,-20.72787028869477
8.29,5.13,-1.41,0.0479440506804284,-0.1633753187971383,-0.0422133797617636,-67.03614692743177,61.07470873985765,-20.751169149926103
8.29,5.13,-1.41,0.0479440506804284,-0.1633753187971383,-0.0422133797617636,-67.03614692743177,61.07470873985765,-20.751169149926103
8.21,5.44,-1.4,-0.2321052883657311,-0.2841701746423655,-0.1343295516818354,-66.99491759872723,61.1146263962974,-20.70457229377833
8.21,5.44,-1.4,-0.2321052883657311,-0.2841701746423655,-0.1343295516818354,-66.99491759872723,61.1146263962974,-20.70457229377833
8.17,5.46,-1.41,-0.262154878246561,-0.2884110319625757,-0.1128607690073995,-67.14613988325526,61.08801371359053,-20.69292362085707
8.17,5.46,-1.41,-0.262154878246561,-0.2884110319625757,-0.1128607690073995,-67.14613988325526,61.08801371359053,-20.69292362085707
8.16,5.28,-1.33,-0.1641202417183493,-0.140344889201089,-0.0008098066132014,-67.32502809337325,61.04810152579957,-20.72787028869477
8.16,5.28,-1.33,-0.1641202417183493,-0.140344889201089,-0.0008098066132014,-67.32502809337325,61.04810152579957,-20.72787028869477
8.17,5.45,-1.35,-0.2627508766683868,-0.1855797432086299,-0.1014488153994825,-67.4489827766823,60.98159941844144,-20.57644875978384
8.17,5.45,-1.35,-0.2627508766683868,-0.1855797432086299,-0.1014488153994825,-67.4489827766823,60.98159941844144,-20.57644875978384
7.97,6.11,-1.22,-0.9149722515001062,-0.3063297859872298,-0.2636224809809313,-67.77996741979399,60.82208696099747,-20.57644875978384
7.97,6.11,-1.22,-0.9149722515001062,-0.3063297859872298,-0.2636224809809313,-67.77996741979399,60.82208696099747,-20.57644875978384
8.38,7.89,-2.36,-1.6320086938589926,-1.638423549305038,-1.7128211639142297,-68.4854543216403,60.41061431817495,-20.65797889865216
8.38,7.89,-2.36,-1.6320086938589926,-1.638423549305038,-1.7128211639142297,-68.4854543216403,60.41061431817495,-20.65797889865216
8.52,11.39,-3.09,-3.7052262574429102,-3.0101619514326527,-3.9440162895767656,-69.79359069064598,59.471426215105645,-19.40123466474733
8.52,11.39,-3.09,-3.7052262574429102,-3.0101619514326527,-3.9440162895767656,-69.79359069064598,59.471426215105645,-19.40123466474733
7.91,16.48,-0.43,-8.580227757135715,-1.5781504117594043,-6.262965207388801,-72.51283902222842,57.5799055437906,-17.961196420173227
7.91,16.48,-0.43,-8.580227757135715,-1.5781504117594043,-6.262965207388801,-72.51283902222842,57.5799055437906,-17.961196420173227
9.6,9.99,-3.34,-0.6254791608868036,-0.6560047421987569,-4.416364223346228,-80.78195924057705,50.73212580885688,-17.207493384994194
9.6,9.99,-3.34,-0.6254791608868036,-0.6560047421987569,-4.416364223346228,-80.78195924057705,50.73212580885688,-17.207493384994194
8.75,15.48,-2.57,-3.68659959827302,-0.1224368747565218,-7.777200335285307,-84.27313057499694,46.319983034035175,-13.126503557539667
8.75,15.48,-2.57,-3.68659959827302,-0.1224368747565218,-7.777200335285307,-84.27313057499694,46.319983034035175,-13.126503557539667
7.84,11.99,-2.81,0.0877863236099014,1.1441286609273194,-4.746874080738371,-92.70501720124948,38.41618161401926,-8.510515201802361
7.84,11.99,-2.81,0.0877863236099014,1.1441286609273194,-4.746874080738371,-92.70501720124948,38.41618161401926,-8.510515201802361
6.83,12.78,-4.05,1.2222120918891166,0.961128514240592,-5.158717672782174,-99.299361288376,31.26903222594612,-3.438262641755622
6.83,12.78,-4.05,1.2222120918891166,0.961128514240592,-5.158717672782174,-99.299361288376,31.26903222594612,-3.438262641755622
5.14,14.24,-3.96,0.8780732005898539,1.6898144264719956,-5.725649078323622,-103.64505914352164,26.00575632582789,1.3751317128217122
5.14,14.24,-3.96,0.8780732005898539,1.6898144264719956,-5.725649078323622,-103.64505914352164,26.00575632582789,1.3751317128217122
5.98,9.56,-8.05,5.424750626314736,-1.2340006690756822,-2.8821569963656835,-113.25250462483363,18.68084346973021,4.906017344265486
5.98,9.56,-8.05,5.424750626314736,-1.2340006690756822,-2.8821569963656835,-113.25250462483363,18.68084346973021,4.906017344265486
3.25,13.6,-3.61,2.346831063404147,4.206776196266403,-3.8076813458416967,-116.24952660685352,14.708070420797664,10.074110549810433
3.25,13.6,-3.61,2.346831063404147,4.206776196266403,-3.8076813458416967,-116.24952660685352,14.708070420797664,10.074110549810433
1.85,10.54,-3.95,3.0655337739222697,3.1213807683796446,-0.7278687255864487,-120.43103091016366,8.544988083393589,16.454539675361616
1.85,10.54,-3.95,3.0655337739222697,3.1213807683796446,-0.7278687255864487,-120.43103091016366,8.544988083393589,16.454539675361616
4.08,8.67,-6.13,6.502740245505018,1.8978114390807013,0.6685494839636519,-125.94789456078652,4.263789782102698,19.23849904872923
4.08,8.67,-6.13,6.502740245505018,1.8978114390807013,0.6685494839636519,-125.94789456078652,4.263789782102698,19.23849904872923
2.28,7.44,-4.61,5.152867054141534,2.613272996338388,2.847996008821005,-128.92411693093345,-0.8136069048374162,25.17143953683573
2.28,7.44,-4.61,5.152867054141534,2.613272996338388,2.847996008821005,-128.92411693093345,-0.8136069048374162,25.17143953683573
1.1,3.29,-2.88,3.0606002608221,1.0798193722857987,6.676918994515344,-131.62233589525562,-4.66516502390792,31.09057958723377
1.1,3.29,-2.88,3.0606002608221,1.0798193722857987,6.676918994515344,-131.62233589525562,-4.66516502390792,31.09057958723377
-0.43,0.49,-2.68,1.189692907272378,-1.01470489100052,7.534557402730818,-131.59437695002578,-6.684478178549483,35.45617049212599
-0.43,0.49,-2.68,1.189692907272378,-1.01470489100052,7.534557402730818,-131.59437695002578,-6.684478178549483,35.45617049212599
-3.56,-0.19,0.41,-2.948315770563352,-0.0913991396588185,7.762908256452872,-129.75442065073912,-8.1313637329408,41.12146009512062
-3.56,-0.19,0.41,-2.948315770563352,-0.0913991396588185,7.762908256452872,-129.75442065073912,-8.1313637329408,41.12146009512062
-3.2,0.7,-3.42,0.1349061373814633,-0.8860350806904036,5.1565809499876485,-128.79137449285287,-8.142851840335263,43.96211035016289
-3.2,0.7,-3.42,0.1349061373814633,-0.8860350806904036,5.1565809499876485,-128.79137449285287,-8.142851840335263,43.96211035016289
-4.36,0.59,-2.74,-0.8609316776168103,-0.5987612693102187,4.730669150070606,-126.81171301116376,-8.533497036933403,47.20637357843252
-4.36,0.59,-2.74,-0.8609316776168103,-0.5987612693102187,4.730669150070606,-126.81171301116376,-8.533497036933403,47.20637357843252
-6.2,1.18,-3.0,-1.5095534189888564,-0.1354474455104166,2.984971140311297,-125.3707171892468,-8.533497036933403,49.21502427217554
-6.2,1.18,-3.0,-1.5095534189888564,-0.1354474455104166,2.984971140311297,-125.3707171892468,-8.533497036933403,49.21502427217554
-5.14,1.7,-5.36,1.2489034586754657,-0.4926835489856083,2.3075365142960136,-123.91521633901591,-8.073924421552888,51.17639894970855
-5.14,1.7,-5.36,1.2489034586754657,-0.4926835489856083,2.3075365142960136,-123.91521633901591,-8.073924421552888,51.17639894970855
-6.66,2.38,-3.44,-0.6765902715768772,0.7471453200610421,2.0068038813180147,-122.13730880568986,-8.039461810968866,53.02589040849175
-6.66,2.38,-3.44,-0.6765902715768772,0.7471453200610421,2.0068038813180147,-122.13730880568986,-8.039461810968866,53.02589040849175
-8.17,1.72,-2.82,-2.0319849758238355,0.2384105593037513,1.2349583663002228,-120.8475925272034,-7.809729533725751,54.37450072399204
-8.17,1.72,-2.82,-2.0319849758238355,0.2384105593037513,1.2349583663002228,-120.8475925272034,-7.809729533725751,54.37450072399204
-7.97,3.27,-4.25,-0.3312954263301792,1.07413306534076,0.2665880768029414,-120.31578829659291,-8.073924421552888,54.55492780539657
-7.97,3.27,-4.25,-0.3312954263301792,1.07413306534076,0.2665880768029414,-120.31578829659291,-8.073924421552888,54.55492780539657
-7.76,2.01,-4.46,-0.3882384227014196,-0.0647246056878556,0.6418051211950733,-120.43103091016366,-8.177316654862214,54.69679474885505
-7.76,2.01,-4.46,-0.3882384227014196,-0.0647246056878556,0.6418051211950733,-120.43103091016366,-8.177316654862214,54.69679474885505
-7.62,0.11,-5.51,-0.0765296022061565,-2.0880075237782423,0.637627816548175,-121.15010938852664,-7.913105112625811,54.37450072399204
-7.62,0.11,-5.51,-0.0765296022061565,-2.0880075237782423,0.637627816548175,-121.15010938852664,-7.913105112625811,54.37450072399204
-7.42,3.27,-4.88,0.4601775275691676,0.9559466239189174,0.4024965189397101,-120.5695899160874,-8.073924421552888,54.55492780539657
-7.42,3.27,-4.88,0.4601775275691676,0.9559466239189174,0.4024965189397101,-120.5695899160874,-8.073924421552888,54.55492780539657
-8.48,1.77,-3.46,-1.6515626407573978,0.0508307575910932,0.6259824274464023,-120.63897960324066,-7.660420468145224,54.735501492602346
-8.48,1.77,-3.46,-1.6515626407573978,0.0508307575910932,0.6259824274464023,-120.63897960324066,-7.660420468145224,54.735501492602346
-8.39,2.26,-4.36,-0.8393308365025479,0.141585897091492,0.1223959151135041,-120.94052444578816,-7.3733240323499585,54.36161866399844
-8.39,2.26,-4.36,-0.8393308365025479,0.141585897091492,0.1223959151135041,-120.94052444578816,-7.3733240323499585,54.36161866399844
-7.81,3.41,-5.06,0.281788231302257,0.8301295380014067,-0.0654966937458514,-120.96377821929032,-6.971466463000762,54.039808077971365
-7.81,3.41,-5.06,0.281788231302257,0.8301295380014067,-0.0654966937458514,-120.96377821929032,-6.971466463000762,54.039808077971365
-8.44,2.2,-4.64,-0.7686236568323311,-0.1792392759328396,-0.0412071758591601,-121.196776153626,-6.661520952908496,53.89835748467391
-8.44,2.2,-4.64,-0.7686236568323311,-0.1792392759328396,-0.0412071758591601,-121.196776153626,-6.661520952908496,53.89835748467391
-8.45,2.4,-4.8,-0.7138260445162035,-0.0556379599282745,-0.1778307974969522,-121.78298489723478,-6.48935022815341,53.25651268144825
-8.45,2.4,-4.8,-0.7138260445162035,-0.0556379599282745,-0.1778307974969522,-121.78298489723478,-6.48935022815341,53.25651268144825
-7.86,2.97,-5.73,0.4162580036151243,0.1516629813730146,-0.3539172880261692,-122.18470178965724,-6.030298919379606,52.92346596535568
-7.86,2.97,-5.73,0.4162580036151243,0.1516629813730146,-0.3539172880261692,-122.18470178965724,-6.030298919379606,52.92346596535568
-7.93,2.77,-5.25,-0.0410773574913387,0.0962482468416547,-0.0983663516110056,-122.11362560713808,-5.777862453568277,52.97467248448692
-7.93,2.77,-5.25,-0.0410773574913387,0.0962482468416547,-0.0983663516110056,-122.11362560713808,-5.777862453568277,52.97467248448692
-8.06,2.76,-4.95,-0.3616663036212565,0.1751010872439919,-0.0382591968423433,-122.13730880568986,-5.777862453568277,52.89786697704349
-8.06,2.76,-4.95,-0.3616663036212565,0.1751010872439919,-0.0382591968423433,-122.13730880568986,-5.777862453568277,52.89786697704349
-7.94,2.98,-4.98,-0.2529885692274847,0.348455126469716,-0.018774968350085,-122.3270942285192,-5.364844561963229,52.7571233277472
-7.94,2.98,-4.98,-0.2529885692274847,0.348455126469716,-0.018774968350085,-122.3270942285192,-5.364844561963229,52.7571233277472
-7.58,2.92,-5.37,0.227066754973515,0.1787529557703531,0.0733983301011313,-122.42220131273352,-5.376316314590642,52.64203317675828
-7.58,2.92,-5.37,0.227066754973515,0.1787529557703531,0.0733983301011313,-122.42220131273352,-5.376316314590642,52.64203317675828
-7.79,2.85,-5.03,-0.1709074322505975,0.2048598958634304,0.1094172466487464,-122.3984110822012,-5.112479412053579,52.73154278918168
-7.79,2.85,-5.03,-0.1709074322505975,0.2048598958634304,0.1094172466487464,-122.3984110822012,-5.112479412053579,52.73154278918168
-7.79,2.74,-5.27,-0.0439270896166862,0.013211973192327,0.0106050912339021,-122.541287565057,-5.112479412053579,52.55255813835036
-7.79,2.74,-5.27,-0.0439270896166862,0.013211973192327,0.0106050912339021,-122.541287565057,-5.112479412053579,52.55255813835036
-7.82,3.29,-5.14,-0.0776829518256027,0.5364319144633827,-0.0980108301415754,-122.7322966604894,-4.860139072417077,52.32263756575615
-7.82,3.29,-5.14,-0.0776829518256027,0.5364319144633827,-0.0980108301415754,-122.7322966604894,-4.860139072417077,52.32263756575615
-7.59,2.96,-5.31,0.0884690676205795,0.1947256755026705,0.0845074822534943,-122.89990924402274,-4.527544452628878,52.258810985064926
-7.59,2.96,-5.31,0.0884690676205795,0.1947256755026705,0.0845074822534943,-122.89990924402274,-4.527544452628878,52.258810985064926
-7.72,2.69,-5.26,-0.0975716286445555,-0.062938860434389,0.0861243723844396,-122.89990924402274,-4.6078223124450055,52.19500183844674
-7.72,2.69,-5.26,-0.0975716286445555,-0.062938860434389,0.0861243723844396,-122.89990924402274,-4.6078223124450055,52.19500183844674
-7.84,3.26,-5.07,-0.1797446611042238,0.4942996976870899,-0.0686454216909879,-122.82802018843608,-4.550480755424785,52.22052340718582
-7.84,3.26,-5.07,-0.1797446611042238,0.4942996976870899,-0.0686454216909879,-122.82802018843608,-4.550480755424785,52.22052340718582
-7.81,3.13,-5.17,-0.1233176751977948,0.3545610724939125,-0.0615301360157438,-122.89990924402274,-4.298191253728037,52.24604776210595
-7.81,3.13,-5.17,-0.1233176751977948,0.3545610724939125,-0.0615301360157438,-122.89990924402274,-4.298191253728037,52.24604776210595
-7.74,2.66,-5.37,-0.0390931756874124,-0.1374690704505488,0.0189192120040324,-122.94788136502078,-4.321125783265932,52.22052340718582
-7.74,2.66,-5.37,-0.0390931756874124,-0.1374690704505488,0.0189192120040324,-122.94788136502078,-4.321125783265932,52.22052340718582
-7.74,3.3,-5.18,-0.0262086883343841,0.5008874508848626,-0.0614007125876625,-122.82802018843608,-4.3669953627837845,52.27157490538662
-7.74,3.3,-5.18,-0.0262086883343841,0.5008874508848626,-0.0614007125876625,-122.82802018843608,-4.3669953627837845,52.27157490538662
-7.82,2.62,-5.14,-0.2840478673300771,-0.083583028513152,0.0933225224354838,-123.06797364519969,-4.240855681461491,52.16948305371096
-7.82,2.62,-5.14,-0.2840478673300771,-0.083583028513152,0.0933225224354838,-123.06797364519969,-4.240855681461491,52.16948305371096
-7.53,3.26,-5.58,0.3530190546084576,0.3795751881663288,-0.1027495894611014,-123.14014055583444,-4.1720543955147065,52.08018919976154
-7.53,3.26,-5.58,0.3530190546084576,0.3795751881663288,-0.1027495894611014,-123.14014055583444,-4.1720543955147065,52.08018919976154
-7.94,3.06,-4.65,-0.6198133337850431,0.4857583049496541,0.1417873367008084,-123.01990890666336,-4.091788128472596,52.28433952334372
-7.94,3.06,-4.65,-0.6198133337850431,0.4857583049496541,0.1417873367008084,-123.01990890666336,-4.091788128472596,52.28433952334372
-7.69,2.47,-5.04,-0.3218635369269806,-0.1663829999461914,0.293116452420227,-123.16421485435568,-4.034456312516312,52.16948305371096
-7.69,2.47,-5.04,-0.3218635369269806,-0.1663829999461914,0.293116452420227,-123.16421485435568,-4.034456312516312,52.16948305371096
-7.73,2.83,-4.84,-0.4355516657826037,0.2032599156797394,0.2695445610781935,-123.18829850358512,-3.954193464226632,52.08018919976154
-7.73,2.83,-4.84,-0.4355516657826037,0.2032599156797394,0.2695445610781935,-123.18829850358512,-3.954193464226632,52.08018919976154
-7.82,3.39,-5.22,-0.1045034316619617,0.5576275080181372,-0.1718784784417195,-123.26060567533968,-3.873932556571698,51.93993891277072
-7.82,3.39,-5.22,-0.1045034316619617,0.5576275080181372,-0.1718784784417195,-123.26060567533968,-3.873932556571698,51.93993891277072
-7.53,3.08,-5.76,0.3753873895757964,0.0951080947006131,-0.1540195938611415,-123.42965193046732,-3.701951248377608,51.736087563875465
-7.53,3.08,-5.76,0.3753873895757964,0.0951080947006131,-0.1540195938611415,-123.42965193046732,-3.701951248377608,51.736087563875465
-7.78,3.24,-5.14,-0.2090274767845034,0.4173922690728475,-0.0537602961117844,-123.38130576448056,-3.644626018390772,51.77429627625306
-7.78,3.24,-5.14,-0.2090274767845034,0.4173922690728475,-0.0537602961117844,-123.38130576448056,-3.644626018390772,51.77429627625306
-7.83,2.73,-5.25,-0.2741211966037782,-0.0829407564416015,-0.003664898131122,-123.45383923298036,-3.621696182670093,51.736087563875465
-7.83,2.73,-5.25,-0.2741211966037782,-0.0829407564416015,-0.003664898131122,-123.45383923298036,-3.621696182670093,51.736087563875465
-7.58,3.28,-5.64,0.2720704327627903,0.2991139470347517,-0.1863930063272256,-123.52645816564733,-3.656090990936744,51.59604173997076
-7.58,3.28,-5.64,0.2720704327627903,0.2991139470347517,-0.1863930063272256,-123.52645816564733,-3.656090990936744,51.59604173997076
-7.65,3.15,-5.28,-0.0588465078997711,0.2890911051987339,-0.0033634261581401,-123.42965193046732,-3.6675560000932936,51.65968866130368
-7.65,3.15,-5.28,-0.0588465078997711,0.2890911051987339,-0.0033634261581401,-123.42965193046732,-3.6675560000932936,51.65968866130368
-7.99,2.76,-4.86,-0.6639455656947916,0.0452262831768024,0.0786270318371364,-123.42965193046732,-3.656090990936744,51.71061852077841
-7.99,2.76,-4.86,-0.6639455656947916,0.0452262831768024,0.0786270318371364,-123.42965193046732,-3.656090990936744,51.71061852077841
-7.66,3.41,-5.36,0.045738237088226,0.4781464589967894,-0.1332988920928031,-123.40547411170807,-3.724881599063971,51.59604173997076
-7.66,3.41,-5.36,0.045738237088226,0.4781464589967894,-0.1332988920928031,-123.40547411170807,-3.724881599063971,51.59604173997076
-7.39,3.11,-5.61,0.3444704725195665,0.1549991978969998,0.0284285184516583,-123.40547411170807,-3.7592774051414257,51.64695790877244
-7.39,3.11,-5.61,0.3444704725195665,0.1549991978969998,0.0284285184516583,-123.40547411170807,-3.7592774051414257,51.64695790877244
-7.85,2.96,-4.91,-0.4762584809319183,0.2280242416705893,0.1002921452456764,-123.30885743015295,-3.782208130568333,51.79977218612414
-7.85,2.96,-4.91,-0.4762584809319183,0.2280242416705893,0.1002921452456764,-123.30885743015295,-3.782208130568333,51.79977218612414
-7.7,2.7,-5.1,-0.3242791972191687,-0.0519885079180673,0.1898865009169856,-123.4780360314948,-3.782208130568333,51.634227840640925
-7.7,2.7,-5.1,-0.3242791972191687,-0.0519885079180673,0.1898865009169856,-123.4780360314948,-3.782208130568333,51.634227840640925
-7.64,3.37,-5.45,0.1153386296840982,0.4285604785921106,-0.1548776397092552,-123.45383923298036,-3.805139007503523,51.57058775662223
-7.64,3.37,-5.45,0.1153386296840982,0.4285604785921106,-0.1548776397092552,-123.45383923298036,-3.805139007503523,51.57058775662223
-7.62,2.86,-5.3,-0.1092218708687259,0.0389980404399452,0.0947732639738596,-123.5991628945627,-3.7592774051414257,51.51968798135092
-7.62,2.86,-5.3,-0.1092218708687259,0.0389980404399452,0.0947732639738596,-123.5991628945627,-3.7592774051414257,51.51968798135092
-7.55,3.09,-5.5,0.127129465823646,0.1728828236168582,-0.0297390543337918,-123.5991628945627,-3.805139007503523,51.45607859919252
-7.55,3.09,-5.5,0.127129465823646,0.1728828236168582,-0.0297390543337918,-123.5991628945627,-3.805139007503523,51.45607859919252
-7.81,3.06,-5.09,-0.3385384118926796,0.252731309817737,0.004134066388314,-123.502242338284,-3.8853982832056495,51.49424218516168
-7.81,3.06,-5.09,-0.3385384118926796,0.252731309817737,0.004134066388314,-123.502242338284,-3.8853982832056495,51.49424218516168
-7.57,2.71,-5.5,0.0217830944347689,-0.1769691128125519,0.066670152489678,-123.6719537539127,-3.77074274897392,51.40520334224811
-7.57,2.71,-5.5,0.0217830944347689,-0.1769691128125519,0.066670152489678,-123.6719537539127,-3.77074274897392,51.40520334224811
-7.82,3.46,-5.11,-0.2603456359826771,0.6019199546922782,-0.1334713532817595,-123.57491843142247,-3.7478120989556993,51.41792113681584
-7.82,3.46,-5.11,-0.2603456359826771,0.6019199546922782,-0.1334713532817595,-123.57491843142247,-3.7478120989556993,51.41792113681584
-7.46,3.32,-5.64,0.3321877843297376,0.3291441174717429,-0.1062161559548879,-123.5991628945627,-3.782208130568333,51.41792113681584
-7.46,3.32,-5.64,0.3321877843297376,0.3291441174717429,-0.1062161559548879,-123.5991628945627,-3.782208130568333,51.41792113681584
-7.77,2.79,-5.22,-0.2659091267358486,-0.010078757661025,0.0427065981278573,-123.5506835259097,-3.621696182670093,51.62149845664168
-7.77,2.79,-5.22,-0.2659091267358486,-0.010078757661025,0.0427065981278573,-123.5506835259097,-3.621696182670093,51.62149845664168
-7.81,2.62,-4.66,-0.7427024765738786,0.0277820700589312,0.3714117312611425,-123.52645816564733,-3.6790210459755386,51.65968866130368
-7.81,2.62,-4.66,-0.7427024765738786,0.0277820700589312,0.3714117312611425,-123.52645816564733,-3.6790210459755386,51.65968866130368
-7.64,3.35,-5.11,-0.1617647400485961,0.5386867350768125,0.0399796989030463,-123.57491843142247,-3.40386984812725,51.59604173997076
-7.64,3.35,-5.11,-0.1617647400485961,0.5386867350768125,0.0399796989030463,-123.57491843142247,-3.40386984812725,51.59604173997076
-7.5,2.82,-5.6,0.1621496361278374,-0.0913557879387401,0.0328195525493342,-123.74483108000663,-3.3121572228147254,51.49424218516168
-7.5,2.82,-5.6,0.1621496361278374,-0.0913557879387401,0.0328195525493342,-123.74483108000663,-3.3121572228147254,51.49424218516168
-7.9,3.41,-4.64,-0.6585942870756902,0.6966712052943926,0.0778986517156319,-123.45383923298036,-3.346549205454908,51.634227840640925
-7.9,3.41,-4.64,-0.6585942870756902,0.6966712052943926,0.0778986517156319,-123.45383923298036,-3.346549205454908,51.634227840640925
-7.58,2.5,-5.42,-0.0967116668078294,-0.3477874273078623,0.1654627930783423,-123.76914279530573,-3.3121572228147254,51.45607859919252
-7.58,2.5,-5.42,-0.0967116668078294,-0.3477874273078623,0.1654627930783423,-123.76914279530573,-3.3121572228147254,51.45607859919252
-7.59,2.96,-5.26,-0.1376007752069375,0.1151989544719358,0.1110275224304953,-123.76914279530573,-3.2892294003721183,51.39248622701663
-7.59,2.96,-5.26,-0.1376007752069375,0.1151989544719358,0.1110275224304953,-123.76914279530573,-3.2892294003721183,51.39248622701663
-7.71,3.34,-5.39,-0.0393883725760965,0.3952107489932626,-0.1680207725110403,-123.74483108000663,-3.2892294003721183,51.35433895468569
-7.71,3.34,-5.39,-0.0393883725760965,0.3952107489932626,-0.1680207725110403,-123.74483108000663,-3.2892294003721183,51.35433895468569
-7.53,2.79,-5.49,0.0193927038972989,-0.1086158129288869,0.0797323727031908,-123.86648635871312,-3.300693295071686,51.27806271629933
-7.53,2.79,-5.49,0.0193927038972989,-0.1086158129288869,0.0797323727031908,-123.86648635871312,-3.300693295071686,51.27806271629933
-7.65,3.0,-4.95,-0.4086177332783615,0.2448664113303032,0.2255189608870971,-123.76914279530573,-3.40386984812725,51.3034854195264
-7.65,3.0,-4.95,-0.4086177332783615,0.2448664113303032,0.2255189608870971,-123.76914279530573,-3.40386984812725,51.3034854195264
-7.58,2.92,-5.45,-0.0359904384975912,0.0002971983233162,0.0248298932913346,-123.93959592332432,-3.2777655386010047,51.15098975907829
-7.58,2.92,-5.45,-0.0359904384975912,0.0002971983233162,0.0248298932913346,-123.93959592332432,-3.2777655386010047,51.15098975907829
