acc_x,acc_y,acc_z,lin_x,lin_y,lin_z,eul_x,eul_y,eul_z
-1.4,0.25,-9.84,-0.2517513943679986,-0.0865169348600519,-0.1320237573690494,-95.872524082521,-83.42603924278487,4.309658496908005
-1.4,0.25,-9.84,-0.2517513943679986,-0.0865169348600519,-0.1320237573690494,-95.872524082521,-83.42603924278487,4.309658496908005
-1.37,0.23,-9.78,-0.2514332912987084,-0.0955911400843415,-0.0678547285402633,-95.872524082521,-83.44139093704848,4.321125783265932
-1.37,0.23,-9.78,-0.2514332912987084,-0.0955911400843415,-0.0678547285402633,-95.872524082521,-83.44139093704848,4.321125783265932
-1.42,0.37,-9.71,-0.1209395114306396,-0.0215371587914924,-0.0128362281774236,-95.85542117857165,-83.45674446527082,4.298191253728037
-1.42,0.37,-9.71,-0.1209395114306396,-0.0215371587914924,-0.0128362281774236,-95.85542117857165,-83.45674446527082,4.298191253728037
-1.49,0.32,-9.68,-0.1775078550587037,0.0492976353970711,0.0091523243413487,-95.85542117857165,-83.45674446527082,4.2867240536107065
-1.49,0.32,-9.68,-0.1775078550587037,0.0492976353970711,0.0091523243413487,-95.85542117857165,-83.45674446527082,4.2867240536107065
-1.38,0.49,-9.74,0.0027902558997094,-0.0512572504817709,-0.0426882980149994,-95.872524082521,-83.44139093704848,4.298191253728037
-1.38,0.49,-9.74,0.0027902558997094,-0.0512572504817709,-0.0426882980149994,-95.872524082521,-83.44139093704848,4.298191253728037
-1.39,0.68,-9.49,0.1838401041667394,0.0139351026989023,0.1930862160012303,-95.88962981558169,-83.42603924278487,4.240855681461491
-1.39,0.68,-9.49,0.1838401041667394,0.0139351026989023,0.1930862160012303,-95.88962981558169,-83.42603924278487,4.240855681461491
-1.21,0.27,-9.85,-0.1955464491529278,-0.2492068410371517,-0.1160087937207645,-95.90673837953938,-83.42603924278487,4.2867240536107065
-1.21,0.27,-9.85,-0.1955464491529278,-0.2492068410371517,-0.1160087937207645,-95.90673837953938,-83.42603924278487,4.2867240536107065
-1.13,0.45,-9.94,-0.0210763175579935,-0.3185140055927037,-0.2024011347020025,-95.92384977618164,-83.41068938154757,4.229388694927676
-1.13,0.45,-9.94,-0.0210763175579935,-0.3185140055927037,-0.2024011347020025,-95.92384977618164,-83.41068938154757,4.229388694927676
-1.51,0.58,-9.43,0.0743634040086042,0.1317363294657253,0.2401189869502236,-95.88962981558169,-83.41068938154757,4.240855681461491
-1.51,0.58,-9.43,0.0743634040086042,0.1317363294657253,0.2401189869502236,-95.88962981558169,-83.41068938154757,4.240855681461491
-1.41,0.32,-9.74,-0.1771919206829533,-0.0485119172986699,-0.0383664863815589,-95.85542117857165,-83.44139093704848,4.298191253728037
-1.41,0.32,-9.74,-0.1771919206829533,-0.0485119172986699,-0.0383664863815589,-95.85542117857165,-83.44139093704848,4.298191253728037
-1.5,0.44,-9.75,-0.0789704719874266,0.0448395153227642,-0.0674501150697128,-95.83832110194956,-83.45674446527082,4.275256896440698
-1.5,0.44,-9.75,-0.0789704719874266,0.0448395153227642,-0.0674501150697128,-95.83832110194956,-83.45674446527082,4.275256896440698
-1.57,0.65,-9.56,0.1251343395282471,0.154411758252315,0.098843944768765,-95.8212238508723,-83.45674446527082,4.298191253728037
-1.57,0.65,-9.56,0.1251343395282471,0.154411758252315,0.098843944768765,-95.8212238508723,-83.45674446527082,4.298191253728037
-1.56,0.23,-9.65,-0.2879609795919919,0.0819646568042699,0.033249349803194,-95.80412942355947,-83.48745702732505,4.344060485976967
-1.56,0.23,-9.65,-0.2879609795919919,0.0819646568042699,0.033249349803194,-95.80412942355947,-83.48745702732505,4.344060485976967
-1.43,0.58,-9.64,0.074061784408434,-0.0078672704910144,0.0442039459546688,-95.8212238508723,-83.45674446527082,4.344060485976967
-1.43,0.58,-9.64,0.074061784408434,-0.0078672704910144,0.0442039459546688,-95.8212238508723,-83.45674446527082,4.344060485976967
-1.4,0.44,-9.81,-0.0659171146203989,-0.0792282436557923,-0.1119727783602808,-95.80412942355947,-83.48745702732505,4.355527902560735
-1.4,0.44,-9.81,-0.0659171146203989,-0.0792282436557923,-0.1119727783602808,-95.80412942355947,-83.48745702732505,4.355527902560735
-1.43,0.38,-9.62,-0.1205712737244236,-0.0283310627134914,0.0743142105382563,-95.78703781823206,-83.48745702732505,4.3669953627837845
-1.43,0.38,-9.62,-0.1205712737244236,-0.0283310627134914,0.0743142105382563,-95.78703781823206,-83.48745702732505,4.3669953627837845
-1.52,0.25,-9.65,-0.2548336123717563,0.0424353506987842,0.0378906585576785,-95.76994903311297,-83.51817693642106,4.389930414609093
-1.52,0.25,-9.65,-0.2548336123717563,0.0424353506987842,0.0378906585576785,-95.76994903311297,-83.51817693642106,4.389930414609093
-1.41,0.52,-9.76,0.0043774419000512,-0.058142882454416,-0.0682019099388195,-95.8212238508723,-83.45674446527082,4.332593112917143
-1.41,0.52,-9.76,0.0043774419000512,-0.058142882454416,-0.0682019099388195,-95.8212238508723,-83.45674446527082,4.332593112917143
-1.33,0.59,-9.79,0.0828929779376632,-0.1326506832749534,-0.0896438795508345,-95.8212238508723,-83.44139093704848,4.332593112917143
-1.33,0.59,-9.79,0.0828929779376632,-0.1326506832749534,-0.0896438795508345,-95.8212238508723,-83.44139093704848,4.332593112917143
-1.44,0.45,-9.6,-0.0528489488279135,-0.0149968606661677,0.0889814481930439,-95.8212238508723,-83.45674446527082,4.389930414609093
-1.44,0.45,-9.6,-0.0528489488279135,-0.0149968606661677,0.0889814481930439,-95.8212238508723,-83.45674446527082,4.389930414609093
-1.4,0.4,-9.83,-0.0994118113660135,-0.0932179989614602,-0.1296635868605999,-95.8212238508723,-83.44139093704848,4.412865642375664
-1.4,0.4,-9.83,-0.0994118113660135,-0.0932179989614602,-0.1296635868605999,-95.8212238508723,-83.44139093704848,4.412865642375664
-1.63,0.59,-9.51,0.0769679425262028,0.200433947302552,0.1423340817059415,-95.78703781823206,-83.48745702732505,4.424333322525307
-1.63,0.59,-9.51,0.0769679425262028,0.200433947302552,0.1423340817059415,-95.78703781823206,-83.48745702732505,4.424333322525307
-1.48,0.3,-9.67,-0.1867324793534246,0.0073070146795167,0.0212334228331894,-95.78703781823206,-83.48745702732505,4.447268815934101
-1.48,0.3,-9.67,-0.1867324793534246,0.0073070146795167,0.0212334228331894,-95.78703781823206,-83.48745702732505,4.447268815934101
-1.55,0.39,-9.55,-0.0952302525128198,0.1041563616060446,0.1248535421444945,-95.76994903311297,-83.51817693642106,4.4702044875913645
-1.55,0.39,-9.55,-0.0952302525128198,0.1041563616060446,0.1248535421444945,-95.76994903311297,-83.51817693642106,4.4702044875913645
-1.46,0.45,-9.79,-0.0380215142175618,-0.0079270161869401,-0.1017651874490504,-95.76994903311297,-83.53353964844825,4.424333322525307
-1.46,0.45,-9.79,-0.0380215142175618,-0.0079270161869401,-0.1017651874490504,-95.76994903311297,-83.53353964844825,4.424333322525307
-1.9,1.41,-8.49,0.9872427650459854,0.770913760699319,1.0825888071593184,-95.6162765840312,-83.7488111988913,4.550480755424785
-1.9,1.41,-8.49,0.9872427650459854,0.770913760699319,1.0825888071593184,-95.6162765840312,-83.7488111988913,4.550480755424785
-1.06,-1.46,-10.7,-1.5486763791446658,-0.4848979700205174,-0.9223609251202358,-95.58215802399698,-83.9336186033691,5.020716482682318
-1.06,-1.46,-10.7,-1.5486763791446658,-0.4848979700205174,-0.9223609251202358,-95.58215802399698,-83.9336186033691,5.020716482682318
-1.28,0.13,-9.67,0.0861255169171836,0.136404976137653,0.0527699475377669,-95.54805066002704,-84.04154678419287,4.917487034889402
-1.28,0.13,-9.67,0.0861255169171836,0.136404976137653,0.0527699475377669,-95.54805066002704,-84.04154678419287,4.917487034889402
-0.6,-2.58,-10.95,-2.3094831759565686,-0.8236165329671912,-1.1891147877078865,-96.02657774273015,-83.6257545843694,5.215716631990905
-0.6,-2.58,-10.95,-2.3094831759565686,-0.8236165329671912,-1.1891147877078865,-96.02657774273015,-83.6257545843694,5.215716631990905
-0.82,-1.02,-9.41,-0.8529632036279019,-0.3187972901257517,0.3498153254873184,-97.52784465140512,-82.12775101851454,5.192774664418371
-0.82,-1.02,-9.41,-0.8529632036279019,-0.3187972901257517,0.3498153254873184,-97.52784465140512,-82.12775101851454,5.192774664418371
-1.32,-0.99,-7.97,-0.8745952095751739,0.3941562064800546,1.724377788283702,-100.474586173471,-79.24105462662456,5.15836210329675
-1.32,-0.99,-7.97,-0.8745952095751739,0.3941562064800546,1.724377788283702,-100.474586173471,-79.24105462662456,5.15836210329675
-0.55,-3.6,-8.66,-3.253343247816173,-0.5846526439728161,1.012786287286202,-102.50284081699964,-77.39373685475255,3.335085177891311
-0.55,-3.6,-8.66,-3.253343247816173,-0.5846526439728161,1.012786287286202,-102.50284081699964,-77.39373685475255,3.335085177891311
0.13,-3.75,-9.5,-3.760185423655448,-0.6414548341348381,0.3314750002707498,-106.43226434357533,-73.45358416852795,-2.956790311078442
0.13,-3.75,-9.5,-3.760185423655448,-0.6414548341348381,0.3314750002707498,-106.43226434357533,-73.45358416852795,-2.956790311078442
1.5,2.5,-8.75,1.8635000190107087,0.5508071330737786,0.7907485375115062,-110.3098558920654,-68.86014526786532,-9.21161989509871
1.5,2.5,-8.75,1.8635000190107087,0.5508071330737786,0.7907485375115062,-110.3098558920654,-68.86014526786532,-9.21161989509871
2.67,2.92,-8.41,1.7770180033665413,0.5206078099829452,0.6987098089416524,-112.94068164320149,-64.2949069533977,-16.906223928806188
2.67,2.92,-8.41,1.7770180033665413,0.5206078099829452,0.6987098089416524,-112.94068164320149,-64.2949069533977,-16.906223928806188
4.37,2.67,-10.1,0.8810739310849429,0.2220016500983626,-1.480963742298064,-113.75411958451244,-60.75566190693615,-23.65899809735879
4.37,2.67,-10.1,0.8810739310849429,0.2220016500983626,-1.480963742298064,-113.75411958451244,-60.75566190693615,-23.65899809735879
5.97,4.05,-9.79,2.2658011906392352,-0.0023067686385958,-2.1413054587099225,-114.7888564887898,-57.98563819390608,-27.041794884833607
5.97,4.05,-9.79,2.2658011906392352,-0.0023067686385958,-2.1413054587099225,-114.7888564887898,-57.98563819390608,-27.041794884833607
6.48,5.19,-9.66,3.027606229590502,0.4915088883586818,-2.555959737883392,-115.38674111389928,-56.04262977353804,-29.393135398012305
6.48,5.19,-9.66,3.027606229590502,0.4915088883586818,-2.555959737883392,-115.38674111389928,-56.04262977353804,-29.393135398012305
5.26,3.71,-7.93,1.972814808120689,0.2066823583527466,-0.2124260120684518,-115.1726470817956,-56.0296492994227,-29.79611144994345
5.26,3.71,-7.93,1.972814808120689,0.2066823583527466,-0.2124260120684518,-115.1726470817956,-56.0296492994227,-29.79611144994345
5.99,2.01,-9.71,0.148270565553405,-0.678493443864266,-1.75717127525429,-114.30136176070128,-56.67963771453915,-30.187596092266823
5.99,2.01,-9.71,0.148270565553405,-0.678493443864266,-1.75717127525429,-114.30136176070128,-56.67963771453915,-30.187596092266823
5.5,3.03,-9.26,1.0428505891804796,-0.0323504776120937,-1.3329153458850982,-114.17471692174006,-57.31856128888758,-29.41682953361233
5.5,3.03,-9.26,1.0428505891804796,-0.0323504776120937,-1.3329153458850982,-114.17471692174006,-57.31856128888758,-29.41682953361233
4.61,3.07,-7.74,1.5179321515361108,-0.0006345309228419,0.4108806551989321,-113.8590465676662,-58.69430899208943,-27.65505415801313
4.61,3.07,-7.74,1.5179321515361108,-0.0006345309228419,0.4108806551989321,-113.8590465676662,-58.69430899208943,-27.65505415801313
5.69,2.04,-11.0,0.1346339929823045,-0.7408238655509821,-2.7221469768914246,-113.02370899765695,-60.42387417457696,-25.970475433904987
5.69,2.04,-11.0,0.1346339929823045,-0.7408238655509821,-2.7221469768914246,-113.02370899765695,-60.42387417457696,-25.970475433904987
4.76,1.14,-10.39,-0.328743672083115,-1.3248935824579686,-1.5971162459920247,-112.32084385114356,-63.13463755141501,-21.84721243198945
4.76,1.14,-10.39,-0.328743672083115,-1.3248935824579686,-1.5971162459920247,-112.32084385114356,-63.13463755141501,-21.84721243198945
3.28,1.33,-9.59,0.0470697542033751,-1.0353949470239154,-0.3629685642292717,-112.44441011743348,-64.94571342127749,-16.55875139620892
3.28,1.33,-9.59,0.0470697542033751,-1.0353949470239154,-0.3629685642292717,-112.44441011743348,-64.94571342127749,-16.55875139620892
2.48,1.78,-10.89,0.2975970163419326,-0.9538027146911978,-1.4588990943545266,-112.38260211278735,-66.1586995980381,-11.731740790019304
2.48,1.78,-10.89,0.2975970163419326,-0.9538027146911978,-1.4588990943545266,-112.38260211278735,-66.1586995980381,-11.731740790019304
-0.37,0.0,-7.91,-1.3042756343700743,-0.3084071476994981,2.0022441865612617,-111.21754699943544,-67.90425219273371,-4.3669953627837845
-0.37,0.0,-7.91,-1.3042756343700743,-0.3084071476994981,2.0022441865612617,-111.21754699943544,-67.90425219273371,-4.3669953627837845
-1.69,1.38,-8.18,-0.377780661731472,0.6529873268905281,1.3743437127176108,-110.61126490677216,-68.0148037838229,-0.4010712754482724
-1.69,1.38,-8.18,-0.377780661731472,0.6529873268905281,1.3743437127176108,-110.61126490677216,-68.0148037838229,-0.4010712754482724
-1.94,2.73,-9.0,0.8844866056451995,0.2191490331456087,0.2470392785477085,-109.81002132963994,-67.53166897221763,4.149120969117045
-1.94,2.73,-9.0,0.8844866056451995,0.2191490331456087,0.2470392785477085,-109.81002132963994,-67.53166897221763,4.149120969117045
-3.22,1.13,-7.85,-0.7384154084488384,0.5579855391049687,1.297173234492318,-108.8195376256316,-67.40765461346972,7.580028689727107
-3.22,1.13,-7.85,-0.7384154084488384,0.5579855391049687,1.297173234492318,-108.8195376256316,-67.40765461346972,7.580028689727107
-3.87,2.48,-6.94,0.4266257680196056,1.3171561814609722,1.5984839412691656,-107.58829882460172,-67.11863507977819,10.361732200036483
-3.87,2.48,-6.94,0.4266257680196056,1.3171561814609722,1.5984839412691656,-107.58829882460172,-67.11863507977819,10.361732200036483
-3.38,1.99,-8.3,0.1458136220411516,-0.0945548685474188,0.6281807504758063,-107.02758003485113,-66.91248837447597,11.754779974813852
-3.38,1.99,-8.3,0.1458136220411516,-0.0945548685474188,0.6281807504758063,-107.02758003485113,-66.91248837447597,11.754779974813852
-3.96,2.26,-8.15,0.244059255312958,0.3956836876905192,0.4795084497075575,-106.4131295533326,-67.14613988325526,12.469235993000286
-3.96,2.26,-8.15,0.244059255312958,0.3956836876905192,0.4795084497075575,-106.4131295533326,-67.14613988325526,12.469235993000286
-4.53,0.75,-7.63,-1.195175926596344,0.6086987353374929,1.003165442503283,-105.91711433300468,-67.57302702971405,13.322613734970494
-4.53,0.75,-7.63,-1.195175926596344,0.6086987353374929,1.003165442503283,-105.91711433300468,-67.57302702971405,13.322613734970494
-4.27,1.98,-7.72,0.0113316923468824,0.7838287841554854,0.7990318892074537,-106.03132620370606,-67.62818664851126,12.918899554710151
-4.27,1.98,-7.72,0.0113316923468824,0.7838287841554854,0.7990318892074537,-106.03132620370606,-67.62818664851126,12.918899554710151
-4.13,2.22,-7.57,0.2143678221774289,1.0338614348152135,0.9649659426262732,-106.5663277531852,-67.73855928586947,11.674144907935558
-4.13,2.22,-7.57,0.2143678221774289,1.0338614348152135,0.9649659426262732,-106.5663277531852,-67.73855928586947,11.674144907935558
-3.81,1.96,-7.47,0.0431862338793607,0.9972382996795722,1.2531565193889629,-107.008311133202,-68.08393507833873,10.327214181692757
-3.81,1.96,-7.47,0.0431862338793607,0.9972382996795722,1.2531565193889629,-107.008311133202,-68.08393507833873,10.327214181692757
-3.79,0.9,-6.1,-0.955140820928774,1.6979845241163949,2.836093740413772,-107.7630780368658,-68.80458261894461,7.212570385921347
-3.79,0.9,-6.1,-0.955140820928774,1.6979845241163949,2.836093740413772,-107.7630780368658,-68.80458261894461,7.212570385921347
-1.61,2.1,-9.21,0.4150788963098744,-0.1799462929477269,0.2347364587328933,-108.28962313901592,-69.38891628677108,3.346549205454908
-1.61,2.1,-9.21,0.4150788963098744,-0.1799462929477269,0.2347364587328933,-108.28962313901592,-69.38891628677108,3.346549205454908
-0.28,3.06,-10.0,1.3311206454414406,-0.3621481965518558,-0.5634496384323047,-108.32875958573808,-70.26931004748687,-1.3865917007687605
-0.28,3.06,-10.0,1.3311206454414406,-0.3621481965518558,-0.5634496384323047,-108.32875958573808,-70.26931004748687,-1.3865917007687605
-0.41,1.44,-7.93,-0.0262090439727618,0.0917353675015981,1.7371086432459857,-107.9771945077934,-71.01366013662432,-4.149120969117045
-0.41,1.44,-7.93,-0.0262090439727618,0.0917353675015981,1.7371086432459857,-107.9771945077934,-71.01366013662432,-4.149120969117045
0.14,0.9,-7.16,-0.4885087612599057,0.2419929253668628,2.6095673539381465,-107.20119776385688,-71.66250640989891,-9.384074619875276
0.14,0.9,-7.16,-0.4885087612599057,0.2419929253668628,2.6095673539381465,-107.20119776385688,-71.66250640989891,-9.384074619875276
2.47,1.81,-9.48,0.2160026983577363,-0.5922843300397354,-0.1356808186104725,-106.5280024809996,-71.42240793741999,-14.89295693159816
2.47,1.81,-9.48,0.2160026983577363,-0.5922843300397354,-0.1356808186104725,-106.5280024809996,-71.42240793741999,-14.89295693159816
4.25,2.85,-9.19,1.1748562875137172,-0.5584558842199351,-0.6312108789861544,-105.1029620001446,-70.42351668923327,-22.104021805228783
4.25,2.85,-9.19,1.1748562875137172,-0.5584558842199351,-0.6312108789861544,-105.1029620001446,-70.42351668923327,-22.104021805228783
6.29,2.67,-11.06,0.5434560305680471,-0.8224034176807329,-3.1565636509982102,-103.42286086216532,-69.87744078129813,-26.806136930452627
6.29,2.67,-11.06,0.5434560305680471,-0.8224034176807329,-3.1565636509982102,-103.42286086216532,-69.87744078129813,-26.806136930452627
6.39,2.5,-10.03,0.4604043109460104,-0.368001971572387,-2.331537773279054,-101.06765675595229,-70.05926324812907,-30.34191613696452
6.39,2.5,-10.03,0.4604043109460104,-0.368001971572387,-2.331537773279054,-101.06765675595229,-70.05926324812907,-30.34191613696452
6.65,0.8,-9.71,-1.083119891511295,-0.6613047277782149,-1.9209297740894,-98.92839577736687,-70.78858910682754,-32.26982009667936
6.65,0.8,-9.71,-1.083119891511295,-0.6613047277782149,-1.9209297740894,-98.92839577736687,-70.78858910682754,-32.26982009667936
6.95,1.48,-10.01,-0.6063951825587212,-0.3041278207559862,-2.4502986884465585,-98.01579456165284,-70.97143532628913,-33.332946647245606
6.95,1.48,-10.01,-0.6063951825587212,-0.3041278207559862,-2.4502986884465585,-98.01579456165284,-70.97143532628913,-33.332946647245606
6.52,0.87,-9.57,-1.133240025499768,-0.3519966666641323,-1.7451492274477562,-97.6844263573576,-71.30954553159043,-33.368833308546726
6.52,0.87,-9.57,-1.133240025499768,-0.3519966666641323,-1.7451492274477562,-97.6844263573576,-71.30954553159043,-33.368833308546726
5.09,1.39,-7.97,-0.3343055709874334,0.0433337807050067,0.2542962602845069,-97.99832666971392,-71.46475194075083,-32.68755772174567
5.09,1.39,-7.97,-0.3343055709874334,0.0433337807050067,0.2542962602845069,-97.99832666971392,-71.46475194075083,-32.68755772174567
4.87,1.71,-8.2,-0.1177084446189478,0.2346863194137484,0.1209870359306126,-98.57639627494255,-71.49298753090414,-31.91210981272961
4.87,1.71,-8.2,-0.1177084446189478,0.2346863194137484,0.1209870359306126,-98.57639627494255,-71.49298753090414,-31.91210981272961
4.71,1.93,-8.01,0.1123139313909325,0.2479753580819154,0.3200808729341151,-98.84027760077332,-71.49298753090414,-31.602352407672463
4.71,1.93,-8.01,0.1123139313909325,0.2479753580819154,0.3200808729341151,-98.84027760077332,-71.49298753090414,-31.602352407672463
5.05,2.15,-8.74,0.1190892254045982,0.2983082786367988,-0.5088446525743162,-99.03424230026712,-71.40829576929687,-31.542810907574808
5.05,2.15,-8.74,0.1190892254045982,0.2983082786367988,-0.5088446525743162,-99.03424230026712,-71.40829576929687,-31.542810907574808
4.91,2.04,-8.42,0.0743969233230167,0.1800708091147097,-0.1496615460247046,-99.2816642471814,-71.26724268861088,-31.43565821002521
4.91,2.04,-8.42,0.0743969233230167,0.1800708091147097,-0.1496615460247046,-99.2816642471814,-71.26724268861088,-31.43565821002521
4.69,2.15,-8.38,0.1616460024238536,0.2783622278927692,-0.0289681829096544,-99.33476502563386,-71.5071072040017,-31.019220197898697
4.69,2.15,-8.38,0.1616460024238536,0.2783622278927692,-0.0289681829096544,-99.33476502563386,-71.5071072040017,-31.019220197898697
4.7,2.35,-8.34,0.3674966265560357,0.2386738454355479,-0.0409934249507131,-99.42333079065403,-71.63424070118842,-30.73390559555541
4.7,2.35,-8.34,0.3674966265560357,0.2386738454355479,-0.0409934249507131,-99.42333079065403,-71.63424070118842,-30.73390559555541
4.76,2.03,-8.48,0.0406729180066308,0.0775783439131444,-0.1271925251408401,-99.38789480139916,-71.84635644599051,-30.44878609284871
4.76,2.03,-8.48,0.0406729180066308,0.0775783439131444,-0.1271925251408401,-99.38789480139916,-71.84635644599051,-30.44878609284871
4.72,1.68,-8.5,-0.2768851544537413,-0.0055910604865798,-0.0561134743658797,-99.2816642471814,-72.0729272521427,-30.258813745298948
4.72,1.68,-8.5,-0.2768851544537413,-0.0055910604865798,-0.0561134743658797,-99.2816642471814,-72.0729272521427,-30.258813745298948
4.86,1.86,-8.86,-0.1718658730868698,0.0747506341624609,-0.4667951117607263,-99.12253530851764,-72.2856337588228,-30.116390374671145
4.86,1.86,-8.86,-0.1718658730868698,0.0747506341624609,-0.4667951117607263,-99.12253530851764,-72.2856337588228,-30.116390374671145
4.67,1.92,-8.6,-0.0548706205462559,0.1195076567921438,-0.1652107659237245,-99.17554944715712,-72.31401640199769,-29.96215210560615
4.67,1.92,-8.6,-0.0548706205462559,0.1195076567921438,-0.1652107659237245,-99.17554944715712,-72.31401640199769,-29.96215210560615
4.76,1.78,-8.66,-0.1717179501666755,0.0025517401863106,-0.2328772017268097,-99.15787486810976,-72.42759839996175,-29.79611144994345
4.76,1.78,-8.66,-0.1717179501666755,0.0025517401863106,-0.2328772017268097,-99.15787486810976,-72.42759839996175,-29.79611144994345
4.61,1.85,-8.63,-0.1297380278189235,0.1169286377810587,-0.1493027790063532,-99.15787486810976,-72.47021290272461,-29.74868303296809
4.61,1.85,-8.63,-0.1297380278189235,0.1169286377810587,-0.1493027790063532,-99.15787486810976,-72.47021290272461,-29.74868303296809
4.56,2.15,-8.59,0.147070539005945,0.216266920694496,-0.1500461827490671,-99.22859240723112,-72.41339614454618,-29.736826743672204
4.56,2.15,-8.59,0.147070539005945,0.216266920694496,-0.1500461827490671,-99.22859240723112,-72.41339614454618,-29.736826743672204
4.71,1.91,-8.75,-0.0924478075562304,0.0780585054373181,-0.311653230908183,-99.33476502563386,-72.32820965004784,-29.68940484166728
4.71,1.91,-8.75,-0.0924478075562304,0.0780585054373181,-0.311653230908183,-99.33476502563386,-72.32820965004784,-29.68940484166728
4.69,1.98,-8.61,0.0071964565145418,0.0357159925111809,-0.195713349673543,-99.2816642471814,-72.42759839996175,-29.630134776789287
4.69,1.98,-8.61,0.0071964565145418,0.0357159925111809,-0.195713349673543,-99.2816642471814,-72.42759839996175,-29.630134776789287
4.69,2.11,-8.68,0.1088688089773632,0.0868503349938096,-0.2815215192468496,-99.31706154713407,-72.42759839996175,-29.57087281914313
4.69,2.11,-8.68,0.1088688089773632,0.0868503349938096,-0.2815215192468496,-99.31706154713407,-72.42759839996175,-29.57087281914313
4.61,1.91,-8.53,-0.0332104773689241,0.0239350660590186,-0.0756282887756008,-99.2816642471814,-72.54126289658385,-29.464221664430085
4.61,1.91,-8.53,-0.0332104773689241,0.0239350660590186,-0.0756282887756008,-99.2816642471814,-72.54126289658385,-29.464221664430085
4.6,1.85,-8.59,-0.1033613103707725,0.0284553467272117,-0.1109659803029838,-99.40561118069314,-72.44180194441707,-29.404982305122267
4.6,1.85,-8.59,-0.1033613103707725,0.0284553467272117,-0.1109659803029838,-99.40561118069314,-72.44180194441707,-29.404982305122267
4.72,2.03,-8.85,0.0123834164525807,0.0623877284112489,-0.4265193244244063,-99.44105363347384,-72.45600677848147,-29.310216034057568
4.72,2.03,-8.85,0.0123834164525807,0.0623877284112489,-0.4265193244244063,-99.44105363347384,-72.45600677848147,-29.310216034057568
4.49,2.0,-8.74,-0.0196556988259852,0.1906043439966069,-0.2188666269650792,-99.49424158104073,-72.45600677848147,-29.23915478171118
4.49,2.0,-8.74,-0.0196556988259852,0.1906043439966069,-0.2188666269650792,-99.49424158104073,-72.45600677848147,-29.23915478171118
4.54,1.94,-8.66,-0.0350156493387415,0.0866901071354927,-0.1614019024344095,-99.52971641733647,-72.47021290272461,-29.1681050221712
4.54,1.94,-8.66,-0.0350156493387415,0.0866901071354927,-0.1614019024344095,-99.52971641733647,-72.47021290272461,-29.1681050221712
4.56,1.98,-8.63,0.0089502804277318,0.0505162526141559,-0.1526807004387649,-99.56520423787158,-72.45600677848147,-29.13258444192844
4.56,1.98,-8.63,0.0089502804277318,0.0505162526141559,-0.1526807004387649,-99.56520423787158,-72.45600677848147,-29.13258444192844
4.53,1.99,-8.83,-0.0566075897377225,0.1403013491003636,-0.3139730594872318,-99.61846035279729,-72.42759839996175,-29.10890564472929
4.53,1.99,-8.83,-0.0566075897377225,0.1403013491003636,-0.3139730594872318,-99.61846035279729,-72.42759839996175,-29.10890564472929
4.57,1.88,-8.76,-0.1275437014240425,0.0381769874549362,-0.2501474585280317,-99.68951411614924,-72.38499549855874,-29.0733898303354
4.57,1.88,-8.76,-0.1275437014240425,0.0381769874549362,-0.2501474585280317,-99.68951411614924,-72.38499549855874,-29.0733898303354
4.44,2.12,-8.6,0.1328152376827559,0.1548277297646192,-0.0992264623194874,-99.68951411614924,-72.41339614454618,-29.014203146635065
4.44,2.12,-8.6,0.1328152376827559,0.1548277297646192,-0.0992264623194874,-99.68951411614924,-72.41339614454618,-29.014203146635065
4.42,1.74,-8.7,-0.2474336037706537,0.1031674209620183,-0.1020397769067908,-99.68951411614924,-72.3991951776014,-28.978694933911964
4.42,1.74,-8.7,-0.2474336037706537,0.1031674209620183,-0.1020397769067908,-99.68951411614924,-72.3991951776014,-28.978694933911964
4.55,2.23,-8.78,0.187800672015368,0.1688800281224103,-0.327451363401293,-99.81398402974048,-72.24306941788456,-29.09706672256259
4.55,2.23,-8.78,0.187800672015368,0.1688800281224103,-0.327451363401293,-99.81398402974048,-72.24306941788456,-29.09706672256259
4.58,1.87,-8.7,-0.1197505853229107,0.0037337904212234,-0.2007945217609848,-99.77840482252957,-72.27144436256579,-29.09706672256259
4.58,1.87,-8.7,-0.1197505853229107,0.0037337904212234,-0.2007945217609848,-99.77840482252957,-72.27144436256579,-29.09706672256259
4.55,1.83,-8.94,-0.2342106371381984,0.1163010315246259,-0.3868096407460033,-99.7428387240718,-72.31401640199769,-29.09706672256259
4.55,1.83,-8.94,-0.2342106371381984,0.1163010315246259,-0.3868096407460033,-99.7428387240718,-72.31401640199769,-29.09706672256259
4.29,2.18,-8.24,0.2517840541313213,0.1776419281239625,0.2693994457019944,-99.76062013582626,-72.25725624910815,-29.17994585204534
4.29,2.18,-8.24,0.2517840541313213,0.1776419281239625,0.2693994457019944,-99.76062013582626,-72.25725624910815,-29.17994585204534
4.69,1.78,-8.79,-0.21905856459829,-0.0546932532226499,-0.311532741645264,-99.7428387240718,-72.24306941788456,-29.227312357898
4.69,1.78,-8.79,-0.21905856459829,-0.0546932532226499,-0.311532741645264,-99.7428387240718,-72.24306941788456,-29.227312357898
4.56,2.13,-8.6,0.1168504064439843,0.0800121643947777,-0.1568054265105605,-99.8317785547328,-72.11544554429472,-29.33390567781849
4.56,2.13,-8.6,0.1168504064439843,0.0800121643947777,-0.1568054265105605,-99.8317785547328,-72.11544554429472,-29.33390567781849
4.56,2.05,-8.82,-0.0357380674017439,0.147105858724166,-0.3306860729960714,-99.88518184221611,-72.03042043423166,-29.393135398012305
4.56,2.05,-8.82,-0.0357380674017439,0.147105858724166,-0.3306860729960714,-99.88518184221611,-72.03042043423166,-29.393135398012305
4.65,2.0,-8.69,-0.0286638479604164,0.0010246326742046,-0.2500779636046637,-99.90298951638178,-72.01625404214369,-29.404982305122267
4.65,2.0,-8.69,-0.0286638479604164,0.0010246326742046,-0.2500779636046637,-99.90298951638178,-72.01625404214369,-29.404982305122267
4.5,2.0,-8.69,-0.059103110808858,0.134189901237951,-0.1805718305542019,-99.88518184221611,-72.00208892273058,-29.42867708363529
4.5,2.0,-8.69,-0.059103110808858,0.134189901237951,-0.1805718305542019,-99.88518184221611,-72.00208892273058,-29.42867708363529
