,TIME,ELAPSED_SECONDS,PSTATE,acc_x,acc_y,acc_z,mag_x,mag_y,mag_z,gyr_x,gyr_y,gyr_z,lin_x,lin_y,lin_z,eul_x,eul_y,eul_z,qua_w,qua_x,qua_y,qua_z
0,1853767.0,1746.337271,1.0,2.88,3.96,-9.06,1.5,-20.87,33.25,-1.81,-2.19,-0.75,0.11854466718741168,-0.11607960276703275,-0.4905376105907155,-117.6743080222204,-54.63229852978135,-24.61989330860375,-0.1091,-0.8557,-0.4589,-0.2132
1,1853767.0,1746.337271,1.0,2.88,3.96,-9.06,1.5,-20.87,33.25,-1.81,-2.19,-0.75,0.11854466718741168,-0.11607960276703275,-0.4905376105907155,-117.6743080222204,-54.63229852978135,-24.61989330860375,-0.1091,-0.8557,-0.4589,-0.2132
2,1853802.0,1746.3400399999998,1.0,2.71,3.9,-8.66,1.88,-21.25,32.38,2.81,-0.63,-1.75,0.17838156880033845,-0.01810887552413476,-0.06844757341868403,-117.63003319551184,-54.658094766102636,-24.596436196111345,-0.1093,-0.8555,-0.4591,-0.213
3,1853802.0,1746.3400399999998,1.0,2.71,3.9,-8.66,1.88,-21.25,32.38,2.81,-0.63,-1.75,0.17838156880033845,-0.01810887552413476,-0.06844757341868403,-117.63003319551184,-54.658094766102636,-24.596436196111345,-0.1093,-0.8555,-0.4591,-0.213
4,1853839.0,1746.3651920000002,1.0,2.49,3.77,-8.8,1.06,-20.5,31.19,-1.12,-0.31,-1.25,-0.08657135306167535,0.09020099815716144,-0.08462742916760567,-117.58578661368068,-54.70969624515614,-24.57298013035922,-0.1093,-0.8553,-0.4595,-0.2128
5,1853839.0,1746.3651920000002,1.0,2.49,3.77,-8.8,1.06,-20.5,31.19,-1.12,-0.31,-1.25,-0.08657135306167535,0.09020099815716144,-0.08462742916760567,-117.58578661368068,-54.70969624515614,-24.57298013035922,-0.1093,-0.8553,-0.4595,-0.2128
6,1853874.0,1746.408598,1.0,2.3,3.68,-8.54,1.06,-20.5,31.19,-0.56,-0.5,0.25,-0.12101426803039668,0.19795329205332604,0.23010730228814325,-117.58578661368068,-54.735501492602346,-24.56125248965988,-0.1091,-0.8553,-0.4597,-0.2127
7,1853874.0,1746.408598,1.0,2.3,3.68,-8.54,1.06,-20.5,31.19,-0.56,-0.5,0.25,-0.12101426803039668,0.19795329205332604,0.23010730228814325,-117.58578661368068,-54.735501492602346,-24.56125248965988,-0.1091,-0.8553,-0.4597,-0.2127
8,1853911.0,1746.4519289999998,1.0,2.63,3.83,-8.77,2.19,-21.25,32.38,-0.5,0.06,0.37,0.040390487872262015,0.015860922035357383,-0.11790626411788985,-117.60790637777723,-54.69679474885505,-24.596436196111345,-0.1089,-0.8554,-0.4594,-0.213
9,1853911.0,1746.4519289999998,1.0,2.63,3.83,-8.77,2.19,-21.25,32.38,-0.5,0.06,0.37,0.040390487872262015,0.015860922035357383,-0.11790626411788985,-117.60790637777723,-54.69679474885505,-24.596436196111345,-0.1089,-0.8554,-0.4594,-0.213
10,1853945.0,1746.511819,1.0,2.84,3.79,-8.88,1.5,-21.25,31.56,0.5,2.31,-0.06,0.05853173753761376,-0.1701599375753855,-0.25574134755477473,-117.58578661368068,-54.70969624515614,-24.64335146895964,-0.1085,-0.8553,-0.4595,-0.2134
11,1853945.0,1746.511819,1.0,2.84,3.79,-8.88,1.5,-21.25,31.56,0.5,2.31,-0.06,0.05853173753761376,-0.1701599375753855,-0.25574134755477473,-117.58578661368068,-54.70969624515614,-24.64335146895964,-0.1085,-0.8553,-0.4595,-0.2134
12,1853980.0,1746.527816,1.0,2.82,3.71,-8.87,1.5,-21.25,31.56,1.31,-0.88,-1.44,-0.0020835621396390613,-0.1969428058867404,-0.21106476884714453,-117.56367389565743,-54.748405244337505,-24.631622257728548,-0.1083,-0.8552,-0.4598,-0.2133
13,1853980.0,1746.527816,1.0,2.82,3.71,-8.87,1.5,-21.25,31.56,1.31,-0.88,-1.44,-0.0020835621396390613,-0.1969428058867404,-0.21106476884714453,-117.56367389565743,-54.748405244337505,-24.631622257728548,-0.1083,-0.8552,-0.4598,-0.2133
14,1854013.0,1746.570152,1.0,2.48,3.65,-8.83,1.5,-20.87,31.19,-0.25,-1.69,-1.88,-0.18908630809733507,0.03809312573392987,-0.0627266409972389,-117.54156821615564,-54.78712101513374,-24.57298013035922,-0.1088,-0.8551,-0.4601,-0.2128
15,1854013.0,1746.570152,1.0,2.48,3.65,-8.83,1.5,-20.87,31.19,-0.25,-1.69,-1.88,-0.18908630809733507,0.03809312573392987,-0.0627266409972389,-117.54156821615564,-54.78712101513374,-24.57298013035922,-0.1088,-0.8551,-0.4601,-0.2128
16,1854050.0,1746.587046,1.0,2.48,3.77,-8.8,1.88,-21.25,32.38,-2.0,0.25,2.75,-0.08813719668313312,0.1107926275701836,-0.08189169370979242,-117.56367389565743,-54.748405244337505,-24.596436196111345,-0.1086,-0.8552,-0.4598,-0.213
17,1854050.0,1746.587046,1.0,2.48,3.77,-8.8,1.88,-21.25,32.38,-2.0,0.25,2.75,-0.08813719668313312,0.1107926275701836,-0.08189169370979242,-117.56367389565743,-54.748405244337505,-24.596436196111345,-0.1086,-0.8552,-0.4598,-0.213
18,1854085.0,1746.6286670000002,1.0,2.69,4.01,-8.76,1.88,-21.25,32.38,-0.69,1.81,1.81,0.19703753817086533,0.06913339345739099,-0.19385982612689645,-117.58578661368068,-54.67099400962296,-24.655080942437507,-0.109,-0.8553,-0.4592,-0.2135
19,1854085.0,1746.6286670000002,1.0,2.69,4.01,-8.76,1.88,-21.25,32.38,-0.69,1.81,1.81,0.19703753817086533,0.06913339345739099,-0.19385982612689645,-117.58578661368068,-54.67099400962296,-24.655080942437507,-0.109,-0.8553,-0.4592,-0.2135
20,1854117.0,1746.6974289999998,1.0,2.89,3.86,-9.01,1.5,-20.87,30.75,0.44,0.06,-0.19,0.07033692745891977,-0.16884602982888808,-0.4109007698688068,-117.58578661368068,-54.683894003775556,-24.666810678302642,-0.1085,-0.8553,-0.4593,-0.2136
21,1854117.0,1746.6974289999998,1.0,2.89,3.86,-9.01,1.5,-20.87,30.75,0.44,0.06,-0.19,0.07033692745891977,-0.16884602982888808,-0.4109007698688068,-117.58578661368068,-54.683894003775556,-24.666810678302642,-0.1085,-0.8553,-0.4593,-0.2136
22,1854154.0,1746.7381,1.0,2.74,3.84,-8.92,1.06,-20.87,32.0,1.69,0.25,-2.13,0.02711163207060585,-0.06117901692425876,-0.28369796661119473,-117.56367389565743,-54.72259849297357,-24.64335146895964,-0.1086,-0.8552,-0.4596,-0.2134
23,1854154.0,1746.7381,1.0,2.74,3.84,-8.92,1.06,-20.87,32.0,1.69,0.25,-2.13,0.02711163207060585,-0.06117901692425876,-0.28369796661119473,-117.56367389565743,-54.72259849297357,-24.64335146895964,-0.1086,-0.8552,-0.4596,-0.2134
24,1854189.0,1746.755012,1.0,2.51,3.7,-8.7,1.06,-20.5,31.56,-0.19,0.94,-1.06,-0.07762836253640197,0.04955179754074068,0.02546303436589881,-117.51946956763666,-54.81293529494486,-24.608164621444825,-0.1083,-0.855,-0.4603,-0.2131
25,1854189.0,1746.755012,1.0,2.51,3.7,-8.7,1.06,-20.5,31.56,-0.19,0.94,-1.06,-0.07762836253640197,0.04955179754074068,0.02546303436589881,-117.51946956763666,-54.81293529494486,-24.608164621444825,-0.1083,-0.855,-0.4603,-0.2131
26,1854224.0,1746.758205,1.0,2.64,3.62,-9.1,1.06,-20.5,31.56,2.56,1.06,0.37,-0.25385052458466906,-0.08812999132053645,-0.3329650329190468,-117.51946956763666,-54.81293529494486,-24.608164621444825,-0.1077,-0.855,-0.4603,-0.2131
27,1854224.0,1746.758205,1.0,2.64,3.62,-9.1,1.06,-20.5,31.56,2.56,1.06,0.37,-0.25385052458466906,-0.08812999132053645,-0.3329650329190468,-117.51946956763666,-54.81293529494486,-24.608164621444825,-0.1077,-0.855,-0.4603,-0.2131
28,1854261.0,1746.794561,1.0,2.68,3.76,-8.88,1.5,-20.19,32.0,-0.31,1.31,0.94,-0.030460820510283367,-0.04098353075020822,-0.2019359385140476,-117.51946956763666,-54.800027778247525,-24.631622257728548,-0.1075,-0.855,-0.4602,-0.2133
29,1854261.0,1746.794561,1.0,2.68,3.76,-8.88,1.5,-20.19,32.0,-0.31,1.31,0.94,-0.030460820510283367,-0.04098353075020822,-0.2019359385140476,-117.51946956763666,-54.800027778247525,-24.631622257728548,-0.1075,-0.855,-0.4602,-0.2133
30,1854296.0,1746.855618,1.0,2.82,3.76,-8.85,1.06,-20.87,31.56,-1.06,-0.12,0.31,0.04606380297386648,-0.1547672382095051,-0.21265263182186625,-117.51946956763666,-54.78712101513374,-24.666810678302642,-0.1075,-0.855,-0.4601,-0.2136
31,1854296.0,1746.855618,1.0,2.82,3.76,-8.85,1.06,-20.87,31.56,-1.06,-0.12,0.31,0.04606380297386648,-0.1547672382095051,-0.21265263182186625,-117.51946956763666,-54.78712101513374,-24.666810678302642,-0.1075,-0.855,-0.4601,-0.2136
32,1854330.0,1746.8739100000003,1.0,2.72,3.74,-8.88,1.06,-20.87,31.56,3.06,0.31,-1.31,-0.02797778728717432,-0.08265305191327066,-0.20498252004526665,-117.51946956763666,-54.825843565521545,-24.655080942437507,-0.1074,-0.855,-0.4604,-0.2135
33,1854330.0,1746.8739100000003,1.0,2.72,3.74,-8.88,1.06,-20.87,31.56,3.06,0.31,-1.31,-0.02797778728717432,-0.08265305191327066,-0.20498252004526665,-117.51946956763666,-54.825843565521545,-24.655080942437507,-0.1074,-0.855,-0.4604,-0.2135
34,1854365.0,1746.91008,1.0,2.58,3.83,-8.82,1.5,-20.87,32.0,-2.94,-2.0,0.19,-0.001732642983571675,0.07000852065079988,-0.1488909599370647,-117.51946956763666,-54.825843565521545,-24.61989330860375,-0.10800000000000001,-0.855,-0.4604,-0.2132
35,1854365.0,1746.91008,1.0,2.58,3.83,-8.82,1.5,-20.87,32.0,-2.94,-2.0,0.19,-0.001732642983571675,0.07000852065079988,-0.1488909599370647,-117.51946956763666,-54.825843565521545,-24.61989330860375,-0.10800000000000001,-0.855,-0.4604,-0.2132
36,1854400.0,1746.9645100000002,1.0,2.55,3.83,-8.73,1.5,-20.19,32.75,1.0,1.75,-0.56,0.023141253128002914,0.09507644298304974,-0.06121324147195395,-117.4973779425748,-54.81293529494486,-24.631622257728548,-0.10800000000000001,-0.8549,-0.4603,-0.2133
37,1854400.0,1746.9645100000002,1.0,2.55,3.83,-8.73,1.5,-20.19,32.75,1.0,1.75,-0.56,0.023141253128002914,0.09507644298304974,-0.06121324147195395,-117.4973779425748,-54.81293529494486,-24.631622257728548,-0.10800000000000001,-0.8549,-0.4603,-0.2133
38,1854437.0,1747.012975,1.0,2.55,3.75,-8.84,1.5,-20.19,32.75,1.44,0.44,-0.63,-0.08286061703280806,0.057715870060207834,-0.12815764768438775,-117.4973779425748,-54.8516623694969,-24.631622257728548,-0.1076,-0.8549,-0.4606,-0.2133
39,1854437.0,1747.012975,1.0,2.55,3.75,-8.84,1.5,-20.19,32.75,1.44,0.44,-0.63,-0.08286061703280806,0.057715870060207834,-0.12815764768438775,-117.4973779425748,-54.8516623694969,-24.631622257728548,-0.1076,-0.8549,-0.4606,-0.2133
40,1854472.0,1747.0656600000002,1.0,2.59,3.53,-8.85,1.88,-21.25,32.0,6.31,4.0,-1.12,-0.22006312116677285,-0.07937170522906922,-0.06435665358459097,-117.45321573278471,-54.929136905330246,-24.631622257728548,-0.1064,-0.8547,-0.4612,-0.2133
41,1854472.0,1747.0656600000002,1.0,2.59,3.53,-8.85,1.88,-21.25,32.0,6.31,4.0,-1.12,-0.22006312116677285,-0.07937170522906922,-0.06435665358459097,-117.45321573278471,-54.929136905330246,-24.631622257728548,-0.1064,-0.8547,-0.4612,-0.2133
42,1854507.0,1747.0803230000001,1.0,2.68,3.73,-8.81,1.06,-21.25,32.38,-0.12,2.13,-0.31,-0.008930802341647394,-0.0284094849961376,-0.12866645907324958,-117.43114513306999,-54.954967799820345,-24.67854067669555,-0.1056,-0.8546,-0.4614,-0.2137
43,1854507.0,1747.0803230000001,1.0,2.68,3.73,-8.81,1.06,-21.25,32.38,-0.12,2.13,-0.31,-0.008930802341647394,-0.0284094849961376,-0.12866645907324958,-117.43114513306999,-54.954967799820345,-24.67854067669555,-0.1056,-0.8546,-0.4614,-0.2137
44,1854541.0,1747.097948,1.0,2.75,3.67,-8.84,0.69,-20.5,32.0,-0.37,1.88,-1.12,-0.03647793300840657,-0.11276857505246694,-0.15140968092600282,-117.38702490663178,-54.98080172287654,-24.713732248446583,-0.1053,-0.8544,-0.4616,-0.214
45,1854541.0,1747.097948,1.0,2.75,3.67,-8.84,0.69,-20.5,32.0,-0.37,1.88,-1.12,-0.03647793300840657,-0.11276857505246694,-0.15140968092600282,-117.38702490663178,-54.98080172287654,-24.713732248446583,-0.1053,-0.8544,-0.4616,-0.214
46,1854576.0,1747.1009219999999,1.0,2.66,3.83,-8.71,0.69,-20.5,32.0,0.63,1.19,-0.44,0.09953999728151623,0.05933430755481828,-0.07237683612552281,-117.3429325945059,-55.01955829122679,-24.748926188008948,-0.1047,-0.8542,-0.4619,-0.2143
47,1854576.0,1747.1009219999999,1.0,2.66,3.83,-8.71,0.69,-20.5,32.0,0.63,1.19,-0.44,0.09953999728151623,0.05933430755481828,-0.07237683612552281,-117.3429325945059,-55.01955829122679,-24.748926188008948,-0.1047,-0.8542,-0.4619,-0.2143
48,1854611.0,1747.1813670000001,1.0,2.75,3.4,-8.98,1.5,-20.5,32.38,2.69,1.81,0.0,-0.2884398330686135,-0.22111740180323916,-0.17487340864455092,-117.3429325945059,-55.08416774837189,-24.76065802803315,-0.1031,-0.8542,-0.4624,-0.2144
49,1854611.0,1747.1813670000001,1.0,2.75,3.4,-8.98,1.5,-20.5,32.38,2.69,1.81,0.0,-0.2884398330686135,-0.22111740180323916,-0.17487340864455092,-117.3429325945059,-55.08416774837189,-24.76065802803315,-0.1031,-0.8542,-0.4624,-0.2144
50,1854648.0,1747.18623,1.0,2.84,3.95,-8.82,1.5,-20.19,33.19,-2.88,1.37,1.94,0.2179858325510962,0.003843834266207047,-0.26375055815781145,-117.3429325945059,-54.993719820860264,-24.854522251558684,-0.1037,-0.8542,-0.4617,-0.2152
51,1854648.0,1747.18623,1.0,2.84,3.95,-8.82,1.5,-20.19,33.19,-2.88,1.37,1.94,0.2179858325510962,0.003843834266207047,-0.26375055815781145,-117.3429325945059,-54.993719820860264,-24.854522251558684,-0.1037,-0.8542,-0.4617,-0.2152
52,1854683.0,1747.2455530000002,1.0,2.74,3.69,-8.75,1.5,-20.19,33.19,-0.44,1.12,-0.94,0.00925102454616783,-0.05077313728137689,-0.07684819178793845,-117.32089688772969,-55.032478664205094,-24.87799095241944,-0.1033,-0.8541,-0.462,-0.2154
53,1854683.0,1747.2455530000002,1.0,2.74,3.69,-8.75,1.5,-20.19,33.19,-0.44,1.12,-0.94,0.00925102454616783,-0.05077313728137689,-0.07684819178793845,-117.32089688772969,-55.032478664205094,-24.87799095241944,-0.1033,-0.8541,-0.462,-0.2154
54,1854715.0,1747.2611379999998,1.0,2.77,3.81,-8.81,0.69,-20.5,31.56,-0.31,0.12,1.31,0.08353339959414335,-0.006192109497091813,-0.18324909002750006,-117.3429325945059,-55.006638676877785,-24.88972570037191,-0.1033,-0.8542,-0.4618,-0.2155
55,1854715.0,1747.2611379999998,1.0,2.77,3.81,-8.81,0.69,-20.5,31.56,-0.31,0.12,1.31,0.08353339959414335,-0.006192109497091813,-0.18324909002750006,-117.3429325945059,-55.006638676877785,-24.88972570037191,-0.1033,-0.8542,-0.4618,-0.2155
56,1854752.0,1747.300686,1.0,2.69,3.73,-8.66,1.88,-20.5,32.0,2.94,2.19,-2.56,0.056994706217929125,0.018378060240419325,0.0014975865815873846,-117.29886813726064,-55.05832168724145,-24.901460713527147,-0.1029,-0.8540000000000001,-0.4622,-0.2156
57,1854752.0,1747.300686,1.0,2.69,3.73,-8.66,1.88,-20.5,32.0,2.94,2.19,-2.56,0.056994706217929125,0.018378060240419325,0.0014975865815873846,-117.29886813726064,-55.05832168724145,-24.901460713527147,-0.1029,-0.8540000000000001,-0.4622,-0.2156
58,1854787.0,1747.3548280000002,1.0,2.63,3.57,-9.01,1.88,-20.5,32.0,6.81,11.38,-3.63,-0.25141609596111186,0.0496929530264929,-0.2320860039554393,-117.07896160834984,-55.291045895672944,-25.0892571067724,-0.0997,-0.853,-0.46399999999999997,-0.2172
59,1854787.0,1747.3548280000002,1.0,2.63,3.57,-9.01,1.88,-20.5,32.0,6.81,11.38,-3.63,-0.25141609596111186,0.0496929530264929,-0.2320860039554393,-117.07896160834984,-55.291045895672944,-25.0892571067724,-0.0997,-0.853,-0.46399999999999997,-0.2172
60,1854822.0,1747.371254,1.0,3.08,2.54,-8.7,1.5,-20.19,32.38,22.12,24.56,-3.38,-0.6573208535624406,-0.7837894852969516,0.28921319494529385,-116.81598073438592,-55.58877661222697,-25.382826336621637,-0.0934,-0.8518,-0.4663,-0.2197
61,1854822.0,1747.371254,1.0,3.08,2.54,-8.7,1.5,-20.19,32.38,22.12,24.56,-3.38,-0.6573208535624406,-0.7837894852969516,0.28921319494529385,-116.81598073438592,-55.58877661222697,-25.382826336621637,-0.0934,-0.8518,-0.4663,-0.2197
62,1854857.0,1747.4125010000002,1.0,4.13,2.36,-7.95,1.06,-20.5,32.75,5.75,18.19,15.13,0.02767540991006401,-1.6505302481357225,0.6905113453022018,-116.9473481900315,-55.32985731124961,-25.9116795113663,-0.0872,-0.8524,-0.4643,-0.2242
63,1854857.0,1747.4125010000002,1.0,4.13,2.36,-7.95,1.06,-20.5,32.75,5.75,18.19,15.13,0.02767540991006401,-1.6505302481357225,0.6905113453022018,-116.9473481900315,-55.32985731124961,-25.9116795113663,-0.0872,-0.8524,-0.4643,-0.2242
64,1854894.0,1747.4279399999998,1.0,5.05,4.21,-8.58,0.69,-19.75,32.38,-31.87,3.0,26.37,1.4348520536564378,-1.3080059473603542,-0.8269439374130609,-117.38702490663178,-54.40026707594486,-26.57059440264536,-0.0911,-0.8544,-0.4571,-0.2298
65,1854894.0,1747.4279399999998,1.0,5.05,4.21,-8.58,0.69,-19.75,32.38,-31.87,3.0,26.37,1.4348520536564378,-1.3080059473603542,-0.8269439374130609,-117.38702490663178,-54.40026707594486,-26.57059440264536,-0.0911,-0.8544,-0.4571,-0.2298
66,1854926.0,1747.48272,1.0,4.64,5.18,-6.42,0.69,-19.75,32.38,-37.75,-23.75,33.38,2.89551416135543,-0.5378038300103323,0.8119201662686706,-118.47615510912563,-52.821087070408176,-26.73546210533703,-0.1013,-0.8593,-0.4448,-0.2312
67,1854926.0,1747.48272,1.0,4.64,5.18,-6.42,0.69,-19.75,32.38,-37.75,-23.75,33.38,2.89551416135543,-0.5378038300103323,0.8119201662686706,-118.47615510912563,-52.821087070408176,-26.73546210533703,-0.1013,-0.8593,-0.4448,-0.2312
68,1854963.0,1747.525364,1.0,4.47,4.48,-4.44,0.37,-20.5,31.19,27.31,19.62,14.25,3.278697394867736,-0.8028913769640535,2.851766188627998,-118.88063215220505,-52.360941896715254,-26.87682214392707,-0.0992,-0.8611,-0.4412,-0.2324
69,1854963.0,1747.525364,1.0,4.47,4.48,-4.44,0.37,-20.5,31.19,27.31,19.62,14.25,3.278697394867736,-0.8028913769640535,2.851766188627998,-118.88063215220505,-52.360941896715254,-26.87682214392707,-0.0992,-0.8611,-0.4412,-0.2324
70,1855000.0,1747.5752530000002,1.0,3.89,1.6,-3.33,-0.06,-22.0,32.0,74.81,51.44,-26.87,1.5039744107166422,-1.9446182501879847,5.038262344518813,-118.36422556879907,-53.42321798982236,-27.053580833430228,-0.0765,-0.8588,-0.4495,-0.2339
71,1855000.0,1747.5752530000002,1.0,3.89,1.6,-3.33,-0.06,-22.0,32.0,74.81,51.44,-26.87,1.5039744107166422,-1.9446182501879847,5.038262344518813,-118.36422556879907,-53.42321798982236,-27.053580833430228,-0.0765,-0.8588,-0.4495,-0.2339
72,1855035.0,1747.592364,1.0,4.08,0.14,-4.15,-0.06,-22.0,32.0,33.75,75.69,-10.25,0.06228612597035355,-2.714650205073272,4.657349590953421,-117.21082255070309,-54.46469598924939,-28.0210345439132,-0.0582,-0.8536,-0.4576,-0.2421
73,1855035.0,1747.592364,1.0,4.08,0.14,-4.15,-0.06,-22.0,32.0,33.75,75.69,-10.25,0.06228612597035355,-2.714650205073272,4.657349590953421,-117.21082255070309,-54.46469598924939,-28.0210345439132,-0.0582,-0.8536,-0.4576,-0.2421
74,1855068.0,1747.5974629999998,1.0,4.25,0.83,-4.67,-1.88,-19.37,33.56,-23.69,83.81,-12.38,0.1436197459332016,-2.175484700494784,3.822759987099429,-115.1726470817956,-55.07124433789578,-30.971654123503786,-0.0475,-0.8442,-0.4623,-0.267
75,1855068.0,1747.5974629999998,1.0,4.25,0.83,-4.67,-1.88,-19.37,33.56,-23.69,83.81,-12.38,0.1436197459332016,-2.175484700494784,3.822759987099429,-115.1726470817956,-55.07124433789578,-30.971654123503786,-0.0475,-0.8442,-0.4623,-0.267
76,1855105.0,1747.653815,1.0,4.18,1.2,-4.16,-3.75,-18.25,33.56,-29.56,90.44,-11.13,0.39650585757331147,-1.8716617608338253,4.100717529496824,-113.48199585621887,-55.265175443686026,-33.6081640231361,-0.0452,-0.8362,-0.4638,-0.2891
77,1855105.0,1747.653815,1.0,4.18,1.2,-4.16,-3.75,-18.25,33.56,-29.56,90.44,-11.13,0.39650585757331147,-1.8716617608338253,4.100717529496824,-113.48199585621887,-55.265175443686026,-33.6081640231361,-0.0452,-0.8362,-0.4638,-0.2891
78,1855141.0,1747.699568,1.0,3.92,-0.13,-5.67,-6.75,-19.37,33.56,-33.5,111.75,-7.44,-1.8904187563199093,-1.7977667836279811,3.4249142237838,-110.87341536801529,-55.45927852016165,-37.640469908070976,-0.0356,-0.8235,-0.4653,-0.3226
79,1855141.0,1747.699568,1.0,3.92,-0.13,-5.67,-6.75,-19.37,33.56,-33.5,111.75,-7.44,-1.8904187563199093,-1.7977667836279811,3.4249142237838,-110.87341536801529,-55.45927852016165,-37.640469908070976,-0.0356,-0.8235,-0.4653,-0.3226
80,1855174.0,1747.7562269999999,1.0,4.42,1.21,-4.56,-6.75,-19.37,33.56,-101.75,94.94,27.5,-0.5724044322757872,-1.4829563125746374,3.5402879181453244,-108.97720765299681,-53.57720819427434,-42.69210790112656,-0.0423,-0.8140000000000001,-0.4507,-0.364
81,1855174.0,1747.7562269999999,1.0,4.42,1.21,-4.56,-6.75,-19.37,33.56,-101.75,94.94,27.5,-0.5724044322757872,-1.4829563125746374,3.5402879181453244,-108.97720765299681,-53.57720819427434,-42.69210790112656,-0.0423,-0.8140000000000001,-0.4507,-0.364
82,1855213.0,1747.7726300000002,1.0,5.34,4.39,-4.8,-8.56,-20.87,31.25,-148.0,121.31,49.13,1.1550752623160891,0.06377730676365934,1.470617754769215,-107.72420666963673,-50.64336935396991,-47.4440830843744,-0.0545,-0.8076,-0.4277,-0.4023
83,1855213.0,1747.7726300000002,1.0,5.34,4.39,-4.8,-8.56,-20.87,31.25,-148.0,121.31,49.13,1.1550752623160891,0.06377730676365934,1.470617754769215,-107.72420666963673,-50.64336935396991,-47.4440830843744,-0.0545,-0.8076,-0.4277,-0.4023
84,1855248.0,1747.8198989999999,1.0,5.31,5.71,-5.28,-13.06,-22.75,29.69,-170.13,138.5,25.25,0.3608393612184007,1.4420741757486328,0.5077889392552812,-103.99799847995277,-46.9938686467816,-55.17465292180053,-0.0756,-0.7879999999999999,-0.3987,-0.4631
85,1855248.0,1747.8198989999999,1.0,5.31,5.71,-5.28,-13.06,-22.75,29.69,-170.13,138.5,25.25,0.3608393612184007,1.4420741757486328,0.5077889392552812,-103.99799847995277,-46.9938686467816,-55.17465292180053,-0.0756,-0.7879999999999999,-0.3987,-0.4631
86,1855285.0,1747.836577,1.0,6.37,4.61,-4.51,-13.06,-22.75,29.69,-177.31,150.5,10.38,-0.3528421055389541,0.010259898368483622,0.7488082491719208,-100.11693910211171,-44.6673653156106,-61.23442867267935,-0.0914,-0.7667,-0.38,-0.5093
87,1855285.0,1747.836577,1.0,6.37,4.61,-4.51,-13.06,-22.75,29.69,-177.31,150.5,10.38,-0.3528421055389541,0.010259898368483622,0.7488082491719208,-100.11693910211171,-44.6673653156106,-61.23442867267935,-0.0914,-0.7667,-0.38,-0.5093
88,1855318.0,1747.879904,1.0,6.46,6.14,-2.96,-16.75,-27.19,23.19,-202.75,120.37,63.5,0.2877508241709099,1.0423746700548755,0.4780137379080465,-95.5651029433817,-39.31538744994931,-69.3053141728393,-0.1225,-0.7406,-0.3364,-0.5686
89,1855318.0,1747.879904,1.0,6.46,6.14,-2.96,-16.75,-27.19,23.19,-202.75,120.37,63.5,0.2877508241709099,1.0423746700548755,0.4780137379080465,-95.5651029433817,-39.31538744994931,-69.3053141728393,-0.1225,-0.7406,-0.3364,-0.5686
90,1855354.0,1747.8922899999998,1.0,6.47,4.57,-3.48,-19.06,-28.69,17.56,-111.94,124.87,105.94,-1.4771519690921517,0.42407699655655184,1.292286796495068,-92.98762003555102,-35.095437786143385,-74.61607730658687,-0.1252,-0.7253,-0.3015,-0.6061
91,1855354.0,1747.8922899999998,1.0,6.47,4.57,-3.48,-19.06,-28.69,17.56,-111.94,124.87,105.94,-1.4771519690921517,0.42407699655655184,1.292286796495068,-92.98762003555102,-35.095437786143385,-74.61607730658687,-0.1252,-0.7253,-0.3015,-0.6061
92,1855391.0,1748.0089010000002,1.0,6.94,3.19,-2.24,-22.75,-29.5,11.06,-169.31,111.56,70.5,-1.4270670142155282,-0.6225626588187856,2.000678217269648,-89.28805755492941,-29.902844499943303,-81.26427589274175,-0.1251,-0.7027,-0.258,-0.6512
93,1855391.0,1748.0089010000002,1.0,6.94,3.19,-2.24,-22.75,-29.5,11.06,-169.31,111.56,70.5,-1.4270670142155282,-0.6225626588187856,2.000678217269648,-89.28805755492941,-29.902844499943303,-81.26427589274175,-0.1251,-0.7027,-0.258,-0.6512
94,1855426.0,1748.019852,1.0,7.49,5.53,0.27,-22.75,-29.5,11.06,-219.69,93.0,65.56,0.2957341773374721,1.2110175954954303,0.5762720185869412,-85.07925976340502,-22.98036223475966,-87.68843823597489,-0.1528,-0.6761,-0.1992,-0.6927
95,1855426.0,1748.019852,1.0,7.49,5.53,0.27,-22.75,-29.5,11.06,-219.69,93.0,65.56,0.2957341773374721,1.2110175954954303,0.5762720185869412,-85.07925976340502,-22.98036223475966,-87.68843823597489,-0.1528,-0.6761,-0.1992,-0.6927
96,1855463.0,1748.022582,1.0,9.01,3.98,-0.97,-25.37,-28.69,5.75,-134.44,95.69,35.88,-1.8508332750341283,-0.5796075413531351,0.10098818402716958,-81.68773616772422,-19.250121718432275,-91.87802897168402,-0.1672,-0.654,-0.1672,-0.7186
97,1855463.0,1748.022582,1.0,9.01,3.98,-0.97,-25.37,-28.69,5.75,-134.44,95.69,35.88,-1.8508332750341283,-0.5796075413531351,0.10098818402716958,-81.68773616772422,-19.250121718432275,-91.87802897168402,-0.1672,-0.654,-0.1672,-0.7186
98,1855500.0,1748.060727,1.0,7.82,-0.48,1.15,-26.87,-26.5,-1.19,-138.94,39.19,78.81,0.16249004899594402,-3.7528879131519504,2.8356580121050694,-78.839968934118,-15.02008899858815,-95.51395447808784,-0.1778,-0.635,-0.1307,-0.7403
99,1855500.0,1748.060727,1.0,7.82,-0.48,1.15,-26.87,-26.5,-1.19,-138.94,39.19,78.81,0.16249004899594402,-3.7528879131519504,2.8356580121050694,-78.839968934118,-15.02008899858815,-95.51395447808784,-0.1778,-0.635,-0.1307,-0.7403
100,1855535.0,1748.1164649999998,1.0,11.71,7.19,7.27,-26.87,-26.5,-1.19,-268.81,9.94,130.31,3.839688789410252,3.201123006774504,-4.913496109871877,-77.18832949283414,-7.878645873813733,-98.01579456165285,-0.1906,-0.6238,-0.0687,-0.7548
101,1855535.0,1748.1164649999998,1.0,11.71,7.19,7.27,-26.87,-26.5,-1.19,-268.81,9.94,130.31,3.839688789410252,3.201123006774504,-4.913496109871877,-77.18832949283414,-7.878645873813733,-98.01579456165285,-0.1906,-0.6238,-0.0687,-0.7548
102,1855567.0,1748.123239,1.0,10.08,8.13,4.9,-27.25,-25.0,-5.25,-159.0,45.63,52.31,0.15183629798339093,5.185796242994213,-3.030708103003977,-74.12703326079642,-1.0542572154525014,-100.58214202852676,-0.2117,-0.6027,-0.0092,-0.7693
103,1855567.0,1748.123239,1.0,10.08,8.13,4.9,-27.25,-25.0,-5.25,-159.0,45.63,52.31,0.15183629798339093,5.185796242994213,-3.030708103003977,-74.12703326079642,-1.0542572154525014,-100.58214202852676,-0.2117,-0.6027,-0.0092,-0.7693
104,1855604.0,1748.176918,1.0,8.82,-1.39,4.67,-29.5,-20.19,-9.88,-74.87,80.25,-66.87,2.8690478363600294,-3.342156798630227,0.7439819355695487,-71.42240793741999,-1.283452294756085,-102.28340450662313,-0.2296,-0.5837,-0.0112,-0.7787
105,1855604.0,1748.176918,1.0,8.82,-1.39,4.67,-29.5,-20.19,-9.88,-74.87,80.25,-66.87,2.8690478363600294,-3.342156798630227,0.7439819355695487,-71.42240793741999,-1.283452294756085,-102.28340450662313,-0.2296,-0.5837,-0.0112,-0.7787
106,1855641.0,1748.194868,1.0,9.46,2.95,9.53,-27.69,-19.69,-12.38,-290.75,53.06,-38.56,4.444456809381274,2.0433181091363792,-3.041955168438319,-66.8300983122929,3.5873017007906127,-103.47835920176271,-0.2816,-0.5507,0.0313,-0.7852
107,1855641.0,1748.194868,1.0,9.46,2.95,9.53,-27.69,-19.69,-12.38,-290.75,53.06,-38.56,4.444456809381274,2.0433181091363792,-3.041955168438319,-66.8300983122929,3.5873017007906127,-103.47835920176271,-0.2816,-0.5507,0.0313,-0.7852
108,1855676.0,1748.254742,1.0,9.75,2.89,8.59,-27.69,-19.69,-12.38,-159.75,99.5,-59.75,2.273677898189852,1.5340571580257591,-3.2194682802549783,-61.114626396297396,7.522608280519941,-104.63307361365904,-0.3332,-0.5084,0.0656,-0.7914
109,1855676.0,1748.254742,1.0,9.75,2.89,8.59,-27.69,-19.69,-12.38,-159.75,99.5,-59.75,2.273677898189852,1.5340571580257591,-3.2194682802549783,-61.114626396297396,7.522608280519941,-104.63307361365904,-0.3332,-0.5084,0.0656,-0.7914
110,1855713.0,1748.2938629999999,1.0,10.04,-1.22,9.45,-27.37,-16.56,-17.06,-229.38,58.44,-38.06,4.602425806921577,-1.2024460058999846,-3.1919768618911237,-56.99233821526014,10.327214181692757,-104.83951599711521,-0.369,-0.4771,0.09,-0.7925
111,1855713.0,1748.2938629999999,1.0,10.04,-1.22,9.45,-27.37,-16.56,-17.06,-229.38,58.44,-38.06,4.602425806921577,-1.2024460058999846,-3.1919768618911237,-56.99233821526014,10.327214181692757,-104.83951599711521,-0.369,-0.4771,0.09,-0.7925
112,1855750.0,1748.310087,1.0,11.82,1.75,12.68,-24.75,-14.69,-22.5,-302.19,22.56,75.5,1.9303757949947185,2.9605425959490383,-7.254010503851242,-50.820914868829576,19.296614397760404,-104.09110859790351,-0.4075,-0.4291,0.1676,-0.7885
113,1855750.0,1748.310087,1.0,11.82,1.75,12.68,-24.75,-14.69,-22.5,-302.19,22.56,75.5,1.9303757949947185,2.9605425959490383,-7.254010503851242,-50.820914868829576,19.296614397760404,-104.09110859790351,-0.4075,-0.4291,0.1676,-0.7885
114,1855784.0,1748.3146629999999,1.0,13.63,6.96,11.28,-24.75,-14.69,-22.5,-233.88,10.44,141.69,-5.7987353217019715,5.253737270841136,-7.5204909458635365,-46.12063959224854,26.841478236677798,-104.31496972568995,-0.4111,-0.3917,0.2321,-0.7897
115,1855784.0,1748.3146629999999,1.0,13.63,6.96,11.28,-24.75,-14.69,-22.5,-233.88,10.44,141.69,-5.7987353217019715,5.253737270841136,-7.5204909458635365,-46.12063959224854,26.841478236677798,-104.31496972568995,-0.4111,-0.3917,0.2321,-0.7897
116,1855819.0,1748.366239,1.0,12.42,8.53,9.46,-22.87,-8.25,-24.56,-32.75,-7.38,96.37,-8.856975181875903,6.356653649606415,-4.252362945672248,-43.135358011103925,32.436861947325646,-105.61328387022331,-0.3901,-0.3676,0.2793,-0.7966
117,1855819.0,1748.366239,1.0,12.42,8.53,9.46,-22.87,-8.25,-24.56,-32.75,-7.38,96.37,-8.856975181875903,6.356653649606415,-4.252362945672248,-43.135358011103925,32.436861947325646,-105.61328387022331,-0.3901,-0.3676,0.2793,-0.7966
118,1855856.0,1748.4094899999998,1.0,9.58,2.93,7.12,-23.25,0.0,-24.75,63.63,23.06,-25.25,-3.7294428673812665,2.6124761326164543,-1.6092128388505262,-43.307915821839245,30.54380438300529,-106.91203223110699,-0.386,-0.369,0.2634,-0.8034
119,1855856.0,1748.4094899999998,1.0,9.58,2.93,7.12,-23.25,0.0,-24.75,63.63,23.06,-25.25,-3.7294428673812665,2.6124761326164543,-1.6092128388505262,-43.307915821839245,30.54380438300529,-106.91203223110699,-0.386,-0.369,0.2634,-0.8034
120,1855893.0,1748.4291059999998,1.0,7.47,-4.08,6.29,-23.37,1.56,-26.19,89.81,26.06,-17.62,2.7888982329434677,-1.5305173955089575,-0.2874553664170385,-43.96211035016289,27.336531426237315,-108.01618391845108,-0.3864,-0.3743,0.2363,-0.8091
121,1855893.0,1748.4291059999998,1.0,7.47,-4.08,6.29,-23.37,1.56,-26.19,89.81,26.06,-17.62,2.7888982329434677,-1.5305173955089575,-0.2874553664170385,-43.96211035016289,27.336531426237315,-108.01618391845108,-0.3864,-0.3743,0.2363,-0.8091
122,1855926.0,1748.508696,1.0,8.34,-1.79,5.47,-23.37,1.56,-26.19,-27.56,-7.56,57.56,0.02323450267186267,-0.9775781492983444,-0.2792015317200676,-43.55460618777381,28.115528300006982,-108.99693778149953,-0.3748,-0.371,0.2429,-0.8141
123,1855926.0,1748.508696,1.0,8.34,-1.79,5.47,-23.37,1.56,-26.19,-27.56,-7.56,57.56,0.02323450267186267,-0.9775781492983444,-0.2792015317200676,-43.55460618777381,28.115528300006982,-108.99693778149953,-0.3748,-0.371,0.2429,-0.8141
124,1855963.0,1748.5189260000002,1.0,8.67,3.82,7.46,-23.0,-1.37,-27.06,-53.94,-35.44,35.81,-3.990818382256542,3.995697622792017,-0.8479578833083963,-43.221624049321754,30.710138215163173,-108.54434186923865,-0.3676,-0.3683,0.2648,-0.8118
125,1855963.0,1748.5189260000002,1.0,8.67,3.82,7.46,-23.0,-1.37,-27.06,-53.94,-35.44,35.81,-3.990818382256542,3.995697622792017,-0.8479578833083963,-43.221624049321754,30.710138215163173,-108.54434186923865,-0.3676,-0.3683,0.2648,-0.8118
126,1856000.0,1748.5629559999998,1.0,8.61,1.71,6.28,-23.37,0.75,-26.37,83.0,9.56,-17.87,-2.5261267446438334,1.840587216316785,-0.5241545363914604,-44.18463175478608,29.037876869982465,-109.01667267342907,-0.3644,-0.3761,0.2507,-0.8142
127,1856000.0,1748.5629559999998,1.0,8.61,1.71,6.28,-23.37,0.75,-26.37,83.0,9.56,-17.87,-2.5261267446438334,1.840587216316785,-0.5241545363914604,-44.18463175478608,29.037876869982465,-109.01667267342907,-0.3644,-0.3761,0.2507,-0.8142
128,1856034.0,1748.5801170000002,1.0,8.27,-2.46,5.11,-23.37,0.75,-26.37,41.0,-5.88,-14.69,0.5630943926173916,-1.5636306978367698,-0.08246440654749954,-45.1509357631892,27.136090647491407,-109.49174968741804,-0.3616,-0.3839,0.2346,-0.8166
129,1856034.0,1748.5801170000002,1.0,8.27,-2.46,5.11,-23.37,0.75,-26.37,41.0,-5.88,-14.69,0.5630943926173916,-1.5636306978367698,-0.08246440654749954,-45.1509357631892,27.136090647491407,-109.49174968741804,-0.3616,-0.3839,0.2346,-0.8166
130,1856067.0,1748.6398140000001,1.0,7.98,-1.48,5.26,-23.37,0.75,-26.37,-4.81,-11.31,-2.25,0.07362430728897285,-0.6943831500278772,0.16036514507613298,-45.54834570673154,27.218614801739264,-109.05615676372436,-0.3627,-0.3871,0.2353,-0.8144
131,1856067.0,1748.6398140000001,1.0,7.98,-1.48,5.26,-23.37,0.75,-26.37,-4.81,-11.31,-2.25,0.07362430728897285,-0.6943831500278772,0.16036514507613298,-45.54834570673154,27.218614801739264,-109.05615676372436,-0.3627,-0.3871,0.2353,-0.8144
132,1856104.0,1748.6881600000002,1.0,7.42,-1.04,6.4,-23.0,-1.37,-26.06,13.81,-15.81,5.69,0.5530862902019942,0.6235430272728106,-0.011867691012733772,-45.971228872033386,27.336531426237315,-108.8195376256316,-0.3611,-0.3905,0.2363,-0.8132
133,1856104.0,1748.6881600000002,1.0,7.42,-1.04,6.4,-23.0,-1.37,-26.06,13.81,-15.81,5.69,0.5530862902019942,0.6235430272728106,-0.011867691012733772,-45.971228872033386,27.336531426237315,-108.8195376256316,-0.3611,-0.3905,0.2363,-0.8132
134,1856141.0,1748.7075100000002,1.0,7.25,-1.97,6.18,-23.75,-0.69,-26.5,47.06,2.0,11.0,1.3115721218058067,-0.1403733003422487,0.1683994374833322,-46.494530291688996,26.29986168212807,-109.49174968741804,-0.3544,-0.3947,0.2275,-0.8166
135,1856141.0,1748.7075100000002,1.0,7.25,-1.97,6.18,-23.75,-0.69,-26.5,47.06,2.0,11.0,1.3115721218058067,-0.1403733003422487,0.1683994374833322,-46.494530291688996,26.29986168212807,-109.49174968741804,-0.3544,-0.3947,0.2275,-0.8166
136,1856174.0,1748.74883,1.0,7.5,-2.12,5.64,-23.75,-0.69,-26.5,20.75,0.56,20.5,1.0322992511796802,-0.7344116633633833,0.2699316039934523,-46.61927683962218,25.782352883412447,-110.2096390648013,-0.3478,-0.3957,0.2231,-0.8202
137,1856174.0,1748.74883,1.0,7.5,-2.12,5.64,-23.75,-0.69,-26.5,20.75,0.56,20.5,1.0322992511796802,-0.7344116633633833,0.2699316039934523,-46.61927683962218,25.782352883412447,-110.2096390648013,-0.3478,-0.3957,0.2231,-0.8202
138,1856212.0,1748.7736109999998,1.0,7.57,-1.55,5.92,-23.75,-2.19,-26.06,9.19,-0.06,19.0,0.6577546229962329,-0.18068578044743933,0.09642283969776776,-46.59432285421078,25.770597576108926,-110.79266112612923,-0.3412,-0.3955,0.223,-0.8231
139,1856212.0,1748.7736109999998,1.0,7.57,-1.55,5.92,-23.75,-2.19,-26.06,9.19,-0.06,19.0,0.6577546229962329,-0.18068578044743933,0.09642283969776776,-46.59432285421078,25.770597576108926,-110.79266112612923,-0.3412,-0.3955,0.223,-0.8231
140,1856247.0,1748.8548219999998,1.0,7.46,-2.01,5.88,-24.5,-1.37,-25.25,23.0,0.19,14.5,1.008870430111478,-0.4826618422604443,0.16220507033854936,-46.66919183707166,25.547298987438325,-111.21754699943544,-0.3367,-0.3961,0.2211,-0.8252
141,1856247.0,1748.8548219999998,1.0,7.46,-2.01,5.88,-24.5,-1.37,-25.25,23.0,0.19,14.5,1.008870430111478,-0.4826618422604443,0.16220507033854936,-46.66919183707166,25.547298987438325,-111.21754699943544,-0.3367,-0.3961,0.2211,-0.8252
142,1856282.0,1748.9041170000003,1.0,7.61,-1.67,5.76,-24.5,-1.37,-25.25,1.81,2.0,12.88,0.5887365664763619,-0.3883245422559181,0.14325549779864488,-46.63175471031061,25.382826336621637,-111.74680725300392,-0.3315,-0.3958,0.2197,-0.8278
143,1856282.0,1748.9041170000003,1.0,7.61,-1.67,5.76,-24.5,-1.37,-25.25,1.81,2.0,12.88,0.5887365664763619,-0.3883245422559181,0.14325549779864488,-46.63175471031061,25.382826336621637,-111.74680725300392,-0.3315,-0.3958,0.2197,-0.8278
144,1856315.0,1748.908239,1.0,7.89,-1.25,5.84,-24.06,-2.19,-26.06,8.44,2.13,6.13,0.16726823903301902,-0.16573366560697764,-0.08601160789376294,-46.54442190080458,25.265378432632104,-112.05379617607242,-0.3291,-0.3951,0.2187,-0.8293
145,1856315.0,1748.908239,1.0,7.89,-1.25,5.84,-24.06,-2.19,-26.06,8.44,2.13,6.13,0.16726823903301902,-0.16573366560697764,-0.08601160789376294,-46.54442190080458,25.265378432632104,-112.05379617607242,-0.3291,-0.3951,0.2187,-0.8293
146,1856352.0,1748.9246010000002,1.0,7.44,-2.06,5.83,-23.75,-2.19,-25.25,8.44,-0.37,2.25,0.9640150253864846,-0.5832439980065929,0.19849713539494296,-46.61927683962218,25.054040082214637,-112.19747600626744,-0.3278,-0.3957,0.2169,-0.83
147,1856352.0,1748.9246010000002,1.0,7.44,-2.06,5.83,-23.75,-2.19,-25.25,8.44,-0.37,2.25,0.9640150253864846,-0.5832439980065929,0.19849713539494296,-46.61927683962218,25.054040082214637,-112.19747600626744,-0.3278,-0.3957,0.2169,-0.83
148,1856389.0,1748.959225,1.0,7.46,-1.74,5.82,-23.75,-2.19,-25.25,-7.06,-0.81,6.63,0.7031292235271674,-0.35771478633856546,0.21867579130206136,-46.58184673902731,25.15969838503005,-112.25913519470078,-0.3268,-0.3954,0.2178,-0.8303
149,1856389.0,1748.959225,1.0,7.46,-1.74,5.82,-23.75,-2.19,-25.25,-7.06,-0.81,6.63,0.7031292235271674,-0.35771478633856546,0.21867579130206136,-46.58184673902731,25.15969838503005,-112.25913519470078,-0.3268,-0.3954,0.2178,-0.8303
150,1856421.0,1748.9725219999998,1.0,7.64,-0.87,6.02,-23.75,-1.75,-25.25,-7.5,0.44,5.38,0.04654248655341253,0.3614577659077671,0.047854885826817295,-46.38230826013582,25.65305965168436,-112.19747600626744,-0.3267,-0.3938,0.222,-0.83
151,1856421.0,1748.9725219999998,1.0,7.64,-0.87,6.02,-23.75,-1.75,-25.25,-7.5,0.44,5.38,0.04654248655341253,0.3614577659077671,0.047854885826817295,-46.38230826013582,25.65305965168436,-112.19747600626744,-0.3267,-0.3938,0.222,-0.83
152,1856458.0,1749.0215660000001,1.0,7.52,-1.54,5.89,-23.37,-1.37,-26.06,5.38,-0.25,2.44,0.5105695506620094,-0.13462294888141654,0.14563062337253818,-46.33244691855332,25.700071520307283,-112.19747600626744,-0.327,-0.3934,0.2224,-0.83
153,1856458.0,1749.0215660000001,1.0,7.52,-1.54,5.89,-23.37,-1.37,-26.06,5.38,-0.25,2.44,0.5105695506620094,-0.13462294888141654,0.14563062337253818,-46.33244691855332,25.700071520307283,-112.19747600626744,-0.327,-0.3934,0.2224,-0.83
154,1856493.0,1749.0352579999999,1.0,7.64,-1.01,5.92,-23.75,-1.37,-26.5,-6.25,0.94,5.94,0.060775977944301125,0.22679823374742725,0.09166318365928204,-46.19537604537457,25.93519704664329,-112.15639729539848,-0.3275,-0.3923,0.2244,-0.8298
155,1856493.0,1749.0352579999999,1.0,7.64,-1.01,5.92,-23.75,-1.37,-26.5,-6.25,0.94,5.94,0.060775977944301125,0.22679823374742725,0.09166318365928204,-46.19537604537457,25.93519704664329,-112.15639729539848,-0.3275,-0.3923,0.2244,-0.8298
156,1856528.0,1749.0760050000001,1.0,7.69,-1.13,5.79,-23.75,-1.37,-26.5,-3.63,-2.38,1.69,0.04460909769122445,0.07415554353836895,0.11492100132459625,-46.170461586302004,26.13514108768563,-112.09482025042286,-0.3272,-0.3921,0.2261,-0.8295
157,1856528.0,1749.0760050000001,1.0,7.69,-1.13,5.79,-23.75,-1.37,-26.5,-3.63,-2.38,1.69,0.04460909769122445,0.07415554353836895,0.11492100132459625,-46.170461586302004,26.13514108768563,-112.09482025042286,-0.3272,-0.3921,0.2261,-0.8295
158,1856563.0,1749.1321649999998,1.0,7.41,-1.46,6.06,-23.75,-1.37,-25.69,-3.88,-4.5,2.25,0.5494658641584316,0.15070908708488018,0.14028180738522167,-46.182918527144956,26.335166138238048,-111.95133120994127,-0.3276,-0.3922,0.2278,-0.8288
159,1856563.0,1749.1321649999998,1.0,7.41,-1.46,6.06,-23.75,-1.37,-25.69,-3.88,-4.5,2.25,0.5494658641584316,0.15070908708488018,0.14028180738522167,-46.182918527144956,26.335166138238048,-111.95133120994127,-0.3276,-0.3922,0.2278,-0.8288
160,1856600.0,1749.193961,1.0,7.47,-1.48,6.11,-23.37,-1.37,-25.25,-4.13,0.31,4.88,0.5211238252778205,0.17423770392797874,0.058754269061056526,-46.008573794141824,26.582368805630427,-111.99230089793316,-0.3273,-0.3908,0.2299,-0.8290000000000001
161,1856600.0,1749.193961,1.0,7.47,-1.48,6.11,-23.37,-1.37,-25.25,-4.13,0.31,4.88,0.5211238252778205,0.17423770392797874,0.058754269061056526,-46.008573794141824,26.582368805630427,-111.99230089793316,-0.3273,-0.3908,0.2299,-0.8290000000000001
162,1856634.0,1749.2011350000002,1.0,7.78,-1.07,5.85,-23.37,-1.37,-25.25,9.13,-0.63,0.19,-0.057319582954098676,0.17864618900160933,0.01580733940304846,-46.008573794141824,26.582368805630427,-112.03329231056664,-0.3267,-0.3908,0.2299,-0.8292
163,1856634.0,1749.2011350000002,1.0,7.78,-1.07,5.85,-23.37,-1.37,-25.25,9.13,-0.63,0.19,-0.057319582954098676,0.17864618900160933,0.01580733940304846,-46.008573794141824,26.582368805630427,-112.03329231056664,-0.3267,-0.3908,0.2299,-0.8292
164,1856667.0,1749.296975,1.0,7.62,-1.7,5.81,-23.75,-1.06,-26.06,3.38,-2.0,-0.12,0.4778995699964428,-0.2292912484343197,0.08916382690005342,-46.13309422581874,26.452866060028953,-112.01279388618185,-0.3267,-0.3918,0.2288,-0.8291
165,1856667.0,1749.296975,1.0,7.62,-1.7,5.81,-23.75,-1.06,-26.06,3.38,-2.0,-0.12,0.4778995699964428,-0.2292912484343197,0.08916382690005342,-46.13309422581874,26.452866060028953,-112.01279388618185,-0.3267,-0.3918,0.2288,-0.8291
166,1856704.0,1749.304889,1.0,7.55,-1.36,6.07,-24.06,-0.69,-25.25,-1.5,0.81,1.56,0.3864686755134604,0.20527862414493936,0.03395832117803543,-46.08327914813054,26.57059440264536,-111.97181334084304,-0.3271,-0.3914,0.2298,-0.8289
167,1856704.0,1749.304889,1.0,7.55,-1.36,6.07,-24.06,-0.69,-25.25,-1.5,0.81,1.56,0.3864686755134604,0.20527862414493936,0.03395832117803543,-46.08327914813054,26.57059440264536,-111.97181334084304,-0.3271,-0.3914,0.2298,-0.8289
168,1856739.0,1749.312153,1.0,7.61,-1.47,5.92,-24.06,-0.69,-25.25,2.5,1.12,2.13,0.3398559117590747,0.005432703558940544,0.05965721017121161,-45.971228872033386,26.547046453502677,-112.13586614925856,-0.3264,-0.3905,0.2296,-0.8297
169,1856739.0,1749.312153,1.0,7.61,-1.47,5.92,-24.06,-0.69,-25.25,2.5,1.12,2.13,0.3398559117590747,0.005432703558940544,0.05965721017121161,-45.971228872033386,26.547046453502677,-112.13586614925856,-0.3264,-0.3905,0.2296,-0.8297
170,1856774.0,1749.315612,1.0,7.48,-1.65,5.96,-24.06,-1.37,-25.69,0.81,-0.31,1.19,0.5334876801205176,-0.04292541749584266,0.11603349207376468,-45.88411078347371,26.57059440264536,-112.21802358107666,-0.3257,-0.3898,0.2298,-0.8301
171,1856774.0,1749.315612,1.0,7.48,-1.65,5.96,-24.06,-1.37,-25.69,0.81,-0.31,1.19,0.5334876801205176,-0.04292541749584266,0.11603349207376468,-45.88411078347371,26.57059440264536,-112.21802358107666,-0.3257,-0.3898,0.2298,-0.8301
172,1856808.0,1749.3552359999999,1.0,7.37,-1.64,6.07,-23.75,-1.06,-26.5,1.25,1.19,2.31,0.586506423093235,0.07299407476786812,0.13700253586154787,-45.61049316943376,26.688351311037593,-112.38260211278737,-0.3257,-0.3876,0.2308,-0.8309
173,1856808.0,1749.3552359999999,1.0,7.37,-1.64,6.07,-23.75,-1.06,-26.5,1.25,1.19,2.31,0.586506423093235,0.07299407476786812,0.13700253586154787,-45.61049316943376,26.688351311037593,-112.38260211278737,-0.3257,-0.3876,0.2308,-0.8309
174,1856843.0,1749.4108760000001,1.0,7.56,-1.34,5.96,-23.75,-1.75,-25.69,0.06,1.75,4.19,0.19322224702735014,0.13731965554217762,0.08993201111839078,-45.461363019954995,26.723683975588173,-112.54753437473772,-0.325,-0.3864,0.2311,-0.8317
175,1856843.0,1749.4108760000001,1.0,7.56,-1.34,5.96,-23.75,-1.75,-25.69,0.06,1.75,4.19,0.19322224702735014,0.13731965554217762,0.08993201111839078,-45.461363019954995,26.723683975588173,-112.54753437473772,-0.325,-0.3864,0.2311,-0.8317
176,1856878.0,1749.4690030000002,1.0,7.5,-1.43,5.92,-23.75,-1.75,-25.69,4.0,0.81,3.31,0.2523633827389229,0.06778316353759117,0.14885428017896807,-45.411671047559956,26.66479763712951,-112.71282300150172,-0.3236,-0.386,0.2306,-0.8325
177,1856878.0,1749.4690030000002,1.0,7.5,-1.43,5.92,-23.75,-1.75,-25.69,4.0,0.81,3.31,0.2523633827389229,0.06778316353759117,0.14885428017896807,-45.411671047559956,26.66479763712951,-112.71282300150172,-0.3236,-0.386,0.2306,-0.8325
178,1856915.0,1749.4876390000002,1.0,7.47,-1.53,5.76,-23.75,-1.37,-25.25,0.5,1.25,2.69,0.2433104375539513,-0.0943430849649174,0.25409539857025365,-45.33714998751986,26.65302123047702,-112.83702493862923,-0.3229,-0.3854,0.2305,-0.8331
179,1856915.0,1749.4876390000002,1.0,7.47,-1.53,5.76,-23.75,-1.37,-25.25,0.5,1.25,2.69,0.2433104375539513,-0.0943430849649174,0.25409539857025365,-45.33714998751986,26.65302123047702,-112.83702493862923,-0.3229,-0.3854,0.2305,-0.8331
180,1856950.0,1749.4910100000002,1.0,7.5,-1.4,6.13,-24.5,-1.25,-26.5,-0.5,0.81,2.69,0.2911257556915958,0.21923321798532847,0.026359483327969,-45.21299316503786,26.688351311037593,-112.9821839632563,-0.3221,-0.3844,0.2308,-0.8338
181,1856950.0,1749.4910100000002,1.0,7.5,-1.4,6.13,-24.5,-1.25,-26.5,-0.5,0.81,2.69,0.2911257556915958,0.21923321798532847,0.026359483327969,-45.21299316503786,26.688351311037593,-112.9821839632563,-0.3221,-0.3844,0.2308,-0.8338
182,1856983.0,1749.527575,1.0,7.58,-1.4,6.09,-24.5,-1.25,-26.5,2.63,1.12,2.63,0.21649640778238974,0.15889624287561688,-0.013349047322629204,-45.13852596002858,26.66479763712951,-113.10682738081556,-0.3216,-0.3838,0.2306,-0.8344
183,1856983.0,1749.527575,1.0,7.58,-1.4,6.09,-24.5,-1.25,-26.5,2.63,1.12,2.63,0.21649640778238974,0.15889624287561688,-0.013349047322629204,-45.13852596002858,26.66479763712951,-113.10682738081556,-0.3216,-0.3838,0.2306,-0.8344
184,1857017.0,1749.583524,1.0,7.47,-1.55,5.96,-23.37,-1.06,-24.87,3.31,0.75,1.81,0.2986930393209911,0.0013933686529323808,0.1300917003365818,-45.06407886296696,26.582368805630427,-113.2733386110762,-0.3206,-0.3832,0.2299,-0.8352
185,1857017.0,1749.583524,1.0,7.47,-1.55,5.96,-23.37,-1.06,-24.87,3.31,0.75,1.81,0.2986930393209911,0.0013933686529323808,0.1300917003365818,-45.06407886296696,26.582368805630427,-113.2733386110762,-0.3206,-0.3832,0.2299,-0.8352
186,1857054.0,1749.600136,1.0,7.61,-1.62,5.85,-23.75,-0.25,-25.25,4.19,2.31,1.56,0.2082222704343205,-0.17921786254361427,0.07610405211811687,-44.96484726352389,26.535272907054928,-113.39846355737878,-0.3204,-0.3824,0.2295,-0.8358
187,1857054.0,1749.600136,1.0,7.61,-1.62,5.85,-23.75,-0.25,-25.25,4.19,2.31,1.56,0.2082222704343205,-0.17921786254361427,0.07610405211811687,-44.96484726352389,26.535272907054928,-113.39846355737878,-0.3204,-0.3824,0.2295,-0.8358
188,1857087.0,1749.643732,1.0,7.59,-1.57,6.0,-23.75,-0.25,-25.25,-0.31,0.0,1.88,0.2478447705060195,-0.04401108264829645,0.008199306429260034,-44.940044922743645,26.5117266696815,-113.48199585621887,-0.3196,-0.3822,0.2293,-0.8362
189,1857087.0,1749.643732,1.0,7.59,-1.57,6.0,-23.75,-0.25,-25.25,-0.31,0.0,1.88,0.2478447705060195,-0.04401108264829645,0.008199306429260034,-44.940044922743645,26.5117266696815,-113.48199585621887,-0.3196,-0.3822,0.2293,-0.8362
190,1857122.0,1749.6608219999998,1.0,7.61,-1.33,5.87,-23.37,-1.37,-26.5,3.63,0.69,-0.75,-0.00103967464075716,0.030328653689849275,0.10422869952855507,-44.902845573736435,26.5117266696815,-113.48199585621887,-0.3197,-0.3819,0.2293,-0.8362
191,1857122.0,1749.6608219999998,1.0,7.61,-1.33,5.87,-23.37,-1.37,-26.5,3.63,0.69,-0.75,-0.00103967464075716,0.030328653689849275,0.10422869952855507,-44.902845573736435,26.5117266696815,-113.48199585621887,-0.3197,-0.3819,0.2293,-0.8362
192,1857157.0,1749.755536,1.0,7.33,-1.78,6.0,-23.0,-0.56,-25.69,2.94,0.94,-0.37,0.526922274498055,-0.11437940683648473,0.18341923959891734,-44.89044689976561,26.42932380663794,-113.52379683838042,-0.3202,-0.3818,0.2286,-0.8364
193,1857157.0,1749.755536,1.0,7.33,-1.78,6.0,-23.0,-0.56,-25.69,2.94,0.94,-0.37,0.526922274498055,-0.11437940683648473,0.18341923959891734,-44.89044689976561,26.42932380663794,-113.52379683838042,-0.3202,-0.3818,0.2286,-0.8364
194,1857193.0,1749.7588859999998,1.0,7.34,-1.52,6.1,-24.06,-1.0,-26.87,-1.19,1.56,2.56,0.370695539033405,0.12484288672703615,0.15040854325429542,-44.7912774389752,26.47640945025204,-113.54470605704358,-0.3203,-0.381,0.22899999999999998,-0.8365
195,1857193.0,1749.7588859999998,1.0,7.34,-1.52,6.1,-24.06,-1.0,-26.87,-1.19,1.56,2.56,0.370695539033405,0.12484288672703615,0.15040854325429542,-44.7912774389752,26.47640945025204,-113.54470605704358,-0.3203,-0.381,0.22899999999999998,-0.8365
