acc_x,acc_y,acc_z,lin_x,lin_y,lin_z,eul_x,eul_y,eul_z
-2.42,3.08,-9.0,0.0459099649631273,-0.0807187544082597,-0.0083475424247509,-102.7228019769725,-72.24306941788456,0.9625804159917916
-2.42,3.08,-9.0,0.0459099649631273,-0.0807187544082597,-0.0083475424247509,-102.7228019769725,-72.24306941788456,0.9625804159917916
-2.72,2.9,-8.87,-0.1759588358351186,0.1912941570493225,0.0897706123791817,-102.63108741620243,-72.32820965004784,0.9969591404369118
-2.72,2.9,-8.87,-0.1759588358351186,0.1912941570493225,0.0897706123791817,-102.63108741620243,-72.32820965004784,0.9969591404369118
-2.52,2.89,-8.94,-0.1434995379079167,-0.015174419472725,0.0801255632027597,-102.5761026611454,-72.38499549855874,0.9625804159917916
-2.52,2.89,-8.94,-0.1434995379079167,-0.015174419472725,0.0801255632027597,-102.5761026611454,-72.38499549855874,0.9625804159917916
-2.46,3.11,-9.0,0.0612931702860358,-0.0398530760009967,-0.0278990430222343,-102.5761026611454,-72.38499549855874,0.93966131468631
-2.46,3.11,-9.0,0.0612931702860358,-0.0398530760009967,-0.0278990430222343,-102.5761026611454,-72.38499549855874,0.93966131468631
-2.45,3.05,-8.99,0.0122698984726816,-0.0568700270198681,0.0024817410594035,-102.59442725393292,-72.38499549855874,0.93966131468631
-2.45,3.05,-8.99,0.0122698984726816,-0.0568700270198681,0.0024817410594035,-102.59442725393292,-72.38499549855874,0.93966131468631
-2.47,3.02,-8.92,0.0003214022151032,-0.0215535867654435,0.0707763699861949,-102.5761026611454,-72.3991951776014,0.9625804159917916
-2.47,3.02,-8.92,0.0003214022151032,-0.0215535867654435,0.0707763699861949,-102.5761026611454,-72.3991951776014,0.9625804159917916
-2.64,2.89,-8.79,-0.1371774900254694,0.1462587710334051,0.1865881130823226,-102.53946443897644,-72.44180194441707,0.985499555804114
-2.64,2.89,-8.79,-0.1371774900254694,0.1462587710334051,0.1865881130823226,-102.53946443897644,-72.44180194441707,0.985499555804114
-2.47,3.01,-9.11,-0.0451208318712091,-0.0818428424153028,-0.1001338302688612,-102.55778172371149,-72.44180194441707,0.9740399810272836
-2.47,3.01,-9.11,-0.0451208318712091,-0.0818428424153028,-0.1001338302688612,-102.55778172371149,-72.44180194441707,0.9740399810272836
-2.5,2.94,-9.05,-0.103676809895651,-0.0508883481658388,-0.031173005884522,-102.55778172371149,-72.44180194441707,0.985499555804114
-2.5,2.94,-9.05,-0.103676809895651,-0.0508883481658388,-0.031173005884522,-102.55778172371149,-72.44180194441707,0.985499555804114
-2.58,2.98,-8.8,-0.0282289385204266,0.117206502885754,0.1649558665651831,-102.55778172371149,-72.45600677848147,0.9969591404369118
-2.58,2.98,-8.8,-0.0282289385204266,0.117206502885754,0.1649558665651831,-102.55778172371149,-72.45600677848147,0.9969591404369118
-2.45,2.92,-9.0,-0.0868448600082065,-0.0835042466819697,0.033503883673065,-102.55778172371149,-72.47021290272461,1.0198783397289315
-2.45,2.92,-9.0,-0.0868448600082065,-0.0835042466819697,0.033503883673065,-102.55778172371149,-72.47021290272461,1.0198783397289315
-2.56,2.93,-9.01,-0.1164197144178418,0.0214453130808325,-0.0068400289673569,-102.55778172371149,-72.47021290272461,0.985499555804114
-2.56,2.93,-9.01,-0.1164197144178418,0.0214453130808325,-0.0068400289673569,-102.55778172371149,-72.47021290272461,0.985499555804114
-2.42,3.02,-9.02,0.0044685789037018,-0.0866653440527718,-0.0081179111603422,-102.5761026611454,-72.45600677848147,0.9625804159917916
-2.42,3.02,-9.02,0.0044685789037018,-0.0866653440527718,-0.0081179111603422,-102.5761026611454,-72.45600677848147,0.9625804159917916
-2.44,3.09,-8.98,0.068927531775868,-0.0375714571066143,0.00175645743799,-102.5761026611454,-72.44180194441707,0.93966131468631
-2.44,3.09,-8.98,0.068927531775868,-0.0375714571066143,0.00175645743799,-102.5761026611454,-72.44180194441707,0.93966131468631
-2.44,3.18,-8.99,0.1460396863816008,-0.0254243054459257,-0.0353074280065968,-102.59442725393292,-72.42759839996175,0.93966131468631
-2.44,3.18,-8.99,0.1460396863816008,-0.0254243054459257,-0.0353074280065968,-102.59442725393292,-72.42759839996175,0.93966131468631
-2.54,2.94,-9.05,-0.1107237873175266,-0.010315376862529,-0.0414632119773195,-102.5761026611454,-72.44180194441707,0.9969591404369118
-2.54,2.94,-9.05,-0.1107237873175266,-0.010315376862529,-0.0414632119773195,-102.5761026611454,-72.44180194441707,0.9969591404369118
-2.56,3.04,-8.84,0.0276365534369792,0.0964255342168083,0.1148628409015728,-102.55778172371149,-72.47021290272461,1.0198783397289315
-2.56,3.04,-8.84,0.0276365534369792,0.0964255342168083,0.1148628409015728,-102.55778172371149,-72.47021290272461,1.0198783397289315
-2.58,2.85,-9.0,-0.1835139299700574,0.0275399936126936,0.0217399755665201,-102.5761026611454,-72.47021290272461,1.0313379546174166
-2.58,2.85,-9.0,-0.1835139299700574,0.0275399936126936,0.0217399755665201,-102.5761026611454,-72.47021290272461,1.0313379546174166
-2.5,2.91,-9.08,-0.1212598052300978,-0.0549875679839233,-0.0496562263204261,-102.5761026611454,-72.47021290272461,1.0198783397289315
-2.5,2.91,-9.08,-0.1212598052300978,-0.0549875679839233,-0.0496562263204261,-102.5761026611454,-72.47021290272461,1.0198783397289315
-2.41,2.98,-9.04,-0.0214081257250227,-0.1108067705215216,-0.0115659047231968,-102.5761026611454,-72.47021290272461,1.0198783397289315
-2.41,2.98,-9.04,-0.0214081257250227,-0.1108067705215216,-0.0115659047231968,-102.5761026611454,-72.47021290272461,1.0198783397289315
-2.51,2.95,-8.94,-0.0577077573025151,0.0059235409756659,0.0638149543672668,-102.5761026611454,-72.47021290272461,1.0198783397289315
-2.51,2.95,-8.94,-0.0577077573025151,0.0059235409756659,0.0638149543672668,-102.5761026611454,-72.47021290272461,1.0198783397289315
-2.44,3.08,-9.05,0.0536839964634037,-0.0651025101321134,-0.059219434150151,-102.59442725393292,-72.44180194441707,0.9969591404369118
-2.44,3.08,-9.05,0.0536839964634037,-0.0651025101321134,-0.059219434150151,-102.59442725393292,-72.44180194441707,0.9969591404369118
-2.47,3.0,-8.9,0.0066355928151031,-0.0094344283561325,0.0952769271297349,-102.59442725393292,-72.44180194441707,1.0198783397289315
-2.47,3.0,-8.9,0.0066355928151031,-0.0094344283561325,0.0952769271297349,-102.59442725393292,-72.44180194441707,1.0198783397289315
-2.63,2.84,-8.79,-0.1613311923758624,0.1335891013561982,0.2044249350285785,-102.5761026611454,-72.44180194441707,1.0542572154525014
-2.63,2.84,-8.79,-0.1613311923758624,0.1335891013561982,0.2044249350285785,-102.5761026611454,-72.44180194441707,1.0542572154525014
-2.4,3.11,-9.1,0.0832699012826383,-0.1175440759988262,-0.1040184695704571,-102.63108741620243,-72.3991951776014,1.0313379546174166
-2.4,3.11,-9.1,0.0832699012826383,-0.1175440759988262,-0.1040184695704571,-102.63108741620243,-72.3991951776014,1.0313379546174166
-2.47,2.95,-9.14,-0.0877081568925802,-0.1018584582716102,-0.1092429065260223,-102.63108741620243,-72.41339614454618,1.0657168616283692
-2.47,2.95,-9.14,-0.0877081568925802,-0.1018584582716102,-0.1092429065260223,-102.63108741620243,-72.41339614454618,1.0657168616283692
-2.57,3.0,-8.86,-0.0021085971750249,0.0860217484424208,0.1062842433590258,-102.63108741620243,-72.3991951776014,1.1230152546764245
-2.57,3.0,-8.86,-0.0021085971750249,0.0860217484424208,0.1062842433590258,-102.63108741620243,-72.3991951776014,1.1230152546764245
-2.76,3.37,-8.42,0.4209181084360806,0.4817858223836304,0.3482352085383393,-102.63108741620243,-72.42759839996175,1.3292918974264516
-2.76,3.37,-8.42,0.4209181084360806,0.4817858223836304,0.3482352085383393,-102.63108741620243,-72.42759839996175,1.3292918974264516
-2.57,2.72,-9.12,-0.1003582665452743,-0.0090244767069185,-0.0507100308173864,-102.8513568589136,-72.56969194535513,1.9710720103882065
-2.57,2.72,-9.12,-0.1003582665452743,-0.0090244767069185,-0.0507100308173864,-102.8513568589136,-72.56969194535513,1.9710720103882065
-2.57,1.67,-8.96,-0.9670894039874504,-0.2524387099985782,0.3898345732015383,-102.7962397901978,-72.59812617311991,2.578527672575933
-2.57,1.67,-8.96,-0.9670894039874504,-0.2524387099985782,0.3898345732015383,-102.7962397901978,-72.59812617311991,2.578527672575933
-2.58,2.94,-9.25,0.0551288991717862,-0.1558169166428462,-0.2350222657615184,-102.77787481244587,-72.29982443844477,2.47537018520181
-2.58,2.94,-9.25,0.0551288991717862,-0.1558169166428462,-0.2350222657615184,-102.77787481244587,-72.29982443844477,2.47537018520181
-3.07,3.08,-7.34,0.3326106418114931,0.8726586538386056,1.3263942824620951,-103.18276029513798,-71.47886911000296,2.589989743099661
-3.07,3.08,-7.34,0.3326106418114931,0.8726586538386056,1.3263942824620951,-103.18276029513798,-71.47886911000296,2.589989743099661
-2.87,3.35,-6.24,0.7645353012955,1.4476186697465376,2.3422755479729416,-104.8019451062217,-70.45156998938438,0.93966131468631
-2.87,3.35,-6.24,0.7645353012955,1.4476186697465376,2.3422755479729416,-104.8019451062217,-70.45156998938438,0.93966131468631
-2.02,1.78,-6.96,-0.6957606884614047,0.5514673473970335,2.3970480654054978,-106.47054675108936,-69.70978337535752,-2.1659094260652934
-2.02,1.78,-6.96,-0.6957606884614047,0.5514673473970335,2.3970480654054978,-106.47054675108936,-69.70978337535752,-2.1659094260652934
-0.83,2.97,-7.63,0.1110883985686728,0.6522400697197124,1.6036662587534367,-108.60323493215937,-68.08393507833873,-9.154139652218912
-0.83,2.97,-7.63,0.1110883985686728,0.6522400697197124,1.6036662587534367,-108.60323493215937,-68.08393507833873,-9.154139652218912
0.98,2.41,-8.14,-0.1869098815007406,-0.3447572225141826,1.2700050411346189,-110.32991436609802,-66.2407734880853,-14.373061379793723
0.98,2.41,-8.14,-0.1869098815007406,-0.3447572225141826,1.2700050411346189,-110.32991436609802,-66.2407734880853,-14.373061379793723
3.17,2.64,-9.13,0.0360283771697662,-0.8429426367928703,-0.1765133096486622,-112.13586614925856,-63.04051613304179,-21.34558610673021
3.17,2.64,-9.13,0.0360283771697662,-0.8429426367928703,-0.1765133096486622,-112.13586614925856,-63.04051613304179,-21.34558610673021
5.28,4.74,-11.53,1.1442959161702482,-0.2979175776941023,-3.679963065300603,-112.56817591001142,-60.675981620918215,-26.26455976697084
5.28,4.74,-11.53,1.1442959161702482,-0.2979175776941023,-3.679963065300603,-112.56817591001142,-60.675981620918215,-26.26455976697084
5.85,3.84,-11.26,0.4935105675441647,-0.3652034842771001,-3.436415118574104,-113.16922611259191,-58.62858825496232,-29.17994585204534
5.85,3.84,-11.26,0.4935105675441647,-0.3652034842771001,-3.436415118574104,-113.16922611259191,-58.62858825496232,-29.17994585204534
5.3,3.5,-10.24,0.4635515289087232,-0.0443277652920122,-2.234145448360985,-113.3150238515142,-58.14290959834098,-29.74868303296809
5.3,3.5,-10.24,0.4635515289087232,-0.0443277652920122,-2.234145448360985,-113.3150238515142,-58.14290959834098,-29.74868303296809
4.75,2.52,-10.29,-0.4206611901402926,-0.0058052515557551,-1.7959363695196924,-113.16922611259191,-58.54975129457163,-29.345750980318734
4.75,2.52,-10.29,-0.4206611901402926,-0.0058052515557551,-1.7959363695196924,-113.16922611259191,-58.54975129457163,-29.345750980318734
3.84,2.18,-9.86,-0.6402609943541666,0.2583310850574354,-0.9748587492243692,-112.83702493862924,-59.78840237588516,-27.737669605365127
3.84,2.18,-9.86,-0.6402609943541666,0.2583310850574354,-0.9748587492243692,-112.83702493862924,-59.78840237588516,-27.737669605365127
3.21,2.65,-9.35,-0.0401147760353678,0.6769179998526863,-0.4055619458136537,-112.83702493862924,-60.74237960510433,-25.93519704664329
3.21,2.65,-9.35,-0.0401147760353678,0.6769179998526863,-0.4055619458136537,-112.83702493862924,-60.74237960510433,-25.93519704664329
2.97,1.68,-9.51,-0.5028644302307277,0.2283006711219862,-0.281878444147539,-112.69214234363412,-62.34280299111539,-22.82836708787642
2.97,1.68,-9.51,-0.5028644302307277,0.2283006711219862,-0.281878444147539,-112.69214234363412,-62.34280299111539,-22.82836708787642
2.72,1.58,-8.7,-0.1091080601389741,-0.017734494892471,0.5561051015140936,-112.69214234363412,-63.36341626073271,-20.378490735265764
2.72,1.58,-8.7,-0.1091080601389741,-0.017734494892471,0.5561051015140936,-112.69214234363412,-63.36341626073271,-20.378490735265764
2.87,2.1,-9.59,0.4707937894077439,-0.1469749036422376,-0.4095993893578385,-112.9614299666055,-64.07848807925822,-17.636430239406273
2.87,2.1,-9.59,0.4707937894077439,-0.1469749036422376,-0.4095993893578385,-112.9614299666055,-64.07848807925822,-17.636430239406273
2.17,1.81,-8.96,0.3728687613049009,-0.096661212522346,0.4195191552297661,-113.06525678920109,-64.7285179210035,-15.135679738336451
2.17,1.81,-8.96,0.3728687613049009,-0.096661212522346,0.4195191552297661,-113.06525678920109,-64.7285179210035,-15.135679738336451
1.99,2.11,-10.33,0.6618868287726949,-0.2104871800640885,-0.9002963888134747,-112.9614299666055,-65.68069497759913,-11.662626087112969
1.99,2.11,-10.33,0.6618868287726949,-0.2104871800640885,-0.9002963888134747,-112.9614299666055,-65.68069497759913,-11.662626087112969
0.99,0.78,-9.28,-0.3943242824352645,-0.4145171046985511,0.4589452587175576,-112.60947570576612,-66.58316211676657,-8.326672787534774
0.99,0.78,-9.28,-0.3943242824352645,-0.4145171046985511,0.4589452587175576,-112.60947570576612,-66.58316211676657,-8.326672787534774
0.19,1.59,-9.21,0.3614887907021439,0.018145848613558,0.4654885849309487,-112.09482025042286,-67.35256585531921,-4.63075925768904
0.19,1.59,-9.21,0.3614887907021439,0.018145848613558,0.4654885849309487,-112.09482025042286,-67.35256585531921,-4.63075925768904
-0.48,1.24,-8.78,0.1087679430846118,0.1180473329450467,0.9279882561479608,-111.68555504305652,-67.79377236455424,-1.7533192633889718
-0.48,1.24,-8.78,0.1087679430846118,0.1180473329450467,0.9279882561479608,-111.68555504305652,-67.79377236455424,-1.7533192633889718
-0.58,1.94,-9.88,1.0011982004447135,-0.2127110096479609,-0.2266324235043271,-110.81284195033062,-68.41615870880295,1.9023072532875973
-0.58,1.94,-9.88,1.0011982004447135,-0.2127110096479609,-0.2266324235043271,-110.81284195033062,-68.41615870880295,1.9023072532875973
-1.35,0.21,-9.42,-0.50009112725132,-0.5019352732084027,0.3144969330739453,-109.67062310358136,-69.1660709028975,5.215716631990905
-1.35,0.21,-9.42,-0.50009112725132,-0.5019352732084027,0.3144969330739453,-109.67062310358136,-69.1660709028975,5.215716631990905
-2.39,0.48,-8.59,-0.2843137274861731,0.206675881263573,0.8843716595497959,-107.9382233400721,-70.17125455372687,8.567970434690707
-2.39,0.48,-8.59,-0.2843137274861731,0.206675881263573,0.8843716595497959,-107.9382233400721,-70.17125455372687,8.567970434690707
-1.87,-0.36,-11.55,-0.6031790486192737,-1.5947495016933284,-1.7744531021295928,-107.25914966329704,-70.38144582384912,10.64941932234672
-1.87,-0.36,-11.55,-0.6031790486192737,-1.5947495016933284,-1.7744531021295928,-107.25914966329704,-70.38144582384912,10.64941932234672
-2.83,0.27,-8.26,-0.1976147455874871,-0.0721056502917089,1.0736580048403574,-106.24110823664704,-70.39546823502994,13.461068017168213
-2.83,0.27,-8.26,-0.1976147455874871,-0.0721056502917089,1.0736580048403574,-106.24110823664704,-70.39546823502994,13.461068017168213
-3.35,0.14,-8.94,-0.2932535506541131,-0.101785898858449,0.2636241703261497,-105.67017110275856,-70.4375427333033,15.008530771963963
-3.35,0.14,-8.94,-0.2932535506541131,-0.101785898858449,0.2636241703261497,-105.67017110275856,-70.4375427333033,15.008530771963963
-3.19,0.26,-10.29,0.1485071914900521,-0.996644303315598,-0.922396823774438,-105.15951761656832,-70.21327111376787,16.825133117850115
-3.19,0.26,-10.29,0.1485071914900521,-0.996644303315598,-0.922396823774438,-105.15951761656832,-70.21327111376787,16.825133117850115
-4.18,-0.62,-8.07,-1.05431734357198,0.1665662717166861,0.7599726753592151,-104.87710290187228,-69.73771440110959,18.402183827223173
-4.18,-0.62,-8.07,-1.05431734357198,0.1665662717166861,0.7599726753592151,-104.87710290187228,-69.73771440110959,18.402183827223173
-4.27,0.42,-7.99,-0.1511464145319793,0.2883693655034602,0.7433504975884571,-105.0276111512958,-68.74903841235427,19.36635943259494
-4.27,0.42,-7.99,-0.1511464145319793,0.2883693655034602,0.7433504975884571,-105.0276111512958,-68.74903841235427,19.36635943259494
-4.23,0.51,-8.37,-0.0619003217906584,-0.0384463703887667,0.4149201153213422,-105.4428449688075,-67.89043829465147,19.796614956633128
-4.23,0.51,-8.37,-0.0619003217906584,-0.0384463703887667,0.4149201153213422,-105.4428449688075,-67.89043829465147,19.796614956633128
-4.43,-0.09,-8.92,-0.7239112535350046,-0.5098575082113626,-0.1138035087024054,-106.33663306993483,-66.48722575330268,20.14567756040377
-4.43,-0.09,-8.92,-0.7239112535350046,-0.5098575082113626,-0.1138035087024054,-106.33663306993483,-66.48722575330268,20.14567756040377
-4.66,0.33,-8.03,-0.6329265010919719,0.0887007367154171,0.5385899967673051,-107.39452579488425,-65.06800105005402,20.11076285425295
-4.66,0.33,-8.03,-0.6329265010919719,0.0887007367154171,0.5385899967673051,-107.39452579488425,-65.06800105005402,20.11076285425295
-4.53,0.8,-8.31,-0.3745598581459245,-0.1551748725809486,0.3170438084035752,-109.3132704221292,-62.63767369990508,19.76171895398025
-4.53,0.8,-8.31,-0.3745598581459245,-0.1551748725809486,0.3170438084035752,-109.3132704221292,-62.63767369990508,19.76171895398025
-4.6,1.94,-7.99,0.3883010411402577,0.4007380895548872,0.4017400437574974,-110.8936168375535,-60.68925941563211,19.36635943259494
-4.6,1.94,-7.99,0.3883010411402577,0.4007380895548872,0.4017400437574974,-110.8936168375535,-60.68925941563211,19.36635943259494
-4.23,0.18,-8.57,-1.2311690015065748,-1.001695414903644,0.3805676119932889,-113.1900371366138,-58.15602096155954,18.564721836939235
-4.23,0.18,-8.57,-1.2311690015065748,-1.001695414903644,0.3805676119932889,-113.1900371366138,-58.15602096155954,18.564721836939235
-4.88,4.01,-5.43,1.0279168763664903,2.7557675403573203,2.013798650282496,-116.20613978613412,-54.89039623695746,16.50085429879803
-4.88,4.01,-5.43,1.0279168763664903,2.7557675403573203,2.013798650282496,-116.20613978613412,-54.89039623695746,16.50085429879803
-2.93,3.08,-10.53,1.1254242255674196,-1.264335771161114,-1.4222001357115115,-119.06117764081604,-52.85947382737936,14.188281840563285
-2.93,3.08,-10.53,1.1254242255674196,-1.264335771161114,-1.4222001357115115,-119.06117764081604,-52.85947382737936,14.188281840563285
-3.46,3.73,-8.15,0.902358056238158,0.6195826211664113,0.2615534937361357,-121.08017234591216,-50.75749078075491,12.549930441445206
-3.46,3.73,-8.15,0.902358056238158,0.6195826211664113,0.2615534937361357,-121.08017234591216,-50.75749078075491,12.549930441445206
-3.97,2.63,-6.25,-0.5443811603967182,1.3796272706674686,2.0903958734023167,-122.75621380444773,-49.41676675386262,10.937173775974523
-3.97,2.63,-6.25,-0.5443811603967182,1.3796272706674686,2.0903958734023167,-122.75621380444773,-49.41676675386262,10.937173775974523
-2.48,3.33,-8.2,0.203014287382066,0.3153959266757551,0.6230444657582819,-125.29584795913512,-47.995403677336114,5.938500516393254
-2.48,3.33,-8.2,0.203014287382066,0.3153959266757551,0.6230444657582819,-125.29584795913512,-47.995403677336114,5.938500516393254
-1.72,5.11,-9.96,1.300644989331876,0.3705908034281116,-1.4380414172039568,-126.6838681332996,-46.781534903600594,2.830699387947472
-1.72,5.11,-9.96,1.300644989331876,0.3705908034281116,-1.4380414172039568,-126.6838681332996,-46.781534903600594,2.830699387947472
-2.17,2.57,-7.45,-0.8018284836469401,0.3076144455420162,1.6777666550560983,-128.47409395200597,-45.13852596002858,0.93966131468631
-2.17,2.57,-7.45,-0.8018284836469401,0.3076144455420162,1.6777666550560983,-128.47409395200597,-45.13852596002858,0.93966131468631
-0.86,5.56,-9.63,1.2949019221141431,0.6431906390718991,-1.252266529837602,-129.2975202216285,-43.96211035016289,-2.0742204847835874
-0.86,5.56,-9.63,1.2949019221141431,0.6431906390718991,-1.252266529837602,-129.2975202216285,-43.96211035016289,-2.0742204847835874
-0.37,5.35,-9.01,1.1818635905688062,0.7027692652933659,-0.5880031357735458,-130.54294242265092,-42.69210790112656,-4.68810243496922
-0.37,5.35,-9.01,1.1818635905688062,0.7027692652933659,-0.5880031357735458,-130.54294242265092,-42.69210790112656,-4.68810243496922
-1.3,2.5,-6.69,-0.9501403473509892,0.3735892298214147,2.619594663654161,-130.54294242265092,-42.76593619701882,-6.030298919379606
-1.3,2.5,-6.69,-0.9501403473509892,0.3735892298214147,2.619594663654161,-130.54294242265092,-42.76593619701882,-6.030298919379606
0.0,4.97,-8.94,0.2817331796015692,0.8292394217752581,-0.3843994256914218,-130.54294242265092,-42.138984987119,-10.9717089235085
0.0,4.97,-8.94,0.2817331796015692,0.8292394217752581,-0.3843994256914218,-130.54294242265092,-42.138984987119,-10.9717089235085
1.63,5.13,-10.15,0.7846372858479504,-0.1225359012563234,-1.6548346020295492,-130.92785324394194,-41.51335250906026,-13.51876311679545
1.63,5.13,-10.15,0.7846372858479504,-0.1225359012563234,-1.6548346020295492,-130.92785324394194,-41.51335250906026,-13.51876311679545
1.05,4.35,-8.6,0.2001254183423821,0.3948100945453656,0.1221740303783942,-130.76254599505174,-41.55011839728967,-15.436288478593855
1.05,4.35,-8.6,0.2001254183423821,0.3948100945453656,0.1221740303783942,-130.76254599505174,-41.55011839728967,-15.436288478593855
1.15,3.57,-7.71,-0.0890737435085008,0.2024584523564401,1.2356187643033962,-130.29697555501406,-41.68496498644351,-17.427727524479447
1.15,3.57,-7.71,-0.0890737435085008,0.2024584523564401,1.2356187643033962,-130.29697555501406,-41.68496498644351,-17.427727524479447
2.93,5.21,-9.82,0.7805126950807941,0.1979724666354938,-1.6612620521249202,-129.32429015652528,-41.80760523510253,-20.9608980601766
2.93,5.21,-9.82,0.7805126950807941,0.1979724666354938,-1.6612620521249202,-129.32429015652528,-41.80760523510253,-20.9608980601766
2.04,3.25,-8.15,-0.3781263644691815,-0.033670317272586,0.8065118476032218,-128.63250588646886,-42.4092712076169,-22.477763863075143
2.04,3.25,-8.15,-0.3781263644691815,-0.033670317272586,0.8065118476032218,-128.63250588646886,-42.4092712076169,-22.477763863075143
2.86,4.63,-8.47,0.5650356975693879,0.8024963827062443,-0.2130373312601783,-127.89708982203928,-42.45844069063149,-25.17143953683573
2.86,4.63,-8.47,0.5650356975693879,0.8024963827062443,-0.2130373312601783,-127.89708982203928,-42.45844069063149,-25.17143953683573
4.06,3.31,-9.77,-0.2466803082797614,-0.6717922927099451,-1.2559194999381802,-126.73497195223707,-43.38190073527359,-26.78257750270593
4.06,3.31,-9.77,-0.2466803082797614,-0.6717922927099451,-1.2559194999381802,-126.73497195223707,-43.38190073527359,-26.78257750270593
3.65,3.39,-8.48,0.1442960884597782,-0.0606466835007384,-0.0269912695723046,-125.821937957947,-44.32070338877077,-27.65505415801313
3.65,3.39,-8.48,0.1442960884597782,-0.0606466835007384,-0.0269912695723046,-125.821937957947,-44.32070338877077,-27.65505415801313
3.43,5.31,-7.27,1.7369045301416326,1.6395361312218335,0.4734306236223276,-124.33100356461244,-45.39924946360132,-29.15626451062837
3.43,5.31,-7.27,1.7369045301416326,1.6395361312218335,0.4734306236223276,-124.33100356461244,-45.39924946360132,-29.15626451062837
4.49,1.82,-8.25,-0.5286244849378336,-1.1113712732237353,0.3187413765478713,-121.66531355494112,-47.982860599138895,-30.531925921642927
4.49,1.82,-8.25,-0.5286244849378336,-1.1113712732237353,0.3187413765478713,-121.66531355494112,-47.982860599138895,-30.531925921642927
4.85,4.12,-8.66,0.8958035093652905,0.4327754525936345,-0.8939453797086081,-117.98502779819528,-51.328910831615794,-32.150547625319554
4.85,4.12,-8.66,0.8958035093652905,0.4327754525936345,-0.8939453797086081,-117.98502779819528,-51.328910831615794,-32.150547625319554
4.42,-0.36,-9.43,-2.9132472382518992,-1.4733754360158262,-0.0894631437227833,-115.68754007027454,-53.962642188164594,-32.305608836158264
4.42,-0.36,-9.43,-2.9132472382518992,-1.4733754360158262,-0.0894631437227833,-115.68754007027454,-53.962642188164594,-32.305608836158264
4.88,4.31,-9.14,1.010182581009508,0.9912629283768326,-1.325601747056874,-114.91656280775707,-54.61940153639184,-32.627853710613714
4.88,4.31,-9.14,1.010182581009508,0.9912629283768326,-1.325601747056874,-114.91656280775707,-54.61940153639184,-32.627853710613714
3.75,5.24,-7.31,2.210855048596972,1.9337647225974752,0.5153167290570853,-113.52379683838042,-56.14650176459217,-32.627853710613714
3.75,5.24,-7.31,2.210855048596972,1.9337647225974752,0.5153167290570853,-113.52379683838042,-56.14650176459217,-32.627853710613714
3.82,2.38,-7.16,0.1500456481279362,0.4111431327869289,1.360890849524537,-110.71198928258144,-59.11542551802431,-32.723384506373804
3.82,2.38,-7.16,0.1500456481279362,0.4111431327869289,1.360890849524537,-110.71198928258144,-59.11542551802431,-32.723384506373804
5.8,-0.78,-10.94,-3.342171387967172,-1.094761428949215,-2.09139134415151,-107.41388301314085,-62.59743692135864,-32.52040941662392
5.8,-0.78,-10.94,-3.342171387967172,-1.094761428949215,-2.09139134415151,-107.41388301314085,-62.59743692135864,-32.52040941662392
5.17,1.26,-9.43,-0.95175361645637,-0.3209816670875094,-0.9744694141868172,-107.9771945077934,-62.75843566799939,-31.233335490801053
5.17,1.26,-9.43,-0.95175361645637,-0.3209816670875094,-0.9744694141868172,-107.9771945077934,-62.75843566799939,-31.233335490801053
4.02,1.2,-7.66,-0.5409730665973633,-0.0587936427395214,1.0900054937241084,-107.86033561317936,-63.33648650708331,-30.34191613696452
4.02,1.2,-7.66,-0.5409730665973633,-0.0587936427395214,1.0900054937241084,-107.86033561317936,-63.33648650708331,-30.34191613696452
4.92,1.28,-9.23,-0.8010172060972337,-0.2418182774503615,-0.6975203792459084,-107.23982794355229,-64.05145371860036,-30.294427058078604
4.92,1.28,-9.23,-0.8010172060972337,-0.2418182774503615,-0.6975203792459084,-107.23982794355229,-64.05145371860036,-30.294427058078604
5.22,2.19,-9.43,0.1103700889072262,-0.1539364677230423,-1.1903278579107628,-107.104699496576,-64.63357693133646,-29.487919662093987
5.22,2.19,-9.43,0.1103700889072262,-0.1539364677230423,-1.1903278579107628,-107.104699496576,-64.63357693133646,-29.487919662093987
3.99,0.4,-7.71,-1.123572946440528,-0.6302272892466914,1.2121984527565264,-107.23982794355229,-65.16317122703664,-28.35184823709937
3.99,0.4,-7.71,-1.123572946440528,-0.6302272892466914,1.2121984527565264,-107.23982794355229,-65.16317122703664,-28.35184823709937
4.79,2.54,-8.62,0.6586812948958539,-0.1293918410765642,-0.3545259508049643,-107.53011997485687,-64.79636344196814,-28.505522169511824
4.79,2.54,-8.62,0.6586812948958539,-0.1293918410765642,-0.3545259508049643,-107.53011997485687,-64.79636344196814,-28.505522169511824
5.01,1.6,-9.29,-0.3429980879674186,-0.5186295077175102,-0.8506280645611071,-107.60770074242588,-64.76922217655454,-28.434589251931108
5.01,1.6,-9.29,-0.3429980879674186,-0.5186295077175102,-0.8506280645611071,-107.60770074242588,-64.76922217655454,-28.434589251931108
4.24,2.03,-8.56,0.0445550698118737,0.0239865993088876,0.0409170787693735,-107.7825204980392,-64.6606978473082,-28.35184823709937
4.24,2.03,-8.56,0.0445550698118737,0.0239865993088876,0.0409170787693735,-107.7825204980392,-64.6606978473082,-28.35184823709937
4.33,2.08,-8.96,-0.0334681892463306,0.0414957164945457,-0.3596697857347184,-108.11373745608395,-64.38967098038597,-28.22185710635222
4.33,2.08,-8.96,-0.0334681892463306,0.0414957164945457,-0.3596697857347184,-108.11373745608395,-64.38967098038597,-28.22185710635222
4.06,2.12,-8.94,-0.060564227243231,0.218131967315166,-0.2357775162539095,-108.54434186923864,-64.11904710633912,-27.961985822582488
4.06,2.12,-8.94,-0.060564227243231,0.218131967315166,-0.2357775162539095,-108.54434186923864,-64.11904710633912,-27.961985822582488
3.69,2.54,-8.37,0.370486056876924,0.4551230747637847,0.3314084163527884,-108.93776167014931,-63.82182237007654,-27.784885032921768
3.69,2.54,-8.37,0.370486056876924,0.4551230747637847,0.3314084163527884,-108.93776167014931,-63.82182237007654,-27.784885032921768
3.81,2.17,-8.6,0.0101327109229576,0.2220496384866834,0.1559717188522285,-109.21428447215928,-63.60596021671415,-27.631452438914533
3.81,2.17,-8.6,0.0101327109229576,0.2220496384866834,0.1559717188522285,-109.21428447215928,-63.60596021671415,-27.631452438914533
4.06,2.51,-8.85,0.2907831551740564,0.1851483468899148,-0.242596998970173,-109.5910749517882,-63.30956065668752,-27.51346175010752
4.06,2.51,-8.85,0.2907831551740564,0.1851483468899148,-0.242596998970173,-109.5910749517882,-63.30956065668752,-27.51346175010752
4.02,2.23,-8.96,-0.0008603055150538,0.0813908648444223,-0.2635175649908756,-109.79009253076951,-63.20189622403351,-27.36011828826252
4.02,2.23,-8.96,-0.0008603055150538,0.0813908648444223,-0.2635175649908756,-109.79009253076951,-63.20189622403351,-27.36011828826252
3.66,2.43,-8.45,0.2493999071630525,0.2806800465428853,0.2902421484112629,-110.1495692444103,-62.93300681618901,-27.11251495381608
3.66,2.43,-8.45,0.2493999071630525,0.2806800465428853,0.2902421484112629,-110.1495692444103,-62.93300681618901,-27.11251495381608
3.84,2.59,-8.67,0.3751802278492684,0.2401722927207583,-0.0129302897293026,-110.28980246010522,-62.86584483464826,-27.0182238619502
3.84,2.59,-8.67,0.3751802278492684,0.2401722927207583,-0.0129302897293026,-110.28980246010522,-62.86584483464826,-27.0182238619502
3.9,2.25,-9.05,-0.030169270222663,0.1322640702272626,-0.3006046238264499,-110.16958750511162,-63.00019289675618,-26.97108530932781
3.9,2.25,-9.05,-0.030169270222663,0.1322640702272626,-0.3006046238264499,-110.16958750511162,-63.00019289675618,-26.97108530932781
3.86,2.09,-8.86,-0.1140116988025793,0.0321277225439982,-0.0803752928765302,-110.22967237255024,-62.95987835378689,-26.94751777725
3.86,2.09,-8.86,-0.1140116988025793,0.0321277225439982,-0.0803752928765302,-110.22967237255024,-62.95987835378689,-26.94751777725
3.59,2.55,-8.54,0.2906024449997462,0.3728489846091956,0.2098414756187789,-110.37004645806756,-62.78528219858725,-26.982869511205863
3.59,2.55,-8.54,0.2906024449997462,0.3728489846091956,0.2098414756187789,-110.37004645806756,-62.78528219858725,-26.982869511205863
4.0,2.29,-9.11,-0.0037324226511448,0.0759756196333267,-0.4026797416746444,-110.37004645806756,-62.74501384121864,-27.053580833430228
4.0,2.29,-9.11,-0.0037324226511448,0.0759756196333267,-0.4026797416746444,-110.37004645806756,-62.74501384121864,-27.053580833430228
3.87,2.03,-8.88,-0.1875815141239826,0.0130802166370969,-0.0886439361845994,-110.47046523443146,-62.63767369990508,-27.077153605664893
3.87,2.03,-8.88,-0.1875815141239826,0.0130802166370969,-0.0886439361845994,-110.47046523443146,-62.63767369990508,-27.077153605664893
3.93,2.12,-8.83,-0.0860097096691797,-0.0132146848421823,-0.0878246046441066,-110.7321495345978,-62.32941069730318,-27.14787893324093
3.93,2.12,-8.83,-0.0860097096691797,-0.0132146848421823,-0.0878246046441066,-110.7321495345978,-62.32941069730318,-27.14787893324093
3.88,2.64,-8.72,0.3585569001790352,0.2345224383301541,-0.086723346601941,-110.87341536801527,-62.14201779296097,-27.242195772473625
3.88,2.64,-8.72,0.3585569001790352,0.2345224383301541,-0.086723346601941,-110.87341536801527,-62.14201779296097,-27.242195772473625
3.89,2.28,-8.94,-0.0293246254274447,0.1265209103728637,-0.205204599702391,-110.87341536801527,-62.101886205747824,-27.27756943376897
3.89,2.28,-8.94,-0.0293246254274447,0.1265209103728637,-0.205204599702391,-110.87341536801527,-62.101886205747824,-27.27756943376897
4.11,2.41,-8.99,0.1379180732591876,0.0247397005415639,-0.3668777338927818,-110.91382347990452,-62.03501902225592,-27.324738438026905
4.11,2.41,-8.99,0.1379180732591876,0.0247397005415639,-0.3668777338927818,-110.91382347990452,-62.03501902225592,-27.324738438026905
3.9,2.32,-8.8,0.0671666900791862,0.1060474268240749,-0.0936854781041507,-110.97447448991244,-61.99490997256027,-27.26577791911556
3.9,2.32,-8.8,0.0671666900791862,0.1060474268240749,-0.0936854781041507,-110.97447448991244,-61.99490997256027,-27.26577791911556
3.9,2.15,-9.1,-0.1911335157808449,0.1164493669755659,-0.3221410198639347,-110.91382347990452,-62.04839058120868,-27.301153346475186
3.9,2.15,-9.1,-0.1911335157808449,0.1164493669755659,-0.3221410198639347,-110.91382347990452,-62.04839058120868,-27.301153346475186
4.02,2.48,-8.86,0.2189424150918312,0.1137749255825784,-0.2307560137658271,-110.97447448991244,-61.96817529160685,-27.348324709600163
4.02,2.48,-8.86,0.2189424150918312,0.1137749255825784,-0.2307560137658271,-110.97447448991244,-61.96817529160685,-27.348324709600163
3.84,1.93,-8.78,-0.2729821307642969,-0.0211238353679749,0.0350618721743707,-111.01493444523936,-61.96817529160685,-27.26577791911556
3.84,1.93,-8.78,-0.2729821307642969,-0.0211238353679749,0.0350618721743707,-111.01493444523936,-61.96817529160685,-27.26577791911556
3.88,2.56,-8.86,0.2389514924627717,0.2442956294544962,-0.192891080953629,-110.9542523014697,-62.04839058120868,-27.26577791911556
3.88,2.56,-8.86,0.2389514924627717,0.2442956294544962,-0.192891080953629,-110.9542523014697,-62.04839058120868,-27.26577791911556
3.99,2.43,-8.87,0.1605685500549353,0.0857414518790693,-0.2167609036875735,-110.8936168375535,-62.08851089054388,-27.253986698732728
3.99,2.43,-8.87,0.1605685500549353,0.0857414518790693,-0.2167609036875735,-110.8936168375535,-62.08851089054388,-27.253986698732728
3.77,2.14,-8.77,-0.1142750351911319,0.0972049793429998,0.0248867433921731,-110.91382347990452,-62.14201779296097,-27.14787893324093
3.77,2.14,-8.77,-0.1142750351911319,0.0972049793429998,0.0248867433921731,-110.91382347990452,-62.14201779296097,-27.14787893324093
3.94,2.53,-9.02,0.1770345502965999,0.1979911944023997,-0.3527967494514836,-111.01493444523936,-62.03501902225592,-27.183245547895737
3.94,2.53,-9.02,0.1770345502965999,0.1979911944023997,-0.3527967494514836,-111.01493444523936,-62.03501902225592,-27.183245547895737
4.06,2.29,-9.15,-0.0262053265605705,0.0233060026734912,-0.462184895502956,-110.97447448991244,-62.06176307865436,-27.15966751179376
4.06,2.29,-9.15,-0.0262053265605705,0.0233060026734912,-0.462184895502956,-110.97447448991244,-62.06176307865436,-27.15966751179376
3.83,2.18,-8.77,-0.050579871287456,0.0555236759809512,-0.0080613456293807,-110.97447448991244,-62.101886205747824,-27.077153605664893
3.83,2.18,-8.77,-0.050579871287456,0.0555236759809512,-0.0080613456293807,-110.97447448991244,-62.101886205747824,-27.077153605664893
3.64,2.32,-8.87,-0.041609487647599,0.2912028501804564,-0.0534904427413955,-111.01493444523936,-62.08851089054388,-27.053580833430228
3.64,2.32,-8.87,-0.041609487647599,0.2912028501804564,-0.0534904427413955,-111.01493444523936,-62.08851089054388,-27.053580833430228
3.84,2.64,-8.86,0.3027279602896336,0.2589605239776522,-0.196154368229946,-111.01493444523936,-62.07513651497276,-27.041794884833607
3.84,2.64,-8.86,0.3027279602896336,0.2589605239776522,-0.196154368229946,-111.01493444523936,-62.07513651497276,-27.041794884833607
