,TIME,ELAPSED_SECONDS,PSTATE,acc_x,acc_y,acc_z,mag_x,mag_y,mag_z,gyr_x,gyr_y,gyr_z,lin_x,lin_y,lin_z,eul_x,eul_y,eul_z,qua_w,qua_x,qua_y,qua_z
0,1037117.0,928.252414,1.0,1.91,1.33,-9.75,2.19,-11.69,35.25,2.94,2.06,0.37,-0.0757307857553112,-0.14270120200666292,-0.21599442225876508,-121.40719542947477,-56.70567847737765,-13.334150842815474,-0.0209,-0.8721,-0.4749,-0.1161
1,1037117.0,928.252414,1.0,1.91,1.33,-9.75,2.19,-11.69,35.25,2.94,2.06,0.37,-0.0757307857553112,-0.14270120200666292,-0.21599442225876508,-121.40719542947477,-56.70567847737765,-13.334150842815474,-0.0209,-0.8721,-0.4749,-0.1161
2,1037152.0,928.288846,1.0,1.87,1.34,-9.6,3.38,-11.25,36.06,-2.25,-0.75,0.0,-0.06033666962875756,-0.11653681863591835,-0.0642809923735328,-121.40719542947477,-56.70567847737765,-13.357225465957494,-0.0211,-0.8721,-0.4749,-0.1163
3,1037152.0,928.288846,1.0,1.87,1.34,-9.6,3.38,-11.25,36.06,-2.25,-0.75,0.0,-0.06033666962875756,-0.11653681863591835,-0.0642809923735328,-121.40719542947477,-56.70567847737765,-13.357225465957494,-0.0211,-0.8721,-0.4749,-0.1163
4,1037189.0,928.296566,1.0,1.87,1.48,-9.63,2.56,-11.25,35.69,0.19,0.44,-0.63,0.039069816114468345,-0.04561170149889948,-0.11406535334802292,-121.40719542947477,-56.67963771453915,-13.380300633180664,-0.0217,-0.8721,-0.4747,-0.1165
5,1037189.0,928.296566,1.0,1.87,1.48,-9.63,2.56,-11.25,35.69,0.19,0.44,-0.63,0.039069816114468345,-0.04561170149889948,-0.11406535334802292,-121.40719542947477,-56.67963771453915,-13.380300633180664,-0.0217,-0.8721,-0.4747,-0.1165
6,1037221.0,928.31216,1.0,1.85,1.32,-9.79,2.56,-11.25,35.69,-0.31,-1.5,-0.06,-0.12128170055575227,-0.09398410940932478,-0.24250209041483475,-121.43061785942284,-56.67963771453915,-13.322613734970494,-0.0208,-0.8722,-0.4747,-0.11599999999999999
7,1037221.0,928.31216,1.0,1.85,1.32,-9.79,2.56,-11.25,35.69,-0.31,-1.5,-0.06,-0.12128170055575227,-0.09398410940932478,-0.24250209041483475,-121.43061785942284,-56.67963771453915,-13.322613734970494,-0.0208,-0.8722,-0.4747,-0.11599999999999999
8,1037258.0,928.351501,1.0,1.64,1.8,-9.39,2.56,-11.69,36.5,-1.44,-1.5,-0.06,0.2382045994696272,0.2882768877636177,0.1132576627027575,-121.45404882910117,-56.65360014298316,-13.322613734970494,-0.0224,-0.8723,-0.4745,-0.11599999999999999
9,1037258.0,928.351501,1.0,1.64,1.8,-9.39,2.56,-11.69,36.5,-1.44,-1.5,-0.06,0.2382045994696272,0.2882768877636177,0.1132576627027575,-121.45404882910117,-56.65360014298316,-13.322613734970494,-0.0224,-0.8723,-0.4745,-0.11599999999999999
10,1037293.0,928.415225,1.0,1.75,1.27,-9.61,3.38,-12.06,36.06,3.38,1.0,0.37,-0.17491851833246128,-0.064521207517514,-0.041839250932085285,-121.45404882910117,-56.67963771453915,-13.288003224878931,-0.0214,-0.8723,-0.4747,-0.1157
11,1037293.0,928.415225,1.0,1.75,1.27,-9.61,3.38,-12.06,36.06,3.38,1.0,0.37,-0.17491851833246128,-0.064521207517514,-0.041839250932085285,-121.45404882910117,-56.67963771453915,-13.288003224878931,-0.0214,-0.8723,-0.4747,-0.1157
12,1037328.0,928.4181050000001,1.0,1.75,1.58,-9.56,3.38,-12.06,36.06,1.75,1.56,0.5,0.08405894136817223,0.09736423830343988,-0.03895583709685546,-121.45404882910117,-56.65360014298316,-13.311076762780564,-0.0218,-0.8723,-0.4745,-0.1159
13,1037328.0,928.4181050000001,1.0,1.75,1.58,-9.56,3.38,-12.06,36.06,1.75,1.56,0.5,0.08405894136817223,0.09736423830343988,-0.03895583709685546,-121.45404882910117,-56.65360014298316,-13.311076762780564,-0.0218,-0.8723,-0.4745,-0.1159
14,1037363.0,928.4656859999999,1.0,1.65,1.25,-9.71,2.19,-11.69,36.06,0.94,-0.06,-1.12,-0.2696997317253532,0.012515148945627108,-0.11787545090968797,-121.43061785942284,-56.67963771453915,-13.299539926123945,-0.0216,-0.8722,-0.4747,-0.1158
15,1037363.0,928.4656859999999,1.0,1.65,1.25,-9.71,2.19,-11.69,36.06,0.94,-0.06,-1.12,-0.2696997317253532,0.012515148945627108,-0.11787545090968797,-121.43061785942284,-56.67963771453915,-13.299539926123945,-0.0216,-0.8722,-0.4747,-0.1158
16,1037398.0,928.507495,1.0,1.87,1.5,-9.59,2.56,-11.69,35.25,-0.81,0.63,-0.06,0.07443666328959943,-0.03993963019864077,-0.07807882830368308,-121.45404882910117,-56.65360014298316,-13.322613734970494,-0.0216,-0.8723,-0.4745,-0.11599999999999999
17,1037398.0,928.507495,1.0,1.87,1.5,-9.59,2.56,-11.69,35.25,-0.81,0.63,-0.06,0.07443666328959943,-0.03993963019864077,-0.07807882830368308,-121.45404882910117,-56.65360014298316,-13.322613734970494,-0.0216,-0.8723,-0.4745,-0.11599999999999999
18,1037432.0,928.559504,1.0,1.81,1.42,-9.53,2.56,-11.69,35.25,-1.06,-0.44,0.37,-0.012058628615346234,-0.038768555556472406,0.0029898881552412604,-121.45404882910117,-56.640582553149535,-13.334150842815474,-0.0217,-0.8723,-0.4744,-0.1161
19,1037432.0,928.559504,1.0,1.81,1.42,-9.53,2.56,-11.69,35.25,-1.06,-0.44,0.37,-0.012058628615346234,-0.038768555556472406,0.0029898881552412604,-121.45404882910117,-56.640582553149535,-13.334150842815474,-0.0217,-0.8723,-0.4744,-0.1161
20,1037465.0,928.56605,1.0,1.8,1.5,-9.74,3.0,-11.69,36.5,0.88,0.63,0.5,-0.0008540145794899423,0.028134439480621217,-0.21117450055770706,-121.47748834883792,-56.62756576019291,-13.345688086437221,-0.0218,-0.8724,-0.4743,-0.1162
21,1037465.0,928.56605,1.0,1.8,1.5,-9.74,3.0,-11.69,36.5,0.88,0.63,0.5,-0.0008540145794899423,0.028134439480621217,-0.21117450055770706,-121.47748834883792,-56.62756576019291,-13.345688086437221,-0.0218,-0.8724,-0.4743,-0.1162
22,1037500.0,928.5813539999999,1.0,1.73,1.56,-9.63,2.56,-11.69,36.5,-1.69,-0.19,-0.06,0.02649709593919466,0.1058399508712322,-0.10049367558613652,-121.47748834883792,-56.61454976379907,-13.380300633180664,-0.0223,-0.8724,-0.4742,-0.1165
23,1037500.0,928.5813539999999,1.0,1.73,1.56,-9.63,2.56,-11.69,36.5,-1.69,-0.19,-0.06,0.02649709593919466,0.1058399508712322,-0.10049367558613652,-121.47748834883792,-56.61454976379907,-13.380300633180664,-0.0223,-0.8724,-0.4742,-0.1165
24,1037537.0,928.618734,1.0,1.78,1.46,-9.48,2.19,-11.69,36.88,2.19,0.69,0.0,0.011352404791256612,0.007833404343992045,0.05112798625405013,-121.47748834883792,-56.61454976379907,-13.368762981498053,-0.0217,-0.8724,-0.4742,-0.1164
25,1037537.0,928.618734,1.0,1.78,1.46,-9.48,2.19,-11.69,36.88,2.19,0.69,0.0,0.011352404791256612,0.007833404343992045,0.05112798625405013,-121.47748834883792,-56.61454976379907,-13.368762981498053,-0.0217,-0.8724,-0.4742,-0.1164
26,1037572.0,928.6684119999999,1.0,1.91,1.25,-9.76,2.19,-11.69,36.88,-2.69,-1.0,-0.37,-0.1422016543828548,-0.18251809012118456,-0.2140618427918728,-121.47748834883792,-56.61454976379907,-13.334150842815474,-0.0208,-0.8724,-0.4742,-0.1161
27,1037572.0,928.6684119999999,1.0,1.91,1.25,-9.76,2.19,-11.69,36.88,-2.69,-1.0,-0.37,-0.1422016543828548,-0.18251809012118456,-0.2140618427918728,-121.47748834883792,-56.61454976379907,-13.334150842815474,-0.0208,-0.8724,-0.4742,-0.1161
28,1037608.0,928.7243890000001,1.0,1.73,1.47,-9.3,3.0,-11.0,36.06,2.06,0.25,0.5,0.039842207656401146,0.03691278171346024,0.2337272464708935,-121.5243930799012,-56.60153456365382,-13.322613734970494,-0.0218,-0.8726,-0.4741,-0.11599999999999999
29,1037608.0,928.7243890000001,1.0,1.73,1.47,-9.3,3.0,-11.0,36.06,2.06,0.25,0.5,0.039842207656401146,0.03691278171346024,0.2337272464708935,-121.5243930799012,-56.60153456365382,-13.322613734970494,-0.0218,-0.8726,-0.4741,-0.11599999999999999
30,1037643.0,928.733233,1.0,1.92,1.42,-9.61,3.38,-11.25,36.06,-3.38,-0.44,0.63,0.0228966659745788,-0.12485396297205965,-0.09480379379298398,-121.5243930799012,-56.57550655085348,-13.357225465957494,-0.0219,-0.8726,-0.4739,-0.1163
31,1037643.0,928.733233,1.0,1.92,1.42,-9.61,3.38,-11.25,36.06,-3.38,-0.44,0.63,0.0228966659745788,-0.12485396297205965,-0.09480379379298398,-121.5243930799012,-56.57550655085348,-13.357225465957494,-0.0219,-0.8726,-0.4739,-0.1163
32,1037676.0,928.7727189999999,1.0,1.96,0.98,-9.75,3.38,-11.25,36.06,-1.44,-1.69,3.94,-0.33871621623581216,-0.3886935850944348,-0.173264259239172,-121.6418052604753,-56.45841982476564,-13.311076762780564,-0.0217,-0.8731,-0.473,-0.1159
33,1037676.0,928.7727189999999,1.0,1.96,0.98,-9.75,3.38,-11.25,36.06,-1.44,-1.69,3.94,-0.33871621623581216,-0.3886935850944348,-0.173264259239172,-121.6418052604753,-56.45841982476564,-13.311076762780564,-0.0217,-0.8731,-0.473,-0.1159
34,1037711.0,928.857094,1.0,2.48,0.61,-9.43,3.0,-11.69,36.5,-13.0,-8.69,10.94,-0.3038019404861543,-1.0895328503478647,0.10262905252829137,-121.92447762133864,-56.18546670575561,-13.253393932396618,-0.0241,-0.8743,-0.4709,-0.1154
35,1037711.0,928.857094,1.0,2.48,0.61,-9.43,3.0,-11.69,36.5,-13.0,-8.69,10.94,-0.3038019404861543,-1.0895328503478647,0.10262905252829137,-121.92447762133864,-56.18546670575561,-13.253393932396618,-0.0241,-0.8743,-0.4709,-0.1154
36,1037748.0,928.8666539999999,1.0,2.95,0.93,-7.64,3.38,-11.25,36.5,-29.87,-25.69,19.12,0.5809542449767833,-1.5476874277117108,1.7317409731844895,-122.6606000192726,-55.39455832418957,-13.091899903813275,-0.0339,-0.8774,-0.4648,-0.114
37,1037748.0,928.8666539999999,1.0,2.95,0.93,-7.64,3.38,-11.25,36.5,-29.87,-25.69,19.12,0.5809542449767833,-1.5476874277117108,1.7317409731844895,-122.6606000192726,-55.39455832418957,-13.091899903813275,-0.0339,-0.8774,-0.4648,-0.114
38,1037785.0,928.869149,1.0,2.66,1.06,-2.53,3.38,-11.25,36.5,-24.44,24.87,15.5,1.6939973491128961,-1.4748976095255937,6.715509430143273,-123.06797364519969,-54.81293529494486,-13.44952940908047,-0.0399,-0.8791,-0.4603,-0.1171
39,1037785.0,928.869149,1.0,2.66,1.06,-2.53,3.38,-11.25,36.5,-24.44,24.87,15.5,1.6939973491128961,-1.4748976095255937,6.715509430143273,-123.06797364519969,-54.81293529494486,-13.44952940908047,-0.0399,-0.8791,-0.4603,-0.1171
40,1037817.0,928.923458,1.0,3.92,2.23,-4.54,3.0,-12.06,34.06,-18.62,149.94,-24.69,2.5133808970077447,-1.4879439678103863,4.1128077809695816,-121.80654521371449,-54.8516623694969,-17.659623057349798,-0.0279,-0.8738,-0.4606,-0.1535
41,1037817.0,928.923458,1.0,3.92,2.23,-4.54,3.0,-12.06,34.06,-18.62,149.94,-24.69,2.5133808970077447,-1.4879439678103863,4.1128077809695816,-121.80654521371449,-54.8516623694969,-17.659623057349798,-0.0279,-0.8738,-0.4606,-0.1535
42,1037854.0,928.9395810000001,1.0,4.88,1.6,-5.34,1.88,-13.19,35.69,-16.44,134.63,-77.94,1.6823234695144549,-2.309649429354913,2.9710587850865875,-117.40908152683936,-57.46226020036727,-22.65303861752037,-0.0153,-0.8545,-0.4807,-0.1964
43,1037854.0,928.9395810000001,1.0,4.88,1.6,-5.34,1.88,-13.19,35.69,-16.44,134.63,-77.94,1.6823234695144549,-2.309649429354913,2.9710587850865875,-117.40908152683936,-57.46226020036727,-22.65303861752037,-0.0153,-0.8545,-0.4807,-0.1964
44,1037891.0,928.977278,1.0,4.84,1.38,-4.48,-1.37,-13.19,35.69,-24.56,134.31,-89.56,1.3492567030207043,-2.4072458553085707,3.659693538347339,-113.56562110150705,-59.82805979528858,-26.19396354392425,-0.0077,-0.8366,-0.4987,-0.2266
45,1037891.0,928.977278,1.0,4.84,1.38,-4.48,-1.37,-13.19,35.69,-24.56,134.31,-89.56,1.3492567030207043,-2.4072458553085707,3.659693538347339,-113.56562110150705,-59.82805979528858,-26.19396354392425,-0.0077,-0.8366,-0.4987,-0.2266
46,1037924.0,929.033016,1.0,4.13,1.35,-5.11,-1.37,-13.19,35.69,-46.81,172.75,-101.94,0.06640558063709022,-1.3719239928578588,3.2412166664963227,-107.27847580775386,-63.05395914548726,-32.436861947325646,0.0002,-0.8053,-0.5229,-0.2793
47,1037924.0,929.033016,1.0,4.13,1.35,-5.11,-1.37,-13.19,35.69,-46.81,172.75,-101.94,0.06640558063709022,-1.3719239928578588,3.2412166664963227,-107.27847580775386,-63.05395914548726,-32.436861947325646,0.0002,-0.8053,-0.5229,-0.2793
48,1037961.0,929.049224,1.0,4.65,0.89,-6.15,-5.88,-14.25,35.69,-74.37,183.56,-72.44,-1.3216000014679576,-1.2787069227483716,2.2663992056407496,-102.50284081699965,-64.67425982878002,-37.931149977697146,0.0065,-0.7799,-0.5349,-0.325
49,1037961.0,929.049224,1.0,4.65,0.89,-6.15,-5.88,-14.25,35.69,-74.37,183.56,-72.44,-1.3216000014679576,-1.2787069227483716,2.2663992056407496,-102.50284081699965,-64.67425982878002,-37.931149977697146,0.0065,-0.7799,-0.5349,-0.325
50,1037998.0,929.088494,1.0,3.93,4.1,-5.53,-10.06,-15.5,34.19,-153.75,170.0,-38.44,0.4612391756023113,0.9383859493021344,1.949011026806968,-97.09416978917605,-64.24077819073915,-46.44464801216442,-0.0026,-0.7495,-0.5317,-0.3943
51,1037998.0,929.088494,1.0,3.93,4.1,-5.53,-10.06,-15.5,34.19,-153.75,170.0,-38.44,0.4612391756023113,0.9383859493021344,1.949011026806968,-97.09416978917605,-64.24077819073915,-46.44464801216442,-0.0026,-0.7495,-0.5317,-0.3943
52,1038034.0,929.1434869999999,1.0,4.05,3.54,-5.08,-10.06,-15.5,34.19,-121.0,163.69,-3.88,-0.3854865398139499,0.8094897114101804,2.462494055662805,-93.72249978101487,-62.79870690317408,-52.578118912593965,-0.0067,-0.7297,-0.521,-0.4429
53,1038034.0,929.1434869999999,1.0,4.05,3.54,-5.08,-10.06,-15.5,34.19,-121.0,163.69,-3.88,-0.3854865398139499,0.8094897114101804,2.462494055662805,-93.72249978101487,-62.79870690317408,-52.578118912593965,-0.0067,-0.7297,-0.521,-0.4429
54,1038069.0,929.150269,1.0,4.81,4.58,-4.06,-14.0,-20.25,30.5,-156.5,178.63,13.19,0.16023544960048158,0.9096938227218984,2.0772980381863224,-89.57832790416415,-59.352689332048705,-61.114626396297396,-0.0106,-0.7045,-0.4951,-0.5084
55,1038069.0,929.150269,1.0,4.81,4.58,-4.06,-14.0,-20.25,30.5,-156.5,178.63,13.19,0.16023544960048158,0.9096938227218984,2.0772980381863224,-89.57832790416415,-59.352689332048705,-61.114626396297396,-0.0106,-0.7045,-0.4951,-0.5084
56,1038104.0,929.2005310000001,1.0,5.74,5.68,-4.96,-17.37,-22.75,25.0,-184.69,199.19,-34.38,-1.260190702758072,1.9835136906679336,0.6257354033154758,-83.1806607941667,-55.87394453787317,-71.25314422862833,-0.0251,-0.6638,-0.4685,-0.5825
57,1038104.0,929.2005310000001,1.0,5.74,5.68,-4.96,-17.37,-22.75,25.0,-184.69,199.19,-34.38,-1.260190702758072,1.9835136906679336,0.6257354033154758,-83.1806607941667,-55.87394453787317,-71.25314422862833,-0.0251,-0.6638,-0.4685,-0.5825
58,1038141.0,929.253233,1.0,4.42,3.87,-1.6,-21.5,-26.19,18.06,-188.75,146.13,-49.94,-0.28216580103535666,0.33975644763749724,3.733903667654573,-78.20357233698766,-53.17961278851925,-78.41045445111573,-0.0488,-0.6307,-0.4476,-0.6321
59,1038141.0,929.253233,1.0,4.42,3.87,-1.6,-21.5,-26.19,18.06,-188.75,146.13,-49.94,-0.28216580103535666,0.33975644763749724,3.733903667654573,-78.20357233698766,-53.17961278851925,-78.41045445111573,-0.0488,-0.6307,-0.4476,-0.6321
60,1038176.0,929.2598320000001,1.0,6.9,0.62,0.81,-21.5,-26.19,18.06,-144.13,143.88,58.25,-0.9191597885320414,-3.8701797312449777,4.077133953159195,-73.86876525500237,-48.296621479022534,-86.4397606253599,-0.0511,-0.6009,-0.4091,-0.6848
61,1038176.0,929.2598320000001,1.0,6.9,0.62,0.81,-21.5,-26.19,18.06,-144.13,143.88,58.25,-0.9191597885320414,-3.8701797312449777,4.077133953159195,-73.86876525500237,-48.296621479022534,-86.4397606253599,-0.0511,-0.6009,-0.4091,-0.6848
62,1038213.0,929.3143380000001,1.0,10.63,5.29,-0.71,-22.37,-29.5,12.19,-244.13,179.25,112.31,-2.2740249417011738,-0.7965634571766356,-1.84149994852023,-70.64807912994407,-41.64818266123672,-94.27697557969387,-0.0444,-0.5782,-0.3555,-0.733
63,1038213.0,929.3143380000001,1.0,10.63,5.29,-0.71,-22.37,-29.5,12.19,-244.13,179.25,112.31,-2.2740249417011738,-0.7965634571766356,-1.84149994852023,-70.64807912994407,-41.64818266123672,-94.27697557969387,-0.0444,-0.5782,-0.3555,-0.733
64,1038249.0,929.37267,1.0,5.25,6.87,4.08,-25.69,-28.75,5.38,-244.19,128.75,10.88,2.8693111358099066,2.107042953260889,0.9334756188086272,-65.65341937322533,-32.2936788968098,-104.3897152607669,-0.0676,-0.5421,-0.2781,-0.7901
65,1038249.0,929.37267,1.0,5.25,6.87,4.08,-25.69,-28.75,5.38,-244.19,128.75,10.88,2.8693111358099066,2.107042953260889,0.9334756188086272,-65.65341937322533,-32.2936788968098,-104.3897152607669,-0.0676,-0.5421,-0.2781,-0.7901
66,1038284.0,929.386302,1.0,5.94,0.83,3.74,-25.69,-28.75,5.38,-102.37,133.31,11.44,0.6305619452603208,-2.828190944727902,3.359648556433493,-61.59428159649024,-29.36944254732168,-109.5910749517882,-0.0766,-0.512,-0.2535,-0.8171
67,1038284.0,929.386302,1.0,5.94,0.83,3.74,-25.69,-28.75,5.38,-102.37,133.31,11.44,0.6305619452603208,-2.828190944727902,3.359648556433493,-61.59428159649024,-29.36944254732168,-109.5910749517882,-0.0766,-0.512,-0.2535,-0.8171
68,1038319.0,929.394517,1.0,10.1,2.63,7.25,-26.0,-26.37,-4.69,-262.94,57.38,207.63,1.2740503865080484,-2.2387711119964275,-2.637388714208864,-58.917918323687886,-20.82107094211026,-116.27122992614628,-0.0653,-0.4918,-0.1807,-0.8493
69,1038319.0,929.394517,1.0,10.1,2.63,7.25,-26.0,-26.37,-4.69,-262.94,57.38,207.63,1.2740503865080484,-2.2387711119964275,-2.637388714208864,-58.917918323687886,-20.82107094211026,-116.27122992614628,-0.0653,-0.4918,-0.1807,-0.8493
70,1038356.0,929.430435,1.0,11.72,8.83,6.56,-26.0,-24.19,-9.19,-246.69,63.69,202.13,-0.827508202681043,6.38146750140604,-4.9226745840735715,-57.24022157573342,-8.487533709607298,-121.73589034408552,-0.0449,-0.479,-0.07400000000000001,-0.8735
71,1038356.0,929.430435,1.0,11.72,8.83,6.56,-26.0,-24.19,-9.19,-246.69,63.69,202.13,-0.827508202681043,6.38146750140604,-4.9226745840735715,-57.24022157573342,-8.487533709607298,-121.73589034408552,-0.0449,-0.479,-0.07400000000000001,-0.8735
72,1038393.0,929.487542,1.0,7.22,4.91,9.19,-28.87,-16.0,-14.69,-115.06,20.56,2.63,3.3637303350080865,3.853218054167528,-1.792083933511183,-56.00369069764568,-4.068855279934243,-123.4780360314948,-0.05,-0.4695,-0.0355,-0.8808
73,1038393.0,929.487542,1.0,7.22,4.91,9.19,-28.87,-16.0,-14.69,-115.06,20.56,2.63,3.3637303350080865,3.853218054167528,-1.792083933511183,-56.00369069764568,-4.068855279934243,-123.4780360314948,-0.05,-0.4695,-0.0355,-0.8808
74,1038426.0,929.546486,1.0,8.1,1.21,11.08,-28.87,-16.0,-14.69,-42.19,50.69,-13.13,4.181271739651648,0.31608515390145164,-3.3180426369600564,-54.07840095968836,-2.6014518395409367,-125.29584795913513,-0.0624,-0.4546,-0.0227,-0.8882
75,1038426.0,929.546486,1.0,8.1,1.21,11.08,-28.87,-16.0,-14.69,-42.19,50.69,-13.13,4.181271739651648,0.31608515390145164,-3.3180426369600564,-54.07840095968836,-2.6014518395409367,-125.29584795913513,-0.0624,-0.4546,-0.0227,-0.8882
76,1038462.0,929.5962460000001,1.0,9.97,-0.04,6.57,-29.56,-12.88,-18.0,-122.06,123.31,-72.75,-1.206095608823574,-1.2736299401747329,-2.003963877265953,-50.16211368688296,-1.0542572154525014,-128.76486449761614,-0.0844,-0.4239,-0.0092,-0.9017
77,1038462.0,929.5962460000001,1.0,9.97,-0.04,6.57,-29.56,-12.88,-18.0,-122.06,123.31,-72.75,-1.206095608823574,-1.2736299401747329,-2.003963877265953,-50.16211368688296,-1.0542572154525014,-128.76486449761614,-0.0844,-0.4239,-0.0092,-0.9017
78,1038499.0,929.60645,1.0,8.44,-1.37,10.1,-27.0,-11.0,-20.5,-141.94,53.06,-89.5,2.044178611768099,-1.8601983787120149,-3.1348142059941235,-46.58184673902731,1.9252287616436876,-130.76254599505174,-0.1302,-0.3954,0.0168,-0.9091
79,1038499.0,929.60645,1.0,8.44,-1.37,10.1,-27.0,-11.0,-20.5,-141.94,53.06,-89.5,2.044178611768099,-1.8601983787120149,-3.1348142059941235,-46.58184673902731,1.9252287616436876,-130.76254599505174,-0.1302,-0.3954,0.0168,-0.9091
80,1038536.0,929.6665109999999,1.0,9.22,-0.65,12.87,-27.0,-11.0,-20.5,-166.25,22.5,-58.75,2.9312922128068286,-0.3760685458813736,-5.760427388255532,-44.96484726352389,5.112479412053579,-130.62518646665285,-0.1621,-0.3824,0.0446,-0.9086
81,1038536.0,929.6665109999999,1.0,9.22,-0.65,12.87,-27.0,-11.0,-20.5,-166.25,22.5,-58.75,2.9312922128068286,-0.3760685458813736,-5.760427388255532,-44.96484726352389,5.112479412053579,-130.62518646665285,-0.1621,-0.3824,0.0446,-0.9086
82,1038571.0,929.703516,1.0,10.66,0.72,13.24,-24.19,-10.88,-24.19,-181.69,35.56,6.44,0.8996021468136913,1.7911743035216598,-7.088142410439732,-42.667502601243356,10.799043117568631,-130.16081866157813,-0.191,-0.3638,0.0941,-0.9069
83,1038571.0,929.703516,1.0,10.66,0.72,13.24,-24.19,-10.88,-24.19,-181.69,35.56,6.44,0.8996021468136913,1.7911743035216598,-7.088142410439732,-42.667502601243356,10.799043117568631,-130.16081866157813,-0.191,-0.3638,0.0941,-0.9069
84,1038606.0,929.7148789999999,1.0,13.2,5.1,12.41,-24.19,-7.19,-24.69,-239.5,52.5,55.44,-5.0355992716201055,6.3523095985738625,-7.180080195641695,-38.74398218156732,19.145524872704485,-129.78141812262746,-0.2059,-0.3317,0.1663,-0.9055
85,1038606.0,929.7148789999999,1.0,13.2,5.1,12.41,-24.19,-7.19,-24.69,-239.5,52.5,55.44,-5.0355992716201055,6.3523095985738625,-7.180080195641695,-38.74398218156732,19.145524872704485,-129.78141812262746,-0.2059,-0.3317,0.1663,-0.9055
86,1038643.0,929.7238789999999,1.0,12.3,8.69,10.04,-22.56,-1.56,-26.75,-179.81,32.19,22.19,-8.695975901400054,9.206495001674456,-3.125022471355462,-36.10640826375515,25.206664604393566,-128.23732310544656,-0.2166,-0.3099,0.2182,-0.8997
87,1038643.0,929.7238789999999,1.0,12.3,8.69,10.04,-22.56,-1.56,-26.75,-179.81,32.19,22.19,-8.695975901400054,9.206495001674456,-3.125022471355462,-36.10640826375515,25.206664604393566,-128.23732310544656,-0.2166,-0.3099,0.2182,-0.8997
88,1038678.0,929.7720130000001,1.0,9.9,2.74,6.42,-22.56,-1.56,-26.75,27.56,18.12,-43.25,-5.629477165914,2.828928273871634,-0.5393710544799522,-35.504295540348124,25.018825462277388,-128.0015563372832,-0.2287,-0.3049,0.2166,-0.8988
89,1038678.0,929.7720130000001,1.0,9.9,2.74,6.42,-22.56,-1.56,-26.75,27.56,18.12,-43.25,-5.629477165914,2.828928273871634,-0.5393710544799522,-35.504295540348124,25.018825462277388,-128.0015563372832,-0.2287,-0.3049,0.2166,-0.8988
90,1038712.0,929.813255,1.0,8.03,-5.14,6.23,-20.69,3.25,-28.06,137.19,-13.81,-41.0,0.19651823521923384,-3.733328344750252,-0.9514650790234018,-36.914862771096224,20.84437327920369,-128.89754271482937,-0.2303,-0.3166,0.1809,-0.9022
91,1038712.0,929.813255,1.0,8.03,-5.14,6.23,-20.69,3.25,-28.06,137.19,-13.81,-41.0,0.19651823521923384,-3.733328344750252,-0.9514650790234018,-36.914862771096224,20.84437327920369,-128.89754271482937,-0.2303,-0.3166,0.1809,-0.9022
92,1038749.0,929.8286609999999,1.0,8.43,-1.66,5.61,-21.06,-0.06,-27.37,-38.69,-5.69,3.25,-2.0898836372303515,-1.3351836630348803,-0.1503711895326223,-37.72522554558885,19.95948754584176,-128.79137449285287,-0.2286,-0.3233,0.1733,-0.9018
93,1038749.0,929.8286609999999,1.0,8.43,-1.66,5.61,-21.06,-0.06,-27.37,-38.69,-5.69,3.25,-2.0898836372303515,-1.3351836630348803,-0.1503711895326223,-37.72522554558885,19.95948754584176,-128.79137449285287,-0.2286,-0.3233,0.1733,-0.9018
94,1038784.0,929.8765380000001,1.0,7.55,0.59,6.12,-21.06,-0.06,-27.37,-53.94,-18.25,1.06,-2.470979148024118,1.2384060222465658,0.4703974019768804,-37.640469908070976,21.602179804976906,-127.94929869917114,-0.2309,-0.3226,0.1874,-0.8986
95,1038784.0,929.8765380000001,1.0,7.55,0.59,6.12,-21.06,-0.06,-27.37,-53.94,-18.25,1.06,-2.470979148024118,1.2384060222465658,0.4703974019768804,-37.640469908070976,21.602179804976906,-127.94929869917114,-0.2309,-0.3226,0.1874,-0.8986
96,1038819.0,929.9150179999999,1.0,6.62,-0.75,6.49,-21.37,-1.06,-27.0,2.5,-26.25,-31.19,-0.768793215783297,0.6486522056419437,0.5602881583088912,-38.64682184617822,21.882225322200526,-126.76054091134182,-0.235,-0.3309,0.1898,-0.894
97,1038819.0,929.9150179999999,1.0,6.62,-0.75,6.49,-21.37,-1.06,-27.0,2.5,-26.25,-31.19,-0.768793215783297,0.6486522056419437,0.5602881583088912,-38.64682184617822,21.882225322200526,-126.76054091134182,-0.235,-0.3309,0.1898,-0.894
98,1038854.0,929.965547,1.0,6.07,-0.85,7.45,-21.37,-0.37,-26.69,-21.94,-28.75,-27.62,0.2902167371361887,1.2518374667084644,0.2453437502017568,-39.54666937259589,22.057320868979353,-125.67114640173416,-0.2395,-0.3383,0.1913,-0.8897
99,1038854.0,929.965547,1.0,6.07,-0.85,7.45,-21.37,-0.37,-26.69,-21.94,-28.75,-27.62,0.2902167371361887,1.2518374667084644,0.2453437502017568,-39.54666937259589,22.057320868979353,-125.67114640173416,-0.2395,-0.3383,0.1913,-0.8897
100,1038891.0,929.9722849999999,1.0,5.54,-1.31,7.43,-22.19,-0.69,-25.87,9.5,-13.69,-29.56,1.0533960383731906,1.0608522684963266,0.5666527461710871,-40.510130890629796,22.150726459273766,-124.40467458524144,-0.2463,-0.3462,0.1921,-0.8846
101,1038891.0,929.9722849999999,1.0,5.54,-1.31,7.43,-22.19,-0.69,-25.87,9.5,-13.69,-29.56,1.0533960383731906,1.0608522684963266,0.5666527461710871,-40.510130890629796,22.150726459273766,-124.40467458524144,-0.2463,-0.3462,0.1921,-0.8846
102,1038925.0,930.031588,1.0,5.94,-1.93,7.27,-22.19,-0.69,-25.87,7.13,-14.25,1.37,1.175160184819371,0.34364836096304696,0.3007410826989965,-41.145938594336435,21.847212431989455,-124.08607855408228,-0.2457,-0.3514,0.1895,-0.8833
103,1038925.0,930.031588,1.0,5.94,-1.93,7.27,-22.19,-0.69,-25.87,7.13,-14.25,1.37,1.175160184819371,0.34364836096304696,0.3007410826989965,-41.145938594336435,21.847212431989455,-124.08607855408228,-0.2457,-0.3514,0.1895,-0.8833
104,1038962.0,930.047134,1.0,6.47,-1.3,6.89,-23.37,-0.69,-26.25,-3.44,-1.88,1.37,0.2857266858266592,0.5396705239860508,0.2856145528153231,-41.26836056402613,21.975603150496873,-124.1105266335135,-0.243,-0.3524,0.1906,-0.8834
105,1038962.0,930.047134,1.0,6.47,-1.3,6.89,-23.37,-0.69,-26.25,-3.44,-1.88,1.37,0.2857266858266592,0.5396705239860508,0.2856145528153231,-41.26836056402613,21.975603150496873,-124.1105266335135,-0.243,-0.3524,0.1906,-0.8834
106,1038997.0,930.1287699999999,1.0,7.13,-1.24,6.59,-23.37,-1.0,-26.25,0.56,5.88,6.38,-0.3601758122581721,0.2391397217640613,0.028322659511813345,-41.12146009512062,21.90556839778225,-124.42925156343009,-0.2405,-0.3512,0.19,-0.8847
107,1038997.0,930.1287699999999,1.0,7.13,-1.24,6.59,-23.37,-1.0,-26.25,0.56,5.88,6.38,-0.3601758122581721,0.2391397217640613,0.028322659511813345,-41.12146009512062,21.90556839778225,-124.42925156343009,-0.2405,-0.3512,0.19,-0.8847
108,1039032.0,930.1346,1.0,7.35,-1.64,6.31,-23.37,-1.0,-26.25,11.25,-1.44,9.81,-0.443110858700564,-0.29150574377456673,-0.0038992796401622334,-41.096983557102725,21.788862201095252,-124.67557399344672,-0.2377,-0.35100000000000003,0.18899999999999997,-0.8857
109,1039032.0,930.1346,1.0,7.35,-1.64,6.31,-23.37,-1.0,-26.25,11.25,-1.44,9.81,-0.443110858700564,-0.29150574377456673,-0.0038992796401622334,-41.096983557102725,21.788862201095252,-124.67557399344672,-0.2377,-0.35100000000000003,0.18899999999999997,-0.8857
110,1039067.0,930.172245,1.0,7.38,-2.21,6.11,-23.75,0.06,-25.87,4.81,-0.31,4.13,-0.2684325101231607,-0.8524096889824694,0.0147175191442539,-41.158178579890034,21.695513718287586,-124.9229107357918,-0.2339,-0.3515,0.1882,-0.8867
111,1039067.0,930.172245,1.0,7.38,-2.21,6.11,-23.75,0.06,-25.87,4.81,-0.31,4.13,-0.2684325101231607,-0.8524096889824694,0.0147175191442539,-41.158178579890034,21.695513718287586,-124.9229107357918,-0.2339,-0.3515,0.1882,-0.8867
112,1039101.0,930.226801,1.0,7.73,-0.66,6.14,-22.25,0.06,-27.87,-29.0,-9.75,14.69,-1.3789150548787272,0.4648924453514531,0.020406170742322868,-41.0113310955595,22.617979384064764,-124.6508963314865,-0.2335,-0.3503,0.1961,-0.8856
113,1039101.0,930.226801,1.0,7.73,-0.66,6.14,-22.25,0.06,-27.87,-29.0,-9.75,14.69,-1.3789150548787272,0.4648924453514531,0.020406170742322868,-41.0113310955595,22.617979384064764,-124.6508963314865,-0.2335,-0.3503,0.1961,-0.8856
114,1039138.0,930.245501,1.0,7.16,-0.83,6.29,-22.25,0.06,-27.87,7.06,-9.88,3.5,-0.8021663393995564,0.62631331545566,0.2944020640588203,-41.35408524581363,22.79329707445838,-124.5030425986932,-0.2303,-0.3531,0.1976,-0.885
115,1039138.0,930.245501,1.0,7.16,-0.83,6.29,-22.25,0.06,-27.87,7.06,-9.88,3.5,-0.8021663393995564,0.62631331545566,0.2944020640588203,-41.35408524581363,22.79329707445838,-124.5030425986932,-0.2303,-0.3531,0.1976,-0.885
116,1039171.0,930.293482,1.0,6.86,-1.96,6.14,-22.56,-0.69,-26.75,-1.69,-5.69,-0.75,-0.03585005918512263,-0.30019156915711404,0.3987065586806686,-41.586888761097505,22.629665556706637,-124.45383854948406,-0.2294,-0.355,0.1962,-0.8848
117,1039171.0,930.293482,1.0,6.86,-1.96,6.14,-22.56,-0.69,-26.75,-1.69,-5.69,-0.75,-0.03585005918512263,-0.30019156915711404,0.3987065586806686,-41.586888761097505,22.629665556706637,-124.45383854948406,-0.2294,-0.355,0.1962,-0.8848
118,1039208.0,930.358858,1.0,7.1,-1.0,6.53,-22.56,0.5,-25.06,-23.69,-8.44,-1.69,-0.4937884279136486,0.7161658990944865,0.1477587906824045,-41.73401508063692,23.284475807440252,-123.96398525409832,-0.2307,-0.3562,0.2018,-0.8828
119,1039208.0,930.358858,1.0,7.1,-1.0,6.53,-22.56,0.5,-25.06,-23.69,-8.44,-1.69,-0.4937884279136486,0.7161658990944865,0.1477587906824045,-41.73401508063692,23.284475807440252,-123.96398525409832,-0.2307,-0.3562,0.2018,-0.8828
120,1039243.0,930.366981,1.0,6.78,-1.78,6.59,-23.0,0.5,-25.87,1.19,-4.5,-10.0,0.2113145158594983,0.2025656186060225,0.19003867658956075,-41.91802433278389,23.30787601995589,-123.6719537539127,-0.2323,-0.3577,0.20199999999999999,-0.8816
121,1039243.0,930.366981,1.0,6.78,-1.78,6.59,-23.0,0.5,-25.87,1.19,-4.5,-10.0,0.2113145158594983,0.2025656186060225,0.19003867658956075,-41.91802433278389,23.30787601995589,-123.6719537539127,-0.2323,-0.3577,0.20199999999999999,-0.8816
122,1039278.0,930.369703,1.0,6.89,-1.91,6.56,-23.0,0.5,-25.87,-4.38,-3.5,3.81,0.2114445453268164,0.07840060860383002,0.10598277816303536,-42.028484200807156,23.436594836002673,-123.52645816564731,-0.2322,-0.3586,0.2031,-0.8809999999999999
123,1039278.0,930.369703,1.0,6.89,-1.91,6.56,-23.0,0.5,-25.87,-4.38,-3.5,3.81,0.2114445453268164,0.07840060860383002,0.10598277816303536,-42.028484200807156,23.436594836002673,-123.52645816564731,-0.2322,-0.3586,0.2031,-0.8809999999999999
124,1039312.0,930.4055099999999,1.0,7.49,-1.32,6.14,-22.69,0.5,-25.5,-0.25,-0.56,5.94,-0.7474940539039169,0.22494182829551726,0.0633059224637158,-41.979385883293695,23.670706029265663,-123.57491843142247,-0.2302,-0.3582,0.2051,-0.8812
125,1039312.0,930.4055099999999,1.0,7.49,-1.32,6.14,-22.69,0.5,-25.5,-0.25,-0.56,5.94,-0.7474940539039169,0.22494182829551726,0.0633059224637158,-41.979385883293695,23.670706029265663,-123.57491843142247,-0.2302,-0.3582,0.2051,-0.8812
126,1039349.0,930.4645519999999,1.0,7.34,-2.12,5.95,-23.37,0.5,-25.5,6.56,2.75,-1.88,-0.31982729060370596,-0.5080166897723422,0.14165493807173135,-41.96711256530092,23.448298031292186,-123.79346416819727,-0.2286,-0.3581,0.2032,-0.8821
127,1039349.0,930.4645519999999,1.0,7.34,-2.12,5.95,-23.37,0.5,-25.5,6.56,2.75,-1.88,-0.31982729060370596,-0.5080166897723422,0.14165493807173135,-41.96711256530092,23.448298031292186,-123.79346416819727,-0.2286,-0.3581,0.2032,-0.8821
128,1039384.0,930.518357,1.0,7.3,-1.04,6.27,-23.37,0.5,-25.5,-14.38,-3.19,7.38,-0.7382937931274771,0.6003144962563124,0.17446204602952342,-41.89348323735908,23.82293200606416,-123.69623657185858,-0.2284,-0.3575,0.2064,-0.8817
129,1039384.0,930.518357,1.0,7.3,-1.04,6.27,-23.37,0.5,-25.5,-14.38,-3.19,7.38,-0.7382937931274771,0.6003144962563124,0.17446204602952342,-41.89348323735908,23.82293200606416,-123.69623657185858,-0.2284,-0.3575,0.2064,-0.8817
130,1039417.0,930.5333820000001,1.0,7.22,-0.72,6.35,-24.19,0.75,-26.25,0.12,-3.81,2.06,-0.8129060416214848,0.9606188225432704,0.2470634375345053,-42.01620886419129,23.940057930305638,-123.69623657185858,-0.2263,-0.3585,0.2074,-0.8817
131,1039417.0,930.5333820000001,1.0,7.22,-0.72,6.35,-24.19,0.75,-26.25,0.12,-3.81,2.06,-0.8129060416214848,0.9606188225432704,0.2470634375345053,-42.01620886419129,23.940057930305638,-123.69623657185858,-0.2263,-0.3585,0.2074,-0.8817
132,1039454.0,930.571357,1.0,6.93,-1.93,6.35,-24.19,1.19,-25.87,6.06,1.5,-4.38,0.05653296948108116,0.009037753229511836,0.21138958965270227,-42.12670509670736,23.588755762396122,-123.81779521129648,-0.2253,-0.3594,0.2044,-0.8822
133,1039454.0,930.571357,1.0,6.93,-1.93,6.35,-24.19,1.19,-25.87,6.06,1.5,-4.38,0.05653296948108116,0.009037753229511836,0.21138958965270227,-42.12670509670736,23.588755762396122,-123.81779521129648,-0.2253,-0.3594,0.2044,-0.8822
134,1039489.0,930.57804,1.0,6.87,-1.63,6.47,-23.0,1.19,-25.87,-6.25,-1.44,3.88,-0.014283783545673556,0.3567576517470744,0.2365287911830709,-42.08986846540722,23.76437852052494,-123.76914279530571,-0.2252,-0.3591,0.2059,-0.882
135,1039489.0,930.57804,1.0,6.87,-1.63,6.47,-23.0,1.19,-25.87,-6.25,-1.44,3.88,-0.014283783545673556,0.3567576517470744,0.2365287911830709,-42.08986846540722,23.76437852052494,-123.76914279530571,-0.2252,-0.3591,0.2059,-0.882
136,1039523.0,930.6318140000001,1.0,7.26,-0.9,6.46,-23.0,1.19,-25.87,4.06,2.25,5.44,-0.6871334647434659,0.8667695301652487,0.1099619992851828,-42.028484200807156,23.82293200606416,-123.91521633901593,-0.2234,-0.3586,0.2064,-0.8826
137,1039523.0,930.6318140000001,1.0,7.26,-0.9,6.46,-23.0,1.19,-25.87,4.06,2.25,5.44,-0.6871334647434659,0.8667695301652487,0.1099619992851828,-42.028484200807156,23.82293200606416,-123.91521633901593,-0.2234,-0.3586,0.2064,-0.8826
138,1039560.0,930.6937449999999,1.0,7.31,-1.6,6.16,-23.0,1.19,-25.5,5.81,0.44,-1.63,-0.4967283801953316,0.08335112155161017,0.12739313251039694,-42.040760042586655,23.483409106034056,-124.1105266335135,-0.2224,-0.3587,0.2035,-0.8834
139,1039560.0,930.6937449999999,1.0,7.31,-1.6,6.16,-23.0,1.19,-25.5,5.81,0.44,-1.63,-0.4967283801953316,0.08335112155161017,0.12739313251039694,-42.040760042586655,23.483409106034056,-124.1105266335135,-0.2224,-0.3587,0.2035,-0.8834
140,1039595.0,930.70755,1.0,7.12,-1.67,6.33,-24.19,0.75,-25.87,6.25,1.5,1.69,-0.2376987812057737,0.14099607257518476,0.13836062716202768,-42.11442571308733,23.2493773342699,-124.30646648477429,-0.2205,-0.3593,0.2015,-0.8842
141,1039595.0,930.70755,1.0,7.12,-1.67,6.33,-24.19,0.75,-25.87,6.25,1.5,1.69,-0.2376987812057737,0.14099607257518476,0.13836062716202768,-42.11442571308733,23.2493773342699,-124.30646648477429,-0.2205,-0.3593,0.2015,-0.8842
142,1039630.0,930.713051,1.0,7.32,-1.32,6.1,-24.19,0.75,-25.87,5.5,0.81,-2.13,-0.6495640544737076,0.2322536774268924,0.21191577916525084,-42.24952684009253,23.027138205337288,-124.25742213626366,-0.2209,-0.3604,0.1996,-0.884
143,1039630.0,930.713051,1.0,7.32,-1.32,6.1,-24.19,0.75,-25.87,5.5,0.81,-2.13,-0.6495640544737076,0.2322536774268924,0.21191577916525084,-42.24952684009253,23.027138205337288,-124.25742213626366,-0.2209,-0.3604,0.1996,-0.884
144,1039665.0,930.749185,1.0,7.07,-1.76,6.2,-24.19,0.75,-25.06,3.19,-0.88,-3.44,-0.17301375388256254,-0.04043584993326943,0.2415608115497623,-42.421562810614134,22.75822922439662,-124.33100356461244,-0.2195,-0.3618,0.1973,-0.8843
145,1039665.0,930.749185,1.0,7.07,-1.76,6.2,-24.19,0.75,-25.06,3.19,-0.88,-3.44,-0.17301375388256254,-0.04043584993326943,0.2415608115497623,-42.421562810614134,22.75822922439662,-124.33100356461244,-0.2195,-0.3618,0.1973,-0.8843
146,1039702.0,930.812101,1.0,7.11,-1.69,6.32,-24.19,0.75,-25.87,-0.94,0.81,-1.25,-0.16414290538570034,0.059100198413065914,0.14641375686603195,-42.45844069063149,22.66472550596455,-124.38010760157816,-0.21899999999999997,-0.3621,0.1965,-0.8845
147,1039702.0,930.812101,1.0,7.11,-1.69,6.32,-24.19,0.75,-25.87,-0.94,0.81,-1.25,-0.16414290538570034,0.059100198413065914,0.14641375686603195,-42.45844069063149,22.66472550596455,-124.38010760157816,-0.21899999999999997,-0.3621,0.1965,-0.8845
148,1039734.0,930.8151720000001,1.0,7.23,-1.36,6.24,-24.19,0.75,-25.87,-2.75,-1.75,2.31,-0.4528425025438494,0.27079640901720314,0.17432406216166108,-42.507618370719364,22.711475449834968,-124.30646648477429,-0.2191,-0.3625,0.1969,-0.8842
149,1039734.0,930.8151720000001,1.0,7.23,-1.36,6.24,-24.19,0.75,-25.87,-2.75,-1.75,2.31,-0.4528425025438494,0.27079640901720314,0.17432406216166108,-42.507618370719364,22.711475449834968,-124.30646648477429,-0.2191,-0.3625,0.1969,-0.8842
150,1039769.0,930.851191,1.0,6.99,-1.45,6.27,-23.37,0.06,-25.5,1.94,-2.25,0.19,-0.22148906603647425,0.28241713410489633,0.3120892857810258,-42.63059851955768,22.699787605080815,-124.30646648477429,-0.2178,-0.3635,0.1968,-0.8842
151,1039769.0,930.851191,1.0,6.99,-1.45,6.27,-23.37,0.06,-25.5,1.94,-2.25,0.19,-0.22148906603647425,0.28241713410489633,0.3120892857810258,-42.63059851955768,22.699787605080815,-124.30646648477429,-0.2178,-0.3635,0.1968,-0.8842
152,1039804.0,930.9193300000001,1.0,7.32,-1.52,6.28,-22.69,0.5,-26.25,1.69,1.19,-0.75,-0.3776589022516222,0.13042504564173374,0.051058625766479786,-42.679804993171246,22.57123707542117,-124.30646648477429,-0.2181,-0.3639,0.1957,-0.8842
153,1039804.0,930.9193300000001,1.0,7.32,-1.52,6.28,-22.69,0.5,-26.25,1.69,1.19,-0.75,-0.3776589022516222,0.13042504564173374,0.051058625766479786,-42.679804993171246,22.57123707542117,-124.30646648477429,-0.2181,-0.3639,0.1957,-0.8842
154,1039839.0,930.922173,1.0,7.24,-1.35,6.34,-24.19,0.75,-25.87,-3.31,-0.88,-3.63,-0.35607376767156085,0.3093223164941871,0.10029995600844366,-42.802857328099094,22.501130743263236,-124.18392994389635,-0.2191,-0.3649,0.1951,-0.8837
155,1039839.0,930.922173,1.0,7.24,-1.35,6.34,-24.19,0.75,-25.87,-3.31,-0.88,-3.63,-0.35607376767156085,0.3093223164941871,0.10029995600844366,-42.802857328099094,22.501130743263236,-124.18392994389635,-0.2191,-0.3649,0.1951,-0.8837
156,1039874.0,930.970618,1.0,6.98,-1.49,6.38,-24.19,0.75,-25.87,4.19,-1.25,-2.63,-0.06705080427197913,0.25421652714134857,0.23712659771006805,-42.91364872106161,22.349262916740443,-124.08607855408228,-0.22,-0.3658,0.1938,-0.8833
157,1039874.0,930.970618,1.0,6.98,-1.49,6.38,-24.19,0.75,-25.87,4.19,-1.25,-2.63,-0.06705080427197913,0.25421652714134857,0.23712659771006805,-42.91364872106161,22.349262916740443,-124.08607855408228,-0.22,-0.3658,0.1938,-0.8833
158,1039908.0,931.0129509999999,1.0,7.07,-1.68,6.32,-23.75,0.75,-26.25,1.69,1.44,-1.94,-0.050187749851656534,0.019939355831956832,0.17613684587089118,-42.92596147290185,22.197434839762675,-124.13498454962264,-0.2203,-0.3659,0.1925,-0.8835
159,1039908.0,931.0129509999999,1.0,7.07,-1.68,6.32,-23.75,0.75,-26.25,1.69,1.44,-1.94,-0.050187749851656534,0.019939355831956832,0.17613684587089118,-42.92596147290185,22.197434839762675,-124.13498454962264,-0.2203,-0.3659,0.1925,-0.8835
160,1039943.0,931.063268,1.0,7.17,-1.44,6.17,-24.19,0.06,-24.69,-3.69,-0.25,-1.69,-0.3215523789369567,0.12075096409717645,0.2445674197108314,-42.97521768410124,22.150726459273766,-124.18392994389635,-0.2193,-0.3663,0.1921,-0.8837
161,1039943.0,931.063268,1.0,7.17,-1.44,6.17,-24.19,0.06,-24.69,-3.69,-0.25,-1.69,-0.3215523789369567,0.12075096409717645,0.2445674197108314,-42.97521768410124,22.150726459273766,-124.18392994389635,-0.2193,-0.3663,0.1921,-0.8837
162,1039978.0,931.079191,1.0,7.2,-1.22,6.27,-24.19,0.06,-24.69,-2.19,-2.13,-0.44,-0.38003686664515,0.35070745790092195,0.19551706683529524,-43.08607465863793,22.174080183171977,-124.0372118533993,-0.2199,-0.3672,0.1923,-0.8831
163,1039978.0,931.079191,1.0,7.2,-1.22,6.27,-24.19,0.06,-24.69,-2.19,-2.13,-0.44,-0.38003686664515,0.35070745790092195,0.19551706683529524,-43.08607465863793,22.174080183171977,-124.0372118533993,-0.2199,-0.3672,0.1923,-0.8831
164,1040015.0,931.1313660000001,1.0,7.14,-1.48,6.33,-23.75,0.06,-26.75,10.5,1.94,-0.12,-0.1595933162507121,0.15382733127981474,0.1531652858897914,-43.135358011103925,21.963930115303267,-124.1105266335135,-0.2194,-0.3676,0.1905,-0.8834
165,1040015.0,931.1313660000001,1.0,7.14,-1.48,6.33,-23.75,0.06,-26.75,10.5,1.94,-0.12,-0.1595933162507121,0.15382733127981474,0.1531652858897914,-43.135358011103925,21.963930115303267,-124.1105266335135,-0.2194,-0.3676,0.1905,-0.8834
166,1040052.0,931.148869,1.0,7.18,-1.67,6.22,-24.19,0.75,-26.25,1.63,-2.19,4.63,-0.14651464610806106,-0.08495381520195422,0.16294654604837788,-43.16000282883873,21.800531789289547,-124.25742213626366,-0.2182,-0.3678,0.1891,-0.884
167,1040052.0,931.148869,1.0,7.18,-1.67,6.22,-24.19,0.75,-26.25,1.63,-2.19,4.63,-0.14651464610806106,-0.08495381520195422,0.16294654604837788,-43.16000282883873,21.800531789289547,-124.25742213626366,-0.2182,-0.3678,0.1891,-0.884
