,TIME,ELAPSED_SECONDS,PSTATE,acc_x,acc_y,acc_z,mag_x,mag_y,mag_z,gyr_x,gyr_y,gyr_z,lin_x,lin_y,lin_z,eul_x,eul_y,eul_z,qua_w,qua_x,qua_y,qua_z
0,1509154.0,1401.12944,1.0,7.07,-1.07,6.55,-23.87,-2.5,-26.06,-2.75,-2.81,-3.56,0.09276899116854498,0.2827391700809707,0.11419146379880195,-42.48302850521899,23.530227351542678,-117.63003319551184,-0.3088,-0.3623,0.2039,-0.8555
1,1509154.0,1401.12944,1.0,7.07,-1.07,6.55,-23.87,-2.5,-26.06,-2.75,-2.81,-3.56,0.09276899116854498,0.2827391700809707,0.11419146379880195,-42.48302850521899,23.530227351542678,-117.63003319551184,-0.3088,-0.3623,0.2039,-0.8555
2,1509189.0,1401.188097,1.0,7.16,-1.0,6.5,-22.75,-2.5,-26.87,-1.5,-0.56,1.12,-0.029423992037519775,0.2804174029935189,0.08882615364474056,-42.48302850521899,23.600462193143148,-117.56367389565743,-0.309,-0.3623,0.2045,-0.8552
3,1509189.0,1401.188097,1.0,7.16,-1.0,6.5,-22.75,-2.5,-26.87,-1.5,-0.56,1.12,-0.029423992037519775,0.2804174029935189,0.08882615364474056,-42.48302850521899,23.600462193143148,-117.56367389565743,-0.309,-0.3623,0.2045,-0.8552
4,1509224.0,1401.205158,1.0,7.31,-1.08,6.43,-22.75,-2.5,-26.87,1.0,0.0,0.06,-0.08896972261870463,0.12038093036682572,0.012519470950415723,-42.49532318150223,23.565343649892732,-117.58578661368068,-0.309,-0.3624,0.2042,-0.8553
5,1509224.0,1401.205158,1.0,7.31,-1.08,6.43,-22.75,-2.5,-26.87,1.0,0.0,0.06,-0.08896972261870463,0.12038093036682572,0.012519470950415723,-42.49532318150223,23.565343649892732,-117.58578661368068,-0.309,-0.3624,0.2042,-0.8553
6,1509259.0,1401.208048,1.0,7.41,-1.07,6.32,-23.87,-3.25,-27.25,0.31,-0.37,0.06,-0.20407440564124132,0.024865263001559782,0.011082872178453941,-42.49532318150223,23.55363796786013,-117.58578661368068,-0.309,-0.3624,0.2041,-0.8553
7,1509259.0,1401.208048,1.0,7.41,-1.07,6.32,-23.87,-3.25,-27.25,0.31,-0.37,0.06,-0.20407440564124132,0.024865263001559782,0.011082872178453941,-42.49532318150223,23.55363796786013,-117.58578661368068,-0.309,-0.3624,0.2041,-0.8553
8,1509296.0,1401.2469039999999,1.0,7.25,-1.29,6.36,-23.19,-2.88,-28.06,4.69,-0.25,-1.69,0.06788346307372373,-0.07173748181777473,0.07698168247017989,-42.55680426104336,23.38978453262475,-117.60790637777723,-0.309,-0.3629,0.2027,-0.8554
9,1509296.0,1401.2469039999999,1.0,7.25,-1.29,6.36,-23.19,-2.88,-28.06,4.69,-0.25,-1.69,0.06788346307372373,-0.07173748181777473,0.07698168247017989,-42.55680426104336,23.38978453262475,-117.60790637777723,-0.309,-0.3629,0.2027,-0.8554
10,1509328.0,1401.2625970000001,1.0,7.34,-1.46,6.13,-23.19,-2.88,-28.06,3.25,1.31,-1.5,0.0321487573098862,-0.3855160871882855,0.14050062168380786,-42.59369907468167,23.21428107252436,-117.65216707446251,-0.3091,-0.3632,0.2012,-0.8556
11,1509328.0,1401.2625970000001,1.0,7.34,-1.46,6.13,-23.19,-2.88,-28.06,3.25,1.31,-1.5,0.0321487573098862,-0.3855160871882855,0.14050062168380786,-42.59369907468167,23.21428107252436,-117.65216707446251,-0.3091,-0.3632,0.2012,-0.8556
12,1509363.0,1401.294651,1.0,7.23,-1.06,6.29,-23.19,-3.25,-26.37,-5.63,-2.13,-1.0,-0.09883297691412772,0.05373992949161588,0.1656985914173088,-42.59369907468167,23.34297818708293,-117.54156821615564,-0.3098,-0.3632,0.2023,-0.8551
13,1509363.0,1401.294651,1.0,7.23,-1.06,6.29,-23.19,-3.25,-26.37,-5.63,-2.13,-1.0,-0.09883297691412772,0.05373992949161588,0.1656985914173088,-42.59369907468167,23.34297818708293,-117.54156821615564,-0.3098,-0.3632,0.2023,-0.8551
14,1509398.0,1401.3546,1.0,7.22,-1.28,6.56,-23.5,-2.5,-26.87,0.25,-0.56,1.0,0.19473707806395368,0.054872677320922936,-0.0299889818733714,-42.63059851955768,23.34297818708293,-117.51946956763666,-0.3097,-0.3635,0.2023,-0.855
15,1509398.0,1401.3546,1.0,7.22,-1.28,6.56,-23.5,-2.5,-26.87,0.25,-0.56,1.0,0.19473707806395368,0.054872677320922936,-0.0299889818733714,-42.63059851955768,23.34297818708293,-117.51946956763666,-0.3097,-0.3635,0.2023,-0.855
16,1509435.0,1401.37129,1.0,7.48,-0.68,6.49,-22.37,-3.25,-26.37,-5.69,-0.12,0.94,-0.3969237968536031,0.3631442101837172,-0.10513479296747796,-42.59369907468167,23.448298031292186,-117.4973779425748,-0.3099,-0.3632,0.2032,-0.8549
17,1509435.0,1401.37129,1.0,7.48,-0.68,6.49,-22.37,-3.25,-26.37,-5.69,-0.12,0.94,-0.3969237968536031,0.3631442101837172,-0.10513479296747796,-42.59369907468167,23.448298031292186,-117.4973779425748,-0.3099,-0.3632,0.2032,-0.8549
18,1509470.0,1401.411687,1.0,7.88,-0.96,6.36,-22.37,-3.25,-26.37,6.06,0.31,-3.25,-0.4729307559681568,-0.08926421050250588,-0.35376182240084475,-42.64289936464318,23.296175790566195,-117.4973779425748,-0.3102,-0.3636,0.2019,-0.8549
19,1509470.0,1401.411687,1.0,7.88,-0.96,6.36,-22.37,-3.25,-26.37,6.06,0.31,-3.25,-0.4729307559681568,-0.08926421050250588,-0.35376182240084475,-42.64289936464318,23.296175790566195,-117.4973779425748,-0.3102,-0.3636,0.2019,-0.8549
20,1509507.0,1401.482441,1.0,9.58,0.08,6.45,-23.87,-3.25,-27.25,-8.75,-4.31,-14.0,-2.023118762620654,0.041135420557979696,-1.5639523740832608,-42.70441132531611,23.30787601995589,-117.21082255070309,-0.3131,-0.3641,0.20199999999999999,-0.8536
21,1509507.0,1401.482441,1.0,9.58,0.08,6.45,-23.87,-3.25,-27.25,-8.75,-4.31,-14.0,-2.023118762620654,0.041135420557979696,-1.5639523740832608,-42.70441132531611,23.30787601995589,-117.21082255070309,-0.3131,-0.3641,0.20199999999999999,-0.8536
22,1509541.0,1401.486196,1.0,12.52,2.53,6.98,-23.19,-3.25,-26.06,9.06,-26.81,-24.75,-4.851809167892707,0.9517976437557718,-3.8837016771371986,-43.283258399546064,23.2493773342699,-116.4668582991344,-0.317,-0.3688,0.2015,-0.8502
23,1509541.0,1401.486196,1.0,12.52,2.53,6.98,-23.19,-3.25,-26.06,9.06,-26.81,-24.75,-4.851809167892707,0.9517976437557718,-3.8837016771371986,-43.283258399546064,23.2493773342699,-116.4668582991344,-0.317,-0.3688,0.2015,-0.8502
24,1509574.0,1401.514445,1.0,13.6,4.27,8.1,-23.19,-3.25,-26.06,46.06,-26.06,-64.37,-5.375683901357073,2.103872562573548,-5.538663383347392,-45.225406324165256,21.450543092817842,-114.98049967133859,-0.3262,-0.3845,0.1861,-0.8433
25,1509574.0,1401.514445,1.0,13.6,4.27,8.1,-23.19,-3.25,-26.06,46.06,-26.06,-64.37,-5.375683901357073,2.103872562573548,-5.538663383347392,-45.225406324165256,21.450543092817842,-114.98049967133859,-0.3262,-0.3845,0.1861,-0.8433
26,1509611.0,1401.535318,1.0,14.52,3.0,9.91,-23.19,-3.69,-26.87,40.69,48.38,-132.0,-3.4001461191748588,0.8582787785455057,-7.678797203504933,-45.78458156617274,18.553110733389566,-113.88004967231205,-0.3466,-0.389,0.1612,-0.8381
27,1509611.0,1401.535318,1.0,14.52,3.0,9.91,-23.19,-3.69,-26.87,40.69,48.38,-132.0,-3.4001461191748588,0.8582787785455057,-7.678797203504933,-45.78458156617274,18.553110733389566,-113.88004967231205,-0.3466,-0.389,0.1612,-0.8381
28,1509648.0,1401.586787,1.0,12.97,5.9,10.89,-23.5,-6.19,-25.56,110.37,99.12,-166.69,-3.672393021867335,1.9576080680346832,-7.637669996632303,-44.71692355018706,12.699808169946316,-112.87847065921488,-0.3857,-0.3804,0.1106,-0.8333
29,1509648.0,1401.586787,1.0,12.97,5.9,10.89,-23.5,-6.19,-25.56,110.37,99.12,-166.69,-3.672393021867335,1.9576080680346832,-7.637669996632303,-44.71692355018706,12.699808169946316,-112.87847065921488,-0.3857,-0.3804,0.1106,-0.8333
30,1509683.0,1401.640093,1.0,10.8,5.38,12.99,-23.5,-6.19,-25.56,205.75,134.38,-170.13,-0.4215193793596936,1.469438134843097,-7.8565199584387475,-43.78915870024722,4.906017344265486,-112.75420115193157,-0.4071,-0.3729,0.0428,-0.8327
31,1509683.0,1401.640093,1.0,10.8,5.38,12.99,-23.5,-6.19,-25.56,205.75,134.38,-170.13,-0.4215193793596936,1.469438134843097,-7.8565199584387475,-43.78915870024722,4.906017344265486,-112.75420115193157,-0.4071,-0.3729,0.0428,-0.8327
32,1509718.0,1401.655976,1.0,4.39,6.0,17.09,-20.56,-10.0,-26.37,262.88,159.44,-115.69,5.722655860538287,4.135487441776173,-7.441223884069258,-43.08607465863793,-7.017388604693049,-112.0743054876913,-0.4165,-0.3672,-0.0612,-0.8294
33,1509718.0,1401.655976,1.0,4.39,6.0,17.09,-20.56,-10.0,-26.37,262.88,159.44,-115.69,5.722655860538287,4.135487441776173,-7.441223884069258,-43.08607465863793,-7.017388604693049,-112.0743054876913,-0.4165,-0.3672,-0.0612,-0.8294
34,1509754.0,1401.696935,1.0,0.24,12.79,16.11,-15.0,-17.87,-26.37,305.75,224.0,-84.44,4.7892463925118065,7.134491075243571,-8.883881187986134,-40.595644110417574,-21.50886039245491,-112.03329231056664,-0.3966,-0.3469,-0.1866,-0.8292
35,1509754.0,1401.696935,1.0,0.24,12.79,16.11,-15.0,-17.87,-26.37,305.75,224.0,-84.44,4.7892463925118065,7.134491075243571,-8.883881187986134,-40.595644110417574,-21.50886039245491,-112.03329231056664,-0.3966,-0.3469,-0.1866,-0.8292
36,1509791.0,1401.741897,1.0,5.03,5.78,10.69,-9.25,-24.5,-22.37,395.94,93.94,-156.31,3.7418615932634665,-3.350474715212321,-2.3489327091745267,-40.815643818297026,-34.87917065061918,-106.89278954728873,-0.3786,-0.3487,-0.2997,-0.8033
37,1509791.0,1401.741897,1.0,5.03,5.78,10.69,-9.25,-24.5,-22.37,395.94,93.94,-156.31,3.7418615932634665,-3.350474715212321,-2.3489327091745267,-40.815643818297026,-34.87917065061918,-106.89278954728873,-0.3786,-0.3487,-0.2997,-0.8033
38,1509824.0,1401.775867,1.0,1.97,10.26,5.07,-9.25,-24.5,-22.37,243.94,79.31,-104.5,0.3004494155226556,0.8327661899227827,-1.7721940969568966,-41.0113310955595,-46.63175471031061,-99.7072857164662,-0.3693,-0.3503,-0.3958,-0.7644
39,1509824.0,1401.775867,1.0,1.97,10.26,5.07,-9.25,-24.5,-22.37,243.94,79.31,-104.5,0.3004494155226556,0.8327661899227827,-1.7721940969568966,-41.0113310955595,-46.63175471031061,-99.7072857164662,-0.3693,-0.3503,-0.3958,-0.7644
40,1509861.0,1401.817407,1.0,-2.32,8.36,6.42,-2.88,-32.5,-13.06,351.44,-49.0,-69.25,5.2843366861808825,2.1240763907496008,0.6386357508104314,-44.17226486112258,-54.98080172287654,-92.20807957779185,-0.3553,-0.376,-0.4616,-0.7206
41,1509861.0,1401.817407,1.0,-2.32,8.36,6.42,-2.88,-32.5,-13.06,351.44,-49.0,-69.25,5.2843366861808825,2.1240763907496008,0.6386357508104314,-44.17226486112258,-54.98080172287654,-92.20807957779185,-0.3553,-0.376,-0.4616,-0.7206
42,1509898.0,1401.833658,1.0,-1.24,3.55,1.6,0.37,-35.56,-5.19,346.88,29.56,6.25,2.1284130775385317,1.0676153469601328,6.485482247191035,-49.03863296676083,-66.29551072464068,-81.8089732715648,-0.3163,-0.415,-0.5468,-0.6548
43,1509898.0,1401.833658,1.0,-1.24,3.55,1.6,0.37,-35.56,-5.19,346.88,29.56,6.25,2.1284130775385317,1.0676153469601328,6.485482247191035,-49.03863296676083,-66.29551072464068,-81.8089732715648,-0.3163,-0.415,-0.5468,-0.6548
44,1509933.0,1401.879055,1.0,1.04,0.95,-1.9,0.37,-35.56,-5.19,316.75,14.88,79.0,-1.9325715811760793,0.18728291313809506,8.456023406867354,-52.66760381963542,-73.09656835470321,-75.75858878812349,-0.2676,-0.4436,-0.5955,-0.614
45,1509933.0,1401.879055,1.0,1.04,0.95,-1.9,0.37,-35.56,-5.19,316.75,14.88,79.0,-1.9325715811760793,0.18728291313809506,8.456023406867354,-52.66760381963542,-73.09656835470321,-75.75858878812349,-0.2676,-0.4436,-0.5955,-0.614
46,1509967.0,1401.887766,1.0,2.23,0.52,-3.62,2.19,-36.06,6.0,188.06,-71.0,143.13,-3.736562188318705,-0.04122723491143127,7.712824952884437,-59.2735703520065,-76.93930059020846,-69.29138458685418,-0.2126,-0.4945,-0.6221,-0.5685
47,1509967.0,1401.887766,1.0,2.23,0.52,-3.62,2.19,-36.06,6.0,188.06,-71.0,143.13,-3.736562188318705,-0.04122723491143127,7.712824952884437,-59.2735703520065,-76.93930059020846,-69.29138458685418,-0.2126,-0.4945,-0.6221,-0.5685
48,1510002.0,1401.925921,1.0,2.4,4.14,-2.18,0.25,-33.88,13.06,190.75,-145.19,164.56,-0.3311357435954201,-0.4534313396063068,4.578194287308502,-68.81847155097867,-76.44252722312795,-62.15539687050149,-0.1776,-0.5651,-0.6187,-0.5162
49,1510002.0,1401.925921,1.0,2.4,4.14,-2.18,0.25,-33.88,13.06,190.75,-145.19,164.56,-0.3311357435954201,-0.4534313396063068,4.578194287308502,-68.81847155097867,-76.44252722312795,-62.15539687050149,-0.1776,-0.5651,-0.6187,-0.5162
50,1510041.0,1401.985344,1.0,2.57,4.48,-1.99,-3.38,-32.06,19.56,238.19,-168.69,172.81,0.8543655045548344,-0.648429125420541,4.376640860603168,-77.0271439519232,-75.86024997866475,-54.954967799820345,-0.1467,-0.6227,-0.6147,-0.4614
51,1510041.0,1401.985344,1.0,2.57,4.48,-1.99,-3.38,-32.06,19.56,238.19,-168.69,172.81,0.8543655045548344,-0.648429125420541,4.376640860603168,-77.0271439519232,-75.86024997866475,-54.954967799820345,-0.1467,-0.6227,-0.6147,-0.4614
52,1510074.0,1402.0024529999998,1.0,3.54,5.08,-2.96,-3.38,-32.06,19.56,248.25,-185.81,150.06,1.8469733221857627,-1.1329544247257195,3.2947605799753843,-87.35524570014307,-74.89006002631827,-44.27121519182589,-0.1072,-0.6906,-0.608,-0.3768
53,1510074.0,1402.0024529999998,1.0,3.54,5.08,-2.96,-3.38,-32.06,19.56,248.25,-185.81,150.06,1.8469733221857627,-1.1329544247257195,3.2947605799753843,-87.35524570014307,-74.89006002631827,-44.27121519182589,-0.1072,-0.6906,-0.608,-0.3768
54,1510111.0,1402.039652,1.0,2.93,1.24,-4.54,-3.75,-26.25,24.75,276.31,-146.69,85.31,-1.2197111285800402,-1.1981294246477387,4.5330468062991995,-92.98762003555102,-75.25133001282822,-36.03410062770514,-0.0738,-0.7253,-0.6105,-0.3093
55,1510111.0,1402.039652,1.0,2.93,1.24,-4.54,-3.75,-26.25,24.75,276.31,-146.69,85.31,-1.2197111285800402,-1.1981294246477387,4.5330468062991995,-92.98762003555102,-75.25133001282822,-36.03410062770514,-0.0738,-0.7253,-0.6105,-0.3093
56,1510148.0,1402.097634,1.0,3.12,0.69,-5.38,-1.5,-20.37,30.37,146.63,-154.25,83.56,-1.0739272572096532,-1.62837147341257,3.861064529182316,-98.98130473446213,-74.48647019368201,-26.759019228055678,-0.0463,-0.7603,-0.6052,-0.2314
57,1510148.0,1402.097634,1.0,3.12,0.69,-5.38,-1.5,-20.37,30.37,146.63,-154.25,83.56,-1.0739272572096532,-1.62837147341257,3.861064529182316,-98.98130473446213,-74.48647019368201,-26.759019228055678,-0.0463,-0.7603,-0.6052,-0.2314
58,1510184.0,1402.114366,1.0,3.19,2.61,-5.82,-1.5,-20.37,30.37,132.56,-154.88,48.38,1.1573303547913376,-1.393507386293901,2.908873284693616,-102.46623177403809,-73.42499241497191,-20.94924459772563,-0.0411,-0.7797,-0.5978,-0.1818
59,1510184.0,1402.114366,1.0,3.19,2.61,-5.82,-1.5,-20.37,30.37,132.56,-154.88,48.38,1.1573303547913376,-1.393507386293901,2.908873284693616,-102.46623177403809,-73.42499241497191,-20.94924459772563,-0.0411,-0.7797,-0.5978,-0.1818
60,1510219.0,1402.192769,1.0,2.27,-0.38,-6.06,1.5,-13.69,32.75,132.69,-98.94,-22.25,-1.1806280597613628,-1.6785300705159023,3.657702595209648,-103.90498509276027,-74.2563321899432,-13.8765501759761,-0.0299,-0.7875,-0.6036,-0.1208
61,1510219.0,1402.192769,1.0,2.27,-0.38,-6.06,1.5,-13.69,32.75,132.69,-98.94,-22.25,-1.1806280597613628,-1.6785300705159023,3.657702595209648,-103.90498509276027,-74.2563321899432,-13.8765501759761,-0.0299,-0.7875,-0.6036,-0.1208
62,1510254.0,1402.2058029999998,1.0,2.0,-0.24,-7.04,5.19,-9.38,34.88,39.44,-70.5,-35.56,-1.01843675774347,-1.5578210436506843,2.7246177940271927,-102.74115590851987,-76.2239014164758,-10.14313387414705,-0.03,-0.7812,-0.6172,-0.0884
63,1510254.0,1402.2058029999998,1.0,2.0,-0.24,-7.04,5.19,-9.38,34.88,39.44,-70.5,-35.56,-1.01843675774347,-1.5578210436506843,2.7246177940271927,-102.74115590851987,-76.2239014164758,-10.14313387414705,-0.03,-0.7812,-0.6172,-0.0884
64,1510291.0,1402.2093810000001,1.0,2.54,-0.68,-7.66,10.25,-6.5,33.69,61.63,-67.75,-3.88,-1.1921081037836887,-2.340304625716997,2.145615309585075,-102.22862690361036,-77.14435187287417,-7.648935698119245,-0.0295,-0.7784,-0.6235,-0.0667
65,1510291.0,1402.2093810000001,1.0,2.54,-0.68,-7.66,10.25,-6.5,33.69,61.63,-67.75,-3.88,-1.1921081037836887,-2.340304625716997,2.145615309585075,-102.22862690361036,-77.14435187287417,-7.648935698119245,-0.0295,-0.7784,-0.6235,-0.0667
66,1510324.0,1402.256711,1.0,2.35,-0.64,-7.82,10.25,-6.5,33.69,44.56,-67.06,10.38,-0.8659274620816872,-2.429893916526212,2.0329581367446945,-102.86973660263024,-76.85151070141964,-4.4587366294239885,-0.0306,-0.7819,-0.6215,-0.0389
67,1510324.0,1402.256711,1.0,2.35,-0.64,-7.82,10.25,-6.5,33.69,44.56,-67.06,10.38,-0.8659274620816872,-2.429893916526212,2.0329581367446945,-102.86973660263024,-76.85151070141964,-4.4587366294239885,-0.0306,-0.7819,-0.6215,-0.0389
68,1510361.0,1402.315433,1.0,1.71,0.12,-7.33,11.0,-4.25,34.25,-6.44,-57.94,-11.88,-0.15194415759214386,-1.8395457145566303,2.508678738270481,-102.3747728112858,-77.37905512772029,-2.9453273542124467,-0.0378,-0.7792,-0.6251,-0.0257
69,1510361.0,1402.315433,1.0,1.71,0.12,-7.33,11.0,-4.25,34.25,-6.44,-57.94,-11.88,-0.15194415759214386,-1.8395457145566303,2.508678738270481,-102.3747728112858,-77.37905512772029,-2.9453273542124467,-0.0378,-0.7792,-0.6251,-0.0257
70,1510397.0,1402.331442,1.0,0.8,0.01,-7.58,12.75,-3.56,33.88,5.0,-45.81,-29.0,-0.4643940089830934,-1.2310996492668451,2.298971806444042,-101.04963023736497,-78.64726489734781,-1.5355728478655368,-0.0494,-0.7719,-0.6337,-0.0134
71,1510397.0,1402.331442,1.0,0.8,0.01,-7.58,12.75,-3.56,33.88,5.0,-45.81,-29.0,-0.4643940089830934,-1.2310996492668451,2.298971806444042,-101.04963023736497,-78.64726489734781,-1.5355728478655368,-0.0494,-0.7719,-0.6337,-0.0134
72,1510432.0,1402.4456519999999,1.0,-0.71,-0.46,-7.5,12.75,-3.56,33.88,-8.88,-41.88,-24.56,-1.1830674520033844,0.003413632753990869,2.352386806959281,-100.29559547862137,-79.31545721761533,-0.5500415954991054,-0.057,-0.7677,-0.6382,-0.0048
73,1510432.0,1402.4456519999999,1.0,-0.71,-0.46,-7.5,12.75,-3.56,33.88,-8.88,-41.88,-24.56,-1.1830674520033844,0.003413632753990869,2.352386806959281,-100.29559547862137,-79.31545721761533,-0.5500415954991054,-0.057,-0.7677,-0.6382,-0.0048
74,1510465.0,1402.455923,1.0,-1.04,-0.22,-7.8,15.5,-4.0,32.25,6.75,-12.13,-18.06,-0.9912612901953154,0.2558084614642652,2.001397724409953,-99.2639704213744,-80.30136362645774,0.10313241704642767,-0.0607,-0.7619,-0.6448,0.0009
75,1510465.0,1402.455923,1.0,-1.04,-0.22,-7.8,15.5,-4.0,32.25,6.75,-12.13,-18.06,-0.9912612901953154,0.2558084614642652,2.001397724409953,-99.2639704213744,-80.30136362645774,0.10313241704642767,-0.0607,-0.7619,-0.6448,0.0009
76,1510502.0,1402.459057,1.0,-0.68,-0.25,-9.08,16.19,-4.25,32.75,2.31,-5.5,-12.38,-1.0067716679453225,-0.21359998732361216,0.756120410299852,-98.75223846738031,-80.8421541496524,0.3323159869732291,-0.0588,-0.759,-0.6484,0.0029
77,1510502.0,1402.459057,1.0,-0.68,-0.25,-9.08,16.19,-4.25,32.75,2.31,-5.5,-12.38,-1.0067716679453225,-0.21359998732361216,0.756120410299852,-98.75223846738031,-80.8421541496524,0.3323159869732291,-0.0588,-0.759,-0.6484,0.0029
78,1510537.0,1402.462094,1.0,-0.95,-0.78,-8.93,16.87,-3.56,32.38,6.25,0.56,-15.63,-1.5328489745664398,-0.006752122013408413,0.9237378406899149,-97.92848570683063,-81.67258932855316,0.4812859628976946,-0.0584,-0.7543,-0.6539,0.0042
79,1510537.0,1402.462094,1.0,-0.95,-0.78,-8.93,16.87,-3.56,32.38,6.25,0.56,-15.63,-1.5328489745664398,-0.006752122013408413,0.9237378406899149,-97.92848570683063,-81.67258932855316,0.4812859628976946,-0.0584,-0.7543,-0.6539,0.0042
80,1510572.0,1402.509186,1.0,-3.81,-0.74,-9.37,16.87,-3.56,32.38,-17.19,5.75,-14.5,-1.969093273740691,2.8059830979490687,0.2615082758906464,-97.45833109591423,-82.12775101851454,0.16042823504321638,-0.0598,-0.7516,-0.6569,0.0014
81,1510572.0,1402.509186,1.0,-3.81,-0.74,-9.37,16.87,-3.56,32.38,-17.19,5.75,-14.5,-1.969093273740691,2.8059830979490687,0.2615082758906464,-97.45833109591423,-82.12775101851454,0.16042823504321638,-0.0598,-0.7516,-0.6569,0.0014
82,1510608.0,1402.561004,1.0,3.29,1.79,-11.94,16.87,-2.5,32.0,-20.25,-7.25,30.5,1.143467241999148,-3.813920788562912,-2.056667027081529,-97.82381585601729,-81.79381255981484,-1.4095117183833985,-0.0555,-0.7537,-0.6547,-0.0123
83,1510608.0,1402.561004,1.0,3.29,1.79,-11.94,16.87,-2.5,32.0,-20.25,-7.25,30.5,1.143467241999148,-3.813920788562912,-2.056667027081529,-97.82381585601729,-81.79381255981484,-1.4095117183833985,-0.0555,-0.7537,-0.6547,-0.0123
84,1510643.0,1402.583174,1.0,-0.51,-1.33,-9.85,15.38,-3.19,33.19,21.94,-20.12,-14.38,-2.041898483882329,-0.42012580869566063,0.07496746888612726,-97.5452305573509,-82.17335373167707,-0.011459155921715059,-0.0507,-0.7521,-0.6572,-0.0001
85,1510643.0,1402.583174,1.0,-0.51,-1.33,-9.85,15.38,-3.19,33.19,21.94,-20.12,-14.38,-2.041898483882329,-0.42012580869566063,0.07496746888612726,-97.5452305573509,-82.17335373167707,-0.011459155921715059,-0.0507,-0.7521,-0.6572,-0.0001
86,1510678.0,1402.624217,1.0,-2.15,1.09,-9.3,15.38,-3.19,33.19,-39.5,-13.5,-7.31,-0.050611879229973344,1.4517601029029903,0.309785725867199,-96.90394078060578,-82.64551302019812,-0.6531754234266163,-0.0629,-0.7484,-0.6603,-0.0057
87,1510678.0,1402.624217,1.0,-2.15,1.09,-9.3,15.38,-3.19,33.19,-39.5,-13.5,-7.31,-0.050611879229973344,1.4517601029029903,0.309785725867199,-96.90394078060578,-82.64551302019812,-0.6531754234266163,-0.0629,-0.7484,-0.6603,-0.0057
88,1510713.0,1402.6855779999999,1.0,-2.58,1.13,-8.16,16.06,-2.75,31.56,10.56,-10.88,12.38,0.028204630302526183,1.9186040959330104,1.3901743229782593,-97.05955612806845,-82.44730326413901,-0.3781528311358495,-0.0658,-0.7493,-0.659,-0.0033
89,1510713.0,1402.6855779999999,1.0,-2.58,1.13,-8.16,16.06,-2.75,31.56,10.56,-10.88,12.38,0.028204630302526183,1.9186040959330104,1.3901743229782593,-97.05955612806845,-82.44730326413901,-0.3781528311358495,-0.0658,-0.7493,-0.659,-0.0033
90,1510750.0,1402.6949789999999,1.0,-0.4,1.07,-10.29,15.0,-3.19,32.38,8.69,-4.94,21.19,0.12251420905182332,-0.4302281788248789,-0.5368935892505124,-97.52784465140512,-82.00622099250181,-0.14896906869365514,-0.0635,-0.752,-0.6561,-0.0013
91,1510750.0,1402.6949789999999,1.0,-0.4,1.07,-10.29,15.0,-3.19,32.38,8.69,-4.94,21.19,0.12251420905182332,-0.4302281788248789,-0.5368935892505124,-97.52784465140512,-82.00622099250181,-0.14896906869365514,-0.0635,-0.752,-0.6561,-0.0013
92,1510785.0,1402.7368800000002,1.0,-0.74,0.15,-9.4,15.0,-3.19,32.38,24.31,-9.19,1.75,-0.63252087269138,-0.16729240913488044,0.39909821457486494,-97.49308186392095,-82.08216411124334,0.5615008861828721,-0.0606,-0.7518,-0.6566,0.0049
93,1510785.0,1402.7368800000002,1.0,-0.74,0.15,-9.4,15.0,-3.19,32.38,24.31,-9.19,1.75,-0.63252087269138,-0.16729240913488044,0.39909821457486494,-97.49308186392095,-82.08216411124334,0.5615008861828721,-0.0606,-0.7518,-0.6566,0.0049
94,1510819.0,1402.7735810000001,1.0,-1.08,-0.75,-10.11,16.5,-3.19,32.38,13.31,3.25,-5.94,-1.5390352091186041,0.013979579236806929,-0.2716521981114273,-97.37150665847632,-82.24939344216158,0.7906880314747026,-0.0569,-0.7511,-0.6577,0.0069
95,1510819.0,1402.7735810000001,1.0,-1.08,-0.75,-10.11,16.5,-3.19,32.38,13.31,3.25,-5.94,-1.5390352091186041,0.013979579236806929,-0.2716521981114273,-97.37150665847632,-82.24939344216158,0.7906880314747026,-0.0569,-0.7511,-0.6577,0.0069
96,1510854.0,1402.796924,1.0,-1.01,-1.16,-9.93,16.06,-3.19,33.56,15.31,-6.13,8.19,-1.8218219863427567,-0.10440796808363506,-0.07467904149430638,-97.388865555759,-82.26460667045434,1.283452294756085,-0.054000000000000006,-0.7512,-0.6578,0.0112
97,1510854.0,1402.796924,1.0,-1.01,-1.16,-9.93,16.06,-3.19,33.56,15.31,-6.13,8.19,-1.8218219863427567,-0.10440796808363506,-0.07467904149430638,-97.388865555759,-82.26460667045434,1.283452294756085,-0.054000000000000006,-0.7512,-0.6578,0.0112
98,1510891.0,1402.81311,1.0,-0.93,-1.11,-10.11,15.69,-2.06,31.56,15.81,-4.81,11.81,-1.6609507680708475,-0.21482461191552688,-0.2682789293850707,-97.51046175424892,-82.15815106961863,1.8220825674649568,-0.051,-0.7519,-0.6571,0.0159
99,1510891.0,1402.81311,1.0,-0.93,-1.11,-10.11,15.69,-2.06,31.56,15.81,-4.81,11.81,-1.6609507680708475,-0.21482461191552688,-0.2682789293850707,-97.51046175424892,-82.15815106961863,1.8220825674649568,-0.051,-0.7519,-0.6571,0.0159
100,1510926.0,1402.854417,1.0,-1.14,-0.88,-9.71,15.69,-2.06,31.56,-7.0,-6.38,7.69,-1.2684099346406694,0.03815851563565903,0.07280285894680992,-97.78895026657291,-81.89997406921938,2.681687249969397,-0.0456,-0.7535,-0.6554,0.0234
101,1510926.0,1402.854417,1.0,-1.14,-0.88,-9.71,15.69,-2.06,31.56,-7.0,-6.38,7.69,-1.2684099346406694,0.03815851563565903,0.07280285894680992,-97.78895026657291,-81.89997406921938,2.681687249969397,-0.0456,-0.7535,-0.6554,0.0234
102,1510961.0,1402.911757,1.0,-1.29,-0.44,-9.91,16.06,-2.06,32.0,-4.5,-4.56,9.81,-0.8954474817292359,0.20232332171457668,-0.1544262009410975,-97.80638154107426,-81.86963350668476,2.6129139620146145,-0.0477,-0.7536,-0.6552,0.0228
103,1510961.0,1402.911757,1.0,-1.29,-0.44,-9.91,16.06,-2.06,32.0,-4.5,-4.56,9.81,-0.8954474817292359,0.20232332171457668,-0.1544262009410975,-97.80638154107426,-81.86963350668476,2.6129139620146145,-0.0477,-0.7536,-0.6552,0.0228
104,1510998.0,1402.928418,1.0,-1.34,0.22,-9.36,16.06,-2.5,32.0,-14.94,-6.44,10.44,-0.317926493736752,0.3513984479477446,0.360537472861644,-98.0856967948129,-81.55147683065383,2.4295230620087382,-0.0523,-0.7552,-0.6531,0.0212
105,1510998.0,1402.928418,1.0,-1.34,0.22,-9.36,16.06,-2.5,32.0,-14.94,-6.44,10.44,-0.317926493736752,0.3513984479477446,0.360537472861644,-98.0856967948129,-81.55147683065383,2.4295230620087382,-0.0523,-0.7552,-0.6531,0.0212
106,1511032.0,1403.000191,1.0,-1.67,1.16,-8.95,16.06,-2.5,32.0,-20.44,-2.94,2.38,0.4844938907932306,0.8242369789807881,0.6785122341539651,-98.1906423635664,-81.40024126031591,2.1200647857418087,-0.0568,-0.7558,-0.6521,0.0185
107,1511032.0,1403.000191,1.0,-1.67,1.16,-8.95,16.06,-2.5,32.0,-20.44,-2.94,2.38,0.4844938907932306,0.8242369789807881,0.6785122341539651,-98.1906423635664,-81.40024126031591,2.1200647857418087,-0.0568,-0.7558,-0.6521,0.0185
108,1511065.0,1403.004279,1.0,-1.15,0.02,-9.58,16.87,-2.5,32.38,9.31,3.0,4.56,-0.5828249964571631,0.09215510035004323,0.1759115827765232,-98.15564818979229,-81.43047462829705,2.1200647857418087,-0.055999999999999994,-0.7556,-0.6523,0.0185
109,1511065.0,1403.004279,1.0,-1.15,0.02,-9.58,16.87,-2.5,32.38,9.31,3.0,4.56,-0.5828249964571631,0.09215510035004323,0.1759115827765232,-98.15564818979229,-81.43047462829705,2.1200647857418087,-0.055999999999999994,-0.7556,-0.6523,0.0185
110,1511102.0,1403.052117,1.0,-0.71,0.43,-10.18,16.5,-3.19,32.0,-3.25,-0.75,8.13,-0.14679060539754854,-0.3361306887777866,-0.4005469060182616,-98.31321925058506,-81.2793763154813,2.051298459271143,-0.0558,-0.7565,-0.6513,0.0179
111,1511102.0,1403.052117,1.0,-0.71,0.43,-10.18,16.5,-3.19,32.0,-3.25,-0.75,8.13,-0.14679060539754854,-0.3361306887777866,-0.4005469060182616,-98.31321925058506,-81.2793763154813,2.051298459271143,-0.0558,-0.7565,-0.6513,0.0179
112,1511137.0,1403.0688189999998,1.0,-0.96,0.27,-9.57,16.87,-3.19,32.0,-0.25,-4.88,0.37,-0.30853463231303857,-0.07047401620243884,0.19003730146088493,-98.26066774517868,-81.3246878357526,2.1659094260652934,-0.0565,-0.7562,-0.6516,0.0189
113,1511137.0,1403.0688189999998,1.0,-0.96,0.27,-9.57,16.87,-3.19,32.0,-0.25,-4.88,0.37,-0.30853463231303857,-0.07047401620243884,0.19003730146088493,-98.26066774517868,-81.3246878357526,2.1659094260652934,-0.0565,-0.7562,-0.6516,0.0189
114,1511172.0,1403.105569,1.0,-1.05,-0.14,-9.83,16.87,-3.19,32.0,6.5,4.69,4.25,-0.7182695883930234,-0.052062306039209784,-0.053997966268726216,-98.34826907979405,-81.26427589274175,2.18883187578443,-0.0551,-0.7567,-0.6512,0.0191
115,1511172.0,1403.105569,1.0,-1.05,-0.14,-9.83,16.87,-3.19,32.0,6.5,4.69,4.25,-0.7182695883930234,-0.052062306039209784,-0.053997966268726216,-98.34826907979405,-81.26427589274175,2.18883187578443,-0.0551,-0.7567,-0.6512,0.0191
116,1511206.0,1403.161071,1.0,-1.23,0.12,-9.55,16.87,-4.0,31.56,-4.25,1.37,7.94,-0.4786179780130857,0.20833392439662424,0.19117695874674112,-98.61153960499006,-80.9927594143726,2.1315259137202647,-0.0544,-0.7582,-0.6494,0.0186
117,1511206.0,1403.161071,1.0,-1.23,0.12,-9.55,16.87,-4.0,31.56,-4.25,1.37,7.94,-0.4786179780130857,0.20833392439662424,0.19117695874674112,-98.61153960499006,-80.9927594143726,2.1315259137202647,-0.0544,-0.7582,-0.6494,0.0186
118,1511241.0,1403.178422,1.0,-1.16,0.26,-9.47,16.5,-3.19,32.75,-1.19,8.13,0.25,-0.3479822066183201,0.1960420555385699,0.27068775718793425,-98.59396637382844,-81.03797395445109,1.9252287616436876,-0.0541,-0.7581,-0.6497,0.0168
119,1511241.0,1403.178422,1.0,-1.16,0.26,-9.47,16.5,-3.19,32.75,-1.19,8.13,0.25,-0.3479822066183201,0.1960420555385699,0.27068775718793425,-98.59396637382844,-81.03797395445109,1.9252287616436876,-0.0541,-0.7581,-0.6497,0.0168
120,1511276.0,1403.232926,1.0,-0.99,0.24,-9.76,16.5,-3.19,32.75,6.44,8.56,-1.81,-0.33034550729460715,0.05343071675713201,-0.0006593661981089128,-98.55882930624523,-81.11336542675635,1.8106219718873997,-0.0511,-0.7579,-0.6502,0.0158
121,1511276.0,1403.232926,1.0,-0.99,0.24,-9.76,16.5,-3.19,32.75,6.44,8.56,-1.81,-0.33034550729460715,0.05343071675713201,-0.0006593661981089128,-98.55882930624523,-81.11336542675635,1.8106219718873997,-0.0511,-0.7579,-0.6502,0.0158
122,1511311.0,1403.284929,1.0,-1.01,-0.33,-10.21,16.06,-4.0,32.38,2.44,-0.94,1.63,-0.8866673725903006,-0.032265644070050475,-0.4200738106148432,-98.57639627494255,-81.11336542675635,1.8450038134157023,-0.0493,-0.758,-0.6502,0.0161
123,1511311.0,1403.284929,1.0,-1.01,-0.33,-10.21,16.06,-4.0,32.38,2.44,-0.94,1.63,-0.8866673725903006,-0.032265644070050475,-0.4200738106148432,-98.57639627494255,-81.11336542675635,1.8450038134157023,-0.0493,-0.758,-0.6502,0.0161
124,1511348.0,1403.294881,1.0,-1.21,0.13,-9.47,16.06,-2.75,33.56,-1.06,-0.19,2.38,-0.4465264136929205,0.2858571866963437,0.27350781965418136,-98.50614716044564,-81.17370917960935,1.856464464018338,-0.0505,-0.7576,-0.6506,0.0162
125,1511348.0,1403.294881,1.0,-1.21,0.13,-9.47,16.06,-2.75,33.56,-1.06,-0.19,2.38,-0.4465264136929205,0.2858571866963437,0.27350781965418136,-98.50614716044564,-81.17370917960935,1.856464464018338,-0.0505,-0.7576,-0.6506,0.0162
126,1511383.0,1403.331137,1.0,-1.33,0.06,-9.52,16.06,-2.75,33.56,4.25,2.31,-4.94,-0.5286747652703485,0.3991764827163365,0.21686057956888227,-98.41840599370691,-81.26427589274175,1.8450038134157023,-0.0499,-0.7571,-0.6512,0.0161
127,1511383.0,1403.331137,1.0,-1.33,0.06,-9.52,16.06,-2.75,33.56,4.25,2.31,-4.94,-0.5286747652703485,0.3991764827163365,0.21686057956888227,-98.41840599370691,-81.26427589274175,1.8450038134157023,-0.0499,-0.7571,-0.6512,0.0161
128,1511417.0,1403.353523,1.0,-1.15,-0.58,-10.13,16.06,-3.19,32.38,3.94,3.19,-2.94,-1.126456360299516,0.09448473010771312,-0.3421414898335211,-98.24315676541242,-81.4607148625289,1.8908465277120163,-0.0481,-0.7561,-0.6525,0.0165
129,1511417.0,1403.353523,1.0,-1.15,-0.58,-10.13,16.06,-3.19,32.38,3.94,3.19,-2.94,-1.126456360299516,0.09448473010771312,-0.3421414898335211,-98.24315676541242,-81.4607148625289,1.8908465277120163,-0.0481,-0.7561,-0.6525,0.0165
130,1511452.0,1403.392728,1.0,-1.25,0.03,-9.36,16.06,-3.56,31.56,2.63,-0.5,1.37,-0.5213154490163548,0.34557627334338625,0.3842401574003365,-98.27818181792992,-81.41535708644898,1.867925133192117,-0.0488,-0.7563,-0.6522,0.0163
131,1511452.0,1403.392728,1.0,-1.25,0.03,-9.36,16.06,-3.56,31.56,2.63,-0.5,1.37,-0.5213154490163548,0.34557627334338625,0.3842401574003365,-98.27818181792992,-81.41535708644898,1.867925133192117,-0.0488,-0.7563,-0.6522,0.0163
132,1511489.0,1403.452902,1.0,-1.04,-0.55,-9.98,16.06,-4.0,31.56,3.06,7.69,2.19,-1.04161904701332,0.036256798000371626,-0.18825946459735832,-98.38333132200674,-81.33979509600317,1.9137679978932431,-0.0457,-0.7569,-0.6517,0.0167
133,1511489.0,1403.452902,1.0,-1.04,-0.55,-9.98,16.06,-4.0,31.56,3.06,7.69,2.19,-1.04161904701332,0.036256798000371626,-0.18825946459735832,-98.38333132200674,-81.33979509600317,1.9137679978932431,-0.0457,-0.7569,-0.6517,0.0167
134,1511522.0,1403.46939,1.0,-1.06,0.47,-9.47,16.06,-4.0,31.56,-11.06,-1.06,3.38,-0.057286958915845725,0.2585350062749512,0.2696023512321375,-98.4710413426878,-81.24917717727452,1.7189378496716434,-0.0467,-0.7574,-0.6511,0.015
135,1511522.0,1403.46939,1.0,-1.06,0.47,-9.47,16.06,-4.0,31.56,-11.06,-1.06,3.38,-0.057286958915845725,0.2585350062749512,0.2696023512321375,-98.4710413426878,-81.24917717727452,1.7189378496716434,-0.0467,-0.7574,-0.6511,0.015
136,1511559.0,1403.513585,1.0,-0.94,0.0,-9.71,16.06,-2.75,32.75,11.63,3.5,2.31,-0.496465683456865,0.05875942755112844,0.06407492177640073,-98.4534931114122,-81.26427589274175,1.7533192633889718,-0.0458,-0.7573,-0.6512,0.0153
137,1511559.0,1403.513585,1.0,-0.94,0.0,-9.71,16.06,-2.75,32.75,11.63,3.5,2.31,-0.496465683456865,0.05875942755112844,0.06407492177640073,-98.4534931114122,-81.26427589274175,1.7533192633889718,-0.0458,-0.7573,-0.6512,0.0153
138,1511593.0,1403.53486,1.0,-1.07,-0.19,-9.9,15.69,-3.56,32.75,3.63,4.19,-0.75,-0.6817175283757381,0.1664490093213256,-0.1280646883441623,-98.4710413426878,-81.26427589274175,1.7877008349543104,-0.0439,-0.7574,-0.6512,0.0156
139,1511593.0,1403.53486,1.0,-1.07,-0.19,-9.9,15.69,-3.56,32.75,3.63,4.19,-0.75,-0.6817175283757381,0.1664490093213256,-0.1280646883441623,-98.4710413426878,-81.26427589274175,1.7877008349543104,-0.0439,-0.7574,-0.6512,0.0156
140,1511628.0,1403.583506,1.0,-1.23,-0.29,-9.72,15.69,-3.56,32.75,-3.19,-0.88,0.5,-0.7776635364776352,0.3160947532803261,0.0408564566681644,-98.40086710313936,-81.33979509600317,1.9137679978932431,-0.0436,-0.757,-0.6517,0.0167
141,1511628.0,1403.583506,1.0,-1.23,-0.29,-9.72,15.69,-3.56,32.75,-3.19,-0.88,0.5,-0.7776635364776352,0.3160947532803261,0.0408564566681644,-98.40086710313936,-81.33979509600317,1.9137679978932431,-0.0436,-0.757,-0.6517,0.0167
142,1511663.0,1403.587462,1.0,-0.99,0.03,-9.88,15.38,-3.19,31.56,-1.31,3.63,3.0,-0.4526823041131305,0.11761666254128507,-0.11185014126306747,-98.4710413426878,-81.26427589274175,1.79916139442209,-0.0441,-0.7574,-0.6512,0.0157
143,1511663.0,1403.587462,1.0,-0.99,0.03,-9.88,15.38,-3.19,31.56,-1.31,3.63,3.0,-0.4526823041131305,0.11761666254128507,-0.11185014126306747,-98.4710413426878,-81.26427589274175,1.79916139442209,-0.0441,-0.7574,-0.6512,0.0157
144,1511700.0,1403.627524,1.0,-0.82,-0.14,-9.81,16.06,-3.19,33.19,2.06,3.63,0.25,-0.5738839579853727,-0.044132428641712726,-0.02171759240868276,-98.5412654656515,-81.2189848647937,1.7877008349543104,-0.0425,-0.7578,-0.6509,0.0156
145,1511700.0,1403.627524,1.0,-0.82,-0.14,-9.81,16.06,-3.19,33.19,2.06,3.63,0.25,-0.5738839579853727,-0.044132428641712726,-0.02171759240868276,-98.5412654656515,-81.2189848647937,1.7877008349543104,-0.0425,-0.7578,-0.6509,0.0156
146,1511735.0,1403.681669,1.0,-0.99,-0.26,-9.84,16.06,-3.19,33.19,3.06,1.25,-1.56,-0.6874215679331239,0.11264515675733175,-0.06188903354490982,-98.50614716044564,-81.26427589274175,1.8908465277120163,-0.0411,-0.7576,-0.6512,0.0165
147,1511735.0,1403.681669,1.0,-0.99,-0.26,-9.84,16.06,-3.19,33.19,3.06,1.25,-1.56,-0.6874215679331239,0.11264515675733175,-0.06188903354490982,-98.50614716044564,-81.26427589274175,1.8908465277120163,-0.0411,-0.7576,-0.6512,0.0165
148,1511768.0,1403.734565,1.0,-1.13,-0.01,-9.58,15.38,-3.19,31.56,-4.5,-1.0,0.81,-0.4192195611912577,0.2848852488104941,0.17355624178686746,-98.4710413426878,-81.29447844633472,2.142987063023817,-0.0409,-0.7574,-0.6514,0.0187
149,1511768.0,1403.734565,1.0,-1.13,-0.01,-9.58,15.38,-3.19,31.56,-4.5,-1.0,0.81,-0.4192195611912577,0.2848852488104941,0.17355624178686746,-98.4710413426878,-81.29447844633472,2.142987063023817,-0.0409,-0.7574,-0.6514,0.0187
150,1511802.0,1403.751403,1.0,-0.89,-0.26,-9.86,15.38,-3.56,32.0,4.69,2.38,3.0,-0.5957792927930352,-0.013271150960572964,-0.078903647157615,-98.55882930624523,-81.20389126609984,2.3263684457528235,-0.0395,-0.7579,-0.6508,0.0203
151,1511802.0,1403.751403,1.0,-0.89,-0.26,-9.86,15.38,-3.56,32.0,4.69,2.38,3.0,-0.5957792927930352,-0.013271150960572964,-0.078903647157615,-98.55882930624523,-81.20389126609984,2.3263684457528235,-0.0395,-0.7579,-0.6508,0.0203
152,1511837.0,1403.757544,1.0,-0.99,-0.13,-9.72,15.38,-3.56,32.0,-1.56,1.5,0.56,-0.4500589172487453,0.1214816220568537,0.046624939247985615,-98.61153960499006,-81.15862069013602,2.440984806055245,-0.0383,-0.7582,-0.6505,0.0213
153,1511837.0,1403.757544,1.0,-0.99,-0.13,-9.72,15.38,-3.56,32.0,-1.56,1.5,0.56,-0.4500589172487453,0.1214816220568537,0.046624939247985615,-98.61153960499006,-81.15862069013602,2.440984806055245,-0.0383,-0.7582,-0.6505,0.0213
154,1511872.0,1403.803963,1.0,-0.94,-0.34,-9.93,16.5,-3.56,32.0,-2.38,-0.25,1.75,-0.6329209438183414,0.025233505765133085,-0.1534139731410793,-98.64669547249987,-81.12844881454608,2.521217704700676,-0.0375,-0.7584,-0.6503,0.022000000000000002
155,1511872.0,1403.803963,1.0,-0.94,-0.34,-9.93,16.5,-3.56,32.0,-2.38,-0.25,1.75,-0.6329209438183414,0.025233505765133085,-0.1534139731410793,-98.64669547249987,-81.12844881454608,2.521217704700676,-0.0375,-0.7584,-0.6503,0.022000000000000002
156,1511905.0,1403.85623,1.0,-1.03,0.13,-9.51,15.69,-3.56,32.0,-8.0,0.44,0.94,-0.1996767963753268,0.21485247925777015,0.2446487665161801,-98.75223846738031,-81.00782923439904,2.440984806055245,-0.0385,-0.759,-0.6495,0.0213
157,1511905.0,1403.85623,1.0,-1.03,0.13,-9.51,15.69,-3.56,32.0,-8.0,0.44,0.94,-0.1996767963753268,0.21485247925777015,0.2446487665161801,-98.75223846738031,-81.00782923439904,2.440984806055245,-0.0385,-0.759,-0.6495,0.0213
158,1511942.0,1403.9124880000002,1.0,-1.11,-0.26,-9.53,15.69,-3.56,32.0,0.5,0.81,-0.19,-0.5758533281763546,0.25218806635911073,0.2293124720847235,-98.85789490415894,-80.93249704821434,2.4639083675369537,-0.0369,-0.7596,-0.649,0.0215
159,1511942.0,1403.9124880000002,1.0,-1.11,-0.26,-9.53,15.69,-3.56,32.0,0.5,0.81,-0.19,-0.5758533281763546,0.25218806635911073,0.2293124720847235,-98.85789490415894,-80.93249704821434,2.4639083675369537,-0.0369,-0.7596,-0.649,0.0215
160,1511976.0,1403.931613,1.0,-0.91,0.06,-9.78,15.69,-3.56,32.0,-1.12,3.31,2.56,-0.2486999658130672,0.09228252367579352,-0.01219577039626607,-98.91076580586659,-80.8873180100222,2.360753104216733,-0.0371,-0.7599,-0.6487,0.0206
161,1511976.0,1403.931613,1.0,-0.91,0.06,-9.78,15.69,-3.56,32.0,-1.12,3.31,2.56,-0.2486999658130672,0.09228252367579352,-0.01219577039626607,-98.91076580586659,-80.8873180100222,2.360753104216733,-0.0371,-0.7599,-0.6487,0.0206
162,1512013.0,1403.972743,1.0,-0.82,0.12,-9.82,15.0,-3.19,31.56,0.0,0.5,2.94,-0.1615550094741893,0.014944028226655082,-0.046921771440759485,-98.98130473446213,-80.8120533305175,2.4065996467302937,-0.0364,-0.7603,-0.6482,0.021
163,1512013.0,1403.972743,1.0,-0.82,0.12,-9.82,15.0,-3.19,31.56,0.0,0.5,2.94,-0.1615550094741893,0.014944028226655082,-0.046921771440759485,-98.98130473446213,-80.8120533305175,2.4065996467302937,-0.0364,-0.7603,-0.6482,0.021
164,1512048.0,1403.980431,1.0,-0.97,0.01,-9.47,15.69,-3.19,32.0,1.5,0.12,-1.12,-0.2791440443088641,0.17358967439865072,0.2927735436090977,-98.98130473446213,-80.8120533305175,2.452446574526375,-0.0361,-0.7603,-0.6482,0.0214
165,1512048.0,1403.980431,1.0,-0.97,0.01,-9.47,15.69,-3.19,32.0,1.5,0.12,-1.12,-0.2791440443088641,0.17358967439865072,0.2927735436090977,-98.98130473446213,-80.8120533305175,2.452446574526375,-0.0361,-0.7603,-0.6482,0.0214
166,1512083.0,1404.035675,1.0,-1.05,-0.06,-9.64,15.69,-3.19,32.0,1.88,2.19,-0.06,-0.32664671174849913,0.2372135181177261,0.11785587108353646,-98.94602892121195,-80.85720708472816,2.578527672575933,-0.0345,-0.7601,-0.6485,0.0225
167,1512083.0,1404.035675,1.0,-1.05,-0.06,-9.64,15.69,-3.19,32.0,1.88,2.19,-0.06,-0.32664671174849913,0.2372135181177261,0.11785587108353646,-98.94602892121195,-80.85720708472816,2.578527672575933,-0.0345,-0.7601,-0.6485,0.0225
168,1512118.0,1404.0423150000001,1.0,-1.14,-0.25,-9.63,15.69,-3.56,32.0,1.69,1.56,-0.88,-0.5224538718493827,0.3011224850218486,0.12494729847048625,-98.99894740813559,-80.8120533305175,2.589989743099661,-0.0341,-0.7604,-0.6482,0.0226
169,1512118.0,1404.0423150000001,1.0,-1.14,-0.25,-9.63,15.69,-3.56,32.0,1.69,1.56,-0.88,-0.5224538718493827,0.3011224850218486,0.12494729847048625,-98.99894740813559,-80.8120533305175,2.589989743099661,-0.0341,-0.7604,-0.6482,0.0226
170,1512153.0,1404.096353,1.0,-0.88,-0.1,-9.68,15.69,-3.19,32.0,-6.5,0.25,2.25,-0.34066350210799584,0.07484457540071135,0.0924775356124865,-99.0872085325556,-80.72179122194791,2.521217704700676,-0.0339,-0.7609,-0.6476,0.022000000000000002
171,1512153.0,1404.096353,1.0,-0.88,-0.1,-9.68,15.69,-3.19,32.0,-6.5,0.25,2.25,-0.34066350210799584,0.07484457540071135,0.0924775356124865,-99.0872085325556,-80.72179122194791,2.521217704700676,-0.0339,-0.7609,-0.6476,0.022000000000000002
172,1512189.0,1404.114408,1.0,-0.86,0.02,-9.85,15.0,-3.56,32.75,-2.19,3.94,0.5,-0.2496074011762356,0.07054274237792438,-0.07743922798533909,-99.2639704213744,-80.55646739590921,2.360753104216733,-0.0344,-0.7619,-0.6465,0.0206
173,1512189.0,1404.114408,1.0,-0.86,0.02,-9.85,15.0,-3.56,32.75,-2.19,3.94,0.5,-0.2496074011762356,0.07054274237792438,-0.07743922798533909,-99.2639704213744,-80.55646739590921,2.360753104216733,-0.0344,-0.7619,-0.6465,0.0206
174,1512222.0,1404.185474,1.0,-0.77,0.26,-9.75,15.0,-3.56,32.75,-2.94,1.5,3.06,0.008712363821523794,0.03902622330499056,0.022918551896408342,-99.33476502563386,-80.48138700266415,2.349291527927613,-0.0338,-0.7623,-0.6459999999999999,0.0205
175,1512222.0,1404.185474,1.0,-0.77,0.26,-9.75,15.0,-3.56,32.75,-2.94,1.5,3.06,0.008712363821523794,0.03902622330499056,0.022918551896408342,-99.33476502563386,-80.48138700266415,2.349291527927613,-0.0338,-0.7623,-0.6459999999999999,0.0205
176,1512259.0,1404.195449,1.0,-0.82,0.04,-9.68,15.0,-3.19,32.38,10.31,6.56,-2.44,-0.20446029546023448,0.09184692733274624,0.09448442637432207,-99.31706154713407,-80.51141416133366,2.269061145645111,-0.0321,-0.7622,-0.6462,0.0198
177,1512259.0,1404.195449,1.0,-0.82,0.04,-9.68,15.0,-3.19,32.38,10.31,6.56,-2.44,-0.20446029546023448,0.09184692733274624,0.09448442637432207,-99.31706154713407,-80.51141416133366,2.269061145645111,-0.0321,-0.7622,-0.6462,0.0198
178,1512294.0,1404.275437,1.0,-0.77,-0.07,-9.8,15.38,-2.75,32.38,-4.56,-1.31,2.63,-0.29087975385363296,0.03377107054893205,-0.01944019313338252,-99.31706154713407,-80.51141416133366,2.269061145645111,-0.0309,-0.7622,-0.6462,0.0198
179,1512294.0,1404.275437,1.0,-0.77,-0.07,-9.8,15.38,-2.75,32.38,-4.56,-1.31,2.63,-0.29087975385363296,0.03377107054893205,-0.01944019313338252,-99.31706154713407,-80.51141416133366,2.269061145645111,-0.0309,-0.7622,-0.6462,0.0198
180,1512329.0,1404.332567,1.0,-0.94,0.02,-9.68,15.38,-2.75,32.38,-2.31,-0.94,-0.56,-0.24345073909252435,0.21630638030415755,0.08655003716654086,-99.33476502563386,-80.4963997494357,2.2346770389286066,-0.0317,-0.7623,-0.6461,0.0195
181,1512329.0,1404.332567,1.0,-0.94,0.02,-9.68,15.38,-2.75,32.38,-2.31,-0.94,-0.56,-0.24345073909252435,0.21630638030415755,0.08655003716654086,-99.33476502563386,-80.4963997494357,2.2346770389286066,-0.0317,-0.7623,-0.6461,0.0195
182,1512364.0,1404.3504289999998,1.0,-0.74,-0.29,-10.12,15.0,-3.19,32.38,3.06,3.88,0.56,-0.504301904659562,-0.04330013444554545,-0.3318856283495766,-99.35247172605571,-80.4963997494357,2.2346770389286066,-0.0304,-0.7624,-0.6461,0.0195
183,1512364.0,1404.3504289999998,1.0,-0.74,-0.29,-10.12,15.0,-3.19,32.38,3.06,3.88,0.56,-0.504301904659562,-0.04330013444554545,-0.3318856283495766,-99.35247172605571,-80.4963997494357,2.2346770389286066,-0.0304,-0.7624,-0.6461,0.0195
184,1512400.0,1404.353701,1.0,-0.87,-0.22,-9.71,15.38,-3.56,32.75,-5.44,-2.31,0.06,-0.4652501784101026,0.1139132056473283,0.06704189427682827,-99.47650902646944,-80.37634433071155,2.223215714892369,-0.0312,-0.7631,-0.6453,0.0194
185,1512400.0,1404.353701,1.0,-0.87,-0.22,-9.71,15.38,-3.56,32.75,-5.44,-2.31,0.06,-0.4652501784101026,0.1139132056473283,0.06704189427682827,-99.47650902646944,-80.37634433071155,2.223215714892369,-0.0312,-0.7631,-0.6453,0.0194
186,1512435.0,1404.392309,1.0,-0.92,0.04,-9.62,15.38,-3.56,32.75,0.0,-0.19,0.25,-0.22418768266281924,0.20921044826577004,0.14754181801556498,-99.47650902646944,-80.37634433071155,2.200293133435064,-0.0316,-0.7631,-0.6453,0.0192
187,1512435.0,1404.392309,1.0,-0.92,0.04,-9.62,15.38,-3.56,32.75,0.0,-0.19,0.25,-0.22418768266281924,0.20921044826577004,0.14754181801556498,-99.47650902646944,-80.37634433071155,2.200293133435064,-0.0316,-0.7631,-0.6453,0.0192
188,1512468.0,1404.4039289999998,1.0,-0.84,-0.06,-9.83,15.0,-3.56,32.75,-1.0,2.0,-0.88,-0.29738678225304604,0.10090636562587853,-0.05435801171550558,-99.54745870347031,-80.2863724526912,2.2575997541901875,-0.031,-0.7635,-0.6447,0.0197
189,1512468.0,1404.4039289999998,1.0,-0.84,-0.06,-9.83,15.0,-3.56,32.75,-1.0,2.0,-0.88,-0.29738678225304604,0.10090636562587853,-0.05435801171550558,-99.54745870347031,-80.2863724526912,2.2575997541901875,-0.031,-0.7635,-0.6447,0.0197
190,1512503.0,1404.4532570000001,1.0,-0.8,-0.21,-9.76,14.56,-4.0,34.0,7.56,3.94,0.63,-0.40839534528986426,0.055613858642370326,0.02034220080052407,-99.7250605850298,-80.12157851666187,2.337829975144579,-0.0294,-0.7645,-0.6436,0.0204
191,1512503.0,1404.4532570000001,1.0,-0.8,-0.21,-9.76,14.56,-4.0,34.0,7.56,3.94,0.63,-0.40839534528986426,0.055613858642370326,0.02034220080052407,-99.7250605850298,-80.12157851666187,2.337829975144579,-0.0294,-0.7645,-0.6436,0.0204
192,1512538.0,1404.508224,1.0,-0.76,-0.23,-9.79,14.56,-4.0,34.0,-0.44,2.56,0.25,-0.392063901839313,0.03064125422656025,-0.00762261748999471,-99.86737745872108,-80.00185346292129,2.3951379752687134,-0.0276,-0.7653,-0.6428,0.0209
193,1512538.0,1404.508224,1.0,-0.76,-0.23,-9.79,14.56,-4.0,34.0,-0.44,2.56,0.25,-0.392063901839313,0.03064125422656025,-0.00762261748999471,-99.86737745872108,-80.00185346292129,2.3951379752687134,-0.0276,-0.7653,-0.6428,0.0209
194,1512572.0,1404.524273,1.0,-0.71,-0.19,-9.92,14.19,-3.56,32.38,-0.19,1.69,1.63,-0.3357697097590964,-0.010206088878308844,-0.13486671213995827,-99.90298951638178,-79.95698362722979,2.3951379752687134,-0.0269,-0.7655,-0.6425,0.0209
195,1512572.0,1404.524273,1.0,-0.71,-0.19,-9.92,14.19,-3.56,32.38,-0.19,1.69,1.63,-0.3357697097590964,-0.010206088878308844,-0.13486671213995827,-99.90298951638178,-79.95698362722979,2.3951379752687134,-0.0269,-0.7655,-0.6425,0.0209
196,1512607.0,1404.5629509999999,1.0,-0.77,-0.03,-9.52,14.56,-3.56,33.19,0.75,2.75,-0.25,-0.18039441280427135,0.11611724744672793,0.2579236639552587,-100.06340703701152,-79.80752374562414,2.383676327772471,-0.0261,-0.7664,-0.6415,0.0208
197,1512607.0,1404.5629509999999,1.0,-0.77,-0.03,-9.52,14.56,-3.56,33.19,0.75,2.75,-0.25,-0.18039441280427135,0.11611724744672793,0.2579236639552587,-100.06340703701152,-79.80752374562414,2.383676327772471,-0.0261,-0.7664,-0.6415,0.0208
198,1512642.0,1404.614035,1.0,-0.68,-0.3,-10.0,14.56,-3.56,32.75,-1.0,0.44,0.94,-0.4161982346206522,-0.037204260561220136,-0.2122219361260793,-100.2240929390682,-79.6582267018899,2.3951379752687134,-0.025,-0.7673,-0.6405,0.0209
199,1512642.0,1404.614035,1.0,-0.68,-0.3,-10.0,14.56,-3.56,32.75,-1.0,0.44,0.94,-0.4161982346206522,-0.037204260561220136,-0.2122219361260793,-100.2240929390682,-79.6582267018899,2.3951379752687134,-0.025,-0.7673,-0.6405,0.0209
200,1512679.0,1404.620148,1.0,-0.76,0.01,-9.68,14.56,-3.56,32.75,1.37,1.69,-0.12,-0.1325737087219678,0.11818651317834053,0.09848044236152552,-100.24196356728784,-79.64330592338119,2.360753104216733,-0.0252,-0.7674,-0.6404,0.0206
201,1512679.0,1404.620148,1.0,-0.76,0.01,-9.68,14.56,-3.56,32.75,1.37,1.69,-0.12,-0.1325737087219678,0.11818651317834053,0.09848044236152552,-100.24196356728784,-79.64330592338119,2.360753104216733,-0.0252,-0.7674,-0.6404,0.0206
202,1512714.0,1404.675632,1.0,-0.78,-0.25,-9.85,15.0,-3.19,31.56,-1.75,-0.5,-0.06,-0.3782041340406983,0.07849216589262686,-0.06979676049478734,-100.27771483475884,-79.59855330327525,2.4295230620087382,-0.0248,-0.7676,-0.6401,0.0212
203,1512714.0,1404.675632,1.0,-0.78,-0.25,-9.85,15.0,-3.19,31.56,-1.75,-0.5,-0.06,-0.3782041340406983,0.07849216589262686,-0.06979676049478734,-100.27771483475884,-79.59855330327525,2.4295230620087382,-0.0248,-0.7676,-0.6401,0.0212
204,1512751.0,1404.69265,1.0,-0.8,-0.23,-9.61,15.0,-3.19,32.38,5.5,3.81,-0.25,-0.3366646005721006,0.13317481945022494,0.1674632389611812,-100.31347946564678,-79.56872631159283,2.4868320276357756,-0.0233,-0.7678,-0.6399,0.0217
205,1512751.0,1404.69265,1.0,-0.8,-0.23,-9.61,15.0,-3.19,32.38,5.5,3.81,-0.25,-0.3366646005721006,0.13317481945022494,0.1674632389611812,-100.31347946564678,-79.56872631159283,2.4868320276357756,-0.0233,-0.7678,-0.6399,0.0217
206,1512783.0,1404.733845,1.0,-0.68,-0.22,-9.9,15.0,-3.19,32.38,-1.31,0.94,0.56,-0.2998808467443273,0.013219691111493877,-0.11457455735797062,-100.31347946564678,-79.56872631159283,2.452446574526375,-0.0226,-0.7678,-0.6399,0.0214
207,1512783.0,1404.733845,1.0,-0.68,-0.22,-9.9,15.0,-3.19,32.38,-1.31,0.94,0.56,-0.2998808467443273,0.013219691111493877,-0.11457455735797062,-100.31347946564678,-79.56872631159283,2.452446574526375,-0.0226,-0.7678,-0.6399,0.0214
208,1512818.0,1404.783986,1.0,-0.71,-0.37,-10.05,15.0,-3.19,32.38,4.44,3.44,-1.06,-0.43669860359755336,0.02181312770285196,-0.26570416956114506,-100.34925747843585,-79.53890578335522,2.4639083675369537,-0.0215,-0.768,-0.6397,0.0215
209,1512818.0,1404.783986,1.0,-0.71,-0.37,-10.05,15.0,-3.19,32.38,4.44,3.44,-1.06,-0.43669860359755336,0.02181312770285196,-0.26570416956114506,-100.34925747843585,-79.53890578335522,2.4639083675369537,-0.0215,-0.768,-0.6397,0.0215
210,1512853.0,1404.7994410000001,1.0,-0.92,-0.09,-9.5,14.19,-2.75,33.19,-5.5,-2.0,0.56,-0.20926328811136874,0.2976200153004805,0.2687188195635759,-100.3671515088305,-79.52399794108469,2.4868320276357756,-0.0223,-0.7681,-0.6396,0.0217
211,1512853.0,1404.7994410000001,1.0,-0.92,-0.09,-9.5,14.19,-2.75,33.19,-5.5,-2.0,0.56,-0.20926328811136874,0.2976200153004805,0.2687188195635759,-100.3671515088305,-79.52399794108469,2.4868320276357756,-0.0223,-0.7681,-0.6396,0.0217
212,1512890.0,1404.839296,1.0,-0.66,-0.3,-9.87,14.19,-2.75,33.19,3.56,4.38,-0.37,-0.35732527325231755,-0.0008856103772250101,-0.08348740373658359,-100.60007982226091,-79.28569137845204,2.4639083675369537,-0.0212,-0.7694,-0.638,0.0215
213,1512890.0,1404.839296,1.0,-0.66,-0.3,-9.87,14.19,-2.75,33.19,3.56,4.38,-0.37,-0.35732527325231755,-0.0008856103772250101,-0.08348740373658359,-100.60007982226091,-79.28569137845204,2.4639083675369537,-0.0212,-0.7694,-0.638,0.0215
214,1512923.0,1404.8555199999998,1.0,-0.71,-0.12,-9.86,14.56,-4.0,33.19,-5.0,-0.75,1.5,-0.19614750510060536,0.08693640681034864,-0.07727979626088377,-100.65391350970894,-79.24105462662456,2.4180613422720283,-0.0212,-0.7697,-0.6377,0.0211
215,1512923.0,1404.8555199999998,1.0,-0.71,-0.12,-9.86,14.56,-4.0,33.19,-5.0,-0.75,1.5,-0.19614750510060536,0.08693640681034864,-0.07727979626088377,-100.65391350970894,-79.24105462662456,2.4180613422720283,-0.0212,-0.7697,-0.6377,0.0211
216,1512960.0,1404.90505,1.0,-0.73,-0.06,-9.59,15.0,-2.75,34.0,3.31,1.5,0.94,-0.13931458391580276,0.14080334590467455,0.19075868070512847,-100.70777770605257,-79.19643226469245,2.4065996467302937,-0.0208,-0.77,-0.6374,0.021
217,1512960.0,1404.90505,1.0,-0.73,-0.06,-9.59,15.0,-2.75,34.0,3.31,1.5,0.94,-0.13931458391580276,0.14080334590467455,0.19075868070512847,-100.70777770605257,-79.19643226469245,2.4065996467302937,-0.0208,-0.77,-0.6374,0.021
218,1512994.0,1404.921023,1.0,-0.51,-0.29,-10.14,14.56,-3.56,32.75,1.37,4.56,-0.12,-0.3054533041432799,-0.12230809286152315,-0.34497740694360424,-100.86955398800987,-79.03293971760759,2.372214704126748,-0.0192,-0.7709,-0.6363,0.0207
219,1512994.0,1404.921023,1.0,-0.51,-0.29,-10.14,14.56,-3.56,32.75,1.37,4.56,-0.12,-0.3054533041432799,-0.12230809286152315,-0.34497740694360424,-100.86955398800987,-79.03293971760759,2.372214704126748,-0.0192,-0.7709,-0.6363,0.0207
