acc_x,acc_y,acc_z,lin_x,lin_y,lin_z,eul_x,eul_y,eul_z
0.25,-0.7,-9.8,0.0673786642060076,0.0657139122542372,-0.0210476854879928,-97.7540968309242,-82.03659298623278,1.6272548279067642
0.25,-0.7,-9.8,0.0673786642060076,0.0657139122542372,-0.0210476854879928,-97.7540968309242,-82.03659298623278,1.6272548279067642
0.45,-0.86,-10.09,-0.03331815016446,-0.1356692828634559,-0.3289646210556452,-97.77152203051998,-82.0214061143213,1.638715147453804
0.45,-0.86,-10.09,-0.03331815016446,-0.1356692828634559,-0.3289646210556452,-97.77152203051998,-82.0214061143213,1.638715147453804
0.26,-0.75,-9.81,0.0232397490636119,0.0440297765867621,-0.0352868669402237,-97.77152203051998,-82.03659298623278,1.6616358358374437
0.26,-0.75,-9.81,0.0232397490636119,0.0440297765867621,-0.0352868669402237,-97.77152203051998,-82.03659298623278,1.6616358358374437
0.07,-0.9,-9.81,-0.1561427645370304,0.2030863286726876,-0.0414653212271538,-97.77152203051998,-82.03659298623278,1.6730962049034406
0.07,-0.9,-9.81,-0.1561427645370304,0.2030863286726876,-0.0414653212271538,-97.77152203051998,-82.03659298623278,1.6730962049034406
0.3,-0.69,-10.06,0.1011644192607909,0.0195828339594358,-0.2809206824234831,-97.77152203051998,-82.0214061143213,1.6501754833924644
0.3,-0.69,-10.06,0.1011644192607909,0.0195828339594358,-0.2809206824234831,-97.77152203051998,-82.0214061143213,1.6501754833924644
0.23,-0.73,-9.72,0.026954390767134,0.0694909017353094,0.0568477212153464,-97.78895026657293,-82.00622099250181,1.6501754833924644
0.23,-0.73,-9.72,0.026954390767134,0.0694909017353094,0.0568477212153464,-97.78895026657293,-82.00622099250181,1.6501754833924644
0.36,-0.81,-9.92,-0.0149669585391881,-0.0629432638519631,-0.1526629349211496,-97.77152203051998,-82.00622099250181,1.6730962049034406
0.36,-0.81,-9.92,-0.0149669585391881,-0.0629432638519631,-0.1526629349211496,-97.77152203051998,-82.00622099250181,1.6730962049034406
0.17,-0.81,-9.99,-0.0401655984190568,0.123524044637754,-0.2167340859811393,-97.77152203051998,-82.03659298623278,1.6730962049034406
0.17,-0.81,-9.99,-0.0401655984190568,0.123524044637754,-0.2167340859811393,-97.77152203051998,-82.03659298623278,1.6730962049034406
0.18,-0.86,-9.69,-0.1060691758215464,0.0937016132075438,0.0779260683827178,-97.77152203051998,-82.03659298623278,1.6960169933572922
0.18,-0.86,-9.69,-0.1060691758215464,0.0937016132075438,0.0779260683827178,-97.77152203051998,-82.03659298623278,1.6960169933572922
0.2,-0.92,-9.81,-0.1516563068695093,0.0818778101117682,-0.0469176984936794,-97.77152203051998,-82.03659298623278,1.6616358358374437
0.2,-0.92,-9.81,-0.1516563068695093,0.0818778101117682,-0.0469176984936794,-97.77152203051998,-82.03659298623278,1.6616358358374437
0.11,-0.84,-9.92,-0.0754146719037811,0.2063946822344811,-0.1470334318963004,-97.73667466579631,-82.05178160910839,1.5928739664684124
0.11,-0.84,-9.92,-0.0754146719037811,0.2063946822344811,-0.1470334318963004,-97.73667466579631,-82.05178160910839,1.5928739664684124
0.18,-1.14,-9.94,-0.3932655291022917,0.1174830862637302,-0.1917068624080364,-97.5452305573509,-82.23418197710798,1.3865917007687605
0.18,-1.14,-9.94,-0.3932655291022917,0.1174830862637302,-0.1917068624080364,-97.5452305573509,-82.23418197710798,1.3865917007687605
0.07,-0.65,-9.6,-0.0016908998774778,0.2613864216521182,0.1879663957101929,-97.52784465140512,-82.29503842028417,1.2032334798806037
0.07,-0.65,-9.6,-0.0016908998774778,0.2613864216521182,0.1879663957101929,-97.52784465140512,-82.29503842028417,1.2032334798806037
-0.31,-1.1,-9.7,-0.5692131631480006,0.5160362846593127,0.0698228510867515,-97.33679783559198,-82.52350218370225,1.1230152546764245
-0.31,-1.1,-9.7,-0.5692131631480006,0.5160362846593127,0.0698228510867515,-97.33679783559198,-82.52350218370225,1.1230152546764245
-0.37,-0.66,-8.85,-0.2718626716942336,0.5972278759009432,0.94863613954651,-97.33679783559198,-82.55399419971695,0.7448503787209418
-0.37,-0.66,-8.85,-0.2718626716942336,0.5972278759009432,0.94863613954651,-97.33679783559198,-82.55399419971695,0.7448503787209418
-0.77,-0.68,-7.81,-0.5366138347829684,1.0819209745477123,2.0225063350132544,-97.1980818820334,-82.69129653429431,-0.6646347687728765
-0.77,-0.68,-7.81,-0.5366138347829684,1.0819209745477123,2.0225063350132544,-97.1980818820334,-82.69129653429431,-0.6646347687728765
0.54,-0.35,-8.81,-0.2061769590051373,0.1841618645553315,0.9775064702334308,-97.1114810592852,-82.67603357506403,-2.922401528803221
0.54,-0.35,-8.81,-0.2061769590051373,0.1841618645553315,0.9775064702334308,-97.1114810592852,-82.67603357506403,-2.922401528803221
1.28,-0.64,-9.49,-0.645376515047569,0.0903317069619283,0.2315035605692994,-97.18075578145827,-82.14295016552349,-6.512305468988996
1.28,-0.64,-9.49,-0.645376515047569,0.0903317069619283,0.2315035605692994,-97.18075578145827,-82.14295016552349,-6.512305468988996
1.95,-0.34,-7.51,-0.4360705575451084,-0.3813591790007284,2.061806060614636,-97.388865555759,-81.2793763154813,-9.947577287046574
1.95,-0.34,-7.51,-0.4360705575451084,-0.3813591790007284,2.061806060614636,-97.388865555759,-81.2793763154813,-9.947577287046574
2.93,-0.12,-7.89,-0.4964835964024722,-0.2785098728954676,1.4085944935626298,-97.09416978917604,-79.6582267018899,-16.327188391573927
2.93,-0.12,-7.89,-0.4964835964024722,-0.2785098728954676,1.4085944935626298,-97.09416978917604,-79.6582267018899,-16.327188391573927
5.05,0.66,-9.72,-0.0165586132953466,-0.4691507052572231,-1.156749264283066,-96.38693481966624,-78.02648613919355,-21.71884947041321
5.05,0.66,-9.72,-0.0165586132953466,-0.4691507052572231,-1.156749264283066,-96.38693481966624,-78.02648613919355,-21.71884947041321
5.77,0.79,-8.63,-0.1369864605347684,-0.4317340689404257,-0.5947316583830027,-95.32662473165674,-75.81667229763626,-27.89113735405041
5.77,0.79,-8.63,-0.1369864605347684,-0.4317340689404257,-0.5947316583830027,-95.32662473165674,-75.81667229763626,-27.89113735405041
6.95,0.75,-8.51,-0.3542430133657339,-0.6833657351154314,-1.179369441069257,-94.51308235594236,-73.9117794904022,-32.18632560419117
6.95,0.75,-8.51,-0.3542430133657339,-0.6833657351154314,-1.179369441069257,-94.51308235594236,-73.9117794904022,-32.18632560419117
7.81,0.88,-8.81,-0.6410541861829011,-0.0246773658296382,-1.982117558909336,-93.58851254585272,-70.80264683442816,-37.70100746591034
7.81,0.88,-8.81,-0.6410541861829011,-0.0246773658296382,-1.982117558909336,-93.58851254585272,-70.80264683442816,-37.70100746591034
8.75,1.62,-9.02,-0.1744951199484448,0.4280255412156044,-2.855642272301308,-93.38784380135635,-68.08393507833873,-41.26836056402613
8.75,1.62,-9.02,-0.1744951199484448,0.4280255412156044,-2.855642272301308,-93.38784380135635,-68.08393507833873,-41.26836056402613
8.5,1.73,-7.34,0.157594404152328,0.1458321770440198,-1.5543533438917052,-94.09183027952132,-64.60646007520779,-44.679754048391246
8.5,1.73,-7.34,0.157594404152328,0.1458321770440198,-1.5543533438917052,-94.09183027952132,-64.60646007520779,-44.679754048391246
8.15,2.07,-7.1,0.3762538117520127,0.652689990835535,-1.1728686071614849,-94.98688318439542,-62.14201779296097,-46.494530291689
8.15,2.07,-7.1,0.3762538117520127,0.652689990835535,-1.1728686071614849,-94.98688318439542,-62.14201779296097,-46.494530291689
8.01,2.1,-7.05,0.318615740910874,0.8667365272739409,-1.0293941029894729,-96.90394078060578,-59.31312595403664,-47.64442766376834
8.01,2.1,-7.05,0.318615740910874,0.8667365272739409,-1.0293941029894729,-96.90394078060578,-59.31312595403664,-47.64442766376834
8.69,2.74,-7.42,0.8705079972583343,0.9106904278312236,-1.8763701048943613,-99.47650902646944,-56.966262181573775,-47.59432704723895
8.69,2.74,-7.42,0.8705079972583343,0.9106904278312236,-1.8763701048943613,-99.47650902646944,-56.966262181573775,-47.59432704723895
10.27,5.49,-9.73,2.6862851972755664,2.380224326608711,-4.937986448346843,-102.04626885327214,-55.93880786648987,-46.12063959224854
10.27,5.49,-9.73,2.6862851972755664,2.380224326608711,-4.937986448346843,-102.04626885327214,-55.93880786648987,-46.12063959224854
8.79,3.61,-7.72,2.522013105039673,-0.3628200667132384,-2.16842459255258,-105.23498190512574,-58.94424149263559,-39.02347987528319
8.79,3.61,-7.72,2.522013105039673,-0.3628200667132384,-2.16842459255258,-105.23498190512574,-58.94424149263559,-39.02347987528319
5.62,1.06,-6.79,0.3020525572996437,-0.831689702430582,0.9732386266120444,-106.912032231107,-62.08851089054388,-32.639793783943
5.62,1.06,-6.79,0.3020525572996437,-0.831689702430582,0.9732386266120444,-106.912032231107,-62.08851089054388,-32.639793783943
4.06,1.32,-6.75,0.4476548732228777,-0.4169388415307929,1.8433424511919807,-108.11373745608395,-64.67425982878002,-26.78257750270593
4.06,1.32,-6.75,0.4476548732228777,-0.4169388415307929,1.8433424511919807,-108.11373745608395,-64.67425982878002,-26.78257750270593
3.69,2.24,-8.61,0.842726768650987,0.3913288289815329,0.2200722299609445,-108.46588317577202,-65.9810040052897,-23.740958889771715
3.69,2.24,-8.61,0.842726768650987,0.3913288289815329,0.2200722299609445,-108.46588317577202,-65.9810040052897,-23.740958889771715
3.5,1.52,-8.73,0.4264095141772117,-0.219327590165387,0.2912219836461691,-107.86033561317936,-68.13926040565448,-20.285355318851703
3.5,1.52,-8.73,0.4264095141772117,-0.219327590165387,0.2912219836461691,-107.86033561317936,-68.13926040565448,-20.285355318851703
3.45,0.71,-11.06,-0.5010722159851704,-0.5544402920096473,-1.7766018144502065,-106.96978646170278,-70.40949185665009,-16.581911426258042
3.45,0.71,-11.06,-0.5010722159851704,-0.5544402920096473,-1.7766018144502065,-106.96978646170278,-70.40949185665009,-16.581911426258042
1.79,0.61,-9.16,-0.4571500933921584,0.0286616682190444,0.4647020071621828,-106.604670219113,-71.70491441526583,-13.507223821905177
1.79,0.61,-9.16,-0.4571500933921584,0.0286616682190444,0.4647020071621828,-106.604670219113,-71.70491441526583,-13.507223821905177
1.7,0.58,-10.02,-0.3598522462829432,-0.3293275456475442,-0.3613807694520101,-106.05037621061464,-72.99675173267174,-10.200656128703407
1.7,0.58,-10.02,-0.3598522462829432,-0.3293275456475442,-0.3613807694520101,-106.05037621061464,-72.99675173267174,-10.200656128703407
1.16,0.9,-10.15,-0.0247549850689593,-0.1612553961589276,-0.4476897587520892,-105.5943297282315,-73.85442987393886,-7.798243752767076
1.16,0.9,-10.15,-0.0247549850689593,-0.1612553961589276,-0.4476897587520892,-105.5943297282315,-73.85442987393886,-7.798243752767076
-0.14,0.16,-8.2,-0.624539430595323,0.3124401821671957,1.633674309824542,-104.89590236711722,-74.86119614779109,-4.699571210920838
-0.14,0.16,-8.2,-0.624539430595323,0.3124401821671957,1.633674309824542,-104.89590236711722,-74.86119614779109,-4.699571210920838
-0.39,0.04,-9.14,-0.7977909925451969,0.3520266132877879,0.6998993832459188,-104.40841146453567,-75.41056702241764,-3.5299782811888885
-0.39,0.04,-9.14,-0.7977909925451969,0.3520266132877879,0.6998993832459188,-104.40841146453567,-75.41056702241764,-3.5299782811888885
-0.67,-0.08,-9.16,-0.8984760327668976,0.4481386059128648,0.6768738467510094,-104.20296893682892,-75.64249040650832,-2.544141615361497
-0.67,-0.08,-9.16,-0.8984760327668976,0.4481386059128648,0.6768738467510094,-104.20296893682892,-75.64249040650832,-2.544141615361497
-0.96,0.48,-7.65,-0.3296665487795837,0.926816773018578,2.1446117179325457,-104.48323564898185,-75.3381653872281,-2.704611892754087
-0.96,0.48,-7.65,-0.3296665487795837,0.926816773018578,2.1446117179325457,-104.48323564898185,-75.3381653872281,-2.704611892754087
0.13,0.76,-10.12,-0.0946371823346879,0.2679979780359854,-0.3386997173576223,-104.98995994505609,-74.78906078163884,-4.539012581284228
0.13,0.76,-10.12,-0.0946371823346879,0.2679979780359854,-0.3386997173576223,-104.98995994505609,-74.78906078163884,-4.539012581284228
0.6,0.45,-9.82,-0.324561951375878,-0.0098361993138574,-0.0365945255059134,-105.19724163612636,-74.48647019368201,-5.835231869336321
0.6,0.45,-9.82,-0.324561951375878,-0.0098361993138574,-0.0365945255059134,-105.19724163612636,-74.48647019368201,-5.835231869336321
1.23,0.91,-10.72,0.0596294176311346,-0.0731802206204336,-1.0215764931918976,-105.63224214449237,-73.84009584056888,-7.6374510050387485
1.23,0.91,-10.72,0.0596294176311346,-0.0731802206204336,-1.0215764931918976,-105.63224214449237,-73.84009584056888,-7.6374510050387485
1.13,0.8,-9.89,-0.0342425588757449,0.0591183091475858,-0.1795571114455256,-106.1075514891628,-73.25355342465495,-8.326672787534774
1.13,0.8,-9.89,-0.0342425588757449,0.0591183091475858,-0.1795571114455256,-106.1075514891628,-73.25355342465495,-8.326672787534774
1.41,1.06,-9.59,0.2530434505129329,-0.0014282626844854,0.0590468601395013,-106.39399903423676,-72.82578699012866,-9.22311622194562
1.41,1.06,-9.59,0.2530434505129329,-0.0014282626844854,0.0590468601395013,-106.39399903423676,-72.82578699012866,-9.22311622194562
1.64,1.19,-9.8,0.3858098671806113,-0.0247815824866952,-0.1931618292073658,-106.4131295533326,-72.68345997623392,-9.821056182581472
1.64,1.19,-9.8,0.3858098671806113,-0.0247815824866952,-0.1931618292073658,-106.4131295533326,-72.68345997623392,-9.821056182581472
1.73,0.9,-9.81,0.105704257720198,-0.0931931630049262,-0.1943070364175163,-106.64302990624311,-72.37079710684984,-10.304202691653051
1.73,0.9,-9.81,0.105704257720198,-0.0931931630049262,-0.1943070364175163,-106.64302990624311,-72.37079710684984,-10.304202691653051
1.65,1.04,-9.71,0.2043469222181675,0.0629955311813182,-0.0949899600485988,-106.5663277531852,-72.38499549855874,-10.591876570929834
1.65,1.04,-9.71,0.2043469222181675,0.0629955311813182,-0.0949899600485988,-106.5663277531852,-72.38499549855874,-10.591876570929834
1.75,0.83,-10.1,-0.0158236343344415,-0.0200579487549676,-0.4773544385097441,-106.5663277531852,-72.37079710684984,-10.660928195342471
1.75,0.83,-10.1,-0.0158236343344415,-0.0200579487549676,-0.4773544385097441,-106.5663277531852,-72.37079710684984,-10.660928195342471
1.73,0.63,-9.64,-0.145967367692222,-0.1330708301410185,-0.0056069107078844,-106.604670219113,-72.32820965004784,-10.603384906468609
1.73,0.63,-9.64,-0.145967367692222,-0.1330708301410185,-0.0056069107078844,-106.604670219113,-72.32820965004784,-10.603384906468609
1.77,0.73,-9.98,-0.0752948297743169,-0.1012990999657696,-0.354563961971051,-106.681406842105,-72.25725624910815,-10.545844298925708
1.77,0.73,-9.98,-0.0752948297743169,-0.1012990999657696,-0.354563961971051,-106.681406842105,-72.25725624910815,-10.545844298925708
1.43,0.9,-9.29,0.0789119593704602,0.1425247919846798,0.3656511340781297,-106.6622162163593,-72.32820965004784,-10.407757691617306
1.43,0.9,-9.29,0.0789119593704602,0.1425247919846798,0.3656511340781297,-106.6622162163593,-72.32820965004784,-10.407757691617306
1.43,0.49,-9.68,-0.3288516842339452,0.0598464400565773,0.0150375192392822,-106.58549683521667,-72.42759839996175,-10.22366575133618
1.43,0.49,-9.68,-0.3288516842339452,0.0598464400565773,0.0150375192392822,-106.58549683521667,-72.42759839996175,-10.22366575133618
1.52,0.88,-9.62,0.0671899368408562,0.0741261957082964,0.0281434259112405,-106.5088462839978,-72.51283902222842,-10.22366575133618
1.52,0.88,-9.62,0.0671899368408562,0.0741261957082964,0.0281434259112405,-106.5088462839978,-72.51283902222842,-10.22366575133618
1.56,0.63,-9.97,-0.1836290754097274,-0.01122643982267,-0.3026306039655005,-106.45140340836085,-72.59812617311991,-10.074110549810433
1.56,0.63,-9.97,-0.1836290754097274,-0.01122643982267,-0.3026306039655005,-106.45140340836085,-72.59812617311991,-10.074110549810433
1.35,0.71,-9.72,-0.1253558002233497,0.1711243783619218,-0.0300162223784248,-106.45140340836085,-72.59812617311991,-9.993587967554063
1.35,0.71,-9.72,-0.1253558002233497,0.1711243783619218,-0.0300162223784248,-106.45140340836085,-72.59812617311991,-9.993587967554063
1.42,0.8,-9.63,-0.0076581809792292,0.1088352520572434,0.0403100386749919,-106.4131295533326,-72.65501018396799,-9.947577287046574
1.42,0.8,-9.63,-0.0076581809792292,0.1088352520572434,0.0403100386749919,-106.4131295533326,-72.65501018396799,-9.947577287046574
1.66,0.52,-10.1,-0.2457140912583717,-0.1384795224056456,-0.4381754259031378,-106.3557507959232,-72.71191496585868,-9.878564278366849
1.66,0.52,-10.1,-0.2457140912583717,-0.1384795224056456,-0.4381754259031378,-106.3557507959232,-72.71191496585868,-9.878564278366849
1.61,0.63,-9.98,-0.13298154711477,-0.0934118176135556,-0.3206887491708343,-106.29841038740038,-72.79731116496349,-9.775051491876123
1.61,0.63,-9.98,-0.13298154711477,-0.0934118176135556,-0.3206887491708343,-106.29841038740038,-72.79731116496349,-9.775051491876123
1.4,0.87,-9.58,0.0895432667797328,0.1140427768678561,0.0869650129019792,-106.5280024809996,-72.59812617311991,-9.706047414595153
1.4,0.87,-9.58,0.0895432667797328,0.1140427768678561,0.0869650129019792,-106.5280024809996,-72.59812617311991,-9.706047414595153
1.46,0.87,-9.83,0.0947009777818322,0.081661604589922,-0.1684070478139627,-106.5088462839978,-72.640787235407,-9.60254790532585
1.46,0.87,-9.83,0.0947009777818322,0.081661604589922,-0.1684070478139627,-106.5088462839978,-72.640787235407,-9.60254790532585
1.41,0.66,-9.61,-0.0827221527928681,0.0350702876955306,0.0717782946122866,-106.43226434357533,-72.71191496585868,-9.53355259965066
1.41,0.66,-9.61,-0.0827221527928681,0.0350702876955306,0.0717782946122866,-106.43226434357533,-72.71191496585868,-9.53355259965066
1.49,0.6,-9.79,-0.1216377176705115,-0.019591080719898,-0.1134820785156929,-106.24110823664704,-72.89699940259716,-9.51055493545105
1.49,0.6,-9.79,-0.1216377176705115,-0.019591080719898,-0.1134820785156929,-106.24110823664704,-72.89699940259716,-9.51055493545105
1.27,0.71,-9.46,-0.0468397062245629,0.1722870377583417,0.2370772185984577,-106.22201600575642,-72.92549351957825,-9.51055493545105
1.27,0.71,-9.46,-0.0468397062245629,0.1722870377583417,0.2370772185984577,-106.22201600575642,-72.92549351957825,-9.51055493545105
1.44,0.7,-10.1,-0.0701348428647996,0.0928876291592509,-0.4188110161188073,-106.16476472421512,-72.98249746822417,-9.476059158737444
1.44,0.7,-10.1,-0.0701348428647996,0.0928876291592509,-0.4188110161188073,-106.16476472421512,-72.98249746822417,-9.476059158737444
1.44,0.75,-9.85,0.0007288157913905,0.0762026223469873,-0.1759745361214992,-106.22201600575642,-72.92549351957825,-9.499056247386587
1.44,0.75,-9.85,0.0007288157913905,0.0762026223469873,-0.1759745361214992,-106.22201600575642,-72.92549351957825,-9.499056247386587
1.41,0.6,-9.76,-0.1333389482409623,0.0423957257705838,-0.0719188906500196,-106.26020470831196,-72.88275430640832,-9.441564242690683
1.41,0.6,-9.76,-0.1333389482409623,0.0423957257705838,-0.0719188906500196,-106.26020470831196,-72.88275430640832,-9.441564242690683
1.41,0.59,-9.72,-0.1335227629385247,0.0407877317372667,-0.0318004894173764,-106.27930542410908,-72.88275430640832,-9.441564242690683
1.41,0.59,-9.72,-0.1335227629385247,0.0407877317372667,-0.0318004894173764,-106.27930542410908,-72.88275430640832,-9.441564242690683
1.69,0.7,-10.29,-0.013131459907383,-0.1097289389121636,-0.6440909844817178,-106.26020470831196,-72.89699940259716,-9.476059158737444
1.69,0.7,-10.29,-0.013131459907383,-0.1097289389121636,-0.6440909844817178,-106.26020470831196,-72.89699940259716,-9.476059158737444
1.35,0.76,-9.48,0.04712870683956,0.1132690558641075,0.2016799841188845,-106.24110823664704,-72.92549351957825,-9.384074619875276
1.35,0.76,-9.48,0.04712870683956,0.1132690558641075,0.2016799841188845,-106.24110823664704,-72.92549351957825,-9.384074619875276
1.37,0.29,-9.94,-0.4320836125830184,0.0168604331747213,-0.222189388360471,-106.18384425288782,-72.99675173267174,-9.326587364176332
1.37,0.29,-9.94,-0.4320836125830184,0.0168604331747213,-0.222189388360471,-106.18384425288782,-72.99675173267174,-9.326587364176332
1.32,0.9,-9.58,0.1712313233713577,0.1956200712269585,0.09782861830646,-106.1456894229273,-73.01100730919863,-9.3380846266553
1.32,0.9,-9.58,0.1712313233713577,0.1956200712269585,0.09782861830646,-106.1456894229273,-73.01100730919863,-9.3380846266553
1.49,0.39,-9.91,-0.2873955456069331,-0.0740584565724242,-0.2179307466135682,-106.12661834568743,-73.05378191708796,-9.25760576115156
1.49,0.39,-9.91,-0.2873955456069331,-0.0740584565724242,-0.2179307466135682,-106.12661834568743,-73.05378191708796,-9.25760576115156
1.43,0.57,-9.76,-0.1162400566138258,0.0096559134412654,-0.0733193831799923,-106.1456894229273,-73.03952240082316,-9.23461264182475
1.43,0.57,-9.76,-0.1162400566138258,0.0096559134412654,-0.0733193831799923,-106.1456894229273,-73.03952240082316,-9.23461264182475
1.43,0.55,-9.88,-0.1521302723984513,0.0166663441345753,-0.1902684558639436,-106.16476472421512,-73.02526419838799,-9.246109154854068
1.43,0.55,-9.88,-0.1521302723984513,0.0166663441345753,-0.1902684558639436,-106.16476472421512,-73.02526419838799,-9.246109154854068
1.56,0.66,-10.1,-0.0205986127895955,-0.0378569916517508,-0.4343139461006906,-106.03132620370606,-73.16790541524159,-9.21161989509871
1.56,0.66,-10.1,-0.0205986127895955,-0.0378569916517508,-0.4343139461006906,-106.03132620370606,-73.16790541524159,-9.21161989509871
1.44,0.92,-9.69,0.2372548128061075,0.0888032077271626,-0.0296055957080394,-106.03132620370606,-73.18217678230073,-9.17713147157167
1.44,0.92,-9.69,0.2372548128061075,0.0888032077271626,-0.0296055957080394,-106.03132620370606,-73.18217678230073,-9.17713147157167
1.4,0.39,-9.83,-0.2833209800233277,-0.006114362686506,-0.1261588593734437,-105.974201394434,-73.2392754532824,-9.13114820216436
1.4,0.39,-9.83,-0.2833209800233277,-0.006114362686506,-0.1261588593734437,-105.974201394434,-73.2392754532824,-9.13114820216436
1.44,0.48,-10.12,-0.219868737963608,0.0172426027973639,-0.4241740347840519,-105.974201394434,-73.22499880394925,-9.142643881088318
1.44,0.48,-10.12,-0.219868737963608,0.0172426027973639,-0.4241740347840519,-105.974201394434,-73.22499880394925,-9.142643881088318
