acc_x,acc_y,acc_z,lin_x,lin_y,lin_z,eul_x,eul_y,eul_z
-0.42,0.42,-9.73,-0.1053785674599398,0.0352566310241105,0.0591707193095842,-106.98904660999506,-72.88275430640832,-0.1031324170464276
-0.42,0.42,-9.73,-0.1053785674599398,0.0352566310241105,0.0591707193095842,-106.98904660999506,-72.88275430640832,-0.1031324170464276
-0.38,0.49,-9.75,-0.0314423845269697,0.0145290369827609,0.0370133494617821,-106.98904660999506,-72.88275430640832,-0.1145915781247664
-0.38,0.49,-9.75,-0.0314423845269697,0.0145290369827609,0.0370133494617821,-106.98904660999506,-72.88275430640832,-0.1145915781247664
-0.4,0.51,-9.71,-0.0171214541778464,0.0442712658228998,0.0751574674626969,-107.008311133202,-72.86851051764684,-0.1260507403490224
-0.4,0.51,-9.71,-0.0171214541778464,0.0442712658228998,0.0751574674626969,-107.008311133202,-72.86851051764684,-0.1260507403490224
-0.37,0.45,-9.9,-0.0703582958139134,-0.011039170121356,-0.1102208697317017,-107.008311133202,-72.86851051764684,-0.1145915781247664
-0.37,0.45,-9.9,-0.0703582958139134,-0.011039170121356,-0.1102208697317017,-107.008311133202,-72.86851051764684,-0.1145915781247664
-0.38,0.56,-9.68,0.0408230784799274,0.0389977948238916,0.1031860490048544,-107.008311133202,-72.86851051764684,-0.1031324170464276
-0.38,0.56,-9.68,0.0408230784799274,0.0389977948238916,0.1031860490048544,-107.008311133202,-72.86851051764684,-0.1031324170464276
-0.48,0.33,-9.68,-0.1972492622004586,0.0688599101927161,0.111390795557364,-106.98904660999506,-72.89699940259716,-0.0572957819004067
-0.48,0.33,-9.68,-0.1972492622004586,0.0688599101927161,0.111390795557364,-106.98904660999506,-72.89699940259716,-0.0572957819004067
-0.55,0.23,-9.77,-0.3068350944049281,0.1020925474762291,0.0238217107683347,-106.95053068480225,-72.92549351957825,-0.011459155921715
-0.55,0.23,-9.77,-0.3068350944049281,0.1020925474762291,0.0238217107683347,-106.95053068480225,-72.92549351957825,-0.011459155921715
-0.37,0.42,-9.78,-0.0773034645877,-0.0141050632912657,0.0109608858257317,-106.98904660999506,-72.89699940259716,-0.0343774682235114
-0.37,0.42,-9.78,-0.0773034645877,-0.0141050632912657,0.0109608858257317,-106.98904660999506,-72.89699940259716,-0.0343774682235114
-0.38,0.45,-9.73,-0.0537122171345864,0.0047799511493901,0.0589891447077164,-107.008311133202,-72.86851051764684,-0.0458366248327759
-0.38,0.45,-9.73,-0.0537122171345864,0.0047799511493901,0.0589891447077164,-107.008311133202,-72.86851051764684,-0.0458366248327759
-0.31,0.41,-9.9,-0.0766410745086396,-0.0806876725894428,-0.1060598033378479,-107.02758003485113,-72.85426803573273,-0.0458366248327759
-0.31,0.41,-9.9,-0.0766410745086396,-0.0806876725894428,-0.1060598033378479,-107.02758003485113,-72.85426803573273,-0.0458366248327759
-0.43,0.44,-9.81,-0.0846183299435925,0.0408730078804162,-0.0221733850987657,-107.02758003485113,-72.85426803573273,-0.0458366248327759
-0.43,0.44,-9.81,-0.0846183299435925,0.0408730078804162,-0.0221733850987657,-107.02758003485113,-72.85426803573273,-0.0458366248327759
-0.43,0.45,-9.67,-0.0732035336696018,0.0462841298338605,0.1170267347752993,-107.0468533184743,-72.84002686008644,-0.0458366248327759
-0.43,0.45,-9.67,-0.0732035336696018,0.0462841298338605,0.1170267347752993,-107.0468533184743,-72.84002686008644,-0.0458366248327759
-0.39,0.46,-9.8,-0.0569700904553821,0.0043475390884111,-0.0117223451342649,-107.0468533184743,-72.82578699012866,-0.0458366248327759
-0.39,0.46,-9.8,-0.0569700904553821,0.0043475390884111,-0.0117223451342649,-107.0468533184743,-72.82578699012866,-0.0458366248327759
-0.41,0.36,-9.82,-0.1627375442122811,-0.0116098578905499,-0.0271428442134435,-107.0854130457935,-72.79731116496349,-0.0458366248327759
-0.41,0.36,-9.82,-0.1627375442122811,-0.0116098578905499,-0.0271428442134435,-107.0854130457935,-72.79731116496349,-0.0458366248327759
-0.42,0.44,-9.75,-0.1018768830901575,0.0144186194921082,0.0382359422266613,-107.104699496576,-72.7688405556102,-0.0802140978691341
-0.42,0.44,-9.75,-0.1018768830901575,0.0144186194921082,0.0382359422266613,-107.104699496576,-72.7688405556102,-0.0802140978691341
-0.52,0.45,-9.6,-0.1294911247237458,0.109123358107165,0.1835411394844328,-107.14328559013715,-72.72614441111948,-0.1031324170464276
-0.52,0.45,-9.6,-0.1294911247237458,0.109123358107165,0.1835411394844328,-107.14328559013715,-72.72614441111948,-0.1031324170464276
-0.41,0.51,-9.9,-0.0659355598061115,0.0008368946831571,-0.1147335628686594,-107.18188929674672,-72.66923443071872,-0.1489690686936551
-0.41,0.51,-9.9,-0.0659355598061115,0.0008368946831571,-0.1147335628686594,-107.18188929674672,-72.66923443071872,-0.1489690686936551
-0.44,0.47,-9.69,-0.1245078389068672,0.0176931129217517,0.0960998223938975,-107.20119776385688,-72.640787235407,-0.206264917630254
-0.44,0.47,-9.69,-0.1245078389068672,0.0176931129217517,0.0960998223938975,-107.20119776385688,-72.640787235407,-0.206264917630254
-0.45,0.35,-9.82,-0.3042019765646436,-0.0452635432693372,-0.0250747911597297,-107.25914966329704,-72.54126289658385,-0.3666936147093117
-0.45,0.35,-9.82,-0.3042019765646436,-0.0452635432693372,-0.0250747911597297,-107.25914966329704,-72.54126289658385,-0.3666936147093117
-0.52,0.92,-9.6,0.1433848674552284,0.154056330027881,0.1509518156653637,-107.3364808253328,-72.42759839996175,-0.5958787923837214
-0.52,0.92,-9.6,0.1433848674552284,0.154056330027881,0.1509518156653637,-107.3364808253328,-72.42759839996175,-0.5958787923837214
-0.51,0.91,-9.74,0.0527662050443841,0.0835882016133459,0.0114456254013628,-107.375173026576,-72.32820965004784,-0.7792286067117273
-0.51,0.91,-9.74,0.0527662050443841,0.0835882016133459,0.0114456254013628,-107.375173026576,-72.32820965004784,-0.7792286067117273
-0.46,1.28,-9.54,0.3885397769586618,0.1264318976094312,0.17884382117672,-107.39452579488425,-72.2856337588228,-0.8709042326408071
-0.46,1.28,-9.54,0.3885397769586618,0.1264318976094312,0.17884382117672,-107.39452579488425,-72.2856337588228,-0.8709042326408071
-0.38,1.19,-9.9,0.3002763933777533,-0.037586772247061,-0.1672620370159734,-107.23982794355229,-72.42759839996175,-0.7677691897415189
-0.38,1.19,-9.9,0.3002763933777533,-0.037586772247061,-0.1672620370159734,-107.23982794355229,-72.42759839996175,-0.7677691897415189
-1.02,1.28,-9.25,0.3227377319777401,0.6340813988392648,0.43994934630107,-106.87355122081516,-72.82578699012866,-0.3552344019497601
-1.02,1.28,-9.25,0.3227377319777401,0.6340813988392648,0.43994934630107,-106.87355122081516,-72.82578699012866,-0.3552344019497601
-1.19,1.95,-8.48,1.1994032205340712,1.1004875028778538,1.1765075231586,-105.91711433300468,-73.89744006262889,0.4927452222969898
-1.19,1.95,-8.48,1.1994032205340712,1.1004875028778538,1.1765075231586,-105.91711433300468,-73.89744006262889,0.4927452222969898
-0.61,0.32,-8.53,0.0478362893553953,0.3340117710856115,1.2555361645866867,-104.44581567691392,-75.49749569312627,0.8021474641450599
-0.61,0.32,-8.53,0.0478362893553953,0.3340117710856115,1.2555361645866867,-104.44581567691392,-75.49749569312627,0.8021474641450599
0.7,-0.03,-10.15,0.0740840684982874,-0.5630383872900409,-0.351642146086002,-100.97755856330473,-79.01808630319101,-0.5958787923837214
0.7,-0.03,-10.15,0.0740840684982874,-0.5630383872900409,-0.351642146086002,-100.97755856330473,-79.01808630319101,-0.5958787923837214
0.62,-0.15,-9.19,-0.0957162199524453,-0.1759332811969255,0.5967159130585884,-97.58001140346656,-82.35592311764404,-2.016915574628728
0.62,-0.15,-9.19,-0.0957162199524453,-0.1759332811969255,0.5967159130585884,-97.58001140346656,-82.35592311764404,-2.016915574628728
1.41,-0.69,-9.42,-0.5251404319725622,-0.5889947232073338,0.2894070829183111,-95.46283114085506,-84.28858454106421,-3.4726557451993814
1.41,-0.69,-9.42,-0.5251404319725622,-0.5889947232073338,0.2894070829183111,-95.46283114085506,-84.28858454106421,-3.4726557451993814
1.29,-1.72,-9.24,-1.569210765692782,0.2736595237746182,0.4544958076290602,-92.82129439439936,-86.26691017894268,-6.6729995322127
1.29,-1.72,-9.24,-1.569210765692782,0.2736595237746182,0.4544958076290602,-92.82129439439936,-86.26691017894268,-6.6729995322127
2.43,-2.15,-9.72,-1.964848611996882,0.1201429377075788,-0.2497278571836183,-91.61469420099051,-86.36116191059776,-10.22366575133618
2.43,-2.15,-9.72,-1.964848611996882,0.1201429377075788,-0.2497278571836183,-91.61469420099051,-86.36116191059776,-10.22366575133618
4.46,-0.95,-11.63,-0.6842461881672368,0.0700028596902231,-2.6664372984042632,-91.15534914020606,-84.84619121478758,-14.68496232374226
4.46,-0.95,-11.63,-0.6842461881672368,0.0700028596902231,-2.6664372984042632,-91.15534914020606,-84.84619121478758,-14.68496232374226
4.26,-1.82,-9.7,-1.5158331139934993,-0.0867613906728519,-0.8350003622139948,-91.36838194343346,-83.73342264736426,-16.16513427708501
4.26,-1.82,-9.7,-1.5158331139934993,-0.0867613906728519,-0.8350003622139948,-91.36838194343346,-83.73342264736426,-16.16513427708501
4.87,-1.43,-10.98,-1.190491487115036,0.2847633807423869,-2.2276277031317817,-92.5722802515405,-81.67258932855316,-18.15844670797989
4.87,-1.43,-10.98,-1.190491487115036,0.2847633807423869,-2.2276277031317817,-92.5722802515405,-81.67258932855316,-18.15844670797989
4.13,-0.58,-8.25,-0.3818852966394631,-0.1307933875252284,0.5712368143330853,-94.243288843474,-79.85234457633116,-18.76214012304259
4.13,-0.58,-8.25,-0.3818852966394631,-0.1307933875252284,0.5712368143330853,-94.243288843474,-79.85234457633116,-18.76214012304259
5.18,-0.03,-9.85,0.2012842462960591,-0.1129095261669226,-1.3200088017739515,-96.90394078060578,-76.74915654963284,-19.971122857066124
5.18,-0.03,-9.85,0.2012842462960591,-0.1129095261669226,-1.3200088017739515,-96.90394078060578,-76.74915654963284,-19.971122857066124
5.34,-0.06,-9.98,0.1172447370176239,-0.2585628662518657,-1.5087818925897505,-98.85789490415894,-74.87562739127625,-20.4134200209308
5.34,-0.06,-9.98,0.1172447370176239,-0.2585628662518657,-1.5087818925897505,-98.85789490415894,-74.87562739127625,-20.4134200209308
3.97,0.91,-8.9,0.7192085830249599,0.26580618757551,0.0490331759619806,-101.90064026735676,-72.78307520859934,-19.889680039418103
3.97,0.91,-8.9,0.7192085830249599,0.26580618757551,0.0490331759619806,-101.90064026735676,-72.78307520859934,-19.889680039418103
3.29,0.92,-8.0,0.6772088603301654,0.1557208792826243,1.1355693771914606,-104.37102298797171,-71.25314422862833,-18.576333132780547
3.29,0.92,-8.0,0.6772088603301654,0.1557208792826243,1.1355693771914606,-104.37102298797171,-71.25314422862833,-18.576333132780547
3.58,2.08,-9.04,1.6117176377713818,0.2544603774170561,-0.0016126480137366,-106.7390046476622,-69.61206209055514,-17.77559810564146
3.58,2.08,-9.04,1.6117176377713818,0.2544603774170561,-0.0016126480137366,-106.7390046476622,-69.61206209055514,-17.77559810564146
3.19,1.39,-9.18,0.8223767413784249,0.0877984002033308,0.0241867142952418,-107.7825204980392,-69.15215299440362,-16.686140017359815
3.19,1.39,-9.18,0.8223767413784249,0.0877984002033308,0.0241867142952418,-107.7825204980392,-69.15215299440362,-16.686140017359815
2.66,1.5,-9.45,0.6967175068120754,0.3908353271825031,-0.0923364361321201,-107.95770664544784,-69.40285407677956,-15.82955387412607
2.66,1.5,-9.45,0.6967175068120754,0.3908353271825031,-0.0923364361321201,-107.95770664544784,-69.40285407677956,-15.82955387412607
2.0,1.42,-8.93,0.5157013144809808,0.4257788210503052,0.570088705352104,-108.17232459490296,-69.79359069064598,-14.280666944469896
2.0,1.42,-8.93,0.5157013144809808,0.4257788210503052,0.570088705352104,-108.17232459490296,-69.79359069064598,-14.280666944469896
1.66,1.04,-8.91,0.109730885284934,0.3849954737925624,0.6926477168110257,-108.035685474304,-70.26931004748687,-13.2187858542384
1.66,1.04,-8.91,0.109730885284934,0.3849954737925624,0.6926477168110257,-108.035685474304,-70.26931004748687,-13.2187858542384
1.84,0.94,-9.76,0.0424082730177049,0.2021490463427934,-0.1675235147049836,-107.80196748253584,-70.73237044324748,-12.296340166976414
1.84,0.94,-9.76,0.0424082730177049,0.2021490463427934,-0.1675235147049836,-107.80196748253584,-70.73237044324748,-12.296340166976414
1.47,0.06,-9.32,-0.7583366741358171,0.0858400098553189,0.4021586803501851,-107.66593345101973,-71.05589605083351,-11.547444362906596
1.47,0.06,-9.32,-0.7583366741358171,0.0858400098553189,0.4021586803501851,-107.66593345101973,-71.05589605083351,-11.547444362906596
1.4,0.74,-9.18,-0.1417608529706954,0.2836731770119963,0.4964709797443252,-107.56890139317557,-71.1967628126257,-11.420757981123572
1.4,0.74,-9.18,-0.1417608529706954,0.2836731770119963,0.4964709797443252,-107.56890139317557,-71.1967628126257,-11.420757981123572
1.86,0.48,-10.0,-0.3384563697939526,-0.0583119742250102,-0.3703852755312749,-107.64651805195676,-71.08405950295473,-11.489857897732715
1.86,0.48,-10.0,-0.3384563697939526,-0.0583119742250102,-0.3703852755312749,-107.64651805195676,-71.08405950295473,-11.489857897732715
1.74,0.43,-9.75,-0.3813425505429881,0.0221557890060572,-0.0993626680798716,-107.68535335119316,-71.0277375402144,-11.535926836248436
1.74,0.43,-9.75,-0.3813425505429881,0.0221557890060572,-0.0993626680798716,-107.68535335119316,-71.0277375402144,-11.535926836248436
1.7,0.79,-9.37,-0.0203477160660004,0.1026934432675619,0.2515445569836476,-107.72420666963671,-70.98550903019819,-11.570479767497384
1.7,0.79,-9.37,-0.0203477160660004,0.1026934432675619,0.2515445569836476,-107.72420666963671,-70.98550903019819,-11.570479767497384
1.96,0.63,-10.08,-0.1857025332848511,-0.0648147591720921,-0.4795647370218301,-107.74364009530142,-70.94329161439869,-11.616551985135152
1.96,0.63,-10.08,-0.1857025332848511,-0.0648147591720921,-0.4795647370218301,-107.74364009530142,-70.94329161439869,-11.616551985135152
1.66,0.9,-9.24,0.080576476500122,0.1603790118071691,0.3773877805044243,-107.7630780368658,-70.94329161439869,-11.628070333672753
1.66,0.9,-9.24,0.080576476500122,0.1603790118071691,0.3773877805044243,-107.7630780368658,-70.94329161439869,-11.628070333672753
1.89,0.88,-9.76,0.0490455147875371,0.0409639614405904,-0.1733307861208981,-107.80196748253584,-70.85889000761452,-11.754779974813852
1.89,0.88,-9.76,0.0490455147875371,0.0409639614405904,-0.1733307861208981,-107.80196748253584,-70.85889000761452,-11.754779974813852
1.9,1.02,-9.63,0.1951596488381941,0.0884303770470176,-0.059524171373658,-107.86033561317936,-70.76047732673608,-11.89302513102135
1.9,1.02,-9.63,0.1951596488381941,0.0884303770470176,-0.059524171373658,-107.86033561317936,-70.76047732673608,-11.89302513102135
1.74,0.66,-9.64,-0.2072867584645245,0.1118977406704029,-0.0085072119553029,-107.9382233400721,-70.70426845211381,-11.92758912667584
1.74,0.66,-9.64,-0.2072867584645245,0.1118977406704029,-0.0085072119553029,-107.9382233400721,-70.70426845211381,-11.92758912667584
1.81,0.61,-9.54,-0.2181538055736677,0.0061434408740184,0.0797712007526296,-108.15279095507611,-70.49365903494044,-11.904546342091734
1.81,0.61,-9.54,-0.2181538055736677,0.0061434408740184,0.0797712007526296,-108.15279095507611,-70.49365903494044,-11.904546342091734
1.89,0.81,-9.77,-0.0448903868677489,0.0489570175235604,-0.1771713156888026,-108.13326191007236,-70.479628139678,-11.985198208002226
1.89,0.81,-9.77,-0.0448903868677489,0.0489570175235604,-0.1771713156888026,-108.13326191007236,-70.479628139678,-11.985198208002226
1.95,0.59,-9.86,-0.2411409129677743,-0.0574238400437746,-0.2585749633422356,-108.2309531214748,-70.38144582384912,-11.996720388635614
1.95,0.59,-9.86,-0.2411409129677743,-0.0574238400437746,-0.2585749633422356,-108.2309531214748,-70.38144582384912,-11.996720388635614
1.86,1.0,-9.53,0.133990481330455,0.1013326519382887,0.0469226347216036,-108.44628015323634,-70.14324952507593,-12.100425506938455
1.86,1.0,-9.53,0.133990481330455,0.1013326519382887,0.0469226347216036,-108.44628015323634,-70.14324952507593,-12.100425506938455
1.95,0.89,-9.79,0.0074017575922405,0.0219698978018554,-0.2152341810098317,-108.46588317577202,-70.11524930068694,-12.169567773976445
1.95,0.89,-9.79,0.0074017575922405,0.0219698978018554,-0.2152341810098317,-108.46588317577202,-70.11524930068694,-12.169567773976445
1.89,0.86,-9.71,-0.0252655442540092,0.0407561800877436,-0.1227759947923594,-108.58359923261342,-70.0172862891219,-12.111948910357556
1.89,0.86,-9.71,-0.0252655442540092,0.0407561800877436,-0.1227759947923594,-108.58359923261342,-70.0172862891219,-12.111948910357556
1.77,0.85,-9.45,-0.0238468557224532,0.107111835953354,0.1554397970217813,-108.54434186923864,-70.05926324812907,-12.054333120262198
1.77,0.85,-9.45,-0.0238468557224532,0.107111835953354,0.1554397970217813,-108.54434186923864,-70.05926324812907,-12.054333120262198
1.85,0.61,-9.71,-0.2595397691728413,-0.009701722528138,-0.0934128778204108,-108.54434186923864,-70.05926324812907,-12.042810329741007
1.85,0.61,-9.71,-0.2595397691728413,-0.009701722528138,-0.0934128778204108,-108.54434186923864,-70.05926324812907,-12.042810329741007
1.86,1.09,-9.62,0.1766602122642714,0.1159090172264844,-0.0496909168478101,-108.76048947633528,-69.83551038215226,-12.134996086138983
1.86,1.09,-9.62,0.1766602122642714,0.1159090172264844,-0.0496909168478101,-108.76048947633528,-69.83551038215226,-12.134996086138983
1.89,0.81,-9.58,-0.0635080990834454,-0.0213063170901033,0.0086852744969085,-108.9772076529968,-69.63997654209203,-12.088902226339815
1.89,0.81,-9.58,-0.0635080990834454,-0.0213063170901033,0.0086852744969085,-108.9772076529968,-69.63997654209203,-12.088902226339815
1.81,0.86,-9.55,-0.0262764011719287,0.0794770769395266,0.049027700229292,-109.01667267342908,-69.58415236536644,-12.07737906844118
1.81,0.86,-9.55,-0.0262764011719287,0.0794770769395266,0.049027700229292,-109.01667267342908,-69.58415236536644,-12.07737906844118
1.7,0.96,-9.38,0.0498250497969041,0.1807887820017662,0.2274625145858504,-109.01667267342908,-69.58415236536644,-12.07737906844118
1.7,0.96,-9.38,0.0498250497969041,0.1807887820017662,0.2274625145858504,-109.01667267342908,-69.58415236536644,-12.07737906844118
1.7,0.71,-9.57,-0.2077091953778144,0.1273778136734837,0.0639793300687152,-109.19450172299597,-69.40285407677956,-12.07737906844118
1.7,0.71,-9.57,-0.2077091953778144,0.1273778136734837,0.0639793300687152,-109.19450172299597,-69.40285407677956,-12.07737906844118
1.74,0.83,-9.77,-0.1273795163463267,0.1692884759654914,-0.1494795627729068,-109.23407202946328,-69.34710995579182,-12.169567773976445
1.74,0.83,-9.77,-0.1273795163463267,0.1692884759654914,-0.1494795627729068,-109.23407202946328,-69.34710995579182,-12.169567773976445
2.06,0.85,-9.69,0.0049779407786528,-0.1303532099572767,-0.1354414932804477,-109.253864399006,-69.31924492932319,-12.192616183384214
2.06,0.85,-9.69,0.0049779407786528,-0.1303532099572767,-0.1354414932804477,-109.253864399006,-69.31924492932319,-12.192616183384214
1.82,0.99,-9.63,0.0509770042005081,0.1109984392957819,-0.0429429200915034,-109.29346359122704,-69.29138458685418,-12.192616183384214
1.82,0.99,-9.63,0.0509770042005081,0.1109984392957819,-0.0429429200915034,-109.29346359122704,-69.29138458685418,-12.192616183384214
1.87,0.74,-9.74,-0.1491284629004499,0.0229802297874011,-0.1376615704704225,-109.29346359122704,-69.3053141728393,-12.134996086138983
1.87,0.74,-9.74,-0.1491284629004499,0.0229802297874011,-0.1376615704704225,-109.29346359122704,-69.3053141728393,-12.134996086138983
1.61,0.78,-9.39,-0.1646094101726139,0.2064655035790718,0.251396170932221,-109.27366158489086,-69.31924492932319,-12.169567773976445
1.61,0.78,-9.39,-0.1646094101726139,0.2064655035790718,0.251396170932221,-109.27366158489086,-69.31924492932319,-12.169567773976445
1.99,0.67,-9.82,-0.2001195672967172,-0.1050049232557429,-0.2327885363364359,-109.53146516582775,-69.04085162488089,-12.192616183384214
1.99,0.67,-9.82,-0.2001195672967172,-0.1050049232557429,-0.2327885363364359,-109.53146516582775,-69.04085162488089,-12.192616183384214
1.69,0.89,-9.44,-0.0488161890523992,0.1874282496670921,0.1773048700904294,-109.5116049915234,-69.06866999114753,-12.227189726180756
1.69,0.89,-9.44,-0.0488161890523992,0.1874282496670921,0.1773048700904294,-109.5116049915234,-69.06866999114753,-12.227189726180756
1.85,0.73,-9.57,-0.1641039989195582,0.0164891814068615,0.0335697289475227,-109.47189924933484,-69.082580917068,-12.273289521851868
1.85,0.73,-9.57,-0.1641039989195582,0.0164891814068615,0.0335697289475227,-109.47189924933484,-69.082580917068,-12.273289521851868
1.89,1.0,-9.58,0.0940699675838535,0.0808979002446205,-0.0082930141460728,-109.47189924933484,-69.06866999114753,-12.307865676783145
1.89,1.0,-9.58,0.0940699675838535,0.0808979002446205,-0.0082930141460728,-109.47189924933484,-69.06866999114753,-12.307865676783145
1.91,0.74,-9.68,-0.1486263882520483,-0.0076680791555501,-0.0865775520821419,-109.5116049915234,-69.04085162488089,-12.296340166976414
1.91,0.74,-9.68,-0.1486263882520483,-0.0076680791555501,-0.0865775520821419,-109.5116049915234,-69.04085162488089,-12.296340166976414
1.81,0.92,-9.41,0.0269191986842234,0.1074998974768197,0.180730868364586,-109.65072872045307,-68.90182937625673,-12.296340166976414
1.81,0.92,-9.41,0.0269191986842234,0.1074998974768197,0.180730868364586,-109.65072872045307,-68.90182937625673,-12.296340166976414
1.86,0.79,-9.61,-0.105318448444949,0.0626098829377004,-0.0127587412112397,-109.63083923692189,-68.91572639057479,-12.342442956629045
1.86,0.79,-9.61,-0.105318448444949,0.0626098829377004,-0.0127587412112397,-109.63083923692189,-68.91572639057479,-12.342442956629045
1.9,0.87,-9.7,-0.0310844838489522,0.0757951732157503,-0.1155568536480871,-109.63083923692189,-68.90182937625673,-12.365495103087907
1.9,0.87,-9.7,-0.0310844838489522,0.0757951732157503,-0.1155568536480871,-109.63083923692189,-68.90182937625673,-12.365495103087907
1.95,0.75,-9.58,-0.0881649176833495,-0.0106391956018321,0.0018800508983449,-109.5910749517882,-68.94352388945018,-12.342442956629045
1.95,0.75,-9.58,-0.0881649176833495,-0.0106391956018321,0.0018800508983449,-109.5910749517882,-68.94352388945018,-12.342442956629045
1.78,0.63,-9.59,-0.2563971718145719,0.1074689550179414,0.0364856762031422,-109.57120014176904,-68.95742437499436,-12.342442956629045
1.78,0.63,-9.59,-0.2563971718145719,0.1074689550179414,0.0364856762031422,-109.57120014176904,-68.95742437499436,-12.342442956629045
