,TIME,ELAPSED_SECONDS,PSTATE,acc_x,acc_y,acc_z,mag_x,mag_y,mag_z,gyr_x,gyr_y,gyr_z,lin_x,lin_y,lin_z,eul_x,eul_y,eul_z,qua_w,qua_x,qua_y,qua_z
0,518213.0,367.151059,1.0,8.29,3.25,4.04,-27.19,-28.87,-18.56,1.63,0.25,1.12,0.12593618917051005,0.07480958691294637,0.029802675736256386,-65.8990509847622,-7.1781250358345785,-108.25050517877196,-0.2092,-0.5439,-0.0626,-0.8103
1,518213.0,367.151059,1.0,8.29,3.25,4.04,-27.19,-28.87,-18.56,1.63,0.25,1.12,0.12593618917051005,0.07480958691294637,0.029802675736256386,-65.8990509847622,-7.1781250358345785,-108.25050517877196,-0.2092,-0.5439,-0.0626,-0.8103
2,518248.0,367.172789,1.0,8.47,3.26,3.83,-27.19,-28.87,-18.56,-1.06,1.12,0.69,-0.1322185994166423,-0.013109131588062706,-0.043210221984741885,-65.85808871965587,-7.166643396943946,-108.28962313901592,-0.209,-0.5436,-0.0625,-0.8105
3,518248.0,367.172789,1.0,8.47,3.26,3.83,-27.19,-28.87,-18.56,-1.06,1.12,0.69,-0.1322185994166423,-0.013109131588062706,-0.043210221984741885,-65.85808871965587,-7.166643396943946,-108.28962313901592,-0.209,-0.5436,-0.0625,-0.8105
4,518285.0,367.176215,1.0,8.4,3.11,3.92,-26.75,-28.5,-17.37,0.37,-1.12,0.94,0.01753000299367613,-0.10673779689312757,0.029799804680987307,-65.88539584221961,-7.1781250358345785,-108.27006185000631,-0.2087,-0.5438,-0.0626,-0.8104
5,518285.0,367.176215,1.0,8.4,3.11,3.92,-26.75,-28.5,-17.37,0.37,-1.12,0.94,0.01753000299367613,-0.10673779689312757,0.029799804680987307,-65.88539584221961,-7.1781250358345785,-108.27006185000631,-0.2087,-0.5438,-0.0626,-0.8104
6,518318.0,367.216817,1.0,8.29,3.27,4.01,-27.19,-28.87,-17.75,-2.69,-0.44,0.19,0.08883028969053662,0.09889094554730836,0.03529237884406201,-65.88539584221961,-7.1207175606295605,-108.27006185000631,-0.209,-0.5438,-0.0621,-0.8104
7,518318.0,367.216817,1.0,8.29,3.27,4.01,-27.19,-28.87,-17.75,-2.69,-0.44,0.19,0.08883028969053662,0.09889094554730836,0.03529237884406201,-65.88539584221961,-7.1207175606295605,-108.27006185000631,-0.209,-0.5438,-0.0621,-0.8104
8,518352.0,367.224309,1.0,8.45,3.26,3.8,-27.19,-28.87,-17.75,-0.37,0.88,-1.25,-0.15647941735145432,-0.005045273711175025,-0.014021501336275222,-65.84443673875893,-7.1207175606295605,-108.28962313901592,-0.2092,-0.5435,-0.0621,-0.8105
9,518352.0,367.224309,1.0,8.45,3.26,3.8,-27.19,-28.87,-17.75,-0.37,0.88,-1.25,-0.15647941735145432,-0.005045273711175025,-0.014021501336275222,-65.84443673875893,-7.1207175606295605,-108.28962313901592,-0.2092,-0.5435,-0.0621,-0.8105
10,518387.0,367.242865,1.0,8.3,3.33,3.8,-27.19,-29.19,-18.19,-2.44,-0.37,-0.56,-0.12980025690171612,0.11613256596095554,0.09127223480570734,-65.83078581086856,-7.109236280779951,-108.28962313901592,-0.2096,-0.5434,-0.062,-0.8105
11,518387.0,367.242865,1.0,8.3,3.33,3.8,-27.19,-29.19,-18.19,-2.44,-0.37,-0.56,-0.12980025690171612,0.11613256596095554,0.09127223480570734,-65.83078581086856,-7.109236280779951,-108.28962313901592,-0.2096,-0.5434,-0.062,-0.8105
12,518424.0,367.246233,1.0,8.33,3.29,4.0,-26.5,-28.87,-18.19,0.0,0.37,0.56,0.05226453010961973,0.09373732323128836,-0.0015854036353459833,-65.83078581086856,-7.097755072388746,-108.28962313901592,-0.2097,-0.5434,-0.0619,-0.8105
13,518424.0,367.246233,1.0,8.33,3.29,4.0,-26.5,-28.87,-18.19,0.0,0.37,0.56,0.05226453010961973,0.09373732323128836,-0.0015854036353459833,-65.83078581086856,-7.097755072388746,-108.28962313901592,-0.2097,-0.5434,-0.0619,-0.8105
14,518459.0,367.290305,1.0,8.36,3.31,3.94,-26.5,-28.87,-18.19,-0.25,0.31,0.19,-0.017663561353399217,0.0935448037861768,-0.009675043940063688,-65.83078581086856,-7.086273935339353,-108.28962313901592,-0.2097,-0.5434,-0.0618,-0.8105
15,518459.0,367.290305,1.0,8.36,3.31,3.94,-26.5,-28.87,-18.19,-0.25,0.31,0.19,-0.017663561353399217,0.0935448037861768,-0.009675043940063688,-65.83078581086856,-7.086273935339353,-108.28962313901592,-0.2097,-0.5434,-0.0618,-0.8105
16,518494.0,367.29515200000003,1.0,8.4,3.08,3.76,-27.19,-29.56,-19.0,1.94,0.44,-0.37,-0.12719918414623074,-0.15790662530199695,0.10392430743101676,-65.84443673875893,-7.143680335170353,-108.28962313901592,-0.2094,-0.5435,-0.0623,-0.8105
17,518494.0,367.29515200000003,1.0,8.4,3.08,3.76,-27.19,-29.56,-19.0,1.94,0.44,-0.37,-0.12719918414623074,-0.15790662530199695,0.10392430743101676,-65.84443673875893,-7.143680335170353,-108.28962313901592,-0.2094,-0.5435,-0.0623,-0.8105
18,518529.0,367.314135,1.0,8.34,3.29,3.94,-26.06,-28.87,-17.75,-2.06,-0.63,-0.06,-0.0026646394063261913,0.08137822104665382,0.013965460771949269,-65.84443673875893,-7.1207175606295605,-108.28962313901592,-0.2095,-0.5435,-0.0621,-0.8105
19,518529.0,367.314135,1.0,8.34,3.29,3.94,-26.06,-28.87,-17.75,-2.06,-0.63,-0.06,-0.0026646394063261913,0.08137822104665382,0.013965460771949269,-65.84443673875893,-7.1207175606295605,-108.28962313901592,-0.2095,-0.5435,-0.0621,-0.8105
20,518563.0,367.3548,1.0,8.38,3.2,3.89,-27.19,-28.87,-19.0,0.19,0.56,-1.0,-0.03820553442345834,-0.025210672128560985,0.029410882582945774,-65.83078581086856,-7.1207175606295605,-108.28962313901592,-0.2097,-0.5434,-0.0621,-0.8105
21,518563.0,367.3548,1.0,8.38,3.2,3.89,-27.19,-28.87,-19.0,0.19,0.56,-1.0,-0.03820553442345834,-0.025210672128560985,0.029410882582945774,-65.83078581086856,-7.1207175606295605,-108.28962313901592,-0.2097,-0.5434,-0.0621,-0.8105
22,518598.0,367.362139,1.0,8.48,3.27,3.93,-27.19,-28.87,-19.0,-2.31,-0.06,-0.81,-0.05595661352672482,0.001971003885684608,-0.09512079983910304,-65.81713593554738,-7.097755072388746,-108.28962313901592,-0.21,-0.5433,-0.0619,-0.8105
23,518598.0,367.362139,1.0,8.48,3.27,3.93,-27.19,-28.87,-19.0,-2.31,-0.06,-0.81,-0.05595661352672482,0.001971003885684608,-0.09512079983910304,-65.81713593554738,-7.097755072388746,-108.28962313901592,-0.21,-0.5433,-0.0619,-0.8105
24,518635.0,367.421695,1.0,8.76,3.38,3.85,-27.56,-27.69,-19.0,-2.19,-1.56,-1.81,-0.2514491179109213,-0.02893982015198548,-0.3383209623986332,-65.80348711235835,-7.063311874799694,-108.27006185000631,-0.2109,-0.5432,-0.0616,-0.8104
25,518635.0,367.421695,1.0,8.76,3.38,3.85,-27.56,-27.69,-19.0,-2.19,-1.56,-1.81,-0.2514491179109213,-0.02893982015198548,-0.3383209623986332,-65.80348711235835,-7.063311874799694,-108.27006185000631,-0.2109,-0.5432,-0.0616,-0.8104
26,518670.0,367.437994,1.0,9.23,3.75,3.84,-26.5,-28.5,-18.56,-1.63,-5.63,0.81,-0.4990558261248426,0.12104592029058205,-0.8581186879553009,-65.8990509847622,-6.982946893042854,-108.17232459490296,-0.2113,-0.5439,-0.0609,-0.8099
27,518670.0,367.437994,1.0,9.23,3.75,3.84,-26.5,-28.5,-18.56,-1.63,-5.63,0.81,-0.4990558261248426,0.12104592029058205,-0.8581186879553009,-65.8990509847622,-6.982946893042854,-108.17232459490296,-0.2113,-0.5439,-0.0609,-0.8099
28,518705.0,367.478613,1.0,10.03,4.17,3.03,-26.5,-28.5,-18.56,26.25,-26.69,13.56,-1.4741292499838528,0.13749871748429454,-1.3727389393397615,-66.59687161580996,-7.028869316139517,-107.68535335119316,-0.2073,-0.5489999999999999,-0.0613,-0.8074
29,518705.0,367.478613,1.0,10.03,4.17,3.03,-26.5,-28.5,-18.56,26.25,-26.69,13.56,-1.4741292499838528,0.13749871748429454,-1.3727389393397615,-66.59687161580996,-7.028869316139517,-107.68535335119316,-0.2073,-0.5489999999999999,-0.0613,-0.8074
30,518739.0,367.54542299999997,1.0,8.84,3.5,3.85,-27.19,-28.06,-18.19,30.69,-41.38,8.5,0.14576962008065292,0.18285698642398152,-0.4482714789961957,-68.37459501300991,-7.430739554030821,-106.26020470831196,-0.2001,-0.5619,-0.0648,-0.8
31,518739.0,367.54542299999997,1.0,8.84,3.5,3.85,-27.19,-28.06,-18.19,30.69,-41.38,8.5,0.14576962008065292,0.18285698642398152,-0.4482714789961957,-68.37459501300991,-7.430739554030821,-106.26020470831196,-0.2001,-0.5619,-0.0648,-0.8
32,518776.0,367.549522,1.0,9.59,4.59,3.08,-27.56,-28.5,-18.56,-9.88,-21.12,-23.56,-0.941341104186978,0.7342277928165124,-1.197775767563881,-68.97132601860129,-7.396290017779932,-105.46176616813965,-0.2051,-0.5662,-0.0645,-0.7958
33,518776.0,367.549522,1.0,9.59,4.59,3.08,-27.56,-28.5,-18.56,-9.88,-21.12,-23.56,-0.941341104186978,0.7342277928165124,-1.197775767563881,-68.97132601860129,-7.396290017779932,-105.46176616813965,-0.2051,-0.5662,-0.0645,-0.7958
34,518811.0,367.613823,1.0,8.8,4.08,3.36,-27.56,-28.5,-18.56,12.06,-36.19,-23.0,-0.17111011784117192,0.5377223465054235,-0.4431098023388387,-69.79359069064598,-7.694875241065197,-104.35233464317457,-0.2101,-0.5721,-0.0671,-0.7899
35,518811.0,367.613823,1.0,8.8,4.08,3.36,-27.56,-28.5,-18.56,12.06,-36.19,-23.0,-0.17111011784117192,0.5377223465054235,-0.4431098023388387,-69.79359069064598,-7.694875241065197,-104.35233464317457,-0.2101,-0.5721,-0.0671,-0.7899
36,518846.0,367.631057,1.0,8.29,3.68,3.09,-28.25,-29.56,-16.19,13.56,-34.06,-12.0,0.08677703719227997,0.28635493279128266,0.22932936224946945,-71.2954433395492,-8.338162304521468,-102.77787481244587,-0.21100000000000002,-0.5828,-0.0727,-0.7814
37,518846.0,367.631057,1.0,8.29,3.68,3.09,-28.25,-29.56,-16.19,13.56,-34.06,-12.0,0.08677703719227997,0.28635493279128266,0.22932936224946945,-71.2954433395492,-8.338162304521468,-102.77787481244587,-0.21100000000000002,-0.5828,-0.0727,-0.7814
38,518883.0,367.67372,1.0,8.29,3.21,3.02,-27.56,-29.56,-14.56,16.62,-28.44,-10.81,0.3543832041714543,-0.18577216124821194,0.4264313858787716,-72.51283902222842,-8.832292528579133,-101.51944563950941,-0.2111,-0.5914,-0.077,-0.7745
39,518883.0,367.67372,1.0,8.29,3.21,3.02,-27.56,-29.56,-14.56,16.62,-28.44,-10.81,0.3543832041714543,-0.18577216124821194,0.4264313858787716,-72.51283902222842,-8.832292528579133,-101.51944563950941,-0.2111,-0.5914,-0.077,-0.7745
40,518918.0,367.68155,1.0,8.3,2.83,2.68,-28.25,-30.37,-13.38,9.88,-26.62,-5.0,0.2573704057587292,-0.5897500778670985,0.659669333140835,-73.31067854232553,-9.154139652218912,-100.72573922895168,-0.2101,-0.597,-0.0798,-0.7701
41,518918.0,367.68155,1.0,8.3,2.83,2.68,-28.25,-30.37,-13.38,9.88,-26.62,-5.0,0.2573704057587292,-0.5897500778670985,0.659669333140835,-73.31067854232553,-9.154139652218912,-100.72573922895168,-0.2101,-0.597,-0.0798,-0.7701
42,518952.0,367.738848,1.0,8.26,3.26,2.91,-28.25,-30.37,-13.38,-2.5,-28.87,-2.19,0.5535750246060771,-0.1290459242409867,0.4792601270736387,-74.37135736152693,-9.027691221695424,-99.6717457818497,-0.2111,-0.6044,-0.0787,-0.7642
43,518952.0,367.738848,1.0,8.26,3.26,2.91,-28.25,-30.37,-13.38,-2.5,-28.87,-2.19,0.5535750246060771,-0.1290459242409867,0.4792601270736387,-74.37135736152693,-9.027691221695424,-99.6717457818497,-0.2111,-0.6044,-0.0787,-0.7642
44,518987.0,367.74575600000003,1.0,9.08,3.07,2.45,-27.56,-30.37,-11.75,9.13,-16.75,-3.25,0.10855455433536393,-0.7051576510780413,-0.060708744662075986,-74.91892947359995,-9.200123661166053,-99.14020348928251,-0.2102,-0.6082,-0.0802,-0.7612
45,518987.0,367.74575600000003,1.0,9.08,3.07,2.45,-27.56,-30.37,-11.75,9.13,-16.75,-3.25,0.10855455433536393,-0.7051576510780413,-0.060708744662075986,-74.91892947359995,-9.200123661166053,-99.14020348928251,-0.2102,-0.6082,-0.0802,-0.7612
46,519024.0,367.80764,1.0,10.2,4.24,2.26,-28.0,-31.06,-12.19,-16.75,-18.75,-3.5,-0.42473656862392095,-0.1305900488017624,-1.4595714200870162,-75.48300403742995,-8.92424161449454,-98.50614716044564,-0.2126,-0.6121,-0.0778,-0.7576
47,519024.0,367.80764,1.0,10.2,4.24,2.26,-28.0,-31.06,-12.19,-16.75,-18.75,-3.5,-0.42473656862392095,-0.1305900488017624,-1.4595714200870162,-75.48300403742995,-8.92424161449454,-98.50614716044564,-0.2126,-0.6121,-0.0778,-0.7576
48,519059.0,367.825134,1.0,11.34,5.25,2.17,-28.0,-31.06,-12.19,2.5,-30.12,-18.56,-0.7851134187679917,0.2379641733249573,-2.850125654639857,-76.10743471714315,-8.855279263547427,-97.7192555331491,-0.2169,-0.6164,-0.0772,-0.7531
49,519059.0,367.825134,1.0,11.34,5.25,2.17,-28.0,-31.06,-12.19,2.5,-30.12,-18.56,-0.7851134187679917,0.2379641733249573,-2.850125654639857,-76.10743471714315,-8.855279263547427,-97.7192555331491,-0.2169,-0.6164,-0.0772,-0.7531
50,519092.0,367.86723900000004,1.0,11.87,5.71,2.02,-29.06,-30.69,-11.75,5.44,-40.44,-21.5,-0.7545136997521076,0.2797456566668255,-3.4949984483864784,-77.51124498215967,-9.22311622194562,-96.0094493123457,-0.2221,-0.626,-0.0804,-0.7432
51,519092.0,367.86723900000004,1.0,11.87,5.71,2.02,-29.06,-30.69,-11.75,5.44,-40.44,-21.5,-0.7545136997521076,0.2797456566668255,-3.4949984483864784,-77.51124498215967,-9.22311622194562,-96.0094493123457,-0.2221,-0.626,-0.0804,-0.7432
52,519129.0,367.934131,1.0,13.93,7.97,2.42,-28.0,-31.75,-11.75,16.75,-56.0,-34.38,-0.6827474241156217,1.3098121109925245,-6.356284392886731,-78.97353558155666,-9.62554711472919,-94.24328884347399,-0.2273,-0.6359,-0.0839,-0.7328
53,519129.0,367.934131,1.0,13.93,7.97,2.42,-28.0,-31.75,-11.75,16.75,-56.0,-34.38,-0.6827474241156217,1.3098121109925245,-6.356284392886731,-78.97353558155666,-9.62554711472919,-94.24328884347399,-0.2273,-0.6359,-0.0839,-0.7328
54,519165.0,367.952698,1.0,14.86,8.36,2.0,-27.19,-32.19,-9.38,57.69,-78.81,-56.56,-0.2636884884453761,0.7639571702754306,-7.341412217727294,-81.68773616772422,-11.501374957383893,-91.0081013523764,-0.2314,-0.654,-0.1002,-0.7133
55,519165.0,367.952698,1.0,14.86,8.36,2.0,-27.19,-32.19,-9.38,57.69,-78.81,-56.56,-0.2636884884453761,0.7639571702754306,-7.341412217727294,-81.68773616772422,-11.501374957383893,-91.0081013523764,-0.2314,-0.654,-0.1002,-0.7133
56,519198.0,367.995604,1.0,14.55,7.6,1.66,-27.19,-32.19,-9.38,95.0,-125.12,-60.69,0.7611804120691312,-0.15173317114114449,-6.6741170156779335,-85.1414848365832,-13.645704477358525,-87.11781645834128,-0.2311,-0.6765,-0.1188,-0.6891
57,519198.0,367.995604,1.0,14.55,7.6,1.66,-27.19,-32.19,-9.38,95.0,-125.12,-60.69,0.7611804120691312,-0.15173317114114449,-6.6741170156779335,-85.1414848365832,-13.645704477358525,-87.11781645834128,-0.2311,-0.6765,-0.1188,-0.6891
58,519237.0,367.999938,1.0,13.18,6.96,1.71,-27.56,-33.69,-7.0,111.31,-157.19,-65.44,2.7608698598609545,-0.427430143229044,-4.9335332108549625,-91.30279024652515,-16.744050792597328,-80.30136362645774,-0.2273,-0.7151,-0.1456,-0.6448
59,519237.0,367.999938,1.0,13.18,6.96,1.71,-27.56,-33.69,-7.0,111.31,-157.19,-65.44,2.7608698598609545,-0.427430143229044,-4.9335332108549625,-91.30279024652515,-16.744050792597328,-80.30136362645774,-0.2273,-0.7151,-0.1456,-0.6448
60,519272.0,368.060515,1.0,11.55,5.77,1.73,-26.5,-35.19,0.25,136.44,-188.56,-63.19,4.61611727930414,-0.9403942281572828,-2.3381192427381357,-98.89313900458244,-20.180594156388953,-71.90296867479128,-0.2176,-0.7598,-0.1752,-0.5871
61,519272.0,368.060515,1.0,11.55,5.77,1.73,-26.5,-35.19,0.25,136.44,-188.56,-63.19,4.61611727930414,-0.9403942281572828,-2.3381192427381357,-98.89313900458244,-20.180594156388953,-71.90296867479128,-0.2176,-0.7598,-0.1752,-0.5871
62,519307.0,368.06786800000003,1.0,9.38,4.22,0.43,-26.5,-35.19,0.25,146.31,-215.13,-60.63,4.045070853191011,-1.4305073202049827,0.4488323805171088,-105.19724163612636,-22.66472550596455,-64.83708299106056,-0.2073,-0.7944,-0.1965,-0.5361
63,519307.0,368.06786800000003,1.0,9.38,4.22,0.43,-26.5,-35.19,0.25,146.31,-215.13,-60.63,4.045070853191011,-1.4305073202049827,0.4488323805171088,-105.19724163612636,-22.66472550596455,-64.83708299106056,-0.2073,-0.7944,-0.1965,-0.5361
64,519342.0,368.143366,1.0,6.63,2.8,0.25,-24.56,-36.25,6.69,132.19,-216.75,-44.56,3.8912405032605113,-1.251783432366306,3.8778486384904,-113.64933964888505,-25.183180957237052,-55.17465292180053,-0.1933,-0.8370000000000001,-0.218,-0.4631
65,519342.0,368.143366,1.0,6.63,2.8,0.25,-24.56,-36.25,6.69,132.19,-216.75,-44.56,3.8912405032605113,-1.251783432366306,3.8778486384904,-113.64933964888505,-25.183180957237052,-55.17465292180053,-0.1933,-0.8370000000000001,-0.218,-0.4631
66,519378.0,368.146974,1.0,4.43,3.21,-0.63,-19.69,-35.56,16.19,93.56,-199.94,-37.81,2.7429339614300954,0.15774781414948968,5.034090004529594,-119.33290625430892,-26.217494492617092,-48.522767881927,-0.1865,-0.8631,-0.2268,-0.4109
67,519378.0,368.146974,1.0,4.43,3.21,-0.63,-19.69,-35.56,16.19,93.56,-199.94,-37.81,2.7429339614300954,0.15774781414948968,5.034090004529594,-119.33290625430892,-26.217494492617092,-48.522767881927,-0.1865,-0.8631,-0.2268,-0.4109
68,519415.0,368.190497,1.0,3.08,2.6,-1.5,-15.75,-34.06,22.69,89.25,-156.88,-51.94,1.68001937012839,0.18757123912775572,5.852063808469273,-124.6508963314865,-28.292756752714663,-41.24387223496928,-0.1784,-0.8856,-0.2444,-0.3522
69,519415.0,368.190497,1.0,3.08,2.6,-1.5,-15.75,-34.06,22.69,89.25,-156.88,-51.94,1.68001937012839,0.18757123912775572,5.852063808469273,-124.6508963314865,-28.292756752714663,-41.24387223496928,-0.1784,-0.8856,-0.2444,-0.3522
70,519448.0,368.255604,1.0,3.4,2.54,-4.28,-15.75,-34.06,22.69,86.69,-129.88,-41.63,0.3833046337478824,-0.4956597099407498,3.8118690190392392,-127.81886761171008,-29.59457663056109,-36.66126379400549,-0.1713,-0.8981,-0.2554,-0.3145
71,519448.0,368.255604,1.0,3.4,2.54,-4.28,-15.75,-34.06,22.69,86.69,-129.88,-41.63,0.3833046337478824,-0.4956597099407498,3.8118690190392392,-127.81886761171008,-29.59457663056109,-36.66126379400549,-0.1713,-0.8981,-0.2554,-0.3145
72,519487.0,368.274065,1.0,1.48,1.76,-5.17,-10.88,-31.37,27.06,69.62,-114.5,-46.0,-1.2115959854248546,-0.21736550076236816,4.2838167228513315,-130.84513444406196,-31.769115255908964,-31.138159380012002,-0.1613,-0.9094,-0.2737,-0.2684
73,519487.0,368.274065,1.0,1.48,1.76,-5.17,-10.88,-31.37,27.06,69.62,-114.5,-46.0,-1.2115959854248546,-0.21736550076236816,4.2838167228513315,-130.84513444406196,-31.769115255908964,-31.138159380012002,-0.1613,-0.9094,-0.2737,-0.2684
74,519522.0,368.317209,1.0,1.23,3.03,-5.85,-8.0,-29.69,28.37,38.94,-82.37,-38.38,-0.8937485868606774,0.7380104432448578,3.205676280226068,-132.24132459051677,-32.795047946580326,-27.938368456027646,-0.1607,-0.9144,-0.2823,-0.2414
75,519522.0,368.317209,1.0,1.23,3.03,-5.85,-8.0,-29.69,28.37,38.94,-82.37,-38.38,-0.8937485868606774,0.7380104432448578,3.205676280226068,-132.24132459051677,-32.795047946580326,-27.938368456027646,-0.1607,-0.9144,-0.2823,-0.2414
76,519557.0,368.324388,1.0,1.93,2.09,-8.09,-8.0,-29.69,28.37,61.25,-72.19,-34.56,-1.4901328562734677,-0.7889117244165202,1.3984265038188701,-133.53159111803808,-34.23113412634732,-24.67854067669555,-0.1525,-0.9189,-0.2943,-0.2137
77,519557.0,368.324388,1.0,1.93,2.09,-8.09,-8.0,-29.69,28.37,61.25,-72.19,-34.56,-1.4901328562734677,-0.7889117244165202,1.3984265038188701,-133.53159111803808,-34.23113412634732,-24.67854067669555,-0.1525,-0.9189,-0.2943,-0.2137
78,519589.0,368.38118,1.0,0.23,1.85,-7.35,-3.0,-28.06,31.19,40.75,-84.0,-26.44,-2.0260612573556678,0.0943904458390118,2.500209948567517,-134.73735728971755,-35.4802322080149,-21.03082344341432,-0.1479,-0.9229999999999999,-0.3047,-0.1825
79,519589.0,368.38118,1.0,0.23,1.85,-7.35,-3.0,-28.06,31.19,40.75,-84.0,-26.44,-2.0260612573556678,0.0943904458390118,2.500209948567517,-134.73735728971755,-35.4802322080149,-21.03082344341432,-0.1479,-0.9229999999999999,-0.3047,-0.1825
80,519626.0,368.388144,1.0,-0.24,1.39,-7.72,0.0,-27.37,32.06,36.63,-55.56,-19.87,-2.487284548318054,-0.05833101885245263,2.36365913154276,-135.30656135192416,-36.25106819831296,-18.92476206303288,-0.1443,-0.9249,-0.3111,-0.1644
81,519626.0,368.388144,1.0,-0.24,1.39,-7.72,0.0,-27.37,32.06,36.63,-55.56,-19.87,-2.487284548318054,-0.05833101885245263,2.36365913154276,-135.30656135192416,-36.25106819831296,-18.92476206303288,-0.1443,-0.9249,-0.3111,-0.1644
82,519663.0,368.45113599999996,1.0,-0.04,1.85,-7.74,0.0,-27.37,32.06,12.0,-35.13,-17.06,-1.9090020740767997,0.12061950520139107,2.0818288359771437,-135.63926552609757,-36.673335709404434,-17.485694626999518,-0.1432,-0.9259999999999999,-0.3146,-0.152
83,519663.0,368.45113599999996,1.0,-0.04,1.85,-7.74,0.0,-27.37,32.06,12.0,-35.13,-17.06,-1.9090020740767997,0.12061950520139107,2.0818288359771437,-135.63926552609757,-36.673335709404434,-17.485694626999518,-0.1432,-0.9259999999999999,-0.3146,-0.152
84,519696.0,368.470523,1.0,0.53,2.31,-8.43,1.19,-26.19,32.06,8.13,-14.75,-11.38,-1.3551791732627825,-0.05547996995660976,1.1555049092453429,-135.6089218903229,-37.12029440520261,-16.581911426258042,-0.1436,-0.9259,-0.3183,-0.1442
85,519696.0,368.470523,1.0,0.53,2.31,-8.43,1.19,-26.19,32.06,8.13,-14.75,-11.38,-1.3551791732627825,-0.05547996995660976,1.1555049092453429,-135.6089218903229,-37.12029440520261,-16.581911426258042,-0.1436,-0.9259,-0.3183,-0.1442
86,519731.0,368.51599,1.0,0.7,2.73,-8.6,3.06,-25.06,32.88,0.0,-5.69,-7.94,-1.007803279870101,0.0927530938309653,0.8133953381621719,-135.3668779333915,-37.519427463611905,-16.257732621833743,-0.1443,-0.9251,-0.3216,-0.1414
87,519731.0,368.51599,1.0,0.7,2.73,-8.6,3.06,-25.06,32.88,0.0,-5.69,-7.94,-1.007803279870101,0.0927530938309653,0.8133953381621719,-135.3668779333915,-37.519427463611905,-16.257732621833743,-0.1443,-0.9251,-0.3216,-0.1414
88,519768.0,368.520409,1.0,1.89,3.12,-9.27,3.5,-26.19,33.75,-15.81,-1.44,-6.06,-0.13909962473222082,-0.5237235686497148,-0.14049858228428214,-135.18615927411605,-37.640469908070976,-16.234582036054892,-0.1459,-0.9245,-0.3226,-0.1412
89,519768.0,368.520409,1.0,1.89,3.12,-9.27,3.5,-26.19,33.75,-15.81,-1.44,-6.06,-0.13909962473222082,-0.5237235686497148,-0.14049858228428214,-135.18615927411605,-37.640469908070976,-16.234582036054892,-0.1459,-0.9245,-0.3226,-0.1412
90,519800.0,368.58414300000004,1.0,2.1,3.96,-9.11,3.5,-26.19,33.75,-34.5,-5.31,-10.5,0.4386428688532171,-0.20094171191321464,-0.3348940077937677,-134.47008902668762,-37.785778398919184,-16.419805484293857,-0.1566,-0.9221,-0.3238,-0.1428
91,519800.0,368.58414300000004,1.0,2.1,3.96,-9.11,3.5,-26.19,33.75,-34.5,-5.31,-10.5,0.4386428688532171,-0.20094171191321464,-0.3348940077937677,-134.47008902668762,-37.785778398919184,-16.419805484293857,-0.1566,-0.9221,-0.3238,-0.1428
92,519837.0,368.602297,1.0,2.35,4.26,-9.0,3.06,-26.19,32.19,-12.56,-3.5,-6.38,0.8046661119648446,-0.20383496546754154,-0.39046055912939615,-134.2337582296838,-37.79789028318413,-16.396650200988272,-0.161,-0.9213,-0.3239,-0.1426
93,519837.0,368.602297,1.0,2.35,4.26,-9.0,3.06,-26.19,32.19,-12.56,-3.5,-6.38,0.8046661119648446,-0.20383496546754154,-0.39046055912939615,-134.2337582296838,-37.79789028318413,-16.396650200988272,-0.161,-0.9213,-0.3239,-0.1426
94,519874.0,368.646593,1.0,2.86,4.58,-9.27,3.88,-26.19,32.06,-15.75,-9.06,-16.31,1.25449246075478,-0.503898992398979,-0.8357761553166849,-133.64792062272215,-38.197829443298346,-16.223006993376618,-0.1671,-0.9193,-0.3272,-0.1411
95,519874.0,368.646593,1.0,2.86,4.58,-9.27,3.88,-26.19,32.06,-15.75,-9.06,-16.31,1.25449246075478,-0.503898992398979,-0.8357761553166849,-133.64792062272215,-38.197829443298346,-16.223006993376618,-0.1671,-0.9193,-0.3272,-0.1411
96,519909.0,368.711468,1.0,2.19,4.36,-8.86,3.88,-26.19,32.06,-7.69,-19.81,-28.62,0.8598506396117914,-0.281041665204123,-0.26742427310214545,-133.12658560187518,-38.79257320860052,-15.632898017228825,-0.1714,-0.9175,-0.3321,-0.136
97,519909.0,368.711468,1.0,2.19,4.36,-8.86,3.88,-26.19,32.06,-7.69,-19.81,-28.62,0.8598506396117914,-0.281041665204123,-0.26742427310214545,-133.12658560187518,-38.79257320860052,-15.632898017228825,-0.1714,-0.9175,-0.3321,-0.136
98,519942.0,368.728704,1.0,1.99,4.25,-9.03,3.56,-26.56,31.37,-3.81,-17.37,-28.87,0.6941325260299851,-0.4417930657255345,-0.3366482270750595,-132.3546807037213,-39.71719501771099,-14.858287755594214,-0.1763,-0.9148,-0.3397,-0.1293
99,519942.0,368.728704,1.0,1.99,4.25,-9.03,3.56,-26.56,31.37,-3.81,-17.37,-28.87,0.6941325260299851,-0.4417930657255345,-0.3366482270750595,-132.3546807037213,-39.71719501771099,-14.858287755594214,-0.1763,-0.9148,-0.3397,-0.1293
100,519979.0,368.772599,1.0,1.3,3.24,-9.01,6.19,-27.0,31.69,15.25,-23.31,-21.06,-0.25309716790105996,-0.7416753276994961,0.17578505795650656,-132.07176372350168,-40.38800996971994,-14.061267443693245,-0.1758,-0.9138,-0.3452,-0.1224
101,519979.0,368.772599,1.0,1.3,3.24,-9.01,6.19,-27.0,31.69,15.25,-23.31,-21.06,-0.25309716790105996,-0.7416753276994961,0.17578505795650656,-132.07176372350168,-40.38800996971994,-14.061267443693245,-0.1758,-0.9138,-0.3452,-0.1224
102,520013.0,368.789645,1.0,0.42,2.76,-8.86,6.19,-27.0,31.69,9.63,-25.37,-17.75,-0.9502284141458668,-0.5253835644053932,0.5808905152094663,-131.7904095910964,-41.072508978695026,-12.918899554710151,-0.1761,-0.9128,-0.3508,-0.1125
103,520013.0,368.789645,1.0,0.42,2.76,-8.86,6.19,-27.0,31.69,9.63,-25.37,-17.75,-0.9502284141458668,-0.5253835644053932,0.5808905152094663,-131.7904095910964,-41.072508978695026,-12.918899554710151,-0.1761,-0.9128,-0.3508,-0.1125
104,520048.0,368.837679,1.0,-0.05,2.89,-8.82,6.88,-26.19,31.87,-9.63,-15.5,-14.69,-1.1331526572040642,-0.19109032839004447,0.5965224470359729,-131.48269259246572,-41.41533197987328,-12.365495103087909,-0.179,-0.9117,-0.3536,-0.1077
105,520048.0,368.837679,1.0,-0.05,2.89,-8.82,6.88,-26.19,31.87,-9.63,-15.5,-14.69,-1.1331526572040642,-0.19109032839004447,0.5965224470359729,-131.48269259246572,-41.41533197987328,-12.365495103087909,-0.179,-0.9117,-0.3536,-0.1077
106,520085.0,368.855992,1.0,0.13,3.87,-8.52,7.25,-26.19,31.69,-13.25,-14.0,-6.31,-0.31125819415045164,0.2812113495498756,0.4574126774448271,-131.0660093808112,-41.56237468767145,-12.042810329741009,-0.1864,-0.9102,-0.3548,-0.1049
107,520085.0,368.855992,1.0,0.13,3.87,-8.52,7.25,-26.19,31.69,-13.25,-14.0,-6.31,-0.31125819415045164,0.2812113495498756,0.4574126774448271,-131.0660093808112,-41.56237468767145,-12.042810329741009,-0.1864,-0.9102,-0.3548,-0.1049
108,520120.0,368.899242,1.0,0.26,3.85,-8.58,8.0,-26.56,31.37,-0.94,-7.69,-5.44,-0.2267288332372616,0.10802631644470262,0.40221358141891095,-130.90026578643878,-41.67270371214475,-11.812380025110386,-0.1886,-0.9096,-0.3557,-0.1029
109,520120.0,368.899242,1.0,0.26,3.85,-8.58,8.0,-26.56,31.37,-0.94,-7.69,-5.44,-0.2267288332372616,0.10802631644470262,0.40221358141891095,-130.90026578643878,-41.67270371214475,-11.812380025110386,-0.1886,-0.9096,-0.3557,-0.1029
110,520153.0,368.922433,1.0,0.61,3.96,-8.92,8.0,-26.56,31.37,-3.19,-2.63,-3.63,-0.000989269210339372,-0.1843597885659347,0.029835053929557983,-130.76254599505174,-41.77080790377483,-11.674144907935558,-0.1899,-0.9091,-0.3565,-0.1017
111,520153.0,368.922433,1.0,0.61,3.96,-8.92,8.0,-26.56,31.37,-3.19,-2.63,-3.63,-0.000989269210339372,-0.1843597885659347,0.029835053929557983,-130.76254599505174,-41.77080790377483,-11.674144907935558,-0.1899,-0.9091,-0.3565,-0.1017
112,520189.0,368.96356000000003,1.0,0.53,4.01,-9.02,8.38,-25.5,31.25,-2.06,-0.69,-1.69,-0.057738745541522814,-0.1409127407779276,-0.0775904784965551,-130.65262969629032,-41.881213444145885,-11.639588800101585,-0.1906,-0.9087,-0.3574,-0.1014
113,520189.0,368.96356000000003,1.0,0.53,4.01,-9.02,8.38,-25.5,31.25,-2.06,-0.69,-1.69,-0.057738745541522814,-0.1409127407779276,-0.0775904784965551,-130.65262969629032,-41.881213444145885,-11.639588800101585,-0.1906,-0.9087,-0.3574,-0.1014
114,520224.0,369.01996,1.0,0.62,3.96,-8.93,8.0,-26.19,29.69,1.75,-0.63,-2.38,0.012295207943534114,-0.21693834864260664,0.020757777992349347,-130.62518646665285,-41.89348323735908,-11.593515641253694,-0.1907,-0.9086,-0.3575,-0.10099999999999999
115,520224.0,369.01996,1.0,0.62,3.96,-8.93,8.0,-26.19,29.69,1.75,-0.63,-2.38,0.012295207943534114,-0.21693834864260664,0.020757777992349347,-130.62518646665285,-41.89348323735908,-11.593515641253694,-0.1907,-0.9086,-0.3575,-0.10099999999999999
116,520259.0,369.02841800000004,1.0,0.48,3.98,-8.9,8.0,-26.19,29.69,-2.56,2.31,-3.44,-0.07229389469809755,-0.1052777870581434,0.046297025832441115,-130.51555621027464,-42.00393403253583,-11.628070333672753,-0.191,-0.9082,-0.3584,-0.1013
117,520259.0,369.02841800000004,1.0,0.48,3.98,-8.9,8.0,-26.19,29.69,-2.56,2.31,-3.44,-0.07229389469809755,-0.1052777870581434,0.046297025832441115,-130.51555621027464,-42.00393403253583,-11.628070333672753,-0.191,-0.9082,-0.3584,-0.1013
118,520292.0,369.09152,1.0,0.43,3.79,-8.92,8.75,-26.19,30.06,3.19,3.31,-1.88,-0.2245619526095848,-0.18079733793496544,0.10962549492444572,-130.46082634681812,-42.12670509670736,-11.662626087112969,-0.1897,-0.9079999999999999,-0.3594,-0.1016
119,520292.0,369.09152,1.0,0.43,3.79,-8.92,8.75,-26.19,30.06,3.19,3.31,-1.88,-0.2245619526095848,-0.18079733793496544,0.10962549492444572,-130.46082634681812,-42.12670509670736,-11.662626087112969,-0.1897,-0.9079999999999999,-0.3594,-0.1016
120,520329.0,369.10879500000004,1.0,0.3,3.55,-8.66,9.5,-26.56,30.87,0.56,4.19,-0.69,-0.3856301892443711,-0.16661884104602365,0.4518850366804071,-130.40615307468192,-42.22495842729175,-11.731740790019305,-0.18899999999999997,-0.9078,-0.3602,-0.1022
121,520329.0,369.10879500000004,1.0,0.3,3.55,-8.66,9.5,-26.56,30.87,0.56,4.19,-0.69,-0.3856301892443711,-0.16661884104602365,0.4518850366804071,-130.40615307468192,-42.22495842729175,-11.731740790019305,-0.18899999999999997,-0.9078,-0.3602,-0.1022
122,520361.0,369.111812,1.0,0.78,3.88,-8.87,9.5,-26.56,30.87,-7.56,10.56,-1.31,0.05112072797830247,-0.3241743015796097,0.0993332907663742,-130.26971625278716,-42.26181180963939,-12.00824269100582,-0.1892,-0.9073,-0.3605,-0.1046
123,520361.0,369.111812,1.0,0.78,3.88,-8.87,9.5,-26.56,30.87,-7.56,10.56,-1.31,0.05112072797830247,-0.3241743015796097,0.0993332907663742,-130.26971625278716,-42.26181180963939,-12.00824269100582,-0.1892,-0.9073,-0.3605,-0.1046
124,520396.0,369.155359,1.0,1.05,4.49,-9.15,9.19,-27.0,30.06,-9.25,3.94,-2.31,0.4432731401643494,-0.2106387559155736,-0.4278133585603872,-129.9436888935972,-42.34782086095775,-12.411600904099073,-0.1919,-0.9061,-0.3612,-0.1081
125,520396.0,369.155359,1.0,1.05,4.49,-9.15,9.19,-27.0,30.06,-9.25,3.94,-2.31,0.4432731401643494,-0.2106387559155736,-0.4278133585603872,-129.9436888935972,-42.34782086095775,-12.411600904099073,-0.1919,-0.9061,-0.3612,-0.1081
126,520431.0,369.22114300000004,1.0,1.15,4.51,-9.01,8.0,-26.56,30.06,-1.44,4.69,-2.0,0.5474062117608344,-0.22949336445704335,-0.31710321879172554,-129.86249210271768,-42.384689535903355,-12.561458728935325,-0.1923,-0.9058,-0.3615,-0.1094
127,520431.0,369.22114300000004,1.0,1.15,4.51,-9.01,8.0,-26.56,30.06,-1.44,4.69,-2.0,0.5474062117608344,-0.22949336445704335,-0.31710321879172554,-129.86249210271768,-42.384689535903355,-12.561458728935325,-0.1923,-0.9058,-0.3615,-0.1094
128,520468.0,369.239999,1.0,1.28,4.42,-9.06,8.0,-27.0,30.37,1.37,2.88,-4.75,0.5298952423026623,-0.3639441205347631,-0.3346100651651405,-129.78141812262746,-42.421562810614134,-12.838176201349,-0.1915,-0.9055,-0.3618,-0.1118
129,520468.0,369.239999,1.0,1.28,4.42,-9.06,8.0,-27.0,30.37,1.37,2.88,-4.75,0.5298952423026623,-0.3639441205347631,-0.3346100651651405,-129.78141812262746,-42.421562810614134,-12.838176201349,-0.1915,-0.9055,-0.3618,-0.1118
130,520501.0,369.287566,1.0,1.06,4.09,-8.95,8.0,-27.0,30.37,5.56,-0.5,-4.88,0.21136950213992467,-0.37002472945576415,-0.08135306599650782,-129.7004663573504,-42.59369907468167,-12.918899554710151,-0.1898,-0.9052,-0.3632,-0.1125
131,520501.0,369.287566,1.0,1.06,4.09,-8.95,8.0,-27.0,30.37,5.56,-0.5,-4.88,0.21136950213992467,-0.37002472945576415,-0.08135306599650782,-129.7004663573504,-42.59369907468167,-12.918899554710151,-0.1898,-0.9052,-0.3632,-0.1125
132,520538.0,369.30634,1.0,1.02,3.85,-9.01,8.38,-26.19,31.25,6.06,0.56,-2.19,0.0414552913330204,-0.4993255876961211,-0.03164026895895411,-129.64656611878056,-42.76593619701882,-12.838176201349,-0.1883,-0.905,-0.3646,-0.1118
133,520538.0,369.30634,1.0,1.02,3.85,-9.01,8.38,-26.19,31.25,6.06,0.56,-2.19,0.0414552913330204,-0.4993255876961211,-0.03164026895895411,-129.64656611878056,-42.76593619701882,-12.838176201349,-0.1883,-0.905,-0.3646,-0.1118
134,520572.0,369.36722599999996,1.0,1.12,3.99,-8.89,7.25,-26.56,30.87,5.75,2.0,-1.25,0.24982937203710764,-0.4147706994777571,0.01011231815942537,-129.75442065073912,-42.75363018855425,-12.849707716341904,-0.1867,-0.9054,-0.3645,-0.1119
135,520572.0,369.36722599999996,1.0,1.12,3.99,-8.89,7.25,-26.56,30.87,5.75,2.0,-1.25,0.24982937203710764,-0.4147706994777571,0.01011231815942537,-129.75442065073912,-42.75363018855425,-12.849707716341904,-0.1867,-0.9054,-0.3645,-0.1119
136,520605.0,369.376315,1.0,1.17,3.92,-9.15,7.25,-26.56,30.87,6.63,-3.56,1.12,0.17103659252376702,-0.4959050040119428,-0.20247707038000406,-129.9166096140095,-42.76593619701882,-12.907367253850758,-0.1833,-0.9059999999999999,-0.3646,-0.1124
137,520605.0,369.376315,1.0,1.17,3.92,-9.15,7.25,-26.56,30.87,6.63,-3.56,1.12,0.17103659252376702,-0.4959050040119428,-0.20247707038000406,-129.9166096140095,-42.76593619701882,-12.907367253850758,-0.1833,-0.9059999999999999,-0.3646,-0.1124
138,520640.0,369.421134,1.0,0.9,3.6,-9.17,8.0,-26.56,30.87,12.25,-4.69,4.25,-0.17601204469437634,-0.4848635553839678,-0.07225819335734585,-130.2152395796288,-42.64289936464318,-12.711338126294773,-0.1807,-0.9071,-0.3636,-0.1107
139,520640.0,369.421134,1.0,0.9,3.6,-9.17,8.0,-26.56,30.87,12.25,-4.69,4.25,-0.17601204469437634,-0.4848635553839678,-0.07225819335734585,-130.2152395796288,-42.64289936464318,-12.711338126294773,-0.1807,-0.9071,-0.3636,-0.1107
140,520677.0,369.439592,1.0,0.96,3.63,-9.21,8.75,-25.5,30.87,0.63,-3.63,4.31,-0.0946339784040376,-0.4928198041296412,-0.1266663168595965,-130.40615307468192,-42.569102018017894,-12.572987144073346,-0.1791,-0.9078,-0.363,-0.1095
141,520677.0,369.439592,1.0,0.96,3.63,-9.21,8.75,-25.5,30.87,0.63,-3.63,4.31,-0.0946339784040376,-0.4928198041296412,-0.1266663168595965,-130.40615307468192,-42.569102018017894,-12.572987144073346,-0.1791,-0.9078,-0.363,-0.1095
142,520710.0,369.486012,1.0,0.92,4.04,-9.05,8.75,-25.5,30.87,-3.44,-7.69,2.0,0.1918874438802738,-0.1708676685308772,-0.1434496702913446,-130.51555621027464,-42.43385492531204,-12.457708722341449,-0.1801,-0.9082,-0.3619,-0.1085
143,520710.0,369.486012,1.0,0.92,4.04,-9.05,8.75,-25.5,30.87,-3.44,-7.69,2.0,0.1918874438802738,-0.1708676685308772,-0.1434496702913446,-130.51555621027464,-42.43385492531204,-12.457708722341449,-0.1801,-0.9082,-0.3619,-0.1085
144,520744.0,369.54826,1.0,0.7,4.18,-9.05,8.0,-25.87,32.06,-1.44,-7.75,-0.63,0.14937281815348258,0.034703951645215884,-0.18541602244686567,-130.54294242265092,-42.396980116115046,-12.204140573704526,-0.1816,-0.9083,-0.3616,-0.1063
145,520744.0,369.54826,1.0,0.7,4.18,-9.05,8.0,-25.87,32.06,-1.44,-7.75,-0.63,0.14937281815348258,0.034703951645215884,-0.18541602244686567,-130.54294242265092,-42.396980116115046,-12.204140573704526,-0.1816,-0.9083,-0.3616,-0.1063
146,520779.0,369.558897,1.0,0.41,3.86,-8.82,7.69,-25.87,30.5,-1.31,-5.13,-2.75,-0.15854801591079493,0.05635316287782378,0.17172463196084564,-130.57034285366944,-42.384689535903355,-12.019765115233204,-0.1823,-0.9084,-0.3615,-0.1047
147,520779.0,369.558897,1.0,0.41,3.86,-8.82,7.69,-25.87,30.5,-1.31,-5.13,-2.75,-0.15854801591079493,0.05635316287782378,0.17172463196084564,-130.57034285366944,-42.384689535903355,-12.019765115233204,-0.1823,-0.9084,-0.3615,-0.1047
148,520816.0,369.624343,1.0,0.53,4.11,-8.83,8.38,-26.19,31.56,-2.44,-2.13,-0.94,0.07580714104836582,0.10553931660981863,0.05344464329722953,-130.4881841928668,-42.384689535903355,-11.962154211464537,-0.1839,-0.9081,-0.3615,-0.1042
149,520816.0,369.624343,1.0,0.53,4.11,-8.83,8.38,-26.19,31.56,-2.44,-2.13,-0.94,0.07580714104836582,0.10553931660981863,0.05344464329722953,-130.4881841928668,-42.384689535903355,-11.962154211464537,-0.1839,-0.9081,-0.3615,-0.1042
150,520849.0,369.644802,1.0,0.55,4.04,-8.92,8.38,-26.19,31.56,-5.06,0.81,-5.81,0.012456912530203534,-0.0002467087522246558,-0.0010176516114182024,-130.3242488651211,-42.48302850521899,-11.962154211464537,-0.1849,-0.9075,-0.3623,-0.1042
151,520849.0,369.644802,1.0,0.55,4.04,-8.92,8.38,-26.19,31.56,-5.06,0.81,-5.81,0.012456912530203534,-0.0002467087522246558,-0.0010176516114182024,-130.3242488651211,-42.48302850521899,-11.962154211464537,-0.1849,-0.9075,-0.3623,-0.1042
152,520886.0,369.647938,1.0,0.46,3.95,-8.8,10.25,-26.19,30.75,-5.19,3.13,-8.75,-0.08400787256013542,0.00769018095216123,0.1502022298070269,-129.83545382657294,-42.95058853731749,-12.07737906844118,-0.18600000000000003,-0.9057,-0.3661,-0.1052
153,520886.0,369.647938,1.0,0.46,3.95,-8.8,10.25,-26.19,30.75,-5.19,3.13,-8.75,-0.08400787256013542,0.00769018095216123,0.1502022298070269,-129.83545382657294,-42.95058853731749,-12.07737906844118,-0.18600000000000003,-0.9057,-0.3661,-0.1052
154,520921.0,369.693195,1.0,0.59,4.0,-8.86,9.19,-26.19,29.56,-2.19,3.81,-2.94,0.0034798988791751033,-0.07370370591100682,0.06795113136057472,-129.64656611878056,-43.11071528826148,-12.181091916848366,-0.1865,-0.905,-0.3674,-0.1061
155,520921.0,369.693195,1.0,0.59,4.0,-8.86,9.19,-26.19,29.56,-2.19,3.81,-2.94,0.0034798988791751033,-0.07370370591100682,0.06795113136057472,-129.64656611878056,-43.11071528826148,-12.181091916848366,-0.1865,-0.905,-0.3674,-0.1061
156,520953.0,369.745874,1.0,0.53,3.95,-8.9,9.19,-26.19,29.56,-0.12,3.0,-1.12,-0.09909207413628808,-0.06438084913407449,0.05578153267319763,-129.53892711088812,-43.19697398702748,-12.307865676783145,-0.1862,-0.9046,-0.3681,-0.1072
157,520953.0,369.745874,1.0,0.53,3.95,-8.9,9.19,-26.19,29.56,-0.12,3.0,-1.12,-0.09909207413628808,-0.06438084913407449,0.05578153267319763,-129.53892711088812,-43.19697398702748,-12.307865676783145,-0.1862,-0.9046,-0.3681,-0.1072
158,520990.0,369.811796,1.0,0.68,3.84,-8.96,9.19,-25.87,31.25,0.25,7.13,-0.37,-0.0977436796055824,-0.23989070344805266,0.03820597735768239,-129.43150224575868,-43.32024532286975,-12.457708722341449,-0.1855,-0.9042,-0.3691,-0.1085
159,520990.0,369.811796,1.0,0.68,3.84,-8.96,9.19,-25.87,31.25,0.25,7.13,-0.37,-0.0977436796055824,-0.23989070344805266,0.03820597735768239,-129.43150224575868,-43.32024532286975,-12.457708722341449,-0.1855,-0.9042,-0.3691,-0.1085
160,521025.0,369.820225,1.0,0.68,3.77,-8.8,8.75,-26.56,30.06,1.56,6.56,3.0,-0.11530798708340352,-0.2021369361486716,0.2118000935575246,-129.51205087236005,-43.25860308220909,-12.699808169946316,-0.184,-0.9045,-0.3686,-0.1106
161,521025.0,369.820225,1.0,0.68,3.77,-8.8,8.75,-26.56,30.06,1.56,6.56,3.0,-0.11530798708340352,-0.2021369361486716,0.2118000935575246,-129.51205087236005,-43.25860308220909,-12.699808169946316,-0.184,-0.9045,-0.3686,-0.1106
162,521060.0,369.83905,1.0,0.95,4.06,-8.98,8.75,-26.56,30.06,-3.31,10.06,2.75,0.1525548159952207,-0.21717109033015047,-0.09062557187539788,-129.48518799624307,-43.23394986814831,-12.999629346780694,-0.1834,-0.9044,-0.3684,-0.1132
163,521060.0,369.83905,1.0,0.95,4.06,-8.98,8.75,-26.56,30.06,-3.31,10.06,2.75,0.1525548159952207,-0.21717109033015047,-0.09062557187539788,-129.48518799624307,-43.23394986814831,-12.999629346780694,-0.1834,-0.9044,-0.3684,-0.1132
164,521093.0,369.884024,1.0,1.25,4.16,-9.22,8.75,-26.19,30.87,-2.56,9.31,2.44,0.2825358317031822,-0.3908570288147453,-0.3739150278768886,-129.40467932878911,-43.19697398702748,-13.391838421127119,-0.183,-0.9041,-0.3681,-0.1166
165,521093.0,369.884024,1.0,1.25,4.16,-9.22,8.75,-26.19,30.87,-2.56,9.31,2.44,0.2825358317031822,-0.3908570288147453,-0.3739150278768886,-129.40467932878911,-43.19697398702748,-13.391838421127119,-0.183,-0.9041,-0.3681,-0.1166
166,521129.0,369.942419,1.0,1.32,4.29,-9.12,8.38,-27.0,31.25,-1.56,3.69,-0.12,0.4196507345734132,-0.3244012919442496,-0.34419021462050736,-129.3510733053071,-43.209298755684706,-13.553381828311744,-0.1832,-0.9039,-0.3682,-0.11800000000000001
167,521129.0,369.942419,1.0,1.32,4.29,-9.12,8.38,-27.0,31.25,-1.56,3.69,-0.12,0.4196507345734132,-0.3244012919442496,-0.34419021462050736,-129.3510733053071,-43.209298755684706,-13.553381828311744,-0.1832,-0.9039,-0.3682,-0.11800000000000001
168,521164.0,369.950123,1.0,1.18,4.23,-8.97,8.38,-27.0,31.25,0.94,-0.31,0.44,0.3176469553225261,-0.20998943089822752,-0.17339032309917002,-129.3510733053071,-43.18464974314042,-13.691869135619404,-0.1827,-0.9039,-0.368,-0.1192
169,521164.0,369.950123,1.0,1.18,4.23,-8.97,8.38,-27.0,31.25,0.94,-0.31,0.44,0.3176469553225261,-0.20998943089822752,-0.17339032309917002,-129.3510733053071,-43.18464974314042,-13.691869135619404,-0.1827,-0.9039,-0.368,-0.1192
170,521197.0,370.014494,1.0,1.16,4.1,-9.13,8.75,-27.0,30.37,-1.63,0.69,-3.0,0.1612280344152397,-0.29978047779789785,-0.2629397228263421,-129.3510733053071,-43.209298755684706,-13.772662665221276,-0.1818,-0.9039,-0.3682,-0.1199
171,521197.0,370.014494,1.0,1.16,4.1,-9.13,8.75,-27.0,30.37,-1.63,0.69,-3.0,0.1612280344152397,-0.29978047779789785,-0.2629397228263421,-129.3510733053071,-43.209298755684706,-13.772662665221276,-0.1818,-0.9039,-0.3682,-0.1199
172,521232.0,370.023166,1.0,0.88,4.16,-8.84,8.0,-26.56,31.56,-1.81,-2.69,-3.38,0.10504447468427124,-0.013934657775350079,-0.0022424697771601387,-129.21728949054742,-43.32024532286975,-13.738036026791262,-0.1827,-0.9034,-0.3691,-0.1196
173,521232.0,370.023166,1.0,0.88,4.16,-8.84,8.0,-26.56,31.56,-1.81,-2.69,-3.38,0.10504447468427124,-0.013934657775350079,-0.0022424697771601387,-129.21728949054742,-43.32024532286975,-13.738036026791262,-0.1827,-0.9034,-0.3691,-0.1196
174,521269.0,370.04213500000003,1.0,0.77,4.02,-8.89,8.38,-27.0,31.25,1.75,-3.63,-1.37,-0.05683290201817815,-0.05078322526380585,0.019945187588419344,-129.21728949054742,-43.35723698802017,-13.611082444309169,-0.1828,-0.9034,-0.3694,-0.1185
175,521269.0,370.04213500000003,1.0,0.77,4.02,-8.89,8.38,-27.0,31.25,1.75,-3.63,-1.37,-0.05683290201817815,-0.05078322526380585,0.019945187588419344,-129.21728949054742,-43.35723698802017,-13.611082444309169,-0.1828,-0.9034,-0.3694,-0.1185
176,521302.0,370.09308,1.0,0.65,4.08,-8.83,8.38,-27.0,31.25,-1.75,-3.0,-2.31,-0.07025576321597947,0.0748451674415973,0.058457227560298364,-129.19057220176188,-43.39423340067783,-13.51876311679545,-0.1832,-0.9033,-0.3697,-0.1177
177,521302.0,370.09308,1.0,0.65,4.08,-8.83,8.38,-27.0,31.25,-1.75,-3.0,-2.31,-0.07025576321597947,0.0748451674415973,0.058457227560298364,-129.19057220176188,-43.39423340067783,-13.51876311679545,-0.1832,-0.9033,-0.3697,-0.1177
178,521338.0,370.112973,1.0,0.76,4.01,-9.0,8.38,-26.19,30.87,0.81,0.88,0.0,-0.09611794146834972,-0.09845160582445668,-0.07458315293381901,-129.1371769317901,-43.4312345665289,-13.507223821905177,-0.1835,-0.9031,-0.37,-0.1176
179,521338.0,370.112973,1.0,0.76,4.01,-9.0,8.38,-26.19,30.87,0.81,0.88,0.0,-0.09611794146834972,-0.09845160582445668,-0.07458315293381901,-129.1371769317901,-43.4312345665289,-13.507223821905177,-0.1835,-0.9031,-0.37,-0.1176
180,521373.0,370.16084700000005,1.0,0.78,4.0,-8.95,8.38,-26.56,31.69,0.06,0.06,0.25,-0.07097612257726292,-0.10298119009719596,-0.026724663080319292,-129.1371769317901,-43.44356934572808,-13.51876311679545,-0.1833,-0.9031,-0.3701,-0.1177
181,521373.0,370.16084700000005,1.0,0.78,4.0,-8.95,8.38,-26.56,31.69,0.06,0.06,0.25,-0.07097612257726292,-0.10298119009719596,-0.026724663080319292,-129.1371769317901,-43.44356934572808,-13.51876311679545,-0.1833,-0.9031,-0.3701,-0.1177
182,521408.0,370.180377,1.0,0.83,4.13,-8.99,8.38,-26.56,31.69,-2.06,1.5,0.75,0.02418681258788524,-0.06849781175174696,-0.1211202958862856,-129.1104989092044,-43.4312345665289,-13.541842119876778,-0.1837,-0.903,-0.37,-0.1179
183,521408.0,370.180377,1.0,0.83,4.13,-8.99,8.38,-26.56,31.69,-2.06,1.5,0.75,0.02418681258788524,-0.06849781175174696,-0.1211202958862856,-129.1104989092044,-43.4312345665289,-13.541842119876778,-0.1837,-0.903,-0.37,-0.1179
