TIME,ELAPSED_SECONDS,PSTATE,acc_x,acc_y,acc_z,mag_x,mag_y,mag_z,gyr_x,gyr_y,gyr_z,lin_x,lin_y,lin_z,eul_x,eul_y,eul_z,qua_w,qua_x,qua_y,qua_z
1207130.0,1117.992595,1.0,2.38,-0.32,-9.77,9.75,-3.5,37.38,0.88,1.12,-1.0,0.07670612964392498,0.030357605480430983,-0.2538119469219477,-129.19057220176188,-48.66106748213056,-11.351662230904264,0.067,-0.9033,-0.41200000000000003,-0.0989
1207164.0,1117.99612,1.0,2.36,-0.28,-9.63,10.06,-3.5,38.19,1.37,-0.25,-1.31,0.11565862320915055,0.04840430655166189,-0.11147381985547966,-129.1371769317901,-48.7113769507911,-11.34014667578332,0.0674,-0.9031,-0.4124,-0.0988
1207201.0,1118.0578990000001,1.0,2.51,-0.49,-9.59,10.88,-3.5,37.0,5.25,-1.25,-0.94,0.07376550866240872,-0.19280361566861232,-0.11633772626051984,-129.1104989092044,-48.74911561441486,-11.2825706212041,0.0684,-0.903,-0.4127,-0.0983
1207234.0,1118.117458,1.0,2.28,-0.65,-9.52,10.88,-3.5,37.0,2.81,-1.75,-1.5,-0.16298279652795267,-0.13543163847263506,-0.001835860689027413,-129.03054304377298,-48.824609844362676,-11.167427069301608,0.0693,-0.9027,-0.4133,-0.0973
1207271.0,1118.12437,1.0,2.25,-0.52,-9.48,10.88,-3.06,37.38,1.12,-2.63,-0.63,-0.0683886691050864,-0.04252145703734533,0.04976448690569768,-129.03054304377298,-48.849779603080556,-11.09834637461124,0.0693,-0.9027,-0.4135,-0.0967
1207306.0,1118.1413109999999,1.0,2.06,-0.54,-9.28,10.06,-3.5,38.69,-0.12,-1.19,-0.69,-0.17062782955828204,0.039648149107052666,0.2870431715615158,-129.03054304377298,-48.862365423932296,-11.029269725697887,0.0694,-0.9027,-0.4136,-0.0961
1207341.0,1118.194559,1.0,2.22,-0.49,-9.32,10.06,-3.5,38.69,0.81,1.44,0.88,-0.03670315848999811,-0.03186104428865438,0.21349943556009165,-129.03054304377298,-48.849779603080556,-11.052294827398207,0.0696,-0.9027,-0.4135,-0.0963
1207375.0,1118.2370970000004,1.0,2.39,-0.5,-9.55,10.5,-3.5,37.38,-0.12,2.06,0.56,0.033147049752360436,-0.10239548602549377,-0.0499729732872698,-129.03054304377298,-48.824609844362676,-11.109859542072414,0.0701,-0.9027,-0.4133,-0.0968
1207410.0,1118.2531390000001,1.0,2.35,-0.44,-9.47,10.06,-3.88,38.69,-1.19,0.88,0.0,0.05769128596585699,-0.04801291329932023,0.03979961332568749,-129.0571819857357,-48.79944259465472,-11.144399719947117,0.0701,-0.9028,-0.4131,-0.0971
1207447.0,1118.295723,1.0,2.47,-0.35,-9.5,10.06,-3.88,38.69,-0.88,0.56,1.19,0.19124477869047474,-0.07100569095051508,-0.013318616369213387,-129.0838339340417,-48.76169642019097,-11.19045487105573,0.0699,-0.9029,-0.4128,-0.0975
1207480.0,1118.311941,1.0,2.41,-0.51,-9.56,10.19,-2.75,37.75,0.12,1.0,1.56,0.024808404261810413,-0.11376985467532966,-0.06493756043044918,-129.1104989092044,-48.72395587995984,-11.2019689418816,0.0701,-0.903,-0.4125,-0.0976
1207515.0,1118.352906,1.0,2.36,-0.53,-9.52,9.75,-3.5,37.75,-0.88,-0.19,0.81,-0.021798517770406145,-0.09994184016259244,-0.015286492016629794,-129.16386802241826,-48.67364391258275,-11.224997424028942,0.0699,-0.9032,-0.4121,-0.0978
1207549.0,1118.410605,1.0,2.13,-0.53,-9.32,10.5,-4.56,37.0,-1.31,1.12,1.94,-0.1469530055099439,0.021903666207700682,0.2328250045460827,-129.21728949054742,-48.62334193420396,-11.224997424028942,0.0696,-0.9034,-0.4117,-0.0978
1207584.0,1118.426679,1.0,2.49,-0.53,-9.64,10.5,-4.56,37.0,-0.63,1.19,1.94,0.0419673828120079,-0.16693044759847184,-0.16235060008246194,-129.27076347961943,-48.53533746105607,-11.271055753655435,0.0698,-0.9036,-0.41100000000000003,-0.0982
1207621.0,1118.465381,1.0,2.19,-0.41,-9.47,10.19,-3.5,38.19,-3.69,-0.75,1.63,-0.048427552781488685,0.07844121025507478,0.0785154538156494,-129.3510733053071,-48.4850628718776,-11.2825706212041,0.0688,-0.9039,-0.4106,-0.0983
1207656.0,1118.526034,1.0,2.25,-0.48,-9.38,10.5,-3.5,38.19,-2.31,0.25,1.5,-0.055789784198440884,-0.035226254479189034,0.148857984690574,-129.40467932878911,-48.434798213187825,-11.294085603048902,0.0684,-0.9041,-0.4102,-0.0984
1207689.0,1118.543627,1.0,2.18,-0.36,-9.42,10.5,-3.5,38.19,-2.56,1.56,1.37,-0.032651672772033236,0.09034473525114113,0.13146670989755194,-129.45833846115224,-48.37198133089157,-11.3631779010396,0.0674,-0.9043,-0.4097,-0.099
1207724.0,1118.59081,1.0,2.27,-0.39,-9.51,9.75,-3.06,37.75,-2.5,1.69,1.06,-0.020731847459539317,0.02360217173032176,0.02175791434108021,-129.48518799624307,-48.32173895898989,-11.432274343860266,0.0671,-0.9044,-0.4093,-0.0996
1207760.0,1118.607658,1.0,2.42,-0.35,-9.52,9.38,-4.25,37.38,-1.06,2.0,1.75,0.0835946772931842,-0.05314003910264431,-0.02185385695464781,-129.51205087236005,-48.28406366468798,-11.558962006616273,0.0668,-0.9045,-0.409,-0.1007
1207793.0,1118.65248,1.0,2.5,-0.23,-9.5,9.38,-4.25,37.38,-1.81,0.88,0.06,0.2119482465323552,-0.03468929625225986,-0.017136163873752608,-129.51205087236005,-48.246393921380395,-11.651107384541652,0.0665,-0.9045,-0.4087,-0.1015
1207828.0,1118.6718449999996,1.0,2.42,-0.28,-9.54,10.5,-3.06,39.06,-0.81,1.31,-0.81,0.11025305747934667,0.0016689373177797284,-0.038868852653966,-129.51205087236005,-48.25894988610853,-11.697182904814724,0.0665,-0.9045,-0.4088,-0.1019
1207863.0,1118.713557,1.0,2.26,-0.31,-9.37,9.38,-4.25,37.75,-1.75,-0.88,-0.56,0.002129927123235259,0.05898369708744439,0.16314874854115402,-129.48518799624307,-48.27150646713053,-11.708702081111404,0.0662,-0.9044,-0.4089,-0.102
1207900.0,1118.7731019999999,1.0,1.95,-0.44,-9.52,10.19,-4.25,37.38,3.5,2.94,0.75,-0.30961858953404225,0.2415380736378213,0.08696401289124722,-129.48518799624307,-48.27150646713053,-11.708702081111404,0.0669,-0.9044,-0.4089,-0.102
1207932.0,1118.780253,1.0,2.59,-0.25,-10.41,10.19,-4.25,37.38,-0.5,-0.56,1.5,0.12612788494504198,0.09354791283272812,-0.9224711450259928,-129.51205087236005,-48.233838572704705,-11.754779974813852,0.0672,-0.9045,-0.4086,-0.1024
1207969.0,1118.797658,1.0,2.67,-0.37,-10.94,9.75,-3.5,37.0,0.06,-20.06,-0.94,0.08163650503082831,0.01370011914033531,-1.4602283515125372,-129.5927197609984,-48.27150646713053,-11.351662230904264,0.0663,-0.9048,-0.4089,-0.0989
1208004.0,1118.839482,1.0,1.93,-0.19,-10.4,10.5,-4.25,37.38,-6.25,-42.81,1.81,-0.08632970744019157,0.3849495983942912,-0.765263780782993,-129.88954402446632,-48.296621479022534,-10.430771068314456,0.0608,-0.9059,-0.4091,-0.0909
1208039.0,1118.89761,1.0,2.07,-0.1,-10.73,10.5,-4.25,37.38,0.44,-54.06,7.75,0.25061102225927445,0.09536879511510504,-1.118362535848208,-130.46082634681812,-48.25894988610853,-8.740349140335567,0.052000000000000005,-0.9079999999999999,-0.4088,-0.0762
1208074.0,1118.913942,1.0,1.47,-0.46,-10.08,11.56,-3.5,37.38,3.0,-72.37,10.94,-0.0959883065531842,-0.0477319645112646,-0.3897909430236464,-131.0660093808112,-48.0581282417445,-6.89110540785609,0.0461,-0.9102,-0.4072,-0.0601
1208111.0,1118.953569,1.0,0.57,-0.22,-8.43,12.69,-4.25,37.38,3.75,-64.25,12.25,-0.11053545676018567,0.2695886926120134,1.3595615164090675,-131.81847545998673,-47.74465793118145,-4.355527902560735,0.0375,-0.9129,-0.4047,-0.038
1208145.0,1119.008234,1.0,0.24,-0.33,-7.61,12.69,-4.25,37.38,12.69,-36.75,9.56,-0.2265602160152408,0.2534393473121692,2.193303891635222,-132.24132459051677,-47.46911772602086,-2.9797163137078666,0.0354,-0.9144,-0.4025,-0.026000000000000002
1208180.0,1119.025489,1.0,0.24,-0.71,-7.69,16.06,-3.88,37.0,15.44,-7.19,6.0,-0.3803744431709609,-0.007140355150104916,2.0895868087133858,-132.46829135766265,-47.24389230544818,-2.085681528609333,0.0381,-0.9152,-0.4007,-0.0182
1208215.0,1119.070226,1.0,0.07,-0.57,-7.07,16.87,-3.5,36.25,4.81,9.38,4.81,-0.3848745796437513,0.2068479068499874,2.726834642141021,-132.63918862221735,-47.03135704516996,-2.200293133435064,0.0414,-0.9158,-0.39899999999999997,-0.0192
1208252.0,1119.087589,1.0,0.35,-0.8,-7.27,16.5,-2.75,37.88,3.44,28.94,2.56,-0.4050473745403632,-0.0580970107166498,2.4958387343658157,-132.66772802198363,-46.918907837056295,-2.7504615040371316,0.0451,-0.9159,-0.3981,-0.024
1208285.0,1119.13145,1.0,0.7,-0.62,-7.44,16.5,-2.75,37.88,-5.81,34.0,5.44,-0.16874374539302311,-0.06232640056824651,2.310274811404982,-132.7820481898819,-46.66919183707166,-4.034456312516312,0.0483,-0.9163,-0.3961,-0.0352
1208322.0,1119.193742,1.0,1.24,-0.58,-7.98,15.56,-3.5,36.75,-8.06,51.06,6.56,0.06386714509264876,-0.2426322960737249,1.713971175489558,-132.83930623013015,-46.407242416234105,-5.376316314590642,0.0512,-0.9165,-0.39399999999999996,-0.0469
1208356.0,1119.197455,1.0,1.82,-0.18,-8.21,14.06,-3.06,37.56,-18.56,61.31,1.63,0.4555985939743606,-0.16631470064453616,1.4094082301378172,-132.72485553305756,-46.09573205363145,-7.694875241065197,0.0544,-0.9161,-0.3915,-0.0671
1208391.0,1119.25531,1.0,1.66,-0.24,-8.08,14.06,-3.06,37.56,-6.75,72.75,-1.31,0.08561800303517436,0.0597352367761147,1.555062197701366,-132.41145409892673,-45.93388911170107,-9.62554711472919,0.0585,-0.915,-0.3902,-0.0839
1208426.0,1119.309536,1.0,1.9,-0.65,-8.37,11.5,-4.25,37.5,-5.5,79.37,-2.5,-0.41558663061221396,-0.029663320374670617,1.2092196955496792,-131.62233589525562,-45.80946044511175,-12.50381856554563,0.0674,-0.9122,-0.3892,-0.1089
1208463.0,1119.322117,1.0,3.93,0.48,-9.21,9.69,-3.88,37.06,-24.69,86.69,-4.19,1.2806823764299906,-0.2455436487554408,-0.13311664551324046,-130.92785324394194,-45.61049316943376,-15.008530771963965,0.071,-0.9097,-0.3876,-0.1306
1208498.0,1119.375276,1.0,4.08,0.34,-9.4,9.69,-3.88,37.06,-4.19,79.94,-4.44,0.8006688792159792,-0.04066482708147523,-0.41486044208699546,-129.72743673627951,-45.486212391208106,-18.088822794467358,0.0786,-0.9053,-0.3866,-0.1572
1208532.0,1119.392836,1.0,4.64,0.18,-9.98,6.69,-4.56,38.75,-10.88,77.12,-8.0,0.5902501943613256,-0.07518184052876142,-1.1846352933090234,-128.6854111372357,-45.461363019954995,-20.27371434520358,0.0854,-0.9014,-0.3864,-0.17600000000000002
1208567.0,1119.3980960000001,1.0,4.92,0.08,-9.63,4.5,-5.75,38.69,1.06,69.56,-7.56,0.4012033886368849,-0.08505350055585925,-0.9998990209867422,-127.24853393391231,-45.47378742330781,-22.84005757373193,0.0934,-0.8959,-0.3865,-0.198
1208602.0,1119.480516,1.0,5.53,-0.36,-10.0,1.5,-5.38,37.88,-0.69,63.44,-7.88,0.0906125526121585,-0.3813512016970657,-1.6194981097644303,-126.17530318519164,-45.47378742330781,-24.596436196111345,0.1005,-0.8917,-0.3865,-0.213
1208637.0,1119.493919,1.0,5.66,0.13,-9.51,1.5,-5.38,37.88,-7.25,59.44,-8.56,0.3159867626407844,-0.03011885914374624,-1.2564347967535558,-124.82385344491156,-45.486212391208106,-26.841478236677798,0.1054,-0.8863,-0.3866,-0.2321
1208672.0,1119.498553,1.0,5.74,-0.48,-9.39,-0.5,-5.38,38.25,1.75,55.13,-6.88,-0.26034067175568204,-0.30438079227616643,-1.2019682179201414,-123.79346416819729,-45.511064021543426,-28.31639242391693,0.1115,-0.8821,-0.3868,-0.2446
1208709.0,1119.5399619999996,1.0,5.6,0.09,-8.42,-2.69,-5.75,37.56,-8.31,58.0,-7.0,0.10074842920306183,0.0384195781877219,-0.3053663019066057,-122.46980875996977,-45.411671047559956,-30.47253865250361,0.1163,-0.8766,-0.386,-0.2628
1208743.0,1119.606818,1.0,5.93,0.2,-8.33,-2.69,-5.75,37.56,-3.69,57.94,-7.81,0.1633791312750023,0.07106787821381,-0.4189089879551364,-121.3603761475579,-45.37440798509372,-32.114772865183184,0.1206,-0.8719,-0.3857,-0.2766
1208776.0,1119.644586,1.0,6.24,0.63,-8.36,-5.0,-5.38,38.38,-8.31,53.75,-7.94,0.3324484898177242,0.4226763842665854,-0.6305394049979398,-119.97126580924143,-45.29989704883653,-34.15920009515199,0.1251,-0.8659,-0.3851,-0.2937
1208813.0,1119.659949,1.0,6.38,0.62,-7.93,-6.75,-6.06,37.19,-1.81,54.13,-8.25,0.3649043234556835,0.32443395585140994,-0.3784021571081819,-118.88063215220505,-45.287480525770206,-35.63667282414923,0.1293,-0.8611,-0.385,-0.306
1208850.0,1119.700636,1.0,6.8,0.46,-8.2,-8.75,-5.38,37.19,-0.5,55.31,-10.13,0.05170900260690997,0.35755476373863204,-0.8498541533317674,-117.27684633570152,-45.33714998751986,-37.604152605861614,0.1354,-0.8539,-0.3854,-0.3223
1208883.0,1119.7617300000004,1.0,6.8,0.25,-7.82,-8.75,-5.38,37.19,2.56,45.31,-9.63,-0.11975687178807448,0.20267948696089166,-0.5567220051547359,-116.20613978613413,-45.411671047559956,-38.86547335701747,0.1396,-0.8490000000000001,-0.386,-0.3327
1208920.0,1119.779516,1.0,7.03,0.18,-7.77,-10.25,-6.88,35.38,-0.81,53.19,-9.38,-0.3084943288284918,0.22186874542258286,-0.6662581686456708,-114.74633713830113,-45.461363019954995,-40.64451940316256,0.1443,-0.8422,-0.3864,-0.3473
1208954.0,1119.823837,1.0,7.37,-0.25,-7.8,-11.19,-6.5,35.25,-5.19,55.56,-7.19,-0.7110406591728481,-0.0298976078762796,-0.9037620982362942,-113.56562110150705,-45.37440798509372,-42.12670509670736,0.1487,-0.8366,-0.3857,-0.3594
1208989.0,1119.836537,1.0,7.48,0.51,-7.26,-11.19,-6.5,35.25,-25.62,71.31,-11.81,-0.2302787898889417,0.36990393991314097,-0.6206335750335299,-111.88991732477224,-45.002054941253824,-44.69214333160206,0.1503,-0.8285,-0.3827,-0.3802
1209024.0,1119.900678,1.0,8.71,0.73,-8.89,-13.69,-6.5,33.75,-7.69,35.69,-7.75,-0.7035131340654515,0.9572537524972748,-2.6037421986183524,-110.67168416900331,-44.82846183777319,-46.36984205375654,0.1521,-0.8225,-0.3813,-0.3937
1209061.0,1119.947681,1.0,7.65,0.7,-7.01,-16.06,-7.5,34.19,-5.75,-10.38,-1.69,-0.15836141272963722,0.39088148660933003,-0.5844391309036663,-110.75231492282506,-44.902845573736435,-46.30751972941107,0.1498,-0.8229,-0.3819,-0.3932
1209096.0,1119.966078,1.0,7.53,0.75,-7.01,-16.06,-7.5,34.19,-2.19,-11.06,-1.25,-0.14741292261875175,0.4365160080391784,-0.4982625762895498,-110.95425230146972,-44.927644585005865,-46.09573205363145,0.14800000000000002,-0.8239,-0.3821,-0.3915
1209131.0,1119.969118,1.0,7.75,0.72,-7.26,-15.25,-8.69,33.06,8.31,-17.37,2.13,-0.14023437937092242,0.3667484093494564,-0.8298122841940305,-111.31904975679159,-45.051672965046905,-45.57320299258629,0.1466,-0.8257,-0.3831,-0.3873
1209165.0,1120.012668,1.0,7.53,0.35,-7.03,-15.25,-7.88,33.38,5.0,-26.31,3.56,-0.2681441740619611,0.03872327566817192,-0.4972763977300511,-111.82855209706509,-45.16334612512468,-44.81606648541226,0.146,-0.8282,-0.384,-0.3812
1209202.0,1120.032982,1.0,7.56,0.56,-7.23,-14.56,-7.5,33.88,-2.19,-41.06,7.0,-0.016806895410044653,0.11917422052926675,-0.6683495242686259,-112.85774497558256,-45.1757570460561,-43.591628016640854,0.1429,-0.8332,-0.3841,-0.3713
1209235.0,1120.089876,1.0,7.53,0.84,-7.51,-14.56,-7.5,33.88,-2.19,-47.13,8.94,0.2834179408451162,0.2369537599680348,-0.8549693510387629,-114.32249031100716,-45.12611671542185,-41.93029563540066,0.1371,-0.8402,-0.3837,-0.3578
1209272.0,1120.1350810000001,1.0,7.12,0.48,-7.69,-13.19,-7.88,34.56,12.56,-54.25,9.88,-0.011973637570943274,0.14134541345649487,-0.683382321499213,-115.49402564842946,-45.200580565791434,-40.351383033032214,0.1345,-0.8457,-0.3843,-0.3449
1209309.0,1120.151073,1.0,6.6,0.66,-7.19,-12.5,-7.5,35.75,5.56,-51.06,7.5,0.3954311225645111,0.1005902761226376,0.032949788531624336,-116.92543657528313,-45.29989704883653,-38.41618161401926,0.1307,-0.8523,-0.3851,-0.32899999999999996
1209341.0,1120.201791,1.0,6.32,0.6,-7.2,-12.5,-7.5,35.75,12.13,-29.94,2.69,0.3544034149708164,0.11192208658654844,0.21476427997647465,-117.63003319551184,-45.424093194951936,-37.362137156703376,0.1286,-0.8555,-0.3861,-0.3203
1209376.0,1120.2541410000001,1.0,6.06,-0.09,-7.35,-10.19,-7.19,35.75,24.12,-27.69,3.69,-0.14990622046793772,-0.172796354812361,0.2828970871599896,-118.1186232350635,-45.73483064826311,-36.07025258875129,0.1319,-0.8577,-0.3886,-0.3096
1209413.0,1120.2704449999999,1.0,6.03,0.3,-7.29,-8.69,-6.75,36.56,10.75,-22.62,1.37,0.2727743780747243,0.02368742267724521,0.34514731571813684,-118.49856306250858,-45.92144367093,-35.26373479080068,0.1326,-0.8594,-0.3901,-0.3029
1209448.0,1120.2744380000001,1.0,6.03,-0.37,-7.58,-8.69,-6.75,36.56,25.56,-25.44,2.69,-0.2233607881567324,-0.3192620619898876,0.12148703316831087,-118.79053985855312,-46.13309422581874,-34.44701981345315,0.1343,-0.8607,-0.3918,-0.2961
1209483.0,1120.311292,1.0,6.04,0.06,-7.96,-8.69,-5.25,37.06,7.06,-17.81,3.13,0.13838345645961925,0.08495994729223844,-0.1843675571027017,-119.24220793672814,-46.33244691855332,-33.332946647245606,0.1366,-0.8627,-0.3934,-0.2868
1209518.0,1120.3737720000001,1.0,5.73,0.15,-7.72,-6.88,-4.19,38.25,9.88,-20.69,1.94,0.26157640158162043,0.15824260991164296,0.19622144230581107,-119.65132148129857,-46.46958798664575,-32.49653690025889,0.1368,-0.8645,-0.3945,-0.2798
1209554.0,1120.3913300000004,1.0,6.06,-0.21,-8.46,-6.5,-4.5,37.5,12.25,-15.31,2.06,-0.007536957667569344,0.043687535042534975,-0.6018722098793194,-119.85682289966007,-46.59432285421078,-31.90019165418321,0.1385,-0.8654,-0.3955,-0.2748
1209587.0,1120.431881,1.0,5.83,-0.18,-8.25,-6.5,-4.5,37.5,10.5,-25.37,3.13,0.1252782029446563,0.031065744110040594,-0.2961783312847519,-120.31578829659293,-46.744081927482135,-30.900315264438852,0.1387,-0.8674,-0.3967,-0.2664
1209624.0,1120.498352,1.0,5.5,-0.19,-8.16,-5.38,-3.75,37.88,11.75,-24.69,1.63,0.08930814152941235,0.11769272323280312,-0.03458328037470082,-120.68528037991207,-46.8939256305629,-30.09265778200395,0.1384,-0.8690000000000001,-0.3979,-0.2596
1209661.0,1120.534421,1.0,5.63,-0.34,-8.49,-5.38,-3.75,38.25,12.81,-23.75,2.0,0.10187288611720936,0.01550678017826712,-0.38560104944156137,-121.08017234591215,-47.11885074218369,-29.037876869982465,0.1392,-0.8707,-0.3997,-0.2507
1209694.0,1120.547248,1.0,5.01,-0.54,-8.11,-5.38,-3.75,38.25,11.25,-29.75,1.81,-0.13584469623556786,0.03141478421574938,0.2596944994313848,-121.47748834883792,-47.26890777482772,-28.09190303440269,0.1389,-0.8724,-0.4009,-0.2427
1209729.0,1120.5915519999999,1.0,4.76,-0.64,-8.13,-3.88,-3.75,37.06,9.69,-19.94,0.94,-0.22253161662894366,0.06273512773011836,0.3668065699769549,-121.8301142376418,-47.46911772602086,-27.13609064749141,0.1389,-0.8739,-0.4025,-0.2346
1209763.0,1120.6477439999999,1.0,4.75,-0.52,-7.98,-2.69,-3.0,37.5,1.19,-18.0,2.13,-0.027466657560849983,0.025516682893486298,0.5054729518185948,-122.11362560713808,-47.50667419847937,-26.64124511049845,0.1377,-0.8751,-0.4028,-0.2304
1209800.0,1120.670558,1.0,4.16,-0.71,-7.56,-2.69,-3.0,37.5,4.38,-16.69,2.0,-0.2981822683978685,0.04579923124259312,1.1537724575156094,-122.44600053491276,-47.55675792365637,-25.94695623100749,0.1369,-0.8765,-0.4032,-0.2245
1209833.0,1120.674483,1.0,4.29,-0.63,-7.77,-2.0,-2.69,39.19,2.63,-7.44,3.06,-0.19339432882927893,0.08028551347695613,0.9111425456777678,-122.61284780254854,-47.50667419847937,-25.735333308776628,0.1364,-0.8772,-0.4028,-0.2227
1209870.0,1120.7129619999996,1.0,4.55,-0.96,-7.89,-2.69,-2.69,39.19,1.56,-1.75,5.31,-0.2871283412734807,-0.24166166996658145,0.6559474612379379,-122.80407555685306,-47.36899357064292,-25.52379962585345,0.1375,-0.878,-0.4017,-0.2209
1209905.0,1120.7799630000004,1.0,4.9,-1.44,-8.15,-2.0,-2.25,39.19,-0.19,3.44,8.88,-0.5093750677738461,-0.6456820224390489,0.22386690915267413,-122.97188128580086,-47.15635695640368,-25.535549170145078,0.1384,-0.8787,-0.4,-0.221
1209937.0,1120.7976720000001,1.0,5.14,-1.58,-8.26,-2.0,-2.25,39.19,-3.06,6.56,13.06,-0.4996898497433204,-0.8003868708633711,-0.004226154096178547,-123.28472684734406,-46.63175471031061,-25.711825174606233,0.1396,-0.88,-0.3958,-0.2225
1209974.0,1120.808701,1.0,5.36,-2.21,-8.69,-2.38,-2.69,37.88,-12.25,-4.0,26.62,-0.9222434367112164,-1.1533706603706542,-0.5349651138610483,-123.86648635871313,-45.94633512532466,-25.688318141008548,0.14,-0.8824,-0.3903,-0.2223
1210011.0,1120.841973,1.0,4.99,-1.43,-8.03,-2.69,-2.25,38.0,-21.44,5.25,32.5,-0.36658536729274777,-0.7460321848944356,0.2811604510272829,-125.1463924412778,-44.593044465749166,-25.86464777060069,0.1345,-0.8876,-0.3794,-0.2238
1210046.0,1120.9021599999999,1.0,5.24,-1.28,-8.43,-2.69,-2.25,38.0,-22.94,3.5,34.38,-0.23159624352259198,-0.6292771239660203,-0.17890323861624324,-126.04885559306123,-43.4682404912652,-26.170433719349266,0.1322,-0.8912,-0.3703,-0.2264
1210079.0,1120.91874,1.0,4.91,-1.08,-8.19,-3.5,-3.38,39.5,-24.19,2.88,40.19,-0.21050006969958845,-0.4007284727807365,0.20739448658859416,-127.50706277493772,-41.7585431287547,-26.41755310589251,0.1284,-0.8969,-0.3564,-0.2285
1210116.0,1120.958978,1.0,5.05,-0.71,-8.56,-3.5,-3.75,39.19,-27.75,3.31,42.31,-0.0006191241192571306,-0.08355601507107724,-0.15694463291390726,-128.60607229870925,-40.400219905352074,-26.700128578583914,0.1246,-0.9011,-0.3453,-0.2309
1210152.0,1120.976099,1.0,4.91,-0.17,-8.38,-3.88,-3.06,37.88,-39.63,3.88,40.25,0.29843869234164955,0.2891843145289903,0.10156335540254703,-130.24247093533856,-38.464723978916496,-27.006438787370872,0.1179,-0.9072,-0.3294,-0.2335
1210185.0,1121.016863,1.0,4.9,-0.06,-8.71,-3.88,-3.06,37.88,-11.88,1.37,41.0,0.2446754016989163,0.5079920257888616,-0.17131462458844382,-131.31561745343842,-37.1565598653149,-27.13609064749141,0.1154,-0.9111,-0.3186,-0.2346
1210222.0,1121.118901,1.0,4.5,0.54,-8.33,-4.69,-4.25,38.25,-28.75,2.25,32.13,0.4508160651839343,1.0363642536357462,0.3910664275835725,-132.61066542040177,-35.60056506187857,-27.312945744821853,0.1109,-0.9157,-0.3057,-0.2361
1210257.0,1121.130709,1.0,4.76,0.15,-8.6,-4.25,-5.0,37.88,-7.13,0.44,31.69,0.3005918649220513,0.7170677579031484,0.00687661683860874,-133.3865649159552,-34.60301565627788,-27.3719121623715,0.1101,-0.9184,-0.2974,-0.2366
1210292.0,1121.133892,1.0,4.89,0.03,-8.56,-4.25,-5.0,37.88,-17.75,1.56,24.25,0.3343809454719987,0.5524913431470555,-0.03050114751485466,-134.29273249552642,-33.4525819599508,-27.4544775660039,0.1079,-0.9215,-0.2878,-0.2373
1210327.0,1121.192208,1.0,4.85,0.15,-8.94,-6.19,-4.25,38.0,-14.0,-5.63,20.56,0.2350174312056885,0.7501986255437814,-0.3348769476179818,-135.1561066706563,-32.56815880254804,-27.395500797517954,0.1038,-0.9244,-0.2804,-0.2368
1210363.0,1121.203091,1.0,4.74,0.36,-8.74,-5.75,-5.0,37.56,-17.69,-7.0,16.0,0.3496668361045601,0.8328956236076938,-0.10136786352365056,-135.8217429117077,-32.031310917714855,-27.277569433768978,0.0988,-0.9266,-0.2759,-0.2358
1210398.0,1121.245175,1.0,4.75,0.31,-9.25,-5.75,-5.0,37.56,-10.44,-10.06,9.44,0.14522619153967453,0.8824904536417749,-0.5577708691331171,-136.311888173766,-31.6738137680446,-27.124302654398626,0.0952,-0.9282,-0.2729,-0.2345
1210431.0,1121.28936,1.0,4.66,0.69,-9.32,-6.56,-5.88,37.19,-7.06,-15.69,2.56,0.31558681431086405,1.163811557992021,-0.5663942792903089,-136.9320256088512,-31.423754097001943,-26.676574330601248,0.0908,-0.9302,-0.2708,-0.2307
1210466.0,1121.307887,1.0,5.1,0.37,-9.93,-6.19,-5.88,36.69,-0.81,-19.56,-0.75,0.3181123642174221,0.8104274832867409,-1.3286008646220249,-137.27675296577294,-31.459467480314125,-26.19396354392425,0.0892,-0.9313,-0.2711,-0.2266
1210503.0,1121.349843,1.0,4.81,0.09,-9.96,-5.5,-6.56,36.19,1.88,-40.75,-4.31,0.14183820897590005,0.5849709861899142,-1.237963658602574,-137.91042216197232,-31.70954918748255,-24.97187636961762,0.0864,-0.9333,-0.2732,-0.2162
1210537.0,1121.405481,1.0,4.71,-0.01,-9.89,-5.5,-6.56,36.19,5.75,-47.69,-6.0,0.3273041179923256,0.35777359431420536,-1.1368946757235268,-138.74807199122864,-32.114772865183184,-23.2493773342699,0.0834,-0.9359,-0.2766,-0.2015
1210574.0,1121.4236130000004,1.0,4.82,-0.71,-10.24,-3.19,-5.88,37.5,19.44,-74.25,-2.88,0.25637183968604216,-0.3265624715398504,-1.5256812002428592,-139.60231554875963,-32.48460118565665,-21.33392533931821,0.0825,-0.9385,-0.2797,-0.1851
1210609.0,1121.469431,1.0,3.9,-0.48,-9.21,-2.06,-6.19,38.19,-1.0,-80.31,-1.37,0.4443968107744939,-0.2341145538119182,-0.1939600739038365,-141.08884000838947,-32.84283089936096,-18.30932175034793,0.076,-0.9429,-0.2827,-0.1591
1210644.0,1121.485576,1.0,3.12,-0.48,-8.64,-2.06,-6.19,38.19,21.37,-79.75,-1.31,0.3145832403364379,-0.13700651626049382,0.6144431594528648,-142.0286696964437,-33.12965231611837,-15.968397992715149,0.0731,-0.9456,-0.2851,-0.1389
1210677.0,1121.525251,1.0,2.16,-1.15,-8.12,0.5,-5.88,38.19,21.94,-62.44,-3.63,-0.3453592376731573,-0.4163806681763064,1.3432077844400183,-142.73954322436268,-33.548317235556404,-13.311076762780564,0.0735,-0.9476,-0.2886,-0.1159
1210714.0,1121.579633,1.0,2.0,-0.99,-8.02,3.5,-4.69,39.06,9.06,-33.94,-4.81,-0.20968567844484606,-0.2828277980572082,1.4894064450173,-142.95536907296346,-33.79973728659347,-12.123472436717575,0.0729,-0.9482,-0.2907,-0.1056
1210750.0,1121.59614,1.0,1.86,-1.08,-8.15,3.5,-4.69,39.06,10.06,-23.44,-5.44,-0.2801531292545244,-0.28336955937735525,1.3870469263992504,-142.99145809873448,-34.039340850884635,-11.294085603048902,0.0735,-0.9483,-0.2927,-0.0984
1210783.0,1121.641593,1.0,2.28,-1.0,-8.87,6.0,-4.0,39.06,7.88,-17.56,-1.5,0.12155911664737262,-0.32337293738877426,0.600350345713025,-143.02758111671002,-34.23113412634732,-10.52282880334764,0.0746,-0.9484,-0.2943,-0.0917
1210818.0,1121.700974,1.0,2.22,-0.65,-9.02,6.0,-3.56,38.69,2.38,-14.0,-1.69,0.33739510825068764,-0.01646540752030745,0.5008886968457169,-143.06373822672285,-34.351055102879386,-9.947577287046574,0.07400000000000001,-0.9485,-0.2953,-0.0867
1210855.0,1121.7076240000001,1.0,2.02,-1.37,-9.36,7.06,-3.19,38.25,12.31,-27.69,2.44,-0.15183602612821892,-0.4390706599221035,0.1448146269062729,-143.20870960086745,-34.42302630295278,-9.200123661166053,0.0755,-0.9489,-0.2959,-0.0802
1210888.0,1121.7235230000001,1.0,1.9,-1.16,-9.48,7.06,-3.19,38.25,-1.75,-32.06,4.44,0.03322062181213758,-0.2845090179450852,0.07299955379050438,-143.61025532246643,-34.351055102879386,-8.039461810968866,0.073,-0.95,-0.2953,-0.0701
1210925.0,1121.763428,1.0,1.86,-1.04,-9.9,6.75,-3.56,38.69,-2.88,-23.25,3.63,0.13466691655737306,-0.16958798556421162,-0.3177909592202769,-143.86802831777294,-34.30308206548676,-7.35035834348681,0.0707,-0.9507,-0.2949,-0.0641
1210959.0,1121.820334,1.0,1.25,-0.89,-8.86,7.75,-3.56,39.06,-2.88,-18.62,2.81,-0.10901710070481713,0.032726848401549165,0.8154740910797642,-144.1648201843402,-34.24312448272413,-6.684478178549483,0.068,-0.9515,-0.2944,-0.0583
1210994.0,1121.836315,1.0,1.0,-1.0,-8.69,7.75,-3.56,39.06,0.31,4.75,-2.0,-0.3751853871252454,0.043398791479908216,1.0104319223153748,-144.1275913572786,-34.279097871531036,-6.730393436549607,0.0673,-0.9514,-0.2947,-0.0587
1211027.0,1121.874429,1.0,0.94,-0.88,-8.49,9.25,-3.19,38.69,-1.0,24.69,-3.25,-0.4427051768322228,0.21296183099903154,1.233624898850259,-143.86802831777294,-34.339061261923746,-7.5111244261256385,0.0695,-0.9507,-0.2952,-0.0655
1211064.0,1121.9384029999999,1.0,1.41,-0.68,-8.42,8.5,-3.56,39.19,-5.94,55.25,-6.63,-0.12701512356249312,0.2134962634966732,1.245973244984695,-143.35423456188457,-34.41103013134001,-8.92424161449454,0.0723,-0.9493,-0.2958,-0.0778
1211101.0,1121.956242,1.0,1.77,-0.4,-8.58,8.5,-3.56,39.19,-5.44,60.31,-11.38,0.07021555088562613,0.39605491420943584,1.0460843629338417,-142.6678687639012,-34.54300944397086,-10.64941932234672,0.075,-0.9474,-0.2969,-0.0928
1211133.0,1122.032189,1.0,2.41,-0.67,-8.89,7.0,-4.0,38.25,0.0,48.38,-10.25,0.10918928306087812,0.0638115841021642,0.5723061802042988,-141.64310130769366,-34.795101425948374,-12.619102083523115,0.0798,-0.9445,-0.299,-0.1099
1211168.0,1122.043895,1.0,2.86,-0.6,-9.32,5.5,-3.19,39.5,-3.94,41.31,-9.69,0.1868792366534857,0.10258370265703708,0.04158201586097654,-140.78037862226373,-35.01131860953798,-14.257569796129179,0.0827,-0.9420000000000001,-0.3008,-0.1241
1211205.0,1122.046791,1.0,3.32,-0.2,-9.38,2.88,-4.0,38.69,-1.75,26.31,-8.44,0.6314338281624918,0.2413894108380016,-0.12259078029067184,-140.27139021079807,-35.15553486649333,-15.124119969217904,0.0833,-0.9405,-0.302,-0.1316
1211238.0,1122.1002839999999,1.0,3.29,-0.37,-8.82,2.88,-4.0,38.69,-0.81,24.56,-13.19,0.4813799841055966,0.06986028739341754,0.3983136512533303,-139.43670037409964,-35.55242705989692,-16.03782888845279,0.0858,-0.938,-0.3053,-0.1395
1211275.0,1122.121773,1.0,3.5,-0.73,-9.59,2.88,-5.06,38.25,7.0,28.31,-16.25,0.14711595888985668,-0.04337711246589926,-0.4269942834776117,-138.6505925631453,-35.96180782852424,-16.813549410004512,0.0892,-0.9356,-0.3087,-0.1462
1211312.0,1122.163501,1.0,3.59,-0.92,-9.19,1.37,-4.0,38.69,3.13,24.19,-12.81,0.044116727985131936,-0.2462123225862959,-0.09930947934972068,-137.71937015042116,-36.43197725116238,-17.729205890532434,0.0924,-0.9327,-0.3126,-0.1541
1211346.0,1122.219103,1.0,3.53,-0.51,-9.12,1.37,-4.0,38.69,-8.88,20.62,-15.38,0.15203171139241212,0.12811688379611547,0.01604877112659331,-137.11973135242658,-36.75785092937251,-18.402183827223173,0.0928,-0.9308,-0.3153,-0.1599
1211379.0,1122.234859,1.0,3.45,-0.73,-9.37,1.0,-4.38,39.06,4.63,25.19,-15.44,-0.25838798366438354,0.14273632730841526,-0.20060546744782395,-136.21958862710648,-37.253286633756794,-19.33148601143644,0.0944,-0.9279,-0.3194,-0.1679
1211416.0,1122.2758939999999,1.0,3.86,-0.27,-9.16,0.25,-4.0,39.88,-9.25,25.62,-15.75,0.2609771560662573,0.2617128435355467,-0.1302256312806982,-135.5180089054747,-37.59204770944774,-20.075850034388896,0.0953,-0.9256,-0.3222,-0.1743
1211451.0,1122.337393,1.0,4.18,-0.61,-9.25,-0.5,-4.69,38.25,3.81,21.69,-15.75,0.0983507245740009,-0.09250849739014633,-0.3613768151144452,-134.588690989807,-38.10083031138289,-20.984205642908503,0.0965,-0.9225,-0.3264,-0.1821
1211486.0,1122.3544630000001,1.0,4.08,-0.55,-8.92,-0.5,-4.69,38.25,-8.19,14.75,-14.81,0.07129198905633566,-0.05673936942833657,-0.017147539457605276,-133.99857662596108,-38.47686069075838,-21.462206102543455,0.0972,-0.9205,-0.3295,-0.1862
1211523.0,1122.394579,1.0,3.95,-0.39,-8.84,0.25,-4.0,38.69,3.06,15.75,-14.13,-0.023432491522982712,0.125694544761625,0.11728202268805175,-133.27085000109963,-38.950544217121674,-22.150726459273766,0.0962,-0.9179999999999999,-0.3334,-0.1921
1211557.0,1122.4172210000004,1.0,4.02,-0.74,-8.77,-1.88,-4.0,38.69,-9.38,22.81,-12.75,-0.2775666296244467,-0.15919312915565675,0.1361528921079458,-132.69628364910096,-39.242385733379436,-22.73485185773412,0.09699999999999999,-0.9159999999999999,-0.3358,-0.1971
1211592.0,1122.463696,1.0,4.28,-0.3,-8.64,-1.88,-4.0,38.69,-13.13,22.31,-13.88,0.026372057528354698,-0.018381484695396026,0.16004610870218805,-131.87465337051762,-39.58320288872564,-23.834643460050298,0.0938,-0.9131,-0.3386,-0.2065
1211627.0,1122.501571,1.0,4.54,-0.59,-8.75,-1.56,-4.38,36.69,2.25,15.88,-10.94,-0.11213601844965364,-0.31663368321843965,-0.06296846395380484,-131.37124925693712,-39.83905516372589,-24.373645675055762,0.0944,-0.9113,-0.3407,-0.2111
1211664.0,1122.525491,1.0,4.19,-0.3,-8.45,-2.38,-5.5,37.88,-10.13,17.37,-9.88,-0.18575145422123768,0.03412985651814382,0.3719835220502503,-130.73504536519698,-40.13171155486349,-25.10099664997855,0.0938,-0.909,-0.3431,-0.2173
1211699.0,1122.541062,1.0,4.76,-0.43,-8.69,-2.38,-5.5,37.88,-7.25,18.25,-7.06,-0.0821498385490454,-0.3009106113034489,-0.10603400626346192,-130.3242488651211,-40.241528009296225,-25.735333308776628,0.0928,-0.9075,-0.344,-0.2227
1211734.0,1122.597392,1.0,4.65,-0.51,-8.58,-2.75,-5.88,37.56,-16.87,17.25,-6.56,-0.2936709029784071,-0.31080989990933183,0.0436507371268231,-129.86249210271768,-40.32696746513329,-26.441094791301843,0.0917,-0.9058,-0.3447,-0.2287
1211768.0,1122.640936,1.0,4.47,-0.63,-8.32,-3.06,-6.19,38.0,-6.44,16.56,-2.56,-0.4722825886715765,-0.3628638316261424,0.35966746608287004,-129.64656611878056,-40.29034769423164,-26.888604025029306,0.0911,-0.905,-0.3444,-0.2325
1211803.0,1122.6481099999999,1.0,4.89,0.03,-8.48,-3.88,-7.38,38.25,-23.25,20.81,-2.19,0.003358509672149013,-0.04062174686144071,0.017792120037970705,-129.27076347961943,-40.08291658507028,-27.950176987884003,0.0883,-0.9036,-0.3427,-0.2415
1211838.0,1122.708753,1.0,5.02,0.05,-8.52,-3.88,-7.38,38.25,-9.63,21.69,-1.81,-0.050942517752557585,-0.08128370551300113,-0.08193421712143413,-128.95070405160268,-39.96096228867753,-28.71838798339577,0.0858,-0.9024,-0.3417,-0.248
1211875.0,1122.725915,1.0,4.96,0.21,-8.23,-4.56,-6.56,37.56,-21.19,15.75,0.88,0.0004806082862588989,0.014820627930502872,0.19528276541763567,-128.63250588646886,-39.76593345094053,-29.523469077350697,0.0847,-0.9012,-0.3401,-0.2548
1211910.0,1122.7864240000001,1.0,4.58,-0.06,-7.6,-6.06,-7.0,37.88,-11.31,15.19,2.94,-0.2553936710726763,-0.18321550788530594,0.9386622829107178,-128.5268474503853,-39.54666937259589,-30.080791981197944,0.0821,-0.9008,-0.3383,-0.2595
1211944.0,1122.791222,1.0,5.11,0.07,-8.1,-6.06,-7.0,37.88,-14.25,17.5,5.13,-0.14820703163712926,-0.16366092493460527,0.2317740333139113,-128.3424298098244,-39.169400592648394,-30.852762845389066,0.0822,-0.9001,-0.3352,-0.266
1211977.0,1122.8328609999999,1.0,4.83,-0.71,-7.92,-6.06,-8.06,36.25,3.81,16.19,8.81,-0.8105832040104369,-0.5761478053849969,0.5562225192980268,-128.18484420355122,-38.8168714421915,-31.39994691440291,0.0848,-0.8995,-0.3323,-0.2706
1212014.0,1122.849002,1.0,5.2,-0.09,-8.0,-6.5,-8.06,37.5,-25.06,27.06,9.44,-0.3247429079029213,-0.22871163325903565,0.2730078296341176,-128.05386288415187,-38.343381493661,-32.19825231317595,0.0842,-0.899,-0.3284,-0.2773
1212049.0,1122.9052900000004,1.0,6.01,-0.08,-8.49,-6.5,-8.06,37.5,-14.94,27.06,12.44,-0.17381741029323167,-0.4446367944718925,-0.5846293066532855,-127.87100362286014,-37.81000260574194,-33.14160783025417,0.0828,-0.8983,-0.324,-0.2852
1212084.0,1122.945113,1.0,4.9,-0.2,-7.84,-6.88,-7.69,35.88,-8.69,21.62,16.94,-0.7499467363862272,-0.08414401952766459,0.5900291617230256,-127.81886761171008,-37.04777503969204,-33.9794256257345,0.0834,-0.8981,-0.3177,-0.2922
1212119.0,1123.001496,1.0,5.83,0.11,-8.17,-9.5,-9.19,35.88,-8.31,34.5,20.0,-0.29431625113946025,-0.06660311662329466,-0.2262380173742233,-127.58485235552216,-36.1305141127441,-35.227664546585345,0.0856,-0.8972,-0.3101,-0.3026
1212155.0,1123.01827,1.0,6.4,0.76,-8.42,-9.88,-9.19,34.75,-13.19,36.19,17.31,0.17215815379205435,0.3679841907850183,-0.7890542807646934,-127.27433384194984,-35.43211039129503,-36.29930145114271,0.0867,-0.8959999999999999,-0.3043,-0.3115
1212190.0,1123.063922,1.0,7.53,1.24,-9.07,-9.88,-9.19,34.75,-11.13,31.69,19.94,0.6240977480855131,0.607568964378682,-2.014718869735786,-126.9655039569828,-34.48301299993159,-37.56783922201158,0.0886,-0.8948,-0.2964,-0.322
1212227.0,1123.08444,1.0,7.31,1.5,-8.99,-11.88,-9.25,35.19,-8.44,12.38,12.75,0.596308194999125,0.978282484233264,-1.820627407786368,-126.91419440082724,-33.943481085591756,-38.10083031138289,0.0893,-0.8946,-0.2919,-0.3264
1212264.0,1123.1252470000004,1.0,7.53,1.56,-9.11,-12.19,-9.25,35.19,-2.63,7.69,6.25,0.6477249458497536,1.0184550319103396,-2.05378008252654,-126.88855686312144,-33.596193911040075,-38.42831653324454,0.0896,-0.8945,-0.289,-0.3291
1212297.0,1123.179671,1.0,7.15,1.08,-9.01,-12.19,-9.25,35.19,8.56,-4.63,2.81,0.2162926517740588,0.7661213348424747,-1.7187686730499188,-126.93984342653314,-33.632105380362496,-38.306987464775865,0.0901,-0.8947,-0.2893,-0.3281
1212332.0,1123.1984929999999,1.0,6.68,0.47,-8.63,-13.69,-9.69,34.75,13.5,-16.19,-0.37,-0.09282592053429584,0.34863444504867824,-1.1107689885797891,-127.24853393391231,-33.83566809114509,-37.640469908070976,0.0925,-0.8959,-0.29100000000000004,-0.3226
1212366.0,1123.2136679999999,1.0,6.31,0.19,-8.36,-13.38,-9.0,36.0,14.31,-27.62,0.5,-0.21282087096946456,0.16475756874353542,-0.665664081444536,-127.68873899317936,-33.9794256257345,-36.890702437106015,0.0934,-0.8976,-0.2922,-0.3164
1212403.0,1123.247917,1.0,6.15,-0.43,-8.3,-12.5,-8.56,36.38,20.19,-28.44,2.75,-0.4114206172986524,-0.3036443381287885,-0.5198176047322196,-128.3687376178253,-34.279097871531036,-35.57649524988903,0.0969,-0.9002,-0.2947,-0.3055
1212438.0,1123.308137,1.0,5.56,-0.55,-7.57,-12.5,-8.56,36.38,5.19,-28.56,4.63,-0.3581174829959915,-0.4195670997476154,0.4142746179583554,-128.97730409708814,-34.351055102879386,-34.675036035061034,0.0975,-0.9025,-0.2953,-0.298
1212475.0,1123.3111720000004,1.0,5.21,-0.03,-7.17,-10.56,-8.19,36.0,-0.81,-21.69,7.13,0.03977108069313184,-0.048309491549284315,0.9438070896147116,-129.80842917390058,-34.18317656247093,-33.78776111254545,0.0952,-0.9056,-0.2939,-0.2906
1212510.0,1123.354847,1.0,4.46,-0.36,-6.49,-10.25,-7.75,36.0,5.0,-6.38,6.5,-0.26537574792441665,-0.20083834798089728,1.9307030937293737,-130.18802216268048,-34.07529458830543,-33.3449084936511,0.0956,-0.907,-0.293,-0.2869
1212542.0,1123.417912,1.0,4.1,-0.22,-6.38,-10.25,-7.75,36.0,-3.19,17.56,3.69,-0.3795163325384133,0.06846775680409167,2.2294421026531914,-130.24247093533856,-33.871602322817786,-33.476513522752754,0.0964,-0.9072,-0.2913,-0.28800000000000003
1212579.0,1123.433857,1.0,5.72,0.05,-7.58,-10.25,-7.06,36.75,-0.25,24.37,4.5,0.21079789899284435,0.010491172338578993,0.3128228380445446,-129.86249210271768,-33.668020251284275,-34.111251783016854,0.0985,-0.9058,-0.2896,-0.2933
1212616.0,1123.4763380000004,1.0,5.18,0.45,-6.7,-10.56,-7.5,36.38,-3.75,26.69,-1.81,0.3772481723895033,0.34200861305906577,1.3410954449208001,-129.27076347961943,-33.476513522752754,-35.059384322363556,0.0991,-0.9036,-0.28800000000000003,-0.3012
1212651.0,1123.534201,1.0,5.28,-0.04,-6.85,-10.56,-7.5,36.38,3.5,40.06,-3.25,-0.045586190410833116,0.038570929921347696,1.1580122932505257,-128.44773606463812,-33.500446588735926,-36.04615086901799,0.1019,-0.9005,-0.2882,-0.3094
1212684.0,1123.541927,1.0,5.25,0.18,-7.08,-11.75,-6.69,36.0,6.19,43.31,-5.0,-0.2588797393679504,0.4440714794198779,1.0056794966003526,-127.17120439382437,-33.51241368583526,-37.56783922201158,0.1055,-0.8956,-0.2883,-0.322
1212719.0,1123.599371,1.0,6.99,0.18,-7.38,-12.75,-8.19,35.88,-5.69,62.31,-6.81,0.3319384865419646,-0.03132652185946616,-0.35434087147412185,-125.44568125373512,-33.416687431310486,-39.72937892373464,0.1093,-0.8888,-0.2875,-0.3398
1212755.0,1123.60595,1.0,6.07,-0.56,-6.98,-14.25,-9.0,34.38,-14.81,31.75,-2.44,-0.6038176029480966,-0.314608039318346,0.564608770706208,-124.60157138168795,-33.32098517464778,-40.827870624577365,0.11,-0.8854,-0.2867,-0.3488
1212790.0,1123.661685,1.0,6.91,-0.19,-7.22,-14.25,-9.0,34.38,-21.19,51.81,0.56,-0.34396977225942044,-0.18595902099601447,-0.18132797546039825,-123.40547411170807,-32.818938689500946,-42.815165407712406,0.10800000000000001,-0.8805,-0.2825,-0.365
1212827.0,1123.668942,1.0,6.75,0.08,-6.83,-15.5,-9.25,34.06,-15.88,29.62,-1.69,-0.23709140279953425,-0.016081777117800008,0.2065807792514711,-122.70838865597605,-32.53234621871178,-43.96211035016289,0.1059,-0.8776,-0.2801,-0.3743
1212864.0,1123.727604,1.0,7.19,0.02,-6.99,-17.37,-9.25,33.69,-18.06,39.5,-0.06,-0.37397128265785,-0.11076889970605353,-0.21355337770672025,-121.71235608620218,-32.138622347851936,-45.52349068442483,0.1042,-0.8734,-0.2768,-0.3869
1212897.0,1123.7444050000001,1.0,7.31,0.3,-6.7,-17.37,-9.25,33.69,-26.81,38.56,-3.38,-0.17428492932131573,-0.01349897197775074,-0.11229866108132568,-121.01031078825766,-31.769115255908964,-46.744081927482135,0.1011,-0.8704,-0.2737,-0.3967
1212932.0,1123.804421,1.0,7.8,1.23,-6.76,-18.19,-9.25,32.06,-23.81,36.31,6.56,0.2959486443937677,0.6712201851939394,-0.5621675730345306,-120.13181910251943,-31.09057958723377,-48.3342986251064,0.0984,-0.8666,-0.268,-0.4094
1212968.0,1123.808668,1.0,7.84,0.73,-6.34,-20.0,-9.69,31.25,-12.75,31.69,4.88,0.19412383151482626,0.1570419839081746,-0.2993756161029104,-119.53742748975634,-30.793329976755967,-49.164614087930325,0.0996,-0.8640000000000001,-0.2655,-0.41600000000000004
1213003.0,1123.8450970000001,1.0,8.51,1.09,-6.72,-20.0,-10.5,30.87,-4.5,23.94,6.5,0.28795176522117943,0.4634313137058788,-1.0776926626683745,-118.81305169988,-30.306298828005648,-50.31398649954689,0.1,-0.8608,-0.2614,-0.4251
1213038.0,1123.899415,1.0,8.78,1.34,-6.83,-20.0,-10.5,30.87,-3.5,19.87,3.81,0.3759855519277484,0.6922490478048786,-1.3697683046517533,-118.38659680691794,-30.021467926252928,-50.94781312005565,0.1008,-0.8589,-0.259,-0.4301
1213075.0,1123.917672,1.0,8.55,0.94,-6.77,-20.37,-10.75,31.75,3.69,12.44,0.19,0.009214452294584702,0.4718177743831586,-1.1293594678838428,-117.9627870826262,-29.96215210560615,-51.443358765022325,0.1023,-0.857,-0.2585,-0.434
1213110.0,1123.974004,1.0,8.33,0.86,-6.55,-21.19,-10.5,28.87,0.19,7.63,-0.75,-0.02877966238455029,0.42544809883599977,-0.8163987924244172,-117.69645604638977,-29.96215210560615,-51.68515222063561,0.1033,-0.8558,-0.2585,-0.4359
1213145.0,1124.021005,1.0,8.42,0.83,-6.7,-21.19,-10.5,28.87,2.75,0.19,-1.88,-0.12620981902439599,0.4351252375623241,-0.9762084850779812,-117.56367389565744,-30.033332077879628,-51.799772186124144,0.1036,-0.8552,-0.2591,-0.4368
1213179.0,1124.04203,1.0,7.93,0.39,-6.32,-21.19,-11.56,29.69,5.06,-2.63,-1.56,-0.317029098853802,0.0834031357150663,-0.3359303653425805,-117.56367389565744,-30.16385952856291,-51.68515222063561,0.1044,-0.8552,-0.2602,-0.4359
1213216.0,1124.07309,1.0,7.75,0.44,-5.87,-21.87,-11.56,28.87,3.75,-1.81,-0.31,-0.051776937066177975,-0.00015113909352915122,0.0747273160723747,-117.60790637777723,-30.24694330618832,-51.583314406764714,0.1046,-0.8554,-0.2609,-0.4351
1213251.0,1124.101774,1.0,7.77,0.48,-5.86,-21.87,-11.56,28.87,1.31,-0.75,0.06,-0.0020317413364233095,0.02708273444237841,0.0628231133233772,-117.63003319551184,-30.28255562108873,-51.51968798135092,0.1052,-0.8555,-0.2612,-0.4346
1213286.0,1124.145359,1.0,8.01,0.52,-6.15,-21.87,-10.75,29.25,1.5,-3.5,-0.5,-0.052509098297248924,0.09494651778573536,-0.3047904489843276,-117.65216707446251,-30.318170931025325,-51.45607859919252,0.1056,-0.8556,-0.2615,-0.4341
1213321.0,1124.205211,1.0,7.8,0.62,-5.88,-21.5,-11.56,30.06,-1.19,-4.5,-1.06,0.1049367615074644,0.1277458817127547,0.020360137861761274,-117.76294265360838,-30.353789240195113,-51.31619778683095,0.1052,-0.8561,-0.2618,-0.433
1213356.0,1124.212088,1.0,7.86,0.66,-6.06,-21.5,-10.5,31.25,1.0,-1.88,-2.06,0.037416568416023394,0.18570224357456733,-0.13834445334884649,-117.80730258048688,-30.44878609284871,-51.23993373594613,0.1042,-0.8563,-0.2626,-0.4324
1213390.0,1124.275247,1.0,7.88,0.34,-6.39,-21.5,-10.5,31.25,1.63,-5.44,-3.0,-0.3325078451146221,0.027811450383030567,-0.3388300308395866,-117.87389590745228,-30.555683180576786,-51.1001794642751,0.1041,-0.8566,-0.2635,-0.4313
1213427.0,1124.2941050000004,1.0,7.78,0.52,-6.23,-22.25,-10.75,29.25,-0.69,-5.13,-0.88,-0.14397013604471134,0.11225965064569254,-0.17224625012527284,-118.07406258134459,-30.61508221704001,-50.87166614791169,0.1028,-0.8575,-0.264,-0.4295
1213460.0,1124.297217,1.0,7.36,0.22,-5.91,-20.75,-11.19,28.5,-5.0,-2.88,-0.37,-0.2846962156296741,-0.13003115872514134,0.3701177999507266,-118.16321281406336,-30.603201736078947,-50.79554323372685,0.1021,-0.8579,-0.2639,-0.4289
1213495.0,1124.349065,1.0,7.52,1.06,-5.66,-20.75,-11.19,28.5,-12.0,1.94,-2.13,0.3840358233348575,0.37665735494689057,0.3504221197424666,-118.25247900079262,-30.401284991821623,-50.94781312005565,0.0983,-0.8583,-0.2622,-0.4301
1213530.0,1124.401502,1.0,8.08,0.68,-6.4,-21.19,-11.19,30.06,8.69,4.69,0.12,-0.05951239720151455,0.16997344911899104,-0.521775209158168,-118.07406258134459,-30.50817000692102,-51.01128734852718,0.1,-0.8575,-0.2631,-0.4306
1213566.0,1124.405823,1.0,7.61,0.59,-5.85,-21.5,-11.56,30.5,4.19,2.81,-2.63,0.042919296739293455,0.04380718675766826,0.1900529478013464,-118.0517930817869,-30.603201736078947,-50.973200800075034,0.1003,-0.8574,-0.2639,-0.4303
1213601.0,1124.443056,1.0,7.73,0.34,-6.03,-21.5,-11.56,30.5,3.06,0.75,-1.94,-0.16513640193402712,-0.12914798204036124,-0.0007681499256566582,-117.94055354353924,-30.710138215163173,-51.02398420663922,0.1011,-0.8569,-0.2648,-0.4307
1213636.0,1124.511124,1.0,7.89,0.54,-6.31,-20.75,-12.25,29.25,-5.06,1.19,0.5,-0.17937930739688784,0.08332586833969935,-0.30871849866297474,-117.94055354353924,-30.63884419055943,-51.06207881053215,0.1002,-0.8569,-0.2642,-0.431
1213671.0,1124.531966,1.0,7.72,0.71,-5.98,-22.25,-11.56,30.5,0.75,-2.88,0.56,0.06401287766718182,0.14055114329332485,0.016908035698198987,-118.0517930817869,-30.626963035148037,-50.998591161570644,0.0994,-0.8574,-0.2641,-0.4305
1213708.0,1124.5847410000001,1.0,7.79,0.32,-6.31,-22.25,-10.75,30.5,0.0,-1.5,1.75,-0.3253800480374405,-0.08360034343232113,-0.21780703302264293,-118.09633929648312,-30.626963035148037,-50.92242811941736,0.0995,-0.8576,-0.2641,-0.4299
1213741.0,1124.587976,1.0,7.61,0.6,-6.1,-22.25,-10.75,30.5,-6.75,0.88,1.37,-0.13343944514536646,0.1160945602402641,0.036756655261687136,-118.18551847027427,-30.460662205117806,-50.998591161570644,0.0976,-0.858,-0.2627,-0.4305
1213777.0,1124.62725,1.0,7.69,0.76,-6.1,-21.5,-10.5,30.06,-10.19,2.13,0.63,-0.03041824811667768,0.20019202934294134,-0.036250887521376285,-118.20783138151,-30.34191613696452,-51.1001794642751,0.0956,-0.8581,-0.2617,-0.4313
1213812.0,1124.693449,1.0,7.83,0.81,-5.99,-21.5,-11.56,28.87,-7.0,1.75,2.06,0.12346289070649474,0.13891946261140053,-0.08327205720177132,-118.25247900079262,-30.19946487135094,-51.20181083863503,0.0942,-0.8583,-0.2605,-0.4321
1213845.0,1124.712571,1.0,7.87,0.91,-6.16,-21.5,-11.56,28.87,0.06,-3.44,-0.06,0.0669712989404789,0.2480537415396199,-0.2255274399392686,-118.29715573552454,-30.12825716684205,-51.2272254279677,0.0923,-0.8585,-0.2599,-0.4323
1213880.0,1124.715672,1.0,7.45,0.53,-6.0,-20.75,-11.56,29.69,2.94,-1.37,-0.56,-0.21067458054744514,0.019106591614526103,0.2286203926502708,-118.36422556879907,-30.17572764472251,-51.125583264636,0.0928,-0.8588,-0.2603,-0.4315
1213917.0,1124.7566060000001,1.0,7.73,0.53,-6.04,-21.87,-11.88,30.0,-2.06,4.69,0.31,-0.12013133402797325,-0.06279956339369808,-0.01663991109507457,-118.25247900079262,-30.15199174363297,-51.23993373594613,0.0927,-0.8583,-0.2601,-0.4324
1213952.0,1124.820756,1.0,7.8,1.01,-5.96,-21.87,-11.88,30.0,-1.0,6.0,-1.06,0.18664256377420047,0.2935068402519197,-0.0554348854647948,-118.1186232350635,-30.09265778200395,-51.45607859919252,0.0922,-0.8577,-0.2596,-0.4341
1213984.0,1124.838101,1.0,7.91,0.73,-6.32,-21.5,-11.56,29.25,5.69,0.37,-0.81,-0.16637572966949474,0.19206305886723485,-0.3411985846998853,-117.9183271731557,-30.223203424759074,-51.54513650446032,0.0946,-0.8568,-0.2607,-0.4348
1214019.0,1124.9184380000004,1.0,7.67,0.61,-6.07,-21.5,-11.88,29.25,5.13,0.12,-0.81,-0.1596886288722185,0.08746191478937593,0.008040407038850006,-117.89610796371052,-30.33004336729311,-51.46879911376182,0.0956,-0.8567,-0.2616,-0.4342
1214056.0,1124.923005,1.0,7.72,0.57,-6.03,-21.19,-10.75,30.06,1.5,2.25,-1.25,-0.12944056807661747,0.028276690739243767,-0.0049067352024643185,-117.80730258048688,-30.41315976518269,-51.46879911376182,0.0964,-0.8563,-0.2623,-0.4342
1214091.0,1124.9726890000004,1.0,7.86,0.75,-6.09,-21.19,-10.75,30.06,2.56,1.25,-0.81,-0.011878788713979184,0.15394930655869998,-0.16362374275093927,-117.76294265360838,-30.460662205117806,-51.494242185161674,0.0966,-0.8561,-0.2627,-0.4344
1214128.0,1124.9807560000004,1.0,7.66,0.47,-5.99,-21.5,-12.0,29.25,8.44,-4.06,0.37,-0.16141054465539373,-0.034223090864357375,0.0727209158055917,-117.78511905973166,-30.57944178497209,-51.34162455414572,0.0983,-0.8562,-0.2637,-0.4332
1214160.0,1125.0486859999999,1.0,7.63,0.71,-5.81,-21.5,-12.0,30.87,5.5,-0.81,-0.94,0.08888167327782656,0.11183353674673124,0.1912096404421461,-117.80730258048688,-30.63884419055943,-51.278062716299324,0.099,-0.8563,-0.2642,-0.4327
1214195.0,1125.067194,1.0,7.73,0.45,-6.16,-21.5,-12.0,30.87,-0.56,1.19,1.06,-0.2341343603181689,0.018708844022842785,-0.08505516546433256,-117.71861115458816,-30.74578979374247,-51.23993373594613,0.1008,-0.8559,-0.2651,-0.4324
1214230.0,1125.070183,1.0,7.75,0.6,-6.15,-21.5,-10.75,29.69,1.94,2.56,0.88,-0.13886926943659444,0.1404365601917813,-0.10324368755122748,-117.69645604638977,-30.73390559555541,-51.26535237984769,0.1011,-0.8558,-0.265,-0.4326
