TIME,ELAPSED_SECONDS,PSTATE,acc_x,acc_y,acc_z,mag_x,mag_y,mag_z,gyr_x,gyr_y,gyr_z,lin_x,lin_y,lin_z,eul_x,eul_y,eul_z,qua_w,qua_x,qua_y,qua_z
272732.0,121.056048,1.0,0.35,0.07,-9.76,12.06,-11.06,37.25,-0.75,-0.81,0.69,-0.03843320667991902,0.06505778588278557,0.04041785177004442,-127.66274936627121,-52.258810985064926,-2.3951379752687134,0.0068,-0.8975,-0.4404,-0.0209
272766.0,121.10181000000001,1.0,0.38,0.05,-9.76,12.38,-10.75,37.38,-0.5,-0.31,0.44,-0.03587593508813236,0.029093330679787643,0.039236499211190434,-127.68873899317936,-52.258810985064926,-2.3951379752687134,0.0068,-0.8976,-0.4404,-0.0209
272801.0,121.134743,1.0,0.45,0.03,-9.83,11.25,-10.0,37.69,-0.31,0.44,0.44,-0.013722708150410752,-0.037181534531955836,-0.033610627685167316,-127.68873899317936,-52.24604776210595,-2.4065996467302937,0.0067,-0.8976,-0.4403,-0.021
272838.0,121.210278,1.0,0.33,0.07,-9.75,11.25,-10.0,37.69,-0.12,0.06,0.31,-0.051168789724684166,0.07881982453453591,0.051268449787910335,-127.68873899317936,-52.24604776210595,-2.3951379752687134,0.0067,-0.8976,-0.4403,-0.0209
272871.0,121.214395,1.0,0.38,0.04,-9.89,12.06,-11.06,38.06,0.5,-0.81,0.56,-0.045182810749792864,0.023498251956691862,-0.0905974125772886,-127.68873899317936,-52.23328523623708,-2.372214704126748,0.0067,-0.8976,-0.4402,-0.0207
272908.0,121.294642,1.0,0.3,0.11,-9.68,12.75,-10.75,37.69,-0.94,-1.12,-0.31,-0.03213735406932945,0.11454932623027078,0.1221084185758361,-127.68873899317936,-52.23328523623708,-2.349291527927613,0.0063,-0.8976,-0.4402,-0.0205
272943.0,121.31596100000002,1.0,0.27,0.0,-9.62,12.75,-10.75,37.69,1.12,-0.37,0.19,-0.13211624588596946,0.06743787338101755,0.18400496701625,-127.68873899317936,-52.23328523623708,-2.3263684457528235,0.0063,-0.8976,-0.4402,-0.0203
272977.0,121.320085,1.0,0.34,0.03,-9.78,12.06,-11.5,38.56,0.06,1.0,0.37,-0.07056500218152408,0.03954906772011338,0.02103011918970844,-127.68873899317936,-52.23328523623708,-2.337829975144579,0.0065,-0.8976,-0.4402,-0.0204
273012.0,121.37323899999998,1.0,0.43,0.13,-9.74,12.38,-10.75,37.38,-1.12,0.37,-0.25,0.0604116195988364,0.028459899757494325,0.05652484847895777,-127.68873899317936,-52.23328523623708,-2.360753104216733,0.0064,-0.8976,-0.4402,-0.0206
273049.0,121.39455,1.0,0.32,0.07,-9.68,10.88,-10.75,39.0,-0.44,-1.06,0.44,-0.04716578709725185,0.07430273447763605,0.12150908764479418,-127.71474062830828,-52.22052340718582,-2.3263684457528235,0.0064,-0.8977,-0.4401,-0.0203
273084.0,121.397875,1.0,0.35,0.07,-9.81,10.88,-10.75,39.0,-0.06,-1.63,0.56,-0.03012267836421772,0.04654297899287069,-0.009684671116032106,-127.71474062830828,-52.22052340718582,-2.2919839967771853,0.0061,-0.8977,-0.4401,-0.02
273119.0,121.442893,1.0,0.41,0.02,-9.89,12.06,-10.75,37.69,0.69,0.63,1.06,-0.03444658648827727,-0.027399549365528825,-0.0917671814171328,-127.7407542896587,-52.20776227467979,-2.2919839967771853,0.0062,-0.8978,-0.44,-0.02
273156.0,121.505991,1.0,0.33,-0.01,-9.71,12.06,-10.75,37.75,-0.25,-0.81,-0.19,-0.0998806179613763,0.011392346113411202,0.09155895170787788,-127.7407542896587,-52.19500183844674,-2.280522559802512,0.0062,-0.8978,-0.4399,-0.0199
273190.0,121.532218,1.0,0.42,-0.07,-9.81,12.06,-10.75,37.75,-1.19,-1.0,1.94,-0.093208709613554,-0.09879174971180166,-0.011646813940849654,-127.7928177632481,-52.14396705080251,-2.2575997541901875,0.006,-0.898,-0.4395,-0.0197
273223.0,121.575846,1.0,0.23,0.14,-9.71,12.06,-10.75,38.06,-3.38,-2.44,1.12,-0.04933104824602046,0.15114612241808895,0.09421872367392403,-127.84492955883974,-52.09294338177222,-2.2346770389286066,0.0046,-0.8982,-0.4391,-0.0195
273260.0,121.591885,1.0,0.1,0.06,-9.39,12.38,-11.5,38.88,-0.06,2.06,0.75,-0.1865086092831515,0.19633859926297528,0.4198312794161847,-127.87100362286014,-52.08018919976154,-2.2575997541901875,0.0045,-0.8983,-0.439,-0.0197
273295.0,121.59683400000002,1.0,-0.25,-0.4,-8.61,12.38,-11.5,38.88,-11.56,29.37,-0.81,-0.7961891399207635,0.2185253582136535,1.2233563710199322,-127.84492955883974,-52.08018919976154,-2.738999060214957,0.0056,-0.8982,-0.439,-0.0239
273328.0,121.641152,1.0,1.62,0.99,-10.18,12.38,-10.75,38.88,-55.75,130.44,-10.25,0.7969720031720617,-0.08507165372231518,-0.5178111694699545,-127.3259688536123,-52.23328523623708,-6.351624225020216,0.0049,-0.8962,-0.4402,-0.0554
273364.0,121.658745,1.0,1.65,0.58,-9.5,10.88,-11.88,38.56,-14.31,102.31,-6.69,-0.0222421074222018,0.08911297575001592,0.14743346002066282,-126.37819315148278,-52.33540497698414,-10.706964767003905,0.0146,-0.8925,-0.441,-0.0933
273399.0,121.705278,1.0,2.35,0.85,-9.34,6.38,-12.56,38.88,-21.81,134.88,-11.5,0.18385843135524327,0.10784582804753046,0.14046329817221448,-125.3207938561998,-52.42479644291255,-14.188281840563285,0.0242,-0.8883,-0.4417,-0.1235
273434.0,121.765451,1.0,2.83,0.65,-8.99,6.38,-12.56,38.88,-8.38,138.06,-10.56,-0.22857247737759945,0.19327105942651174,0.3640920351170909,-123.30885743015295,-52.578118912593965,-19.145524872704485,0.0407,-0.8801,-0.4429,-0.1663
273471.0,121.83377,1.0,4.09,0.64,-9.58,3.06,-13.38,38.56,11.5,104.62,-7.81,-0.1144641003800166,-0.1404882265918324,-0.6279683939765288,-121.80654521371449,-52.51422225376784,-22.44271531767953,0.0538,-0.8738,-0.4424,-0.1946
273506.0,121.853642,1.0,4.55,0.5,-9.55,-1.37,-13.38,38.88,8.06,54.06,-1.31,-0.09160864415898734,-0.20438335428579613,-0.7813070881641853,-121.01031078825766,-52.39925252360182,-23.904917493763705,0.0673,-0.8704,-0.4415,-0.2071
273541.0,121.85696100000001,1.0,4.35,0.95,-9.08,-1.37,-13.38,38.88,-14.38,4.38,-2.0,0.23547847283701226,0.08855913675298688,-0.30315252864159525,-120.91727899971443,-52.322637565756146,-24.291588578811197,0.0663,-0.87,-0.4409,-0.2104
273573.0,121.89976000000001,1.0,4.35,0.82,-9.4,-2.5,-13.38,38.69,-10.13,-2.13,1.19,-0.016310029722323316,0.05374234306112147,-0.583332952030899,-121.05687678616405,-52.182242098214466,-24.420541139763646,0.0626,-0.8706,-0.4398,-0.2115
273610.0,121.95870500000001,1.0,4.45,1.07,-9.48,-3.25,-13.5,38.88,-11.63,-11.31,0.75,0.1841971781428074,0.08183200569616755,-0.718423630260645,-121.2668396082864,-52.054682916137764,-24.373645675055762,0.0586,-0.8715,-0.4388,-0.2111
273645.0,121.96615800000001,1.0,4.25,1.1,-9.25,-3.25,-13.5,38.88,-12.25,-22.81,1.12,0.2050158889218932,0.0746126042497226,-0.4299217622931142,-121.57133213564484,-52.00367866289412,-23.96348615709585,0.0543,-0.8728,-0.4384,-0.2076
273678.0,121.984204,1.0,3.94,1.1,-9.23,-2.56,-13.88,38.06,-2.38,-16.94,0.75,0.08631902487607526,0.1681520991831113,-0.2874459920878873,-121.92447762133864,-51.95268548055449,-23.436594836002673,0.0491,-0.8743,-0.43799999999999994,-0.2031
273713.0,122.03153400000001,1.0,3.84,1.03,-9.21,-2.56,-14.19,38.06,-0.5,-15.81,1.12,0.05036657248621157,0.1098157735925424,-0.2241028981750084,-122.25585789752888,-51.9017033518216,-22.88682192770989,0.0466,-0.8757,-0.4376,-0.1984
273750.0,122.097057,1.0,3.68,1.0,-9.1,-1.75,-14.56,38.88,-0.06,-24.5,0.88,0.04404048338524488,0.09509215229434624,-0.059525445348379336,-122.5651319143896,-51.91444784867411,-22.302542365509357,0.0441,-0.877,-0.4377,-0.1934
273782.0,122.11618500000002,1.0,3.32,0.98,-9.11,-1.75,-14.56,38.88,1.19,-27.31,0.56,-0.05777697580483567,0.2190115657602582,0.06377589863082811,-122.9958904624243,-51.93993891277072,-21.357247097771975,0.0403,-0.8788,-0.4379,-0.1853
273819.0,122.1648,1.0,3.05,0.8,-9.06,-1.06,-13.88,38.06,2.63,-16.37,1.06,-0.251572157942401,0.2397646684836399,0.21992353299912004,-123.2364939020704,-51.95268548055449,-20.762818905741057,0.0393,-0.8798,-0.43799999999999994,-0.1802
273856.0,122.18366,1.0,3.35,0.93,-9.17,-0.25,-13.88,38.56,-1.44,-6.38,0.06,0.004287953475934164,0.08011766199675352,2.658652626941205e-05,-123.33299743586115,-51.95268548055449,-20.56480245757989,0.038,-0.8802,-0.43799999999999994,-0.1785
273889.0,122.187174,1.0,3.27,0.98,-9.28,-0.25,-13.88,38.56,-2.13,-9.75,-0.81,-0.006830896115078589,0.15064248020808635,-0.08015738064695023,-123.42965193046732,-51.97818068894304,-20.320279509683687,0.0365,-0.8806,-0.4382,-0.1764
273924.0,122.23173200000001,1.0,3.14,1.01,-9.31,0.37,-13.88,37.75,-0.63,-13.69,0.12,-0.030430074972991824,0.2187833199671148,-0.06791367995271712,-123.57491843142247,-51.9909293300881,-20.00603003933895,0.0347,-0.8812,-0.4383,-0.1737
273958.0,122.29359699999999,1.0,3.18,0.97,-9.41,0.75,-13.88,38.88,0.94,-7.63,0.44,-0.02423179818885729,0.13061693472483074,-0.17251589882739715,-123.69623657185858,-52.0164286876315,-19.645412292934687,0.0332,-0.8817,-0.4385,-0.1706
273993.0,122.301275,1.0,3.21,0.95,-9.46,0.75,-13.88,38.88,1.12,-11.69,0.19,-0.004564466906900364,0.06965901854369277,-0.22795645898868244,-123.79346416819729,-52.04193081398262,-19.389609385924846,0.0323,-0.8821,-0.4387,-0.1684
274026.0,122.364938,1.0,3.27,0.96,-9.76,0.0,-13.5,38.19,9.63,-29.25,1.81,0.09082236401432796,-0.00617954111647584,-0.5308454951122688,-124.15945231540816,-52.054682916137764,-18.483448143006754,0.0309,-0.8836,-0.4388,-0.1606
274061.0,122.381542,1.0,2.38,0.66,-9.02,0.75,-13.06,38.88,8.0,-29.31,2.0,-0.3257638828535062,0.2523157106924354,0.4637053531145234,-124.45383854948406,-52.1184538275471,-17.508882729880764,0.0295,-0.8848,-0.4393,-0.1522
274098.0,122.442816,1.0,2.37,0.68,-9.11,2.69,-13.88,38.19,-0.06,-10.19,0.31,-0.2737357445793903,0.22822099612840724,0.3756169749774667,-124.65089633148649,-52.131210091854,-16.998909587512788,0.0281,-0.8856,-0.4394,-0.1478
274130.0,122.446146,1.0,2.77,0.85,-9.47,2.69,-13.88,38.19,-0.06,-6.75,0.94,0.008988960510185898,0.06521362073859299,-0.09647912075062948,-124.72495975966049,-52.09294338177222,-16.906223928806188,0.0271,-0.8859,-0.4391,-0.147
274167.0,122.486488,1.0,2.47,0.87,-9.2,3.0,-13.06,38.88,-3.25,-8.19,0.19,-0.05681882975922418,0.21699241307100048,0.2438321143946034,-124.77438620684354,-52.15672470466425,-16.651395613206027,0.0257,-0.8861,-0.4396,-0.1448
274202.0,122.547568,1.0,2.59,0.79,-9.4,3.0,-14.19,38.88,0.88,-2.5,0.0,-0.08808278585108183,0.09464711641445832,0.025265468851502604,-124.79911472012829,-52.14396705080251,-16.55875139620892,0.0252,-0.8862,-0.4395,-0.14400000000000002
274235.0,122.55476999999999,1.0,2.66,0.74,-9.48,3.0,-14.19,38.88,0.06,-1.0,-0.19,-0.09584530905161516,0.016362915523921884,-0.06675599447467206,-124.84860239500851,-52.15672470466425,-16.489275388774946,0.0251,-0.8864,-0.4396,-0.1434
274272.0,122.612489,1.0,2.59,0.86,-9.46,3.0,-13.88,38.56,-1.56,-1.81,-0.19,-0.03511961008243894,0.13116381050383685,-0.03818939268700383,-124.84860239500851,-52.14396705080251,-16.454539675361616,0.0247,-0.8864,-0.4395,-0.1431
274307.0,122.62063400000001,1.0,2.64,0.85,-9.44,2.25,-13.06,38.88,0.19,0.5,0.12,-0.012308673722209812,0.07780831811022547,-0.03202340458987507,-124.84860239500851,-52.14396705080251,-16.454539675361616,0.0244,-0.8864,-0.4395,-0.1431
274341.0,122.63942800000001,1.0,2.5,0.85,-9.35,2.25,-13.06,38.88,-0.31,-1.31,-0.75,-0.06729067061278833,0.1661524326395269,0.09259495924712093,-124.84860239500851,-52.15672470466425,-16.419805484293857,0.0243,-0.8864,-0.4396,-0.1428
274374.0,122.68549099999998,1.0,2.61,0.86,-9.54,3.0,-13.88,38.56,-0.31,1.37,-0.31,-0.04663228072956449,0.12020599322789127,-0.12041784249941576,-124.84860239500851,-52.15672470466425,-16.454539675361616,0.0242,-0.8864,-0.4396,-0.1431
274411.0,122.747781,1.0,2.79,0.79,-9.63,2.69,-14.19,38.56,1.19,0.19,-0.19,-0.018142467689646682,-0.039180309447068684,-0.2503493414645206,-124.87336158426493,-52.10569825761032,-16.466118077182387,0.0245,-0.8865,-0.4392,-0.1432
274444.0,122.769052,1.0,2.67,0.84,-9.39,2.69,-14.19,38.56,-0.5,-4.19,-1.19,0.017918040271461266,0.031612835698381865,0.008421610517951095,-124.89813102655701,-52.131210091854,-16.38507281218067,0.0242,-0.8866,-0.4394,-0.1425
274479.0,122.82104299999999,1.0,2.53,0.75,-9.41,2.25,-13.5,38.88,1.0,-1.69,-0.19,-0.12012668836804725,0.07471869724513952,0.03467544543715738,-124.9229107357918,-52.14396705080251,-16.257732621833743,0.024,-0.8867,-0.4395,-0.1414
274513.0,122.84018400000001,1.0,2.62,0.77,-9.46,3.38,-13.5,39.75,-1.25,-1.37,0.37,-0.061167314655250986,0.023294024150311343,-0.039395701095276785,-124.89813102655701,-52.182242098214466,-16.234582036054892,0.024,-0.8866,-0.4398,-0.1412
274548.0,122.888728,1.0,2.48,0.86,-9.36,4.19,-14.19,39.69,-0.5,-5.56,0.19,-0.0342434797852999,0.14378319673784334,0.08668324201013533,-124.94770072590693,-52.19500183844674,-16.095692494623034,0.0231,-0.8868,-0.4399,-0.14
274583.0,122.90765900000001,1.0,2.72,0.81,-9.79,4.19,-14.19,39.69,1.63,-14.0,2.0,0.0011766217210787276,-0.043010143620680896,-0.3863254607330919,-125.07180537967443,-52.169483053710955,-15.817984589415364,0.022000000000000002,-0.8873,-0.4397,-0.1376
274620.0,122.956368,1.0,2.31,0.74,-9.7,3.0,-13.5,39.69,2.81,-45.94,3.63,-0.0998906037105822,0.04029843211040834,-0.1914547155778372,-125.57083317422124,-52.1184538275471,-14.500119080393965,0.0177,-0.8893,-0.4393,-0.1262
274655.0,122.97631399999999,1.0,2.28,0.82,-9.81,3.75,-13.5,39.38,9.38,-58.38,7.06,0.11096916412344536,-0.06101419203186832,-0.2973523314023652,-126.09940169684566,-52.00367866289412,-13.06883146764636,0.0132,-0.8914,-0.4384,-0.1138
274688.0,123.047063,1.0,1.63,0.72,-9.52,3.75,-13.5,39.38,5.0,-59.94,5.81,-0.0027186591044406697,0.06008692584510824,0.12150249620662025,-126.88855686312144,-51.837991208733065,-10.764512919793646,0.0063,-0.8945,-0.4371,-0.0938
274722.0,123.05101200000001,1.0,1.26,0.65,-9.69,5.25,-13.06,38.56,9.94,-58.06,5.75,-0.09526217323692196,0.12043022286282945,0.014682798269214812,-127.37765090836372,-51.697885027971715,-9.13114820216436,0.0017,-0.8964,-0.436,-0.0796
274759.0,123.100587,1.0,0.82,0.52,-9.38,7.5,-13.5,38.88,3.5,-39.69,3.5,-0.1970729838184288,0.1513817969495221,0.3798029241956371,-127.84492955883974,-51.55786178927636,-7.35035834348681,-0.0032,-0.8982,-0.4349,-0.0641
274794.0,123.170732,1.0,0.65,0.65,-9.42,7.5,-13.5,38.88,2.13,-21.25,1.56,-0.1128506371610115,0.27075748184627235,0.3464515285240122,-128.0277034878583,-51.48152030899618,-6.592650878252481,-0.0057,-0.8989,-0.4343,-0.0575
274827.0,123.19062,1.0,0.67,0.51,-9.65,9.69,-13.06,38.56,3.13,-4.31,0.31,-0.18833190092799426,0.14807411917072386,0.12294692987622292,-128.0277034878583,-51.51968798135092,-6.271288310584378,-0.006,-0.8989,-0.4346,-0.0547
274862.0,123.19453500000002,1.0,0.69,0.53,-9.57,9.69,-12.38,37.69,-0.06,-2.38,-0.56,-0.14338181633081762,0.13338718329621402,0.1991763719290897,-128.0277034878583,-51.53241190190736,-6.2024314124588535,-0.0062,-0.8989,-0.4347,-0.0541
274898.0,123.239879,1.0,0.73,0.49,-9.68,10.06,-12.69,37.69,2.56,0.88,-0.56,-0.14917017286119535,0.08820303397853152,0.08834930058111645,-128.0277034878583,-51.54513650446032,-6.156528060600895,-0.0056,-0.8989,-0.4348,-0.0537
274933.0,123.25978,1.0,0.66,0.46,-9.76,10.06,-12.69,37.69,4.31,-1.12,-0.12,-0.2020560120959252,0.13622076255706456,0.01658272383563819,-128.0277034878583,-51.55786178927636,-6.064724315991072,-0.0047,-0.8989,-0.4349,-0.0529
274968.0,123.26456499999999,1.0,0.62,0.5,-9.6,10.5,-12.0,39.38,-0.94,5.25,0.63,-0.18308734671902008,0.19579528672470226,0.17739544789848516,-127.87100362286014,-51.723352699323634,-6.11062569758793,-0.0043,-0.8983,-0.4362,-0.0533
275003.0,123.35576499999999,1.0,0.83,0.59,-9.68,10.5,-12.69,39.38,-1.12,-3.44,-0.25,0.011832998328895785,0.08829289479642066,0.07364099225326726,-127.87100362286014,-51.723352699323634,-6.087674884576738,-0.0043,-0.8983,-0.4362,-0.0531
275038.0,123.36633799999998,1.0,0.81,0.57,-9.87,10.5,-12.69,39.38,1.81,-0.06,-0.31,-0.02781740288345981,0.0954580164774698,-0.11242324094277656,-127.87100362286014,-51.723352699323634,-6.04177399090254,-0.0043,-0.8983,-0.4362,-0.0527
275073.0,123.41338300000001,1.0,0.62,0.48,-9.68,10.06,-13.06,38.88,0.06,-1.81,-0.81,-0.18565738500714046,0.17186802319459976,0.09824164857619344,-127.87100362286014,-51.74882311470209,-5.9614497572311125,-0.0045,-0.8983,-0.4364,-0.052000000000000005
275109.0,123.432796,1.0,0.68,0.41,-9.68,10.38,-12.69,37.38,1.19,3.06,-0.37,-0.2021437310117999,0.09358372663435532,0.09669222469933557,-127.84492955883974,-51.76155935207183,-5.984399237389443,-0.0039,-0.8982,-0.4365,-0.0522
275142.0,123.478481,1.0,0.79,0.45,-9.71,10.38,-12.69,37.38,0.31,-0.37,0.19,-0.1053745748260333,0.0349543661366894,0.05481046116076094,-127.84492955883974,-51.76155935207183,-5.984399237389443,-0.0038,-0.8982,-0.4365,-0.0522
275177.0,123.49624399999999,1.0,0.88,0.47,-9.89,10.5,-12.0,38.56,-0.25,0.44,0.0,-0.050464236810830086,-0.017742801527109192,-0.13339721084347467,-127.76677999527551,-51.837991208733065,-5.97292446733722,-0.0038,-0.8979,-0.4371,-0.0521
275212.0,123.543007,1.0,0.73,0.63,-9.65,10.75,-13.06,38.19,-1.88,-0.44,-0.5,0.004787468822826643,0.18180947014870336,0.11029901642341676,-127.76677999527551,-51.837991208733065,-5.9614497572311125,-0.0042,-0.8979,-0.4371,-0.052000000000000005
275247.0,123.567251,1.0,0.85,0.57,-9.79,10.75,-13.06,38.19,2.06,0.88,-0.63,0.01585976138487102,0.056661516066288165,-0.036522148274451986,-127.76677999527551,-51.837991208733065,-5.97292446733722,-0.0042,-0.8979,-0.4371,-0.0521
275279.0,123.61041599999999,1.0,0.67,0.36,-9.72,11.19,-12.69,37.88,-2.0,-3.0,-1.63,-0.2332059238477709,0.05581937082406019,0.05988647588989871,-127.68873899317936,-51.93993891277072,-5.8467059276897535,-0.0042,-0.8976,-0.4379,-0.051
275314.0,123.677929,1.0,0.96,0.59,-9.89,10.75,-12.69,38.69,1.75,0.44,-0.81,0.1084908680111933,-0.024545761919334497,-0.14671260954708565,-127.66274936627121,-51.97818068894304,-5.8467059276897535,-0.0042,-0.8975,-0.4382,-0.051
275351.0,123.69747199999999,1.0,0.6,0.4,-9.6,10.75,-12.69,39.0,-1.88,-1.0,-1.06,-0.21598207840338496,0.12663878909417522,0.18286101857977846,-127.6108060653337,-52.0164286876315,-5.743441500733661,-0.004,-0.8973,-0.4385,-0.0501
275384.0,123.701003,1.0,0.63,0.46,-9.69,10.75,-12.69,39.0,-0.63,2.25,0.0,-0.16062822362345724,0.14410193578862993,0.08769773106290303,-127.6108060653337,-52.0164286876315,-5.754915093896803,-0.004,-0.8973,-0.4385,-0.0502
275421.0,123.750596,1.0,0.81,0.49,-9.81,12.0,-13.06,38.19,0.75,1.12,-0.31,-0.045686556050616944,0.03714903959161736,-0.04874612027104952,-127.55891058236664,-52.06743571130708,-5.823757869537403,-0.0036,-0.8971,-0.4389,-0.0508
275456.0,123.76986299999999,1.0,0.74,0.47,-9.66,10.75,-12.69,37.75,-0.56,2.94,-0.31,-0.0952804117752358,0.08109016553612494,0.1077610931104438,-127.5329807280848,-52.08018919976154,-5.869654220523909,-0.0034,-0.897,-0.439,-0.0512
