acc_x,acc_y,acc_z,lin_x,lin_y,lin_z,eul_x,eul_y,eul_z
4.85,2.81,7.98,-0.0413943868111509,-0.0448269253788835,0.05496927042822,-34.30308206548676,5.250129975900072,-95.92384977618164
4.85,2.81,7.98,-0.0413943868111509,-0.0448269253788835,0.05496927042822,-34.30308206548676,5.250129975900072,-95.92384977618164
4.87,2.78,7.83,-0.074220038088777,-0.1353000633212917,0.1769882573004491,-34.29108977492126,5.250129975900072,-95.90673837953938
4.87,2.78,7.83,-0.074220038088777,-0.1353000633212917,0.1769882573004491,-34.29108977492126,5.250129975900072,-95.90673837953938
4.93,2.87,7.93,-0.129769996474741,-0.11748747072887,0.0395595201162048,-34.27909787153104,5.284543793645802,-95.90673837953938
4.93,2.87,7.93,-0.129769996474741,-0.11748747072887,0.0395595201162048,-34.27909787153104,5.284543793645802,-95.90673837953938
4.82,2.81,8.01,-0.0312002719367613,-2.368747255454551e-05,0.0451118761964597,-34.30308206548676,5.307486603594608,-95.88962981558169
4.82,2.81,8.01,-0.0312002719367613,-2.368747255454551e-05,0.0451118761964597,-34.30308206548676,5.307486603594608,-95.88962981558169
4.85,2.74,7.87,-0.0178433675354555,-0.1054463596034029,0.1653034820347105,-34.32706780881908,5.284543793645802,-95.872524082521
4.85,2.74,7.87,-0.0178433675354555,-0.1054463596034029,0.1653034820347105,-34.32706780881908,5.284543793645802,-95.872524082521
4.87,2.82,8.0,-0.043809056558622,-0.0472818496847053,0.0257939437412311,-34.315074743396394,5.284543793645802,-95.83832110194956
4.87,2.82,8.0,-0.043809056558622,-0.0472818496847053,0.0257939437412311,-34.315074743396394,5.284543793645802,-95.83832110194956
4.9,2.88,7.91,-0.1391038633831186,-0.094378612885865,0.0678491090986153,-34.30308206548676,5.296015172064578,-95.83832110194956
4.9,2.88,7.91,-0.1391038633831186,-0.094378612885865,0.0678491090986153,-34.30308206548676,5.296015172064578,-95.83832110194956
4.83,2.76,7.96,0.0045203446385131,-0.04270230843768,0.0955091772470702,-34.351055102879386,5.284543793645802,-95.83832110194956
4.83,2.76,7.96,0.0045203446385131,-0.04270230843768,0.0955091772470702,-34.351055102879386,5.284543793645802,-95.83832110194956
4.81,2.81,8.04,-0.0100560644898131,0.0210063982417767,0.0253792437638793,-34.339061261923746,5.284543793645802,-95.83832110194956
4.81,2.81,8.04,-0.0100560644898131,0.0210063982417767,0.0253792437638793,-34.339061261923746,5.284543793645802,-95.83832110194956
4.92,2.83,7.97,-0.0700540053665107,-0.1029876478319371,0.0229550956846509,-34.30308206548676,5.273072468222583,-95.83832110194956
4.92,2.83,7.97,-0.0700540053665107,-0.1029876478319371,0.0229550956846509,-34.30308206548676,5.273072468222583,-95.83832110194956
4.86,2.89,7.87,-0.1536368965917915,-0.0782257056334911,0.1175387691912721,-34.315074743396394,5.261601195679236,-95.8212238508723
4.86,2.89,7.87,-0.1536368965917915,-0.0782257056334911,0.1175387691912721,-34.315074743396394,5.261601195679236,-95.8212238508723
4.87,2.76,7.87,-0.0302142402993323,-0.1232235770522476,0.1497714644823453,-34.339061261923746,5.238658808769412,-95.8212238508723
4.87,2.76,7.87,-0.0302142402993323,-0.1232235770522476,0.1497714644823453,-34.339061261923746,5.238658808769412,-95.8212238508723
4.84,2.83,8.02,-0.0354667458970637,-0.0123026953077498,0.0212787370573597,-34.339061261923746,5.261601195679236,-95.80412942355947
4.84,2.83,8.02,-0.0354667458970637,-0.0123026953077498,0.0212787370573597,-34.339061261923746,5.261601195679236,-95.80412942355947
4.87,2.89,7.94,-0.1277068489805199,-0.0569084174711749,0.0550833364969278,-34.315074743396394,5.273072468222583,-95.78703781823206
4.87,2.89,7.94,-0.1277068489805199,-0.0569084174711749,0.0550833364969278,-34.315074743396394,5.273072468222583,-95.78703781823206
4.89,2.8,7.82,-0.0872469175832578,-0.1506641959172148,0.1695244806638083,-34.339061261923746,5.250129975900072,-95.76994903311297
4.89,2.8,7.82,-0.0872469175832578,-0.1506641959172148,0.1695244806638083,-34.339061261923746,5.250129975900072,-95.76994903311297
4.82,2.89,7.97,-0.1050723388622794,-0.0021038274776239,0.0550165277290073,-34.339061261923746,5.250129975900072,-95.76994903311297
4.82,2.89,7.97,-0.1050723388622794,-0.0021038274776239,0.0550165277290073,-34.339061261923746,5.250129975900072,-95.76994903311297
4.86,2.91,7.97,-0.1287903931735812,-0.0297130804109713,0.0295783439529451,-34.339061261923746,5.261601195679236,-95.76994903311297
4.86,2.91,7.97,-0.1287903931735812,-0.0297130804109713,0.0295783439529451,-34.339061261923746,5.261601195679236,-95.76994903311297
4.92,2.73,7.92,0.0186751031879162,-0.1591350042460728,0.0927410395997387,-34.351055102879386,5.192774664418371,-95.78703781823206
4.92,2.73,7.92,0.0186751031879162,-0.1591350042460728,0.0927410395997387,-34.351055102879386,5.192774664418371,-95.78703781823206
4.84,3.04,7.93,-0.2616063817727869,0.0037740533690864,0.0350765413631108,-34.32706780881908,5.250129975900072,-95.76994903311297
4.84,3.04,7.93,-0.2616063817727869,0.0037740533690864,0.0350765413631108,-34.32706780881908,5.250129975900072,-95.76994903311297
5.34,3.37,7.94,-0.6234512239776694,-0.3370951333736341,-0.3133191423628609,-34.267106355147284,5.273072468222583,-95.78703781823206
5.34,3.37,7.94,-0.6234512239776694,-0.3370951333736341,-0.3133191423628609,-34.267106355147284,5.273072468222583,-95.78703781823206
7.25,3.66,7.42,-1.2750586124134435,-2.135250915374543,-0.909199432653601,-34.351055102879386,4.986306217889054,-96.09511993474894
7.25,3.66,7.42,-1.2750586124134435,-2.135250915374543,-0.909199432653601,-34.351055102879386,4.986306217889054,-96.09511993474894
8.47,3.54,6.92,-1.4092766510538894,-3.1902058425980977,-1.1475923746531789,-35.67278424373711,5.1354206546912415,-96.52454726797548
8.47,3.54,6.92,-1.4092766510538894,-3.1902058425980977,-1.1475923746531789,-35.67278424373711,5.1354206546912415,-96.52454726797548
7.23,6.43,7.85,-3.441489265371476,-0.4271718399290689,-2.1605541787338383,-37.180738981785375,6.259812004164343,-96.610649179952
7.23,6.43,7.85,-3.441489265371476,-0.4271718399290689,-2.1605541787338383,-37.180738981785375,6.259812004164343,-96.610649179952
7.85,6.74,7.18,-3.759249558006655,-0.7670218945381144,-2.1884415033577778,-39.47361489538528,6.627085616027942,-95.88962981558169
7.85,6.74,7.18,-3.759249558006655,-0.7670218945381144,-2.1884415033577778,-39.47361489538528,6.627085616027942,-95.88962981558169
9.36,5.72,6.73,-2.7224540451718977,-2.3437238856194265,-2.551185664868834,-41.85667536570541,5.938500516393254,-94.74971670141692
9.36,5.72,6.73,-2.7224540451718977,-2.3437238856194265,-2.551185664868834,-41.85667536570541,5.938500516393254,-94.74971670141692
9.43,5.78,6.58,-2.1579924346891293,-1.8952780790390125,-2.738496059529906,-45.99612491286469,5.594289991509483,-93.30434180891346
9.43,5.78,6.58,-2.1579924346891293,-1.8952780790390125,-2.738496059529906,-45.99612491286469,5.594289991509483,-93.30434180891346
8.6,7.24,6.91,-2.6694831206908587,0.1448312944067775,-3.1153693377237683,-49.618672793409424,5.8926027489674295,-92.67181786365629
8.6,7.24,6.91,-2.6694831206908587,0.1448312944067775,-3.1153693377237683,-49.618672793409424,5.8926027489674295,-92.67181786365629
10.17,7.66,6.33,-2.5145680925044216,-0.3219236334477338,-4.1843010928452085,-54.65809476610264,5.571344453661866,-91.05716253041412
10.17,7.66,6.33,-2.5145680925044216,-0.3219236334477338,-4.1843010928452085,-54.65809476610264,5.571344453661866,-91.05716253041412
10.19,7.85,5.55,-2.3249264003242187,-0.081987575972152,-4.008164340788719,-58.85212533574583,5.250129975900072,-88.99851159744894
10.19,7.85,5.55,-2.3249264003242187,-0.081987575972152,-4.008164340788719,-58.85212533574583,5.250129975900072,-88.99851159744894
10.05,8.14,5.88,-1.0291450444787755,1.3635614284055992,-4.297181419454409,-65.53073092524775,4.791323123878448,-85.81237907644234
10.05,8.14,5.88,-1.0291450444787755,1.3635614284055992,-4.297181419454409,-65.53073092524775,4.791323123878448,-85.81237907644234
10.21,7.6,5.82,0.4214230945273825,1.7680722142883292,-4.0704110440561445,-71.08405950295473,4.103254614165427,-83.30329159943979
10.21,7.6,5.82,0.4214230945273825,1.7680722142883292,-4.0704110440561445,-71.08405950295473,4.103254614165427,-83.30329159943979
9.97,8.05,4.81,0.7966359331823815,2.601246259027896,-3.6074615654319815,-78.51400980443368,3.40386984812725,-79.27081086102143
9.97,8.05,4.81,0.7966359331823815,2.601246259027896,-3.6074615654319815,-78.51400980443368,3.40386984812725,-79.27081086102143
9.47,7.15,4.48,2.486231018312409,3.0062698378915496,-2.262102917570429,-86.53414601080244,2.1200647857418087,-74.60167100356149
9.47,7.15,4.48,2.486231018312409,3.0062698378915496,-2.262102917570429,-86.53414601080244,2.1200647857418087,-74.60167100356149
9.71,6.21,3.06,2.937341323482015,2.0987778448507908,-1.5590421261896097,-92.73822662555116,1.1459346897143057,-70.92922160534616
9.71,6.21,3.06,2.937341323482015,2.0987778448507908,-1.5590421261896097,-92.73822662555116,1.1459346897143057,-70.92922160534616
8.84,6.28,2.16,3.2012313164371062,2.8285286705752566,-0.3914450975364083,-101.15784107033816,0.1833465726697912,-65.38089307689471
8.84,6.28,2.16,3.2012313164371062,2.8285286705752566,-0.3914450975364083,-101.15784107033816,0.1833465726697912,-65.38089307689471
8.48,5.2,0.47,2.9392976945634763,1.7994850391523425,0.4635411674646139,-107.53011997485687,-0.5271230305187238,-60.9683017245208
8.48,5.2,0.47,2.9392976945634763,1.7994850391523425,0.4635411674646139,-107.53011997485687,-0.5271230305187238,-60.9683017245208
8.01,4.2,-0.3,3.469849272646328,1.4410730757678918,1.5741804789259852,-116.29293986048516,-1.4095117183833985,-54.78712101513374
8.01,4.2,-0.3,3.469849272646328,1.4410730757678918,1.5741804789259852,-116.29293986048516,-1.4095117183833985,-54.78712101513374
6.24,3.34,-1.52,2.332859573109279,1.0668812958245302,3.0373715663135723,-122.82802018843608,-1.6616358358374437,-49.87128691094202
6.24,3.34,-1.52,2.332859573109279,1.0668812958245302,3.0373715663135723,-122.82802018843608,-1.6616358358374437,-49.87128691094202
5.78,2.64,-2.45,2.242227726800828,0.7278531473464134,3.4173507726149266,-131.1767984012427,-1.8793858210517669,-43.5175891368055
5.78,2.64,-2.45,2.242227726800828,0.7278531473464134,3.4173507726149266,-131.1767984012427,-1.8793858210517669,-43.5175891368055
5.83,1.81,-4.16,1.9771391132620644,-0.0365281530775433,2.689053030457398,-138.71555439166974,-1.8908465277120163,-37.604152605861614
5.83,1.81,-4.16,1.9771391132620644,-0.0365281530775433,2.689053030457398,-138.71555439166974,-1.8908465277120163,-37.604152605861614
4.01,1.35,-5.15,0.4880591977202116,-0.218429621155278,3.162917109514209,-143.86802831777294,-2.142987063023817,-33.20139097173225
4.01,1.35,-5.15,0.4880591977202116,-0.218429621155278,3.162917109514209,-143.86802831777294,-2.142987063023817,-33.20139097173225
3.26,1.31,-5.53,0.3007260394018593,0.1163994100095874,3.262903746776616,-150.29995438645182,-2.314906939637541,-27.690458980540107
3.26,1.31,-5.53,0.3007260394018593,0.1163994100095874,3.262903746776616,-150.29995438645182,-2.314906939637541,-27.690458980540107
3.32,0.5,-6.85,0.2064661992073893,-0.5284360820223951,2.1992176463210225,-154.47803544959174,-2.2919839967771853,-24.24470448957822
3.32,0.5,-6.85,0.2064661992073893,-0.5284360820223951,2.1992176463210225,-154.47803544959174,-2.2919839967771853,-24.24470448957822
2.86,-0.11,-7.15,0.2395041902831032,-0.6856091593123586,2.1393963962965303,-159.53822461146382,-2.865087475133015,-19.889680039418103
2.86,-0.11,-7.15,0.2395041902831032,-0.6856091593123586,2.1393963962965303,-159.53822461146382,-2.865087475133015,-19.889680039418103
1.88,-0.03,-7.29,-0.3132777906294684,-0.2546509640973029,2.2889103189267965,-162.91040944456057,-2.8192367490322434,-16.79038251334145
1.88,-0.03,-7.29,-0.3132777906294684,-0.2546509640973029,2.2889103189267965,-162.91040944456057,-2.8192367490322434,-16.79038251334145
1.43,-0.46,-7.84,-0.4842107964562229,-0.2513487906878012,1.8427022546908312,-165.86324083896642,-3.0599582684028324,-13.668786527863627
1.43,-0.46,-7.84,-0.4842107964562229,-0.2513487906878012,1.8427022546908312,-165.86324083896642,-3.0599582684028324,-13.668786527863627
1.85,-2.18,-8.1,0.0756791510257535,-1.5870760281330376,1.3650647017858404,-167.13036680379562,-3.919795697049856,-11.34014667578332
1.85,-2.18,-8.1,0.0756791510257535,-1.5870760281330376,1.3650647017858404,-167.13036680379562,-3.919795697049856,-11.34014667578332
0.95,-1.23,-8.15,-0.4378323052465971,-0.4298736425948307,1.5325088648800111,-168.4218955829601,-4.160587661476331,-9.22311622194562
0.95,-1.23,-8.15,-0.4378323052465971,-0.4298736425948307,1.5325088648800111,-168.4218955829601,-4.160587661476331,-9.22311622194562
1.39,-1.87,-8.17,0.2553583271149484,-0.7528900810280561,1.3481720842835667,-168.6513771745933,-3.4153340784378665,-7.247016388579905
1.39,-1.87,-8.17,0.2553583271149484,-0.7528900810280561,1.3481720842835667,-168.6513771745933,-3.4153340784378665,-7.247016388579905
0.58,-2.05,-7.86,-0.3026283900868138,-0.7797240158451455,1.7060977647120996,-168.7678701513817,-3.254837913384077,-5.7319679651977244
0.58,-2.05,-7.86,-0.3026283900868138,-0.7797240158451455,1.7060977647120996,-168.7678701513817,-3.254837913384077,-5.7319679651977244
0.65,-1.89,-8.24,0.0003302899063228,-0.4135632326132464,1.3378150539440146,-168.6513771745933,-3.15166519950434,-4.000057708800217
0.65,-1.89,-8.24,0.0003302899063228,-0.4135632326132464,1.3378150539440146,-168.6513771745933,-3.15166519950434,-4.000057708800217
0.31,-2.12,-8.26,-0.2051777577516125,-0.541428030659535,1.2929635026394024,-168.30883818145554,-3.2892294003721183,-2.9797163137078666
0.31,-2.12,-8.26,-0.2051777577516125,-0.541428030659535,1.2929635026394024,-168.30883818145554,-3.2892294003721183,-2.9797163137078666
0.05,-2.51,-8.45,-0.3368189139968566,-0.7661195812899935,1.031417022674665,-167.75915046700433,-3.873932556571698,-1.8220825674649568
0.05,-2.51,-8.45,-0.3368189139968566,-0.7661195812899935,1.031417022674665,-167.75915046700433,-3.873932556571698,-1.8220825674649568
-0.13,-2.98,-8.14,-0.4659177080425058,-1.1978925774601654,1.2331516438913184,-167.23302195249303,-4.068855279934243,-1.2719924264668117
-0.13,-2.98,-8.14,-0.4659177080425058,-1.1978925774601654,1.2331516438913184,-167.23302195249303,-4.068855279934243,-1.2719924264668117
-0.1,-2.53,-8.6,-0.3821364049597457,-0.6488412211661916,0.8733484357562418,-167.13036680379562,-4.229388694927676,-1.0657168616283692
-0.1,-2.53,-8.6,-0.3821364049597457,-0.6488412211661916,0.8733484357562418,-167.13036680379562,-4.229388694927676,-1.0657168616283692
0.09,-2.67,-8.89,-0.1930110280955384,-0.7121225392418568,0.5532869231431743,-166.92746455946423,-4.240855681461491,-0.985499555804114
0.09,-2.67,-8.89,-0.1930110280955384,-0.7121225392418568,0.5532869231431743,-166.92746455946423,-4.240855681461491,-0.985499555804114
0.12,-2.67,-8.86,-0.1725536059625541,-0.7123709194955526,0.5813774877038789,-166.72765058183754,-4.699571210920838,-0.9625804159917916
0.12,-2.67,-8.86,-0.1725536059625541,-0.7123709194955526,0.5813774877038789,-166.72765058183754,-4.699571210920838,-0.9625804159917916
0.37,-2.42,-9.34,0.0696281154506051,-0.3815685825831501,0.1589322728728053,-166.62885834304856,-4.825730880475589,-1.0886361860699356
0.37,-2.42,-9.34,0.0696281154506051,-0.3815685825831501,0.1589322728728053,-166.62885834304856,-4.825730880475589,-1.0886361860699356
0.64,-2.65,-9.67,0.2763101126901814,-0.5294202924201281,-0.2225257824658228,-166.62885834304856,-4.642227799866185,-1.3522117780748235
0.64,-2.65,-9.67,0.2763101126901814,-0.5294202924201281,-0.2225257824658228,-166.62885834304856,-4.642227799866185,-1.3522117780748235
0.14,-2.22,-9.57,-0.1909657220075789,-0.120751717377586,-0.0158675548719955,-166.62885834304856,-4.986306217889054,-1.3407518310456548
0.14,-2.22,-9.57,-0.1909657220075789,-0.120751717377586,-0.0158675548719955,-166.62885834304856,-4.986306217889054,-1.3407518310456548
0.3,-2.28,-9.47,-0.0770088760133735,-0.2183490468909048,0.0641814562100329,-166.43342218753332,-5.364844561963229,-1.5355728478655368
0.3,-2.28,-9.47,-0.0770088760133735,-0.2183490468909048,0.0641814562100329,-166.43342218753332,-5.364844561963229,-1.5355728478655368
0.65,-2.25,-9.68,0.2464551103791478,-0.1596874956280263,-0.1483065434665764,-166.43342218753332,-5.238658808769412,-1.6960169933572922
0.65,-2.25,-9.68,0.2464551103791478,-0.1596874956280263,-0.1483065434665764,-166.43342218753332,-5.238658808769412,-1.6960169933572922
0.43,-2.23,-9.58,0.0139649996404777,-0.1545567743529776,-0.0376436355173108,-166.33674754112943,-5.571344453661866,-1.7533192633889718
0.43,-2.23,-9.58,0.0139649996404777,-0.1545567743529776,-0.0376436355173108,-166.33674754112943,-5.571344453661866,-1.7533192633889718
0.7,-2.16,-9.6,0.2667390870005992,-0.1131752021822098,-0.053960611573558,-166.33674754112943,-5.697547703194251,-1.867925133192117
0.7,-2.16,-9.6,0.2667390870005992,-0.1131752021822098,-0.053960611573558,-166.33674754112943,-5.697547703194251,-1.867925133192117
0.35,-1.79,-9.53,-0.0447363931862998,0.2455385442575077,0.1068969372458461,-166.43342218753332,-5.686074397008276,-1.8793858210517669
0.35,-1.79,-9.53,-0.0447363931862998,0.2455385442575077,0.1068969372458461,-166.43342218753332,-5.686074397008276,-1.8793858210517669
0.51,-2.11,-9.53,0.0635608236691196,-0.0670329902675175,0.0329830013801704,-166.33674754112943,-5.8581800447136345,-1.9710720103882065
0.51,-2.11,-9.53,0.0635608236691196,-0.0670329902675175,0.0329830013801704,-166.33674754112943,-5.8581800447136345,-1.9710720103882065
0.63,-2.21,-9.47,0.1488486555508501,-0.2046809486978984,0.0650972599600017,-166.14541230093116,-6.168003805570946,-2.0742204847835874
0.63,-2.21,-9.47,0.1488486555508501,-0.2046809486978984,0.0650972599600017,-166.14541230093116,-6.168003805570946,-2.0742204847835874
0.84,-1.85,-9.78,0.3690571948484645,0.1519553224585701,-0.1741919668336162,-166.14541230093116,-6.615607303690656,-2.142987063023817
0.84,-1.85,-9.78,0.3690571948484645,0.1519553224585701,-0.1741919668336162,-166.14541230093116,-6.615607303690656,-2.142987063023817
0.75,-1.95,-9.76,0.2601004183707093,0.0532821286653688,-0.170930307225209,-166.05072408085044,-6.845186330854816,-2.1659094260652934
0.75,-1.95,-9.76,0.2601004183707093,0.0532821286653688,-0.170930307225209,-166.05072408085044,-6.845186330854816,-2.1659094260652934
0.56,-2.19,-9.77,0.049465107278256,-0.1489757337199249,-0.2202118936297576,-165.95667115359868,-6.982946893042854,-2.1086036789736795
0.56,-2.19,-9.77,0.049465107278256,-0.1489757337199249,-0.2202118936297576,-165.95667115359868,-6.982946893042854,-2.1086036789736795
0.67,-2.14,-9.75,0.1635041799113645,-0.1197449141729973,-0.1958460654169318,-165.77042087262134,-7.361841150905901,-2.0742204847835874
0.67,-2.14,-9.75,0.1635041799113645,-0.1197449141729973,-0.1958460654169318,-165.77042087262134,-7.361841150905901,-2.0742204847835874
0.52,-2.36,-9.67,-0.0076372665066869,-0.3179455401443365,-0.1556666134018574,-165.6781993872616,-7.453706284964303,-2.0398374773549266
0.52,-2.36,-9.67,-0.0076372665066869,-0.3179455401443365,-0.1556666134018574,-165.6781993872616,-7.453706284964303,-2.0398374773549266
0.41,-2.37,-9.76,-0.1076730669662879,-0.2735950310788304,-0.2410438781801609,-165.5865648948541,-7.499640647274437,-1.9710720103882065
0.41,-2.37,-9.76,-0.1076730669662879,-0.2735950310788304,-0.2410438781801609,-165.5865648948541,-7.499640647274437,-1.9710720103882065
0.7,-2.28,-9.6,0.1898723987805136,-0.2461692599353296,-0.0802984254568759,-165.31507383873742,-7.752301412421159,-1.9710720103882065
0.7,-2.28,-9.6,0.1898723987805136,-0.2461692599353296,-0.0802984254568759,-165.31507383873742,-7.752301412421159,-1.9710720103882065
0.6,-2.19,-9.65,0.1073003899118676,-0.1295136761579116,-0.1054795811754178,-165.31507383873742,-7.717845476549469,-1.94815034703792
0.6,-2.19,-9.65,0.1073003899118676,-0.1295136761579116,-0.1054795811754178,-165.31507383873742,-7.717845476549469,-1.94815034703792
0.64,-2.08,-9.76,0.1639751271234321,-0.0029337335035715,-0.1916850389398625,-165.31507383873742,-7.717845476549469,-1.925228761643688
0.64,-2.08,-9.76,0.1639751271234321,-0.0029337335035715,-0.1916850389398625,-165.31507383873742,-7.717845476549469,-1.925228761643688
0.72,-1.94,-9.73,0.2626672048473703,0.1194500068939236,-0.1367718272861537,-165.31507383873742,-7.752301412421159,-1.925228761643688
0.72,-1.94,-9.73,0.2626672048473703,0.1194500068939236,-0.1367718272861537,-165.31507383873742,-7.752301412421159,-1.925228761643688
0.39,-1.88,-9.56,-0.0380944115649498,0.1865212023260464,0.0576060131831184,-165.2256794561049,-7.959051879828772,-1.8220825674649568
0.39,-1.88,-9.56,-0.0380944115649498,0.1865212023260464,0.0576060131831184,-165.2256794561049,-7.959051879828772,-1.8220825674649568
0.67,-2.07,-9.74,0.2063535853124025,0.026213814826167,-0.1712320915934366,-165.04848521846108,-7.982025743589274,-1.8450038134157023
0.67,-2.07,-9.74,0.2063535853124025,0.026213814826167,-0.1712320915934366,-165.04848521846108,-7.982025743589274,-1.8450038134157023
0.33,-2.19,-9.5,-0.1215357323774959,-0.0684276109069645,0.0529047332923937,-164.78654130633294,-8.257737442475136,-1.6960169933572922
0.33,-2.19,-9.5,-0.1215357323774959,-0.0684276109069645,0.0529047332923937,-164.78654130633294,-8.257737442475136,-1.6960169933572922
0.39,-2.44,-9.41,-0.0917268282318516,-0.3131544004971682,0.0831053525768297,-164.52900617164656,-8.487533709607298,-1.638715147453804
0.39,-2.44,-9.41,-0.0917268282318516,-0.3131544004971682,0.0831053525768297,-164.52900617164656,-8.487533709607298,-1.638715147453804
0.53,-2.44,-9.66,0.0443069259948671,-0.2616064437621468,-0.1673010207786305,-164.44410289964102,-8.510515201802361,-1.638715147453804
0.53,-2.44,-9.66,0.0443069259948671,-0.2616064437621468,-0.1673010207786305,-164.44410289964102,-8.510515201802361,-1.638715147453804
0.38,-2.27,-9.64,-0.0732439156543228,-0.0811796645783462,-0.1036953618367189,-164.35965769726891,-8.648411389524659,-1.5928739664684124
0.38,-2.27,-9.64,-0.0732439156543228,-0.0811796645783462,-0.1036953618367189,-164.35965769726891,-8.648411389524659,-1.5928739664684124
0.52,-2.3,-9.46,0.0564065199052797,-0.1569381113811234,0.0586148783096653,-164.27566318431926,-8.705871826379285,-1.6272548279067642
0.52,-2.3,-9.46,0.0564065199052797,-0.1569381113811234,0.0586148783096653,-164.27566318431926,-8.705871826379285,-1.6272548279067642
0.37,-2.3,-9.44,-0.0914682572283118,-0.1276241368524027,0.0847239748950805,-164.19211217641143,-8.740349140335567,-1.6272548279067642
0.37,-2.3,-9.44,-0.0914682572283118,-0.1276241368524027,0.0847239748950805,-164.19211217641143,-8.740349140335567,-1.6272548279067642
0.61,-2.25,-9.77,0.1364707287425562,-0.0279534195025794,-0.2366609255132896,-164.02631287450075,-8.947229783297066,-1.6845565907051554
0.61,-2.25,-9.77,0.1364707287425562,-0.0279534195025794,-0.2366609255132896,-164.02631287450075,-8.947229783297066,-1.6845565907051554
0.63,-2.46,-9.63,0.1226397775379712,-0.2465029132289482,-0.1487302438046089,-163.94405112777469,-8.92424161449454,-1.707477412974553
0.63,-2.46,-9.63,0.1226397775379712,-0.2465029132289482,-0.1487302438046089,-163.94405112777469,-8.92424161449454,-1.707477412974553
0.53,-2.34,-9.65,0.0433717238675967,-0.1074468677028481,-0.136466918964075,-163.94405112777469,-8.901253805563371,-1.707477412974553
0.53,-2.34,-9.65,0.0433717238675967,-0.1074468677028481,-0.136466918964075,-163.94405112777469,-8.901253805563371,-1.707477412974553
0.55,-2.27,-9.66,0.0863641049919331,-0.0436151317487669,-0.1312390596369379,-163.94405112777469,-8.866772764864926,-1.638715147453804
0.55,-2.27,-9.66,0.0863641049919331,-0.0436151317487669,-0.1312390596369379,-163.94405112777469,-8.866772764864926,-1.638715147453804
0.61,-2.32,-9.66,0.1347869884727379,-0.0885462023336667,-0.1454398326829178,-163.94405112777469,-8.866772764864926,-1.6616358358374437
0.61,-2.32,-9.66,0.1347869884727379,-0.0885462023336667,-0.1454398326829178,-163.94405112777469,-8.866772764864926,-1.6616358358374437
0.51,-2.16,-9.61,0.0678248288480767,0.0699127817103115,-0.0558198729854293,-163.86220596785728,-8.95872400294449,-1.6157945246366483
0.51,-2.16,-9.61,0.0678248288480767,0.0699127817103115,-0.0558198729854293,-163.86220596785728,-8.95872400294449,-1.6157945246366483
0.52,-2.39,-9.61,0.0458299650215681,-0.1269688366944319,-0.1088115892965166,-163.78077108801162,-8.935735653853007,-1.6043342375287626
0.52,-2.39,-9.61,0.0458299650215681,-0.1269688366944319,-0.1088115892965166,-163.78077108801162,-8.935735653853007,-1.6043342375287626
