acc_x,acc_y,acc_z,lin_x,lin_y,lin_z,eul_x,eul_y,eul_z
0.44,0.54,-10.06,-0.0194637164750793,0.1786785157102507,-0.2758345723544053,-173.1234747164887,6.00734895779625,-2.3951379752687134
0.44,0.54,-10.06,-0.0194637164750793,0.1786785157102507,-0.2758345723544053,-173.1234747164887,6.00734895779625,-2.3951379752687134
0.24,0.14,-9.59,-0.1547088495714503,-0.1975388362126264,0.2159074020542029,-173.3172743700655,5.984399237389443,-2.372214704126748
0.24,0.14,-9.59,-0.1547088495714503,-0.1975388362126264,0.2159074020542029,-173.3172743700655,5.984399237389443,-2.372214704126748
0.45,0.27,-9.97,0.021610778558695,-0.0671480874193976,-0.1769026797130717,-173.1234747164887,5.984399237389443,-2.3951379752687134
0.45,0.27,-9.97,0.021610778558695,-0.0671480874193976,-0.1769026797130717,-173.1234747164887,5.984399237389443,-2.3951379752687134
0.26,0.07,-9.76,-0.120861351531275,-0.2648952776584652,0.0472789636278161,-173.3172743700655,5.984399237389443,-2.2919839967771853
0.26,0.07,-9.76,-0.120861351531275,-0.2648952776584652,0.0472789636278161,-173.3172743700655,5.984399237389443,-2.2919839967771853
0.3,0.24,-9.89,-0.0996374936713567,-0.1023214560114954,-0.0897787846421973,-173.3172743700655,5.984399237389443,-2.269061145645111
0.3,0.24,-9.89,-0.0996374936713567,-0.1023214560114954,-0.0897787846421973,-173.3172743700655,5.984399237389443,-2.269061145645111
0.26,0.42,-9.67,-0.1468965854737493,0.0595401343875872,0.1253393260481896,-173.3172743700655,5.97292446733722,-2.2575997541901875
0.26,0.42,-9.67,-0.1468965854737493,0.0595401343875872,0.1253393260481896,-173.3172743700655,5.97292446733722,-2.2575997541901875
0.5,0.34,-9.87,0.0806380461311152,-0.0037970792598102,-0.0815239005594623,-173.1234747164887,5.97292446733722,-2.3263684457528235
0.5,0.34,-9.87,0.0806380461311152,-0.0037970792598102,-0.0815239005594623,-173.1234747164887,5.97292446733722,-2.3263684457528235
0.27,0.33,-9.82,-0.1447457656421689,-0.0374381375800058,-0.0214651320679593,-173.3172743700655,5.949975106955117,-2.3263684457528235
0.27,0.33,-9.82,-0.1447457656421689,-0.0374381375800058,-0.0214651320679593,-173.3172743700655,5.949975106955117,-2.3263684457528235
0.45,0.33,-9.83,0.0276434705089578,-0.0176125679946025,-0.039121967498886,-173.1234747164887,5.97292446733722,-2.360753104216733
0.45,0.33,-9.83,0.0276434705089578,-0.0176125679946025,-0.039121967498886,-173.1234747164887,5.97292446733722,-2.360753104216733
0.38,0.24,-9.82,-0.0441947537825594,-0.1085806125884753,-0.0229307171164752,-173.1234747164887,5.984399237389443,-2.4295230620087382
0.38,0.24,-9.82,-0.0441947537825594,-0.1085806125884753,-0.0229307171164752,-173.1234747164887,5.984399237389443,-2.4295230620087382
0.56,0.21,-9.88,0.1217195440172778,-0.1251798255561028,-0.0898955773152465,-173.1234747164887,5.92702598542953,-2.509755787270372
0.56,0.21,-9.88,0.1217195440172778,-0.1251798255561028,-0.0898955773152465,-173.1234747164887,5.92702598542953,-2.509755787270372
0.46,0.49,-9.96,-0.0096223714457995,0.1239843148508371,-0.175225339816599,-173.1234747164887,5.984399237389443,-2.509755787270372
0.46,0.49,-9.96,-0.0096223714457995,0.1239843148508371,-0.175225339816599,-173.1234747164887,5.984399237389443,-2.509755787270372
0.36,0.32,-9.74,-0.0819491179063619,-0.0462281999120909,0.0552015283314268,-173.1234747164887,5.984399237389443,-2.509755787270372
0.36,0.32,-9.74,-0.0819491179063619,-0.0462281999120909,0.0552015283314268,-173.1234747164887,5.984399237389443,-2.509755787270372
0.49,0.38,-9.94,0.0211668964404452,0.0080274306183068,-0.1526465375498666,-173.1234747164887,5.984399237389443,-2.578527672575933
0.49,0.38,-9.94,0.0211668964404452,0.0080274306183068,-0.1526465375498666,-173.1234747164887,5.984399237389443,-2.578527672575933
0.46,0.19,-9.89,0.0164798896732246,-0.1636800099518895,-0.0944982802540916,-173.1234747164887,6.00734895779625,-2.555603608821701
0.46,0.19,-9.89,0.0164798896732246,-0.1636800099518895,-0.0944982802540916,-173.1234747164887,6.00734895779625,-2.555603608821701
0.52,0.36,-10.02,0.0568146575491325,0.0024855053205464,-0.2331291767025885,-173.1234747164887,6.01882390838285,-2.532679647359437
0.52,0.36,-10.02,0.0568146575491325,0.0024855053205464,-0.2331291767025885,-173.1234747164887,6.01882390838285,-2.532679647359437
0.38,0.52,-9.89,-0.0789720322768059,0.1371109894924453,-0.1030353630515694,-173.1234747164887,6.00734895779625,-2.452446574526375
0.38,0.52,-9.89,-0.0789720322768059,0.1371109894924453,-0.1030353630515694,-173.1234747164887,6.00734895779625,-2.452446574526375
0.5,0.38,-9.95,0.0660796079556156,0.0147675013464485,-0.1629194694563622,-173.1234747164887,6.04177399090254,-2.372214704126748
0.5,0.38,-9.95,0.0660796079556156,0.0147675013464485,-0.1629194694563622,-173.1234747164887,6.04177399090254,-2.372214704126748
0.52,0.4,-9.86,0.0988856761646578,0.0470266250074666,-0.0745447718679148,-173.1234747164887,6.04177399090254,-2.3034454566839293
0.52,0.4,-9.86,0.0988856761646578,0.0470266250074666,-0.0745447718679148,-173.1234747164887,6.04177399090254,-2.3034454566839293
0.6,0.46,-10.1,0.1924366077163224,0.1190398810158751,-0.3190794877326439,-173.1234747164887,6.064724315991072,-2.1315259137202647
0.6,0.46,-10.1,0.1924366077163224,0.1190398810158751,-0.3190794877326439,-173.1234747164887,6.064724315991072,-2.1315259137202647
0.36,0.02,-9.86,0.0842552741325668,-0.2564627103999393,-0.0562465282494564,-173.5168579087077,6.133576755953128,-1.6730962049034406
0.36,0.02,-9.86,0.0842552741325668,-0.2564627103999393,-0.0562465282494564,-173.5168579087077,6.133576755953128,-1.6730962049034406
0.26,0.16,-10.25,0.0460360760615781,-0.1150374215116619,-0.4471467149418764,-173.5168579087077,6.2024314124588535,-1.1803139285143014
0.26,0.16,-10.25,0.0460360760615781,-0.1150374215116619,-0.4471467149418764,-173.5168579087077,6.2024314124588535,-1.1803139285143014
0.43,-0.03,-10.17,0.4163352966745875,-0.2401283966158871,-0.3611276959314757,-173.5168579087077,6.294241112432486,-0.1604282350432163
0.43,-0.03,-10.17,0.4163352966745875,-0.2401283966158871,-0.3611276959314757,-173.5168579087077,6.294241112432486,-0.1604282350432163
-0.57,1.94,-10.48,-0.5457020712261356,1.5929426419886068,-0.7329725259158995,-173.3172743700655,6.443440527613203,1.2146932735575866
-0.57,1.94,-10.48,-0.5457020712261356,1.5929426419886068,-0.7329725259158995,-173.3172743700655,6.443440527613203,1.2146932735575866
-0.74,0.79,-10.0,-0.3219683688762013,0.8630849500002508,-0.2094930070924157,-172.75138501198413,6.604129057804274,2.9338644268256844
-0.74,0.79,-10.0,-0.3219683688762013,0.8630849500002508,-0.2094930070924157,-172.75138501198413,6.604129057804274,2.9338644268256844
-1.54,-0.52,-9.07,-0.783483615031828,-0.2193317446626072,0.6281453826475687,-171.7348937308485,6.3631010384043885,4.481672390551605
-1.54,-0.52,-9.07,-0.783483615031828,-0.2193317446626072,0.6281453826475687,-171.7348937308485,6.3631010384043885,4.481672390551605
-2.42,2.04,-8.93,-1.5416110131427267,2.4511501988486994,0.7856634582274769,-170.54785856879653,5.284543793645802,6.9140653613570215
-2.42,2.04,-8.93,-1.5416110131427267,2.4511501988486994,0.7856634582274769,-170.54785856879653,5.284543793645802,6.9140653613570215
-1.06,-1.16,-9.05,0.1825892946902413,-0.1239777776555667,0.6238949308438961,-169.00454610436458,4.61929076192046,7.453706284964303
-1.06,-1.16,-9.05,0.1825892946902413,-0.1239777776555667,0.6238949308438961,-169.00454610436458,4.61929076192046,7.453706284964303
-1.93,-0.85,-8.24,-0.8245578897031841,0.4938556065880052,1.3555429171161342,-167.23302195249303,3.32362118371626,7.47667331573405
-1.93,-0.85,-8.24,-0.8245578897031841,0.4938556065880052,1.3555429171161342,-167.23302195249303,3.32362118371626,7.47667331573405
-1.95,-1.55,-7.92,-1.0428439049831244,0.0936698901784786,1.570443194588087,-166.33674754112943,1.9710720103882065,6.2139074058010815
-1.95,-1.55,-7.92,-1.0428439049831244,0.0936698901784786,1.570443194588087,-166.33674754112943,1.9710720103882065,6.2139074058010815
-1.17,-1.92,-7.82,-0.8491343566889534,0.1030578810761481,1.714922748205204,-165.31507383873742,0.0,2.2919839967771853
-1.17,-1.92,-7.82,-0.8491343566889534,0.1030578810761481,1.714922748205204,-165.31507383873742,0.0,2.2919839967771853
1.29,-3.57,-9.93,1.1801082886353202,-0.6388420699451205,-0.7391133785687849,-163.53886738912243,-1.0657168616283692,-0.3896120513439707
1.29,-3.57,-9.93,1.1801082886353202,-0.6388420699451205,-0.7391133785687849,-163.53886738912243,-1.0657168616283692,-0.3896120513439707
-0.33,-2.97,-7.58,-0.8485356156278937,-0.4063476692726782,1.713376936480664,-161.14943788464137,-1.6157945246366483,-3.3924056518954067
-0.33,-2.97,-7.58,-0.8485356156278937,-0.4063476692726782,1.713376936480664,-161.14943788464137,-1.6157945246366483,-3.3924056518954067
0.73,-3.83,-8.41,-0.5868278059894515,-0.8084170683017204,0.590794371259058,-158.9028148870971,-2.372214704126748,-7.798243752767076
0.73,-3.83,-8.41,-0.5868278059894515,-0.8084170683017204,0.590794371259058,-158.9028148870971,-2.372214704126748,-7.798243752767076
2.89,-4.28,-9.34,0.4467107838910805,-0.7645793033743729,-0.8292311559930017,-155.591382770185,-3.2892294003721183,-12.89583508427226
2.89,-4.28,-9.34,0.4467107838910805,-0.7645793033743729,-0.8292311559930017,-155.591382770185,-3.2892294003721183,-12.89583508427226
2.62,-3.79,-7.88,-0.0660818747999765,-0.7031571016054248,0.705875127700125,-152.8678214061549,-3.495584654482353,-16.755633464025784
2.62,-3.79,-7.88,-0.0660818747999765,-0.7031571016054248,0.705875127700125,-152.8678214061549,-3.495584654482353,-16.755633464025784
3.45,-4.73,-7.52,-0.0379686435920943,-1.6218650662204317,0.415488618728908,-149.37507492345586,-3.4267983429423063,-21.63717831946885
3.45,-4.73,-7.52,-0.0379686435920943,-1.6218650662204317,0.415488618728908,-149.37507492345586,-3.4267983429423063,-21.63717831946885
5.56,-4.38,-8.76,0.5787447963919463,-0.9105399269017508,-1.4036832467044444,-146.15525518443252,-3.1287382797377283,-26.75901922805568
5.56,-4.38,-8.76,0.5787447963919463,-0.9105399269017508,-1.4036832467044444,-146.15525518443252,-3.1287382797377283,-26.75901922805568
5.03,-4.03,-7.73,0.2651424621690661,-1.0537623832116203,-0.1990475925960897,-144.9554604078314,-2.7160742546883188,-28.884020255235587
5.03,-4.03,-7.73,0.2651424621690661,-1.0537623832116203,-0.1990475925960897,-144.9554604078314,-2.7160742546883188,-28.884020255235587
5.01,-3.74,-7.47,-0.0883621506708582,-0.99963607377436,0.1174023589115656,-142.84730495776557,-1.925228761643688,-32.162473260424385
5.01,-3.74,-7.47,-0.0883621506708582,-0.99963607377436,0.1174023589115656,-142.84730495776557,-1.925228761643688,-32.162473260424385
6.64,-4.28,-7.98,0.5362478765087373,-1.32870280016976,-1.3304675392810186,-141.02009032147248,-1.0886361860699356,-34.699045966979874
6.64,-4.28,-7.98,0.5362478765087373,-1.32870280016976,-1.3304675392810186,-141.02009032147248,-1.0886361860699356,-34.699045966979874
6.47,-3.64,-8.19,0.1802106994519766,-0.8750983303110971,-1.2109870885997935,-140.61001416599206,0.2406424508273681,-35.97385559965812
6.47,-3.64,-8.19,0.1802106994519766,-0.8750983303110971,-1.2109870885997935,-140.61001416599206,0.2406424508273681,-35.97385559965812
6.67,-3.29,-8.12,0.4114798698036624,-0.6767607735031861,-1.176067294558468,-140.8145368825897,1.5699534720315549,-36.29930145114271
6.67,-3.29,-8.12,0.4114798698036624,-0.6767607735031861,-1.176067294558468,-140.8145368825897,1.5699534720315549,-36.29930145114271
7.28,-2.15,-9.26,0.3906492591902,0.3886287903595949,-2.15432240276048,-141.81789497427926,3.1860558160551733,-36.01000138130928
7.28,-2.15,-9.26,0.3906492591902,0.3886287903595949,-2.15432240276048,-141.81789497427926,3.1860558160551733,-36.01000138130928
6.74,-0.95,-9.71,0.1875292213146766,1.31605418144876,-1.976687141177127,-144.46400874868328,4.837200229263812,-33.668020251284275
6.74,-0.95,-9.71,0.1875292213146766,1.31605418144876,-1.976687141177127,-144.46400874868328,4.837200229263812,-33.668020251284275
5.31,-0.46,-9.81,-0.3556535278266083,1.609021732412364,-1.235467533913921,-147.93284627196644,6.11062569758793,-29.92656655764556
5.31,-0.46,-9.81,-0.3556535278266083,1.609021732412364,-1.235467533913921,-147.93284627196644,6.11062569758793,-29.92656655764556
4.17,-0.24,-9.48,-0.047115235065249,1.666397852440134,-0.4177227608106957,-153.61058909469406,7.396290017779932,-23.506817731301982
4.17,-0.24,-9.48,-0.047115235065249,1.666397852440134,-0.4177227608106957,-153.61058909469406,7.396290017779932,-23.506817731301982
3.92,0.33,-10.4,0.1992657593618202,2.363801331850944,-1.0565003911473916,-157.56748354792904,8.004999928704901,-18.738911537329376
3.92,0.33,-10.4,0.1992657593618202,2.363801331850944,-1.0565003911473916,-157.56748354792904,8.004999928704901,-18.738911537329376
2.39,-0.02,-9.65,-0.0262232682044285,1.93595385721278,0.0554246922272572,-161.14943788464137,8.430081473298436,-13.276466658923828
2.39,-0.02,-9.65,-0.0262232682044285,1.93595385721278,0.0554246922272572,-161.14943788464137,8.430081473298436,-13.276466658923828
0.7,-0.49,-8.88,-0.9588579196070688,1.2634892177518815,1.0277727092166522,-162.52901727888843,8.246248510013665,-10.292697102933529
0.7,-0.49,-8.88,-0.9588579196070688,1.2634892177518815,1.0277727092166522,-162.52901727888843,8.246248510013665,-10.292697102933529
0.77,-0.57,-9.58,-0.3986298753068121,1.5408059972543966,0.3113242498565238,-163.86220596785728,8.016487142063689,-6.546738821065048
0.77,-0.57,-9.58,-0.3986298753068121,1.5408059972543966,0.3113242498565238,-163.86220596785728,8.016487142063689,-6.546738821065048
-0.04,-0.78,-9.4,-0.4913327680652897,1.50067972447248,0.5073730132884773,-163.86220596785728,7.430739554030821,-2.452446574526375
-0.04,-0.78,-9.4,-0.4913327680652897,1.50067972447248,0.5073730132884773,-163.86220596785728,7.430739554030821,-2.452446574526375
-1.15,-1.04,-8.56,-1.0343615380841158,1.2259280280401972,1.2565098445056044,-162.8334582675195,6.512305468988996,0.8365258107465946
-1.15,-1.04,-8.56,-1.0343615380841158,1.2259280280401972,1.2565098445056044,-162.8334582675195,6.512305468988996,0.8365258107465946
-1.59,-2.05,-7.73,-1.0252755182257416,0.4335235300755989,1.729251442258919,-160.52975543717122,4.6078223124450055,3.564372225995784
-1.59,-2.05,-7.73,-1.0252755182257416,0.4335235300755989,1.729251442258919,-160.52975543717122,4.6078223124450055,3.564372225995784
-1.44,-3.95,-7.01,-0.7345344345962808,-1.2533941681445822,1.7626670174438157,-158.5304946671076,3.495584654482353,4.068855279934243
-1.44,-3.95,-7.01,-0.7345344345962808,-1.2533941681445822,1.7626670174438157,-158.5304946671076,3.495584654482353,4.068855279934243
-0.84,-4.73,-7.52,-0.2396849457662051,-1.4528085292169917,1.0054683461419565,-156.814109146573,2.4295230620087382,3.2089830530311807
-0.84,-4.73,-7.52,-0.2396849457662051,-1.4528085292169917,1.0054683461419565,-156.814109146573,2.4295230620087382,3.2089830530311807
-0.22,-4.43,-8.13,0.1431269305201123,-0.8420859503424076,0.5849036396842989,-156.47442582901172,1.7303983035632713,1.8220825674649568
-0.22,-4.43,-8.13,0.1431269305201123,-0.8420859503424076,0.5849036396842989,-156.47442582901172,1.7303983035632713,1.8220825674649568
0.2,-5.42,-7.88,0.2637705538692124,-1.6436631628463436,0.3864803358159463,-155.3754969883622,1.1230152546764245,-0.0458366248327759
0.2,-5.42,-7.88,0.2637705538692124,-1.6436631628463436,0.3864803358159463,-155.3754969883622,1.1230152546764245,-0.0458366248327759
0.32,-6.04,-7.56,0.1361682512527825,-2.24798953830134,0.3904086456676641,-154.73873772257048,1.1344749665222489,-1.7647797695524667
0.32,-6.04,-7.56,0.1361682512527825,-2.24798953830134,0.3904086456676641,-154.73873772257048,1.1344749665222489,-1.7647797695524667
0.95,-5.86,-8.24,0.113506224124065,-1.9093524038649137,-0.1673757536734097,-154.8964372754453,1.6043342375287626,-5.823757869537403
0.95,-5.86,-8.24,0.113506224124065,-1.9093524038649137,-0.1673757536734097,-154.8964372754453,1.6043342375287626,-5.823757869537403
1.66,-5.13,-9.06,0.3249621794878397,-1.0464059301862203,-0.6793184441244461,-155.05511767406654,2.360753104216733,-8.395611151395807
1.66,-5.13,-9.06,0.3249621794878397,-1.0464059301862203,-0.6793184441244461,-155.05511767406654,2.360753104216733,-8.395611151395807
1.11,-5.05,-8.34,-0.2810966571679292,-1.4649412594371227,0.1079319519419073,-155.4292933262199,3.2204467196467967,-9.80955486143351
1.11,-5.05,-8.34,-0.2810966571679292,-1.4649412594371227,0.1079319519419073,-155.4292933262199,3.2204467196467967,-9.80955486143351
1.49,-4.83,-8.2,-0.0582319766219332,-1.4482214507076447,0.2836114268024249,-155.591382770185,4.11472114096103,-11.259541000283244
1.49,-4.83,-8.2,-0.0582319766219332,-1.4482214507076447,0.2836114268024249,-155.591382770185,4.11472114096103,-11.259541000283244
2.71,-3.78,-9.54,0.5418563356012832,-0.2606604770145662,-0.7896959658172378,-156.36226771891504,5.089538374458754,-13.126503557539667
2.71,-3.78,-9.54,0.5418563356012832,-0.2606604770145662,-0.7896959658172378,-156.36226771891504,5.089538374458754,-13.126503557539667
2.63,-3.52,-9.51,0.43320858411081,-0.2638884942987936,-0.6571013916008859,-157.10097394877238,5.812283928177061,-13.4841456448157
2.63,-3.52,-9.51,0.43320858411081,-0.2638884942987936,-0.6571013916008859,-157.10097394877238,5.812283928177061,-13.4841456448157
2.36,-2.22,-9.91,0.0916045176345883,0.7736408677990171,-0.5904259552876283,-158.28578665640208,6.9140653613570215,-13.091899903813276
2.36,-2.22,-9.91,0.0916045176345883,0.7736408677990171,-0.5904259552876283,-158.28578665640208,6.9140653613570215,-13.091899903813276
2.17,-2.35,-10.13,0.0265383980427424,0.56742069823991,-0.8011598335442613,-158.96550158142097,7.706360320042279,-12.330917071488784
2.17,-2.35,-10.13,0.0265383980427424,0.56742069823991,-0.8011598335442613,-158.96550158142097,7.706360320042279,-12.330917071488784
1.69,-1.85,-9.93,0.0208250431744075,0.8233197531231395,-0.4014453611187481,-160.4621037024181,8.809306149715164,-9.821056182581472
1.69,-1.85,-9.93,0.0208250431744075,0.8233197531231395,-0.4014453611187481,-160.4621037024181,8.809306149715164,-9.821056182581472
0.43,-0.71,-9.74,-0.9209822617698934,1.5333839631605763,0.1963885417967308,-161.86255690793462,9.556550648732504,-7.499640647274437
0.43,-0.71,-9.74,-0.9209822617698934,1.5333839631605763,0.1963885417967308,-161.86255690793462,9.556550648732504,-7.499640647274437
0.72,-1.41,-9.79,-0.3479819343703453,0.919880667446317,-0.0616491508674066,-162.30409717935632,9.752049739225924,-6.3975318623814825
0.72,-1.41,-9.79,-0.3479819343703453,0.919880667446317,-0.0616491508674066,-162.30409717935632,9.752049739225924,-6.3975318623814825
0.31,-1.39,-9.45,-0.5006812860322313,0.8066297413928185,0.2972143327210208,-162.45372607444324,10.22366575133618,-5.15836210329675
0.31,-1.39,-9.45,-0.5006812860322313,0.8066297413928185,0.2972143327210208,-162.45372607444324,10.22366575133618,-5.15836210329675
0.31,-1.78,-9.61,-0.4415767860674944,0.4538761882342842,0.0488015513018851,-162.45372607444324,10.304202691653051,-5.101008867683621
0.31,-1.78,-9.61,-0.4415767860674944,0.4538761882342842,0.0488015513018851,-162.45372607444324,10.304202691653051,-5.101008867683621
0.37,-2.11,-9.59,-0.3617321396960718,0.1533067002015981,-0.0118400526905997,-162.37875406030932,10.292697102933529,-5.307486603594608
0.37,-2.11,-9.59,-0.3617321396960718,0.1533067002015981,-0.0118400526905997,-162.37875406030932,10.292697102933529,-5.307486603594608
0.37,-2.28,-9.48,-0.3192535187556048,-0.0311841710060944,0.0545833093830445,-162.30409717935632,10.396251161173767,-5.307486603594608
0.37,-2.28,-9.48,-0.3192535187556048,-0.0311841710060944,0.0545833093830445,-162.30409717935632,10.396251161173767,-5.307486603594608
0.05,-2.38,-9.23,-0.5729556491639614,-0.2280512922734565,0.2945779632572414,-162.22975145954382,10.52282880334764,-5.2271876941715805
0.05,-2.38,-9.23,-0.5729556491639614,-0.2280512922734565,0.2945779632572414,-162.22975145954382,10.52282880334764,-5.2271876941715805
0.37,-2.02,-9.49,-0.309596964042138,0.2071834615798685,0.1041438941991028,-162.45372607444324,10.4537848668845,-4.997776256010228
0.37,-2.02,-9.49,-0.309596964042138,0.2071834615798685,0.1041438941991028,-162.45372607444324,10.4537848668845,-4.997776256010228
0.54,-2.25,-9.49,-0.1103231685046775,0.038311585290319,0.0393289230145796,-162.37875406030932,10.419264327291232,-5.020716482682318
0.54,-2.25,-9.49,-0.1103231685046775,0.038311585290319,0.0393289230145796,-162.37875406030932,10.419264327291232,-5.020716482682318
0.33,-2.34,-9.36,-0.266063440815718,-0.1123236361767898,0.1572617475656894,-162.37875406030932,10.419264327291232,-4.89454770282183
0.33,-2.34,-9.36,-0.266063440815718,-0.1123236361767898,0.1572617475656894,-162.37875406030932,10.419264327291232,-4.89454770282183
0.47,-2.26,-9.61,-0.1419307434827001,0.0562963094155948,-0.075520125513961,-162.37875406030932,10.430771068314456,-4.733977821845079
0.47,-2.26,-9.61,-0.1419307434827001,0.0562963094155948,-0.075520125513961,-162.37875406030932,10.430771068314456,-4.733977821845079
0.31,-2.41,-9.51,-0.2533289442662489,-0.1309082866598658,-0.0047203154289725,-162.37875406030932,10.37323841550224,-4.66516502390792
0.31,-2.41,-9.51,-0.2533289442662489,-0.1309082866598658,-0.0047203154289725,-162.37875406030932,10.37323841550224,-4.66516502390792
0.65,-2.41,-9.51,0.0724094391233243,-0.0615271398794363,-0.0250167602286079,-162.37875406030932,10.407757691617306,-4.71104003397371
0.65,-2.41,-9.51,0.0724094391233243,-0.0615271398794363,-0.0250167602286079,-162.37875406030932,10.407757691617306,-4.71104003397371
0.4,-2.32,-9.4,-0.1624468742414205,-0.0440220597649863,0.1177866470930517,-162.37875406030932,10.361732200036483,-4.61929076192046
0.4,-2.32,-9.4,-0.1624468742414205,-0.0440220597649863,0.1177866470930517,-162.37875406030932,10.361732200036483,-4.61929076192046
0.47,-2.61,-9.47,-0.0412615070298691,-0.2660018172076253,-0.0239878491570877,-162.30409717935632,10.338720083250598,-4.539012581284228
0.47,-2.61,-9.47,-0.0412615070298691,-0.2660018172076253,-0.0239878491570877,-162.30409717935632,10.338720083250598,-4.539012581284228
0.27,-2.35,-9.42,-0.2504228684623298,-0.0759104646476558,0.0977197814688093,-162.45372607444324,10.235170717586842,-4.378462866761455
0.27,-2.35,-9.42,-0.2504228684623298,-0.0759104646476558,0.0977197814688093,-162.45372607444324,10.235170717586842,-4.378462866761455
0.44,-2.57,-9.44,-0.0343589998918918,-0.237321215337402,0.016113850233884,-162.45372607444324,10.235170717586842,-4.2867240536107065
0.44,-2.57,-9.44,-0.0343589998918918,-0.237321215337402,0.016113850233884,-162.45372607444324,10.235170717586842,-4.2867240536107065
0.22,-2.18,-9.59,-0.2843641185843095,0.1071513696578898,-0.0257736906289913,-162.60463181843892,10.246675787285364,-4.034456312516312
0.22,-2.18,-9.59,-0.2843641185843095,0.1071513696578898,-0.0257736906289913,-162.60463181843892,10.246675787285364,-4.034456312516312
0.2,-2.42,-9.39,-0.2421202549017912,-0.1630154383825115,0.1121513668052252,-162.60463181843892,10.258180960550504,-4.011523869819651
0.2,-2.42,-9.39,-0.2421202549017912,-0.1630154383825115,0.1121513668052252,-162.60463181843892,10.258180960550504,-4.011523869819651
0.57,-2.32,-9.53,0.0809834601882055,0.0199087609354664,-0.0178726510204523,-162.60463181843892,10.258180960550504,-4.080321683767285
0.57,-2.32,-9.53,0.0809834601882055,0.0199087609354664,-0.0178726510204523,-162.60463181843892,10.258180960550504,-4.080321683767285
0.21,-2.39,-9.52,-0.2429181412556543,-0.1085103318402414,-0.007412170402878,-162.60463181843892,10.338720083250598,-3.988591587846416
0.21,-2.39,-9.52,-0.2429181412556543,-0.1085103318402414,-0.007412170402878,-162.60463181843892,10.338720083250598,-3.988591587846416
0.28,-2.56,-9.41,-0.1261235700204002,-0.2819323366894753,0.0555112458536886,-162.60463181843892,10.327214181692757,-3.931261580029344
0.28,-2.56,-9.41,-0.1261235700204002,-0.2819323366894753,0.0555112458536886,-162.60463181843892,10.327214181692757,-3.931261580029344
0.51,-2.18,-9.71,-0.0008635899198348,0.1648829813790262,-0.156753678295086,-162.68057392822612,10.338720083250598,-4.000057708800217
0.51,-2.18,-9.71,-0.0008635899198348,0.1648829813790262,-0.156753678295086,-162.68057392822612,10.338720083250598,-4.000057708800217
0.16,-2.31,-9.51,-0.2855447945104242,-0.0613676637491851,0.0231691174013128,-162.60463181843892,10.430771068314456,-3.896864048753203
0.16,-2.31,-9.51,-0.2855447945104242,-0.0613676637491851,0.0231691174013128,-162.60463181843892,10.430771068314456,-3.896864048753203
0.31,-2.27,-9.54,-0.1383193896609298,0.0006947050709791,-0.0036235570333928,-162.68057392822612,10.465291924669184,-3.851001219583861
0.31,-2.27,-9.54,-0.1383193896609298,0.0006947050709791,-0.0036235570333928,-162.68057392822612,10.465291924669184,-3.851001219583861
0.47,-2.41,-9.64,0.0313003147772754,-0.0911297464675187,-0.1406770610553245,-162.68057392822612,10.476799088278916,-3.873932556571698
0.47,-2.41,-9.64,0.0313003147772754,-0.0911297464675187,-0.1406770610553245,-162.68057392822612,10.476799088278916,-3.873932556571698
0.23,-2.18,-9.49,-0.2171333716726301,0.0461717278632058,0.0692930038509835,-162.68057392822612,10.557352206642197,-3.805139007503523
0.23,-2.18,-9.49,-0.2171333716726301,0.0461717278632058,0.0692930038509835,-162.68057392822612,10.557352206642197,-3.805139007503523
0.26,-2.2,-9.66,-0.181751630269866,0.0557198952291848,-0.1022884718127059,-162.75684793649998,10.557352206642197,-3.713416405127687
0.26,-2.2,-9.66,-0.181751630269866,0.0557198952291848,-0.1022884718127059,-162.75684793649998,10.557352206642197,-3.713416405127687
0.17,-2.24,-9.56,-0.2527987536774747,-0.01934570157504,-0.0104686472391026,-162.75684793649998,10.557352206642197,-3.701951248377608
0.17,-2.24,-9.56,-0.2527987536774747,-0.01934570157504,-0.0104686472391026,-162.75684793649998,10.557352206642197,-3.701951248377608
0.25,-2.11,-9.54,-0.1873572012008628,0.1124820431983169,0.0353427655959919,-162.8334582675195,10.545844298925708,-3.656090990936744
0.25,-2.11,-9.54,-0.1873572012008628,0.1124820431983169,0.0353427655959919,-162.8334582675195,10.545844298925708,-3.656090990936744
0.32,-2.38,-9.56,-0.074760367230316,-0.1103626909571744,-0.049446132036067,-162.68057392822612,10.557352206642197,-3.656090990936744
0.32,-2.38,-9.56,-0.074760367230316,-0.1103626909571744,-0.049446132036067,-162.68057392822612,10.557352206642197,-3.656090990936744
0.25,-2.23,-9.59,-0.1559453406843439,0.0261283752515963,-0.0411161608471175,-162.68057392822612,10.580368342525214,-3.564372225995784
0.25,-2.23,-9.59,-0.1559453406843439,0.0261283752515963,-0.0411161608471175,-162.68057392822612,10.580368342525214,-3.564372225995784
0.07,-2.24,-9.34,-0.3106718702448289,-0.0669099938148742,0.2068007281746187,-162.68057392822612,10.580368342525214,-3.564372225995784
0.07,-2.24,-9.34,-0.3106718702448289,-0.0669099938148742,0.2068007281746187,-162.68057392822612,10.580368342525214,-3.564372225995784
0.22,-2.55,-9.41,-0.1219731884643649,-0.3044854873719973,0.0602962649216518,-162.60463181843892,10.591876570929834,-3.5987664920103746
0.22,-2.55,-9.41,-0.1219731884643649,-0.3044854873719973,0.0602962649216518,-162.60463181843892,10.591876570929834,-3.5987664920103746
0.2,-2.16,-9.53,-0.2276901352187995,0.0747900632634601,0.0358228267888627,-162.68057392822612,10.6148933492606,-3.656090990936744
0.2,-2.16,-9.53,-0.2276901352187995,0.0747900632634601,0.0358228267888627,-162.68057392822612,10.6148933492606,-3.656090990936744
0.09,-2.04,-9.61,-0.3730595200224556,0.1852835366741999,-0.0090668156766895,-162.60463181843892,10.741493332748478,-3.724881599063971
0.09,-2.04,-9.61,-0.3730595200224556,0.1852835366741999,-0.0090668156766895,-162.60463181843892,10.741493332748478,-3.724881599063971
0.29,-2.51,-9.5,-0.0841788005966748,-0.2578071854328374,-0.0198778397137502,-162.60463181843892,10.706964767003903,-3.724881599063971
0.29,-2.51,-9.5,-0.0841788005966748,-0.2578071854328374,-0.0198778397137502,-162.60463181843892,10.706964767003903,-3.724881599063971
0.54,-2.31,-9.7,0.0948913298489753,0.028324488149136,-0.1787339865520749,-162.60463181843892,10.741493332748478,-3.805139007503523
0.54,-2.31,-9.7,0.0948913298489753,0.028324488149136,-0.1787339865520749,-162.60463181843892,10.741493332748478,-3.805139007503523
0.34,-2.24,-9.52,-0.089078167483264,0.0062821921792921,0.0211696533772958,-162.60463181843892,10.741493332748478,-3.7592774051414257
0.34,-2.24,-9.52,-0.089078167483264,0.0062821921792921,0.0211696533772958,-162.60463181843892,10.741493332748478,-3.7592774051414257
0.47,-2.45,-9.68,0.0637955258776493,-0.1178638912495582,-0.188740849487452,-162.52901727888843,10.810553401892458,-3.7478120989556993
0.47,-2.45,-9.68,0.0637955258776493,-0.1178638912495582,-0.188740849487452,-162.52901727888843,10.810553401892458,-3.7478120989556993
0.24,-2.26,-9.45,-0.1536062456104102,-0.0372875277479478,0.0884858337809557,-162.60463181843892,10.822063795614437,-3.621696182670093
0.24,-2.26,-9.45,-0.1536062456104102,-0.0372875277479478,0.0884858337809557,-162.60463181843892,10.822063795614437,-3.621696182670093
0.02,-2.04,-9.36,-0.3829442105610727,0.0989289119546352,0.2350687930114059,-162.68057392822612,10.810553401892458,-3.5185137037623337
0.02,-2.04,-9.36,-0.3829442105610727,0.0989289119546352,0.2350687930114059,-162.68057392822612,10.810553401892458,-3.5185137037623337
0.2,-2.53,-9.33,-0.1185752675050375,-0.3338174432896459,0.1441293236706755,-162.60463181843892,10.822063795614437,-3.5299782811888885
0.2,-2.53,-9.33,-0.1185752675050375,-0.3338174432896459,0.1441293236706755,-162.60463181843892,10.822063795614437,-3.5299782811888885
0.19,-2.01,-9.52,-0.2350779557877419,0.1837528829039812,0.0794935176189781,-162.68057392822612,10.8450849117299,-3.5299782811888885
0.19,-2.01,-9.52,-0.2350779557877419,0.1837528829039812,0.0794935176189781,-162.68057392822612,10.8450849117299,-3.5299782811888885
0.31,-2.5,-9.52,-0.0395563432188929,-0.2369655844099621,-0.03808374995568,-162.60463181843892,10.8450849117299,-3.57583694549078
0.31,-2.5,-9.52,-0.0395563432188929,-0.2369655844099621,-0.03808374995568,-162.60463181843892,10.8450849117299,-3.57583694549078
