,TIME,ELAPSED_SECONDS,PSTATE,acc_x,acc_y,acc_z,mag_x,mag_y,mag_z,gyr_x,gyr_y,gyr_z,lin_x,lin_y,lin_z,eul_x,eul_y,eul_z,qua_w,qua_x,qua_y,qua_z
0,1040912.0,810.358782,1.0,6.21,-1.23,7.43,-39.56,-6.88,-10.75,0.63,0.06,0.63,0.07542901586106787,0.007333995604168031,0.04569939690427916,-37.21701087468853,-15.713868313956251,-100.3671515088305,0.5379999999999999,-0.3191,-0.1367,-0.7681
1,1040912.0,810.358782,1.0,6.21,-1.23,7.43,-39.56,-6.88,-10.75,0.63,0.06,0.63,0.07542901586106787,0.007333995604168031,0.04569939690427916,-37.21701087468853,-15.713868313956251,-100.3671515088305,0.5379999999999999,-0.3191,-0.1367,-0.7681
2,1040947.0,810.362507,1.0,6.17,-1.26,7.33,-40.69,-6.06,-11.25,0.56,-0.12,0.31,0.020143679359190148,0.02175727796254057,0.14308332650736233,-37.20491981438743,-15.725436142775802,-100.3671515088305,0.5381,-0.319,-0.1368,-0.7681
3,1040947.0,810.362507,1.0,6.17,-1.26,7.33,-40.69,-6.06,-11.25,0.56,-0.12,0.31,0.020143679359190148,0.02175727796254057,0.14308332650736233,-37.20491981438743,-15.725436142775802,-100.3671515088305,0.5381,-0.319,-0.1368,-0.7681
4,1040984.0,810.402767,1.0,6.19,-1.28,7.36,-40.0,-6.88,-10.88,-0.12,-0.19,0.19,0.007802706399929082,0.012271082670971543,0.10490332539016656,-37.20491981438743,-15.725436142775802,-100.3671515088305,0.5381,-0.319,-0.1368,-0.7681
5,1040984.0,810.402767,1.0,6.19,-1.28,7.36,-40.0,-6.88,-10.88,-0.12,-0.19,0.19,0.007802706399929082,0.012271082670971543,0.10490332539016656,-37.20491981438743,-15.725436142775802,-100.3671515088305,0.5381,-0.319,-0.1368,-0.7681
6,1041018.0,810.405962,1.0,6.16,-1.3,7.4,-40.0,-6.88,-10.88,0.88,-0.06,0.5,0.006428691859017621,-0.04103907011343488,0.09099899419265788,-37.192829183479816,-15.748572284340513,-100.3671515088305,0.5382,-0.3189,-0.13699999999999998,-0.7681
7,1041018.0,810.405962,1.0,6.16,-1.3,7.4,-40.0,-6.88,-10.88,0.88,-0.06,0.5,0.006428691859017621,-0.04103907011343488,0.09099899419265788,-37.192829183479816,-15.748572284340513,-100.3671515088305,0.5382,-0.3189,-0.13699999999999998,-0.7681
8,1041053.0,810.5140719999999,1.0,6.22,-1.3,7.31,-41.06,-4.56,-11.25,0.25,0.0,0.31,-0.03742866200209438,0.053150579501275885,0.1210795928861561,-37.192829183479816,-15.748572284340513,-100.3671515088305,0.5382,-0.3189,-0.13699999999999998,-0.7681
9,1041053.0,810.5140719999999,1.0,6.22,-1.3,7.31,-41.06,-4.56,-11.25,0.25,0.0,0.31,-0.03742866200209438,0.053150579501275885,0.1210795928861561,-37.192829183479816,-15.748572284340513,-100.3671515088305,0.5382,-0.3189,-0.13699999999999998,-0.7681
10,1041088.0,810.52569,1.0,6.2,-1.33,7.47,-41.5,-6.5,-8.75,0.37,0.19,0.37,-0.007227368036710423,-0.06066401421088141,0.008381395673465521,-37.180738981785375,-15.748572284340513,-100.3671515088305,0.5382,-0.3188,-0.13699999999999998,-0.7681
11,1041088.0,810.52569,1.0,6.2,-1.33,7.47,-41.5,-6.5,-8.75,0.37,0.19,0.37,-0.007227368036710423,-0.06066401421088141,0.008381395673465521,-37.180738981785375,-15.748572284340513,-100.3671515088305,0.5382,-0.3188,-0.13699999999999998,-0.7681
12,1041123.0,810.565599,1.0,6.21,-1.35,7.51,-40.69,-6.5,-10.88,0.37,-0.37,0.69,-0.013118242198676744,-0.08271586901484608,-0.031016694736853975,-37.180738981785375,-15.748572284340513,-100.34925747843585,0.5383,-0.3188,-0.13699999999999998,-0.768
13,1041123.0,810.565599,1.0,6.21,-1.35,7.51,-40.69,-6.5,-10.88,0.37,-0.37,0.69,-0.013118242198676744,-0.08271586901484608,-0.031016694736853975,-37.180738981785375,-15.748572284340513,-100.34925747843585,0.5383,-0.3188,-0.13699999999999998,-0.768
14,1041160.0,810.57379,1.0,6.16,-1.29,7.41,-40.69,-6.5,-10.88,-0.69,-0.12,0.69,0.025646295265011162,-0.03799294870900605,0.08473152660249994,-37.20491981438743,-15.713868313956251,-100.33136679814685,0.5385,-0.319,-0.1367,-0.7679
15,1041160.0,810.57379,1.0,6.16,-1.29,7.41,-40.69,-6.5,-10.88,-0.69,-0.12,0.69,0.025646295265011162,-0.03799294870900605,0.08473152660249994,-37.20491981438743,-15.713868313956251,-100.33136679814685,0.5385,-0.319,-0.1367,-0.7679
16,1041195.0,810.592895,1.0,6.26,-1.29,7.29,-39.56,-4.56,-10.88,-1.31,0.0,0.63,-0.032660824479749266,0.10468578396583594,0.11212710523205872,-37.21701087468853,-15.690733139619653,-100.31347946564678,0.5386,-0.3191,-0.1365,-0.7678
17,1041195.0,810.592895,1.0,6.26,-1.29,7.29,-39.56,-4.56,-10.88,-1.31,0.0,0.63,-0.032660824479749266,0.10468578396583594,0.11212710523205872,-37.21701087468853,-15.690733139619653,-100.31347946564678,0.5386,-0.3191,-0.1365,-0.7678
18,1041231.0,810.595862,1.0,6.23,-1.24,7.45,-40.69,-3.5,-10.5,-0.37,-0.44,1.12,0.07980622772102486,0.01572760288882602,0.016533371045857947,-37.229102364563495,-15.667598608855753,-100.27771483475884,0.5388,-0.3192,-0.1363,-0.7676
19,1041231.0,810.595862,1.0,6.23,-1.24,7.45,-40.69,-3.5,-10.5,-0.37,-0.44,1.12,0.07980622772102486,0.01572760288882602,0.016533371045857947,-37.229102364563495,-15.667598608855753,-100.27771483475884,0.5388,-0.3192,-0.1363,-0.7676
20,1041266.0,810.608081,1.0,6.19,-1.24,7.38,-40.69,-3.5,-10.5,-0.12,-0.56,1.06,0.0681035766552226,0.026245070870218882,0.09517363957457724,-37.24119428419274,-15.656031584502133,-100.25983753174991,0.539,-0.3193,-0.1362,-0.7675
21,1041266.0,810.608081,1.0,6.19,-1.24,7.38,-40.69,-3.5,-10.5,-0.12,-0.56,1.06,0.0681035766552226,0.026245070870218882,0.09517363957457724,-37.24119428419274,-15.656031584502133,-100.25983753174991,0.539,-0.3193,-0.1362,-0.7675
22,1041301.0,810.6425469999999,1.0,6.13,-1.25,7.29,-40.69,-6.88,-10.5,0.37,0.0,1.19,0.04482805988219163,0.027177277295369118,0.20036290036332005,-37.253286633756794,-15.656031584502133,-100.20622564478924,0.5392,-0.3194,-0.1362,-0.7672
23,1041301.0,810.6425469999999,1.0,6.13,-1.25,7.29,-40.69,-6.88,-10.5,0.37,0.0,1.19,0.04482805988219163,0.027177277295369118,0.20036290036332005,-37.253286633756794,-15.656031584502133,-100.20622564478924,0.5392,-0.3194,-0.1362,-0.7672
24,1041336.0,810.6589389999999,1.0,6.18,-1.28,7.47,-40.69,-7.19,-9.19,-0.12,-0.31,0.37,0.06871709704709894,-0.04625528739980145,0.027854654510813148,-37.253286633756794,-15.656031584502133,-100.20622564478924,0.5393,-0.3194,-0.1362,-0.7672
25,1041336.0,810.6589389999999,1.0,6.18,-1.28,7.47,-40.69,-7.19,-9.19,-0.12,-0.31,0.37,0.06871709704709894,-0.04625528739980145,0.027854654510813148,-37.253286633756794,-15.656031584502133,-100.20622564478924,0.5393,-0.3194,-0.1362,-0.7672
26,1041373.0,810.6635349999999,1.0,6.23,-1.26,7.47,-41.06,-6.88,-10.88,-0.31,0.63,0.63,0.07983677136569511,0.0029812049204789304,-0.0012558520336121148,-37.253286633756794,-15.632898017228825,-100.18836168215151,0.5396,-0.3194,-0.136,-0.7671
27,1041373.0,810.6635349999999,1.0,6.23,-1.26,7.47,-41.06,-6.88,-10.88,-0.31,0.63,0.63,0.07983677136569511,0.0029812049204789304,-0.0012558520336121148,-37.253286633756794,-15.632898017228825,-100.18836168215151,0.5396,-0.3194,-0.136,-0.7671
28,1041408.0,810.666851,1.0,6.23,-1.32,7.39,-41.06,-6.88,-10.88,0.44,0.19,0.44,-0.002497156924499921,0.02439870986659609,0.0513028269279836,-37.253286633756794,-15.632898017228825,-100.18836168215151,0.5396,-0.3194,-0.136,-0.7671
29,1041408.0,810.666851,1.0,6.23,-1.32,7.39,-41.06,-6.88,-10.88,0.44,0.19,0.44,-0.002497156924499921,0.02439870986659609,0.0513028269279836,-37.253286633756794,-15.632898017228825,-100.18836168215151,0.5396,-0.3194,-0.136,-0.7671
30,1041444.0,810.707582,1.0,6.22,-1.32,7.27,-40.25,-6.5,-9.56,0.06,0.37,0.25,-0.043024388379622865,0.0844267401567258,0.14876612062191266,-37.24119428419274,-15.632898017228825,-100.18836168215151,0.5396,-0.3193,-0.136,-0.7671
31,1041444.0,810.707582,1.0,6.22,-1.32,7.27,-40.25,-6.5,-9.56,0.06,0.37,0.25,-0.043024388379622865,0.0844267401567258,0.14876612062191266,-37.24119428419274,-15.632898017228825,-100.18836168215151,0.5396,-0.3193,-0.136,-0.7671
32,1041479.0,810.723985,1.0,6.21,-1.3,7.44,-40.0,-6.06,-10.5,-0.5,0.06,0.31,0.03828600349802514,-0.008965682025603217,0.028810064795395718,-37.253286633756794,-15.621331474060085,-100.18836168215151,0.5396,-0.3194,-0.1359,-0.7671
33,1041479.0,810.723985,1.0,6.21,-1.3,7.44,-40.0,-6.06,-10.5,-0.5,0.06,0.31,0.03828600349802514,-0.008965682025603217,0.028810064795395718,-37.253286633756794,-15.621331474060085,-100.18836168215151,0.5396,-0.3194,-0.1359,-0.7671
34,1041514.0,810.8110429999999,1.0,6.17,-1.27,7.45,-40.0,-6.06,-10.5,-0.37,-0.5,0.37,0.07894246469572562,-0.03437414416926332,0.05078578889699692,-37.26537941343616,-15.621331474060085,-100.18836168215151,0.5395,-0.3195,-0.1359,-0.7671
35,1041514.0,810.8110429999999,1.0,6.17,-1.27,7.45,-40.0,-6.06,-10.5,-0.37,-0.5,0.37,0.07894246469572562,-0.03437414416926332,0.05078578889699692,-37.26537941343616,-15.621331474060085,-100.18836168215151,0.5395,-0.3195,-0.1359,-0.7671
36,1041549.0,810.866322,1.0,6.19,-1.34,7.32,-40.69,-6.06,-10.5,0.75,0.0,0.63,-0.0356440576308763,0.0256184832513684,0.1271782585013188,-37.253286633756794,-15.632898017228825,-100.17050104885807,0.5396,-0.3194,-0.136,-0.767
37,1041549.0,810.866322,1.0,6.19,-1.34,7.32,-40.69,-6.06,-10.5,0.75,0.0,0.63,-0.0356440576308763,0.0256184832513684,0.1271782585013188,-37.253286633756794,-15.632898017228825,-100.17050104885807,0.5396,-0.3194,-0.136,-0.767
38,1041584.0,810.919567,1.0,6.2,-1.25,7.45,-40.25,-6.5,-10.0,-0.81,0.06,0.31,0.09170843857351184,-0.004195013907013268,0.03441525230012843,-37.26537941343616,-15.621331474060085,-100.17050104885807,0.5396,-0.3195,-0.1359,-0.767
39,1041584.0,810.919567,1.0,6.2,-1.25,7.45,-40.25,-6.5,-10.0,-0.81,0.06,0.31,0.09170843857351184,-0.004195013907013268,0.03441525230012843,-37.26537941343616,-15.621331474060085,-100.17050104885807,0.5396,-0.3195,-0.1359,-0.767
40,1041620.0,810.957305,1.0,6.23,-1.28,7.39,-40.25,-6.88,-10.88,-0.12,-0.31,0.12,0.03830854126393912,0.04130449132909386,0.05676659584268329,-37.26537941343616,-15.609765091037287,-100.17050104885807,0.5396,-0.3195,-0.1358,-0.767
41,1041620.0,810.957305,1.0,6.23,-1.28,7.39,-40.25,-6.88,-10.88,-0.12,-0.31,0.12,0.03830854126393912,0.04130449132909386,0.05676659584268329,-37.26537941343616,-15.609765091037287,-100.17050104885807,0.5396,-0.3195,-0.1358,-0.767
42,1041655.0,810.9734940000001,1.0,6.19,-1.29,7.34,-40.25,-6.88,-10.88,0.25,0.0,0.5,0.020524349885129082,0.035514047519295884,0.118816521688629,-37.26537941343616,-15.609765091037287,-100.17050104885807,0.5396,-0.3195,-0.1358,-0.767
43,1041655.0,810.9734940000001,1.0,6.19,-1.29,7.34,-40.25,-6.88,-10.88,0.25,0.0,0.5,0.020524349885129082,0.035514047519295884,0.118816521688629,-37.26537941343616,-15.609765091037287,-100.17050104885807,0.5396,-0.3195,-0.1358,-0.767
44,1041692.0,811.099259,1.0,6.14,-1.27,7.45,-40.0,-4.56,-9.56,0.5,0.12,0.44,0.08728165235061658,-0.05476454081713045,0.06989577909907219,-37.26537941343616,-15.609765091037287,-100.17050104885807,0.5396,-0.3195,-0.1358,-0.767
45,1041692.0,811.099259,1.0,6.14,-1.27,7.45,-40.0,-4.56,-9.56,0.5,0.12,0.44,0.08728165235061658,-0.05476454081713045,0.06989577909907219,-37.26537941343616,-15.609765091037287,-100.17050104885807,0.5396,-0.3195,-0.1358,-0.767
46,1041727.0,811.156378,1.0,6.2,-1.28,7.45,-41.06,-4.25,-10.0,0.25,-0.06,0.25,0.06532703260133277,-0.01411307166885134,0.030329976595508512,-37.26537941343616,-15.609765091037287,-100.17050104885807,0.5396,-0.3195,-0.1358,-0.767
47,1041727.0,811.156378,1.0,6.2,-1.28,7.45,-41.06,-4.25,-10.0,0.25,-0.06,0.25,0.06532703260133277,-0.01411307166885134,0.030329976595508512,-37.26537941343616,-15.609765091037287,-100.17050104885807,0.5396,-0.3195,-0.1358,-0.767
48,1041762.0,811.17313,1.0,6.25,-1.32,7.4,-41.06,-4.25,-10.0,-0.25,0.19,-0.12,-0.0024404804847861787,0.034042932974839735,0.03097942848576274,-37.253286633756794,-15.632898017228825,-100.17050104885807,0.5397,-0.3194,-0.136,-0.767
49,1041762.0,811.17313,1.0,6.25,-1.32,7.4,-41.06,-4.25,-10.0,-0.25,0.19,-0.12,-0.0024404804847861787,0.034042932974839735,0.03097942848576274,-37.253286633756794,-15.632898017228825,-100.17050104885807,0.5397,-0.3194,-0.136,-0.767
50,1041797.0,811.1763490000001,1.0,6.24,-1.3,7.33,-40.25,-5.75,-10.75,0.5,0.25,0.56,-0.004987335536516313,0.07446685369593342,0.09320932152849792,-37.253286633756794,-15.621331474060085,-100.17050104885807,0.5397,-0.3194,-0.1359,-0.767
51,1041797.0,811.1763490000001,1.0,6.24,-1.3,7.33,-40.25,-5.75,-10.75,0.5,0.25,0.56,-0.004987335536516313,0.07446685369593342,0.09320932152849792,-37.253286633756794,-15.621331474060085,-100.17050104885807,0.5397,-0.3194,-0.1359,-0.767
52,1041833.0,811.21146,1.0,6.19,-1.35,7.48,-40.0,-4.25,-10.5,0.37,-0.12,0.5,0.01319144970902919,-0.0638801212553205,0.004367341569718519,-37.253286633756794,-15.621331474060085,-100.13478976112896,0.5399,-0.3194,-0.1359,-0.7668
53,1041833.0,811.21146,1.0,6.19,-1.35,7.48,-40.0,-4.25,-10.5,0.37,-0.12,0.5,0.01319144970902919,-0.0638801212553205,0.004367341569718519,-37.253286633756794,-15.621331474060085,-100.13478976112896,0.5399,-0.3194,-0.1359,-0.7668
54,1041868.0,811.21845,1.0,6.27,-1.47,7.44,-40.0,-4.25,-10.5,0.44,0.31,0.63,-0.1273495758457872,-0.028056809145315054,-0.03257735284597807,-37.253286633756794,-15.621331474060085,-100.13478976112896,0.5399,-0.3194,-0.1359,-0.7668
55,1041868.0,811.21845,1.0,6.27,-1.47,7.44,-40.0,-4.25,-10.5,0.44,0.31,0.63,-0.1273495758457872,-0.028056809145315054,-0.03257735284597807,-37.253286633756794,-15.621331474060085,-100.13478976112896,0.5399,-0.3194,-0.1359,-0.7668
56,1041903.0,811.235617,1.0,6.25,-1.42,7.39,-40.0,-5.0,-10.88,-0.94,0.0,0.75,-0.08833571980289645,0.006153508294257537,0.02487311975259665,-37.277472623411406,-15.586632804931574,-100.13478976112896,0.5399,-0.3196,-0.1356,-0.7668
57,1041903.0,811.235617,1.0,6.25,-1.42,7.39,-40.0,-5.0,-10.88,-0.94,0.0,0.75,-0.08833571980289645,0.006153508294257537,0.02487311975259665,-37.277472623411406,-15.586632804931574,-100.13478976112896,0.5399,-0.3196,-0.1356,-0.7668
58,1041938.0,811.238435,1.0,6.23,-1.44,7.44,-41.06,-4.56,-10.88,-1.94,-1.0,0.44,-0.07385234103696614,-0.044996909281255326,-0.00317268493567191,-37.33794513405029,-15.551935573755918,-100.11693910211171,0.5399,-0.3201,-0.1353,-0.7667
59,1041938.0,811.238435,1.0,6.23,-1.44,7.44,-41.06,-4.56,-10.88,-1.94,-1.0,0.44,-0.07385234103696614,-0.044996909281255326,-0.00317268493567191,-37.33794513405029,-15.551935573755918,-100.11693910211171,0.5399,-0.3201,-0.1353,-0.7667
60,1041975.0,811.245897,1.0,6.28,-1.43,7.47,-40.69,-5.75,-9.56,-1.31,-0.69,1.56,-0.050557405417468,-0.018394957531547518,-0.05647858956501928,-37.39842842920397,-15.494110041456645,-100.0812477423364,0.54,-0.3206,-0.1348,-0.7665
61,1041975.0,811.245897,1.0,6.28,-1.43,7.47,-40.69,-5.75,-9.56,-1.31,-0.69,1.56,-0.050557405417468,-0.018394957531547518,-0.05647858956501928,-37.39842842920397,-15.494110041456645,-100.0812477423364,0.54,-0.3206,-0.1348,-0.7665
62,1042008.0,811.281503,1.0,6.33,-1.5,7.43,-40.69,-5.75,-9.56,-2.06,-0.88,2.25,-0.12119826569203762,0.016208073957259428,-0.06800686891103425,-37.47102265081461,-15.436288478593855,-100.00990479193828,0.5403,-0.3212,-0.1343,-0.7661
63,1042008.0,811.281503,1.0,6.33,-1.5,7.43,-40.69,-5.75,-9.56,-2.06,-0.88,2.25,-0.12119826569203762,0.016208073957259428,-0.06800686891103425,-37.47102265081461,-15.436288478593855,-100.00990479193828,0.5403,-0.3212,-0.1343,-0.7661
64,1042044.0,811.296954,1.0,6.38,-1.55,7.31,-40.25,-4.25,-10.06,-1.88,-0.94,4.81,-0.19908443384299115,0.10527726705599394,-0.016398512821396594,-37.543632473884564,-15.366907820940328,-99.92080048347364,0.5408,-0.3218,-0.1337,-0.7656
65,1042044.0,811.296954,1.0,6.38,-1.55,7.31,-40.25,-4.25,-10.06,-1.88,-0.94,4.81,-0.19908443384299115,0.10527726705599394,-0.016398512821396594,-37.543632473884564,-15.366907820940328,-99.92080048347364,0.5408,-0.3218,-0.1337,-0.7656
66,1042079.0,811.299841,1.0,6.34,-1.68,7.62,-41.06,-4.25,-10.0,-2.81,-2.38,3.94,-0.17597967236949966,-0.14190463658140995,-0.2447824466231889,-37.640469908070976,-15.29753283007483,-99.77840482252957,0.5415,-0.3226,-0.1331,-0.7648
67,1042079.0,811.299841,1.0,6.34,-1.68,7.62,-41.06,-4.25,-10.0,-2.81,-2.38,3.94,-0.17597967236949966,-0.14190463658140995,-0.2447824466231889,-37.640469908070976,-15.29753283007483,-99.77840482252957,0.5415,-0.3226,-0.1331,-0.7648
68,1042114.0,811.420698,1.0,6.73,-1.65,7.38,-41.06,-4.25,-10.0,-6.31,-2.63,2.94,-0.26727396647987145,0.2916102230719495,-0.3088493996659416,-37.858456282561114,-15.135679738336453,-99.7072857164662,0.5414,-0.3244,-0.1317,-0.7644
69,1042114.0,811.420698,1.0,6.73,-1.65,7.38,-41.06,-4.25,-10.0,-6.31,-2.63,2.94,-0.26727396647987145,0.2916102230719495,-0.3088493996659416,-37.858456282561114,-15.135679738336453,-99.7072857164662,0.5414,-0.3244,-0.1317,-0.7644
70,1042147.0,811.522144,1.0,6.22,-1.49,7.21,-40.69,-3.88,-9.56,-9.44,-6.88,4.63,-0.006298234309007666,0.05359390382077889,0.16872034546745066,-38.25846833636598,-14.950741939900693,-99.52971641733649,0.5413,-0.3277,-0.1301,-0.7634
71,1042147.0,811.522144,1.0,6.22,-1.49,7.21,-40.69,-3.88,-9.56,-9.44,-6.88,4.63,-0.006298234309007666,0.05359390382077889,0.16872034546745066,-38.25846833636598,-14.950741939900693,-99.52971641733649,0.5413,-0.3277,-0.1301,-0.7634
72,1042184.0,811.5766980000001,1.0,6.26,-1.51,7.14,-41.06,-4.25,-8.0,-7.38,-4.13,0.06,-0.016071227198028448,0.09945159158722006,0.19222588325816226,-38.52541202617238,-14.84673166768115,-99.47650902646944,0.5406,-0.3299,-0.1292,-0.7631
73,1042184.0,811.5766980000001,1.0,6.26,-1.51,7.14,-41.06,-4.25,-8.0,-7.38,-4.13,0.06,-0.016071227198028448,0.09945159158722006,0.19222588325816226,-38.52541202617238,-14.84673166768115,-99.47650902646944,0.5406,-0.3299,-0.1292,-0.7631
74,1042219.0,811.657807,1.0,6.43,-1.49,6.93,-41.06,-4.25,-8.0,-5.81,-4.0,0.06,-0.0759114730470376,0.33817427577685344,0.24266674993820206,-38.73183555708117,-14.754288420181696,-99.44105363347383,0.5399,-0.3316,-0.1284,-0.7629
75,1042219.0,811.657807,1.0,6.43,-1.49,6.93,-41.06,-4.25,-8.0,-5.81,-4.0,0.06,-0.0759114730470376,0.33817427577685344,0.24266674993820206,-38.73183555708117,-14.754288420181696,-99.44105363347383,0.5399,-0.3316,-0.1284,-0.7629
76,1042253.0,811.669638,1.0,6.38,-1.58,6.97,-41.5,-5.0,-10.0,-2.0,-6.19,-0.37,-0.10106593372731054,0.21225727712745254,0.22925826083915804,-39.01132279075521,-14.777398324484167,-99.37018165058248,0.5392,-0.3339,-0.1286,-0.7625
77,1042253.0,811.669638,1.0,6.38,-1.58,6.97,-41.5,-5.0,-10.0,-2.0,-6.19,-0.37,-0.10106593372731054,0.21225727712745254,0.22925826083915804,-39.01132279075521,-14.777398324484167,-99.37018165058248,0.5392,-0.3339,-0.1286,-0.7625
78,1042288.0,811.67323,1.0,6.32,-1.77,7.29,-41.06,-3.5,-8.0,-0.37,-6.19,0.19,-0.12427054296619032,-0.12063482192026408,-0.0009696944972930057,-39.21805551339583,-14.89295693159816,-99.22859240723112,0.5388,-0.3356,-0.1296,-0.7617
79,1042288.0,811.67323,1.0,6.32,-1.77,7.29,-41.06,-3.5,-8.0,-0.37,-6.19,0.19,-0.12427054296619032,-0.12063482192026408,-0.0009696944972930057,-39.21805551339583,-14.89295693159816,-99.22859240723112,0.5388,-0.3356,-0.1296,-0.7617
80,1042323.0,811.716666,1.0,6.81,-2.07,7.31,-41.75,-5.0,-8.75,-2.88,-3.69,-2.38,-0.4748361928343498,0.09033117646854748,-0.3846929374411872,-39.33972504606741,-14.93918463283386,-99.22859240723112,0.5382,-0.3366,-0.13,-0.7617
81,1042323.0,811.716666,1.0,6.81,-2.07,7.31,-41.75,-5.0,-8.75,-2.88,-3.69,-2.38,-0.4748361928343498,0.09033117646854748,-0.3846929374411872,-39.33972504606741,-14.93918463283386,-99.22859240723112,0.5382,-0.3366,-0.13,-0.7617
82,1042358.0,811.733638,1.0,7.31,-1.9,6.96,-41.75,-5.0,-8.75,-8.06,-4.38,-3.06,-0.5143357682844909,0.6901749543817934,-0.4279392565264804,-39.61974059674283,-14.858287755594214,-99.28166424718141,0.5364,-0.3389,-0.1293,-0.762
83,1042358.0,811.733638,1.0,7.31,-1.9,6.96,-41.75,-5.0,-8.75,-8.06,-4.38,-3.06,-0.5143357682844909,0.6901749543817934,-0.4279392565264804,-39.61974059674283,-14.858287755594214,-99.28166424718141,0.5364,-0.3389,-0.1293,-0.762
84,1042395.0,811.7366089999999,1.0,7.37,-2.22,7.16,-41.5,-5.0,-8.75,-6.88,-9.81,1.12,-0.6955211212304584,0.4581219911629162,-0.6727237699890889,-39.948769456648414,-14.858287755594214,-99.17554944715711,0.5356,-0.3416,-0.1293,-0.7614
85,1042395.0,811.7366089999999,1.0,7.37,-2.22,7.16,-41.5,-5.0,-8.75,-6.88,-9.81,1.12,-0.6955211212304584,0.4581219911629162,-0.6727237699890889,-39.948769456648414,-14.858287755594214,-99.17554944715711,0.5356,-0.3416,-0.1293,-0.7614
86,1042429.0,811.771583,1.0,7.74,-2.39,7.19,-41.75,-4.56,-9.19,-11.06,-13.25,4.31,-0.7787951828576711,0.571161392002687,-0.9814477344221012,-40.742293166188276,-14.742733694368155,-98.80505247705544,0.5347,-0.3481,-0.1283,-0.7593
87,1042429.0,811.771583,1.0,7.74,-2.39,7.19,-41.75,-4.56,-9.19,-11.06,-13.25,4.31,-0.7787951828576711,0.571161392002687,-0.9814477344221012,-40.742293166188276,-14.742733694368155,-98.80505247705544,0.5347,-0.3481,-0.1283,-0.7593
88,1042464.0,811.778385,1.0,8.25,-2.43,6.97,-41.75,-4.56,-9.19,-19.12,-23.5,11.63,-0.8521783442587209,0.9791872336412426,-1.1871338995975569,-41.56237468767145,-14.592535930080526,-98.3657986482455,0.5341,-0.3548,-0.127,-0.7568
89,1042464.0,811.778385,1.0,8.25,-2.43,6.97,-41.75,-4.56,-9.19,-19.12,-23.5,11.63,-0.8521783442587209,0.9791872336412426,-1.1871338995975569,-41.56237468767145,-14.592535930080526,-98.3657986482455,0.5341,-0.3548,-0.127,-0.7568
90,1042499.0,811.7950940000001,1.0,8.13,-2.68,6.94,-41.75,-2.38,-9.19,-21.25,-34.25,18.06,-0.7888654132489855,0.6795431913848544,-1.1641663967328366,-43.11071528826148,-14.407711711634985,-97.30210096200071,0.5346,-0.3674,-0.1254,-0.7507
91,1042499.0,811.7950940000001,1.0,8.13,-2.68,6.94,-41.75,-2.38,-9.19,-21.25,-34.25,18.06,-0.7888654132489855,0.6795431913848544,-1.1641663967328366,-43.11071528826148,-14.407711711634985,-97.30210096200071,0.5346,-0.3674,-0.1254,-0.7507
92,1042534.0,811.798028,1.0,7.83,-3.15,7.16,-43.25,-2.0,-6.75,-24.44,-35.63,25.25,-0.8163459206350315,0.05550561977204027,-1.2308994773086417,-44.39495201253494,-14.373061379793723,-95.90673837953938,0.5386,-0.3778,-0.1251,-0.7426
93,1042534.0,811.798028,1.0,7.83,-3.15,7.16,-43.25,-2.0,-6.75,-24.44,-35.63,25.25,-0.8163459206350315,0.05550561977204027,-1.2308994773086417,-44.39495201253494,-14.373061379793723,-95.90673837953938,0.5386,-0.3778,-0.1251,-0.7426
94,1042571.0,811.8361070000001,1.0,7.87,-3.38,6.82,-44.5,-0.5,-6.75,-38.13,-39.19,26.62,-0.7683256579433532,0.06962911213783851,-1.1148209389389852,-46.43217889831124,-13.968904250085991,-94.12546914110418,0.5421,-0.3942,-0.1216,-0.7321
95,1042571.0,811.8361070000001,1.0,7.87,-3.38,6.82,-44.5,-0.5,-6.75,-38.13,-39.19,26.62,-0.7683256579433532,0.06962911213783851,-1.1148209389389852,-46.43217889831124,-13.968904250085991,-94.12546914110418,0.5421,-0.3942,-0.1216,-0.7321
96,1042606.0,811.845746,1.0,8.27,-4.12,6.48,-44.5,-0.5,-6.75,-40.44,-37.19,20.0,-1.3011389554032402,0.15164210863039496,-1.4023527250251977,-48.09577032776433,-13.461068017168213,-93.17087251757091,0.5408,-0.4075,-0.1172,-0.7264
97,1042606.0,811.845746,1.0,8.27,-4.12,6.48,-44.5,-0.5,-6.75,-40.44,-37.19,20.0,-1.3011389554032402,0.15164210863039496,-1.4023527250251977,-48.09577032776433,-13.461068017168213,-93.17087251757091,0.5408,-0.4075,-0.1172,-0.7264
98,1042642.0,811.899956,1.0,8.56,-4.21,6.25,-43.69,1.0,-5.56,-56.56,-46.19,23.56,-1.0075661290853883,0.2712065414588003,-1.5499101089145777,-50.681403847895496,-12.757459245108164,-91.48326004604112,0.5399,-0.428,-0.1111,-0.7162
99,1042642.0,811.899956,1.0,8.56,-4.21,6.25,-43.69,1.0,-5.56,-56.56,-46.19,23.56,-1.0075661290853883,0.2712065414588003,-1.5499101089145777,-50.681403847895496,-12.757459245108164,-91.48326004604112,0.5399,-0.428,-0.1111,-0.7162
100,1042677.0,811.959762,1.0,9.1,-4.49,5.56,-45.56,3.19,-2.69,-61.44,-49.5,26.69,-1.1910886012478583,0.8033612526040381,-1.6746225184010817,-52.87227083326433,-11.939110700430106,-90.3072214419173,0.5369,-0.4452,-0.10400000000000001,-0.7090000000000001
101,1042677.0,811.959762,1.0,9.1,-4.49,5.56,-45.56,3.19,-2.69,-61.44,-49.5,26.69,-1.1910886012478583,0.8033612526040381,-1.6746225184010817,-52.87227083326433,-11.939110700430106,-90.3072214419173,0.5369,-0.4452,-0.10400000000000001,-0.7090000000000001
102,1042710.0,812.0190240000001,1.0,8.23,-4.9,6.05,-45.56,3.19,-2.69,-62.06,-43.0,36.75,-0.6256849863805016,-0.414879723644177,-1.49741091246535,-55.95178287128961,-10.557352206642195,-88.46953482425532,0.5336,-0.4691,-0.092,-0.6976
103,1042710.0,812.0190240000001,1.0,8.23,-4.9,6.05,-45.56,3.19,-2.69,-62.06,-43.0,36.75,-0.6256849863805016,-0.414879723644177,-1.49741091246535,-55.95178287128961,-10.557352206642195,-88.46953482425532,0.5336,-0.4691,-0.092,-0.6976
104,1042747.0,812.026402,1.0,8.52,-5.86,6.51,-44.5,3.19,-3.19,-44.81,-35.25,46.5,-0.6987900809616117,-0.9688551904058048,-2.3540700462297193,-57.8546700143526,-9.53355259965066,-87.05458100062674,0.5337,-0.4837,-0.0831,-0.6887
105,1042747.0,812.026402,1.0,8.52,-5.86,6.51,-44.5,3.19,-3.19,-44.81,-35.25,46.5,-0.6987900809616117,-0.9688551904058048,-2.3540700462297193,-57.8546700143526,-9.53355259965066,-87.05458100062674,0.5337,-0.4837,-0.0831,-0.6887
106,1042784.0,812.0432,1.0,8.45,-6.91,7.31,-44.75,4.56,0.37,-68.81,-44.0,41.25,-0.35399427753545065,-2.0356959463289064,-3.1670668947673684,-60.609606145201504,-7.832701331508732,-85.1414848365832,0.5319,-0.5046,-0.0683,-0.6765
107,1042784.0,812.0432,1.0,8.45,-6.91,7.31,-44.75,4.56,0.37,-68.81,-44.0,41.25,-0.35399427753545065,-2.0356959463289064,-3.1670668947673684,-60.609606145201504,-7.832701331508732,-85.1414848365832,0.5319,-0.5046,-0.0683,-0.6765
108,1042819.0,812.0898139999999,1.0,8.33,-7.86,7.75,-44.75,4.56,0.37,-95.69,-44.94,58.31,-0.07563526288738598,-2.870066917919945,-3.720655540781927,-63.296099194215,-6.099150260471113,-83.30329159943979,0.5292,-0.5247,-0.0532,-0.6646
109,1042819.0,812.0898139999999,1.0,8.33,-7.86,7.75,-44.75,4.56,0.37,-95.69,-44.94,58.31,-0.07563526288738598,-2.870066917919945,-3.720655540781927,-63.296099194215,-6.099150260471113,-83.30329159943979,0.5292,-0.5247,-0.0532,-0.6646
110,1042853.0,812.106534,1.0,7.39,-7.77,7.53,-44.38,7.56,0.69,-111.81,-41.88,62.69,0.9203791873780724,-3.3422189190111413,-2.8293452061104105,-67.36633638987873,-2.9338644268256844,-80.63158949863124,0.5226,-0.5546,-0.0256,-0.647
111,1042853.0,812.106534,1.0,7.39,-7.77,7.53,-44.38,7.56,0.69,-111.81,-41.88,62.69,0.9203791873780724,-3.3422189190111413,-2.8293452061104105,-67.36633638987873,-2.9338644268256844,-80.63158949863124,0.5226,-0.5546,-0.0256,-0.647
112,1042888.0,812.144951,1.0,7.34,-8.92,7.39,-44.06,8.0,4.38,-127.75,-36.56,59.19,1.339044177742582,-3.8360455987084254,-3.290899956182012,-71.60598002322817,0.7448503787209418,-78.04123484742134,0.5112,-0.585,0.0065,-0.6296
113,1042888.0,812.144951,1.0,7.34,-8.92,7.39,-44.06,8.0,4.38,-127.75,-36.56,59.19,1.339044177742582,-3.8360455987084254,-3.290899956182012,-71.60598002322817,0.7448503787209418,-78.04123484742134,0.5112,-0.585,0.0065,-0.6296
114,1042925.0,812.160707,1.0,6.54,-7.73,6.02,-43.06,11.38,5.69,-163.75,-39.0,68.25,1.9171749274194436,-2.979523126000096,-1.4277517303684168,-75.28026949834307,4.011523869819651,-75.65699770780401,0.4996,-0.6107,0.035,-0.6133
115,1042925.0,812.160707,1.0,6.54,-7.73,6.02,-43.06,11.38,5.69,-163.75,-39.0,68.25,1.9171749274194436,-2.979523126000096,-1.4277517303684168,-75.28026949834307,4.011523869819651,-75.65699770780401,0.4996,-0.6107,0.035,-0.6133
116,1042960.0,812.203218,1.0,5.4,-7.32,5.03,-43.06,11.38,5.69,-159.06,-29.19,65.87,2.307573060246396,-2.9107584280860164,0.0986176584309142,-79.98689521343867,8.797813093528106,-72.68345997623392,0.4794,-0.6427,0.0767,-0.5926
117,1042960.0,812.203218,1.0,5.4,-7.32,5.03,-43.06,11.38,5.69,-159.06,-29.19,65.87,2.307573060246396,-2.9107584280860164,0.0986176584309142,-79.98689521343867,8.797813093528106,-72.68345997623392,0.4794,-0.6427,0.0767,-0.5926
118,1042997.0,812.262622,1.0,4.98,-6.93,3.83,-43.38,11.0,8.75,-168.56,-16.81,58.75,2.158959110653654,-2.308213944392732,1.0029437381216226,-83.24196162167489,12.423127669242316,-70.57786992125247,0.4619,-0.6642,0.1082,-0.5777
119,1042997.0,812.262622,1.0,4.98,-6.93,3.83,-43.38,11.0,8.75,-168.56,-16.81,58.75,2.158959110653654,-2.308213944392732,1.0029437381216226,-83.24196162167489,12.423127669242316,-70.57786992125247,0.4619,-0.6642,0.1082,-0.5777
120,1043034.0,812.269825,1.0,4.87,-6.57,2.68,-42.25,9.38,11.69,-176.06,-11.0,51.13,2.2092289199332567,-1.5620313616219377,1.6369764689070916,-87.2602177357086,17.462507245696994,-68.0148037838229,0.4337,-0.69,0.1518,-0.5593
121,1043034.0,812.269825,1.0,4.87,-6.57,2.68,-42.25,9.38,11.69,-176.06,-11.0,51.13,2.2092289199332567,-1.5620313616219377,1.6369764689070916,-87.2602177357086,17.462507245696994,-68.0148037838229,0.4337,-0.69,0.1518,-0.5593
122,1043066.0,812.323868,1.0,4.0,-6.1,1.72,-42.25,9.38,11.69,-161.19,-4.56,54.44,1.7867829255806855,-1.4455933852831668,2.673202969196528,-89.98269667432403,21.170698001897183,-66.06299509195857,0.4115,-0.7070000000000001,0.1837,-0.5451
123,1043066.0,812.323868,1.0,4.0,-6.1,1.72,-42.25,9.38,11.69,-161.19,-4.56,54.44,1.7867829255806855,-1.4455933852831668,2.673202969196528,-89.98269667432403,21.170698001897183,-66.06299509195857,0.4115,-0.7070000000000001,0.1837,-0.5451
124,1043101.0,812.380229,1.0,3.68,-6.04,0.96,-42.56,11.0,14.69,-159.63,9.06,55.69,1.687931687065737,-1.2625206525747852,2.9873737758233063,-92.73822662555115,26.09985097880343,-63.673390007198286,0.3833,-0.7238,0.2258,-0.5275
125,1043101.0,812.380229,1.0,3.68,-6.04,0.96,-42.56,11.0,14.69,-159.63,9.06,55.69,1.687931687065737,-1.2625206525747852,2.9873737758233063,-92.73822662555115,26.09985097880343,-63.673390007198286,0.3833,-0.7238,0.2258,-0.5275
126,1043136.0,812.439131,1.0,2.91,-5.17,-0.16,-43.25,9.06,15.0,-159.44,23.94,46.13,0.8614587247655576,-0.9319283096261292,4.009064425707655,-94.37809988831016,29.89098396291072,-62.182157850572864,0.3586,-0.7336,0.2579,-0.5164
127,1043136.0,812.439131,1.0,2.91,-5.17,-0.16,-43.25,9.06,15.0,-159.44,23.94,46.13,0.8614587247655576,-0.9319283096261292,4.009064425707655,-94.37809988831016,29.89098396291072,-62.182157850572864,0.3586,-0.7336,0.2579,-0.5164
128,1043175.0,812.448211,1.0,3.01,-4.79,-0.7,-44.75,6.5,17.06,-157.69,37.5,39.88,0.8428343496923905,-0.4931565857627835,4.190545759434534,-95.90673837953938,34.795101425948374,-60.64942873214444,0.3228,-0.7426,0.299,-0.5049
129,1043175.0,812.448211,1.0,3.01,-4.79,-0.7,-44.75,6.5,17.06,-157.69,37.5,39.88,0.8428343496923905,-0.4931565857627835,4.190545759434534,-95.90673837953938,34.795101425948374,-60.64942873214444,0.3228,-0.7426,0.299,-0.5049
130,1043208.0,812.465674,1.0,3.63,-4.11,-1.9,-44.75,6.5,17.06,-124.5,47.88,50.94,0.08702789169900099,0.6098572353531764,4.036078078729648,-95.97520098011694,39.558846745858816,-59.68268779789295,0.2932,-0.743,0.3384,-0.4976
131,1043208.0,812.465674,1.0,3.63,-4.11,-1.9,-44.75,6.5,17.06,-124.5,47.88,50.94,0.08702789169900099,0.6098572353531764,4.036078078729648,-95.97520098011694,39.558846745858816,-59.68268779789295,0.2932,-0.743,0.3384,-0.4976
132,1043247.0,812.547913,1.0,3.78,-5.77,-1.7,-46.56,7.0,15.25,-95.37,64.19,52.94,0.8386262013404545,-0.19972421822598815,2.754833472956822,-95.00384413179769,42.802857328099094,-59.56382572725951,0.2767,-0.7373,0.3649,-0.4967
133,1043247.0,812.547913,1.0,3.78,-5.77,-1.7,-46.56,7.0,15.25,-95.37,64.19,52.94,0.8386262013404545,-0.19972421822598815,2.754833472956822,-95.00384413179769,42.802857328099094,-59.56382572725951,0.2767,-0.7373,0.3649,-0.4967
134,1043281.0,812.644532,1.0,4.05,-5.63,-1.9,-48.06,7.5,14.25,-97.62,67.94,48.81,0.8741194958521861,0.1964405148279802,2.671755030127965,-93.5048551721208,47.093849573149654,-59.511020790239144,0.252,-0.7284,0.3995,-0.4963
135,1043281.0,812.644532,1.0,4.05,-5.63,-1.9,-48.06,7.5,14.25,-97.62,67.94,48.81,0.8741194958521861,0.1964405148279802,2.671755030127965,-93.5048551721208,47.093849573149654,-59.511020790239144,0.252,-0.7284,0.3995,-0.4963
136,1043316.0,812.704659,1.0,4.05,-5.22,-2.25,-48.06,7.5,14.25,-82.31,76.56,49.38,0.4997981550072148,0.4534874791703678,2.859855709790516,-92.02642985732345,50.200073046372225,-59.68268779789295,0.23399999999999999,-0.7195,0.4242,-0.4976
137,1043316.0,812.704659,1.0,4.05,-5.22,-2.25,-48.06,7.5,14.25,-82.31,76.56,49.38,0.4997981550072148,0.4534874791703678,2.859855709790516,-92.02642985732345,50.200073046372225,-59.68268779789295,0.23399999999999999,-0.7195,0.4242,-0.4976
138,1043351.0,812.7170169999999,1.0,4.58,-5.99,-2.42,-50.75,7.69,14.06,-71.0,81.31,50.5,0.7484136405138305,0.5638506264323668,1.9431361865852452,-89.48149018225166,54.117000476338404,-60.304567590109755,0.2129,-0.7039,0.4549,-0.5023
139,1043351.0,812.7170169999999,1.0,4.58,-5.99,-2.42,-50.75,7.69,14.06,-71.0,81.31,50.5,0.7484136405138305,0.5638506264323668,1.9431361865852452,-89.48149018225166,54.117000476338404,-60.304567590109755,0.2129,-0.7039,0.4549,-0.5023
140,1043386.0,812.725068,1.0,5.2,-5.54,-2.53,-53.75,11.75,12.06,-58.13,92.69,55.38,0.44154926759032814,1.352194955835241,1.925717120847672,-87.18108511627749,57.07058565644391,-60.9683017245208,0.1976,-0.6895,0.4777,-0.5073
141,1043386.0,812.725068,1.0,5.2,-5.54,-2.53,-53.75,11.75,12.06,-58.13,92.69,55.38,0.44154926759032814,1.352194955835241,1.925717120847672,-87.18108511627749,57.07058565644391,-60.9683017245208,0.1976,-0.6895,0.4777,-0.5073
142,1043423.0,812.728041,1.0,6.04,-6.81,-2.42,-56.06,14.56,10.56,-64.12,77.56,32.13,1.0088243032126538,1.5652607499315632,0.5737559623771684,-84.304040393457,60.238317330964705,-62.075136514972755,0.1788,-0.6711,0.5018,-0.5156
143,1043423.0,812.728041,1.0,6.04,-6.81,-2.42,-56.06,14.56,10.56,-64.12,77.56,32.13,1.0088243032126538,1.5652607499315632,0.5737559623771684,-84.304040393457,60.238317330964705,-62.075136514972755,0.1788,-0.6711,0.5018,-0.5156
144,1043458.0,812.76762,1.0,5.91,-5.32,-3.46,-56.06,14.56,10.56,-70.81,65.69,23.62,-0.6034472542329998,1.7389824554381417,1.332342274230479,-82.88987813746495,62.44997546195721,-62.235691121359,0.161,-0.6619,0.5184,-0.5168
145,1043458.0,812.76762,1.0,5.91,-5.32,-3.46,-56.06,14.56,10.56,-70.81,65.69,23.62,-0.6034472542329998,1.7389824554381417,1.332342274230479,-82.88987813746495,62.44997546195721,-62.235691121359,0.161,-0.6619,0.5184,-0.5168
146,1043494.0,812.783142,1.0,5.07,-5.48,-3.06,-58.06,18.19,8.19,-33.19,67.87,32.13,-0.14408758923201898,1.0526568739579871,1.8085219519916205,-80.73683070850339,65.02722926644273,-62.74501384121864,0.1432,-0.6477,0.5375,-0.5206
147,1043494.0,812.783142,1.0,5.07,-5.48,-3.06,-58.06,18.19,8.19,-33.19,67.87,32.13,-0.14408758923201898,1.0526568739579871,1.8085219519916205,-80.73683070850339,65.02722926644273,-62.74501384121864,0.1432,-0.6477,0.5375,-0.5206
148,1043529.0,812.787044,1.0,6.06,-6.63,-2.81,-58.75,21.5,6.56,-30.56,74.94,15.25,0.44369280906879854,1.4770610929733454,0.5223607316281349,-78.92899912643803,66.35026504226904,-63.781328955958536,0.1318,-0.6356,0.5472,-0.5283
149,1043529.0,812.787044,1.0,6.06,-6.63,-2.81,-58.75,21.5,6.56,-30.56,74.94,15.25,0.44369280906879854,1.4770610929733454,0.5223607316281349,-78.92899912643803,66.35026504226904,-63.781328955958536,0.1318,-0.6356,0.5472,-0.5283
150,1043564.0,812.83917,1.0,5.96,-5.51,-3.95,-58.75,21.5,6.56,-41.13,61.94,5.0,-1.1103864773605647,1.1157723444937138,0.9181015276026194,-77.26165547882309,67.87662551738967,-64.67425982878002,0.1113,-0.6243,0.5583,-0.5349
151,1043564.0,812.83917,1.0,5.96,-5.51,-3.95,-58.75,21.5,6.56,-41.13,61.94,5.0,-1.1103864773605647,1.1157723444937138,0.9181015276026194,-77.26165547882309,67.87662551738967,-64.67425982878002,0.1113,-0.6243,0.5583,-0.5349
152,1043599.0,812.880625,1.0,5.21,-5.35,-3.22,-60.38,24.25,6.19,-20.12,59.69,3.06,-0.5189540854597336,0.7281963615339424,1.7236173564785469,-75.70052817172606,68.92962456147485,-65.69433435122963,0.0951,-0.6136,0.5659,-0.5424
153,1043599.0,812.880625,1.0,5.21,-5.35,-3.22,-60.38,24.25,6.19,-20.12,59.69,3.06,-0.5189540854597336,0.7281963615339424,1.7236173564785469,-75.70052817172606,68.92962456147485,-65.69433435122963,0.0951,-0.6136,0.5659,-0.5424
154,1043636.0,812.936383,1.0,6.36,-5.1,-3.32,-61.56,26.19,6.5,-26.0,75.75,-21.31,-1.0323285904004855,1.4336353209766142,1.183368290123532,-74.73137747245855,69.26352892437745,-66.74774731388283,0.0785,-0.6069,0.5683,-0.5501
155,1043636.0,812.936383,1.0,6.36,-5.1,-3.32,-61.56,26.19,6.5,-26.0,75.75,-21.31,-1.0323285904004855,1.4336353209766142,1.183368290123532,-74.73137747245855,69.26352892437745,-66.74774731388283,0.0785,-0.6069,0.5683,-0.5501
156,1043673.0,813.03656,1.0,7.57,-5.62,-3.31,-61.56,26.19,6.5,2.25,84.81,-3.44,-1.2189242977254744,1.8039400104182328,0.054449017902330255,-72.7688405556102,69.47256064706727,-68.8879335180276,0.0601,-0.5932,0.5698,-0.5656
157,1043673.0,813.03656,1.0,7.57,-5.62,-3.31,-61.56,26.19,6.5,2.25,84.81,-3.44,-1.2189242977254744,1.8039400104182328,0.054449017902330255,-72.7688405556102,69.47256064706727,-68.8879335180276,0.0601,-0.5932,0.5698,-0.5656
158,1043705.0,813.075873,1.0,6.98,-5.79,-1.63,-63.56,28.19,7.56,-8.25,51.94,-49.38,0.2448045108340039,2.0249497995144434,0.8210476795697357,-72.12962086079537,69.04085162488089,-70.12924881260771,0.0477,-0.5887,0.5667,-0.5745
159,1043705.0,813.075873,1.0,6.98,-5.79,-1.63,-63.56,28.19,7.56,-8.25,51.94,-49.38,0.2448045108340039,2.0249497995144434,0.8210476795697357,-72.12962086079537,69.04085162488089,-70.12924881260771,0.0477,-0.5887,0.5667,-0.5745
160,1043742.0,813.0932349999999,1.0,8.47,-6.44,-2.0,-64.06,30.19,7.75,-26.69,67.19,-83.44,0.1472655308385622,2.0097048566890003,-0.8307321616235779,-72.48442031771656,67.53166897221763,-71.49298753090414,0.0163,-0.5912,0.5558,-0.5842
161,1043742.0,813.0932349999999,1.0,8.47,-6.44,-2.0,-64.06,30.19,7.75,-26.69,67.19,-83.44,0.1472655308385622,2.0097048566890003,-0.8307321616235779,-72.48442031771656,67.53166897221763,-71.49298753090414,0.0163,-0.5912,0.5558,-0.5842
162,1043777.0,813.0982690000001,1.0,9.02,-5.23,-2.66,-64.69,28.19,11.19,-13.25,37.56,-47.69,-1.145348222124715,2.070663713427,-0.6904652816367864,-72.56969194535513,66.73402593846353,-72.21469959987994,-0.0008,-0.5918,0.55,-0.5893
163,1043777.0,813.0982690000001,1.0,9.02,-5.23,-2.66,-64.69,28.19,11.19,-13.25,37.56,-47.69,-1.145348222124715,2.070663713427,-0.6904652816367864,-72.56969194535513,66.73402593846353,-72.21469959987994,-0.0008,-0.5918,0.55,-0.5893
164,1043812.0,813.214304,1.0,7.94,-4.88,-2.03,-64.69,28.19,11.19,-16.44,50.25,-74.75,-0.40522045122471184,1.4627774324177691,0.38991072522348347,-73.11083313213125,65.21757686713724,-73.03952240082316,-0.0247,-0.5956,0.5389,-0.5951
165,1043812.0,813.214304,1.0,7.94,-4.88,-2.03,-64.69,28.19,11.19,-16.44,50.25,-74.75,-0.40522045122471184,1.4627774324177691,0.38991072522348347,-73.11083313213125,65.21757686713724,-73.03952240082316,-0.0247,-0.5956,0.5389,-0.5951
166,1043849.0,813.224186,1.0,8.9,-4.99,-2.28,-65.25,24.19,15.0,-18.62,54.38,-73.12,-0.5704541280888883,1.3700308594214787,-0.5425575799057789,-73.49648178219452,63.83532215478704,-73.76844586798647,-0.0474,-0.5983,0.5287,-0.6002
167,1043849.0,813.224186,1.0,8.9,-4.99,-2.28,-65.25,24.19,15.0,-18.62,54.38,-73.12,-0.5704541280888883,1.3700308594214787,-0.5425575799057789,-73.49648178219452,63.83532215478704,-73.76844586798647,-0.0474,-0.5983,0.5287,-0.6002
168,1043886.0,813.231242,1.0,8.13,-4.27,-0.88,-67.19,17.56,15.25,-29.25,60.75,-59.25,0.2297500588611741,1.7970607637797182,0.7610992969340541,-73.49648178219452,62.62426048552695,-74.55846036977005,-0.07200000000000001,-0.5983,0.5197,-0.6057
169,1043886.0,813.231242,1.0,8.13,-4.27,-0.88,-67.19,17.56,15.25,-29.25,60.75,-59.25,0.2297500588611741,1.7970607637797182,0.7610992969340541,-73.49648178219452,62.62426048552695,-74.55846036977005,-0.07200000000000001,-0.5983,0.5197,-0.6057
170,1043920.0,813.234558,1.0,9.71,-4.97,-1.93,-67.19,17.56,15.25,-40.81,128.63,-87.56,-0.31250581688375423,0.8976302417770907,-1.2299482106562645,-72.42759839996175,61.31433804552232,-76.1656564719778,-0.1022,-0.5908,0.5099,-0.6168
171,1043920.0,813.234558,1.0,9.71,-4.97,-1.93,-67.19,17.56,15.25,-40.81,128.63,-87.56,-0.31250581688375423,0.8976302417770907,-1.2299482106562645,-72.42759839996175,61.31433804552232,-76.1656564719778,-0.1022,-0.5908,0.5099,-0.6168
172,1043955.0,813.315463,1.0,9.38,-4.79,-0.85,-71.56,12.06,17.06,-26.75,74.62,-55.5,0.398065045016242,0.9086604683301668,-0.7131827160288182,-70.81670578777461,59.99999999999999,-77.86435168062559,-0.1396,-0.5794,0.5,-0.6284
173,1043955.0,813.315463,1.0,9.38,-4.79,-0.85,-71.56,12.06,17.06,-26.75,74.62,-55.5,0.398065045016242,0.9086604683301668,-0.7131827160288182,-70.81670578777461,59.99999999999999,-77.86435168062559,-0.1396,-0.5794,0.5,-0.6284
174,1043990.0,813.424333,1.0,7.68,-3.42,-0.53,-78.5,6.56,14.75,-44.31,128.94,-69.81,0.09577162926306282,0.42494113236340597,1.3941620904066667,-68.37459501300991,58.65487400856189,-79.6731491009361,-0.1843,-0.5619,0.4898,-0.6406
175,1043990.0,813.424333,1.0,7.68,-3.42,-0.53,-78.5,6.56,14.75,-44.31,128.94,-69.81,0.09577162926306282,0.42494113236340597,1.3941620904066667,-68.37459501300991,58.65487400856189,-79.6731491009361,-0.1843,-0.5619,0.4898,-0.6406
176,1044027.0,813.476088,1.0,9.15,-3.83,-1.2,-84.0,4.75,7.38,-9.5,151.56,-78.69,-0.3909642299707592,-0.7041970385383785,-0.15239882515379402,-65.70797477306883,56.70567847737765,-82.11255362771533,-0.2208,-0.5425,0.4749,-0.6568
177,1044027.0,813.476088,1.0,9.15,-3.83,-1.2,-84.0,4.75,7.38,-9.5,151.56,-78.69,-0.3909642299707592,-0.7041970385383785,-0.15239882515379402,-65.70797477306883,56.70567847737765,-82.11255362771533,-0.2208,-0.5425,0.4749,-0.6568
178,1044062.0,813.586982,1.0,11.1,-4.1,0.57,-84.0,4.75,7.38,-40.69,62.88,-87.44,0.4096854447423304,0.377693100890546,-2.026963385517796,-64.64713688163303,54.8516623694969,-82.55399419971695,-0.2581,-0.5347,0.4606,-0.6597
179,1044062.0,813.586982,1.0,11.1,-4.1,0.57,-84.0,4.75,7.38,-40.69,62.88,-87.44,0.4096854447423304,0.377693100890546,-2.026963385517796,-64.64713688163303,54.8516623694969,-82.55399419971695,-0.2581,-0.5347,0.4606,-0.6597
180,1044097.0,813.5971509999999,1.0,10.27,-1.83,0.64,-91.37,1.37,-1.0,-5.56,40.81,-35.94,-1.1395428365771416,0.9412398750057204,-0.5396976464550001,-63.605960216714145,54.219965017577714,-82.78291189155357,-0.2782,-0.527,0.4557,-0.6612
181,1044097.0,813.5971509999999,1.0,10.27,-1.83,0.64,-91.37,1.37,-1.0,-5.56,40.81,-35.94,-1.1395428365771416,0.9412398750057204,-0.5396976464550001,-63.605960216714145,54.219965017577714,-82.78291189155357,-0.2782,-0.527,0.4557,-0.6612
182,1044133.0,813.5999099999999,1.0,11.26,-3.57,1.79,-93.25,0.69,-6.88,10.63,106.0,113.44,-0.04614990541989017,0.929424932387494,-2.1042962042814306,-60.49018686629133,53.88550274467078,-85.82802462250922,-0.2781,-0.5037,0.4531,-0.6809
183,1044133.0,813.5999099999999,1.0,11.26,-3.57,1.79,-93.25,0.69,-6.88,10.63,106.0,113.44,-0.04614990541989017,0.929424932387494,-2.1042962042814306,-60.49018686629133,53.88550274467078,-85.82802462250922,-0.2781,-0.5037,0.4531,-0.6809
184,1044170.0,813.602889,1.0,12.79,-6.29,3.15,-93.25,0.69,-6.88,-20.31,116.69,193.31,0.7534628525607947,0.9379332497606708,-4.7406272348919085,-55.08416774837189,55.61468548324709,-90.04752800047241,-0.2611,-0.4624,0.4665,-0.7074
185,1044170.0,813.602889,1.0,12.79,-6.29,3.15,-93.25,0.69,-6.88,-20.31,116.69,193.31,0.7534628525607947,0.9379332497606708,-4.7406272348919085,-55.08416774837189,55.61468548324709,-90.04752800047241,-0.2611,-0.4624,0.4665,-0.7074
186,1044205.0,813.650309,1.0,8.39,-6.82,4.38,-90.87,5.06,-12.19,-75.75,123.81,242.69,1.7160336697507157,1.9187819962343744,-1.5715046876112044,-46.43217889831124,60.71581770752129,-93.75602271423008,-0.2376,-0.3942,0.5054,-0.7299
187,1044205.0,813.650309,1.0,8.39,-6.82,4.38,-90.87,5.06,-12.19,-75.75,123.81,242.69,1.7160336697507157,1.9187819962343744,-1.5715046876112044,-46.43217889831124,60.71581770752129,-93.75602271423008,-0.2376,-0.3942,0.5054,-0.7299
188,1044240.0,813.7024769999999,1.0,7.53,-7.9,4.59,-79.87,19.0,-22.19,-44.25,153.06,215.0,0.9735781214567508,1.7325687055797476,-1.8650830042229118,-36.56470362370221,64.53868567478604,-98.12066633896302,-0.2144,-0.3137,0.5339,-0.7554
189,1044240.0,813.7024769999999,1.0,7.53,-7.9,4.59,-79.87,19.0,-22.19,-44.25,153.06,215.0,0.9735781214567508,1.7325687055797476,-1.8650830042229118,-36.56470362370221,64.53868567478604,-98.12066633896302,-0.2144,-0.3137,0.5339,-0.7554
190,1044277.0,813.759516,1.0,6.32,-8.56,4.98,-58.38,34.0,-33.88,-25.06,135.94,109.62,1.2849368775121743,1.7179447367645784,-1.7438479590592628,-30.92409351880312,65.63978314161311,-100.474586173471,-0.2103,-0.2666,0.542,-0.7687
191,1044277.0,813.759516,1.0,6.32,-8.56,4.98,-58.38,34.0,-33.88,-25.06,135.94,109.62,1.2849368775121743,1.7179447367645784,-1.7438479590592628,-30.92409351880312,65.63978314161311,-100.474586173471,-0.2103,-0.2666,0.542,-0.7687
192,1044312.0,813.7762799999999,1.0,6.19,-9.57,5.53,-58.38,34.0,-33.88,-31.06,117.12,45.69,1.2033822373566676,1.658690131932481,-2.6946506618129256,-25.735333308776628,66.06299509195857,-102.13740297255077,-0.2194,-0.2227,0.5451,-0.7779
193,1044312.0,813.7762799999999,1.0,6.19,-9.57,5.53,-58.38,34.0,-33.88,-31.06,117.12,45.69,1.2033822373566676,1.658690131932481,-2.6946506618129256,-25.735333308776628,66.06299509195857,-102.13740297255077,-0.2194,-0.2227,0.5451,-0.7779
194,1044348.0,813.779219,1.0,4.37,-10.75,5.64,-41.38,40.25,-44.56,-44.63,113.56,31.81,2.877673072065317,1.5371371600529748,-2.676346717194731,-22.39598723123728,66.44612628524789,-102.52115080428871,-0.2316,-0.1942,0.5479,-0.78
195,1044348.0,813.779219,1.0,4.37,-10.75,5.64,-41.38,40.25,-44.56,-44.63,113.56,31.81,2.877673072065317,1.5371371600529748,-2.676346717194731,-22.39598723123728,66.44612628524789,-102.52115080428871,-0.2316,-0.1942,0.5479,-0.78
196,1044385.0,813.791245,1.0,3.13,-9.72,5.31,-28.69,39.25,-49.38,-74.25,109.62,16.5,2.674678263608925,1.862574498702516,-1.2318423075101617,-17.891591511712036,67.71095944217275,-101.882452736899,-0.2501,-0.1555,0.5571,-0.7765
197,1044385.0,813.791245,1.0,3.13,-9.72,5.31,-28.69,39.25,-49.38,-74.25,109.62,16.5,2.674678263608925,1.862574498702516,-1.2318423075101617,-17.891591511712036,67.71095944217275,-101.882452736899,-0.2501,-0.1555,0.5571,-0.7765
198,1044422.0,813.825079,1.0,3.54,-8.57,4.32,-28.69,39.25,-49.38,-85.12,88.06,-17.81,1.4432087809841214,1.285866751364093,-0.2383783778706512,-15.054764601110485,68.98522882076507,-100.43876117788851,-0.2674,-0.131,0.5663,-0.7685
199,1044422.0,813.825079,1.0,3.54,-8.57,4.32,-28.69,39.25,-49.38,-85.12,88.06,-17.81,1.4432087809841214,1.285866751364093,-0.2383783778706512,-15.054764601110485,68.98522882076507,-100.43876117788851,-0.2674,-0.131,0.5663,-0.7685
200,1044455.0,813.8424610000001,1.0,3.9,-7.96,3.45,-18.87,38.88,-51.19,-85.25,51.0,-43.0,0.8245740224336653,0.7925324845038264,0.3638712806539939,-12.976563032466052,70.91515282684179,-97.49308186392095,-0.2923,-0.113,0.5801,-0.7518
201,1044455.0,813.8424610000001,1.0,3.9,-7.96,3.45,-18.87,38.88,-51.19,-85.25,51.0,-43.0,0.8245740224336653,0.7925324845038264,0.3638712806539939,-12.976563032466052,70.91515282684179,-97.49308186392095,-0.2923,-0.113,0.5801,-0.7518
202,1044492.0,813.845624,1.0,2.6,-6.19,2.51,-11.56,40.38,-50.5,-94.56,37.31,-54.75,1.0418427957745964,0.9440229556806194,2.7781662198351342,-11.962154211464537,73.35353629089147,-93.67223499425869,-0.3169,-0.1042,0.5973,-0.7294
203,1044492.0,813.845624,1.0,2.6,-6.19,2.51,-11.56,40.38,-50.5,-94.56,37.31,-54.75,1.0418427957745964,0.9440229556806194,2.7781662198351342,-11.962154211464537,73.35353629089147,-93.67223499425869,-0.3169,-0.1042,0.5973,-0.7294
204,1044529.0,813.848682,1.0,4.38,-6.07,1.81,-9.56,41.38,-48.19,-94.25,27.31,-54.94,-0.1734755222663541,-0.06526030289693363,2.1078807908315467,-11.397725602729444,75.12117195535056,-90.77943113369116,-0.3342,-0.0993,0.6096,-0.7119
205,1044529.0,813.848682,1.0,4.38,-6.07,1.81,-9.56,41.38,-48.19,-94.25,27.31,-54.94,-0.1734755222663541,-0.06526030289693363,2.1078807908315467,-11.397725602729444,75.12117195535056,-90.77943113369116,-0.3342,-0.0993,0.6096,-0.7119
206,1044561.0,813.890444,1.0,3.86,-4.99,1.03,-9.56,41.38,-48.19,-92.94,13.56,-61.13,-0.10294356197972276,-0.25378690881127497,3.4202899390605186,-11.121372822035768,77.76127164487418,-86.66010715009037,-0.3546,-0.0969,0.6277,-0.6862
207,1044561.0,813.890444,1.0,3.86,-4.99,1.03,-9.56,41.38,-48.19,-92.94,13.56,-61.13,-0.10294356197972276,-0.25378690881127497,3.4202899390605186,-11.121372822035768,77.76127164487418,-86.66010715009037,-0.3546,-0.0969,0.6277,-0.6862
208,1044598.0,813.907907,1.0,6.19,-5.35,0.82,-8.38,43.69,-45.25,-87.44,11.31,-58.69,-1.3711490130557134,-1.0400751875067142,1.7661777509135526,-11.086833319532733,79.52399794108469,-83.70265109878629,-0.3692,-0.0966,0.6396,-0.6672
209,1044598.0,813.907907,1.0,6.19,-5.35,0.82,-8.38,43.69,-45.25,-87.44,11.31,-58.69,-1.3711490130557134,-1.0400751875067142,1.7661777509135526,-11.086833319532733,79.52399794108469,-83.70265109878629,-0.3692,-0.0966,0.6396,-0.6672
210,1044635.0,813.911127,1.0,6.73,-3.52,0.26,-9.0,44.75,-41.56,-97.44,-12.19,-35.13,-2.5965789946248217,-1.6303235534814615,2.8531816110852475,-10.8450849117299,82.67603357506403,-79.56872631159283,-0.3812,-0.0945,0.6605,-0.6399
211,1044635.0,813.911127,1.0,6.73,-3.52,0.26,-9.0,44.75,-41.56,-97.44,-12.19,-35.13,-2.5965789946248217,-1.6303235534814615,2.8531816110852475,-10.8450849117299,82.67603357506403,-79.56872631159283,-0.3812,-0.0945,0.6605,-0.6399
212,1044670.0,813.946697,1.0,5.87,-3.24,-0.17,-9.0,44.75,-41.56,-63.69,-0.44,-36.06,-1.957299559874288,-1.5875184141159409,3.5911722454135724,-10.764512919793646,84.52062093689318,-77.12969565730245,-0.3878,-0.0938,0.6725,-0.6234
213,1044670.0,813.946697,1.0,5.87,-3.24,-0.17,-9.0,44.75,-41.56,-63.69,-0.44,-36.06,-1.957299559874288,-1.5875184141159409,3.5911722454135724,-10.764512919793646,84.52062093689318,-77.12969565730245,-0.3878,-0.0938,0.6725,-0.6234
214,1044705.0,813.9532429999999,1.0,8.35,-4.06,-0.49,-9.88,47.69,-36.88,-41.63,11.25,-8.56,-2.9075880875903564,-2.457923076386149,1.3242714619087457,-10.52282880334764,85.7654543452423,-75.09226338481456,-0.3964,-0.0917,0.6805,-0.6094
215,1044705.0,813.9532429999999,1.0,8.35,-4.06,-0.49,-9.88,47.69,-36.88,-41.63,11.25,-8.56,-2.9075880875903564,-2.457923076386149,1.3242714619087457,-10.52282880334764,85.7654543452423,-75.09226338481456,-0.3964,-0.0917,0.6805,-0.6094
216,1044740.0,814.093559,1.0,9.07,-1.01,-1.13,-10.88,49.5,-35.75,-47.69,-2.88,33.06,-5.052242658600108,-4.04326644179295,3.272987887578487,-9.22311622194562,87.18108511627749,-74.14139436333637,-0.3933,-0.0804,0.6895,-0.6028
217,1044740.0,814.093559,1.0,9.07,-1.01,-1.13,-10.88,49.5,-35.75,-47.69,-2.88,33.06,-5.052242658600108,-4.04326644179295,3.272987887578487,-9.22311622194562,87.18108511627749,-74.14139436333637,-0.3933,-0.0804,0.6895,-0.6028
218,1044776.0,814.154883,1.0,7.32,-6.98,0.57,-10.19,50.5,-33.69,11.69,-23.75,2.31,-1.235846481982438,-0.31951985596775145,-0.2431405716792909,-9.188627520029687,87.46620685664602,-74.40012733902506,-0.3874,-0.0801,0.6913,-0.6046
219,1044776.0,814.154883,1.0,7.32,-6.98,0.57,-10.19,50.5,-33.69,11.69,-23.75,2.31,-1.235846481982438,-0.31951985596775145,-0.2431405716792909,-9.188627520029687,87.46620685664602,-74.40012733902506,-0.3874,-0.0801,0.6913,-0.6046
220,1044811.0,814.171029,1.0,6.16,-7.46,0.73,-10.19,50.5,-33.69,-6.69,-15.06,14.69,-0.3187311218260896,0.4159028540083134,0.11874334850881317,-9.303593121383253,87.95884845875601,-74.41451438386142,-0.3815,-0.0811,0.6944,-0.6047
221,1044811.0,814.171029,1.0,6.16,-7.46,0.73,-10.19,50.5,-33.69,-6.69,-15.06,14.69,-0.3187311218260896,0.4159028540083134,0.11874334850881317,-9.303593121383253,87.95884845875601,-74.41451438386142,-0.3815,-0.0811,0.6944,-0.6047
222,1044848.0,814.1741,1.0,6.81,-7.32,0.15,-11.06,51.56,-33.25,-11.81,5.06,25.94,-0.7489054179086088,-0.3905052319552613,-0.156665027582072,-8.510515201802361,88.37361278323944,-74.42890280024764,-0.3781,-0.0742,0.6970000000000001,-0.6048
223,1044848.0,814.1741,1.0,6.81,-7.32,0.15,-11.06,51.56,-33.25,-11.81,5.06,25.94,-0.7489054179086088,-0.3905052319552613,-0.156665027582072,-8.510515201802361,88.37361278323944,-74.42890280024764,-0.3781,-0.0742,0.6970000000000001,-0.6048
224,1044885.0,814.21102,1.0,6.66,-7.46,0.17,-10.06,51.75,-33.38,-12.06,-13.0,5.5,-0.678509403480386,-0.243614879964559,-0.1691395316435269,-8.200293609338797,88.88610446361312,-74.2563321899432,-0.3745,-0.0715,0.7002,-0.6036
225,1044885.0,814.21102,1.0,6.66,-7.46,0.17,-10.06,51.75,-33.38,-12.06,-13.0,5.5,-0.678509403480386,-0.243614879964559,-0.1691395316435269,-8.200293609338797,88.88610446361312,-74.2563321899432,-0.3745,-0.0715,0.7002,-0.6036
226,1044920.0,814.2152769999999,1.0,5.53,-7.31,0.22,-10.06,51.75,-33.38,-12.19,-22.81,14.25,-0.06891096066523973,0.2283821197812772,0.6410352968355468,-8.211782210366408,89.51376040615051,-74.05524812454561,-0.3695,-0.0716,0.7041,-0.6022
227,1044920.0,814.2152769999999,1.0,5.53,-7.31,0.22,-10.06,51.75,-33.38,-12.19,-22.81,14.25,-0.06891096066523973,0.2283821197812772,0.6410352968355468,-8.211782210366408,89.51376040615051,-74.05524812454561,-0.3695,-0.0716,0.7041,-0.6022
228,1044953.0,814.232563,1.0,4.64,-7.56,0.03,-10.38,51.5,-33.0,-8.44,-9.19,8.5,0.6936771187323381,0.4851405969736833,0.9767264071190702,-8.073924421552888,90.12861881978974,-73.84009584056888,-0.3647,-0.0704,0.7079,-0.6007
229,1044953.0,814.232563,1.0,4.64,-7.56,0.03,-10.38,51.5,-33.0,-8.44,-9.19,8.5,0.6936771187323381,0.4851405969736833,0.9767264071190702,-8.073924421552888,90.12861881978974,-73.84009584056888,-0.3647,-0.0704,0.7079,-0.6007
230,1044989.0,814.235479,1.0,5.89,-7.51,0.04,-10.19,52.56,-30.56,-7.13,6.06,6.88,-0.2644877343630571,0.05485657829398472,0.26616589309067784,-7.844187348567063,90.20976719290563,-73.76844586798647,-0.365,-0.0684,0.7084,-0.6002
231,1044989.0,814.235479,1.0,5.89,-7.51,0.04,-10.19,52.56,-30.56,-7.13,6.06,6.88,-0.2644877343630571,0.05485657829398472,0.26616589309067784,-7.844187348567063,90.20976719290563,-73.76844586798647,-0.365,-0.0684,0.7084,-0.6002
232,1045026.0,814.274464,1.0,6.43,-7.48,-0.07,-9.75,51.5,-31.37,-7.25,-5.31,9.75,-0.6867656673020628,-0.231432244126339,-0.03077812093657961,-7.5111244261256385,90.45355927355087,-73.68251024872158,-0.3636,-0.0655,0.7099,-0.5996
233,1045026.0,814.274464,1.0,6.43,-7.48,-0.07,-9.75,51.5,-31.37,-7.25,-5.31,9.75,-0.6867656673020628,-0.231432244126339,-0.03077812093657961,-7.5111244261256385,90.45355927355087,-73.68251024872158,-0.3636,-0.0655,0.7099,-0.5996
234,1045059.0,814.281599,1.0,7.64,-6.36,-0.59,-9.75,51.5,-31.37,-0.31,-45.0,15.5,-2.048000586027528,-1.3414152654771283,0.15400276283361514,-7.683390239501281,91.0081013523764,-73.69682949726199,-0.3566,-0.067,0.7133,-0.5997
235,1045059.0,814.281599,1.0,7.64,-6.36,-0.59,-9.75,51.5,-31.37,-0.31,-45.0,15.5,-2.048000586027528,-1.3414152654771283,0.15400276283361514,-7.683390239501281,91.0081013523764,-73.69682949726199,-0.3566,-0.067,0.7133,-0.5997
236,1045096.0,814.429645,1.0,7.41,-4.91,-0.99,-9.75,53.0,-31.25,52.25,-133.06,14.81,-2.776521837398457,-1.7244400288628248,1.4811750541902968,-9.890066196362193,91.96044935664196,-74.65930449968721,-0.3282,-0.0862,0.7191,-0.6064
237,1045096.0,814.429645,1.0,7.41,-4.91,-0.99,-9.75,53.0,-31.25,52.25,-133.06,14.81,-2.776521837398457,-1.7244400288628248,1.4811750541902968,-9.890066196362193,91.96044935664196,-74.65930449968721,-0.3282,-0.0862,0.7191,-0.6064
238,1045133.0,814.483682,1.0,8.21,-5.41,-0.87,-9.75,52.56,-31.25,64.69,-250.19,18.19,-3.5333940210293497,-1.1459788548437868,0.661653599978564,-13.818833482803015,92.82129439439936,-75.93290816428274,-0.287,-0.1203,0.7243,-0.6152
239,1045133.0,814.483682,1.0,8.21,-5.41,-0.87,-9.75,52.56,-31.25,64.69,-250.19,18.19,-3.5333940210293497,-1.1459788548437868,0.661653599978564,-13.818833482803015,92.82129439439936,-75.93290816428274,-0.287,-0.1203,0.7243,-0.6152
240,1045168.0,814.568786,1.0,4.72,-6.01,0.11,-9.75,52.56,-31.25,91.94,-272.06,11.13,-0.8211515967365619,1.1925842956877388,2.302381031415786,-21.25230621784773,94.7327966552025,-76.26760036880688,-0.2083,-0.1844,0.7357,-0.6175
241,1045168.0,814.568786,1.0,4.72,-6.01,0.11,-9.75,52.56,-31.25,91.94,-272.06,11.13,-0.8211515967365619,1.1925842956877388,2.302381031415786,-21.25230621784773,94.7327966552025,-76.26760036880688,-0.2083,-0.1844,0.7357,-0.6175
242,1045200.0,814.572307,1.0,6.34,-6.7,-0.23,-13.5,50.25,-29.19,110.5,-276.13,25.81,-1.9798530729789336,1.6736583451912312,0.9512815969922724,-27.902944676024738,93.94058643018808,-77.39373685475255,-0.1286,-0.2411,0.731,-0.6252
243,1045200.0,814.572307,1.0,6.34,-6.7,-0.23,-13.5,50.25,-29.19,110.5,-276.13,25.81,-1.9798530729789336,1.6736583451912312,0.9512815969922724,-27.902944676024738,93.94058643018808,-77.39373685475255,-0.1286,-0.2411,0.731,-0.6252
244,1045237.0,814.5814280000001,1.0,5.68,-6.77,0.16,-19.56,48.19,-28.0,88.37,-242.44,7.44,-1.277276838197812,2.340658509737644,1.3798604797024776,-32.8547775548023,92.67181786365627,-77.45247883989401,-0.0736,-0.2828,0.7234,-0.6256
245,1045237.0,814.5814280000001,1.0,5.68,-6.77,0.16,-19.56,48.19,-28.0,88.37,-242.44,7.44,-1.277276838197812,2.340658509737644,1.3798604797024776,-32.8547775548023,92.67181786365627,-77.45247883989401,-0.0736,-0.2828,0.7234,-0.6256
246,1045274.0,814.584177,1.0,7.22,-7.51,-0.61,-25.37,46.69,-25.0,110.69,-194.0,1.88,-2.262557735737856,2.6150237182244527,-0.03931787754136273,-38.464723978916496,89.56218264522055,-77.8790835134503,-0.015,-0.3294,0.7044,-0.6285
247,1045274.0,814.584177,1.0,7.22,-7.51,-0.61,-25.37,46.69,-25.0,110.69,-194.0,1.88,-2.262557735737856,2.6150237182244527,-0.03931787754136273,-38.464723978916496,89.56218264522055,-77.8790835134503,-0.015,-0.3294,0.7044,-0.6285
248,1045309.0,814.6202400000001,1.0,7.67,-9.06,0.0,-25.37,46.69,-25.0,74.31,-195.63,-115.5,-0.983948287469327,3.5269966253349847,-1.4851452767689608,-44.345450751183655,86.28261375483947,-77.26165547882309,0.0158,-0.3774,0.6838,-0.6243
249,1045309.0,814.6202400000001,1.0,7.67,-9.06,0.0,-25.37,46.69,-25.0,74.31,-195.63,-115.5,-0.983948287469327,3.5269966253349847,-1.4851452767689608,-44.345450751183655,86.28261375483947,-77.26165547882309,0.0158,-0.3774,0.6838,-0.6243
250,1045346.0,814.627621,1.0,10.79,-10.39,-1.42,-29.69,43.56,-22.06,76.69,-225.56,-103.37,-2.034581063155689,4.246763819214673,-4.483839038561888,-52.42479644291255,81.26427589274175,-75.93290816428274,0.0486,-0.4417,0.6512,-0.6152
251,1045346.0,814.627621,1.0,10.79,-10.39,-1.42,-29.69,43.56,-22.06,76.69,-225.56,-103.37,-2.034581063155689,4.246763819214673,-4.483839038561888,-52.42479644291255,81.26427589274175,-75.93290816428274,0.0486,-0.4417,0.6512,-0.6152
252,1045383.0,814.644333,1.0,10.24,-10.63,-0.7,-37.25,39.0,-19.56,10.69,-431.75,-144.06,0.5765880145616324,5.029114653200379,-4.075714786535077,-62.00827871831106,77.17366878994224,-71.0277375402144,0.0905,-0.5151,0.6237,-0.5809
253,1045383.0,814.644333,1.0,10.24,-10.63,-0.7,-37.25,39.0,-19.56,10.69,-431.75,-144.06,0.5765880145616324,5.029114653200379,-4.075714786535077,-62.00827871831106,77.17366878994224,-71.0277375402144,0.0905,-0.5151,0.6237,-0.5809
254,1045417.0,814.647438,1.0,7.3,-12.47,-1.0,-37.25,39.0,-19.56,-71.87,-435.88,-203.38,5.509622350140559,2.323711606403931,-3.3855949162034342,-79.3303425408847,70.10125098879591,-58.825814107213525,0.147,-0.6383,0.5743,-0.4911
255,1045417.0,814.647438,1.0,7.3,-12.47,-1.0,-37.25,39.0,-19.56,-71.87,-435.88,-203.38,5.509622350140559,2.323711606403931,-3.3855949162034342,-79.3303425408847,70.10125098879591,-58.825814107213525,0.147,-0.6383,0.5743,-0.4911
256,1045452.0,814.684966,1.0,6.13,-9.05,-3.96,-42.75,34.88,-4.75,-82.19,-382.81,-189.94,3.660927407047831,1.3048511535096767,-1.1503557035446743,-95.08869000700686,62.91957249352721,-46.29505700445262,0.1696,-0.7378,0.5219,-0.3931
257,1045452.0,814.684966,1.0,6.13,-9.05,-3.96,-42.75,34.88,-4.75,-82.19,-382.81,-189.94,3.660927407047831,1.3048511535096767,-1.1503557035446743,-95.08869000700686,62.91957249352721,-46.29505700445262,0.1696,-0.7378,0.5219,-0.3931
258,1045489.0,814.7552099999999,1.0,2.73,-7.18,-4.41,-43.69,22.69,12.19,-81.94,-310.75,-137.63,2.4859184417811,-0.976633899633412,1.3615451618763483,-104.65182119248135,58.0118417792849,-37.65257654707046,0.1852,-0.7915,0.4849,-0.3227
259,1045489.0,814.7552099999999,1.0,2.73,-7.18,-4.41,-43.69,22.69,12.19,-81.94,-310.75,-137.63,2.4859184417811,-0.976633899633412,1.3615451618763483,-104.65182119248135,58.0118417792849,-37.65257654707046,0.1852,-0.7915,0.4849,-0.3227
260,1045526.0,814.804257,1.0,2.75,-4.76,-7.07,-38.5,13.88,27.56,-41.31,-215.25,-111.94,0.10271394883480443,0.4581147787165651,0.8632400969352716,-113.41933793772672,52.78270669863224,-29.85540431723644,0.1932,-0.8359,0.4445,-0.2576
261,1045526.0,814.804257,1.0,2.75,-4.76,-7.07,-38.5,13.88,27.56,-41.31,-215.25,-111.94,0.10271394883480443,0.4581147787165651,0.8632400969352716,-113.41933793772672,52.78270669863224,-29.85540431723644,0.1932,-0.8359,0.4445,-0.2576
262,1045561.0,814.859963,1.0,2.77,-5.86,-7.53,-38.5,13.88,27.56,-27.81,-249.63,-120.75,1.5010517604619014,0.2534437404878016,-0.011496967876466258,-121.6183055994286,46.68167205165904,-22.127373666986447,0.2101,-0.873,0.3962,-0.1919
263,1045561.0,814.859963,1.0,2.77,-5.86,-7.53,-38.5,13.88,27.56,-27.81,-249.63,-120.75,1.5010517604619014,0.2534437404878016,-0.011496967876466258,-121.6183055994286,46.68167205165904,-22.127373666986447,0.2101,-0.873,0.3962,-0.1919
264,1045598.0,814.867067,1.0,0.61,-5.98,-6.86,-31.37,7.69,33.69,-23.37,-191.38,-95.69,1.0137644837817346,-1.4586575348164257,0.8603267458611246,-126.65833324064701,42.59369907468167,-17.033669594732867,0.2183,-0.8936,0.3632,-0.1481
265,1045598.0,814.867067,1.0,0.61,-5.98,-6.86,-31.37,7.69,33.69,-23.37,-191.38,-95.69,1.0137644837817346,-1.4586575348164257,0.8603267458611246,-126.65833324064701,42.59369907468167,-17.033669594732867,0.2183,-0.8936,0.3632,-0.1481
266,1045635.0,814.884409,1.0,0.34,-5.76,-6.9,-22.75,2.88,38.88,-29.31,-168.5,-86.19,1.1553957072446341,-1.3308735419919269,0.9863871708714652,-131.81847545998673,37.919033262141134,-11.38620958683243,0.2263,-0.9129,0.3249,-0.0992
267,1045635.0,814.884409,1.0,0.34,-5.76,-6.9,-22.75,2.88,38.88,-29.31,-168.5,-86.19,1.1553957072446341,-1.3308735419919269,0.9863871708714652,-131.81847545998673,37.919033262141134,-11.38620958683243,0.2263,-0.9129,0.3249,-0.0992
268,1045669.0,815.011587,1.0,-0.1,-5.58,-7.25,-22.75,2.88,38.88,-32.5,-130.81,-84.06,0.9157566028862936,-1.322205156571822,0.7998712546213262,-135.27643200533063,34.57901199780452,-7.844187348567063,0.2273,-0.9248,0.2972,-0.0684
269,1045669.0,815.011587,1.0,-0.1,-5.58,-7.25,-22.75,2.88,38.88,-32.5,-130.81,-84.06,0.9157566028862936,-1.322205156571822,0.7998712546213262,-135.27643200533063,34.57901199780452,-7.844187348567063,0.2273,-0.9248,0.2972,-0.0684
270,1045704.0,815.094333,1.0,-0.84,-6.07,-7.0,-16.0,-0.37,42.25,-15.63,-101.62,-65.69,0.8391653885849837,-2.117938709281756,0.7866368584171717,-138.35946361671841,31.04300528938303,-4.447268815934101,0.2306,-0.9347,0.2676,-0.0388
271,1045704.0,815.094333,1.0,-0.84,-6.07,-7.0,-16.0,-0.37,42.25,-15.63,-101.62,-65.69,0.8391653885849837,-2.117938709281756,0.7866368584171717,-138.35946361671841,31.04300528938303,-4.447268815934101,0.2306,-0.9347,0.2676,-0.0388
272,1045739.0,815.1442509999999,1.0,-1.2,-4.93,-6.95,-10.75,-3.69,44.5,-14.38,-63.44,-51.69,0.10464640458863993,-1.4247051722204087,1.3209759370716423,-139.96897956123578,29.09706672256259,-2.7504615040371316,0.2312,-0.9396,0.2512,-0.024
273,1045739.0,815.1442509999999,1.0,-1.2,-4.93,-6.95,-10.75,-3.69,44.5,-14.38,-63.44,-51.69,0.10464640458863993,-1.4247051722204087,1.3209759370716423,-139.96897956123578,29.09706672256259,-2.7504615040371316,0.2312,-0.9396,0.2512,-0.024
274,1045778.0,815.163344,1.0,-1.37,-5.29,-6.97,-6.88,-4.5,44.38,0.12,-34.69,-43.56,0.14040789525445513,-1.7333340755068671,1.1223113029179377,-141.53859212209682,26.912168656137837,-1.5241126706819226,0.2328,-0.9442,0.2327,-0.0133
275,1045778.0,815.163344,1.0,-1.37,-5.29,-6.97,-6.88,-4.5,44.38,0.12,-34.69,-43.56,0.14040789525445513,-1.7333340755068671,1.1223113029179377,-141.53859212209682,26.912168656137837,-1.5241126706819226,0.2328,-0.9442,0.2327,-0.0133
276,1045811.0,815.167149,1.0,-1.19,-5.41,-7.3,-6.88,-4.5,44.38,2.63,-32.19,-36.44,0.30526279591785305,-1.5466346885087925,0.7795277694256431,-142.5249164652642,25.19492264637575,-0.7104722177704716,0.2359,-0.9470000000000001,0.2181,-0.0062
277,1045811.0,815.167149,1.0,-1.19,-5.41,-7.3,-6.88,-4.5,44.38,2.63,-32.19,-36.44,0.30526279591785305,-1.5466346885087925,0.7795277694256431,-142.5249164652642,25.19492264637575,-0.7104722177704716,0.2359,-0.9470000000000001,0.2181,-0.0062
278,1045848.0,815.20704,1.0,-1.42,-5.47,-6.97,-6.19,-4.69,45.0,12.0,-8.38,-26.75,0.10696645035465918,-1.7294037828916942,1.0023373786638832,-142.59632676400983,24.25642512530879,-0.4812859628976946,0.2421,-0.9472,0.2101,-0.0042
279,1045848.0,815.20704,1.0,-1.42,-5.47,-6.97,-6.19,-4.69,45.0,12.0,-8.38,-26.75,0.10696645035465918,-1.7294037828916942,1.0023373786638832,-142.59632676400983,24.25642512530879,-0.4812859628976946,0.2421,-0.9472,0.2101,-0.0042
280,1045882.0,815.216646,1.0,-1.09,-5.58,-7.4,-4.0,-5.19,44.56,16.12,25.06,-24.69,0.2561118510444631,-1.3229180855981395,0.5725396227870494,-142.06390845011202,23.647290415990852,-0.9740399810272836,0.2523,-0.9457,0.2049,-0.0085
281,1045882.0,815.216646,1.0,-1.09,-5.58,-7.4,-4.0,-5.19,44.56,16.12,25.06,-24.69,0.2561118510444631,-1.3229180855981395,0.5725396227870494,-142.06390845011202,23.647290415990852,-0.9740399810272836,0.2523,-0.9457,0.2049,-0.0085
282,1045917.0,815.235342,1.0,-0.02,-5.68,-8.25,-4.0,-5.19,44.56,11.75,53.25,-8.44,0.8287191579818027,-0.6476452736068166,-0.15422747925697067,-142.06390845011202,23.47170516617001,-3.048495041051397,0.2523,-0.9457,0.2034,-0.0266
283,1045917.0,815.235342,1.0,-0.02,-5.68,-8.25,-4.0,-5.19,44.56,11.75,53.25,-8.44,0.8287191579818027,-0.6476452736068166,-0.15422747925697067,-142.06390845011202,23.47170516617001,-3.048495041051397,0.2523,-0.9457,0.2034,-0.0266
284,1045952.0,815.238966,1.0,-0.47,-5.08,-8.38,-5.06,-4.75,44.25,15.81,40.25,1.81,-0.08440948941506057,-0.29768118361267426,0.0007354097631644407,-141.39967008106163,23.89320452199912,-4.7225089042433,0.2545,-0.9438,0.207,-0.0412
285,1045952.0,815.238966,1.0,-0.47,-5.08,-8.38,-5.06,-4.75,44.25,15.81,40.25,1.81,-0.08440948941506057,-0.29768118361267426,0.0007354097631644407,-141.39967008106163,23.89320452199912,-4.7225089042433,0.2545,-0.9438,0.207,-0.0412
286,1045989.0,815.24843,1.0,0.01,-5.2,-8.58,-5.75,-5.25,44.5,7.81,32.38,-9.31,0.18983296379291895,-0.12607258371511998,-0.22353290708065465,-141.15770665873933,23.96348615709585,-5.7663887448030415,0.2549,-0.9431,0.2076,-0.0503
287,1045989.0,815.24843,1.0,0.01,-5.2,-8.58,-5.75,-5.25,44.5,7.81,32.38,-9.31,0.18983296379291895,-0.12607258371511998,-0.22353290708065465,-141.15770665873933,23.96348615709585,-5.7663887448030415,0.2549,-0.9431,0.2076,-0.0503
288,1046024.0,815.294735,1.0,0.34,-5.33,-8.76,-5.75,-5.25,44.5,8.44,25.06,-3.38,0.3158467622831239,-0.02478232838400496,-0.4481891825008724,-140.8487237731441,24.022061174011174,-6.856665996646211,0.2557,-0.9422,0.2081,-0.0598
289,1046024.0,815.294735,1.0,0.34,-5.33,-8.76,-5.75,-5.25,44.5,8.44,25.06,-3.38,0.3158467622831239,-0.02478232838400496,-0.4481891825008724,-140.8487237731441,24.022061174011174,-6.856665996646211,0.2557,-0.9422,0.2081,-0.0598
290,1046059.0,815.3162530000001,1.0,0.14,-5.6,-8.48,-7.69,-3.75,43.19,15.44,19.44,7.94,0.19682540671401194,-0.4050485257092338,-0.3465364678578933,-140.27139021079807,24.350199497398,-7.465189762811248,0.2584,-0.9405,0.2109,-0.0651
291,1046059.0,815.3162530000001,1.0,0.14,-5.6,-8.48,-7.69,-3.75,43.19,15.44,19.44,7.94,0.19682540671401194,-0.4050485257092338,-0.3465364678578933,-140.27139021079807,24.350199497398,-7.465189762811248,0.2584,-0.9405,0.2109,-0.0651
292,1046091.0,815.321154,1.0,0.2,-5.12,-8.66,-8.88,-5.0,45.19,4.5,17.75,7.25,-0.03383730095560411,0.0896825076143184,-0.255199337218885,-140.20399733163396,24.127512270969643,-7.786758050274272,0.2598,-0.9403,0.209,-0.0679
293,1046091.0,815.321154,1.0,0.2,-5.12,-8.66,-8.88,-5.0,45.19,4.5,17.75,7.25,-0.03383730095560411,0.0896825076143184,-0.255199337218885,-140.20399733163396,24.127512270969643,-7.786758050274272,0.2598,-0.9403,0.209,-0.0679
294,1046128.0,815.3759610000001,1.0,0.42,-5.26,-8.7,-10.38,-3.56,44.5,10.69,17.06,11.38,0.10657015932772618,0.12897517852159002,-0.3671402575424718,-139.73527758064992,24.33847679675364,-8.361141590530956,0.2622,-0.9389,0.2108,-0.0729
295,1046128.0,815.3759610000001,1.0,0.42,-5.26,-8.7,-10.38,-3.56,44.5,10.69,17.06,11.38,0.10657015932772618,0.12897517852159002,-0.3671402575424718,-139.73527758064992,24.33847679675364,-8.361141590530956,0.2622,-0.9389,0.2108,-0.0729
296,1046161.0,815.3975839999999,1.0,0.43,-5.16,-8.77,-10.38,-3.56,44.5,4.69,8.06,8.13,0.02480735445501625,0.2669216412150779,-0.3742899090956247,-139.33764146351638,24.666810678302642,-8.625427825614647,0.2634,-0.9377,0.2136,-0.0752
297,1046161.0,815.3975839999999,1.0,0.43,-5.16,-8.77,-10.38,-3.56,44.5,4.69,8.06,8.13,0.02480735445501625,0.2669216412150779,-0.3742899090956247,-139.33764146351638,24.666810678302642,-8.625427825614647,0.2634,-0.9377,0.2136,-0.0752
298,1046198.0,815.493341,1.0,0.15,-5.12,-8.63,-10.06,-3.56,43.75,4.81,8.69,8.38,-0.2361451608648336,0.13161349699423308,-0.22533451705389496,-139.2717303873644,24.537797991913113,-8.740349140335567,0.2648,-0.9375,0.2125,-0.0762
299,1046198.0,815.493341,1.0,0.15,-5.12,-8.63,-10.06,-3.56,43.75,4.81,8.69,8.38,-0.2361451608648336,0.13161349699423308,-0.22533451705389496,-139.2717303873644,24.537797991913113,-8.740349140335567,0.2648,-0.9375,0.2125,-0.0762
300,1046233.0,815.552316,1.0,0.34,-4.96,-8.71,-10.0,-2.06,45.25,4.38,8.31,9.25,-0.16248292417251334,0.3883746039852145,-0.21353285593290566,-139.2717303873644,24.38536915234885,-8.797813093528106,0.2657,-0.9375,0.2112,-0.0767
301,1046233.0,815.552316,1.0,0.34,-4.96,-8.71,-10.0,-2.06,45.25,4.38,8.31,9.25,-0.16248292417251334,0.3883746039852145,-0.21353285593290566,-139.2717303873644,24.38536915234885,-8.797813093528106,0.2657,-0.9375,0.2112,-0.0767
302,1046267.0,815.562228,1.0,0.37,-4.93,-8.73,-10.0,-2.06,45.25,2.63,2.75,6.25,-0.15292791702728098,0.4309780778063934,-0.21560378588289275,-139.1073977684417,24.67854067669555,-8.878266355561609,0.2654,-0.937,0.2137,-0.0774
303,1046267.0,815.562228,1.0,0.37,-4.93,-8.73,-10.0,-2.06,45.25,2.63,2.75,6.25,-0.15292791702728098,0.4309780778063934,-0.21560378588289275,-139.1073977684417,24.67854067669555,-8.878266355561609,0.2654,-0.937,0.2137,-0.0774
304,1046302.0,815.638375,1.0,0.37,-4.99,-8.67,-11.06,-2.75,45.25,2.13,1.06,4.63,-0.11014912216759748,0.35949779306708285,-0.19657590506010614,-139.2388131216407,24.44399042905254,-8.786320126014099,0.2656,-0.9374,0.2117,-0.0766
305,1046302.0,815.638375,1.0,0.37,-4.99,-8.67,-11.06,-2.75,45.25,2.13,1.06,4.63,-0.11014912216759748,0.35949779306708285,-0.19657590506010614,-139.2388131216407,24.44399042905254,-8.786320126014099,0.2656,-0.9374,0.2117,-0.0766
306,1046337.0,815.657418,1.0,0.44,-5.01,-8.47,-11.88,-3.19,45.25,0.12,-0.56,3.63,0.025163369798824498,0.2754804691224684,-0.040079269963323234,-139.40365501423122,24.279867169785643,-8.671395302011161,0.2653,-0.9379,0.2103,-0.0756
307,1046337.0,815.657418,1.0,0.44,-5.01,-8.47,-11.88,-3.19,45.25,0.12,-0.56,3.63,0.025163369798824498,0.2754804691224684,-0.040079269963323234,-139.40365501423122,24.279867169785643,-8.671395302011161,0.2653,-0.9379,0.2103,-0.0756
308,1046372.0,815.6635679999999,1.0,0.38,-5.13,-8.37,-11.88,-3.19,45.25,2.88,-1.44,5.5,0.050654710097859934,0.1227297047200122,-0.016820441749406,-139.30467314730421,24.38536915234885,-8.61393617408195,0.2657,-0.9376,0.2112,-0.0751
309,1046372.0,815.6635679999999,1.0,0.38,-5.13,-8.37,-11.88,-3.19,45.25,2.88,-1.44,5.5,0.050654710097859934,0.1227297047200122,-0.016820441749406,-139.30467314730421,24.38536915234885,-8.61393617408195,0.2657,-0.9376,0.2112,-0.0751
310,1046405.0,815.710429,1.0,0.28,-5.13,-8.39,-11.06,-2.5,44.0,0.69,-0.44,3.19,-0.032231375445347155,0.10522655947287428,-0.030793189651387113,-139.37063539830643,24.22126399043484,-8.476043091817116,0.2665,-0.9378,0.2098,-0.0739
311,1046405.0,815.710429,1.0,0.28,-5.13,-8.39,-11.06,-2.5,44.0,0.69,-0.44,3.19,-0.032231375445347155,0.10522655947287428,-0.030793189651387113,-139.37063539830643,24.22126399043484,-8.476043091817116,0.2665,-0.9378,0.2098,-0.0739
312,1046439.0,815.7203099999999,1.0,0.36,-4.89,-8.34,-11.06,-1.69,44.5,-3.19,0.81,1.0,-0.02233907245459671,0.2920457010323214,0.13651503329191428,-139.5691405181039,24.04549296367276,-8.384121213370948,0.2661,-0.9384,0.2083,-0.0731
313,1046439.0,815.7203099999999,1.0,0.36,-4.89,-8.34,-11.06,-1.69,44.5,-3.19,0.81,1.0,-0.02233907245459671,0.2920457010323214,0.13651503329191428,-139.5691405181039,24.04549296367276,-8.384121213370948,0.2661,-0.9384,0.2083,-0.0731
314,1046476.0,815.740891,1.0,0.51,-5.05,-8.44,-11.5,-2.5,45.25,-0.88,0.12,2.0,0.15420336305073473,0.2620639565317586,-0.03731992099786652,-139.76858389100772,23.858067126010045,-8.303694005010767,0.2653,-0.9390000000000001,0.2067,-0.0724
315,1046476.0,815.740891,1.0,0.51,-5.05,-8.44,-11.5,-2.5,45.25,-0.88,0.12,2.0,0.15420336305073473,0.2620639565317586,-0.03731992099786652,-139.76858389100772,23.858067126010045,-8.303694005010767,0.2653,-0.9390000000000001,0.2067,-0.0724
316,1046509.0,815.783921,1.0,0.21,-4.97,-8.36,-11.5,-2.5,45.25,-3.19,-3.31,1.0,-0.1052556946441841,0.14850899334031187,0.08032148829312646,-139.83527593342114,23.869779338261072,-8.200293609338797,0.2646,-0.9392,0.2068,-0.0715
317,1046509.0,815.783921,1.0,0.21,-4.97,-8.36,-11.5,-2.5,45.25,-3.19,-3.31,1.0,-0.1052556946441841,0.14850899334031187,0.08032148829312646,-139.83527593342114,23.869779338261072,-8.200293609338797,0.2646,-0.9392,0.2068,-0.0715
318,1046544.0,815.867756,1.0,0.17,-4.96,-8.37,-10.69,-2.06,44.5,-3.38,-3.19,-0.37,-0.11874374945236388,0.1293693458148346,0.07748952777376239,-140.17034192327273,23.565343649892732,-7.970538771598189,0.2638,-0.9402,0.2042,-0.0695
319,1046544.0,815.867756,1.0,0.17,-4.96,-8.37,-10.69,-2.06,44.5,-3.38,-3.19,-0.37,-0.11874374945236388,0.1293693458148346,0.07748952777376239,-140.17034192327273,23.565343649892732,-7.970538771598189,0.2638,-0.9402,0.2042,-0.0695
320,1046581.0,815.9514280000001,1.0,0.18,-5.0,-8.3,-11.06,-3.19,44.06,-0.94,-2.38,2.38,-0.06096829549685213,0.0651027268850255,0.11570347750301302,-140.33889297208822,23.38978453262475,-7.8212153932673,0.2635,-0.9407,0.2027,-0.0682
321,1046581.0,815.9514280000001,1.0,0.18,-5.0,-8.3,-11.06,-3.19,44.06,-0.94,-2.38,2.38,-0.06096829549685213,0.0651027268850255,0.11570347750301302,-140.33889297208822,23.38978453262475,-7.8212153932673,0.2635,-0.9407,0.2027,-0.0682
322,1046614.0,815.972937,1.0,0.24,-4.99,-8.46,-11.06,-3.19,44.06,-1.37,-1.56,1.19,-0.02954229466477987,0.17098108758038055,-0.0167502626644378,-140.33889297208822,23.436594836002673,-7.729330710703709,0.2632,-0.9407,0.2031,-0.0674
323,1046614.0,815.972937,1.0,0.24,-4.99,-8.46,-11.06,-3.19,44.06,-1.37,-1.56,1.19,-0.02954229466477987,0.17098108758038055,-0.0167502626644378,-140.33889297208822,23.436594836002673,-7.729330710703709,0.2632,-0.9407,0.2031,-0.0674
324,1046650.0,815.983329,1.0,0.14,-4.87,-8.49,-10.0,-2.06,44.06,-1.12,-0.63,0.75,-0.15583209164354073,0.2276284904336765,0.02194246070395245,-140.61001416599206,23.144095168471857,-7.5915129998336095,0.2628,-0.9415,0.2006,-0.0662
325,1046650.0,815.983329,1.0,0.14,-4.87,-8.49,-10.0,-2.06,44.06,-1.12,-0.63,0.75,-0.15583209164354073,0.2276284904336765,0.02194246070395245,-140.61001416599206,23.144095168471857,-7.5915129998336095,0.2628,-0.9415,0.2006,-0.0662
326,1046685.0,815.987334,1.0,0.13,-4.99,-8.29,-11.5,-2.75,44.88,2.81,0.75,3.06,-0.0776689795858565,0.049159508518047616,0.1302534148897987,-140.50813431460048,23.16748949044666,-7.580028689727107,0.2634,-0.9412,0.2008,-0.0661
327,1046685.0,815.987334,1.0,0.13,-4.99,-8.29,-11.5,-2.75,44.88,2.81,0.75,3.06,-0.0776689795858565,0.049159508518047616,0.1302534148897987,-140.50813431460048,23.16748949044666,-7.580028689727107,0.2634,-0.9412,0.2008,-0.0661
328,1046720.0,816.044183,1.0,0.18,-5.05,-8.3,-11.5,-2.75,44.88,-0.88,-0.5,-1.25,-0.012939841048354772,0.023489318874461595,0.08943945311914803,-140.54206620040912,23.16748949044666,-7.580028689727107,0.2632,-0.9413,0.2008,-0.0661
329,1046720.0,816.044183,1.0,0.18,-5.05,-8.3,-11.5,-2.75,44.88,-0.88,-0.5,-1.25,-0.012939841048354772,0.023489318874461595,0.08943945311914803,-140.54206620040912,23.16748949044666,-7.580028689727107,0.2632,-0.9413,0.2008,-0.0661
330,1046753.0,816.070251,1.0,0.23,-4.87,-8.49,-11.06,-2.5,44.5,-0.5,0.88,0.69,-0.07270888386937985,0.27072784369514924,0.02036777165328729,-140.61001416599206,23.109005518751957,-7.568544455864769,0.2631,-0.9415,0.2003,-0.066
331,1046753.0,816.070251,1.0,0.23,-4.87,-8.49,-11.06,-2.5,44.5,-0.5,0.88,0.69,-0.07270888386937985,0.27072784369514924,0.02036777165328729,-140.61001416599206,23.109005518751957,-7.568544455864769,0.2631,-0.9415,0.2003,-0.066
332,1046790.0,816.0750419999999,1.0,0.27,-5.05,-8.31,-11.5,-2.75,44.88,0.37,1.0,0.31,0.061123050554944276,0.06527647911720136,0.07918871999662436,-140.57602612666605,23.08561363949995,-7.5915129998336095,0.2633,-0.9414,0.2001,-0.0662
333,1046790.0,816.0750419999999,1.0,0.27,-5.05,-8.31,-11.5,-2.75,44.88,0.37,1.0,0.31,0.061123050554944276,0.06527647911720136,0.07918871999662436,-140.57602612666605,23.08561363949995,-7.5915129998336095,0.2633,-0.9414,0.2001,-0.0662
