,TIME,ELAPSED_SECONDS,PSTATE,acc_x,acc_y,acc_z,mag_x,mag_y,mag_z,gyr_x,gyr_y,gyr_z,lin_x,lin_y,lin_z,eul_x,eul_y,eul_z,qua_w,qua_x,qua_y,qua_z
0,3122511.0,3188.848165,1.0,4.14,2.11,-8.68,-26.0,-21.5,24.19,-0.75,1.25,-0.56,-0.044624360541732584,-0.12842182898097754,-0.03792294656743245,-132.61066542040177,36.673335709404434,-19.947852442498814,-0.1802,-0.9157,0.3146,-0.1732
1,3122511.0,3188.848165,1.0,4.14,2.11,-8.68,-26.0,-21.5,24.19,-0.75,1.25,-0.56,-0.044624360541732584,-0.12842182898097754,-0.03792294656743245,-132.61066542040177,36.673335709404434,-19.947852442498814,-0.1802,-0.9157,0.3146,-0.1732
2,3122546.0,3188.881551,1.0,4.35,2.21,-8.88,-26.0,-21.5,24.19,0.19,3.94,0.37,-0.007919338538830534,-0.048867133703096366,-0.3254055312000101,-132.55366749345725,36.66126379400549,-20.05257586733213,-0.1806,-0.9155,0.3145,-0.1741
3,3122546.0,3188.881551,1.0,4.35,2.21,-8.88,-26.0,-21.5,24.19,0.19,3.94,0.37,-0.007919338538830534,-0.048867133703096366,-0.3254055312000101,-132.55366749345725,36.66126379400549,-20.05257586733213,-0.1806,-0.9155,0.3145,-0.1741
4,3122583.0,3188.921944,1.0,4.3,2.33,-8.78,-25.25,-21.5,25.75,0.19,-3.0,0.12,-0.09652087906468032,0.06387870494475112,-0.24292229094647236,-132.58215838722379,36.66126379400549,-20.01766618340029,-0.1804,-0.9156,0.3145,-0.1738
5,3122583.0,3188.921944,1.0,4.3,2.33,-8.78,-25.25,-21.5,25.75,0.19,-3.0,0.12,-0.09652087906468032,0.06387870494475112,-0.24292229094647236,-132.58215838722379,36.66126379400549,-20.01766618340029,-0.1804,-0.9156,0.3145,-0.1738
6,3122618.0,3188.962176,1.0,4.11,2.4,-8.69,-25.25,-21.5,25.75,0.69,-2.44,-0.63,-0.2530858755658344,0.07139537730617929,-0.09784646573152857,-132.63918862221735,36.64919229993541,-19.936217546906203,-0.1799,-0.9158,0.3144,-0.1731
7,3122618.0,3188.962176,1.0,4.11,2.4,-8.69,-25.25,-21.5,25.75,0.69,-2.44,-0.63,-0.2530858755658344,0.07139537730617929,-0.09784646573152857,-132.63918862221735,36.64919229993541,-19.936217546906203,-0.1799,-0.9158,0.3144,-0.1731
8,3122653.0,3188.972326,1.0,4.41,2.22,-8.96,-25.25,-21.5,24.19,5.25,-1.81,-1.31,0.02312074801310271,-0.010400859158620657,-0.4235727372203453,-132.75344370342964,36.58884114328757,-19.95948754584176,-0.179,-0.9162,0.3139,-0.1733
9,3122653.0,3188.972326,1.0,4.41,2.22,-8.96,-25.25,-21.5,24.19,5.25,-1.81,-1.31,0.02312074801310271,-0.010400859158620657,-0.4235727372203453,-132.75344370342964,36.58884114328757,-19.95948754584176,-0.179,-0.9162,0.3139,-0.1733
10,3122690.0,3189.017383,1.0,4.34,2.17,-8.79,-24.87,-21.5,24.87,5.0,-5.56,-1.56,0.04543764292224828,0.03600185007000612,-0.2335312377763969,-132.95401941873996,36.52850049317351,-19.854779083760317,-0.1769,-0.9169,0.3134,-0.1724
11,3122690.0,3189.017383,1.0,4.34,2.17,-8.79,-24.87,-21.5,24.87,5.0,-5.56,-1.56,0.04543764292224828,0.03600185007000612,-0.2335312377763969,-132.95401941873996,36.52850049317351,-19.854779083760317,-0.1769,-0.9169,0.3134,-0.1724
12,3122724.0,3189.070174,1.0,4.06,2.04,-8.48,-24.19,-22.25,25.37,7.63,-1.25,-1.69,-0.017386520640398032,-0.03965254045062694,0.1861653248427313,-133.12658560187518,36.46817032738551,-19.81987998842397,-0.1753,-0.9175,0.3129,-0.1721
13,3122724.0,3189.070174,1.0,4.06,2.04,-8.48,-24.19,-22.25,25.37,7.63,-1.25,-1.69,-0.017386520640398032,-0.03965254045062694,0.1861653248427313,-133.12658560187518,36.46817032738551,-19.81987998842397,-0.1753,-0.9175,0.3129,-0.1721
14,3122757.0,3189.095903,1.0,4.1,1.85,-8.52,-24.19,-22.25,25.37,6.81,0.44,-0.56,0.10177511566414532,-0.14154144387608114,0.17376321329389555,-133.27085000109963,36.39578793652754,-19.90131410531983,-0.17300000000000001,-0.9179999999999999,0.3123,-0.1728
15,3122757.0,3189.095903,1.0,4.1,1.85,-8.52,-24.19,-22.25,25.37,6.81,0.44,-0.56,0.10177511566414532,-0.14154144387608114,0.17376321329389555,-133.27085000109963,36.39578793652754,-19.90131410531983,-0.17300000000000001,-0.9179999999999999,0.3123,-0.1728
16,3122794.0,3189.132765,1.0,3.9,1.49,-8.16,-25.69,-21.5,26.19,5.75,1.63,-0.75,0.23656945560229736,-0.34083717175972306,0.6500368207167959,-133.3576107786115,36.29930145114271,-19.994394103683586,-0.1715,-0.9183,0.3115,-0.1736
17,3122794.0,3189.132765,1.0,3.9,1.49,-8.16,-25.69,-21.5,26.19,5.75,1.63,-0.75,0.23656945560229736,-0.34083717175972306,0.6500368207167959,-133.3576107786115,36.29930145114271,-19.994394103683586,-0.1715,-0.9183,0.3115,-0.1736
18,3122831.0,3189.147953,1.0,4.04,1.11,-7.74,-24.19,-22.25,26.06,-0.25,9.31,2.94,0.6288065310145388,-0.3853049912828199,1.0363910294652072,-133.27085000109963,36.28724251436374,-20.27371434520358,-0.1712,-0.9179999999999999,0.3114,-0.17600000000000002
19,3122831.0,3189.147953,1.0,4.04,1.11,-7.74,-24.19,-22.25,26.06,-0.25,9.31,2.94,0.6288065310145388,-0.3853049912828199,1.0363910294652072,-133.27085000109963,36.28724251436374,-20.27371434520358,-0.1712,-0.9179999999999999,0.3114,-0.17600000000000002
20,3122866.0,3189.214919,1.0,4.41,0.91,-7.21,-24.19,-22.25,26.06,-2.06,15.13,6.25,1.09905537892141,-0.15679475396788767,1.3788511960896876,-132.95401941873996,36.37166381418113,-20.63468349632429,-0.1725,-0.9169,0.3121,-0.1791
21,3122866.0,3189.214919,1.0,4.41,0.91,-7.21,-24.19,-22.25,26.06,-2.06,15.13,6.25,1.09905537892141,-0.15679475396788767,1.3788511960896876,-132.95401941873996,36.37166381418113,-20.63468349632429,-0.1725,-0.9169,0.3121,-0.1791
22,3122900.0,3189.2299390000003,1.0,4.07,0.15,-6.42,-25.69,-21.5,25.37,-16.31,21.75,11.94,1.4368513270717138,-0.6310631892589589,2.367495645165401,-132.15647345628565,36.69748080490138,-21.275624852029367,-0.1766,-0.9141,0.3148,-0.1846
23,3122900.0,3189.2299390000003,1.0,4.07,0.15,-6.42,-25.69,-21.5,25.37,-16.31,21.75,11.94,1.4368513270717138,-0.6310631892589589,2.367495645165401,-132.15647345628565,36.69748080490138,-21.275624852029367,-0.1766,-0.9141,0.3148,-0.1846
24,3122935.0,3189.2645399999997,1.0,3.31,0.04,-5.08,-27.19,-21.06,25.06,-25.94,38.25,18.0,1.1772064456103002,-0.6434777659976567,3.8935948379809417,-130.5977575270689,37.26537941343616,-22.349262916740443,-0.1869,-0.9085,0.3195,-0.1938
25,3122935.0,3189.2645399999997,1.0,3.31,0.04,-5.08,-27.19,-21.06,25.06,-25.94,38.25,18.0,1.1772064456103002,-0.6434777659976567,3.8935948379809417,-130.5977575270689,37.26537941343616,-22.349262916740443,-0.1869,-0.9085,0.3195,-0.1938
26,3122972.0,3189.301578,1.0,4.81,0.82,-5.7,-27.5,-21.06,23.69,-30.87,64.62,36.06,1.4390374616565922,0.2223597523376668,2.4460639279205965,-128.57965137649458,38.10083031138289,-23.834643460050298,-0.1974,-0.9009999999999999,0.3264,-0.2065
27,3122972.0,3189.301578,1.0,4.81,0.82,-5.7,-27.5,-21.06,23.69,-30.87,64.62,36.06,1.4390374616565922,0.2223597523376668,2.4460639279205965,-128.57965137649458,38.10083031138289,-23.834643460050298,-0.1974,-0.9009999999999999,0.3264,-0.2065
28,3123007.0,3189.340267,1.0,4.68,0.6,-5.32,-27.5,-21.06,23.69,-40.19,69.81,36.25,1.3618449234143268,-0.08303909501747209,2.8278762600604885,-125.5457815403515,39.20589109359036,-26.09985097880343,-0.2142,-0.8892,0.3355,-0.2258
29,3123007.0,3189.340267,1.0,4.68,0.6,-5.32,-27.5,-21.06,23.69,-40.19,69.81,36.25,1.3618449234143268,-0.08303909501747209,2.8278762600604885,-125.5457815403515,39.20589109359036,-26.09985097880343,-0.2142,-0.8892,0.3355,-0.2258
30,3123044.0,3189.3827699999997,1.0,4.24,0.38,-4.41,-28.25,-21.5,21.69,-58.44,88.62,36.13,1.3128119111613383,-0.19692695777838354,3.8226843701510886,-122.85197400573631,39.985349368070324,-27.92656022686475,-0.2314,-0.8782,0.3419,-0.2413
31,3123044.0,3189.3827699999997,1.0,4.24,0.38,-4.41,-28.25,-21.5,21.69,-58.44,88.62,36.13,1.3128119111613383,-0.19692695777838354,3.8226843701510886,-122.85197400573631,39.985349368070324,-27.92656022686475,-0.2314,-0.8782,0.3419,-0.2413
32,3123081.0,3189.4204879999998,1.0,6.6,2.28,-4.89,-31.25,-21.06,20.06,-70.81,114.44,51.06,0.9421468565394351,1.3756746729271054,1.4466034394251268,-118.07406258134459,41.41533197987328,-31.16195134015795,-0.2598,-0.8575,0.3536,-0.2686
33,3123081.0,3189.4204879999998,1.0,6.6,2.28,-4.89,-31.25,-21.06,20.06,-70.81,114.44,51.06,0.9421468565394351,1.3756746729271054,1.4466034394251268,-118.07406258134459,41.41533197987328,-31.16195134015795,-0.2598,-0.8575,0.3536,-0.2686
34,3123116.0,3189.430943,1.0,7.09,2.01,-4.75,-31.25,-21.06,20.06,-82.12,111.0,41.5,1.1748020691454113,1.0476419802240395,1.1815131095150804,-114.32249031100716,42.298669773319475,-33.6081640231361,-0.2834,-0.8402,0.3608,-0.2891
35,3123116.0,3189.430943,1.0,7.09,2.01,-4.75,-31.25,-21.06,20.06,-82.12,111.0,41.5,1.1748020691454113,1.0476419802240395,1.1815131095150804,-114.32249031100716,42.298669773319475,-33.6081640231361,-0.2834,-0.8402,0.3608,-0.2891
36,3123150.0,3189.469122,1.0,6.59,3.07,-3.54,-32.75,-21.06,15.5,-105.37,121.44,44.06,0.06386076140429542,1.5790066295041438,1.876501207755632,-108.9180458077566,43.49291375439449,-36.45610555039494,-0.3207,-0.8137,0.3705,-0.3128
37,3123150.0,3189.469122,1.0,6.59,3.07,-3.54,-32.75,-21.06,15.5,-105.37,121.44,44.06,0.06386076140429542,1.5790066295041438,1.876501207755632,-108.9180458077566,43.49291375439449,-36.45610555039494,-0.3207,-0.8137,0.3705,-0.3128
38,3123185.0,3189.5274719999998,1.0,10.04,5.05,-5.06,-36.5,-20.37,10.38,-86.44,137.13,55.5,-0.6320807429880133,1.945417858752055,-2.347506625993935,-104.20296893682892,44.419705914934724,-39.21805551339583,-0.3489,-0.7891,0.37799999999999995,-0.3356
39,3123185.0,3189.5274719999998,1.0,10.04,5.05,-5.06,-36.5,-20.37,10.38,-86.44,137.13,55.5,-0.6320807429880133,1.945417858752055,-2.347506625993935,-104.20296893682892,44.419705914934724,-39.21805551339583,-0.3489,-0.7891,0.37799999999999995,-0.3356
40,3123222.0,3189.5334,1.0,9.07,3.64,-4.4,-38.38,-20.75,4.56,-80.87,113.37,33.31,-0.2342274341615407,0.5203368626949783,-0.8961013779591713,-98.76983998330203,45.1509357631892,-42.43385492531204,-0.3814,-0.7591,0.3839,-0.3619
41,3123222.0,3189.5334,1.0,9.07,3.64,-4.4,-38.38,-20.75,4.56,-80.87,113.37,33.31,-0.2342274341615407,0.5203368626949783,-0.8961013779591713,-98.76983998330203,45.1509357631892,-42.43385492531204,-0.3814,-0.7591,0.3839,-0.3619
42,3123257.0,3189.572523,1.0,11.17,6.05,-4.51,-38.38,-20.75,4.56,-100.5,126.25,41.06,-1.9526436720101008,0.7858049316011431,-3.5080483931154145,-93.12086388400516,45.80946044511175,-45.324731779489326,-0.4157,-0.7261,0.3892,-0.3853
43,3123257.0,3189.572523,1.0,11.17,6.05,-4.51,-38.38,-20.75,4.56,-100.5,126.25,41.06,-1.9526436720101008,0.7858049316011431,-3.5080483931154145,-93.12086388400516,45.80946044511175,-45.324731779489326,-0.4157,-0.7261,0.3892,-0.3853
44,3123294.0,3189.619202,1.0,11.42,5.58,-5.53,-39.5,-19.69,1.75,-71.87,92.62,21.5,-1.960137094499971,-1.1372808142820985,-3.8680768682131657,-89.4331017243669,46.008573794141824,-47.131352218600796,-0.4386,-0.7036,0.3908,-0.3998
45,3123294.0,3189.619202,1.0,11.42,5.58,-5.53,-39.5,-19.69,1.75,-71.87,92.62,21.5,-1.960137094499971,-1.1372808142820985,-3.8680768682131657,-89.4331017243669,46.008573794141824,-47.131352218600796,-0.4386,-0.7036,0.3908,-0.3998
46,3123331.0,3189.646813,1.0,10.25,5.0,-3.86,-40.19,-18.5,-5.19,-60.88,80.56,27.56,-1.7702703209200006,-0.7242982486155323,-2.080470552847201,-85.8749731823786,46.2701332926198,-48.824609844362676,-0.4592,-0.6812,0.3929,-0.4133
47,3123331.0,3189.646813,1.0,10.25,5.0,-3.86,-40.19,-18.5,-5.19,-60.88,80.56,27.56,-1.7702703209200006,-0.7242982486155323,-2.080470552847201,-85.8749731823786,46.2701332926198,-48.824609844362676,-0.4592,-0.6812,0.3929,-0.4133
48,3123365.0,3189.7137559999996,1.0,11.31,4.84,-4.42,-40.19,-18.5,-5.19,-53.88,68.69,16.06,-1.5482444453608502,-1.7181012217132272,-3.0591639007742835,-83.28795636892652,46.29505700445262,-50.086212613815825,-0.4741,-0.6645,0.3931,-0.4233
49,3123365.0,3189.7137559999996,1.0,11.31,4.84,-4.42,-40.19,-18.5,-5.19,-53.88,68.69,16.06,-1.5482444453608502,-1.7181012217132272,-3.0591639007742835,-83.28795636892652,46.29505700445262,-50.086212613815825,-0.4741,-0.6645,0.3931,-0.4233
50,3123398.0,3189.7193260000004,1.0,9.65,4.0,-3.21,-39.69,-17.87,-7.19,-48.63,47.0,2.63,-1.1539921619922409,-1.4355704867830854,-0.9652597409669124,-80.8120533305175,46.3449113831939,-50.7701742654686,-0.4911,-0.6482,0.3935,-0.4287
51,3123398.0,3189.7193260000004,1.0,9.65,4.0,-3.21,-39.69,-17.87,-7.19,-48.63,47.0,2.63,-1.1539921619922409,-1.4355704867830854,-0.9652597409669124,-80.8120533305175,46.3449113831939,-50.7701742654686,-0.4911,-0.6482,0.3935,-0.4287
52,3123435.0,3189.7691449999998,1.0,9.3,3.61,-1.77,-39.19,-17.0,-10.5,-47.81,66.94,11.25,-0.7564842140921619,-0.5034406814656776,-0.2843994555360663,-78.85480334917152,46.20783414121839,-51.659688661303676,-0.5029,-0.6351,0.3924,-0.4357
53,3123435.0,3189.7691449999998,1.0,9.3,3.61,-1.77,-39.19,-17.0,-10.5,-47.81,66.94,11.25,-0.7564842140921619,-0.5034406814656776,-0.2843994555360663,-78.85480334917152,46.20783414121839,-51.659688661303676,-0.5029,-0.6351,0.3924,-0.4357
54,3123472.0,3189.819871,1.0,10.95,3.8,-3.17,-39.19,-15.88,-13.25,-37.69,38.5,6.56,-0.7123436402880434,-2.3021204564683257,-1.965529404938204,-76.28216959343423,45.95878171202678,-52.578118912593965,-0.5197,-0.6176,0.3904,-0.4429
55,3123472.0,3189.819871,1.0,10.95,3.8,-3.17,-39.19,-15.88,-13.25,-37.69,38.5,6.56,-0.7123436402880434,-2.3021204564683257,-1.965529404938204,-76.28216959343423,45.95878171202678,-52.578118912593965,-0.5197,-0.6176,0.3904,-0.4429
56,3123507.0,3189.826653,1.0,8.69,2.97,-0.05,-39.19,-15.88,-13.25,-27.12,23.5,15.5,-0.28382986296930146,0.4112519224933564,0.6366002474014714,-74.76021635401274,46.2701332926198,-53.077119755232744,-0.5267,-0.6071,0.3929,-0.4468
57,3123507.0,3189.826653,1.0,8.69,2.97,-0.05,-39.19,-15.88,-13.25,-27.12,23.5,15.5,-0.28382986296930146,0.4112519224933564,0.6366002474014714,-74.76021635401274,46.2701332926198,-53.077119755232744,-0.5267,-0.6071,0.3929,-0.4468
58,3123544.0,3189.868359,1.0,11.14,4.38,-1.48,-38.5,-15.5,-15.0,-30.81,38.88,1.0,-1.147851406134122,-1.113863983617425,-2.1481040407754044,-73.32496313273802,46.12063959224854,-53.60288337963247,-0.5355,-0.5971,0.3917,-0.4509
59,3123544.0,3189.868359,1.0,11.14,4.38,-1.48,-38.5,-15.5,-15.0,-30.81,38.88,1.0,-1.147851406134122,-1.113863983617425,-2.1481040407754044,-73.32496313273802,46.12063959224854,-53.60288337963247,-0.5355,-0.5971,0.3917,-0.4509
60,3123580.0,3189.910906,1.0,10.19,3.75,-0.47,-37.56,-14.38,-16.19,-12.38,14.88,9.75,-0.7755411300433321,-0.3408768221719829,-1.0285629165843826,-72.38499549855874,46.09573205363145,-54.09126672763835,-0.5397,-0.5905,0.3915,-0.4547
61,3123580.0,3189.910906,1.0,10.19,3.75,-0.47,-37.56,-14.38,-16.19,-12.38,14.88,9.75,-0.7755411300433321,-0.3408768221719829,-1.0285629165843826,-72.38499549855874,46.09573205363145,-54.09126672763835,-0.5397,-0.5905,0.3915,-0.4547
62,3123613.0,3189.942169,1.0,9.57,3.3,-0.07,-37.56,-14.38,-16.19,-14.25,18.5,3.56,-0.5145394671875714,-0.07033697277472561,-0.3032511788922694,-71.80391056917499,46.09573205363145,-54.348737347604505,-0.5424,-0.5864,0.3915,-0.4567
63,3123613.0,3189.942169,1.0,9.57,3.3,-0.07,-37.56,-14.38,-16.19,-14.25,18.5,3.56,-0.5145394671875714,-0.07033697277472561,-0.3032511788922694,-71.80391056917499,46.09573205363145,-54.348737347604505,-0.5424,-0.5864,0.3915,-0.4567
64,3123648.0,3190.011394,1.0,9.59,3.18,-0.58,-38.25,-13.25,-17.0,-11.88,9.56,-3.25,-0.4459176982684983,-0.6970850572245009,-0.2795846705480347,-71.26724268861088,46.008573794141824,-54.41315136848768,-0.5468,-0.5826,0.3908,-0.4572
65,3123648.0,3190.011394,1.0,9.59,3.18,-0.58,-38.25,-13.25,-17.0,-11.88,9.56,-3.25,-0.4459176982684983,-0.6970850572245009,-0.2795846705480347,-71.26724268861088,46.008573794141824,-54.41315136848768,-0.5468,-0.5826,0.3908,-0.4572
66,3123685.0,3190.019466,1.0,9.24,3.33,0.01,-38.0,-13.56,-17.75,-7.44,6.0,4.13,-0.6443696642689347,-0.10170433304319347,0.006596736654429947,-71.06997715893745,46.058375063609425,-54.490472774077006,-0.5472,-0.5812,0.3912,-0.4578
67,3123685.0,3190.019466,1.0,9.24,3.33,0.01,-38.0,-13.56,-17.75,-7.44,6.0,4.13,-0.6443696642689347,-0.10170433304319347,0.006596736654429947,-71.06997715893745,46.058375063609425,-54.490472774077006,-0.5472,-0.5812,0.3912,-0.4578
68,3123720.0,3190.063544,1.0,9.98,3.12,-0.45,-37.56,-14.38,-19.06,-1.37,4.44,-2.13,-0.2876798581221163,-0.6518841409289209,-0.6350733906111614,-71.0277375402144,45.821900740364754,-54.69679474885505,-0.5476,-0.5809,0.3893,-0.4594
69,3123720.0,3190.063544,1.0,9.98,3.12,-0.45,-37.56,-14.38,-19.06,-1.37,4.44,-2.13,-0.2876798581221163,-0.6518841409289209,-0.6350733906111614,-71.0277375402144,45.821900740364754,-54.69679474885505,-0.5476,-0.5809,0.3893,-0.4594
70,3123755.0,3190.118269,1.0,9.65,3.33,-0.2,-37.56,-14.38,-19.06,4.94,-21.69,3.0,-0.5501526922828837,-0.28931404725201704,-0.3847694005171132,-71.30954553159043,46.058375063609425,-54.47758400854888,-0.5456,-0.5829,0.3912,-0.4577
71,3123755.0,3190.118269,1.0,9.65,3.33,-0.2,-37.56,-14.38,-19.06,4.94,-21.69,3.0,-0.5501526922828837,-0.28931404725201704,-0.3847694005171132,-71.30954553159043,46.058375063609425,-54.47758400854888,-0.5456,-0.5829,0.3912,-0.4577
72,3123791.0,3190.121816,1.0,10.6,3.16,-0.97,-37.56,-12.88,-17.69,11.0,-25.0,6.69,-0.22745460116736016,-0.9194669243905498,-1.2563217969160334,-72.00208892273058,46.50700231874489,-54.18134776958782,-0.5396,-0.5878,0.3948,-0.4554
73,3123791.0,3190.121816,1.0,10.6,3.16,-0.97,-37.56,-12.88,-17.69,11.0,-25.0,6.69,-0.22745460116736016,-0.9194669243905498,-1.2563217969160334,-72.00208892273058,46.50700231874489,-54.18134776958782,-0.5396,-0.5878,0.3948,-0.4554
74,3123826.0,3190.169648,1.0,10.77,3.21,-1.41,-38.38,-14.38,-16.06,15.38,-34.75,2.19,-0.28591347148185475,-1.152248062410858,-1.4572604173238002,-72.84002686008644,46.8189931753183,-53.92406916451298,-0.5329999999999999,-0.5937,0.3973,-0.4534
75,3123826.0,3190.169648,1.0,10.77,3.21,-1.41,-38.38,-14.38,-16.06,15.38,-34.75,2.19,-0.28591347148185475,-1.152248062410858,-1.4572604173238002,-72.84002686008644,46.8189931753183,-53.92406916451298,-0.5329999999999999,-0.5937,0.3973,-0.4534
76,3123861.0,3190.203054,1.0,10.73,3.37,-2.16,-38.38,-14.38,-16.06,24.62,-70.12,7.38,-0.5266751532999878,-1.4414034600360432,-1.5423750395482223,-74.42890280024764,47.73212702761914,-53.000280019764396,-0.521,-0.6048,0.4046,-0.4462
77,3123861.0,3190.203054,1.0,10.73,3.37,-2.16,-38.38,-14.38,-16.06,24.62,-70.12,7.38,-0.5266751532999878,-1.4414034600360432,-1.5423750395482223,-74.42890280024764,47.73212702761914,-53.000280019764396,-0.521,-0.6048,0.4046,-0.4462
78,3123896.0,3190.239501,1.0,10.9,3.3,-2.24,-39.0,-13.19,-16.06,34.88,-84.25,6.0,-0.4068367101094763,-0.8280275668462771,-1.7634171666092744,-76.91003135987752,49.1016156188802,-51.54513650446032,-0.5016,-0.6219,0.4155,-0.4348
79,3123896.0,3190.239501,1.0,10.9,3.3,-2.24,-39.0,-13.19,-16.06,34.88,-84.25,6.0,-0.4068367101094763,-0.8280275668462771,-1.7634171666092744,-76.91003135987752,49.1016156188802,-51.54513650446032,-0.5016,-0.6219,0.4155,-0.4348
80,3123933.0,3190.251263,1.0,10.4,2.73,-2.25,-39.75,-13.19,-13.19,37.25,-84.19,5.06,0.018941753340535602,-0.4446428624640628,-1.1695667405185723,-78.92899912643803,50.035624947359274,-50.4026226278441,-0.4857,-0.6356,0.4229,-0.4258
81,3123933.0,3190.251263,1.0,10.4,2.73,-2.25,-39.75,-13.19,-13.19,37.25,-84.19,5.06,0.018941753340535602,-0.4446428624640628,-1.1695667405185723,-78.92899912643803,50.035624947359274,-50.4026226278441,-0.4857,-0.6356,0.4229,-0.4258
82,3123970.0,3190.295657,1.0,10.64,2.87,-3.29,-39.75,-13.19,-13.19,23.69,-85.0,3.0,-0.1233200785954569,-0.7194097889933255,-1.6710606477605463,-81.33979509600317,51.34162455414572,-48.64849167574625,-0.4669,-0.6517,0.4332,-0.4119
83,3123970.0,3190.295657,1.0,10.64,2.87,-3.29,-39.75,-13.19,-13.19,23.69,-85.0,3.0,-0.1233200785954569,-0.7194097889933255,-1.6710606477605463,-81.33979509600317,51.34162455414572,-48.64849167574625,-0.4669,-0.6517,0.4332,-0.4119
84,3124004.0,3190.344635,1.0,9.72,2.77,-3.07,-41.25,-14.25,-9.88,31.0,-109.94,2.06,-0.1945993518363034,-0.10276414398580712,-0.7540209362130827,-83.48745702732505,52.59090035589804,-46.85645674888645,-0.4499,-0.6658,0.44299999999999995,-0.3976
85,3124004.0,3190.344635,1.0,9.72,2.77,-3.07,-41.25,-14.25,-9.88,31.0,-109.94,2.06,-0.1945993518363034,-0.10276414398580712,-0.7540209362130827,-83.48745702732505,52.59090035589804,-46.85645674888645,-0.4499,-0.6658,0.44299999999999995,-0.3976
86,3124039.0,3190.3823039999997,1.0,9.6,2.43,-3.47,-42.38,-13.88,-5.69,32.25,-104.25,2.75,0.11918967663379346,0.1951103053707559,-0.6839899132618239,-86.28261375483947,54.14273717736637,-44.51874337646561,-0.4263,-0.6838,0.4551,-0.3788
87,3124039.0,3190.3823039999997,1.0,9.6,2.43,-3.47,-42.38,-13.88,-5.69,32.25,-104.25,2.75,0.11918967663379346,0.1951103053707559,-0.6839899132618239,-86.28261375483947,54.14273717736637,-44.51874337646561,-0.4263,-0.6838,0.4551,-0.3788
88,3124076.0,3190.4210789999997,1.0,9.03,2.42,-3.81,-41.56,-12.75,-3.0,26.0,-105.31,3.31,-0.027785394923130813,0.2506063784758936,-0.2854174004336745,-88.21391588431885,55.316919407310365,-42.72901972322527,-0.4092,-0.696,0.4642,-0.3643
89,3124076.0,3190.4210789999997,1.0,9.03,2.42,-3.81,-41.56,-12.75,-3.0,26.0,-105.31,3.31,-0.027785394923130813,0.2506063784758936,-0.2854174004336745,-88.21391588431885,55.316919407310365,-42.72901972322527,-0.4092,-0.696,0.4642,-0.3643
90,3124109.0,3190.428835,1.0,8.57,2.1,-4.35,-41.56,-12.75,-3.0,27.75,-103.5,2.31,0.15342367289024386,0.2389154502687569,-0.026802119384107925,-90.74680173049411,56.7968463150502,-40.22932427895751,-0.3859,-0.7117,0.4756,-0.3439
91,3124109.0,3190.428835,1.0,8.57,2.1,-4.35,-41.56,-12.75,-3.0,27.75,-103.5,2.31,0.15342367289024386,0.2389154502687569,-0.026802119384107925,-90.74680173049411,56.7968463150502,-40.22932427895751,-0.3859,-0.7117,0.4756,-0.3439
92,3124146.0,3190.470991,1.0,8.37,1.86,-5.04,-41.69,-13.19,1.19,22.25,-105.19,5.69,0.2961571818559869,0.043231949865074386,-0.13460353877195708,-92.52254534707764,57.98563819390608,-38.270597450084026,-0.368,-0.7225,0.4847,-0.3278
93,3124146.0,3190.470991,1.0,8.37,1.86,-5.04,-41.69,-13.19,1.19,22.25,-105.19,5.69,0.2961571818559869,0.043231949865074386,-0.13460353877195708,-92.52254534707764,57.98563819390608,-38.270597450084026,-0.368,-0.7225,0.4847,-0.3278
94,3124183.0,3190.5162010000004,1.0,7.47,1.86,-4.97,-40.88,-12.75,7.06,17.94,-90.56,4.94,0.08628210984380646,0.2913310471248729,0.648643578376241,-94.49620014403055,59.418645600644645,-35.91362085306447,-0.3466,-0.7343,0.4956,-0.3083
95,3124183.0,3190.5162010000004,1.0,7.47,1.86,-4.97,-40.88,-12.75,7.06,17.94,-90.56,4.94,0.08628210984380646,0.2913310471248729,0.648643578376241,-94.49620014403055,59.418645600644645,-35.91362085306447,-0.3466,-0.7343,0.4956,-0.3083
96,3124217.0,3190.536105,1.0,7.27,1.95,-5.24,-40.88,-12.75,7.06,13.5,-82.44,0.69,-0.028551719290383026,0.3877864693030382,0.6435824757725914,-95.76994903311295,60.278064818090016,-34.24312448272413,-0.3329,-0.7418,0.5021,-0.2944
97,3124217.0,3190.536105,1.0,7.27,1.95,-5.24,-40.88,-12.75,7.06,13.5,-82.44,0.69,-0.028551719290383026,0.3877864693030382,0.6435824757725914,-95.76994903311295,60.278064818090016,-34.24312448272413,-0.3329,-0.7418,0.5021,-0.2944
98,3124250.0,3190.567442,1.0,7.04,1.83,-5.75,-39.88,-12.0,8.38,16.12,-72.06,2.31,0.024711529963109102,0.29988565806853074,0.5393711149997404,-97.25007802261709,61.247744610159856,-32.31753913524463,-0.3161,-0.7504,0.5094,-0.2783
99,3124250.0,3190.567442,1.0,7.04,1.83,-5.75,-39.88,-12.0,8.38,16.12,-72.06,2.31,0.024711529963109102,0.29988565806853074,0.5393711149997404,-97.25007802261709,61.247744610159856,-32.31753913524463,-0.3161,-0.7504,0.5094,-0.2783
100,3124285.0,3190.609188,1.0,6.68,2.03,-6.12,-39.88,-12.38,11.25,14.81,-73.06,4.13,-0.2760675041113909,0.2094890719200735,0.528848479061983,-98.24315676541242,61.96817529160685,-30.93598315774567,-0.3035,-0.7561,0.5148,-0.2667
101,3124285.0,3190.609188,1.0,6.68,2.03,-6.12,-39.88,-12.38,11.25,14.81,-73.06,4.13,-0.2760675041113909,0.2094890719200735,0.528848479061983,-98.24315676541242,61.96817529160685,-30.93598315774567,-0.3035,-0.7561,0.5148,-0.2667
102,3124322.0,3190.637244,1.0,6.3,1.86,-5.95,-39.06,-11.69,13.75,15.25,-61.31,0.31,-0.17979065188460994,0.4738403693317215,0.9581896465889912,-99.49424158104073,62.81213256780961,-29.19178700040293,-0.287,-0.7632,0.5211,-0.252
103,3124322.0,3190.637244,1.0,6.3,1.86,-5.95,-39.06,-11.69,13.75,15.25,-61.31,0.31,-0.17979065188460994,0.4738403693317215,0.9581896465889912,-99.49424158104073,62.81213256780961,-29.19178700040293,-0.287,-0.7632,0.5211,-0.252
104,3124357.0,3190.718944,1.0,6.19,1.95,-6.92,-39.06,-11.69,13.75,10.81,-49.25,-1.19,-0.3461960358915297,0.0014123025314631832,0.3258722729285246,-100.27771483475884,63.16153810810004,-28.19822634265853,-0.2778,-0.7676,0.5237,-0.2436
105,3124357.0,3190.718944,1.0,6.19,1.95,-6.92,-39.06,-11.69,13.75,10.81,-49.25,-1.19,-0.3461960358915297,0.0014123025314631832,0.3258722729285246,-100.27771483475884,63.16153810810004,-28.19822634265853,-0.2778,-0.7676,0.5237,-0.2436
106,3124393.0,3190.72467,1.0,5.63,2.06,-6.96,-39.0,-12.0,16.25,11.94,-47.88,-3.94,-0.5858586349318438,-0.05246538555104907,0.6395284755957977,-101.30231586461944,63.552034095396465,-26.888604025029306,-0.266,-0.7733,0.5266,-0.2325
107,3124393.0,3190.72467,1.0,5.63,2.06,-6.96,-39.0,-12.0,16.25,11.94,-47.88,-3.94,-0.5858586349318438,-0.05246538555104907,0.6395284755957977,-101.30231586461944,63.552034095396465,-26.888604025029306,-0.266,-0.7733,0.5266,-0.2325
108,3124428.0,3190.7703030000002,1.0,5.43,2.26,-7.05,-37.5,-10.88,18.25,14.06,-45.56,-6.69,-0.8098099882931638,0.0258300015079842,0.6612390964985764,-101.97342600574191,63.781328955958536,-25.98223545272544,-0.2579,-0.777,0.5283,-0.2248
109,3124428.0,3190.7703030000002,1.0,5.43,2.26,-7.05,-37.5,-10.88,18.25,14.06,-45.56,-6.69,-0.8098099882931638,0.0258300015079842,0.6612390964985764,-101.97342600574191,63.781328955958536,-25.98223545272544,-0.2579,-0.777,0.5283,-0.2248
110,3124463.0,3190.802753,1.0,5.57,2.23,-7.43,-37.5,-10.88,18.25,16.62,-33.25,-10.88,-0.7168026061322883,0.1392968251034723,0.28459715314192024,-103.07215846453477,63.72735158205304,-25.018825462277388,-0.2477,-0.7829999999999999,0.5279,-0.2166
111,3124463.0,3190.802753,1.0,5.57,2.23,-7.43,-37.5,-10.88,18.25,16.62,-33.25,-10.88,-0.7168026061322883,0.1392968251034723,0.28459715314192024,-103.07215846453477,63.72735158205304,-25.018825462277388,-0.2477,-0.7829999999999999,0.5279,-0.2166
112,3124498.0,3190.838176,1.0,5.55,2.01,-7.71,-36.0,-11.69,19.5,20.31,-32.75,-13.19,-0.5136741639831051,0.12675190955030002,0.11094101062322537,-104.22162596433716,63.43075774250616,-24.291588578811197,-0.2375,-0.7892,0.5257,-0.2104
113,3124498.0,3190.838176,1.0,5.55,2.01,-7.71,-36.0,-11.69,19.5,20.31,-32.75,-13.19,-0.5136741639831051,0.12675190955030002,0.11094101062322537,-104.22162596433716,63.43075774250616,-24.291588578811197,-0.2375,-0.7892,0.5257,-0.2104
114,3124535.0,3190.8717579999998,1.0,5.21,2.04,-7.72,-34.88,-10.88,21.19,19.37,-31.44,-17.5,-0.6294301117947709,0.06969432346028115,0.29334035321337737,-105.15951761656832,63.16153810810004,-23.65899809735879,-0.23,-0.7942,0.5237,-0.205
115,3124535.0,3190.8717579999998,1.0,5.21,2.04,-7.72,-34.88,-10.88,21.19,19.37,-31.44,-17.5,-0.6294301117947709,0.06969432346028115,0.29334035321337737,-105.15951761656832,63.16153810810004,-23.65899809735879,-0.23,-0.7942,0.5237,-0.205
116,3124572.0,3190.8863579999997,1.0,4.96,1.54,-7.66,-34.5,-11.69,21.75,21.81,-29.25,-18.0,-0.2283180069710569,-0.04456754119805462,0.5549104542732461,-106.45140340836085,62.59743692135864,-23.050527648721737,-0.2204,-0.8009999999999999,0.5195,-0.1998
117,3124572.0,3190.8863579999997,1.0,4.96,1.54,-7.66,-34.5,-11.69,21.75,21.81,-29.25,-18.0,-0.2283180069710569,-0.04456754119805462,0.5549104542732461,-106.45140340836085,62.59743692135864,-23.050527648721737,-0.2204,-0.8009999999999999,0.5195,-0.1998
118,3124604.0,3190.921209,1.0,5.2,1.69,-8.1,-34.5,-11.69,21.75,16.37,-22.19,-21.69,-0.2849831985893463,0.07062015503875996,0.03833912399773709,-107.35582470459705,62.101886205747824,-22.66472550596455,-0.2149,-0.8057,0.5158,-0.1965
119,3124604.0,3190.921209,1.0,5.2,1.69,-8.1,-34.5,-11.69,21.75,16.37,-22.19,-21.69,-0.2849831985893463,0.07062015503875996,0.03833912399773709,-107.35582470459705,62.101886205747824,-22.66472550596455,-0.2149,-0.8057,0.5158,-0.1965
120,3124641.0,3190.967584,1.0,4.82,1.87,-7.71,-34.5,-12.0,23.0,21.06,-22.87,-25.12,-0.4993111473892941,0.2520986862035256,0.5405540243203149,-108.76048947633528,61.28769792030866,-22.022297601396428,-0.2072,-0.8129,0.5097,-0.191
121,3124641.0,3190.967584,1.0,4.82,1.87,-7.71,-34.5,-12.0,23.0,21.06,-22.87,-25.12,-0.4993111473892941,0.2520986862035256,0.5405540243203149,-108.76048947633528,61.28769792030866,-22.022297601396428,-0.2072,-0.8129,0.5097,-0.191
122,3124678.0,3191.018588,1.0,4.52,1.22,-7.58,-33.0,-12.38,22.56,21.19,-19.0,-23.87,-0.002986427687101667,-0.045567853993771834,0.8974909683106436,-109.81002132963994,60.596333747101795,-21.7305176882842,-0.201,-0.8182,0.5045,-0.1885
123,3124678.0,3191.018588,1.0,4.52,1.22,-7.58,-33.0,-12.38,22.56,21.19,-19.0,-23.87,-0.002986427687101667,-0.045567853993771834,0.8974909683106436,-109.81002132963994,60.596333747101795,-21.7305176882842,-0.201,-0.8182,0.5045,-0.1885
124,3124711.0,3191.034963,1.0,4.3,1.3,-7.49,-33.0,-12.38,22.56,12.25,1.0,-29.06,-0.12848902970983933,-0.07196084586649931,1.0740437334890434,-111.01493444523935,59.550623188016026,-21.602179804976906,-0.1974,-0.8242,0.4966,-0.1874
125,3124711.0,3191.034963,1.0,4.3,1.3,-7.49,-33.0,-12.38,22.56,12.25,1.0,-29.06,-0.12848902970983933,-0.07196084586649931,1.0740437334890434,-111.01493444523935,59.550623188016026,-21.602179804976906,-0.1974,-0.8242,0.4966,-0.1874
126,3124746.0,3191.072573,1.0,4.83,1.34,-7.88,-32.25,-12.0,23.87,10.69,5.06,-29.37,0.05091614609047623,0.1256591902269042,0.4685282769778141,-111.82855209706509,58.628588254962324,-21.695513718287586,-0.1972,-0.8282,0.4896,-0.1882
127,3124746.0,3191.072573,1.0,4.83,1.34,-7.88,-32.25,-12.0,23.87,10.69,5.06,-29.37,0.05091614609047623,0.1256591902269042,0.4685282769778141,-111.82855209706509,58.628588254962324,-21.695513718287586,-0.1972,-0.8282,0.4896,-0.1882
128,3124785.0,3191.118073,1.0,4.59,0.82,-7.79,-31.5,-12.0,24.56,15.38,8.75,-29.44,0.4133948345151056,-0.2708924601898979,0.7413137135841161,-112.91993898771477,57.35774212215939,-22.01062364188303,-0.1964,-0.8335,0.4799,-0.1909
129,3124785.0,3191.118073,1.0,4.59,0.82,-7.79,-31.5,-12.0,24.56,15.38,8.75,-29.44,0.4133948345151056,-0.2708924601898979,0.7413137135841161,-112.91993898771477,57.35774212215939,-22.01062364188303,-0.1964,-0.8335,0.4799,-0.1909
130,3124817.0,3191.1474550000003,1.0,4.86,0.48,-7.77,-31.5,-12.0,24.56,14.06,12.13,-24.81,0.8294252847126588,-0.26109377788578114,0.6706342526280249,-113.62840124543837,56.47142628686849,-22.302542365509357,-0.1959,-0.8369,0.4731,-0.1934
131,3124817.0,3191.1474550000003,1.0,4.86,0.48,-7.77,-31.5,-12.0,24.56,14.06,12.13,-24.81,0.8294252847126588,-0.26109377788578114,0.6706342526280249,-113.62840124543837,56.47142628686849,-22.302542365509357,-0.1959,-0.8369,0.4731,-0.1934
132,3124852.0,3191.190256,1.0,4.77,0.11,-7.79,-31.37,-13.5,23.75,2.75,21.25,-20.87,1.0759145591505117,-0.6234756587533733,0.7566342008784321,-114.23801227723101,55.42044409850313,-22.88682192770989,-0.198,-0.8398,0.465,-0.1984
133,3124852.0,3191.190256,1.0,4.77,0.11,-7.79,-31.37,-13.5,23.75,2.75,21.25,-20.87,1.0759145591505117,-0.6234756587533733,0.7566342008784321,-114.23801227723101,55.42044409850313,-22.88682192770989,-0.198,-0.8398,0.465,-0.1984
134,3124887.0,3191.2264219999997,1.0,5.15,0.24,-8.08,-32.56,-13.19,23.87,-5.31,26.56,-17.19,1.10289910682379,-0.6230400586537092,0.3060218815290909,-114.30136176070127,54.683894003775556,-23.47170516617001,-0.2046,-0.8401,0.4593,-0.2034
135,3124887.0,3191.2264219999997,1.0,5.15,0.24,-8.08,-32.56,-13.19,23.87,-5.31,26.56,-17.19,1.10289910682379,-0.6230400586537092,0.3060218815290909,-114.30136176070127,54.683894003775556,-23.47170516617001,-0.2046,-0.8401,0.4593,-0.2034
136,3124924.0,3191.2685850000003,1.0,4.75,0.15,-7.65,-32.56,-15.0,23.0,-5.19,17.56,-7.0,1.0357797068816887,-0.8093915266412781,0.8971300491040264,-114.30136176070127,54.29721951219732,-23.8463551666527,-0.2081,-0.8401,0.4563,-0.2066
137,3124924.0,3191.2685850000003,1.0,4.75,0.15,-7.65,-32.56,-15.0,23.0,-5.19,17.56,-7.0,1.0357797068816887,-0.8093915266412781,0.8971300491040264,-114.30136176070127,54.29721951219732,-23.8463551666527,-0.2081,-0.8401,0.4563,-0.2066
138,3124959.0,3191.276546,1.0,5.26,0.48,-7.91,-32.56,-15.0,23.0,-6.56,16.19,0.94,0.9485575791397548,-0.5497214935796718,0.3586795936876932,-113.96412130753305,54.20709186156805,-24.25642512530879,-0.2127,-0.8385,0.4556,-0.2101
139,3124959.0,3191.276546,1.0,5.26,0.48,-7.91,-32.56,-15.0,23.0,-6.56,16.19,0.94,0.9485575791397548,-0.5497214935796718,0.3586795936876932,-113.96412130753305,54.20709186156805,-24.25642512530879,-0.2127,-0.8385,0.4556,-0.2101
140,3124996.0,3191.320905,1.0,5.35,0.53,-7.97,-32.56,-15.38,23.0,-15.25,22.75,7.75,0.9179905899463998,-0.6021469235595897,0.2557855177022006,-113.48199585621887,54.27146504851861,-24.64335146895964,-0.2172,-0.8362,0.4561,-0.2134
141,3124996.0,3191.320905,1.0,5.35,0.53,-7.97,-32.56,-15.38,23.0,-15.25,22.75,7.75,0.9179905899463998,-0.6021469235595897,0.2557855177022006,-113.48199585621887,54.27146504851861,-24.64335146895964,-0.2172,-0.8362,0.4561,-0.2134
142,3125030.0,3191.3693559999997,1.0,5.68,1.05,-8.05,-32.69,-15.0,21.69,-20.31,25.25,11.69,0.5648841258070951,-0.3387037925035969,-0.07937982320784087,-112.42380191368638,54.69679474885505,-25.277122006902648,-0.2243,-0.8311,0.4594,-0.2188
143,3125030.0,3191.3693559999997,1.0,5.68,1.05,-8.05,-32.69,-15.0,21.69,-20.31,25.25,11.69,0.5648841258070951,-0.3387037925035969,-0.07937982320784087,-112.42380191368638,54.69679474885505,-25.277122006902648,-0.2243,-0.8311,0.4594,-0.2188
144,3125065.0,3191.399687,1.0,5.88,0.62,-7.9,-32.69,-15.0,21.69,-16.87,26.19,17.12,1.0259358606463234,-0.4591444041997776,0.0033116897134508605,-111.5428205011455,55.05832168724145,-25.71182517460623,-0.2307,-0.8268,0.4622,-0.2225
145,3125065.0,3191.399687,1.0,5.88,0.62,-7.9,-32.69,-15.0,21.69,-16.87,26.19,17.12,1.0259358606463234,-0.4591444041997776,0.0033116897134508605,-111.5428205011455,55.05832168724145,-25.71182517460623,-0.2307,-0.8268,0.4622,-0.2225
146,3125100.0,3191.443916,1.0,5.88,1.06,-8.08,-33.0,-15.38,20.87,-35.38,21.06,23.25,0.6037167439561683,-0.5545151808358126,-0.20895976712299813,-110.02956467321043,55.88691564523484,-26.09985097880343,-0.24100000000000002,-0.8193,0.4686,-0.2258
147,3125100.0,3191.443916,1.0,5.88,1.06,-8.08,-33.0,-15.38,20.87,-35.38,21.06,23.25,0.6037167439561683,-0.5545151808358126,-0.20895976712299813,-110.02956467321043,55.88691564523484,-26.09985097880343,-0.24100000000000002,-0.8193,0.4686,-0.2258
148,3125135.0,3191.502202,1.0,6.25,1.89,-8.19,-34.88,-14.69,19.56,-23.19,16.81,26.25,0.008110688522487086,-0.138920050791699,-0.6667131387544156,-108.85892668852873,56.67963771453915,-26.29986168212807,-0.2476,-0.8134,0.4747,-0.2275
149,3125135.0,3191.502202,1.0,6.25,1.89,-8.19,-34.88,-14.69,19.56,-23.19,16.81,26.25,0.008110688522487086,-0.138920050791699,-0.6667131387544156,-108.85892668852873,56.67963771453915,-26.29986168212807,-0.2476,-0.8134,0.4747,-0.2275
150,3125174.0,3191.5187170000004,1.0,6.4,2.03,-8.37,-33.75,-14.69,19.69,-16.37,6.44,25.19,-0.13374513819820955,-0.1974845124312812,-0.920927177786144,-107.58829882460172,57.64529274825973,-26.57059440264536,-0.2523,-0.8069,0.4821,-0.2298
151,3125174.0,3191.5187170000004,1.0,6.4,2.03,-8.37,-33.75,-14.69,19.69,-16.37,6.44,25.19,-0.13374513819820955,-0.1974845124312812,-0.920927177786144,-107.58829882460172,57.64529274825973,-26.57059440264536,-0.2523,-0.8069,0.4821,-0.2298
152,3125207.0,3191.562362,1.0,5.81,1.42,-7.83,-33.75,-14.69,19.69,-26.12,2.75,26.44,0.2214793654058725,-0.5361474898288237,-0.029248167419671844,-106.6622162163593,58.484077048449976,-26.5117266696815,-0.2556,-0.8021,0.4885,-0.2293
153,3125207.0,3191.562362,1.0,5.81,1.42,-7.83,-33.75,-14.69,19.69,-26.12,2.75,26.44,0.2214793654058725,-0.5361474898288237,-0.029248167419671844,-106.6622162163593,58.484077048449976,-26.5117266696815,-0.2556,-0.8021,0.4885,-0.2293
154,3125245.0,3191.570695,1.0,6.13,2.34,-8.05,-36.0,-14.25,18.75,-25.56,3.75,26.06,-0.48426534294915297,-0.2010225647902968,-0.5654316139318656,-105.2161097378776,59.775184989554425,-26.288094094940124,-0.2623,-0.7945,0.4983,-0.2274
155,3125245.0,3191.570695,1.0,6.13,2.34,-8.05,-36.0,-14.25,18.75,-25.56,3.75,26.06,-0.48426534294915297,-0.2010225647902968,-0.5654316139318656,-105.2161097378776,59.775184989554425,-26.288094094940124,-0.2623,-0.7945,0.4983,-0.2274
156,3125280.0,3191.610748,1.0,6.34,1.58,-8.06,-35.69,-13.19,17.19,-21.81,0.37,28.87,0.27728865075057385,-0.3787421596390557,-0.5584484260004459,-104.20296893682892,60.71581770752129,-26.205728877683853,-0.2654,-0.7891,0.5054,-0.2267
157,3125280.0,3191.610748,1.0,6.34,1.58,-8.06,-35.69,-13.19,17.19,-21.81,0.37,28.87,0.27728865075057385,-0.3787421596390557,-0.5584484260004459,-104.20296893682892,60.71581770752129,-26.205728877683853,-0.2654,-0.7891,0.5054,-0.2267
158,3125315.0,3191.641387,1.0,6.25,2.85,-8.35,-35.69,-13.19,17.19,-46.81,-18.25,30.5,-0.8599372532391782,-0.2362191660438571,-0.9688875005651116,-102.70445172212514,62.34280299111539,-25.371080328389592,-0.2719,-0.7809999999999999,0.5176,-0.2196
159,3125315.0,3191.641387,1.0,6.25,2.85,-8.35,-35.69,-13.19,17.19,-46.81,-18.25,30.5,-0.8599372532391782,-0.2362191660438571,-0.9688875005651116,-102.70445172212514,62.34280299111539,-25.371080328389592,-0.2719,-0.7809999999999999,0.5176,-0.2196
160,3125348.0,3191.695136,1.0,5.71,2.69,-7.75,-36.38,-13.19,18.75,-10.38,-11.81,18.81,-0.8411864893020471,-0.22892578461193944,-0.15039264705919209,-101.86426876300013,63.51159981899281,-24.725463298356363,-0.2727,-0.7764,0.5263,-0.2141
161,3125348.0,3191.695136,1.0,5.71,2.69,-7.75,-36.38,-13.19,18.75,-10.38,-11.81,18.81,-0.8411864893020471,-0.22892578461193944,-0.15039264705919209,-101.86426876300013,63.51159981899281,-24.725463298356363,-0.2727,-0.7764,0.5263,-0.2141
162,3125385.0,3191.7312079999997,1.0,5.64,2.85,-7.57,-36.0,-12.0,18.0,-6.13,-2.75,12.75,-1.018339435198278,-0.11395221033749725,-0.0008471164145262832,-101.33846927981493,64.11904710633912,-24.57298013035922,-0.2731,-0.7735,0.5308,-0.2128
163,3125385.0,3191.7312079999997,1.0,5.64,2.85,-7.57,-36.0,-12.0,18.0,-6.13,-2.75,12.75,-1.018339435198278,-0.11395221033749725,-0.0008471164145262832,-101.33846927981493,64.11904710633912,-24.57298013035922,-0.2731,-0.7735,0.5308,-0.2128
164,3125422.0,3191.7667469999997,1.0,5.85,2.71,-7.82,-36.0,-12.0,18.0,-3.25,-4.5,10.06,-0.7873111937279011,-0.14794342107130265,-0.2966788488691918,-101.13979730318009,64.45738978708853,-24.22126399043484,-0.2738,-0.7724,0.5333,-0.2098
165,3125422.0,3191.7667469999997,1.0,5.85,2.71,-7.82,-36.0,-12.0,18.0,-3.25,-4.5,10.06,-0.7873111937279011,-0.14794342107130265,-0.2966788488691918,-101.13979730318009,64.45738978708853,-24.22126399043484,-0.2738,-0.7724,0.5333,-0.2098
166,3125456.0,3191.772316,1.0,5.7,2.53,-7.65,-37.5,-12.75,17.56,0.63,-0.63,4.75,-0.6234578890702143,-0.17484030287257313,-0.04190985050847473,-101.15784107033815,64.53868567478604,-23.928344197778117,-0.2743,-0.7725,0.5339,-0.2073
167,3125456.0,3191.772316,1.0,5.7,2.53,-7.65,-37.5,-12.75,17.56,0.63,-0.63,4.75,-0.6234578890702143,-0.17484030287257313,-0.04190985050847473,-101.15784107033815,64.53868567478604,-23.928344197778117,-0.2743,-0.7725,0.5339,-0.2073
168,3125491.0,3191.819772,1.0,5.6,1.97,-7.51,-36.0,-12.38,18.87,3.81,-0.5,0.63,-0.13323989295079808,-0.3012869521524784,0.2393895089613487,-101.17588829449863,64.55223852912117,-23.91663071897709,-0.2737,-0.7726,0.534,-0.2072
169,3125491.0,3191.819772,1.0,5.6,1.97,-7.51,-36.0,-12.38,18.87,3.81,-0.5,0.63,-0.13323989295079808,-0.3012869521524784,0.2393895089613487,-101.17588829449863,64.55223852912117,-23.91663071897709,-0.2737,-0.7726,0.534,-0.2072
170,3125526.0,3191.85038,1.0,5.97,1.74,-7.77,-36.0,-11.69,18.37,2.31,-0.63,-1.0,0.2041581696738619,-0.2670072391660754,-0.13962702087511406,-101.12175699059144,64.63357693133646,-23.881491803544503,-0.2738,-0.7723,0.5346,-0.2069
171,3125526.0,3191.85038,1.0,5.97,1.74,-7.77,-36.0,-11.69,18.37,2.31,-0.63,-1.0,0.2041581696738619,-0.2670072391660754,-0.13962702087511406,-101.12175699059144,64.63357693133646,-23.881491803544503,-0.2738,-0.7723,0.5346,-0.2069
172,3125561.0,3191.920246,1.0,5.7,2.3,-7.44,-36.0,-11.69,18.37,-3.5,-4.94,3.69,-0.4019574348860806,-0.07158183539704899,0.16471522209463352,-101.06765675595229,64.76922217655454,-23.76437852052494,-0.2733,-0.772,0.5356,-0.2059
173,3125561.0,3191.920246,1.0,5.7,2.3,-7.44,-36.0,-11.69,18.37,-3.5,-4.94,3.69,-0.4019574348860806,-0.07158183539704899,0.16471522209463352,-101.06765675595229,64.76922217655454,-23.76437852052494,-0.2733,-0.772,0.5356,-0.2059
174,3125596.0,3191.925141,1.0,5.86,2.12,-7.75,-36.0,-11.69,18.37,-0.12,0.69,-2.63,-0.1765419505163044,-0.21447154585359307,-0.13414146223916212,-101.01358752510708,64.80993560444892,-23.729249451725817,-0.27399999999999997,-0.7717,0.5359,-0.2056
175,3125596.0,3191.925141,1.0,5.86,2.12,-7.75,-36.0,-11.69,18.37,-0.12,0.69,-2.63,-0.1765419505163044,-0.21447154585359307,-0.13414146223916212,-101.01358752510708,64.80993560444892,-23.729249451725817,-0.27399999999999997,-0.7717,0.5359,-0.2056
176,3125633.0,3191.966319,1.0,5.58,2.06,-7.44,-36.0,-12.38,18.37,3.38,0.44,-2.75,-0.20465869078057894,-0.22497052397604825,0.2860878798502693,-101.15784107033815,64.67425982878002,-23.729249451725817,-0.2736,-0.7725,0.5349,-0.2056
177,3125633.0,3191.966319,1.0,5.58,2.06,-7.44,-36.0,-12.38,18.37,3.38,0.44,-2.75,-0.20465869078057894,-0.22497052397604825,0.2860878798502693,-101.15784107033815,64.67425982878002,-23.729249451725817,-0.2736,-0.7725,0.5349,-0.2056
178,3125667.0,3192.0008350000003,1.0,5.94,1.93,-7.69,-36.0,-12.38,18.37,-1.0,2.94,-2.13,0.031920625563815135,-0.17806147668560168,-0.09849387498657868,-101.21199312357183,64.57934727558172,-23.81122080455561,-0.2739,-0.7728,0.5342,-0.2063
179,3125667.0,3192.0008350000003,1.0,5.94,1.93,-7.69,-36.0,-12.38,18.37,-1.0,2.94,-2.13,0.031920625563815135,-0.17806147668560168,-0.09849387498657868,-101.21199312357183,64.57934727558172,-23.81122080455561,-0.2739,-0.7728,0.5342,-0.2063
180,3125702.0,3192.033742,1.0,5.93,2.0,-7.81,-34.88,-11.69,18.37,0.06,2.13,-2.44,-0.0346445156677484,-0.25463176199039306,-0.1980969944681643,-101.23005073336391,64.49803318236535,-23.834643460050298,-0.2744,-0.7729,0.5336,-0.2065
181,3125702.0,3192.033742,1.0,5.93,2.0,-7.81,-34.88,-11.69,18.37,0.06,2.13,-2.44,-0.0346445156677484,-0.25463176199039306,-0.1980969944681643,-101.23005073336391,64.49803318236535,-23.834643460050298,-0.2744,-0.7729,0.5336,-0.2065
182,3125737.0,3192.070033,1.0,5.99,1.73,-7.65,-36.0,-11.69,17.87,3.63,0.75,-2.31,0.2347017339359465,-0.17852732949703176,-0.05785926750591664,-101.23005073336391,64.5115830018242,-23.858067126010045,-0.2739,-0.7729,0.5337,-0.2067
183,3125737.0,3192.070033,1.0,5.99,1.73,-7.65,-36.0,-11.69,17.87,3.63,0.75,-2.31,0.2347017339359465,-0.17852732949703176,-0.05785926750591664,-101.23005073336391,64.5115830018242,-23.858067126010045,-0.2739,-0.7729,0.5337,-0.2067
184,3125772.0,3192.117412,1.0,5.9,1.78,-7.63,-36.0,-13.19,17.19,0.31,0.81,-0.94,0.15031225649269553,-0.2089177938241542,0.00210719673927251,-101.32039083270723,64.45738978708853,-23.89320452199912,-0.2733,-0.7734,0.5333,-0.207
185,3125772.0,3192.117412,1.0,5.9,1.78,-7.63,-36.0,-13.19,17.19,0.31,0.81,-0.94,0.15031225649269553,-0.2089177938241542,0.00210719673927251,-101.32039083270723,64.45738978708853,-23.89320452199912,-0.2733,-0.7734,0.5333,-0.207
186,3125807.0,3192.149674,1.0,5.91,2.0,-7.79,-36.0,-13.19,17.19,-1.37,-0.75,-2.06,-0.04698440322342368,-0.2443096319859357,-0.17083992831226347,-101.35655120840237,64.41675547774169,-23.858067126010045,-0.2736,-0.7736,0.5329999999999999,-0.2067
187,3125807.0,3192.149674,1.0,5.91,2.0,-7.79,-36.0,-13.19,17.19,-1.37,-0.75,-2.06,-0.04698440322342368,-0.2443096319859357,-0.17083992831226347,-101.35655120840237,64.41675547774169,-23.858067126010045,-0.2736,-0.7736,0.5329999999999999,-0.2067
188,3125841.0,3192.219138,1.0,5.99,1.92,-7.65,-35.25,-12.0,19.19,1.31,2.38,-1.88,0.06348985431674059,-0.12035701242559392,-0.09640423735318217,-101.41081790768305,64.34905178938227,-23.858067126010045,-0.2736,-0.7739,0.5325,-0.2067
189,3125841.0,3192.219138,1.0,5.99,1.92,-7.65,-35.25,-12.0,19.19,1.31,2.38,-1.88,0.06348985431674059,-0.12035701242559392,-0.09640423735318217,-101.41081790768305,64.34905178938227,-23.858067126010045,-0.2736,-0.7739,0.5325,-0.2067
190,3125876.0,3192.22302,1.0,5.97,1.77,-7.59,-35.69,-12.0,18.37,2.13,4.19,-2.56,0.19118686247347627,-0.14308624305160267,-0.007873621178305257,-101.41081790768305,64.32197736057384,-23.91663071897709,-0.2735,-0.7739,0.5323,-0.2072
191,3125876.0,3192.22302,1.0,5.97,1.77,-7.59,-35.69,-12.0,18.37,2.13,4.19,-2.56,0.19118686247347627,-0.14308624305160267,-0.007873621178305257,-101.41081790768305,64.32197736057384,-23.91663071897709,-0.2735,-0.7739,0.5323,-0.2072
192,3125911.0,3192.262847,1.0,5.65,1.8,-7.49,-35.69,-12.0,18.37,1.31,-2.38,-1.0,0.04501768039699505,-0.2879553755365956,0.2579508681731273,-101.48322239715057,64.28137325688984,-23.95177191669858,-0.2727,-0.7743,0.532,-0.2075
193,3125911.0,3192.262847,1.0,5.65,1.8,-7.49,-35.69,-12.0,18.37,1.31,-2.38,-1.0,0.04501768039699505,-0.2879553755365956,0.2579508681731273,-101.48322239715057,64.28137325688984,-23.95177191669858,-0.2727,-0.7743,0.532,-0.2075
194,3125946.0,3192.2936879999997,1.0,6.0,1.94,-7.97,-36.0,-11.69,18.06,-0.69,4.88,-0.63,0.020957352850214942,-0.3306056582614647,-0.3508477572277631,-101.35655120840237,64.32197736057384,-23.998630403703213,-0.2737,-0.7736,0.5323,-0.2079
195,3125946.0,3192.2936879999997,1.0,6.0,1.94,-7.97,-36.0,-11.69,18.06,-0.69,4.88,-0.63,0.020957352850214942,-0.3306056582614647,-0.3508477572277631,-101.35655120840237,64.32197736057384,-23.998630403703213,-0.2737,-0.7736,0.5323,-0.2079
196,3125983.0,3192.311197,1.0,6.06,1.98,-7.66,-35.69,-12.0,17.56,-0.19,3.81,-2.44,0.01243902686599596,-0.09158720784381136,-0.15884331714040026,-101.33846927981493,64.28137325688984,-24.05720924110893,-0.2742,-0.7735,0.532,-0.2084
197,3125983.0,3192.311197,1.0,6.06,1.98,-7.66,-35.69,-12.0,17.56,-0.19,3.81,-2.44,0.01243902686599596,-0.09158720784381136,-0.15884331714040026,-101.33846927981493,64.28137325688984,-24.05720924110893,-0.2742,-0.7735,0.532,-0.2084
198,3126018.0,3192.344083,1.0,5.82,1.94,-7.46,-35.69,-12.0,17.56,2.38,-0.56,-0.81,-0.03554475752942232,-0.14460865799913258,0.14924740374028111,-101.37463662093218,64.24077819073915,-24.11579445991055,-0.2739,-0.7737,0.5317,-0.2089
199,3126018.0,3192.344083,1.0,5.82,1.94,-7.46,-35.69,-12.0,17.56,2.38,-0.56,-0.81,-0.03554475752942232,-0.14460865799913258,0.14924740374028111,-101.37463662093218,64.24077819073915,-24.11579445991055,-0.2739,-0.7737,0.5317,-0.2089
200,3126050.0,3192.379116,1.0,5.74,2.02,-7.69,-35.69,-12.38,19.25,0.94,2.31,-2.0,-0.1492925097993434,-0.33586643343409084,0.007210960676873769,-101.42891378684288,64.14609145323304,-24.186105170420962,-0.27399999999999997,-0.774,0.531,-0.2095
201,3126050.0,3192.379116,1.0,5.74,2.02,-7.69,-35.69,-12.38,19.25,0.94,2.31,-2.0,-0.1492925097993434,-0.33586643343409084,0.007210960676873769,-101.42891378684288,64.14609145323304,-24.186105170420962,-0.27399999999999997,-0.774,0.531,-0.2095
202,3126087.0,3192.422305,1.0,6.22,1.84,-7.99,-36.38,-12.75,17.69,2.44,6.44,-2.25,0.16970279650006814,-0.26013748863060626,-0.4801196313210507,-101.48322239715057,64.0244233467086,-24.303310245881057,-0.2743,-0.7743,0.5301,-0.2105
203,3126087.0,3192.422305,1.0,6.22,1.84,-7.99,-36.38,-12.75,17.69,2.44,6.44,-2.25,0.16970279650006814,-0.26013748863060626,-0.4801196313210507,-101.48322239715057,64.0244233467086,-24.303310245881057,-0.2743,-0.7743,0.5301,-0.2105
204,3126122.0,3192.4663600000003,1.0,5.98,1.74,-7.54,-36.38,-12.75,17.69,0.69,0.19,-2.06,0.19290950281447072,-0.170858794806221,0.03049568473056397,-101.53756251878842,63.929848409462785,-24.350199497398,-0.2742,-0.7746,0.5294,-0.2109
205,3126122.0,3192.4663600000003,1.0,5.98,1.74,-7.54,-36.38,-12.75,17.69,0.69,0.19,-2.06,0.19290950281447072,-0.170858794806221,0.03049568473056397,-101.53756251878842,63.929848409462785,-24.350199497398,-0.2742,-0.7746,0.5294,-0.2109
206,3126155.0,3192.5283329999997,1.0,5.81,1.74,-7.51,-36.0,-12.38,18.37,0.25,1.88,-2.88,0.14297662513844278,-0.27470763170737644,0.15844325461224604,-101.61006514803414,63.86232469664676,-24.33847679675364,-0.2745,-0.775,0.5289,-0.2108
207,3126155.0,3192.5283329999997,1.0,5.81,1.74,-7.51,-36.0,-12.38,18.37,0.25,1.88,-2.88,0.14297662513844278,-0.27470763170737644,0.15844325461224604,-101.61006514803414,63.86232469664676,-24.33847679675364,-0.2745,-0.775,0.5289,-0.2108
208,3126190.0,3192.532699,1.0,5.96,2.07,-7.58,-35.69,-12.38,18.0,-2.0,2.0,-1.81,-0.10864202736043073,-0.13064848689986475,-0.054081609914236495,-101.61006514803414,63.808323575638354,-24.350199497398,-0.2751,-0.775,0.5285,-0.2109
209,3126190.0,3192.532699,1.0,5.96,2.07,-7.58,-35.69,-12.38,18.0,-2.0,2.0,-1.81,-0.10864202736043073,-0.13064848689986475,-0.054081609914236495,-101.61006514803414,63.808323575638354,-24.350199497398,-0.2751,-0.775,0.5285,-0.2109
210,3126224.0,3192.569164,1.0,6.02,2.01,-7.61,-36.38,-12.75,18.37,1.63,3.31,-2.69,-0.03003906015712965,-0.1387950424805151,-0.10155032049452116,-101.66447905765742,63.6868789211639,-24.40881688456287,-0.2755,-0.7753,0.5276,-0.2114
211,3126224.0,3192.569164,1.0,6.02,2.01,-7.61,-36.38,-12.75,18.37,1.63,3.31,-2.69,-0.03003906015712965,-0.1387950424805151,-0.10155032049452116,-101.66447905765742,63.6868789211639,-24.40881688456287,-0.2755,-0.7753,0.5276,-0.2114
212,3126259.0,3192.611679,1.0,6.08,1.9,-7.75,-36.38,-12.75,18.37,0.37,4.13,-1.88,0.08489100793158877,-0.2297035046350853,-0.22225471670414976,-101.70077262436087,63.59247721166836,-24.479166312304468,-0.2756,-0.7755,0.5269,-0.212
213,3126259.0,3192.611679,1.0,6.08,1.9,-7.75,-36.38,-12.75,18.37,0.37,4.13,-1.88,0.08489100793158877,-0.2297035046350853,-0.22225471670414976,-101.70077262436087,63.59247721166836,-24.479166312304468,-0.2756,-0.7755,0.5269,-0.212
214,3126296.0,3192.62162,1.0,5.93,1.89,-7.6,-36.38,-12.0,17.56,0.31,1.56,-0.75,0.04857045526317783,-0.24974719356740005,-0.013343240841905413,-101.61006514803414,63.659902079059314,-24.479166312304468,-0.2762,-0.775,0.5274,-0.212
215,3126296.0,3192.62162,1.0,5.93,1.89,-7.6,-36.38,-12.0,17.56,0.31,1.56,-0.75,0.04857045526317783,-0.24974719356740005,-0.013343240841905413,-101.61006514803414,63.659902079059314,-24.479166312304468,-0.2762,-0.775,0.5274,-0.212
216,3126329.0,3192.668045,1.0,6.04,1.96,-7.48,-35.69,-12.75,18.06,-0.44,4.06,-1.81,0.025186775823523355,-0.08706245701764083,-0.004842534517960573,-101.61006514803414,63.605960216714145,-24.537797991913113,-0.2766,-0.775,0.527,-0.2125
217,3126329.0,3192.668045,1.0,6.04,1.96,-7.48,-35.69,-12.75,18.06,-0.44,4.06,-1.81,0.025186775823523355,-0.08706245701764083,-0.004842534517960573,-101.61006514803414,63.605960216714145,-24.537797991913113,-0.2766,-0.775,0.527,-0.2125
218,3126364.0,3192.691644,1.0,6.46,1.94,-8.01,-35.69,-12.75,18.06,0.0,3.31,-3.19,0.1810576069234806,-0.18013254325038086,-0.6618776142271939,-101.6281995958626,63.44422897307763,-24.631622257728548,-0.2779,-0.7751,0.5258,-0.2133
219,3126364.0,3192.691644,1.0,6.46,1.94,-8.01,-35.69,-12.75,18.06,0.0,3.31,-3.19,0.1810576069234806,-0.18013254325038086,-0.6618776142271939,-101.6281995958626,63.44422897307763,-24.631622257728548,-0.2779,-0.7751,0.5258,-0.2133
220,3126398.0,3192.76281,1.0,6.02,2.02,-7.64,-35.69,-12.38,18.37,-1.56,-1.0,-0.94,-0.0249205161397823,-0.21499069785366046,-0.125296333308075,-101.66447905765742,63.44422897307763,-24.56125248965988,-0.278,-0.7753,0.5258,-0.2127
221,3126398.0,3192.76281,1.0,6.02,2.02,-7.64,-35.69,-12.38,18.37,-1.56,-1.0,-0.94,-0.0249205161397823,-0.21499069785366046,-0.125296333308075,-101.66447905765742,63.44422897307763,-24.56125248965988,-0.278,-0.7753,0.5258,-0.2127
222,3126435.0,3192.766104,1.0,5.92,2.04,-7.39,-36.0,-13.5,18.37,-1.63,0.31,-0.44,-0.06410982174140067,-0.11270502344528045,0.12144027029117588,-101.71892470333574,63.40381821677742,-24.537797991913113,-0.278,-0.7756,0.5255,-0.2125
223,3126435.0,3192.766104,1.0,5.92,2.04,-7.39,-36.0,-13.5,18.37,-1.63,0.31,-0.44,-0.06410982174140067,-0.11270502344528045,0.12144027029117588,-101.71892470333574,63.40381821677742,-24.537797991913113,-0.278,-0.7756,0.5255,-0.2125
224,3126470.0,3192.818711,1.0,6.06,1.99,-7.53,-36.0,-13.5,18.37,-0.69,1.25,-0.94,0.03116650317862235,-0.1304000105566272,-0.06080278612096812,-101.70077262436087,63.363416260732706,-24.54952511022461,-0.2784,-0.7755,0.5252,-0.2126
225,3126470.0,3192.818711,1.0,6.06,1.99,-7.53,-36.0,-13.5,18.37,-0.69,1.25,-0.94,0.03116650317862235,-0.1304000105566272,-0.06080278612096812,-101.70077262436087,63.363416260732706,-24.54952511022461,-0.2784,-0.7755,0.5252,-0.2126
226,3126505.0,3192.8286129999997,1.0,6.16,1.89,-7.81,-36.38,-12.75,17.19,-1.25,1.69,0.69,0.1463796507811761,-0.2748057485920099,-0.3134712837780729,-101.66447905765742,63.390349920821656,-24.56125248965988,-0.2784,-0.7753,0.5254,-0.2127
227,3126505.0,3192.8286129999997,1.0,6.16,1.89,-7.81,-36.38,-12.75,17.19,-1.25,1.69,0.69,0.1463796507811761,-0.2748057485920099,-0.3134712837780729,-101.66447905765742,63.390349920821656,-24.56125248965988,-0.2784,-0.7753,0.5254,-0.2127
228,3126540.0,3192.869243,1.0,6.01,1.96,-7.58,-36.38,-13.19,17.56,-1.56,-0.5,-0.06,0.040660186832390366,-0.2056070200733504,-0.06118524905555134,-101.66447905765742,63.417287490539216,-24.52607113458515,-0.2785,-0.7753,0.5256,-0.2124
229,3126540.0,3192.869243,1.0,6.01,1.96,-7.58,-36.38,-13.19,17.56,-1.56,-0.5,-0.06,0.040660186832390366,-0.2056070200733504,-0.06118524905555134,-101.66447905765742,63.417287490539216,-24.52607113458515,-0.2785,-0.7753,0.5256,-0.2124
230,3126575.0,3192.898298,1.0,6.12,1.92,-7.65,-36.0,-12.75,17.06,-2.19,-0.75,-0.63,0.13011771508511805,-0.1885880267032856,-0.1738712256878241,-101.6281995958626,63.44422897307763,-24.44399042905254,-0.2791,-0.7751,0.5258,-0.2117
231,3126575.0,3192.898298,1.0,6.12,1.92,-7.65,-36.0,-12.75,17.06,-2.19,-0.75,-0.63,0.13011771508511805,-0.1885880267032856,-0.1738712256878241,-101.6281995958626,63.44422897307763,-24.44399042905254,-0.2791,-0.7751,0.5258,-0.2117
232,3126609.0,3192.934893,1.0,6.01,2.04,-7.59,-36.0,-12.75,17.06,0.12,1.37,0.44,-0.011235292279435871,-0.19115012069092446,-0.08542437292943461,-101.61006514803414,63.471174371632316,-24.39709288880459,-0.2794,-0.775,0.526,-0.2113
233,3126609.0,3192.934893,1.0,6.01,2.04,-7.59,-36.0,-12.75,17.06,0.12,1.37,0.44,-0.011235292279435871,-0.19115012069092446,-0.08542437292943461,-101.61006514803414,63.471174371632316,-24.39709288880459,-0.2794,-0.775,0.526,-0.2113
234,3126646.0,3192.9731739999997,1.0,6.05,2.17,-7.7,-36.75,-12.75,16.87,-2.13,1.37,-1.94,-0.10893878899683253,-0.2071721891330316,-0.22064335485412734,-101.55568290678623,63.484648540415236,-24.350199497398,-0.2802,-0.7747,0.5261,-0.2109
235,3126646.0,3192.9731739999997,1.0,6.05,2.17,-7.7,-36.75,-12.75,16.87,-2.13,1.37,-1.94,-0.10893878899683253,-0.2071721891330316,-0.22064335485412734,-101.55568290678623,63.484648540415236,-24.350199497398,-0.2802,-0.7747,0.5261,-0.2109
236,3126681.0,3193.019612,1.0,5.87,2.3,-7.34,-36.0,-13.19,17.19,-4.13,-1.63,-4.06,-0.2582395299061644,-0.05703694950783024,0.13439281092646382,-101.6281995958626,63.43075774250616,-24.232984111333426,-0.2808,-0.7751,0.5257,-0.2099
237,3126681.0,3193.019612,1.0,5.87,2.3,-7.34,-36.0,-13.19,17.19,-4.13,-1.63,-4.06,-0.2582395299061644,-0.05703694950783024,0.13439281092646382,-101.6281995958626,63.43075774250616,-24.232984111333426,-0.2808,-0.7751,0.5257,-0.2099
238,3126714.0,3193.0522140000003,1.0,5.96,2.15,-7.51,-36.0,-13.19,17.19,-4.19,1.25,-4.75,-0.04752111462781405,-0.1611062927299245,-0.017605010233975094,-101.75523946512085,63.25572065292907,-24.0923596055089,-0.2823,-0.7758,0.5244,-0.2087
239,3126714.0,3193.0522140000003,1.0,5.96,2.15,-7.51,-36.0,-13.19,17.19,-4.19,1.25,-4.75,-0.04752111462781405,-0.1611062927299245,-0.017605010233975094,-101.75523946512085,63.25572065292907,-24.0923596055089,-0.2823,-0.7758,0.5244,-0.2087
240,3126749.0,3193.119494,1.0,6.04,2.08,-7.66,-35.25,-12.38,16.75,2.25,0.12,-1.19,0.04883875585743569,-0.2261599761535253,-0.16481260290397692,-101.75523946512085,63.22880649321045,-24.06892577380089,-0.2825,-0.7758,0.5242,-0.2085
241,3126749.0,3193.119494,1.0,6.04,2.08,-7.66,-35.25,-12.38,16.75,2.25,0.12,-1.19,0.04883875585743569,-0.2261599761535253,-0.16481260290397692,-101.75523946512085,63.22880649321045,-24.06892577380089,-0.2825,-0.7758,0.5242,-0.2085
242,3126786.0,3193.1228929999997,1.0,6.09,2.02,-7.62,-35.69,-13.88,16.75,-0.69,1.56,-2.38,0.12550697050887386,-0.1803784437671827,-0.15249713303191292,-101.84608834311695,63.148087344627434,-24.080642561887807,-0.2823,-0.7763,0.5236,-0.2086
243,3126786.0,3193.1228929999997,1.0,6.09,2.02,-7.62,-35.69,-13.88,16.75,-0.69,1.56,-2.38,0.12550697050887386,-0.1803784437671827,-0.15249713303191292,-101.84608834311695,63.148087344627434,-24.080642561887807,-0.2823,-0.7763,0.5236,-0.2086
244,3126820.0,3193.167155,1.0,6.04,2.12,-7.61,-35.69,-13.88,16.75,-1.12,0.06,-1.06,0.022707261756174102,-0.17957383828540194,-0.13595215521404747,-101.86426876300013,63.12118872806756,-24.04549296367276,-0.2825,-0.7764,0.5234,-0.2083
245,3126820.0,3193.167155,1.0,6.04,2.12,-7.61,-35.69,-13.88,16.75,-1.12,0.06,-1.06,0.022707261756174102,-0.17957383828540194,-0.13595215521404747,-101.86426876300013,63.12118872806756,-24.04549296367276,-0.2825,-0.7764,0.5234,-0.2083
246,3126853.0,3193.200034,1.0,5.88,2.13,-7.51,-36.75,-13.19,18.37,0.44,0.56,0.25,-0.04065184261167909,-0.21696204707521985,0.03614976215028953,-101.84608834311695,63.16153810810004,-24.01034566150753,-0.2824,-0.7763,0.5237,-0.20800000000000002
247,3126853.0,3193.200034,1.0,5.88,2.13,-7.51,-36.75,-13.19,18.37,0.44,0.56,0.25,-0.04065184261167909,-0.21696204707521985,0.03614976215028953,-101.84608834311695,63.16153810810004,-24.01034566150753,-0.2824,-0.7763,0.5237,-0.20800000000000002
248,3126888.0,3193.241252,1.0,6.04,2.09,-7.44,-36.0,-13.5,17.56,-0.44,2.63,-1.5,0.05739550945665117,-0.07974037968199199,-0.0011860114421988757,-101.86426876300013,63.12118872806756,-24.04549296367276,-0.2827,-0.7764,0.5234,-0.2083
249,3126888.0,3193.241252,1.0,6.04,2.09,-7.44,-36.0,-13.5,17.56,-0.44,2.63,-1.5,0.05739550945665117,-0.07974037968199199,-0.0011860114421988757,-101.86426876300013,63.12118872806756,-24.04549296367276,-0.2827,-0.7764,0.5234,-0.2083
250,3126925.0,3193.250808,1.0,5.99,1.91,-7.47,-35.25,-13.19,17.19,0.94,2.69,-1.12,0.2007737916725758,-0.19777619921840264,0.04705602998259195,-101.86426876300013,63.067403125430715,-24.11579445991055,-0.2829,-0.7764,0.523,-0.2089
251,3126925.0,3193.250808,1.0,5.99,1.91,-7.47,-35.25,-13.19,17.19,0.94,2.69,-1.12,0.2007737916725758,-0.19777619921840264,0.04705602998259195,-101.86426876300013,63.067403125430715,-24.11579445991055,-0.2829,-0.7764,0.523,-0.2089
252,3126958.0,3193.285472,1.0,6.16,2.27,-7.52,-35.25,-13.19,17.19,-0.31,1.81,1.0,-0.07574929204748315,-0.016188895819676974,-0.17547902964124518,-101.827911474709,63.067403125430715,-24.150948661500923,-0.2832,-0.7762,0.523,-0.2092
253,3126958.0,3193.285472,1.0,6.16,2.27,-7.52,-35.25,-13.19,17.19,-0.31,1.81,1.0,-0.07574929204748315,-0.016188895819676974,-0.17547902964124518,-101.827911474709,63.067403125430715,-24.150948661500923,-0.2832,-0.7762,0.523,-0.2092
