acc_x,acc_y,acc_z,lin_x,lin_y,lin_z,eul_x,eul_y,eul_z
2.34,2.95,-9.09,0.0186818440378604,-0.0389548725384953,-0.0322693261561433,-154.58200075536982,-11.547444362906596,-15.52880488350912
2.34,2.95,-9.09,0.0186818440378604,-0.0389548725384953,-0.0322693261561433,-154.58200075536982,-11.547444362906596,-15.52880488350912
2.2,2.87,-9.14,-0.1359263282497831,-0.0881101599031177,-0.0213844236785423,-154.63414056108863,-11.547444362906596,-15.505674829864253
2.2,2.87,-9.14,-0.1359263282497831,-0.0881101599031177,-0.0213844236785423,-154.63414056108863,-11.547444362906596,-15.505674829864253
2.12,2.99,-8.99,-0.1432860258112251,0.0803146521665316,0.099558846031444,-154.63414056108863,-11.535926836248436,-15.470980940849389
2.12,2.99,-8.99,-0.1432860258112251,0.0803146521665316,0.099558846031444,-154.63414056108863,-11.535926836248436,-15.470980940849389
2.22,2.93,-9.18,-0.1134403957109443,-0.0469452765358071,-0.0812530849635617,-154.63414056108863,-11.547444362906596,-15.470980940849389
2.22,2.93,-9.18,-0.1134403957109443,-0.0469452765358071,-0.0812530849635617,-154.63414056108863,-11.547444362906596,-15.470980940849389
2.08,3.06,-9.23,-0.2339972584823417,0.0952222164903637,-0.1341285415685345,-154.63414056108863,-11.535926836248436,-15.436288478593855
2.08,3.06,-9.23,-0.2339972584823417,0.0952222164903637,-0.1341285415685345,-154.63414056108863,-11.535926836248436,-15.436288478593855
1.99,3.02,-9.62,-0.4330305240364317,-0.0202519995879491,-0.4616007965945901,-154.68638599830706,-11.512892133606984,-15.401597439742238
1.99,3.02,-9.62,-0.4330305240364317,-0.0202519995879491,-0.4616007965945901,-154.68638599830706,-11.512892133606984,-15.401597439742238
1.47,3.57,-9.75,-0.8635594077306387,0.5588940762334527,-0.629355105444855,-154.63414056108863,-11.570479767497384,-15.332219618835126
1.47,3.57,-9.75,-0.8635594077306387,0.5588940762334527,-0.629355105444855,-154.63414056108863,-11.570479767497384,-15.332219618835126
1.4,3.93,-9.98,-0.9152982911107264,0.7969722405163159,-0.9419482474988872,-154.42620867150097,-11.766299745968876,-15.205041610922963
1.4,3.93,-9.98,-0.9152982911107264,0.7969722405163159,-0.9419482474988872,-154.42620867150097,-11.766299745968876,-15.205041610922963
1.36,4.07,-9.91,-0.8516289405672252,0.9409031635176284,-0.9177161530400432,-154.27134430279995,-12.296340166976414,-14.996972698908555
1.36,4.07,-9.91,-0.8516289405672252,0.9409031635176284,-0.9177161530400432,-154.27134430279995,-12.296340166976414,-14.996972698908555
0.95,4.22,-9.68,-1.0058874991345006,1.2215012063785602,-0.6771196055331483,-154.3228637180319,-12.861239362009446,-14.338412369029564
0.95,4.22,-9.68,-1.0058874991345006,1.2215012063785602,-0.6771196055331483,-154.3228637180319,-12.861239362009446,-14.338412369029564
0.52,4.63,-8.09,-0.6434121778763767,2.1586643908697454,0.7467609931218641,-154.79119639620873,-13.899637842978937,-13.103434321670449
0.52,4.63,-8.09,-0.6434121778763767,2.1586643908697454,0.7467609931218641,-154.79119639620873,-13.899637842978937,-13.103434321670449
0.56,3.98,-7.98,-0.5607471084885901,1.653478394651545,1.043889482974432,-154.73873772257048,-15.158799741488714,-12.596044357776794
0.56,3.98,-7.98,-0.5607471084885901,1.653478394651545,1.043889482974432,-154.73873772257048,-15.158799741488714,-12.596044357776794
0.96,3.66,-7.48,0.000360954216764,1.484999343851615,1.5566574655505114,-154.01525359440276,-17.3929494210965,-12.50381856554563
0.96,3.66,-7.48,0.000360954216764,1.484999343851615,1.5566574655505114,-154.01525359440276,-17.3929494210965,-12.50381856554563
2.02,3.61,-7.61,0.958369754543903,1.136946352989625,1.2735684696266318,-152.81901206638815,-19.412860145181693,-13.034229810442689
2.02,3.61,-7.61,0.958369754543903,1.136946352989625,1.2735684696266318,-152.81901206638815,-19.412860145181693,-13.034229810442689
2.09,3.31,-7.06,1.0335846357152865,1.042481279873413,1.868593841095178,-150.56941987552764,-22.44271531767953,-14.315313760812993
2.09,3.31,-7.06,1.0335846357152865,1.042481279873413,1.868593841095178,-150.56941987552764,-22.44271531767953,-14.315313760812993
3.28,1.65,-7.34,1.2155643698905492,-0.8678933236761732,1.7366026369809369,-148.26644461114088,-24.88972570037191,-16.072546557241562
3.28,1.65,-7.34,1.2155643698905492,-0.8678933236761732,1.7366026369809369,-148.26644461114088,-24.88972570037191,-16.072546557241562
3.52,1.21,-6.91,1.0512061712403873,-1.2251738828977707,2.1257311394592007,-144.9554604078314,-27.796689641349,-18.541499822002773
3.52,1.21,-6.91,1.0512061712403873,-1.2251738828977707,2.1257311394592007,-144.9554604078314,-27.796689641349,-18.541499822002773
4.27,0.73,-7.25,0.9813005952900264,-1.9792194013601687,1.6550832976437668,-142.20517991761645,-29.74868303296809,-20.879328419459103
4.27,0.73,-7.25,0.9813005952900264,-1.9792194013601687,1.6550832976437668,-142.20517991761645,-29.74868303296809,-20.879328419459103
5.21,0.83,-8.08,0.7948822143487597,-2.3583789663375017,0.483259473134309,-138.26285199839916,-31.924028325694472,-24.58470803246293
5.21,0.83,-8.08,0.7948822143487597,-2.3583789663375017,0.483259473134309,-138.26285199839916,-31.924028325694472,-24.58470803246293
5.42,0.86,-8.15,0.4057447566577995,-2.4223696455029025,0.293186041325912,-135.45749811569678,-33.105742400688804,-27.47807034873948
5.42,0.86,-8.15,0.4057447566577995,-2.4223696455029025,0.293186041325912,-135.45749811569678,-33.105742400688804,-27.47807034873948
6.57,1.72,-8.86,0.4295249456014886,-2.311690588892604,-1.1063924237391891,-131.67829939723129,-33.9794256257345,-31.876356399703745
6.57,1.72,-8.86,0.4295249456014886,-2.311690588892604,-1.1063924237391891,-131.67829939723129,-33.9794256257345,-31.876356399703745
7.13,1.95,-9.34,-0.2400526532766808,-2.372964524815464,-1.8632434908430948,-128.31613447366578,-34.14721243955784,-36.09435595913239
7.13,1.95,-9.34,-0.2400526532766808,-2.372964524815464,-1.8632434908430948,-128.31613447366578,-34.14721243955784,-36.09435595913239
6.86,2.05,-9.35,-0.8862467241077874,-2.100085646064416,-1.7470856306608642,-126.76054091134182,-33.3449084936511,-38.61039417078352
6.86,2.05,-9.35,-0.8862467241077874,-2.100085646064416,-1.7470856306608642,-126.76054091134182,-33.3449084936511,-38.61039417078352
7.11,2.52,-9.52,-1.1669729323051756,-1.8160940619008712,-2.146294262130372,-125.62096841990898,-31.626171458397582,-41.19490148271794
7.11,2.52,-9.52,-1.1669729323051756,-1.8160940619008712,-2.146294262130372,-125.62096841990898,-31.626171458397582,-41.19490148271794
7.09,3.2,-9.19,-0.953283067865156,-1.2427653600945134,-2.1311465157842555,-125.47069041747116,-29.772396589189743,-42.47073434166396
7.09,3.2,-9.19,-0.953283067865156,-1.2427653600945134,-2.1311465157842555,-125.47069041747116,-29.772396589189743,-42.47073434166396
7.02,3.94,-9.33,-1.0492819806994764,-0.6116610123103392,-2.4562117431250083,-126.12469119973764,-26.817917077101303,-43.29558684746807
7.02,3.94,-9.33,-1.0492819806994764,-0.6116610123103392,-2.4562117431250083,-126.12469119973764,-26.817917077101303,-43.29558684746807
6.53,4.0,-8.95,-1.0621074606751135,-0.2693724023982549,-1.9212128168479392,-127.40350962041992,-24.40881688456287,-43.0983947119019
6.53,4.0,-8.95,-1.0621074606751135,-0.2693724023982549,-1.9212128168479392,-127.40350962041992,-24.40881688456287,-43.0983947119019
5.37,4.54,-8.46,-1.2176833870902148,0.8551581247692366,-1.0931688861304298,-129.67350949211158,-21.263965423591053,-42.12670509670736
5.37,4.54,-8.46,-1.2176833870902148,0.8551581247692366,-1.0931688861304298,-129.67350949211158,-21.263965423591053,-42.12670509670736
5.65,4.51,-8.64,-1.0192035139782445,0.8294153239123254,-1.3819823747611757,-131.51059102084358,-19.250121718432275,-41.182660023882
5.65,4.51,-8.64,-1.0192035139782445,0.8294153239123254,-1.3819823747611757,-131.51059102084358,-19.250121718432275,-41.182660023882
5.04,5.42,-8.22,-0.6541129669199646,2.1284900995653526,-1.0279273393593655,-134.6778353365212,-16.79038251334145,-38.97485427752672
5.04,5.42,-8.22,-0.6541129669199646,2.1284900995653526,-1.0279273393593655,-134.6778353365212,-16.79038251334145,-38.97485427752672
4.88,5.24,-8.01,-0.3873569029604706,2.232122073986461,-0.6957157180918649,-137.088392741319,-15.401597439742238,-37.192829183479816
4.88,5.24,-8.01,-0.3873569029604706,2.232122073986461,-0.6957157180918649,-137.088392741319,-15.401597439742238,-37.192829183479816
4.68,3.55,-7.78,-0.3012625745110145,1.030160465327627,0.1174131736614594,-139.96897956123578,-14.407711711634985,-35.01131860953798
4.68,3.55,-7.78,-0.3012625745110145,1.030160465327627,0.1174131736614594,-139.96897956123578,-14.407711711634985,-35.01131860953798
4.75,3.11,-8.18,-0.1985120116448237,0.7974825138334587,-0.1166364828827077,-142.45363711540872,-13.726494094235369,-33.069880307180426
4.75,3.11,-8.18,-0.1985120116448237,0.7974825138334587,-0.1166364828827077,-142.45363711540872,-13.726494094235369,-33.069880307180426
4.64,2.75,-7.98,0.0631894225426872,0.6760983790991589,0.1987679191947684,-144.42647704464702,-13.39183842112712,-31.388043844509305
4.64,2.75,-7.98,0.0631894225426872,0.6760983790991589,0.1987679191947684,-144.42647704464702,-13.39183842112712,-31.388043844509305
4.66,1.98,-8.01,0.2790340731281984,0.1620946000745396,0.3360657874680104,-146.71084020226166,-13.103434321670449,-29.44052495534397
4.66,1.98,-8.01,0.2790340731281984,0.1620946000745396,0.3360657874680104,-146.71084020226166,-13.103434321670449,-29.44052495534397
4.46,1.63,-8.39,0.0675186773692172,-0.0155609453272927,0.1663284760472407,-147.97436096195162,-12.999629346780694,-28.28093937794029
4.46,1.63,-8.39,0.0675186773692172,-0.0155609453272927,0.1663284760472407,-147.97436096195162,-12.999629346780694,-28.28093937794029
4.71,1.6,-8.72,0.4356719156458665,0.0600449860500885,-0.2227609787947049,-149.900178159723,-12.642160322280048,-26.582368805630427
4.71,1.6,-8.72,0.4356719156458665,0.0600449860500885,-0.2227609787947049,-149.900178159723,-12.642160322280048,-26.582368805630427
4.49,1.13,-8.49,0.4687006053935328,-0.2145396810906476,0.1499739431085149,-151.20776005427302,-12.423127669242316,-25.42981308247912
4.49,1.13,-8.49,0.4687006053935328,-0.2145396810906476,0.1499739431085149,-151.20776005427302,-12.423127669242316,-25.42981308247912
4.31,1.35,-8.95,0.4391876170732029,0.1443388132957646,-0.2077087185593633,-152.81901206638815,-12.100425506938455,-23.858067126010045
4.31,1.35,-8.95,0.4391876170732029,0.1443388132957646,-0.2077087185593633,-152.81901206638815,-12.100425506938455,-23.858067126010045
3.58,1.0,-8.63,0.1013902564633106,0.1001381982853327,0.4112792059792341,-154.47803544959174,-11.628070333672753,-22.41935080242252
3.58,1.0,-8.63,0.1013902564633106,0.1001381982853327,0.4112792059792341,-154.47803544959174,-11.628070333672753,-22.41935080242252
3.14,0.82,-8.37,-0.0840068407522725,0.0865969024327356,0.8303287141281572,-155.4292933262199,-11.4092417341199,-21.53218888989049
3.14,0.82,-8.37,-0.0840068407522725,0.0865969024327356,0.8303287141281572,-155.4292933262199,-11.4092417341199,-21.53218888989049
2.81,0.85,-8.17,-0.1891180165396899,0.2260631020492529,1.130208917983019,-156.0841409493743,-11.38620958683243,-20.79776947557341
2.81,0.85,-8.17,-0.1891180165396899,0.2260631020492529,1.130208917983019,-156.0841409493743,-11.38620958683243,-20.79776947557341
3.07,0.49,-8.51,-0.0457877906544433,-0.0729752081009458,0.7469768217209101,-156.70033876277134,-11.19045487105573,-20.27371434520358
3.07,0.49,-8.51,-0.0457877906544433,-0.0729752081009458,0.7469768217209101,-156.70033876277134,-11.19045487105573,-20.27371434520358
3.12,0.59,-8.67,0.0432984542613109,0.0866389346602037,0.5739895524984497,-157.21671751944734,-11.017757342406153,-19.81987998842397
3.12,0.59,-8.67,0.0432984542613109,0.0866389346602037,0.5739895524984497,-157.21671751944734,-11.017757342406153,-19.81987998842397
3.03,0.35,-8.67,-0.0545603011603395,-0.1018301958731677,0.6164947355474055,-157.44996317553057,-10.960197096754332,-19.6570420373131
3.03,0.35,-8.67,-0.0545603011603395,-0.1018301958731677,0.6164947355474055,-157.44996317553057,-10.960197096754332,-19.6570420373131
3.16,0.86,-8.89,0.1064739209945032,0.3869617937347432,0.3411218121840846,-157.6264722380801,-10.822063795614437,-19.52912606682039
3.16,0.86,-8.89,0.1064739209945032,0.3869617937347432,0.3411218121840846,-157.6264722380801,-10.822063795614437,-19.52912606682039
2.82,0.52,-8.82,-0.2235246022576972,0.1430349939030021,0.5360093671901645,-157.80436691060555,-10.67243717618693,-19.40123466474733
2.82,0.52,-8.82,-0.2235246022576972,0.1430349939030021,0.5360093671901645,-157.80436691060555,-10.67243717618693,-19.40123466474733
2.78,0.16,-8.58,-0.2381598302384029,-0.166912151793052,0.7907850814885933,-157.863978815261,-10.591876570929834,-19.37798430858409
2.78,0.16,-8.58,-0.2381598302384029,-0.166912151793052,0.7907850814885933,-157.863978815261,-10.591876570929834,-19.37798430858409
3.07,0.29,-8.4,0.0618167683369442,-0.1035446450709888,0.8593343582206465,-157.6264722380801,-10.52282880334764,-19.703563060929827
3.07,0.29,-8.4,0.0618167683369442,-0.1035446450709888,0.8593343582206465,-157.6264722380801,-10.52282880334764,-19.703563060929827
3.12,0.36,-8.31,-0.028878838865775,-0.0829063089000594,0.9233852534887071,-156.58711361479934,-10.419264327291232,-20.83272200177108
3.12,0.36,-8.31,-0.028878838865775,-0.0829063089000594,0.9233852534887071,-156.58711361479934,-10.419264327291232,-20.83272200177108
2.67,0.29,-6.68,-0.0856386258694217,-0.1552692700135162,2.609153388014088,-155.16145880106285,-10.37323841550224,-22.466080778094224
2.67,0.29,-6.68,-0.0856386258694217,-0.1552692700135162,2.609153388014088,-155.16145880106285,-10.37323841550224,-22.466080778094224
4.43,0.52,-7.49,0.5495011763295002,-0.3953959922303861,1.1154411964709627,-150.84131999821054,-10.534336497867196,-26.923951406436
4.43,0.52,-7.49,0.5495011763295002,-0.3953959922303861,1.1154411964709627,-150.84131999821054,-10.534336497867196,-26.923951406436
5.11,1.37,-7.6,0.7640640801858913,0.139036343593669,0.5791977526822247,-148.0992206918234,-10.465291924669184,-29.72497078004789
5.11,1.37,-7.6,0.7640640801858913,0.139036343593669,0.5791977526822247,-148.0992206918234,-10.465291924669184,-29.72497078004789
5.21,1.07,-6.43,0.7606551640297927,-0.3323735103168779,1.503347550307199,-143.86802831777294,-10.304202691653051,-33.90753998612701
5.21,1.07,-6.43,0.7606551640297927,-0.3323735103168779,1.503347550307199,-143.86802831777294,-10.304202691653051,-33.90753998612701
5.46,3.17,-6.11,0.665802813370788,1.3756983212671046,1.1546698369060966,-138.71555439166974,-10.465291924669184,-38.78042477210455
5.46,3.17,-6.11,0.665802813370788,1.3756983212671046,1.1546698369060966,-138.71555439166974,-10.465291924669184,-38.78042477210455
6.47,2.73,-6.71,-0.3110747213286787,0.2975220619660426,0.1034230552978527,-130.6800872399157,-11.2825706212041,-46.35737642818546
6.47,2.73,-6.71,-0.3110747213286787,0.2975220619660426,0.1034230552978527,-130.6800872399157,-11.2825706212041,-46.35737642818546
8.1,2.81,-6.55,-0.3375552180126261,-0.3694087205250038,-0.971021069020086,-123.91521633901591,-11.593515641253694,-52.71875358132653
8.1,2.81,-6.55,-0.3375552180126261,-0.3694087205250038,-0.971021069020086,-123.91521633901591,-11.593515641253694,-52.71875358132653
7.78,4.09,-5.22,-0.1305784491925818,0.8624825251266706,-0.3788285436157873,-119.46918424877704,-11.639588800101585,-56.861990212559824
7.78,4.09,-5.22,-0.1305784491925818,0.8624825251266706,-0.3788285436157873,-119.46918424877704,-11.639588800101585,-56.861990212559824
8.5,3.68,-4.74,-0.4263766748047404,0.1209265290294694,-0.5887133753591964,-113.58654197734045,-11.674144907935558,-62.5303947029574
8.5,3.68,-4.74,-0.4263766748047404,0.1209265290294694,-0.5887133753591964,-113.58654197734045,-11.674144907935558,-62.5303947029574
8.21,3.51,-3.03,0.2782072610625964,0.1525111217387249,0.3830391698755893,-109.29346359122704,-11.685663847129462,-66.65172039063913
8.21,3.51,-3.03,0.2782072610625964,0.1525111217387249,0.3830391698755893,-109.29346359122704,-11.685663847129462,-66.65172039063913
8.91,4.41,-3.05,-0.7438569679751551,0.4632890325629546,-0.5553353350360268,-102.08271174423224,-11.939110700430106,-73.38211475609262
8.91,4.41,-3.05,-0.7438569679751551,0.4632890325629546,-0.5553353350360268,-102.08271174423224,-11.939110700430106,-73.38211475609262
10.48,5.27,-3.24,-1.41759389587928,0.5070006171312489,-2.2695363980560703,-97.91103310726488,-11.881504040605064,-77.34969619182397
10.48,5.27,-3.24,-1.41759389587928,0.5070006171312489,-2.2695363980560703,-97.91103310726488,-11.881504040605064,-77.34969619182397
8.41,5.37,-1.23,-0.435966549539473,1.4478357155675845,-0.1327466068574576,-94.26013087807388,-12.538402281482076,-80.64661893327633
8.41,5.37,-1.23,-0.435966549539473,1.4478357155675845,-0.1327466068574576,-94.26013087807388,-12.538402281482076,-80.64661893327633
9.88,5.54,-2.7,-2.1500930600867068,0.6640003448469702,-1.6184190752839704,-91.5982564564804,-13.553381828311744,-82.96633660527758
9.88,5.54,-2.7,-2.1500930600867068,0.6640003448469702,-1.6184190752839704,-91.5982564564804,-13.553381828311744,-82.96633660527758
8.79,5.62,-1.69,-1.3094820324779082,1.1197174203898204,-0.621009838386227,-90.73049055841386,-14.962299399917931,-83.44139093704848
8.79,5.62,-1.69,-1.3094820324779082,1.1197174203898204,-0.621009838386227,-90.73049055841386,-14.962299399917931,-83.44139093704848
8.31,6.54,-0.78,-0.3286692916277811,2.1085250089952963,-0.5799855853655647,-91.12261073839296,-16.1419863535435,-82.76763818442198
8.31,6.54,-0.78,-0.3286692916277811,2.1085250089952963,-0.5799855853655647,-91.12261073839296,-16.1419863535435,-82.76763818442198
11.51,4.56,-3.48,-2.574268834232952,-1.3647175496938249,-2.7191148859722154,-90.91004306520378,-18.88991127772655,-82.58449333969773
11.51,4.56,-3.48,-2.574268834232952,-1.3647175496938249,-2.7191148859722154,-90.91004306520378,-18.88991127772655,-82.58449333969773
9.78,4.32,-2.2,-0.6721357836607308,-0.862089898063668,-1.0540974188464285,-94.31067299052192,-20.82107094211026,-78.7806470501436
9.78,4.32,-2.2,-0.6721357836607308,-0.862089898063668,-1.0540974188464285,-94.31067299052192,-20.82107094211026,-78.7806470501436
10.47,3.51,-3.23,-0.8578046833862414,-1.950277021292788,-1.4997415846470634,-97.98086184027687,-21.660511797125544,-74.91892947359995
10.47,3.51,-3.23,-0.8578046833862414,-1.950277021292788,-1.4997415846470634,-97.98086184027687,-21.660511797125544,-74.91892947359995
9.89,1.46,-2.23,0.9304035332442396,-3.347196190815558,0.1709234095701699,-104.1843158106976,-21.78886220109525,-68.90182937625673
9.89,1.46,-2.23,0.9304035332442396,-3.347196190815558,0.1709234095701699,-104.1843158106976,-21.78886220109525,-68.90182937625673
9.33,2.8,-3.54,0.2863100852570706,-1.8798808953629813,-0.381802991221452,-107.452610813999,-20.995859763455265,-65.81713593554738
9.33,2.8,-3.54,0.2863100852570706,-1.8798808953629813,-0.381802991221452,-107.452610813999,-20.995859763455265,-65.81713593554738
10.0,2.48,-5.12,-0.2473314713137121,-2.447259253465518,-1.432324565752216,-111.2987386824523,-19.598895357607173,-62.32941069730318
10.0,2.48,-5.12,-0.2473314713137121,-2.447259253465518,-1.432324565752216,-111.2987386824523,-19.598895357607173,-62.32941069730318
6.99,2.54,-2.81,1.2207480196522904,-0.7739922030116404,1.988817158208601,-115.96798233708935,-17.81039419409229,-58.15602096155954
6.99,2.54,-2.81,1.2207480196522904,-0.7739922030116404,1.988817158208601,-115.96798233708935,-17.81039419409229,-58.15602096155954
7.11,2.35,-3.9,0.8114976196454968,-0.913746514789318,1.4525408960907082,-119.87969568097152,-15.436288478593855,-54.8516623694969
7.11,2.35,-3.9,0.8114976196454968,-0.913746514789318,1.4525408960907082,-119.87969568097152,-15.436288478593855,-54.8516623694969
8.46,3.15,-5.97,0.2002056486519463,-0.796042071558408,-0.9850706560657834,-121.99534211175566,-13.426452603767608,-53.153985232120654
8.46,3.15,-5.97,0.2002056486519463,-0.796042071558408,-0.9850706560657834,-121.99534211175566,-13.426452603767608,-53.153985232120654
6.16,3.47,-4.17,0.7821032287778533,0.746901504038155,1.6699521020317576,-126.02359896120804,-10.246675787285364,-49.66917497940315
6.16,3.47,-4.17,0.7821032287778533,0.746901504038155,1.6699521020317576,-126.02359896120804,-10.246675787285364,-49.66917497940315
6.69,3.4,-5.77,0.0811943455040406,0.3734719026424755,0.3481656491013414,-128.05386288415187,-7.522608280519941,-47.95777627551156
6.69,3.4,-5.77,0.0811943455040406,0.3734719026424755,0.3481656491013414,-128.05386288415187,-7.522608280519941,-47.95777627551156
7.27,2.61,-6.14,0.3764143610347711,-0.4389015200738344,-0.0437447984069958,-129.51205087236005,-5.456620099259026,-46.70663424071843
7.27,2.61,-6.14,0.3764143610347711,-0.4389015200738344,-0.0437447984069958,-129.51205087236005,-5.456620099259026,-46.70663424071843
6.3,4.15,-5.76,0.0612053003281499,1.4313805721563202,0.4238197463470445,-131.14907903681728,-2.4180613422720283,-45.02686284001362
6.3,4.15,-5.76,0.0612053003281499,1.4313805721563202,0.4238197463470445,-131.14907903681728,-2.4180613422720283,-45.02686284001362
6.63,3.33,-6.43,-0.0254817060280802,0.5208766824795941,0.0026335697655586,-131.98719464152978,-0.5271230305187238,-44.12280269978493
6.63,3.33,-6.43,-0.0254817060280802,0.5208766824795941,0.0026335697655586,-131.98719464152978,-0.5271230305187238,-44.12280269978493
6.47,4.39,-6.99,-0.5559528913053295,1.4717624037401331,-0.5624353892513732,-132.95401941873996,1.9710720103882065,-42.852092757216354
6.47,4.39,-6.99,-0.5559528913053295,1.4717624037401331,-0.5624353892513732,-132.95401941873996,1.9710720103882065,-42.852092757216354
5.14,4.34,-6.22,-0.9004299404749534,1.825578278294721,0.8735603960547493,-133.9692588477758,3.266301709643329,-41.62366360590611
5.14,4.34,-6.22,-0.9004299404749534,1.825578278294721,0.8735603960547493,-133.9692588477758,3.266301709643329,-41.62366360590611
4.84,4.27,-6.2,-1.0223240584985531,1.8412845419951405,1.1082004395998926,-134.8267795347168,4.779853967883568,-40.5101308906298
4.84,4.27,-6.2,-1.0223240584985531,1.8412845419951405,1.1082004395998926,-134.8267795347168,4.779853967883568,-40.5101308906298
5.55,3.55,-7.03,-0.8424995015702272,0.9165403933908356,0.2528000798297612,-135.09605869286386,5.468092286497271,-40.16831276292925
5.55,3.55,-7.03,-0.8424995015702272,0.9165403933908356,0.2528000798297612,-135.09605869286386,5.468092286497271,-40.16831276292925
5.59,3.34,-7.09,-0.7816662093404236,0.7260089796335081,0.2393249350371267,-135.30656135192416,5.582817194583068,-39.98534936807032
5.59,3.34,-7.09,-0.7816662093404236,0.7260089796335081,0.2393249350371267,-135.30656135192416,5.582817194583068,-39.98534936807032
5.82,3.18,-6.86,-0.4287237097062601,0.6523502779784514,0.2969162973373844,-135.336709981557,5.628708719478254,-39.948769456648414
5.82,3.18,-6.86,-0.4287237097062601,0.6523502779784514,0.2969162973373844,-135.336709981557,5.628708719478254,-39.948769456648414
6.11,2.69,-7.0,-0.1936540169287424,0.1413657790738949,0.136556213576096,-135.3668779333915,5.479564528582773,-39.96096228867753
6.11,2.69,-7.0,-0.1936540169287424,0.1413657790738949,0.136556213576096,-135.3668779333915,5.479564528582773,-39.96096228867753
6.29,2.46,-7.2,-0.1413840115437702,-0.1481146359367706,-0.0631915699493923,-135.3668779333915,5.204245622111723,-40.0463253316736
6.29,2.46,-7.2,-0.1413840115437702,-0.1481146359367706,-0.0631915699493923,-135.3668779333915,5.204245622111723,-40.0463253316736
6.4,2.46,-7.1,0.0028967555054717,-0.1312380718524626,-0.0627151354737112,-135.397065246721,4.745446786894516,-40.13171155486349
6.4,2.46,-7.1,0.0028967555054717,-0.1312380718524626,-0.0627151354737112,-135.397065246721,4.745446786894516,-40.13171155486349
6.63,2.58,-7.42,-0.0389691957117105,-0.1364598641109231,-0.4719471857677355,-135.397065246721,4.584885551911774,-40.13171155486349
6.63,2.58,-7.42,-0.0389691957117105,-0.1364598641109231,-0.4719471857677355,-135.397065246721,4.584885551911774,-40.13171155486349
6.32,2.62,-7.19,-0.1235016574401555,-0.0207419387347016,-0.1174226071803321,-135.4877437505904,4.49314033842009,-40.05852194281655
6.32,2.62,-7.19,-0.1235016574401555,-0.0207419387347016,-0.1174226071803321,-135.4877437505904,4.49314033842009,-40.05852194281655
6.23,2.8,-7.06,-0.1369010055452588,0.1764286731864059,-0.0140745678696454,-135.4877437505904,4.401398006442045,-40.0341291935956
6.23,2.8,-7.06,-0.1369010055452588,0.1764286731864059,-0.0140745678696454,-135.4877437505904,4.401398006442045,-40.0341291935956
6.31,2.41,-7.03,0.0113924998330343,-0.1778717756348495,0.0591717700997112,-135.5180089054747,4.298191253728037,-40.05852194281655
6.31,2.41,-7.03,0.0113924998330343,-0.1778717756348495,0.0591717700997112,-135.5180089054747,4.298191253728037,-40.05852194281655
6.33,2.64,-7.2,-0.1259999906394515,-0.0223679654206954,-0.1362934111072888,-135.45749811569678,4.206454848857137,-40.1073131219034
6.33,2.64,-7.2,-0.1259999906394515,-0.0223679654206954,-0.1362934111072888,-135.45749811569678,4.206454848857137,-40.1073131219034
6.45,2.61,-7.43,-0.1784867059232677,-0.134124873037795,-0.370267657829471,-135.42727196097036,4.11472114096103,-40.15611188549902
6.45,2.61,-7.43,-0.1784867059232677,-0.134124873037795,-0.370267657829471,-135.42727196097036,4.11472114096103,-40.15611188549902
6.27,2.66,-7.09,-0.0992600392484613,0.0310531889052194,-0.0242087185488149,-135.5180089054747,4.11472114096103,-40.08291658507028
6.27,2.66,-7.09,-0.0992600392484613,0.0310531889052194,-0.0242087185488149,-135.5180089054747,4.11472114096103,-40.08291658507028
6.29,2.6,-7.2,-0.1374603844661625,-0.0615211571494114,-0.0999851396387576,-135.54829362030736,4.103254614165427,-40.05852194281655
6.29,2.6,-7.2,-0.1374603844661625,-0.0615211571494114,-0.0999851396387576,-135.54829362030736,4.103254614165427,-40.05852194281655
6.16,2.58,-7.19,-0.2087496514350458,-0.0706730424029178,-0.0040344258748508,-135.63926552609755,4.034456312516312,-39.96096228867753
6.16,2.58,-7.19,-0.2087496514350458,-0.0706730424029178,-0.0040344258748508,-135.63926552609755,4.034456312516312,-39.96096228867753
6.26,2.6,-7.22,-0.1587082243932891,-0.050695038158526,-0.0952812112646004,-135.63926552609755,4.034456312516312,-39.98534936807032
6.26,2.6,-7.22,-0.1587082243932891,-0.050695038158526,-0.0952812112646004,-135.63926552609755,4.034456312516312,-39.98534936807032
6.31,2.66,-7.19,-0.117334497919259,0.0011879286471587,-0.1217955583149361,-135.57859793518082,4.057388916858228,-40.009738335861776
6.31,2.66,-7.19,-0.117334497919259,0.0011879286471587,-0.1217955583149361,-135.57859793518082,4.057388916858228,-40.009738335861776
6.36,2.72,-7.4,-0.2012831522587524,-0.0049111838362914,-0.3209094776278718,-135.7000120016838,4.080321683767285,-39.9000028418168
6.36,2.72,-7.4,-0.2012831522587524,-0.0049111838362914,-0.3209094776278718,-135.7000120016838,4.080321683767285,-39.9000028418168
6.12,2.68,-7.0,-0.1124709863515913,0.0978391049583162,0.1311873347436201,-135.79128033679729,4.11472114096103,-39.79030547860814
6.12,2.68,-7.0,-0.1124709863515913,0.0978391049583162,0.1311873347436201,-135.79128033679729,4.11472114096103,-39.79030547860814
6.18,2.86,-7.19,-0.193845997462436,0.1970793173355114,-0.0924248796009408,-135.88272800413355,4.149120969117045,-39.656282501806686
6.18,2.86,-7.19,-0.193845997462436,0.1970793173355114,-0.0924248796009408,-135.88272800413355,4.149120969117045,-39.656282501806686
6.19,2.58,-7.26,-0.1777513015933148,-0.0933463009787589,-0.0746348831958823,-135.88272800413355,4.103254614165427,-39.64410140012821
6.19,2.58,-7.26,-0.1777513015933148,-0.0933463009787589,-0.0746348831958823,-135.88272800413355,4.103254614165427,-39.64410140012821
6.34,2.67,-7.29,-0.0898620203634206,-0.0270673235136951,-0.2163132433374706,-135.91325060474233,4.160587661476331,-39.5953816587114
6.34,2.67,-7.29,-0.0898620203634206,-0.0270673235136951,-0.2163132433374706,-135.91325060474233,4.160587661476331,-39.5953816587114
6.12,2.7,-7.07,-0.1203420907088666,0.0748145512651965,0.0747837573863634,-135.94379329724794,4.160587661476331,-39.54666937259589
6.12,2.7,-7.07,-0.1203420907088666,0.0748145512651965,0.0747837573863634,-135.94379329724794,4.160587661476331,-39.54666937259589
6.22,2.59,-7.12,-0.0598330032240787,-0.0578117419622445,0.0044064907712808,-135.91325060474233,4.11472114096103,-39.58320288872564
6.22,2.59,-7.12,-0.0598330032240787,-0.0578117419622445,0.0044064907712808,-135.91325060474233,4.11472114096103,-39.58320288872564
6.32,2.61,-7.27,-0.0768039214233255,-0.085219431451341,-0.1730413181799903,-135.91325060474233,4.1720543955147065,-39.558846745858816
6.32,2.61,-7.27,-0.0768039214233255,-0.085219431451341,-0.1730413181799903,-135.91325060474233,4.1720543955147065,-39.558846745858816
6.27,2.63,-7.15,-0.0442129713325144,-0.0301521339084467,-0.0599317820553562,-135.91325060474233,4.229388694927676,-39.54666937259589
6.27,2.63,-7.15,-0.0442129713325144,-0.0301521339084467,-0.0599317820553562,-135.91325060474233,4.229388694927676,-39.54666937259589
