,TIME,ELAPSED_SECONDS,PSTATE,acc_x,acc_y,acc_z,mag_x,mag_y,mag_z,gyr_x,gyr_y,gyr_z,lin_x,lin_y,lin_z,eul_x,eul_y,eul_z,qua_w,qua_x,qua_y,qua_z
0,2021670.0,503.324984,1.0,4.93,3.94,-7.46,-21.56,-30.5,21.06,0.81,2.13,0.37,-0.23058285164055925,-0.26360814360379203,0.04153646788194898,-136.96325573717925,7.6374510050387485,-30.674489682178663,-0.2452,-0.9303,0.0666,-0.2645
1,2021670.0,503.324984,1.0,4.93,3.94,-7.46,-21.56,-30.5,21.06,0.81,2.13,0.37,-0.23058285164055925,-0.26360814360379203,0.04153646788194898,-136.96325573717925,7.6374510050387485,-30.674489682178663,-0.2452,-0.9303,0.0666,-0.2645
2,2021705.0,503.33268200000003,1.0,5.23,4.23,-7.54,-21.56,-30.5,21.06,-2.38,2.5,2.44,-0.10092998638651092,-0.056930482804332,-0.2970113194413688,-136.8696299695147,7.706360320042279,-30.74578979374247,-0.2455,-0.93,0.0672,-0.2651
3,2021705.0,503.33268200000003,1.0,5.23,4.23,-7.54,-21.56,-30.5,21.06,-2.38,2.5,2.44,-0.10092998638651092,-0.056930482804332,-0.2970113194413688,-136.8696299695147,7.706360320042279,-30.74578979374247,-0.2455,-0.93,0.0672,-0.2651
4,2021738.0,503.37305599999996,1.0,5.47,4.46,-7.53,-21.19,-30.87,21.5,-1.63,1.69,3.0,0.03315058868863255,0.14216239990305102,-0.5128505155542022,-136.77619735313192,7.775272426130343,-30.817102104618424,-0.2458,-0.9297,0.0678,-0.2657
5,2021738.0,503.37305599999996,1.0,5.47,4.46,-7.53,-21.19,-30.87,21.5,-1.63,1.69,3.0,0.03315058868863255,0.14216239990305102,-0.5128505155542022,-136.77619735313192,7.775272426130343,-30.817102104618424,-0.2458,-0.9297,0.0678,-0.2657
6,2021775.0,503.376233,1.0,5.48,4.39,-7.49,-21.19,-30.87,21.5,1.25,-1.44,0.37,0.0779976465632671,0.10954403775810828,-0.4590461025992916,-136.8073201749142,7.8212153932673,-30.805215870860085,-0.2455,-0.9298,0.0682,-0.2656
7,2021775.0,503.376233,1.0,5.48,4.39,-7.49,-21.19,-30.87,21.5,1.25,-1.44,0.37,0.0779976465632671,0.10954403775810828,-0.4590461025992916,-136.8073201749142,7.8212153932673,-30.805215870860085,-0.2455,-0.9298,0.0682,-0.2656
8,2021810.0,503.38430999999997,1.0,4.93,4.14,-7.3,-21.19,-31.25,21.87,0.88,-5.25,-1.31,-0.2154447400398645,-0.004147364480393545,0.07587067029793282,-136.9320256088512,7.809729533725751,-30.674489682178663,-0.2452,-0.9302,0.0681,-0.2645
9,2021810.0,503.38430999999997,1.0,4.93,4.14,-7.3,-21.19,-31.25,21.87,0.88,-5.25,-1.31,-0.2154447400398645,-0.004147364480393545,0.07587067029793282,-136.9320256088512,7.809729533725751,-30.674489682178663,-0.2452,-0.9302,0.0681,-0.2645
10,2021844.0,503.405022,1.0,4.77,4.08,-7.35,-21.19,-31.25,21.87,1.06,-3.56,0.37,-0.33416765093752243,-0.06891454781072559,0.14717885680758513,-137.088392741319,7.8212153932673,-30.52004779633356,-0.2448,-0.9307,0.0682,-0.2632
11,2021844.0,503.405022,1.0,4.77,4.08,-7.35,-21.19,-31.25,21.87,1.06,-3.56,0.37,-0.33416765093752243,-0.06891454781072559,0.14717885680758513,-137.088392741319,7.8212153932673,-30.52004779633356,-0.2448,-0.9307,0.0682,-0.2632
12,2021879.0,503.45459800000003,1.0,4.79,3.94,-7.58,-21.19,-30.5,21.5,-0.19,-1.5,1.37,-0.3757808659081705,-0.2912504564318663,0.02411137689988152,-137.1824741414482,7.855673444559319,-30.44878609284871,-0.2443,-0.9309999999999999,0.0685,-0.2626
13,2021879.0,503.45459800000003,1.0,4.79,3.94,-7.58,-21.19,-30.5,21.5,-0.19,-1.5,1.37,-0.3757808659081705,-0.2912504564318663,0.02411137689988152,-137.1824741414482,7.855673444559319,-30.44878609284871,-0.2443,-0.9309999999999999,0.0685,-0.2626
14,2021916.0,503.46280700000005,1.0,4.95,4.21,-7.5,-20.5,-30.06,21.87,-3.13,-3.81,1.37,-0.2443015850233395,-0.01522698907961084,-0.11386837730058552,-137.27675296577294,7.94756506816392,-30.258813745298948,-0.2446,-0.9313,0.0693,-0.261
15,2021916.0,503.46280700000005,1.0,4.95,4.21,-7.5,-20.5,-30.06,21.87,-3.13,-3.81,1.37,-0.2443015850233395,-0.01522698907961084,-0.11386837730058552,-137.27675296577294,7.94756506816392,-30.258813745298948,-0.2446,-0.9313,0.0693,-0.261
16,2021951.0,503.534667,1.0,4.72,4.73,-7.29,-20.5,-30.06,21.87,-5.94,-13.81,-5.44,-0.4190926633271931,0.5335153857624261,-0.05920640847767977,-137.46590815068691,7.982025743589274,-29.879123753551497,-0.2454,-0.9319,0.0696,-0.2578
17,2021951.0,503.534667,1.0,4.72,4.73,-7.29,-20.5,-30.06,21.87,-5.94,-13.81,-5.44,-0.4190926633271931,0.5335153857624261,-0.05920640847767977,-137.46590815068691,7.982025743589274,-29.879123753551497,-0.2454,-0.9319,0.0696,-0.2578
18,2021984.0,503.552355,1.0,4.2,5.73,-7.2,-21.56,-30.06,21.06,1.69,-11.5,-11.63,-0.9762764845692352,1.4315352959394758,-0.1588149124943783,-137.8466463321347,7.717845476549469,-29.345750980318734,-0.2463,-0.9331,0.0673,-0.2533
19,2021984.0,503.552355,1.0,4.2,5.73,-7.2,-21.56,-30.06,21.06,1.69,-11.5,-11.63,-0.9762764845692352,1.4315352959394758,-0.1588149124943783,-137.8466463321347,7.717845476549469,-29.345750980318734,-0.2463,-0.9331,0.0673,-0.2533
20,2022021.0,503.60148899999996,1.0,2.94,8.83,-5.9,-19.25,-30.87,21.06,66.12,-64.06,-40.81,-1.958732612371532,4.96003120593467,0.16383106623449886,-139.66874405322235,6.856665996646211,-28.10371551481587,-0.2375,-0.9387,0.0598,-0.2428
21,2022021.0,503.60148899999996,1.0,2.94,8.83,-5.9,-19.25,-30.87,21.06,66.12,-64.06,-40.81,-1.958732612371532,4.96003120593467,0.16383106623449886,-139.66874405322235,6.856665996646211,-28.10371551481587,-0.2375,-0.9387,0.0598,-0.2428
22,2022057.0,503.621138,1.0,2.64,3.65,-5.92,-19.0,-30.5,23.56,234.25,-41.38,-21.56,-0.7023617891597045,1.3112576306059962,2.5179058459425985,-146.31308564363076,4.481672390551605,-26.29986168212807,-0.1752,-0.9571,0.0391,-0.2275
23,2022057.0,503.621138,1.0,2.64,3.65,-5.92,-19.0,-30.5,23.56,234.25,-41.38,-21.56,-0.7023617891597045,1.3112576306059962,2.5179058459425985,-146.31308564363076,4.481672390551605,-26.29986168212807,-0.1752,-0.9571,0.0391,-0.2275
24,2022092.0,503.670887,1.0,3.83,0.82,-7.35,-19.0,-30.5,23.56,178.63,29.25,-27.87,0.09937866945652096,-1.1488779728845209,1.5583772545412398,-149.24516700325162,2.681687249969397,-26.723683975588173,-0.1276,-0.9642,0.0234,-0.2311
25,2022092.0,503.670887,1.0,3.83,0.82,-7.35,-19.0,-30.5,23.56,178.63,29.25,-27.87,0.09937866945652096,-1.1488779728845209,1.5583772545412398,-149.24516700325162,2.681687249969397,-26.723683975588173,-0.1276,-0.9642,0.0234,-0.2311
26,2022129.0,503.690711,1.0,6.61,-2.59,-8.48,-17.5,-26.75,29.25,86.0,135.56,-29.56,1.4717602552171534,-4.265205166748443,-0.29050537350523165,-147.72605283657722,-0.4010712754482724,-30.66260751391823,-0.0851,-0.9606,-0.0035,-0.2644
27,2022129.0,503.690711,1.0,6.61,-2.59,-8.48,-17.5,-26.75,29.25,86.0,135.56,-29.56,1.4717602552171534,-4.265205166748443,-0.29050537350523165,-147.72605283657722,-0.4010712754482724,-30.66260751391823,-0.0851,-0.9606,-0.0035,-0.2644
28,2022164.0,503.7397,1.0,5.57,0.28,-4.6,-19.0,-23.06,31.37,-19.69,243.06,-32.13,1.8002829902167974,-0.871261189096834,2.8594789861620895,-142.63208125401738,-1.6960169933572922,-35.9377135193296,-0.085,-0.9473,-0.0148,-0.3085
29,2022164.0,503.7397,1.0,5.57,0.28,-4.6,-19.0,-23.06,31.37,-19.69,243.06,-32.13,1.8002829902167974,-0.871261189096834,2.8594789861620895,-142.63208125401738,-1.6960169933572922,-35.9377135193296,-0.085,-0.9473,-0.0148,-0.3085
30,2022199.0,503.76143099999996,1.0,12.99,-0.89,-9.04,-19.0,-23.06,31.37,7.75,393.81,1.0,1.058328145372187,-3.7397752019497017,-5.560451970625272,-127.53298072808481,-3.6904861286986015,-51.23993373594613,-0.0862,-0.897,-0.0322,-0.4324
31,2022199.0,503.76143099999996,1.0,12.99,-0.89,-9.04,-19.0,-23.06,31.37,7.75,393.81,1.0,1.058328145372187,-3.7397752019497017,-5.560451970625272,-127.53298072808481,-3.6904861286986015,-51.23993373594613,-0.0862,-0.897,-0.0322,-0.4324
32,2022234.0,503.80475099999995,1.0,9.23,0.54,-5.72,-25.0,-23.87,26.87,-72.62,86.75,37.25,0.1870993490470776,-1.4480026396175505,-0.9669836576499016,-121.66531355494112,-2.1773706400327653,-57.07058565644391,-0.0944,-0.8732,-0.019,-0.4777
33,2022234.0,503.80475099999995,1.0,9.23,0.54,-5.72,-25.0,-23.87,26.87,-72.62,86.75,37.25,0.1870993490470776,-1.4480026396175505,-0.9669836576499016,-121.66531355494112,-2.1773706400327653,-57.07058565644391,-0.0944,-0.8732,-0.019,-0.4777
34,2022270.0,503.822342,1.0,7.97,1.76,-4.43,-31.37,-23.75,19.75,-87.12,58.81,73.0,0.20387003855216307,0.1312836530821594,0.5230837881493997,-119.87969568097151,0.3666936147093117,-58.64173070844467,-0.1047,-0.8655,0.0032,-0.4897
35,2022270.0,503.822342,1.0,7.97,1.76,-4.43,-31.37,-23.75,19.75,-87.12,58.81,73.0,0.20387003855216307,0.1312836530821594,0.5230837881493997,-119.87969568097151,0.3666936147093117,-58.64173070844467,-0.1047,-0.8655,0.0032,-0.4897
36,2022307.0,503.87008099999997,1.0,9.85,1.36,-5.43,-33.56,-23.75,17.0,-65.87,35.63,76.44,-0.0608581585495894,-0.4354265197298253,-1.5142907749733343,-117.63003319551184,4.080321683767285,-60.55652194040018,-0.1125,-0.8555,0.0356,-0.5042
37,2022307.0,503.87008099999997,1.0,9.85,1.36,-5.43,-33.56,-23.75,17.0,-65.87,35.63,76.44,-0.0608581585495894,-0.4354265197298253,-1.5142907749733343,-117.63003319551184,4.080321683767285,-60.55652194040018,-0.1125,-0.8555,0.0356,-0.5042
38,2022342.0,503.888861,1.0,9.47,2.37,-4.84,-33.56,-23.75,17.0,-85.12,-21.06,48.25,0.01242549550642008,0.7442313660131379,-1.0639233648646034,-117.254831475668,6.638563994932457,-60.33107392327209,-0.1233,-0.8538,0.0579,-0.5025
39,2022342.0,503.888861,1.0,9.47,2.37,-4.84,-33.56,-23.75,17.0,-85.12,-21.06,48.25,0.01242549550642008,0.7442313660131379,-1.0639233648646034,-117.254831475668,6.638563994932457,-60.33107392327209,-0.1233,-0.8538,0.0579,-0.5025
40,2022379.0,503.93374000000006,1.0,8.34,3.74,-3.96,-33.56,-23.0,14.19,-63.06,-35.69,23.87,-0.09450209885390776,2.3274128605007527,0.12166064894297435,-117.63003319551184,9.499056247386587,-58.94424149263559,-0.1386,-0.8555,0.0828,-0.49200000000000005
41,2022379.0,503.93374000000006,1.0,8.34,3.74,-3.96,-33.56,-23.0,14.19,-63.06,-35.69,23.87,-0.09450209885390776,2.3274128605007527,0.12166064894297435,-117.63003319551184,9.499056247386587,-58.94424149263559,-0.1386,-0.8555,0.0828,-0.49200000000000005
42,2022414.0,503.998241,1.0,8.52,3.01,-4.92,-35.06,-20.75,14.5,-25.81,9.75,7.13,-0.613420425926871,1.2819039663378748,-0.383410726126364,-117.38702490663178,10.281191618255797,-58.81265977015818,-0.1446,-0.8544,0.0896,-0.491
43,2022414.0,503.998241,1.0,8.52,3.01,-4.92,-35.06,-20.75,14.5,-25.81,9.75,7.13,-0.613420425926871,1.2819039663378748,-0.383410726126364,-117.38702490663178,10.281191618255797,-58.81265977015818,-0.1446,-0.8544,0.0896,-0.491
44,2022449.0,504.00257300000004,1.0,8.18,2.5,-5.19,-35.06,-20.75,14.5,-27.62,-5.81,4.06,-0.8669304761167684,0.6298314477583953,-0.14072371857489507,-117.10092120050626,10.856595634361932,-58.720603220456965,-0.1511,-0.8531,0.0946,-0.4903
45,2022449.0,504.00257300000004,1.0,8.18,2.5,-5.19,-35.06,-20.75,14.5,-27.62,-5.81,4.06,-0.8669304761167684,0.6298314477583953,-0.14072371857489507,-117.10092120050626,10.856595634361932,-58.720603220456965,-0.1511,-0.8531,0.0946,-0.4903
46,2022483.0,504.069311,1.0,7.69,3.06,-4.89,-37.0,-21.87,12.75,-16.25,-9.19,-5.0,-0.9969325470767424,1.1881218393708106,0.3194854082271128,-117.23282354978821,11.155913338134189,-58.30030109286572,-0.1564,-0.8537,0.0972,-0.4871
47,2022483.0,504.069311,1.0,7.69,3.06,-4.89,-37.0,-21.87,12.75,-16.25,-9.19,-5.0,-0.9969325470767424,1.1881218393708106,0.3194854082271128,-117.23282354978821,11.155913338134189,-58.30030109286572,-0.1564,-0.8537,0.0972,-0.4871
48,2022520.0,504.08935999999994,1.0,7.81,2.27,-4.97,-35.5,-21.5,13.25,-0.75,-5.63,-10.19,-0.6906401605075129,0.3802997033232922,0.3077927895590307,-117.4973779425748,10.879617409371033,-58.0118417792849,-0.1583,-0.8549,0.0948,-0.4849
49,2022520.0,504.08935999999994,1.0,7.81,2.27,-4.97,-35.5,-21.5,13.25,-0.75,-5.63,-10.19,-0.6906401605075129,0.3802997033232922,0.3077927895590307,-117.4973779425748,10.879617409371033,-58.0118417792849,-0.1583,-0.8549,0.0948,-0.4849
50,2022555.0,504.092768,1.0,8.65,2.41,-5.23,-35.5,-21.5,13.25,-0.88,-3.81,-0.19,-0.4938326503005194,0.4219259157301791,-0.5645412447477511,-117.58578661368068,10.868106466869214,-57.907047347217045,-0.1585,-0.8553,0.0947,-0.4841
51,2022555.0,504.092768,1.0,8.65,2.41,-5.23,-35.5,-21.5,13.25,-0.88,-3.81,-0.19,-0.4938326503005194,0.4219259157301791,-0.5645412447477511,-117.58578661368068,10.868106466869214,-57.907047347217045,-0.1585,-0.8553,0.0947,-0.4841
52,2022590.0,504.135169,1.0,8.68,2.31,-5.01,-35.5,-22.25,14.5,4.88,-21.19,-12.94,-0.15775236041771906,0.4026377174999467,-0.469127199863232,-118.18551847027427,10.64941932234672,-57.31856128888758,-0.1588,-0.858,0.0928,-0.4796
53,2022590.0,504.135169,1.0,8.68,2.31,-5.01,-35.5,-22.25,14.5,4.88,-21.19,-12.94,-0.15775236041771906,0.4026377174999467,-0.469127199863232,-118.18551847027427,10.64941932234672,-57.31856128888758,-0.1588,-0.858,0.0928,-0.4796
54,2022625.0,504.202704,1.0,8.03,1.92,-4.9,-34.69,-23.37,13.25,6.44,-21.81,-6.44,-0.1369370724661811,0.0987202709102375,0.20723321842958065,-119.10638959402516,10.373238415502241,-56.45841982476564,-0.1575,-0.8621,0.0904,-0.473
55,2022625.0,504.202704,1.0,8.03,1.92,-4.9,-34.69,-23.37,13.25,6.44,-21.81,-6.44,-0.1369370724661811,0.0987202709102375,0.20723321842958065,-119.10638959402516,10.373238415502241,-56.45841982476564,-0.1575,-0.8621,0.0904,-0.473
56,2022662.0,504.221015,1.0,8.32,2.08,-5.1,-35.5,-22.56,14.88,7.75,-1.75,-5.13,-0.15879143659896788,0.19265732724345688,-0.16814164864721626,-119.31022017941788,10.269686237501055,-56.31540097731903,-0.1565,-0.863,0.0895,-0.4719
57,2022662.0,504.221015,1.0,8.32,2.08,-5.1,-35.5,-22.56,14.88,7.75,-1.75,-5.13,-0.15879143659896788,0.19265732724345688,-0.16814164864721626,-119.31022017941788,10.269686237501055,-56.31540097731903,-0.1565,-0.863,0.0895,-0.4719
58,2022694.0,504.26866900000005,1.0,8.35,1.68,-5.33,-35.5,-22.56,14.88,9.44,-2.0,-10.5,-0.17130203725269685,-0.2754235653998504,-0.23569023879173126,-119.56019073883043,9.786552516199244,-56.22443872055198,-0.1553,-0.8641,0.0853,-0.4712
59,2022694.0,504.26866900000005,1.0,8.35,1.68,-5.33,-35.5,-22.56,14.88,9.44,-2.0,-10.5,-0.17130203725269685,-0.2754235653998504,-0.23569023879173126,-119.56019073883043,9.786552516199244,-56.22443872055198,-0.1553,-0.8641,0.0853,-0.4712
60,2022731.0,504.288223,1.0,8.17,1.76,-5.28,-34.69,-22.56,14.5,1.44,-10.13,-0.56,-0.2095648516619396,-0.17168472436651985,-0.07522770256073841,-119.81110097439955,9.717547848465047,-55.97773522242152,-0.1547,-0.8652,0.0847,-0.4693
61,2022731.0,504.288223,1.0,8.17,1.76,-5.28,-34.69,-22.56,14.5,1.44,-10.13,-0.56,-0.2095648516619396,-0.17168472436651985,-0.07522770256073841,-119.81110097439955,9.717547848465047,-55.97773522242152,-0.1547,-0.8652,0.0847,-0.4693
62,2022766.0,504.338308,1.0,8.47,2.12,-4.95,-34.25,-23.0,14.5,0.44,-2.31,0.5,0.1374482021463446,0.2967585278291385,-0.22484252942389735,-119.99417813762396,9.786552516199244,-55.79613423290889,-0.1544,-0.866,0.0853,-0.4679
63,2022766.0,504.338308,1.0,8.47,2.12,-4.95,-34.25,-23.0,14.5,0.44,-2.31,0.5,0.1374482021463446,0.2967585278291385,-0.22484252942389735,-119.99417813762396,9.786552516199244,-55.79613423290889,-0.1544,-0.866,0.0853,-0.4679
64,2022801.0,504.35854000000006,1.0,8.22,1.92,-5.19,-34.25,-23.0,14.5,2.5,-4.13,-2.69,-0.1228838573011695,0.028361436111476124,-0.10167958608849048,-120.06296278033024,9.683046840720888,-55.78316856909328,-0.1538,-0.8663,0.0844,-0.4678
65,2022801.0,504.35854000000006,1.0,8.22,1.92,-5.19,-34.25,-23.0,14.5,2.5,-4.13,-2.69,-0.1228838573011695,0.028361436111476124,-0.10167958608849048,-120.06296278033024,9.683046840720888,-55.78316856909328,-0.1538,-0.8663,0.0844,-0.4678
66,2022836.0,504.40007599999996,1.0,8.02,1.89,-5.37,-33.56,-23.37,14.88,1.31,-7.0,-1.25,-0.3138397538520527,-0.04876096660648,-0.023331026280652974,-120.36186107562722,9.648546712798435,-55.485171978249646,-0.1533,-0.8676,0.0841,-0.4655
67,2022836.0,504.40007599999996,1.0,8.02,1.89,-5.37,-33.56,-23.37,14.88,1.31,-7.0,-1.25,-0.3138397538520527,-0.04876096660648,-0.023331026280652974,-120.36186107562722,9.648546712798435,-55.485171978249646,-0.1533,-0.8676,0.0841,-0.4655
68,2022871.0,504.469666,1.0,7.79,1.95,-5.37,-34.0,-23.0,15.25,2.31,-7.69,-3.06,-0.4191295113460646,0.015153141276150197,0.155349526228175,-120.59271162762087,9.637046865121436,-55.25224136431043,-0.1531,-0.8686,0.084,-0.4637
69,2022871.0,504.469666,1.0,7.79,1.95,-5.37,-34.0,-23.0,15.25,2.31,-7.69,-3.06,-0.4191295113460646,0.015153141276150197,0.155349526228175,-120.59271162762087,9.637046865121436,-55.25224136431043,-0.1531,-0.8686,0.084,-0.4637
70,2022905.0,504.478379,1.0,7.82,1.86,-5.36,-34.0,-23.0,15.25,1.25,-2.56,-6.38,-0.3242069249341664,-0.07657657523614836,0.15104924717525134,-120.8475925272034,9.476059158737444,-55.01955829122679,-0.1534,-0.8697,0.0826,-0.4619
71,2022905.0,504.478379,1.0,7.82,1.86,-5.36,-34.0,-23.0,15.25,1.25,-2.56,-6.38,-0.3242069249341664,-0.07657657523614836,0.15104924717525134,-120.8475925272034,9.476059158737444,-55.01955829122679,-0.1534,-0.8697,0.0826,-0.4619
72,2022940.0,504.498045,1.0,8.26,2.02,-5.44,-32.75,-22.56,16.06,-0.56,1.06,-1.06,-0.18208024096880865,0.03819015413701599,-0.2862677296743925,-120.87081305028902,9.292096140833058,-55.032478664205094,-0.1531,-0.8698,0.081,-0.462
73,2022940.0,504.498045,1.0,8.26,2.02,-5.44,-32.75,-22.56,16.06,-0.56,1.06,-1.06,-0.18208024096880865,0.03819015413701599,-0.2862677296743925,-120.87081305028902,9.292096140833058,-55.032478664205094,-0.1531,-0.8698,0.081,-0.462
74,2022975.0,504.55024199999997,1.0,8.32,2.25,-5.25,-34.0,-22.56,15.69,-0.81,-1.88,-1.94,-0.05025838662257925,0.3077537005668878,-0.28047851877884256,-120.94052444578816,9.257605761151561,-54.954967799820345,-0.1537,-0.8701,0.0807,-0.4614
75,2022975.0,504.55024199999997,1.0,8.32,2.25,-5.25,-34.0,-22.56,15.69,-0.81,-1.88,-1.94,-0.05025838662257925,0.3077537005668878,-0.28047851877884256,-120.94052444578816,9.257605761151561,-54.954967799820345,-0.1537,-0.8701,0.0807,-0.4614
76,2023012.0,504.57107300000007,1.0,8.03,1.88,-5.28,-34.69,-22.56,16.06,1.75,-5.75,-5.0,-0.09816765609837233,-0.0612091978298136,0.01480050435326774,-121.10347629286508,9.142643881088318,-54.774215005307816,-0.1541,-0.8708,0.0797,-0.46
77,2023012.0,504.57107300000007,1.0,8.03,1.88,-5.28,-34.69,-22.56,16.06,1.75,-5.75,-5.0,-0.09816765609837233,-0.0612091978298136,0.01480050435326774,-121.10347629286508,9.142643881088318,-54.774215005307816,-0.1541,-0.8708,0.0797,-0.46
78,2023045.0,504.623562,1.0,7.92,2.25,-5.37,-34.69,-22.56,16.06,-3.06,-5.06,2.69,-0.29770410339814235,0.26106761257449,-0.015214179904170065,-121.29021101561548,9.21161989509871,-54.54203530433204,-0.1544,-0.8716,0.0803,-0.4582
79,2023045.0,504.623562,1.0,7.92,2.25,-5.37,-34.69,-22.56,16.06,-3.06,-5.06,2.69,-0.29770410339814235,0.26106761257449,-0.015214179904170065,-121.29021101561548,9.21161989509871,-54.54203530433204,-0.1544,-0.8716,0.0803,-0.4582
80,2023081.0,504.643146,1.0,7.84,1.9,-5.58,-33.56,-23.0,15.69,3.25,-1.44,-5.25,-0.3814751227688566,-0.14806568675991416,0.006417692390508378,-121.43061785942284,9.096661717453259,-54.41315136848768,-0.1546,-0.8722,0.0793,-0.4572
81,2023081.0,504.643146,1.0,7.84,1.9,-5.58,-33.56,-23.0,15.69,3.25,-1.44,-5.25,-0.3814751227688566,-0.14806568675991416,0.006417692390508378,-121.43061785942284,9.096661717453259,-54.41315136848768,-0.1546,-0.8722,0.0793,-0.4572
82,2023116.0,504.69333,1.0,8.01,1.97,-5.4,-34.0,-23.37,16.56,0.12,1.31,-2.31,-0.15625605704524576,-0.03336860714779166,-0.05111194583200529,-121.47748834883792,8.970218312913039,-54.38738352787694,-0.1548,-0.8724,0.0782,-0.457
83,2023116.0,504.69333,1.0,8.01,1.97,-5.4,-34.0,-23.37,16.56,0.12,1.31,-2.31,-0.15625605704524576,-0.03336860714779166,-0.05111194583200529,-121.47748834883792,8.970218312913039,-54.38738352787694,-0.1548,-0.8724,0.0782,-0.457
84,2023151.0,504.71242699999993,1.0,8.26,2.18,-5.4,-34.0,-23.37,16.56,-1.12,1.88,0.75,-0.08445975214853914,0.15757644263844672,-0.2982021124750993,-121.40719542947477,9.016196458354324,-54.45180871588593,-0.1552,-0.8721,0.0786,-0.4575
85,2023151.0,504.71242699999993,1.0,8.26,2.18,-5.4,-34.0,-23.37,16.56,-1.12,1.88,0.75,-0.08445975214853914,0.15757644263844672,-0.2982021124750993,-121.40719542947477,9.016196458354324,-54.45180871588593,-0.1552,-0.8721,0.0786,-0.4575
86,2023186.0,504.78009199999997,1.0,8.06,2.2,-5.36,-33.19,-23.37,16.56,-0.25,0.94,-1.31,-0.17366727827805362,0.17889528995489454,-0.11660733575862815,-121.3603761475579,8.935735653853007,-54.46469598924939,-0.1555,-0.8719,0.0779,-0.4576
87,2023186.0,504.78009199999997,1.0,8.06,2.2,-5.36,-33.19,-23.37,16.56,-0.25,0.94,-1.31,-0.17366727827805362,0.17889528995489454,-0.11660733575862815,-121.3603761475579,8.935735653853007,-54.46469598924939,-0.1555,-0.8719,0.0779,-0.4576
88,2023221.0,504.783683,1.0,8.13,2.06,-5.42,-33.56,-23.0,16.06,0.63,3.88,-0.63,-0.15657567222690333,0.01891035704330002,-0.1779394486084538,-121.29021101561548,8.889760035755181,-54.56782105444786,-0.1556,-0.8716,0.0775,-0.4584
89,2023221.0,504.783683,1.0,8.13,2.06,-5.42,-33.56,-23.0,16.06,0.63,3.88,-0.63,-0.15657567222690333,0.01891035704330002,-0.1779394486084538,-121.29021101561548,8.889760035755181,-54.56782105444786,-0.1556,-0.8716,0.0775,-0.4584
90,2023256.0,504.83484500000003,1.0,7.75,2.09,-5.35,-33.56,-23.0,16.06,0.37,-1.37,0.31,-0.3198583173780377,0.0729963761990351,0.16582730762224251,-121.3135909011287,8.866772764864926,-54.52914355096097,-0.1556,-0.8717,0.0773,-0.4581
91,2023256.0,504.83484500000003,1.0,7.75,2.09,-5.35,-33.56,-23.0,16.06,0.37,-1.37,0.31,-0.3198583173780377,0.0729963761990351,0.16582730762224251,-121.3135909011287,8.866772764864926,-54.52914355096097,-0.1556,-0.8717,0.0773,-0.4581
92,2023290.0,504.84940199999994,1.0,7.81,2.08,-5.5,-33.56,-23.37,15.25,0.63,1.94,-2.06,-0.4003990956374999,0.007019902481641528,0.03873664631069573,-121.29021101561548,8.901253805563371,-54.52914355096097,-0.156,-0.8716,0.0776,-0.4581
93,2023290.0,504.84940199999994,1.0,7.81,2.08,-5.5,-33.56,-23.37,15.25,0.63,1.94,-2.06,-0.4003990956374999,0.007019902481641528,0.03873664631069573,-121.29021101561548,8.901253805563371,-54.52914355096097,-0.156,-0.8716,0.0776,-0.4581
94,2023323.0,504.90761100000003,1.0,8.36,2.12,-5.39,-33.56,-22.56,16.56,1.06,3.63,-1.88,-0.029444599146448244,0.06562383411676409,-0.36344963215586995,-121.22012218744959,8.797813093528106,-54.64519627292022,-0.1561,-0.8713,0.0767,-0.45899999999999996
95,2023323.0,504.90761100000003,1.0,8.36,2.12,-5.39,-33.56,-22.56,16.56,1.06,3.63,-1.88,-0.029444599146448244,0.06562383411676409,-0.36344963215586995,-121.22012218744959,8.797813093528106,-54.64519627292022,-0.1561,-0.8713,0.0767,-0.45899999999999996
96,2023360.0,504.920811,1.0,8.36,2.17,-5.26,-33.56,-23.37,16.06,1.19,-1.44,-0.88,0.06493808445286897,0.15332374183239095,-0.3046493663217227,-121.24347666895369,8.76333445653462,-54.60650529245762,-0.1562,-0.8714,0.0764,-0.4587
97,2023360.0,504.920811,1.0,8.36,2.17,-5.26,-33.56,-23.37,16.06,1.19,-1.44,-0.88,0.06493808445286897,0.15332374183239095,-0.3046493663217227,-121.24347666895369,8.76333445653462,-54.60650529245762,-0.1562,-0.8714,0.0764,-0.4587
