acc_x,acc_y,acc_z,lin_x,lin_y,lin_z,eul_x,eul_y,eul_z
4.77,5.31,-7.21,-0.1164162532970502,0.060979447058902,-0.3380938983448303,-131.98719464152978,16.686140017359815,-24.51434453810049
4.77,5.31,-7.21,-0.1164162532970502,0.060979447058902,-0.3380938983448303,-131.98719464152978,16.686140017359815,-24.51434453810049
4.72,5.16,-7.19,-0.0920299070601926,-0.0454661235552746,-0.222784845883158,-132.01536875371886,16.651395613206027,-24.51434453810049
4.72,5.16,-7.19,-0.0920299070601926,-0.0454661235552746,-0.222784845883158,-132.01536875371886,16.651395613206027,-24.51434453810049
4.32,4.85,-6.93,-0.2198838986827992,-0.1603322096244572,0.3126653437212123,-132.12822120462246,16.570331326030242,-24.42054113976365
4.32,4.85,-6.93,-0.2198838986827992,-0.1603322096244572,0.3126653437212123,-132.12822120462246,16.570331326030242,-24.42054113976365
4.39,5.27,-7.1,-0.3812013196078296,0.0594521293994989,-0.0577380194485002,-132.09998463629478,16.59349169701811,-24.44399042905254
4.39,5.27,-7.1,-0.3812013196078296,0.0594521293994989,-0.0577380194485002,-132.09998463629478,16.59349169701811,-24.44399042905254
4.67,5.01,-7.12,-0.0473219742511151,-0.1189496397266216,-0.0719638508376689,-132.09998463629478,16.51243337847321,-24.51434453810049
4.67,5.01,-7.12,-0.0473219742511151,-0.1189496397266216,-0.0719638508376689,-132.09998463629478,16.51243337847321,-24.51434453810049
4.83,5.11,-7.23,0.0080820117684551,-0.0996693717431367,-0.2781851844451157,-132.07176372350168,16.442961442690333,-24.608164621444825
4.83,5.11,-7.23,0.0080820117684551,-0.0996693717431367,-0.2781851844451157,-132.07176372350168,16.442961442690333,-24.608164621444825
4.96,4.88,-7.56,0.1062997678309044,-0.474447997652808,-0.4565463567342096,-132.04355843852292,16.38507281218067,-24.66681067830264
4.96,4.88,-7.56,0.1062997678309044,-0.474447997652808,-0.4565463567342096,-132.04355843852292,16.38507281218067,-24.66681067830264
4.78,4.69,-7.31,0.1084513679371635,-0.477796887168366,-0.0948927300701356,-132.07176372350168,16.408227758317484,-24.608164621444825
4.78,4.69,-7.31,0.1084513679371635,-0.477796887168366,-0.0948927300701356,-132.07176372350168,16.408227758317484,-24.608164621444825
4.17,5.31,-6.93,-0.5506487920758609,0.1579437515433297,0.1484027636152394,-131.98719464152978,16.69772182857332,-24.49089212710032
4.17,5.31,-6.93,-0.5506487920758609,0.1579437515433297,0.1484027636152394,-131.98719464152978,16.69772182857332,-24.49089212710032
4.19,5.33,-7.14,-0.6285577193020591,0.046490648642683,-0.0192013022075912,-131.90276546625157,16.825133117850115,-24.596436196111345
4.19,5.33,-7.14,-0.6285577193020591,0.046490648642683,-0.0192013022075912,-131.90276546625157,16.825133117850115,-24.596436196111345
4.66,5.59,-7.05,-0.3128835946252674,0.3691391431063411,-0.3142215113492597,-131.90276546625157,16.825133117850115,-24.67854067669555
4.66,5.59,-7.05,-0.3128835946252674,0.3691391431063411,-0.3142215113492597,-131.90276546625157,16.825133117850115,-24.67854067669555
4.79,5.35,-6.91,-0.0462103869810952,0.2991731480229887,-0.1544272523676948,-132.04355843852292,16.628233533749974,-24.655080942437507
4.79,5.35,-6.91,-0.0462103869810952,0.2991731480229887,-0.1544272523676948,-132.04355843852292,16.628233533749974,-24.655080942437507
4.58,4.81,-7.13,-0.0649391065516808,-0.2815076295477881,0.0667354024818749,-132.12822120462246,16.43138337904295,-24.631622257728548
4.58,4.81,-7.13,-0.0649391065516808,-0.2815076295477881,0.0667354024818749,-132.12822120462246,16.43138337904295,-24.631622257728548
4.45,4.76,-7.26,-0.1842932746878507,-0.4188375678925399,0.0619944863029307,-132.2130251212284,16.29245975343786,-24.596436196111345
4.45,4.76,-7.26,-0.1842932746878507,-0.4188375678925399,0.0619944863029307,-132.2130251212284,16.29245975343786,-24.596436196111345
4.52,5.2,-7.07,-0.2295694989755272,0.0490613327609814,-0.0625035012263275,-132.269639855159,16.257732621833743,-24.54952511022461
4.52,5.2,-7.07,-0.2295694989755272,0.0490613327609814,-0.0625035012263275,-132.269639855159,16.257732621833743,-24.54952511022461
4.76,4.96,-7.23,0.0220804901689438,-0.2154629773957444,-0.1675761934109783,-132.24132459051677,16.1419863535435,-24.608164621444825
4.76,4.96,-7.23,0.0220804901689438,-0.2154629773957444,-0.1675761934109783,-132.24132459051677,16.1419863535435,-24.608164621444825
4.81,5.04,-7.27,0.015318706114298,-0.1816106927505898,-0.2609903836013973,-132.24132459051677,16.072546557241562,-24.67854067669555
4.81,5.04,-7.27,0.015318706114298,-0.1816106927505898,-0.2609903836013973,-132.24132459051677,16.072546557241562,-24.67854067669555
4.91,5.05,-7.4,0.0476426893557484,-0.2512787584492271,-0.4063411955167755,-132.1847414191665,16.026256661631813,-24.76065802803315
4.91,5.05,-7.4,0.0476426893557484,-0.2512787584492271,-0.4063411955167755,-132.1847414191665,16.026256661631813,-24.76065802803315
4.78,4.93,-7.29,0.0179380832287957,-0.2677509964136466,-0.2046130386524964,-132.29797094336487,16.014684599323402,-24.737194611496925
4.78,4.93,-7.29,0.0179380832287957,-0.2677509964136466,-0.2046130386524964,-132.29797094336487,16.014684599323402,-24.737194611496925
4.33,5.08,-7.14,-0.3717702183123893,-0.1054969591486965,0.0400970105166411,-132.32631788342704,16.13041264048083,-24.608164621444825
4.33,5.08,-7.14,-0.3717702183123893,-0.1054969591486965,0.0400970105166411,-132.32631788342704,16.13041264048083,-24.608164621444825
4.27,5.13,-6.79,-0.3414425843077965,0.1521509574466999,0.2927566304183689,-132.32631788342704,16.188282864682783,-24.608164621444825
4.27,5.13,-6.79,-0.3414425843077965,0.1521509574466999,0.2927566304183689,-132.32631788342704,16.188282864682783,-24.608164621444825
4.54,5.08,-6.96,-0.1570776499221686,0.0341089913198811,0.0683871575518608,-132.29797094336487,16.13041264048083,-24.748926188008948
4.54,5.08,-6.96,-0.1570776499221686,0.0341089913198811,0.0683871575518608,-132.29797094336487,16.13041264048083,-24.748926188008948
4.79,5.37,-7.35,-0.1891094357949173,0.0258633454841605,-0.4776617761303665,-132.15647345628565,16.118839093056636,-24.854522251558684
4.79,5.37,-7.35,-0.1891094357949173,0.0258633454841605,-0.4776617761303665,-132.15647345628565,16.118839093056636,-24.854522251558684
4.67,5.15,-7.31,-0.1960898549997378,-0.1310676637188654,-0.2785802916836513,-132.1847414191665,16.072546557241562,-24.87799095241944
4.67,5.15,-7.31,-0.1960898549997378,-0.1310676637188654,-0.2785802916836513,-132.1847414191665,16.072546557241562,-24.87799095241944
4.35,5.12,-6.86,-0.310444457604813,0.097803497695621,0.2102674151620558,-132.24132459051677,16.084119443363345,-24.78412249918103
4.35,5.12,-6.86,-0.310444457604813,0.097803497695621,0.2102674151620558,-132.24132459051677,16.084119443363345,-24.78412249918103
4.27,5.13,-7.09,-0.4607592900253075,-0.0560476720885012,0.0802704302367036,-132.1847414191665,16.072546557241562,-24.831054609816945
4.27,5.13,-7.09,-0.4607592900253075,-0.0560476720885012,0.0802704302367036,-132.1847414191665,16.072546557241562,-24.831054609816945
4.82,5.52,-7.53,-0.2817653584237922,0.0288863868407731,-0.6968481724874707,-132.1847414191665,16.003112701402525,-24.924931536010146
4.82,5.52,-7.53,-0.2817653584237922,0.0288863868407731,-0.6968481724874707,-132.1847414191665,16.003112701402525,-24.924931536010146
4.82,4.96,-6.92,0.1414274936521808,0.0020497582695906,0.0239921779901628,-132.41145409892673,15.748572284340511,-24.901460713527147
4.82,4.96,-6.92,0.1414274936521808,0.0020497582695906,0.0239921779901628,-132.41145409892673,15.748572284340511,-24.901460713527147
4.83,4.62,-7.46,0.1238685925877315,-0.5910305118372143,-0.1913617776409815,-132.5251927099627,15.621331474060083,-24.87799095241944
4.83,4.62,-7.46,0.1238685925877315,-0.5910305118372143,-0.1913617776409815,-132.5251927099627,15.621331474060083,-24.87799095241944
4.83,4.93,-7.82,-0.0712501896280077,-0.5540185457341344,-0.6084441839937575,-132.66772802198363,15.748572284340511,-24.631622257728548
4.83,4.93,-7.82,-0.0712501896280077,-0.5540185457341344,-0.6084441839937575,-132.66772802198363,15.748572284340511,-24.631622257728548
4.33,4.99,-6.69,-0.1481327935739192,0.1822181962233036,0.4071844192112124,-132.95401941873996,15.841123321226055,-24.350199497398
4.33,4.99,-6.69,-0.1481327935739192,0.1822181962233036,0.4071844192112124,-132.95401941873996,15.841123321226055,-24.350199497398
4.14,5.35,-6.5,-0.3890141491633662,0.5574865117402839,0.4498355430932913,-133.01147504963205,15.656031584502133,-24.38536915234885
4.14,5.35,-6.5,-0.3890141491633662,0.5574865117402839,0.4498355430932913,-133.01147504963205,15.656031584502133,-24.38536915234885
4.58,5.5,-6.78,-0.1849952529442153,0.5478296746163935,-0.03512115177943,-133.2419635150545,14.569430825374988,-25.065778823031927
4.58,5.5,-6.78,-0.1849952529442153,0.5478296746163935,-0.03512115177943,-133.2419635150545,14.569430825374988,-25.065778823031927
4.76,3.97,-5.34,0.9278071540643772,0.2379009336633502,1.68158525991152,-133.3576107786115,13.507223821905177,-25.9587156933802
4.76,3.97,-5.34,0.9278071540643772,0.2379009336633502,1.68158525991152,-133.3576107786115,13.507223821905177,-25.9587156933802
5.81,3.27,-3.47,2.2426562140898443,0.5315990899170198,2.6527842259584133,-129.40467932878911,12.734398426775371,-30.603201736078947
5.81,3.27,-3.47,2.2426562140898443,0.5315990899170198,2.6527842259584133,-129.40467932878911,12.734398426775371,-30.603201736078947
7.0,4.29,-4.79,1.3079858675077858,-0.2000065355477889,0.3940323855349329,-122.5651319143896,12.630631138714769,-37.30166033497223
7.0,4.29,-4.79,1.3079858675077858,-0.2000065355477889,0.3940323855349329,-122.5651319143896,12.630631138714769,-37.30166033497223
8.42,5.05,-6.15,-0.4711998933739766,-1.8092223056393613,-1.6269008617953578,-111.99230089793316,13.264930228136947,-46.8939256305629
8.42,5.05,-6.15,-0.4711998933739766,-1.8092223056393613,-1.6269008617953578,-111.99230089793316,13.264930228136947,-46.8939256305629
8.87,5.26,-5.01,-0.8998796232567802,-1.5509497676573851,-1.5171908449540972,-105.25385814101205,14.08435967436596,-53.16679865181976
8.87,5.26,-5.01,-0.8998796232567802,-1.5509497676573851,-1.5171908449540972,-105.25385814101205,14.08435967436596,-53.16679865181976
9.11,4.69,-3.35,-0.3975277054967815,-1.3157034926363855,-0.8854777603116446,-98.9107658058666,16.51243337847321,-57.37080402823785
9.11,4.69,-3.35,-0.3975277054967815,-1.3157034926363855,-0.8854777603116446,-98.9107658058666,16.51243337847321,-57.37080402823785
9.94,5.13,-4.32,-1.2460373764801318,-1.9469785035014624,-1.959384402606416,-95.83832110194956,21.858883165817787,-57.18801133423565
9.94,5.13,-4.32,-1.2460373764801318,-1.9469785035014624,-1.959384402606416,-95.83832110194956,21.858883165817787,-57.18801133423565
9.42,6.8,-3.09,-1.984392622285716,0.2843183321612419,-2.046866314014803,-95.6162765840312,26.170433719349266,-54.52914355096097
9.42,6.8,-3.09,-1.984392622285716,0.2843183321612419,-2.046866314014803,-95.6162765840312,26.170433719349266,-54.52914355096097
9.36,5.64,-4.05,-1.0810231112079989,-0.1309459441134963,-1.7966229086561754,-98.87551537138796,31.602352407672463,-48.522767881927
9.36,5.64,-4.05,-1.0810231112079989,-0.1309459441134963,-1.7966229086561754,-98.87551537138796,31.602352407672463,-48.522767881927
7.91,6.08,-3.04,-1.3448169689875824,1.7915918940192337,-0.3795055949832022,-102.4479327130834,36.20284159032565,-42.274097288223146
7.91,6.08,-3.04,-1.3448169689875824,1.7915918940192337,-0.3795055949832022,-102.4479327130834,36.20284159032565,-42.274097288223146
7.45,7.17,-3.65,-2.0552585364958977,2.785840323303864,-0.5976234509054024,-107.31714138517356,39.15723801119543,-35.805224148583044
7.45,7.17,-3.65,-2.0552585364958977,2.785840323303864,-0.5976234509054024,-107.31714138517356,39.15723801119543,-35.805224148583044
6.43,3.55,-4.92,0.2073792465752693,0.2908955610847232,0.9734074684812892,-112.05379617607242,38.04022025359053,-33.02206936424729
6.43,3.55,-4.92,0.2073792465752693,0.2908955610847232,0.9734074684812892,-112.05379617607242,38.04022025359053,-33.02206936424729
5.79,3.42,-6.08,0.0315356280840474,-0.2492055702590608,0.7444316133182252,-117.07896160834984,36.56470362370221,-29.985877446985693
5.79,3.42,-6.08,0.0315356280840474,-0.2492055702590608,0.7444316133182252,-117.07896160834984,36.56470362370221,-29.985877446985693
5.31,3.11,-5.05,0.4498639577747972,0.5009384447408012,1.874602150038689,-120.3388206480064,35.66074669721593,-27.725866499273085
5.31,3.11,-5.05,0.4498639577747972,0.5009384447408012,1.874602150038689,-120.3388206480064,35.66074669721593,-27.725866499273085
5.41,3.79,-6.97,-0.2607133466796507,-0.2864025631370517,0.2116980916946929,-121.2668396082864,35.02333444123644,-27.14787893324093
5.41,3.79,-6.97,-0.2607133466796507,-0.2864025631370517,0.2116980916946929,-121.2668396082864,35.02333444123644,-27.14787893324093
5.69,3.32,-7.06,0.2749595698216306,-0.4764465647744202,0.1661367405371958,-122.01898118079964,34.44701981345315,-26.97108530932781
5.69,3.32,-7.06,0.2749595698216306,-0.4764465647744202,0.1661367405371958,-122.01898118079964,34.44701981345315,-26.97108530932781
6.01,4.11,-7.52,-0.1011633361117717,-0.1774388407184342,-0.6585724743304535,-122.01898118079964,34.375043949019776,-26.90038619571759
6.01,4.11,-7.52,-0.1011633361117717,-0.1774388407184342,-0.6585724743304535,-122.01898118079964,34.375043949019776,-26.90038619571759
5.8,4.17,-7.5,-0.2135341646154798,-0.1509081359153481,-0.547601778620054,-122.44600053491276,34.267106355147284,-26.46463761296408
5.8,4.17,-7.5,-0.2135341646154798,-0.1509081359153481,-0.547601778620054,-122.44600053491276,34.267106355147284,-26.46463761296408
5.24,3.99,-6.57,-0.235784811041908,0.1999824214613024,0.5089614402563232,-122.89990924402274,34.14721243955784,-26.076325639174165
5.24,3.99,-6.57,-0.235784811041908,0.1999824214613024,0.5089614402563232,-122.89990924402274,34.14721243955784,-26.076325639174165
5.56,4.49,-7.23,-0.4520351778711557,0.1871284964603932,-0.3475238769719464,-122.92389068833596,33.9794256257345,-26.029278313836883
5.56,4.49,-7.23,-0.4520351778711557,0.1871284964603932,-0.3475238769719464,-122.92389068833596,33.9794256257345,-26.029278313836883
5.55,4.23,-7.51,-0.3220406463062139,-0.1878577710286331,-0.4381779282763372,-123.09201996316364,33.69196539056284,-25.98223545272544
5.55,4.23,-7.51,-0.3220406463062139,-0.1878577710286331,-0.4381779282763372,-123.09201996316364,33.69196539056284,-25.98223545272544
5.38,3.86,-7.04,-0.0732901630871599,-0.1217142875770434,0.1430371050111762,-123.69623657185858,33.26118341298741,-25.86464777060069
5.38,3.86,-7.04,-0.0732901630871599,-0.1217142875770434,0.1430371050111762,-123.69623657185858,33.26118341298741,-25.86464777060069
5.71,3.73,-7.18,0.2462233293357226,-0.1099751539916456,-0.0926772265136986,-124.18392994389636,33.05792701658909,-25.700071520307283
5.71,3.73,-7.18,0.2462233293357226,-0.1099751539916456,-0.0926772265136986,-124.18392994389636,33.05792701658909,-25.700071520307283
5.54,3.66,-7.0,0.2615817499775754,-0.0778122675568497,0.1623397478826227,-124.47843555677235,32.890619725136126,-25.38282633662164
5.54,3.66,-7.0,0.2615817499775754,-0.0778122675568497,0.1623397478826227,-124.47843555677235,32.890619725136126,-25.38282633662164
4.87,3.92,-7.31,-0.4491961770882293,-0.3769478778307489,0.2058410188834507,-124.45383854948406,32.830884610981734,-25.31235434951457
4.87,3.92,-7.31,-0.4491961770882293,-0.3769478778307489,0.2058410188834507,-124.45383854948406,32.830884610981734,-25.31235434951457
5.2,4.49,-7.7,-0.6810845187816259,-0.1628599563832105,-0.4889655965965858,-124.13498454962264,33.069880307180426,-25.45330808515709
5.2,4.49,-7.7,-0.6810845187816259,-0.1628599563832105,-0.4889655965965858,-124.13498454962264,33.069880307180426,-25.45330808515709
5.35,4.53,-7.24,-0.5043787807363428,0.2059274337823012,-0.2563612758338287,-124.08607855408228,33.01011755272957,-25.547298987438325
5.35,4.53,-7.24,-0.5043787807363428,0.2059274337823012,-0.2563612758338287,-124.08607855408228,33.01011755272957,-25.547298987438325
5.28,4.51,-6.9,-0.4543088974430406,0.3615913099630981,0.0346821761549325,-124.15945231540816,32.723384506373804,-25.60605217391993
5.28,4.51,-6.9,-0.4543088974430406,0.3615913099630981,0.0346821761549325,-124.15945231540816,32.723384506373804,-25.60605217391993
5.37,3.98,-7.07,-0.1056201662549982,-0.1056091482948835,0.0783463920590588,-124.23291484122736,32.28174931703743,-25.88816308640127
5.37,3.98,-7.07,-0.1056201662549982,-0.1056091482948835,0.0783463920590588,-124.23291484122736,32.28174931703743,-25.88816308640127
5.31,3.92,-7.32,-0.1747259047350763,-0.3598555546153712,-0.0414399081002994,-124.25742213626366,32.031310917714855,-26.029278313836883
5.31,3.92,-7.32,-0.1747259047350763,-0.3598555546153712,-0.0414399081002994,-124.25742213626366,32.031310917714855,-26.029278313836883
5.29,4.18,-7.17,-0.3247466666528013,-0.1128574026667905,-0.0293655962239682,-124.30646648477428,31.804859125621785,-26.170433719349266
5.29,4.18,-7.17,-0.3247466666528013,-0.1128574026667905,-0.0293655962239682,-124.30646648477428,31.804859125621785,-26.170433719349266
5.76,4.28,-7.35,-0.0879589405598736,-0.0237027714788111,-0.4651658766305698,-124.25742213626366,31.697637029521523,-26.288094094940124
5.76,4.28,-7.35,-0.0879589405598736,-0.0237027714788111,-0.4651658766305698,-124.25742213626366,31.697637029521523,-26.288094094940124
5.66,3.69,-7.03,0.2889150029346729,-0.2454240647195387,0.0635039398438745,-124.45383854948406,31.376141122007805,-26.335166138238048
5.66,3.69,-7.03,0.2889150029346729,-0.2454240647195387,0.0635039398438745,-124.45383854948406,31.376141122007805,-26.335166138238048
5.41,3.66,-7.42,0.0245251029280358,-0.6150031739323945,-0.0595179296158097,-124.5030425986932,31.233335490801053,-26.39401255557817
5.41,3.66,-7.42,0.0245251029280358,-0.6150031739323945,-0.0595179296158097,-124.5030425986932,31.233335490801053,-26.39401255557817
5.4,4.13,-7.38,-0.2715335036783493,-0.2946028631423862,-0.2193551221515175,-124.33100356461244,31.35233671854589,-26.42932380663794
5.4,4.13,-7.38,-0.2715335036783493,-0.2946028631423862,-0.2193551221515175,-124.33100356461244,31.35233671854589,-26.42932380663794
5.43,4.62,-7.31,-0.5365722911047813,0.0707377059688973,-0.3900399704449615,-124.15945231540816,31.507090202315183,-26.405782688920823
5.43,4.62,-7.31,-0.5365722911047813,0.0707377059688973,-0.3900399704449615,-124.15945231540816,31.507090202315183,-26.405782688920823
5.27,4.26,-6.94,-0.3324881267692098,0.0313568719897277,0.1127050655506334,-124.25742213626366,31.459467480314125,-26.335166138238048
5.27,4.26,-6.94,-0.3324881267692098,0.0313568719897277,0.1127050655506334,-124.25742213626366,31.459467480314125,-26.335166138238048
5.58,4.25,-7.24,-0.1787220864554219,-0.0662141143713928,-0.2720490284892936,-124.25742213626366,31.43565821002521,-26.41755310589251
5.58,4.25,-7.24,-0.1787220864554219,-0.0662141143713928,-0.2720490284892936,-124.25742213626366,31.43565821002521,-26.41755310589251
5.82,4.39,-7.53,-0.1736463355545445,-0.1058388639614151,-0.6720925335783416,-124.13498454962264,31.43565821002521,-26.54704645350268
5.82,4.39,-7.53,-0.1736463355545445,-0.1058388639614151,-0.6720925335783416,-124.13498454962264,31.43565821002521,-26.54704645350268
5.48,4.14,-7.2,-0.1785742837673575,-0.1634846294809671,-0.1407810251994448,-124.23291484122736,31.36423874673959,-26.47640945025204
5.48,4.14,-7.2,-0.1785742837673575,-0.1634846294809671,-0.1407810251994448,-124.23291484122736,31.36423874673959,-26.47640945025204
5.12,4.11,-7.1,-0.3812391317771002,-0.2233087130023192,0.1463554939769533,-124.30646648477428,31.43565821002521,-26.288094094940124
5.12,4.11,-7.1,-0.3812391317771002,-0.2233087130023192,0.1463554939769533,-124.30646648477428,31.43565821002521,-26.288094094940124
5.0,4.38,-6.85,-0.5773138571401424,0.0753586706488271,0.2794295353990055,-124.23291484122736,31.53090365657372,-26.25279302590076
5.0,4.38,-6.85,-0.5773138571401424,0.0753586706488271,0.2794295353990055,-124.23291484122736,31.53090365657372,-26.25279302590076
5.55,4.31,-7.39,-0.2852266752729049,-0.1722616274840325,-0.3854877382475229,-124.08607855408228,31.43565821002521,-26.52349964582953
5.55,4.31,-7.39,-0.2852266752729049,-0.1722616274840325,-0.3854877382475229,-124.08607855408228,31.43565821002521,-26.52349964582953
5.8,4.17,-7.45,-0.036380356390636,-0.2324088325708864,-0.5120738844835842,-124.06164029835844,31.36423874673959,-26.617693729981983
5.8,4.17,-7.45,-0.036380356390636,-0.2324088325708864,-0.5120738844835842,-124.06164029835844,31.36423874673959,-26.617693729981983
