acc_x,acc_y,acc_z,lin_x,lin_y,lin_z,eul_x,eul_y,eul_z
7.3,-0.54,-6.89,0.9784150250799688,-1.0082711528678243,-0.1472333286809384,-133.64792062272215,15.609765091037287,-41.89348323735908
7.3,-0.54,-6.89,0.9784150250799688,-1.0082711528678243,-0.1472333286809384,-133.64792062272215,15.609765091037287,-41.89348323735908
7.16,-1.71,-6.63,1.4489851208707432,-2.0405509086170786,0.2210778152612498,-133.50255170239728,16.257732621833743,-41.74627885444266
7.16,-1.71,-6.63,1.4489851208707432,-2.0405509086170786,0.2210778152612498,-133.50255170239728,16.257732621833743,-41.74627885444266
6.97,-2.36,-6.75,1.53604763147914,-2.666484765278012,0.3069964973522534,-133.06899702903365,17.648026557290144,-41.48884440066444
6.97,-2.36,-6.75,1.53604763147914,-2.666484765278012,0.3069964973522534,-133.06899702903365,17.648026557290144,-41.48884440066444
5.66,-1.98,-6.51,0.798413639293087,-2.550295581586392,1.368959077293022,-132.81066902216784,19.08742247639564,-40.766741444761
5.66,-1.98,-6.51,0.798413639293087,-2.550295581586392,1.368959077293022,-132.81066902216784,19.08742247639564,-40.766741444761
4.84,-0.64,-5.57,0.4963740876249778,-1.2587514868806795,2.524530977393312,-131.76235907719015,22.431032941974188,-39.41274892746301
4.84,-0.64,-5.57,0.4963740876249778,-1.2587514868806795,2.524530977393312,-131.76235907719015,22.431032941974188,-39.41274892746301
5.7,-3.03,-5.57,2.191006217134244,-3.044290666038525,2.149784708175294,-129.88954402446632,25.018825462277388,-39.72937892373464
5.7,-3.03,-5.57,2.191006217134244,-3.044290666038525,2.149784708175294,-129.88954402446632,25.018825462277388,-39.72937892373464
7.88,-0.5,-5.52,2.6837775755784588,0.0992346932534977,0.5544994175420417,-127.97542141388575,29.79611144994345,-37.70100746591034
7.88,-0.5,-5.52,2.6837775755784588,0.0992346932534977,0.5544994175420417,-127.97542141388575,29.79611144994345,-37.70100746591034
3.13,-1.73,-3.55,1.5649437081741169,-1.6003397435562212,5.291989005479961,-127.76677999527551,33.656048249410745,-34.17118813606689
3.13,-1.73,-3.55,1.5649437081741169,-1.6003397435562212,5.291989005479961,-127.76677999527551,33.656048249410745,-34.17118813606689
7.05,1.39,-4.75,1.859863477537164,2.0318485166485942,1.64517957793044,-125.02213252137535,38.23421144458892,-31.304732073341743
7.05,1.39,-4.75,1.859863477537164,2.0318485166485942,1.64517957793044,-125.02213252137535,38.23421144458892,-31.304732073341743
6.92,2.69,-4.18,1.4642278202374492,3.1813098499757224,2.0393979422327124,-122.9958904624243,42.32324429701836,-25.876405289927124
6.92,2.69,-4.18,1.4642278202374492,3.1813098499757224,2.0393979422327124,-122.9958904624243,42.32324429701836,-25.876405289927124
2.32,0.12,-2.84,1.0629297673957878,-0.2284522374609235,6.302311277104759,-122.68448977939887,43.480576858025245,-20.762818905741057
2.32,0.12,-2.84,1.0629297673957878,-0.2284522374609235,6.302311277104759,-122.68448977939887,43.480576858025245,-20.762818905741057
3.27,5.42,-2.89,-1.4776504828799315,2.7621522972385195,3.593079067170418,-119.24220793672814,43.35723698802017,-13.541842119876778
3.27,5.42,-2.89,-1.4776504828799315,2.7621522972385195,3.593079067170418,-119.24220793672814,43.35723698802017,-13.541842119876778
3.26,4.73,-2.28,-0.512720964258327,2.2628584947939934,4.078169516892052,-115.94637091735842,41.67270371214475,-10.189151472083807
3.26,4.73,-2.28,-0.512720964258327,2.2628584947939934,4.078169516892052,-115.94637091735842,41.67270371214475,-10.189151472083807
-0.4,8.88,-0.18,-5.222544592419466,2.4582461911988567,3.0443387350812827,-108.4070880619203,38.97485427752672,-2.1315259137202647
-0.4,8.88,-0.18,-5.222544592419466,2.4582461911988567,3.0443387350812827,-108.4070880619203,38.97485427752672,-2.1315259137202647
-2.33,9.22,2.68,-7.548685258616702,2.5045265250906805,3.944534532742456,-98.96366523953266,39.5223160214568,-0.1145915781247664
-2.33,9.22,2.68,-7.548685258616702,2.5045265250906805,3.944534532742456,-98.96366523953266,39.5223160214568,-0.1145915781247664
2.71,8.13,4.1,-3.595041651207933,5.18700461904629,2.705829018728007,-92.10896087538232,39.07211278567739,-3.300693295071686
2.71,8.13,4.1,-3.595041651207933,5.18700461904629,2.705829018728007,-92.10896087538232,39.07211278567739,-3.300693295071686
1.91,10.23,6.96,-5.999992890980332,5.556728466027068,0.3269108652437076,-80.96262485016383,36.963188541466,-5.949975106955117
1.91,10.23,6.96,-5.999992890980332,5.556728466027068,0.3269108652437076,-80.96262485016383,36.963188541466,-5.949975106955117
8.46,12.08,12.76,-3.291455147650358,10.404475394817302,-6.355924509330107,-72.78307520859934,34.53100937438062,-10.074110549810433
8.46,12.08,12.76,-3.291455147650358,10.404475394817302,-6.355924509330107,-72.78307520859934,34.53100937438062,-10.074110549810433
4.71,9.46,6.91,-2.615651351487486,2.365658083447566,-2.317121271336364,-62.101886205747824,29.701259829199124,-16.489275388774946
4.71,9.46,6.91,-2.615651351487486,2.365658083447566,-2.317121271336364,-62.101886205747824,29.701259829199124,-16.489275388774946
4.71,8.24,9.62,-1.9534456301082816,3.5281782605630534,-3.091493600220195,-55.006638676877785,24.725463298356363,-19.587266633669245
4.71,8.24,9.62,-1.9534456301082816,3.5281782605630534,-3.091493600220195,-55.006638676877785,24.725463298356363,-19.587266633669245
3.33,8.99,12.65,-2.6648382521949667,2.4452665117477013,-5.648148891482334,-43.50525118058415,17.77559810564146,-18.669230437467
3.33,8.99,12.65,-2.6648382521949667,2.4452665117477013,-5.648148891482334,-43.50525118058415,17.77559810564146,-18.669230437467
3.32,9.9,14.89,-2.483676478291934,-0.8354454331217099,-8.189957515847404,-30.63884419055943,12.757459245108164,-19.505871262305693
3.32,9.9,14.89,-2.483676478291934,-0.8354454331217099,-8.189957515847404,-30.63884419055943,12.757459245108164,-19.505871262305693
7.2,10.33,15.59,1.0898380291563905,-5.124926109144322,-9.536162242432992,-22.150726459273766,8.556479215940191,-24.1626672412518
7.2,10.33,15.59,1.0898380291563905,-5.124926109144322,-9.536162242432992,-22.150726459273766,8.556479215940191,-24.1626672412518
8.82,7.69,12.03,3.208844679044147,-7.5732250656938,-4.82205390465667,-16.29245975343786,2.704611892754087,-35.504295540348124
8.82,7.69,12.03,3.208844679044147,-7.5732250656938,-4.82205390465667,-16.29245975343786,2.704611892754087,-35.504295540348124
10.11,3.55,8.41,5.795827942004577,-7.671083199651309,0.1575277077546406,-14.488567642103208,-2.016915574628728,-44.7293144859979
10.11,3.55,8.41,5.795827942004577,-7.671083199651309,0.1575277077546406,-14.488567642103208,-2.016915574628728,-44.7293144859979
5.79,5.29,9.56,0.4863437089925462,-5.986921545536478,-1.0017745014856114,-12.273289521851868,-1.7533192633889718,-52.92346596535568
5.79,5.29,9.56,0.4863437089925462,-5.986921545536478,-1.0017745014856114,-12.273289521851868,-1.7533192633889718,-52.92346596535568
3.46,4.94,10.04,-1.3521475135161471,-3.5588219566491164,-1.2695986150575482,-12.06585603312212,0.4010712754482724,-57.81539569637104
3.46,4.94,10.04,-1.3521475135161471,-3.5588219566491164,-1.2695986150575482,-12.06585603312212,0.4010712754482724,-57.81539569637104
4.38,1.32,9.69,2.3045926659031983,-2.2374114579783573,-0.416155026604601,-15.632898017228824,-0.5958787923837214,-62.77185845365902
4.38,1.32,9.69,2.3045926659031983,-2.2374114579783573,-0.416155026604601,-15.632898017228824,-0.5958787923837214,-62.77185845365902
3.23,0.85,8.82,2.19918836497809,-0.8072702740298788,0.6710227505981994,-18.42540124877966,-0.0229183119580216,-63.05395914548726
3.23,0.85,8.82,2.19918836497809,-0.8072702740298788,0.6710227505981994,-18.42540124877966,-0.0229183119580216,-63.05395914548726
1.6,2.35,9.55,0.1703656698992594,0.6433855878889487,-0.1352829370005608,-20.22715256357965,1.856464464018338,-62.235691121359
1.6,2.35,9.55,0.1703656698992594,0.6433855878889487,-0.1352829370005608,-20.22715256357965,1.856464464018338,-62.235691121359
0.76,2.16,9.36,-0.2199634939060453,1.9333084978518664,0.369132619169255,-22.79329707445838,4.332593112917143,-60.26481476661726
0.76,2.16,9.36,-0.2199634939060453,1.9333084978518664,0.369132619169255,-22.79329707445838,4.332593112917143,-60.26481476661726
0.61,2.75,9.72,-0.8914647078231295,2.211087460592424,-0.0284597053523896,-23.96348615709585,5.904077101832591,-58.4578132506004
0.61,2.75,9.72,-0.8914647078231295,2.211087460592424,-0.0284597053523896,-23.96348615709585,5.904077101832591,-58.4578132506004
0.67,2.93,9.46,-1.1638551590694424,2.236714011001394,0.2062358630110364,-25.19492264637575,7.396290017779932,-56.73172243401768
0.67,2.93,9.46,-1.1638551590694424,2.236714011001394,0.2062358630110364,-25.19492264637575,7.396290017779932,-56.73172243401768
1.22,2.08,8.76,-0.1321671148604692,2.0367694001389083,0.9530347912614092,-26.31162955164407,7.338875609975954,-56.45841982476564
1.22,2.08,8.76,-0.1321671148604692,2.0367694001389083,0.9530347912614092,-26.31162955164407,7.338875609975954,-56.45841982476564
1.46,2.72,8.49,-0.6056586523598785,1.4992880301503728,0.918713625370092,-26.52349964582953,7.798243752767076,-56.04262977353804
1.46,2.72,8.49,-0.6056586523598785,1.4992880301503728,0.918713625370092,-26.52349964582953,7.798243752767076,-56.04262977353804
1.72,3.21,9.05,-0.8635107121570322,1.3327374543476262,0.1815183059519061,-26.38224270571989,8.050949266749551,-56.14650176459217
1.72,3.21,9.05,-0.8635107121570322,1.3327374543476262,0.1815183059519061,-26.38224270571989,8.050949266749551,-56.14650176459217
1.61,3.17,9.23,-0.8096264367431001,1.4565458994830731,0.0569382567931384,-26.22926038886817,7.522608280519941,-56.38039768350901
1.61,3.17,9.23,-0.8096264367431001,1.4565458994830731,0.0569382567931384,-26.22926038886817,7.522608280519941,-56.38039768350901
3.18,2.59,8.96,0.6384681336428136,0.2560258572653167,-0.0233504680943035,-26.00575632582789,6.420486066048695,-56.60153456365382
3.18,2.59,8.96,0.6384681336428136,0.2560258572653167,-0.0233504680943035,-26.00575632582789,6.420486066048695,-56.60153456365382
3.78,2.34,8.65,1.2924876084764565,-0.4485442589384312,0.1777983639164855,-25.418065988790868,4.9518964029981625,-56.7968463150502
3.78,2.34,8.65,1.2924876084764565,-0.4485442589384312,0.1777983639164855,-25.418065988790868,4.9518964029981625,-56.7968463150502
3.61,2.39,8.88,1.212547399567698,-0.3550971304182242,0.0085769837497924,-24.87799095241944,4.550480755424785,-56.65360014298316
3.61,2.39,8.88,1.212547399567698,-0.3550971304182242,0.0085769837497924,-24.87799095241944,4.550480755424785,-56.65360014298316
3.5,3.3,8.69,0.2815140371750964,-0.8957044914556807,-0.0814521086384161,-23.92834419777812,4.6536963885673295,-56.77079436287129
3.5,3.3,8.69,0.2815140371750964,-0.8957044914556807,-0.0814521086384161,-23.92834419777812,4.6536963885673295,-56.77079436287129
2.29,3.67,8.88,-0.7508959900872744,-0.0337833425976485,-0.0423303481291306,-23.63558298502357,4.906017344265486,-57.64529274825973
2.29,3.67,8.88,-0.7508959900872744,-0.0337833425976485,-0.0423303481291306,-23.63558298502357,4.906017344265486,-57.64529274825973
1.57,3.12,9.65,-0.5970620658323694,1.063515421383438,-0.3832593145142179,-23.40148673707778,4.837200229263812,-58.28718053424962
1.57,3.12,9.65,-0.5970620658323694,1.063515421383438,-0.3832593145142179,-23.40148673707778,4.837200229263812,-58.28718053424962
2.23,3.46,8.77,-0.6639810451191783,-0.0706376845194325,0.141685463632152,-22.79329707445838,4.596353909147252,-58.30030109286572
2.23,3.46,8.77,-0.6639810451191783,-0.0706376845194325,0.141685463632152,-22.79329707445838,4.596353909147252,-58.30030109286572
2.39,3.3,8.2,-0.4849979031403017,-0.4059988571019661,0.6719884319953381,-22.55955209306089,4.000057708800217,-59.154950108935175
2.39,3.3,8.2,-0.4849979031403017,-0.4059988571019661,0.6719884319953381,-22.55955209306089,4.000057708800217,-59.154950108935175
1.93,2.59,9.13,0.07846242433532,0.6397015221736474,0.1436005014981862,-22.86343926833653,3.5873017007906127,-59.84128068972836
1.93,2.59,9.13,0.07846242433532,0.6397015221736474,0.1436005014981862,-22.86343926833653,3.5873017007906127,-59.84128068972836
1.93,2.58,9.43,0.1624016189778707,0.7429135227580929,-0.1295416855431348,-22.91020555294516,3.2892294003721183,-60.675981620918215
1.93,2.58,9.43,0.1624016189778707,0.7429135227580929,-0.1295416855431348,-22.91020555294516,3.2892294003721183,-60.675981620918215
2.07,2.2,9.1,0.5285180245112142,0.6378165600585217,0.2542283838085382,-22.86343926833653,3.0714215263829594,-60.955004938931104
2.07,2.2,9.1,0.5285180245112142,0.6378165600585217,0.2542283838085382,-22.86343926833653,3.0714215263829594,-60.955004938931104
2.48,1.95,8.78,0.8772579720404796,0.1987771299520251,0.5205202301174214,-22.466080778094224,2.78484900111774,-61.821201404862826
2.48,1.95,8.78,0.8772579720404796,0.1987771299520251,0.5205202301174214,-22.466080778094224,2.78484900111774,-61.821201404862826
1.91,2.7,9.1,-0.106666373343676,0.4257673872419258,0.1342436594475646,-21.742186134206424,3.025568677774776,-62.704754110255
1.91,2.7,9.1,-0.106666373343676,0.4257673872419258,0.1342436594475646,-21.742186134206424,3.025568677774776,-62.704754110255
1.87,2.82,9.02,-0.3858234238274849,0.2786238464906836,0.1846331096701572,-20.73951961095484,3.335085177891311,-63.296099194215
1.87,2.82,9.02,-0.3858234238274849,0.2786238464906836,0.1846331096701572,-20.73951961095484,3.335085177891311,-63.296099194215
2.02,2.79,9.03,-0.3707423574358013,0.0837696753978303,0.1494799825525135,-20.075850034388896,3.3121572228147254,-64.28137325688984
2.02,2.79,9.03,-0.3707423574358013,0.0837696753978303,0.1494799825525135,-20.075850034388896,3.3121572228147254,-64.28137325688984
1.98,2.91,9.47,-0.5228042977374026,0.1534275647098142,-0.28158748970327,-19.494244164289388,3.380941489627292,-65.25839194352429
1.98,2.91,9.47,-0.5228042977374026,0.1534275647098142,-0.28158748970327,-19.494244164289388,3.380941489627292,-65.25839194352429
2.03,2.7,9.46,-0.3562040785962268,0.1435171155886234,-0.2310300851553624,-19.18038869449432,3.438262641755622,-65.43536500136207
2.03,2.7,9.46,-0.3562040785962268,0.1435171155886234,-0.2310300851553624,-19.18038869449432,3.438262641755622,-65.43536500136207
2.34,2.99,8.86,-0.601293464037908,-0.4616631926345676,0.1972476633990521,-18.855062255560348,3.2777655386010047,-66.2407734880853
2.34,2.99,8.86,-0.601293464037908,-0.4616631926345676,0.1972476633990521,-18.855062255560348,3.2777655386010047,-66.2407734880853
2.52,2.57,8.99,-0.1095302955231299,-0.4340180597779511,0.133231191835577,-18.971232525472264,3.0026424356334624,-67.03614692743177
2.52,2.57,8.99,-0.1095302955231299,-0.4340180597779511,0.133231191835577,-18.971232525472264,3.0026424356334624,-67.03614692743177
2.02,2.04,9.46,0.2908433068050631,0.3648058722512829,-0.0683652833531205,-19.296614397760404,2.8421620551927376,-67.36633638987873
2.02,2.04,9.46,0.2908433068050631,0.3648058722512829,-0.0683652833531205,-19.296614397760404,2.8421620551927376,-67.36633638987873
2.35,2.61,9.14,-0.1609036982415602,-0.1994674191957925,0.0184671886416225,-19.33148601143644,2.9338644268256844,-67.4489827766823
2.35,2.61,9.14,-0.1609036982415602,-0.1994674191957925,0.0184671886416225,-19.33148601143644,2.9338644268256844,-67.4489827766823
2.35,2.42,9.09,0.0269392366575755,-0.0968784529455824,0.111450732172484,-19.69193249784897,2.922401528803221,-67.90425219273371
2.35,2.42,9.09,0.0269392366575755,-0.0968784529455824,0.111450732172484,-19.69193249784897,2.922401528803221,-67.90425219273371
1.77,1.9,9.46,0.3768776126197985,0.7580013043368397,0.0333241951508789,-20.087487431641744,2.8994758203914888,-68.22228228779733
1.77,1.9,9.46,0.3768776126197985,0.7580013043368397,0.0333241951508789,-20.087487431641744,2.8994758203914888,-68.22228228779733
1.66,2.09,8.98,0.0656978575669016,0.6685004159375402,0.4625132830313046,-20.11076285425295,3.117274866889664,-67.89043829465147
1.66,2.09,8.98,0.0656978575669016,0.6685004159375402,0.4625132830313046,-20.11076285425295,3.117274866889664,-67.89043829465147
1.95,2.36,8.93,-0.0962360081786995,0.3166933022773444,0.3722743458815732,-20.09912503821932,3.15166519950434,-68.38844844007662
1.95,2.36,8.93,-0.0962360081786995,0.3166933022773444,0.3722743458815732,-20.09912503821932,3.15166519950434,-68.38844844007662
1.99,2.43,9.41,-0.0832712643764125,0.423938006887644,-0.1042754090042112,-20.134039115213792,3.15166519950434,-69.05476022725051
1.99,2.43,9.41,-0.0832712643764125,0.423938006887644,-0.1042754090042112,-20.134039115213792,3.15166519950434,-69.05476022725051
1.98,2.37,9.42,-0.0316624395115084,0.4357555764950667,-0.0970268206296811,-20.040939097265657,3.117274866889664,-68.92962456147485
1.98,2.37,9.42,-0.0316624395115084,0.4357555764950667,-0.0970268206296811,-20.040939097265657,3.117274866889664,-68.92962456147485
2.34,2.18,9.05,0.2390414417711039,0.0209658813421842,0.2111865082797824,-19.982758376303032,2.8421620551927376,-69.24960284688514
2.34,2.18,9.05,0.2390414417711039,0.0209658813421842,0.2111865082797824,-19.982758376303032,2.8421620551927376,-69.24960284688514
2.14,2.57,9.36,-0.1572073355195589,0.1926948077148411,-0.1297605473122711,-19.982758376303032,2.8994758203914888,-69.52834707781919
2.14,2.57,9.36,-0.1572073355195589,0.1926948077148411,-0.1297605473122711,-19.982758376303032,2.8994758203914888,-69.52834707781919
2.21,2.16,9.18,0.2398108512773039,0.1892336918129112,0.1252874220622999,-20.040939097265657,2.78484900111774,-69.4865054886989
2.21,2.16,9.18,0.2398108512773039,0.1892336918129112,0.1252874220622999,-20.040939097265657,2.78484900111774,-69.4865054886989
2.05,2.72,9.17,-0.3759906342854835,0.1671466382772894,0.0331913980391664,-19.889680039418103,2.9338644268256844,-69.75168169297477
2.05,2.72,9.17,-0.3759906342854835,0.1671466382772894,0.0331913980391664,-19.889680039418103,2.9338644268256844,-69.75168169297477
2.14,2.64,9.31,-0.244376407846016,0.1656098360318361,-0.0998202873171614,-19.971122857066124,2.87655022805785,-70.21327111376787
2.14,2.64,9.31,-0.244376407846016,0.1656098360318361,-0.0998202873171614,-19.971122857066124,2.87655022805785,-70.21327111376787
2.15,2.32,9.28,0.0736562320622454,0.2434172389998417,0.0056999028290078,-20.087487431641744,2.738999060214957,-70.54979476235701
2.15,2.32,9.28,0.0736562320622454,0.2434172389998417,0.0056999028290078,-20.087487431641744,2.738999060214957,-70.54979476235701
2.25,2.52,8.95,-0.1325773049884968,-0.0008004489410153,0.2412005794299752,-20.09912503821932,2.750461504037132,-70.52172446832354
2.25,2.52,8.95,-0.1325773049884968,-0.0008004489410153,0.2412005794299752,-20.09912503821932,2.750461504037132,-70.52172446832354
2.22,2.22,9.02,0.1657955059355739,0.1513189167864386,0.2585185369526801,-20.27371434520358,2.704611892754087,-70.70426845211381
2.22,2.22,9.02,0.1657955059355739,0.1513189167864386,0.2585185369526801,-20.27371434520358,2.704611892754087,-70.70426845211381
1.9,2.36,9.25,-0.0373829320536498,0.4835909774241198,0.0851870296984085,-20.285355318851703,2.7275366438036484,-70.91515282684179
1.9,2.36,9.25,-0.0373829320536498,0.4835909774241198,0.0851870296984085,-20.285355318851703,2.7275366438036484,-70.91515282684179
2.13,2.32,9.25,0.0769806930819705,0.2822141639533306,0.0395506793952993,-20.285355318851703,2.704611892754087,-70.95736285453455
2.13,2.32,9.25,0.0769806930819705,0.2822141639533306,0.0395506793952993,-20.285355318851703,2.704611892754087,-70.95736285453455
2.21,2.33,9.24,0.1027899359845613,0.1919623606513794,0.0269166354775567,-20.27371434520358,2.578527672575933,-71.18267056189946
2.21,2.33,9.24,0.1027899359845613,0.1919623606513794,0.0269166354775567,-20.27371434520358,2.578527672575933,-71.18267056189946
2.21,2.29,9.09,0.1147961650536479,0.1504732755063484,0.1775026008868625,-20.25043303206116,2.521217704700676,-71.40829576929687
2.21,2.29,9.09,0.1147961650536479,0.1504732755063484,0.1775026008868625,-20.25043303206116,2.521217704700676,-71.40829576929687
2.02,2.28,9.2,0.0671802511746789,0.352505183290299,0.1221248743366079,-20.157316215575328,2.544141615361497,-71.56359842931408
2.02,2.28,9.2,0.0671802511746789,0.352505183290299,0.1221248743366079,-20.157316215575328,2.544141615361497,-71.56359842931408
2.27,2.63,8.99,-0.2358997011740935,-0.04487482701487,0.1717012413979954,-20.01766618340029,2.589989743099661,-71.56359842931408
2.27,2.63,8.99,-0.2358997011740935,-0.04487482701487,0.1717012413979954,-20.01766618340029,2.589989743099661,-71.56359842931408
1.99,2.74,9.31,-0.3829556632210712,0.2935419865092697,-0.0883476282040174,-20.040939097265657,2.658762714530565,-71.6766411521629
1.99,2.74,9.31,-0.3829556632210712,0.2935419865092697,-0.0883476282040174,-20.040939097265657,2.658762714530565,-71.6766411521629
2.19,2.16,9.48,0.2837129674062905,0.3092781792594569,-0.1510582684701855,-20.168955080859902,2.4639083675369537,-71.9737624996918
2.19,2.16,9.48,0.2837129674062905,0.3092781792594569,-0.1510582684701855,-20.168955080859902,2.4639083675369537,-71.9737624996918
