acc_x,acc_y,acc_z,lin_x,lin_y,lin_z,eul_x,eul_y,eul_z
-1.75,2.12,-9.35,-0.7518190978689179,-0.3450838380855112,0.0960843527901662,-163.69974033883318,4.997776256010228,6.409008932036036
-1.75,2.12,-9.35,-0.7518190978689179,-0.3450838380855112,0.0960843527901662,-163.69974033883318,4.997776256010228,6.409008932036036
-1.69,3.47,-9.63,-0.7523678909010385,0.8425166853921424,-0.5063519001053738,-163.53886738912243,4.860139072417077,6.386054856968827
-1.69,3.47,-9.63,-0.7523678909010385,0.8425166853921424,-0.5063519001053738,-163.53886738912243,4.860139072417077,6.386054856968827
-2.15,3.96,-8.68,-1.3439556086731903,1.4771090424640343,0.232808963164949,-163.45901362866948,4.194987989089829,6.259812004164343
-2.15,3.96,-8.68,-1.3439556086731903,1.4771090424640343,0.232808963164949,-163.45901362866948,4.194987989089829,6.259812004164343
-1.63,6.09,-7.85,-0.8900129052285876,3.858046534020751,0.5497145476023189,-164.02631287450075,2.337829975144579,6.271288310584378
-1.63,6.09,-7.85,-0.8900129052285876,3.858046534020751,0.5497145476023189,-164.02631287450075,2.337829975144579,6.271288310584378
-0.08,0.69,-9.88,0.943320821913542,-1.0645025596777342,0.004921574493407,-168.08593042045837,-1.7303983035632713,5.961449757231111
-0.08,0.69,-9.88,0.943320821913542,-1.0645025596777342,0.004921574493407,-168.08593042045837,-1.7303983035632713,5.961449757231111
-1.64,1.78,-6.51,-0.8269852830292741,0.9273510574558724,2.9733334291181515,-168.6513771745933,-5.215716631990905,5.8926027489674295
-1.64,1.78,-6.51,-0.8269852830292741,0.9273510574558724,2.9733334291181515,-168.6513771745933,-5.215716631990905,5.8926027489674295
-0.18,-1.57,-6.89,-0.5153527081106977,-2.0546683017249507,3.0626044962886207,-168.4218955829601,-10.64941932234672,0.0229183119580216
-0.18,-1.57,-6.89,-0.5153527081106977,-2.0546683017249507,3.0626044962886207,-168.4218955829601,-10.64941932234672,0.0229183119580216
3.33,-4.5,-12.7,0.2950804865241052,-5.627821927469041,-2.876782022097621,-164.19211217641143,-12.872771138472864,-8.453062112264227
3.33,-4.5,-12.7,0.2950804865241052,-5.627821927469041,-2.876782022097621,-164.19211217641143,-12.872771138472864,-8.453062112264227
3.25,-1.39,-11.72,0.5539142530484984,-2.7004980152644453,-2.1203567271643,-163.22171672296716,-12.00824269100582,-10.868106466869214
3.25,-1.39,-11.72,0.5539142530484984,-2.7004980152644453,-2.1203567271643,-163.22171672296716,-12.00824269100582,-10.868106466869214
4.26,-1.68,-11.18,1.4027225463659638,-3.2960980651627247,-1.7315694034758735,-163.69974033883318,-8.797813093528106,-12.365495103087907
4.26,-1.68,-11.18,1.4027225463659638,-3.2960980651627247,-1.7315694034758735,-163.69974033883318,-8.797813093528106,-12.365495103087907
4.14,1.99,-11.45,1.8453247431862432,-0.0099148468253001,-2.391582588698949,-165.04848521846108,-4.642227799866185,-11.432274343860266
4.14,1.99,-11.45,1.8453247431862432,-0.0099148468253001,-2.391582588698949,-165.04848521846108,-4.642227799866185,-11.432274343860266
3.75,4.7,-13.2,2.7820739539131485,2.077639256406337,-4.27653073572861,-168.08593042045837,1.0542572154525014,-3.782208130568333
3.75,4.7,-13.2,2.7820739539131485,2.077639256406337,-4.27653073572861,-168.08593042045837,1.0542572154525014,-3.782208130568333
-2.27,3.6,-5.75,-1.851068871779044,2.2061287226983617,3.2582196467919915,-166.53078742603913,3.610231319265168,5.582817194583068
-2.27,3.6,-5.75,-1.851068871779044,2.2061287226983617,3.2582196467919915,-166.53078742603913,3.610231319265168,5.582817194583068
-3.26,2.47,-6.51,-1.846012934979,0.8390369204377357,2.390663667081596,-162.15571301144445,5.15836210329675,12.745928771149693
-3.26,2.47,-6.51,-1.846012934979,0.8390369204377357,2.390663667081596,-162.15571301144445,5.15836210329675,12.745928771149693
-3.75,2.66,-7.23,-1.9004059003700384,0.876562880514282,1.4981546530467824,-160.66576217664587,5.720494487173099,14.788953503219902
-3.75,2.66,-7.23,-1.9004059003700384,0.876562880514282,1.4981546530467824,-160.66576217664587,5.720494487173099,14.788953503219902
-2.84,0.65,-7.66,-0.9208258311381872,-0.9301925802909522,1.71650033807901,-162.08197802585826,5.571344453661866,13.726494094235369
-2.84,0.65,-7.66,-0.9208258311381872,-0.9301925802909522,1.71650033807901,-162.08197802585826,5.571344453661866,13.726494094235369
-1.93,0.08,-6.69,-0.6681170420407134,-1.2168009835111628,2.9831307478353923,-164.70021747025422,5.789336220308418,10.13162973120474
-1.93,0.08,-6.69,-0.6681170420407134,-1.2168009835111628,2.9831307478353923,-164.70021747025422,5.789336220308418,10.13162973120474
1.54,1.76,-12.12,1.616933692122266,-0.5793255705338965,-2.4168318001502933,-166.72765058183754,6.053249123067683,0.6531754234266163
1.54,1.76,-12.12,1.616933692122266,-0.5793255705338965,-2.4168318001502933,-166.72765058183754,6.053249123067683,0.6531754234266163
1.51,0.3,-10.83,0.6530004970815644,-1.9384543786291948,-0.9392787626888968,-164.61437509688025,7.304427851725569,-5.0665975409818325
1.51,0.3,-10.83,0.6530004970815644,-1.9384543786291948,-0.9392787626888968,-164.61437509688025,7.304427851725569,-5.0665975409818325
1.57,1.28,-9.51,0.1852984581215545,-0.9438122903041902,0.1309958700670517,-161.36053358743402,9.303593121383251,-8.004999928704901
1.57,1.28,-9.51,0.1852984581215545,-0.9438122903041902,0.1309958700670517,-161.36053358743402,9.303593121383251,-8.004999928704901
4.31,2.84,-12.18,1.3642495474086864,-0.4045287414921035,-3.345128574386888,-155.4292933262199,12.688278342697654,-11.823900394126868
4.31,2.84,-12.18,1.3642495474086864,-0.4045287414921035,-3.345128574386888,-155.4292933262199,12.688278342697654,-11.823900394126868
3.85,4.07,-10.99,1.1072551344433783,0.9137757179708004,-2.4451457869242863,-153.5103719816942,15.852692930840096,-9.786552516199244
3.85,4.07,-10.99,1.1072551344433783,0.9137757179708004,-2.4451457869242863,-153.5103719816942,15.852692930840096,-9.786552516199244
0.32,5.35,-6.98,-1.2465602828163649,2.3313324258019708,1.4128262836172762,-151.6255402012684,19.029325032716933,-1.856464464018338
0.32,5.35,-6.98,-1.2465602828163649,2.3313324258019708,1.4128262836172762,-151.6255402012684,19.029325032716933,-1.856464464018338
0.23,3.42,-8.4,-0.3623273020097717,0.1452380427844946,0.7426042787369784,-151.34635737161238,19.494244164289388,0.1948057441759901
0.23,3.42,-8.4,-0.3623273020097717,0.1452380427844946,0.7426042787369784,-151.34635737161238,19.494244164289388,0.1948057441759901
0.02,3.14,-9.08,-0.4100906904667112,-0.3275818159034793,0.2133754923315205,-151.34635737161238,19.971122857066124,0.43544897228424
0.02,3.14,-9.08,-0.4100906904667112,-0.3275818159034793,0.2133754923315205,-151.34635737161238,19.971122857066124,0.43544897228424
-0.99,3.76,-8.28,-1.6274331284818084,0.1034323476258325,0.8057132064332055,-151.0239731545222,20.20387293870638,0.4010712754482724
-0.99,3.76,-8.28,-1.6274331284818084,0.1034323476258325,0.8057132064332055,-151.0239731545222,20.20387293870638,0.4010712754482724
0.26,3.01,-9.56,-0.2775582185962603,-0.5597553979898025,-0.199894624879807,-151.06981274894218,20.331921330362565,-0.5156637559929028
0.26,3.01,-9.56,-0.2775582185962603,-0.5597553979898025,-0.199894624879807,-151.06981274894218,20.331921330362565,-0.5156637559929028
0.58,3.72,-9.27,-0.2703261181382763,0.2342861022148925,-0.1923366392630648,-150.70506138327715,20.65797889865216,-0.6760941207657828
0.58,3.72,-9.27,-0.2703261181382763,0.2342861022148925,-0.1923366392630648,-150.70506138327715,20.65797889865216,-0.6760941207657828
0.58,3.97,-9.24,-0.3325994533217788,0.3950403127242124,-0.2535796571685065,-150.43438697810743,20.69292362085707,-0.5844194845105756
0.58,3.97,-9.24,-0.3325994533217788,0.3950403127242124,-0.2535796571685065,-150.43438697810743,20.69292362085707,-0.5844194845105756
0.59,3.16,-9.25,-0.0666343139365084,-0.2800655375884244,0.0182219769279825,-150.61456567249238,20.611388956075047,-0.7219315974960596
0.59,3.16,-9.25,-0.0666343139365084,-0.2800655375884244,0.0182219769279825,-150.61456567249238,20.611388956075047,-0.7219315974960596
0.23,3.19,-9.08,-0.4323940359203388,-0.3194073325587616,0.1948648196285507,-150.65977940351803,20.54151049721856,-0.7906880314747026
0.23,3.19,-9.08,-0.4323940359203388,-0.3194073325587616,0.1948648196285507,-150.65977940351803,20.54151049721856,-0.7906880314747026
0.07,3.37,-9.25,-0.6674517821425564,-0.3205696596665266,-0.0104800903989268,-150.61456567249238,20.320279509683687,-1.0542572154525014
0.07,3.37,-9.25,-0.6674517821425564,-0.3205696596665266,-0.0104800903989268,-150.61456567249238,20.320279509683687,-1.0542572154525014
1.17,3.54,-10.07,0.2711886342869139,-0.1122457530798906,-0.9273733657072452,-150.70506138327715,20.20387293870638,-1.4782721132478738
1.17,3.54,-10.07,0.2711886342869139,-0.1122457530798906,-0.9273733657072452,-150.70506138327715,20.20387293870638,-1.4782721132478738
1.19,3.17,-9.52,0.3750328222521349,-0.2159224255816214,-0.288305566438348,-150.84131999821054,20.122400879873982,-1.5928739664684124
1.19,3.17,-9.52,0.3750328222521349,-0.2159224255816214,-0.288305566438348,-150.84131999821054,20.122400879873982,-1.5928739664684124
0.86,3.22,-9.18,0.0483002438724455,-0.1676363487717351,0.0419193257308752,-150.88687816852098,19.994394103683582,-1.5470330404085568
0.86,3.22,-9.18,0.0483002438724455,-0.1676363487717351,0.0419193257308752,-150.88687816852098,19.994394103683582,-1.5470330404085568
0.38,3.07,-9.01,-0.3312312711691276,-0.4056502170954521,0.2948082358425399,-150.9325061978301,19.83151281371854,-1.4209717482803246
0.38,3.07,-9.01,-0.3312312711691276,-0.4056502170954521,0.2948082358425399,-150.9325061978301,19.83151281371854,-1.4209717482803246
0.2,3.07,-9.17,-0.4962768580522017,-0.5203107170308554,0.1610921603566808,-150.9325061978301,19.81987998842397,-1.432431792389882
0.2,3.07,-9.17,-0.4962768580522017,-0.5203107170308554,0.1610921603566808,-150.9325061978301,19.81987998842397,-1.432431792389882
0.46,3.41,-9.43,-0.3739047854644787,-0.2640027030875083,-0.2210664790479182,-150.84131999821054,19.784982749875187,-1.5699534720315549
0.46,3.41,-9.43,-0.3739047854644787,-0.2640027030875083,-0.2210664790479182,-150.84131999821054,19.784982749875187,-1.5699534720315549
1.09,3.5,-9.76,0.1734513517565364,-0.1133170531854388,-0.6170141289918405,-150.79583135983617,19.796614956633128,-1.7303983035632713
1.09,3.5,-9.76,0.1734513517565364,-0.1133170531854388,-0.6170141289918405,-150.79583135983617,19.796614956633128,-1.7303983035632713
1.25,3.63,-9.47,0.2535626654723197,0.1389699057447586,-0.4078834372146378,-150.70506138327715,19.773350749034485,-1.8450038134157023
1.25,3.63,-9.47,0.2535626654723197,0.1389699057447586,-0.4078834372146378,-150.70506138327715,19.773350749034485,-1.8450038134157023
0.76,3.24,-9.08,-0.067514795651204,-0.2163270404831145,0.1386489468389093,-150.84131999821054,19.57563811342796,-1.7533192633889718
0.76,3.24,-9.08,-0.067514795651204,-0.2163270404831145,0.1386489468389093,-150.84131999821054,19.57563811342796,-1.7533192633889718
0.44,3.23,-9.08,-0.3284529469273399,-0.329454402568274,0.1704433574314023,-150.9325061978301,19.42448582735805,-1.5584932484256673
0.44,3.23,-9.08,-0.3284529469273399,-0.329454402568274,0.1704433574314023,-150.9325061978301,19.42448582735805,-1.5584932484256673
0.1,3.16,-9.14,-0.6189657887570891,-0.511714884960361,0.168692268776109,-150.9325061978301,19.4826172689267,-1.5126525087430307
0.1,3.16,-9.14,-0.6189657887570891,-0.511714884960361,0.168692268776109,-150.9325061978301,19.4826172689267,-1.5126525087430307
0.38,3.39,-9.3,-0.4457938617273378,-0.3011136106468153,-0.084613742633163,-150.9325061978301,19.42448582735805,-1.6616358358374437
0.38,3.39,-9.3,-0.4457938617273378,-0.3011136106468153,-0.084613742633163,-150.9325061978301,19.42448582735805,-1.6616358358374437
1.05,3.41,-9.57,0.1421310451366503,-0.175454234457834,-0.4043496855165518,-150.84131999821054,19.447737797457524,-1.925228761643688
1.05,3.41,-9.57,0.1421310451366503,-0.175454234457834,-0.4043496855165518,-150.84131999821054,19.447737797457524,-1.925228761643688
1.16,3.46,-9.56,0.2013883935806773,-0.1016563415903544,-0.423692550625832,-150.84131999821054,19.459364085641027,-2.085681528609333
1.16,3.46,-9.56,0.2013883935806773,-0.1016563415903544,-0.423692550625832,-150.84131999821054,19.459364085641027,-2.085681528609333
0.99,3.37,-9.27,0.0690413630343222,-0.1258048663411,-0.1054288145471904,-150.84131999821054,19.447737797457524,-2.051298459271143
0.99,3.37,-9.27,0.0690413630343222,-0.1258048663411,-0.1054288145471904,-150.84131999821054,19.447737797457524,-2.051298459271143
0.3,3.34,-8.96,-0.5432657449586505,-0.2608653531053504,0.258665312229299,-150.88687816852098,19.37798430858409,-1.8450038134157023
0.3,3.34,-8.96,-0.5432657449586505,-0.2608653531053504,0.258665312229299,-150.88687816852098,19.37798430858409,-1.8450038134157023
