,TIME,ELAPSED_SECONDS,PSTATE,acc_x,acc_y,acc_z,mag_x,mag_y,mag_z,gyr_x,gyr_y,gyr_z,lin_x,lin_y,lin_z,eul_x,eul_y,eul_z,qua_w,qua_x,qua_y,qua_z
0,1378955.0,1277.452183,1.0,4.58,4.63,-6.79,-25.5,-30.25,18.37,9.75,-13.38,-5.5,-0.183461435711796,-0.19332821744617454,0.4020571804279758,-127.24853393391231,25.65305965168436,-23.38978453262475,-0.3271,-0.8959,0.222,-0.2027
1,1378955.0,1277.452183,1.0,4.58,4.63,-6.79,-25.5,-30.25,18.37,9.75,-13.38,-5.5,-0.183461435711796,-0.19332821744617454,0.4020571804279758,-127.24853393391231,25.65305965168436,-23.38978453262475,-0.3271,-0.8959,0.222,-0.2027
2,1378990.0,1277.4552449999999,1.0,4.66,4.58,-7.28,-25.5,-30.25,18.37,-2.31,-7.5,-2.06,-0.1666643619023419,-0.5133532596054748,0.03940415373790706,-127.42938014555916,25.65305965168436,-23.179187018494158,-0.3264,-0.8966,0.222,-0.2009
3,1378990.0,1277.4552449999999,1.0,4.66,4.58,-7.28,-25.5,-30.25,18.37,-2.31,-7.5,-2.06,-0.1666643619023419,-0.5133532596054748,0.03940415373790706,-127.42938014555916,25.65305965168436,-23.179187018494158,-0.3264,-0.8966,0.222,-0.2009
4,1379026.0,1277.48075,1.0,4.82,3.92,-7.02,-25.19,-30.69,18.0,-3.81,-3.94,5.94,0.3898330064555408,-0.7295976612449191,0.4688281190802446,-127.45526250130641,25.8058643261674,-22.99205586322248,-0.326,-0.8967,0.2233,-0.1993
5,1379026.0,1277.48075,1.0,4.82,3.92,-7.02,-25.19,-30.69,18.0,-3.81,-3.94,5.94,0.3898330064555408,-0.7295976612449191,0.4688281190802446,-127.45526250130641,25.8058643261674,-22.99205586322248,-0.326,-0.8967,0.2233,-0.1993
6,1379061.0,1277.537932,1.0,5.2,3.93,-6.8,-24.37,-30.25,18.75,-24.5,-3.06,20.25,0.7314806187775885,-0.5060450687374023,0.4293500425090748,-126.93984342653314,26.346934855604967,-22.945282804181343,-0.3289,-0.8947,0.2279,-0.1989
7,1379061.0,1277.537932,1.0,5.2,3.93,-6.8,-24.37,-30.25,18.75,-24.5,-3.06,20.25,0.7314806187775885,-0.5060450687374023,0.4293500425090748,-126.93984342653314,26.346934855604967,-22.945282804181343,-0.3289,-0.8947,0.2279,-0.1989
8,1379096.0,1277.5460460000002,1.0,5.56,3.32,-7.23,-24.37,-30.25,18.75,-21.12,0.56,33.69,1.2234218704658937,-1.1917707487179232,0.2519746308748907,-125.59589546247182,27.548855827733,-23.027138205337288,-0.3353,-0.8894,0.2381,-0.1996
9,1379096.0,1277.5460460000002,1.0,5.56,3.32,-7.23,-24.37,-30.25,18.75,-21.12,0.56,33.69,1.2234218704658937,-1.1917707487179232,0.2519746308748907,-125.59589546247182,27.548855827733,-23.027138205337288,-0.3353,-0.8894,0.2381,-0.1996
10,1379131.0,1277.568004,1.0,5.24,2.39,-6.59,-24.0,-30.69,18.37,-53.75,-4.81,74.25,1.5248012747373634,-1.4794374176980365,1.3164176121513442,-123.96398525409832,29.33390567781849,-23.331277218076693,-0.3401,-0.8828,0.2532,-0.2022
11,1379131.0,1277.568004,1.0,5.24,2.39,-6.59,-24.0,-30.69,18.37,-53.75,-4.81,74.25,1.5248012747373634,-1.4794374176980365,1.3164176121513442,-123.96398525409832,29.33390567781849,-23.331277218076693,-0.3401,-0.8828,0.2532,-0.2022
12,1379168.0,1277.611946,1.0,5.04,0.24,-6.07,-25.19,-30.69,17.5,-31.62,2.56,156.56,2.555042039461619,-2.416972534355744,2.7402432791302056,-120.24673960552259,33.871602322817786,-24.51434453810049,-0.3438,-0.8671,0.2913,-0.2123
13,1379168.0,1277.611946,1.0,5.04,0.24,-6.07,-25.19,-30.69,17.5,-31.62,2.56,156.56,2.555042039461619,-2.416972534355744,2.7402432791302056,-120.24673960552259,33.871602322817786,-24.51434453810049,-0.3438,-0.8671,0.2913,-0.2123
14,1379203.0,1277.678531,1.0,6.71,4.74,-5.06,-25.19,-30.69,17.5,-104.31,13.31,197.38,0.3614335487951685,1.4837490293217281,0.2796801455398654,-115.23680905302649,39.2910517001401,-25.89992116016652,-0.3515,-0.8445,0.3362,-0.2241
15,1379203.0,1277.678531,1.0,6.71,4.74,-5.06,-25.19,-30.69,17.5,-104.31,13.31,197.38,0.3614335487951685,1.4837490293217281,0.2796801455398654,-115.23680905302649,39.2910517001401,-25.89992116016652,-0.3515,-0.8445,0.3362,-0.2241
16,1379237.0,1277.695148,1.0,7.66,5.33,-6.6,-29.69,-28.06,16.25,-53.25,20.37,150.13,-0.5335205751039718,0.6582782212426435,-1.5918817291034664,-108.54434186923865,45.64778844933024,-27.832105272694303,-0.3643,-0.8118,0.3879,-0.2405
17,1379237.0,1277.695148,1.0,7.66,5.33,-6.6,-29.69,-28.06,16.25,-53.25,20.37,150.13,-0.5335205751039718,0.6582782212426435,-1.5918817291034664,-108.54434186923865,45.64778844933024,-27.832105272694303,-0.3643,-0.8118,0.3879,-0.2405
18,1379272.0,1277.741079,1.0,7.61,3.97,-5.19,-33.38,-23.87,13.0,-82.12,25.31,122.12,0.10941066145725943,0.8246160966927241,-0.18920602138380005,-102.7228019769725,50.668725019229704,-29.037876869982465,-0.3793,-0.7811,0.4279,-0.2507
19,1379272.0,1277.741079,1.0,7.61,3.97,-5.19,-33.38,-23.87,13.0,-82.12,25.31,122.12,0.10941066145725943,0.8246160966927241,-0.18920602138380005,-102.7228019769725,50.668725019229704,-29.037876869982465,-0.3793,-0.7811,0.4279,-0.2507
20,1379309.0,1277.8081320000001,1.0,9.13,6.38,-6.37,-36.38,-19.87,11.69,-84.31,16.56,101.44,-1.6899980235767371,0.966974384288505,-2.8758997129101225,-98.40086710313936,54.24571355108697,-29.440524955343975,-0.3931,-0.757,0.4559,-0.2541
21,1379309.0,1277.8081320000001,1.0,9.13,6.38,-6.37,-36.38,-19.87,11.69,-84.31,16.56,101.44,-1.6899980235767371,0.966974384288505,-2.8758997129101225,-98.40086710313936,54.24571355108697,-29.440524955343975,-0.3931,-0.757,0.4559,-0.2541
22,1379344.0,1277.826812,1.0,8.5,4.23,-6.31,-36.38,-19.87,11.69,-47.69,1.12,56.88,-0.2617884435293956,-0.11480072488420802,-1.5897216859534051,-95.207589729786,56.966262181573775,-29.49976914452507,-0.4031,-0.7385,0.4769,-0.2546
23,1379344.0,1277.826812,1.0,8.5,4.23,-6.31,-36.38,-19.87,11.69,-47.69,1.12,56.88,-0.2617884435293956,-0.11480072488420802,-1.5897216859534051,-95.207589729786,56.966262181573775,-29.49976914452507,-0.4031,-0.7385,0.4769,-0.2546
24,1379381.0,1277.829913,1.0,6.53,3.11,-4.4,-39.06,-17.0,10.06,-106.81,-7.94,71.0,-0.1338725310155522,0.12900147493032454,1.3427007583690376,-92.20807957779185,59.68268779789295,-28.71838798339577,-0.4144,-0.7206,0.4976,-0.248
25,1379381.0,1277.829913,1.0,6.53,3.11,-4.4,-39.06,-17.0,10.06,-106.81,-7.94,71.0,-0.1338725310155522,0.12900147493032454,1.3427007583690376,-92.20807957779185,59.68268779789295,-28.71838798339577,-0.4144,-0.7206,0.4976,-0.248
26,1379418.0,1277.872085,1.0,6.54,5.33,-3.66,-41.0,-14.88,8.88,-91.69,22.62,56.44,-2.2870291644347898,0.5991148683776308,0.9192061056334301,-87.38693841130173,63.134637551415004,-27.60785191517117,-0.4379,-0.6908,0.5235,-0.2386
27,1379418.0,1277.872085,1.0,6.54,5.33,-3.66,-41.0,-14.88,8.88,-91.69,22.62,56.44,-2.2870291644347898,0.5991148683776308,0.9192061056334301,-87.38693841130173,63.134637551415004,-27.60785191517117,-0.4379,-0.6908,0.5235,-0.2386
28,1379452.0,1277.9320300000002,1.0,7.58,3.55,-4.9,-41.0,-14.88,8.88,-38.56,33.13,25.69,-0.12626569427925596,-0.3086727567265479,0.1134731160417264,-85.32834664281017,63.98388526065868,-27.796689641349,-0.4498,-0.6777,0.5298,-0.2402
29,1379452.0,1277.9320300000002,1.0,7.58,3.55,-4.9,-41.0,-14.88,8.88,-38.56,33.13,25.69,-0.12626569427925596,-0.3086727567265479,0.1134731160417264,-85.32834664281017,63.98388526065868,-27.796689641349,-0.4498,-0.6777,0.5298,-0.2402
30,1379485.0,1277.939548,1.0,7.28,2.57,-3.45,-41.88,-15.25,7.19,-99.87,31.31,39.0,0.480810340845699,0.4614385124625384,1.376840042749942,-82.23418197710798,65.24478588422559,-27.631452438914533,-0.4689,-0.6576,0.5391,-0.2388
31,1379485.0,1277.939548,1.0,7.28,2.57,-3.45,-41.88,-15.25,7.19,-99.87,31.31,39.0,0.480810340845699,0.4614385124625384,1.376840042749942,-82.23418197710798,65.24478588422559,-27.631452438914533,-0.4689,-0.6576,0.5391,-0.2388
32,1379522.0,1277.956882,1.0,7.24,3.74,-2.93,-42.06,-13.88,7.19,-83.37,50.75,53.5,-0.7615786717793094,0.5024058452966984,1.19516428072353,-79.00323447621575,66.59687161580996,-27.678657073649997,-0.4866,-0.6361,0.5489999999999999,-0.2392
33,1379522.0,1277.956882,1.0,7.24,3.74,-2.93,-42.06,-13.88,7.19,-83.37,50.75,53.5,-0.7615786717793094,0.5024058452966984,1.19516428072353,-79.00323447621575,66.59687161580996,-27.678657073649997,-0.4866,-0.6361,0.5489999999999999,-0.2392
34,1379557.0,1277.998423,1.0,9.52,6.21,-3.67,-43.0,-11.69,3.5,-60.44,73.94,40.0,-2.2944589427495314,-0.13386982117369994,-1.9143114379971244,-74.77463787425259,67.55923990117556,-28.552816976564145,-0.5113,-0.6072,0.556,-0.2466
35,1379557.0,1277.998423,1.0,9.52,6.21,-3.67,-43.0,-11.69,3.5,-60.44,73.94,40.0,-2.2944589427495314,-0.13386982117369994,-1.9143114379971244,-74.77463787425259,67.55923990117556,-28.552816976564145,-0.5113,-0.6072,0.556,-0.2466
36,1379592.0,1278.06075,1.0,8.87,4.27,-2.71,-43.0,-11.69,3.5,-20.69,65.75,17.75,-0.9262977306621204,0.1972435295451973,-0.3598128806789393,-72.78307520859934,66.72030564497379,-30.21133398212997,-0.5269,-0.5933,0.5499,-0.2606
37,1379592.0,1278.06075,1.0,8.87,4.27,-2.71,-43.0,-11.69,3.5,-20.69,65.75,17.75,-0.9262977306621204,0.1972435295451973,-0.3598128806789393,-72.78307520859934,66.72030564497379,-30.21133398212997,-0.5269,-0.5933,0.5499,-0.2606
38,1379629.0,1278.1246820000001,1.0,6.99,5.19,1.27,-44.06,-9.5,0.19,-35.44,245.44,-3.5,-3.1562187241440425,2.324431338051002,1.9298230804816447,-70.15725143860956,64.07848807925822,-32.424928041950515,-0.5571,-0.5747,0.5305,-0.2792
39,1379629.0,1278.1246820000001,1.0,6.99,5.19,1.27,-44.06,-9.5,0.19,-35.44,245.44,-3.5,-3.1562187241440425,2.324431338051002,1.9298230804816447,-70.15725143860956,64.07848807925822,-32.424928041950515,-0.5571,-0.5747,0.5305,-0.2792
40,1379665.0,1278.138085,1.0,9.04,3.54,-0.68,-43.38,-10.38,-4.0,26.5,302.19,-12.69,-0.09187008380436934,-0.3085301316655764,0.07978159102292537,-66.45982503485911,55.95178287128961,-39.169400592648394,-0.606,-0.5479999999999999,0.4691,-0.3352
41,1379665.0,1278.138085,1.0,9.04,3.54,-0.68,-43.38,-10.38,-4.0,26.5,302.19,-12.69,-0.09187008380436934,-0.3085301316655764,0.07978159102292537,-66.45982503485911,55.95178287128961,-39.169400592648394,-0.606,-0.5479999999999999,0.4691,-0.3352
42,1379700.0,1278.1477109999998,1.0,7.94,2.83,2.3,-43.38,-10.38,-4.0,16.0,305.38,-9.38,-0.04239726692704915,1.5433901345603565,1.2067285256899645,-63.525076929588316,49.90920133357593,-43.93739653048951,-0.6364,-0.5264,0.4219,-0.3741
43,1379700.0,1278.1477109999998,1.0,7.94,2.83,2.3,-43.38,-10.38,-4.0,16.0,305.38,-9.38,-0.04239726692704915,1.5433901345603565,1.2067285256899645,-63.525076929588316,49.90920133357593,-43.93739653048951,-0.6364,-0.5264,0.4219,-0.3741
44,1379733.0,1278.2064380000002,1.0,10.41,2.99,0.07,-41.5,-10.75,-13.88,53.81,326.06,9.75,1.2038243059033946,-2.898348075621847,-0.5598096402559438,-58.720603220456965,40.52234562197142,-51.608769756507385,-0.6709999999999999,-0.4903,0.3463,-0.4353
45,1379733.0,1278.2064380000002,1.0,10.41,2.99,0.07,-41.5,-10.75,-13.88,53.81,326.06,9.75,1.2038243059033946,-2.898348075621847,-0.5598096402559438,-58.720603220456965,40.52234562197142,-51.608769756507385,-0.6709999999999999,-0.4903,0.3463,-0.4353
46,1379770.0,1278.2150199999999,1.0,8.48,4.31,3.96,-37.69,-12.56,-24.0,31.19,219.31,12.06,-0.7346731029628897,0.20690771577034986,-0.4688326956663005,-56.12052906282052,35.853396366027425,-55.57582333465725,-0.6831,-0.4704,0.3078,-0.4662
47,1379770.0,1278.2150199999999,1.0,8.48,4.31,3.96,-37.69,-12.56,-24.0,31.19,219.31,12.06,-0.7346731029628897,0.20690771577034986,-0.4688326956663005,-56.12052906282052,35.853396366027425,-55.57582333465725,-0.6831,-0.4704,0.3078,-0.4662
48,1379807.0,1278.2630869999998,1.0,10.04,3.76,3.25,-31.37,-12.25,-30.06,38.88,246.13,2.31,0.4899812017052709,-2.5335400601756626,-1.0948541707766442,-51.97818068894303,28.552816976564145,-60.98159941844144,-0.6998,-0.4382,0.2466,-0.5074
49,1379807.0,1278.2630869999998,1.0,10.04,3.76,3.25,-31.37,-12.25,-30.06,38.88,246.13,2.31,0.4899812017052709,-2.5335400601756626,-1.0948541707766442,-51.97818068894303,28.552816976564145,-60.98159941844144,-0.6998,-0.4382,0.2466,-0.5074
50,1379842.0,1278.281651,1.0,8.34,4.54,5.88,-31.37,-12.25,-30.06,-8.44,66.31,4.88,-0.5513071992116867,-0.034756752470305415,-1.3484588000187188,-50.21272747501065,26.405782688920823,-62.677919076870104,-0.7052,-0.4243,0.2284,-0.5201
51,1379842.0,1278.281651,1.0,8.34,4.54,5.88,-31.37,-12.25,-30.06,-8.44,66.31,4.88,-0.5513071992116867,-0.034756752470305415,-1.3484588000187188,-50.21272747501065,26.405782688920823,-62.677919076870104,-0.7052,-0.4243,0.2284,-0.5201
52,1379878.0,1278.330664,1.0,7.98,4.05,5.55,-24.19,-13.0,-35.38,6.31,27.69,-1.94,-0.2464422181773112,-0.3361640294581707,-0.7153108428466535,-49.2528385760365,25.312354349514575,-63.44422897307763,-0.7084,-0.4167,0.2191,-0.5258
53,1379878.0,1278.330664,1.0,7.98,4.05,5.55,-24.19,-13.0,-35.38,6.31,27.69,-1.94,-0.2464422181773112,-0.3361640294581707,-0.7153108428466535,-49.2528385760365,25.312354349514575,-63.44422897307763,-0.7084,-0.4167,0.2191,-0.5258
54,1379913.0,1278.388669,1.0,7.79,3.16,5.2,-23.87,-12.56,-35.88,19.5,-4.06,-4.19,0.5317766111530307,-0.4265838849334045,-0.054634897260889666,-49.53031871016275,24.97187636961762,-63.40381821677742,-0.7083,-0.4189,0.2162,-0.5255
55,1379913.0,1278.388669,1.0,7.79,3.16,5.2,-23.87,-12.56,-35.88,19.5,-4.06,-4.19,0.5317766111530307,-0.4265838849334045,-0.054634897260889666,-49.53031871016275,24.97187636961762,-63.40381821677742,-0.7083,-0.4189,0.2162,-0.5255
56,1379948.0,1278.406285,1.0,7.15,3.11,5.13,-23.87,-12.56,-35.88,-0.06,-28.19,1.25,0.35720032572237903,0.02175162796690033,0.4801589774350461,-50.238038297036006,25.394572616004382,-63.080848073266175,-0.7056,-0.4245,0.2198,-0.5231
57,1379948.0,1278.406285,1.0,7.15,3.11,5.13,-23.87,-12.56,-35.88,-0.06,-28.19,1.25,0.35720032572237903,0.02175162796690033,0.4801589774350461,-50.238038297036006,25.394572616004382,-63.080848073266175,-0.7056,-0.4245,0.2198,-0.5231
58,1379983.0,1278.453148,1.0,6.95,3.54,5.12,-22.56,-12.56,-35.0,-6.63,-24.12,0.0,-0.14899647165228558,0.21933933497586766,0.4804401424229389,-50.605340832368576,26.288094094940124,-62.40977867122138,-0.7051,-0.4274,0.2274,-0.5181
59,1379983.0,1278.453148,1.0,6.95,3.54,5.12,-22.56,-12.56,-35.0,-6.63,-24.12,0.0,-0.14899647165228558,0.21933933497586766,0.4804401424229389,-50.605340832368576,26.288094094940124,-62.40977867122138,-0.7051,-0.4274,0.2274,-0.5181
60,1380020.0,1278.471227,1.0,7.27,3.43,5.25,-23.75,-13.75,-34.69,1.5,-1.56,1.94,0.07181480406567188,0.206747955586712,0.20808771615885568,-50.71944432115219,26.5117266696815,-62.28923949337646,-0.7046,-0.4283,0.2293,-0.5172
61,1380020.0,1278.471227,1.0,7.27,3.43,5.25,-23.75,-13.75,-34.69,1.5,-1.56,1.94,0.07181480406567188,0.206747955586712,0.20808771615885568,-50.71944432115219,26.5117266696815,-62.28923949337646,-0.7046,-0.4283,0.2293,-0.5172
62,1380055.0,1278.516475,1.0,7.5,3.31,5.25,-23.75,-13.75,-34.69,-3.13,-5.88,-2.0,0.2645717170910513,0.1043472213301575,0.07588880346885851,-50.74480796197109,26.558820285317804,-62.249076797667115,-0.7046,-0.4285,0.2297,-0.5169
63,1380055.0,1278.516475,1.0,7.5,3.31,5.25,-23.75,-13.75,-34.69,-3.13,-5.88,-2.0,0.2645717170910513,0.1043472213301575,0.07588880346885851,-50.74480796197109,26.558820285317804,-62.249076797667115,-0.7046,-0.4285,0.2297,-0.5169
64,1380089.0,1278.5220359999998,1.0,7.32,3.85,5.07,-24.0,-12.25,-35.5,-4.5,-0.75,-0.25,-0.3366274605754491,0.016360164642466483,0.11148551981713872,-50.681403847895496,26.912168656137837,-61.86127398626197,-0.7061,-0.428,0.2327,-0.514
65,1380089.0,1278.5220359999998,1.0,7.32,3.85,5.07,-24.0,-12.25,-35.5,-4.5,-0.75,-0.25,-0.3366274605754491,0.016360164642466483,0.11148551981713872,-50.681403847895496,26.912168656137837,-61.86127398626197,-0.7061,-0.428,0.2327,-0.514
66,1380124.0,1278.579981,1.0,7.3,3.97,5.07,-24.75,-13.38,-35.06,1.37,-8.13,-4.81,-0.4340758502572748,0.05071575149025565,0.0822062591593884,-50.87166614791169,27.03000922772236,-61.56760277209649,-0.7064,-0.4295,0.2337,-0.5118
67,1380124.0,1278.579981,1.0,7.3,3.97,5.07,-24.75,-13.38,-35.06,1.37,-8.13,-4.81,-0.4340758502572748,0.05071575149025565,0.0822062591593884,-50.87166614791169,27.03000922772236,-61.56760277209649,-0.7064,-0.4295,0.2337,-0.5118
68,1380161.0,1278.636869,1.0,7.37,3.77,4.86,-24.0,-12.56,-35.06,1.75,-2.0,-1.5,-0.21662121190770867,-0.12147418182058801,0.21041535959532354,-51.02398420663922,27.041794884833607,-61.30101752415778,-0.7070000000000001,-0.4307,0.2338,-0.5098
69,1380161.0,1278.636869,1.0,7.37,3.77,4.86,-24.0,-12.56,-35.06,1.75,-2.0,-1.5,-0.21662121190770867,-0.12147418182058801,0.21041535959532354,-51.02398420663922,27.041794884833607,-61.30101752415778,-0.7070000000000001,-0.4307,0.2338,-0.5098
70,1380194.0,1278.644863,1.0,6.78,4.21,5.32,-24.0,-12.56,-35.06,-0.94,3.44,1.81,-0.7906688961782709,0.5155974073003229,0.26181359437200946,-50.98589564550729,26.982869511205863,-61.367629313530685,-0.7071,-0.4304,0.2333,-0.5103
71,1380194.0,1278.644863,1.0,6.78,4.21,5.32,-24.0,-12.56,-35.06,-0.94,3.44,1.81,-0.7906688961782709,0.5155974073003229,0.26181359437200946,-50.98589564550729,26.982869511205863,-61.367629313530685,-0.7071,-0.4304,0.2333,-0.5103
72,1380231.0,1278.729317,1.0,7.2,4.07,5.25,-25.19,-13.38,-34.69,12.69,7.44,0.44,-0.4844978252985259,0.232546168006712,0.02510696543605384,-51.03668173616908,26.676574330601248,-61.52759147164257,-0.7067,-0.4308,0.2307,-0.5115
73,1380231.0,1278.729317,1.0,7.2,4.07,5.25,-25.19,-13.38,-34.69,12.69,7.44,0.44,-0.4844978252985259,0.232546168006712,0.02510696543605384,-51.03668173616908,26.676574330601248,-61.52759147164257,-0.7067,-0.4308,0.2307,-0.5115
74,1380268.0,1278.733956,1.0,7.43,3.69,5.17,-25.19,-13.75,-33.88,19.12,11.56,2.06,0.0035826703991173048,0.06023870031793499,0.031873354804632825,-51.31619778683095,26.017517180397213,-61.99490997256027,-0.7047,-0.433,0.2251,-0.515
75,1380268.0,1278.733956,1.0,7.43,3.69,5.17,-25.19,-13.75,-33.88,19.12,11.56,2.06,0.0035826703991173048,0.06023870031793499,0.031873354804632825,-51.31619778683095,26.017517180397213,-61.99490997256027,-0.7047,-0.433,0.2251,-0.515
76,1380300.0,1278.7801880000002,1.0,7.25,3.59,5.01,-25.19,-13.75,-33.88,14.5,5.25,1.56,0.04847875147068459,0.04457864905590392,0.2910647550082768,-51.659688661303676,25.641307370957357,-62.31601934999826,-0.7023,-0.4357,0.2219,-0.5174
77,1380300.0,1278.7801880000002,1.0,7.25,3.59,5.01,-25.19,-13.75,-33.88,14.5,5.25,1.56,0.04847875147068459,0.04457864905590392,0.2910647550082768,-51.659688661303676,25.641307370957357,-62.31601934999826,-0.7023,-0.4357,0.2219,-0.5174
78,1380335.0,1278.79809,1.0,7.09,3.52,4.8,-24.75,-13.75,-34.19,13.06,2.31,-0.5,0.06933534854198431,-0.02974700886174086,0.5496090189463718,-51.95268548055449,25.335843929176026,-62.423176652141294,-0.7011,-0.43799999999999994,0.2193,-0.5182
79,1380335.0,1278.79809,1.0,7.09,3.52,4.8,-24.75,-13.75,-34.19,13.06,2.31,-0.5,0.06933534854198431,-0.02974700886174086,0.5496090189463718,-51.95268548055449,25.335843929176026,-62.423176652141294,-0.7011,-0.43799999999999994,0.2193,-0.5182
80,1380372.0,1278.842968,1.0,7.19,3.84,4.89,-25.5,-15.25,-34.19,15.69,8.69,1.31,-0.14157862654747874,-0.04174369938970601,0.30233450881042145,-52.09294338177222,25.03056340197877,-62.570617174057595,-0.7004,-0.4391,0.2167,-0.5193
81,1380372.0,1278.842968,1.0,7.19,3.84,4.89,-25.5,-15.25,-34.19,15.69,8.69,1.31,-0.14157862654747874,-0.04174369938970601,0.30233450881042145,-52.09294338177222,25.03056340197877,-62.570617174057595,-0.7004,-0.4391,0.2167,-0.5193
82,1380407.0,1278.860091,1.0,7.28,3.97,5.13,-24.0,-15.25,-33.88,12.56,13.06,4.69,-0.15929567623145455,0.06648955234423637,0.0574754694582964,-52.19500183844674,24.467440757791284,-63.1077408741901,-0.6984,-0.4399,0.2119,-0.5233
83,1380407.0,1278.860091,1.0,7.28,3.97,5.13,-24.0,-15.25,-33.88,12.56,13.06,4.69,-0.15929567623145455,0.06648955234423637,0.0574754694582964,-52.19500183844674,24.467440757791284,-63.1077408741901,-0.6984,-0.4399,0.2119,-0.5233
84,1380442.0,1278.9038970000001,1.0,7.15,3.87,5.51,-24.0,-15.25,-33.88,15.0,14.13,2.75,-0.015793579445936512,0.4192687919818348,-0.005763782699871101,-52.23328523623708,23.96348615709585,-63.49812368940196,-0.6973,-0.4402,0.2076,-0.5262
85,1380442.0,1278.9038970000001,1.0,7.15,3.87,5.51,-24.0,-15.25,-33.88,15.0,14.13,2.75,-0.015793579445936512,0.4192687919818348,-0.005763782699871101,-52.23328523623708,23.96348615709585,-63.49812368940196,-0.6973,-0.4402,0.2076,-0.5262
86,1380478.0,1278.9684619999998,1.0,6.75,3.72,5.74,-23.69,-14.5,-35.88,22.81,40.44,7.19,0.08763462367628239,0.7214449175287427,0.22435709048689567,-52.10569825761032,22.898513619526447,-64.2949069533977,-0.696,-0.4392,0.1985,-0.5321
87,1380478.0,1278.9684619999998,1.0,6.75,3.72,5.74,-23.69,-14.5,-35.88,22.81,40.44,7.19,0.08763462367628239,0.7214449175287427,0.22435709048689567,-52.10569825761032,22.898513619526447,-64.2949069533977,-0.696,-0.4392,0.1985,-0.5321
88,1380515.0,1278.985862,1.0,7.36,3.9,4.96,-22.87,-15.56,-35.5,24.12,88.06,5.06,0.032782958506728084,-0.5605145190746195,0.1285329955647807,-51.278062716299324,21.147383365420364,-65.65341937322533,-0.6966,-0.4327,0.1835,-0.5421
89,1380515.0,1278.985862,1.0,7.36,3.9,4.96,-22.87,-15.56,-35.5,24.12,88.06,5.06,0.032782958506728084,-0.5605145190746195,0.1285329955647807,-51.278062716299324,21.147383365420364,-65.65341937322533,-0.6966,-0.4327,0.1835,-0.5421
90,1380548.0,1279.0304429999999,1.0,6.69,3.95,5.53,-22.87,-15.56,-35.5,11.94,39.31,-1.37,-0.039440111077484914,-0.005015236213561368,0.27051245248926925,-50.44061941505198,19.192010366536685,-66.95369808518734,-0.6974,-0.4261,0.1667,-0.5516
91,1380548.0,1279.0304429999999,1.0,6.69,3.95,5.53,-22.87,-15.56,-35.5,11.94,39.31,-1.37,-0.039440111077484914,-0.005015236213561368,0.27051245248926925,-50.44061941505198,19.192010366536685,-66.95369808518734,-0.6974,-0.4261,0.1667,-0.5516
92,1380583.0,1279.038501,1.0,5.79,4.31,6.31,-20.25,-16.0,-34.19,13.19,60.63,3.44,-0.41458778937277696,0.8331787394701715,0.2646255736532588,-49.30326654818019,17.277034050168414,-68.34689157105544,-0.6985,-0.4171,0.1502,-0.5617
93,1380583.0,1279.038501,1.0,5.79,4.31,6.31,-20.25,-16.0,-34.19,13.19,60.63,3.44,-0.41458778937277696,0.8331787394701715,0.2646255736532588,-49.30326654818019,17.277034050168414,-68.34689157105544,-0.6985,-0.4171,0.1502,-0.5617
94,1380620.0,1279.104417,1.0,5.87,4.25,6.56,-18.75,-17.06,-36.25,15.19,88.37,3.0,-0.205726046568224,0.6115548568710449,0.0528467699363091,-48.045582104940436,15.262847451308847,-69.82153596259464,-0.6993,-0.4071,0.1328,-0.5723
95,1380620.0,1279.104417,1.0,5.87,4.25,6.56,-18.75,-17.06,-36.25,15.19,88.37,3.0,-0.205726046568224,0.6115548568710449,0.0528467699363091,-48.045582104940436,15.262847451308847,-69.82153596259464,-0.6993,-0.4071,0.1328,-0.5723
96,1380655.0,1279.1123710000002,1.0,6.28,3.88,6.18,-18.75,-17.06,-36.25,13.88,75.0,0.06,0.20278989561108265,-0.2962396931089111,0.18603056555271813,-46.84396830154976,13.276466658923828,-71.1404012489265,-0.7003,-0.3975,0.1156,-0.5817
97,1380655.0,1279.1123710000002,1.0,6.28,3.88,6.18,-18.75,-17.06,-36.25,13.88,75.0,0.06,0.20278989561108265,-0.2962396931089111,0.18603056555271813,-46.84396830154976,13.276466658923828,-71.1404012489265,-0.7003,-0.3975,0.1156,-0.5817
98,1380689.0,1279.1734199999999,1.0,5.49,4.28,7.09,-16.5,-16.75,-38.0,12.25,59.75,-0.63,-0.042182730824348924,0.5673399224548155,-0.11317590722282668,-45.73483064826311,11.397725602729444,-72.25725624910815,-0.701,-0.3886,0.0993,-0.5896
99,1380689.0,1279.1734199999999,1.0,5.49,4.28,7.09,-16.5,-16.75,-38.0,12.25,59.75,-0.63,-0.042182730824348924,0.5673399224548155,-0.11317590722282668,-45.73483064826311,11.397725602729444,-72.25725624910815,-0.701,-0.3886,0.0993,-0.5896
100,1380724.0,1279.1913279999999,1.0,5.55,4.72,6.64,-13.19,-17.5,-38.75,9.5,74.44,-3.19,-0.4988423509971153,-0.17932998836263891,-0.03659626655888815,-44.28358642561688,9.154139652218912,-73.53939139013687,-0.7023,-0.3769,0.0798,-0.5986
101,1380724.0,1279.1913279999999,1.0,5.55,4.72,6.64,-13.19,-17.5,-38.75,9.5,74.44,-3.19,-0.4988423509971153,-0.17932998836263891,-0.03659626655888815,-44.28358642561688,9.154139652218912,-73.53939139013687,-0.7023,-0.3769,0.0798,-0.5986
102,1380761.0,1279.232028,1.0,5.04,5.48,7.7,-11.25,-17.87,-37.56,13.75,69.62,-6.75,-0.8663837564595711,0.5829458485153767,-0.8531601917549008,-43.36956859779122,7.453706284964303,-74.3425928628069,-0.703,-0.3695,0.065,-0.6042
103,1380761.0,1279.232028,1.0,5.04,5.48,7.7,-11.25,-17.87,-37.56,13.75,69.62,-6.75,-0.8663837564595711,0.5829458485153767,-0.8531601917549008,-43.36956859779122,7.453706284964303,-74.3425928628069,-0.703,-0.3695,0.065,-0.6042
104,1380796.0,1279.297877,1.0,4.8,6.57,8.03,-11.25,-17.87,-37.56,33.63,64.12,-5.06,-1.5533621363554797,0.6297885683611542,-1.5015873707178071,-42.667502601243356,4.883078110442899,-75.39608386757837,-0.7014,-0.3638,0.0426,-0.6115
105,1380796.0,1279.297877,1.0,4.8,6.57,8.03,-11.25,-17.87,-37.56,33.63,64.12,-5.06,-1.5533621363554797,0.6297885683611542,-1.5015873707178071,-42.667502601243356,4.883078110442899,-75.39608386757837,-0.7014,-0.3638,0.0426,-0.6115
106,1380833.0,1279.3153929999999,1.0,5.38,6.37,7.42,-8.69,-18.56,-38.5,92.0,-0.94,24.37,-1.1570308618276042,-0.0988930249612494,-1.2942148201116537,-44.0239043163285,3.2777655386010047,-76.18021553240146,-0.6915,-0.3748,0.0286,-0.6169
107,1380833.0,1279.3153929999999,1.0,5.38,6.37,7.42,-8.69,-18.56,-38.5,92.0,-0.94,24.37,-1.1570308618276042,-0.0988930249612494,-1.2942148201116537,-44.0239043163285,3.2777655386010047,-76.18021553240146,-0.6915,-0.3748,0.0286,-0.6169
108,1380868.0,1279.3184720000002,1.0,7.58,6.18,5.55,-6.06,-20.06,-38.5,112.5,-83.56,48.81,-0.8373899154480473,-2.1789209057950902,-1.193458263821542,-48.849779603080556,3.048495041051397,-76.50088290484744,-0.6671,-0.4135,0.0266,-0.6191
109,1380868.0,1279.3184720000002,1.0,7.58,6.18,5.55,-6.06,-20.06,-38.5,112.5,-83.56,48.81,-0.8373899154480473,-2.1789209057950902,-1.193458263821542,-48.849779603080556,3.048495041051397,-76.50088290484744,-0.6671,-0.4135,0.0266,-0.6191
110,1380902.0,1279.362926,1.0,6.71,5.85,5.7,-6.06,-20.06,-38.5,128.13,-157.94,65.81,-0.2532885585150019,-0.3955922710667892,-0.7534613470075531,-54.61940153639184,4.539012581284228,-75.59897705351443,-0.6422,-0.4588,0.0396,-0.6129
111,1380902.0,1279.362926,1.0,6.71,5.85,5.7,-6.06,-20.06,-38.5,128.13,-157.94,65.81,-0.2532885585150019,-0.3955922710667892,-0.7534613470075531,-54.61940153639184,4.539012581284228,-75.59897705351443,-0.6422,-0.4588,0.0396,-0.6129
112,1380937.0,1279.3827410000001,1.0,9.52,6.14,3.83,-8.25,-23.5,-35.25,123.56,-223.63,69.31,-0.08540030934671905,-1.8015910197007163,-2.0147660143739614,-63.4577011826531,7.9245916846795215,-72.96824451527324,-0.6042,-0.5259,0.0691,-0.5946
113,1380937.0,1279.3827410000001,1.0,9.52,6.14,3.83,-8.25,-23.5,-35.25,123.56,-223.63,69.31,-0.08540030934671905,-1.8015910197007163,-2.0147660143739614,-63.4577011826531,7.9245916846795215,-72.96824451527324,-0.6042,-0.5259,0.0691,-0.5946
114,1380974.0,1279.4288099999999,1.0,10.74,5.37,0.83,-15.25,-26.5,-30.25,106.69,-339.75,39.0,0.0904244821405713,-3.234140029820397,-1.7866912647322213,-71.88881371666841,12.088902226339815,-68.09776471776088,-0.5752,-0.5870000000000001,0.1053,-0.5599
115,1380974.0,1279.4288099999999,1.0,10.74,5.37,0.83,-15.25,-26.5,-30.25,106.69,-339.75,39.0,0.0904244821405713,-3.234140029820397,-1.7866912647322213,-71.88881371666841,12.088902226339815,-68.09776471776088,-0.5752,-0.5870000000000001,0.1053,-0.5599
116,1381011.0,1279.488476,1.0,12.01,6.08,-1.41,-23.56,-29.19,-22.5,134.31,-597.38,32.81,0.8961908708028781,-1.5954488598760044,-3.604016831243325,-87.815613588484,21.194013524886014,-55.342795981003654,-0.5193,-0.6935,0.1839,-0.4644
117,1381011.0,1279.488476,1.0,12.01,6.08,-1.41,-23.56,-29.19,-22.5,134.31,-597.38,32.81,0.8961908708028781,-1.5954488598760044,-3.604016831243325,-87.815613588484,21.194013524886014,-55.342795981003654,-0.5193,-0.6935,0.1839,-0.4644
118,1381046.0,1279.496713,1.0,9.07,4.26,-0.97,-23.56,-29.19,-22.5,162.69,-698.5,64.81,2.465882671229874,3.0071267277337554,0.5206383967831769,-106.6622162163593,33.26118341298741,-36.56470362370221,-0.4199,-0.8021,0.2862,-0.3137
119,1381046.0,1279.496713,1.0,9.07,4.26,-0.97,-23.56,-29.19,-22.5,162.69,-698.5,64.81,2.465882671229874,3.0071267277337554,0.5206383967831769,-106.6622162163593,33.26118341298741,-36.56470362370221,-0.4199,-0.8021,0.2862,-0.3137
120,1381083.0,1279.5552599999999,1.0,4.2,5.3,1.4,-32.69,-29.69,-6.19,42.06,-461.0,45.38,-0.94533822696224,5.525470723762614,5.7735979401467965,-114.34362489902875,40.73006975326216,-24.39709288880459,-0.3582,-0.8403,0.348,-0.2113
121,1381083.0,1279.5552599999999,1.0,4.2,5.3,1.4,-32.69,-29.69,-6.19,42.06,-461.0,45.38,-0.94533822696224,5.525470723762614,5.7735979401467965,-114.34362489902875,40.73006975326216,-24.39709288880459,-0.3582,-0.8403,0.348,-0.2113
122,1381120.0,1279.5777970000001,1.0,6.43,6.0,-7.89,-31.5,-27.5,14.38,92.75,-381.06,17.44,0.008002970732533532,2.3202343631662137,-1.7784028031788512,-119.65132148129857,46.070826818198796,-13.541842119876778,-0.2927,-0.8645,0.3913,-0.1179
123,1381120.0,1279.5777970000001,1.0,6.43,6.0,-7.89,-31.5,-27.5,14.38,92.75,-381.06,17.44,0.008002970732533532,2.3202343631662137,-1.7784028031788512,-119.65132148129857,46.070826818198796,-13.541842119876778,-0.2927,-0.8645,0.3913,-0.1179
124,1381154.0,1279.621508,1.0,-0.1,4.35,-0.93,-31.5,-27.5,14.38,57.0,-242.75,-16.81,-3.2230550175922965,1.8556625389130128,7.364144545502911,-122.51745226375392,48.397106226699925,-6.615607303690656,-0.2446,-0.8768,0.4099,-0.0577
125,1381154.0,1279.621508,1.0,-0.1,4.35,-0.93,-31.5,-27.5,14.38,57.0,-242.75,-16.81,-3.2230550175922965,1.8556625389130128,7.364144545502911,-122.51745226375392,48.397106226699925,-6.615607303690656,-0.2446,-0.8768,0.4099,-0.0577
126,1381189.0,1279.639441,1.0,-0.04,3.25,-4.83,-25.37,-25.69,23.37,6.25,-9.06,-42.06,-1.835731251344182,-0.26761419256664243,4.288364630723122,-124.52765968867384,47.68200947327645,-4.2523227104813985,-0.2276,-0.8851,0.4042,-0.0371
127,1381189.0,1279.639441,1.0,-0.04,3.25,-4.83,-25.37,-25.69,23.37,6.25,-9.06,-42.06,-1.835731251344182,-0.26761419256664243,4.288364630723122,-124.52765968867384,47.68200947327645,-4.2523227104813985,-0.2276,-0.8851,0.4042,-0.0371
128,1381224.0,1279.684912,1.0,3.06,2.52,-11.42,-20.06,-25.25,27.69,29.69,-36.88,-25.69,1.5862298812054083,-1.1900339539108735,-2.1180342286288827,-125.84710760989958,46.769049990136345,-3.851001219583861,-0.2205,-0.8904,0.3969,-0.0336
129,1381224.0,1279.684912,1.0,3.06,2.52,-11.42,-20.06,-25.25,27.69,29.69,-36.88,-25.69,1.5862298812054083,-1.1900339539108735,-2.1180342286288827,-125.84710760989958,46.769049990136345,-3.851001219583861,-0.2205,-0.8904,0.3969,-0.0336
130,1381261.0,1279.75244,1.0,1.35,4.19,-7.41,-18.0,-25.69,29.87,-3.19,-16.44,-18.87,-1.0867833613877331,0.5040671870074145,1.27133991797057,-126.55630673438098,46.58184673902731,-2.3034454566839293,-0.213,-0.8932,0.3954,-0.0201
131,1381261.0,1279.75244,1.0,1.35,4.19,-7.41,-18.0,-25.69,29.87,-3.19,-16.44,-18.87,-1.0867833613877331,0.5040671870074145,1.27133991797057,-126.55630673438098,46.58184673902731,-2.3034454566839293,-0.213,-0.8932,0.3954,-0.0201
132,1381296.0,1279.75893,1.0,1.27,3.84,-7.84,-18.0,-25.69,29.87,11.75,63.0,-52.56,-0.9175216774563448,-0.029956226892009274,1.032747983458668,-128.1324147334415,44.43208368482341,-3.6331610823402585,-0.2175,-0.8993,0.3781,-0.0317
133,1381296.0,1279.75893,1.0,1.27,3.84,-7.84,-18.0,-25.69,29.87,11.75,63.0,-52.56,-0.9175216774563448,-0.029956226892009274,1.032747983458668,-128.1324147334415,44.43208368482341,-3.6331610823402585,-0.2175,-0.8993,0.3781,-0.0317
134,1381332.0,1279.814286,1.0,3.15,2.09,-10.59,-16.87,-26.37,28.19,34.19,14.13,-44.94,1.754608747687377,-1.0513589474123402,-1.250234394178813,-129.78141812262746,42.70441132531611,-4.6881024349692195,-0.2139,-0.9055,0.3641,-0.0409
135,1381332.0,1279.814286,1.0,3.15,2.09,-10.59,-16.87,-26.37,28.19,34.19,14.13,-44.94,1.754608747687377,-1.0513589474123402,-1.250234394178813,-129.78141812262746,42.70441132531611,-4.6881024349692195,-0.2139,-0.9055,0.3641,-0.0409
136,1381369.0,1279.821133,1.0,1.15,2.26,-7.19,-17.25,-26.37,28.75,-1.06,15.38,-35.75,-0.10304810382031444,-0.8145056857644348,2.2269295845653763,-131.0660093808112,41.182660023882,-4.906017344265486,-0.2144,-0.9102,0.3517,-0.0428
137,1381369.0,1279.821133,1.0,1.15,2.26,-7.19,-17.25,-26.37,28.75,-1.06,15.38,-35.75,-0.10304810382031444,-0.8145056857644348,2.2269295845653763,-131.0660093808112,41.182660023882,-4.906017344265486,-0.2144,-0.9102,0.3517,-0.0428
138,1381404.0,1279.8408960000002,1.0,3.14,4.37,-7.98,-17.25,-26.37,28.75,-20.31,76.0,-21.44,0.026017140770587418,1.2030966745201073,0.2573682730770397,-131.1213744286973,40.0341291935956,-6.0647243159910715,-0.2263,-0.9104,0.3423,-0.0529
139,1381404.0,1279.8408960000002,1.0,3.14,4.37,-7.98,-17.25,-26.37,28.75,-20.31,76.0,-21.44,0.026017140770587418,1.2030966745201073,0.2573682730770397,-131.1213744286973,40.0341291935956,-6.0647243159910715,-0.2263,-0.9104,0.3423,-0.0529
140,1381437.0,1279.88142,1.0,4.57,3.5,-10.9,-16.06,-26.69,28.87,25.0,80.37,-23.62,1.4229954250307988,-0.1819868868263561,-2.436179117216524,-131.70630400699523,38.42831653324454,-8.820799294692952,-0.2304,-0.9125,0.3291,-0.0769
141,1381437.0,1279.88142,1.0,4.57,3.5,-10.9,-16.06,-26.69,28.87,25.0,80.37,-23.62,1.4229954250307988,-0.1819868868263561,-2.436179117216524,-131.70630400699523,38.42831653324454,-8.820799294692952,-0.2304,-0.9125,0.3291,-0.0769
142,1381474.0,1279.9498820000001,1.0,1.99,1.42,-6.75,-17.56,-27.75,28.5,21.12,16.31,-29.37,0.6216931390991215,-1.0772455403303731,2.7361450896958264,-132.81066902216784,37.28956626386321,-9.499056247386587,-0.226,-0.9164,0.3197,-0.0828
143,1381474.0,1279.9498820000001,1.0,1.99,1.42,-6.75,-17.56,-27.75,28.5,21.12,16.31,-29.37,0.6216931390991215,-1.0772455403303731,2.7361450896958264,-132.81066902216784,37.28956626386321,-9.499056247386587,-0.226,-0.9164,0.3197,-0.0828
144,1381511.0,1280.012588,1.0,2.69,2.73,-6.89,-17.56,-27.5,28.5,-21.87,31.19,2.75,0.3383143756630903,0.0065815103507880215,1.9296835745960417,-132.58215838722379,36.74577605968171,-10.028097037556813,-0.2335,-0.9156,0.3152,-0.0874
145,1381511.0,1280.012588,1.0,2.69,2.73,-6.89,-17.56,-27.5,28.5,-21.87,31.19,2.75,0.3383143756630903,0.0065815103507880215,1.9296835745960417,-132.58215838722379,36.74577605968171,-10.028097037556813,-0.2335,-0.9156,0.3152,-0.0874
146,1381545.0,1280.030723,1.0,5.36,4.61,-9.22,-17.56,-27.5,28.5,3.75,39.38,13.38,1.0091557155747612,1.4140514035533889,-1.6812637953690892,-131.84655671079122,36.842386864351504,-11.466824127666605,-0.2381,-0.9129999999999999,0.316,-0.0999
147,1381545.0,1280.030723,1.0,5.36,4.61,-9.22,-17.56,-27.5,28.5,3.75,39.38,13.38,1.0091557155747612,1.4140514035533889,-1.6812637953690892,-131.84655671079122,36.842386864351504,-11.466824127666605,-0.2381,-0.9129999999999999,0.316,-0.0999
148,1381582.0,1280.068294,1.0,5.23,5.27,-11.06,-18.0,-29.06,29.19,8.0,16.37,-6.5,0.3071818643621542,0.8063585364198231,-3.486386719010069,-131.62233589525562,36.818231622724255,-12.123472436717575,-0.239,-0.9122,0.3158,-0.1056
149,1381582.0,1280.068294,1.0,5.23,5.27,-11.06,-18.0,-29.06,29.19,8.0,16.37,-6.5,0.3071818643621542,0.8063585364198231,-3.486386719010069,-131.62233589525562,36.818231622724255,-12.123472436717575,-0.239,-0.9122,0.3158,-0.1056
150,1381619.0,1280.0811019999999,1.0,2.43,1.42,-8.54,-18.75,-29.06,28.87,60.13,-7.56,-41.38,0.5523852673858449,-1.8328985230800448,1.0209654210689971,-133.7645266360233,35.32385988676265,-12.273289521851867,-0.2249,-0.9197,0.3034,-0.1069
151,1381619.0,1280.0811019999999,1.0,2.43,1.42,-8.54,-18.75,-29.06,28.87,60.13,-7.56,-41.38,0.5523852673858449,-1.8328985230800448,1.0209654210689971,-133.7645266360233,35.32385988676265,-12.273289521851867,-0.2249,-0.9197,0.3034,-0.1069
152,1381652.0,1280.14662,1.0,1.74,2.37,-7.66,-18.75,-29.06,28.87,-33.25,1.69,4.31,-0.47329915885032103,-1.1019295166489098,1.6898871448606751,-133.85216386873807,35.143514652215984,-12.03128766143814,-0.2267,-0.92,0.3019,-0.1048
153,1381652.0,1280.14662,1.0,1.74,2.37,-7.66,-18.75,-29.06,28.87,-33.25,1.69,4.31,-0.47329915885032103,-1.1019295166489098,1.6898871448606751,-133.85216386873807,35.143514652215984,-12.03128766143814,-0.2267,-0.92,0.3019,-0.1048
154,1381687.0,1280.1559849999999,1.0,3.68,5.4,-9.25,-18.0,-27.87,30.06,-28.06,20.81,12.81,-0.8608283377544359,1.0318085942697888,-1.4387599790852423,-133.18424101457546,34.86715957624261,-12.549930441445206,-0.2368,-0.9177,0.2996,-0.1093
155,1381687.0,1280.1559849999999,1.0,3.68,5.4,-9.25,-18.0,-27.87,30.06,-28.06,20.81,12.81,-0.8608283377544359,1.0318085942697888,-1.4387599790852423,-133.18424101457546,34.86715957624261,-12.549930441445206,-0.2368,-0.9177,0.2996,-0.1093
156,1381724.0,1280.2123900000001,1.0,3.77,4.17,-8.71,-19.19,-29.06,27.56,29.25,0.81,-9.63,-0.05205295181381975,0.533599005133325,-0.5460531538592974,-133.93995871664828,34.13522516911611,-12.872771138472865,-0.2328,-0.9203,0.2935,-0.1121
157,1381724.0,1280.2123900000001,1.0,3.77,4.17,-8.71,-19.19,-29.06,27.56,29.25,0.81,-9.63,-0.05205295181381975,0.533599005133325,-0.5460531538592974,-133.93995871664828,34.13522516911611,-12.872771138472865,-0.2328,-0.9203,0.2935,-0.1121
158,1381761.0,1280.229313,1.0,3.28,2.08,-8.42,-18.37,-28.25,28.5,33.31,7.0,-6.69,0.691384601502979,-0.9467029070716564,0.6084468635963116,-135.30656135192416,33.0459740960127,-13.507223821905177,-0.223,-0.9249,0.2844,-0.1176
159,1381761.0,1280.229313,1.0,3.28,2.08,-8.42,-18.37,-28.25,28.5,33.31,7.0,-6.69,0.691384601502979,-0.9467029070716564,0.6084468635963116,-135.30656135192416,33.0459740960127,-13.507223821905177,-0.223,-0.9249,0.2844,-0.1176
160,1381793.0,1280.2324210000002,1.0,3.47,3.83,-8.92,-18.37,-28.25,28.5,-21.37,-3.31,1.37,-0.18001168461156325,0.1415724400119216,-0.4998408207222713,-135.06606324188033,33.15356371555689,-13.380300633180664,-0.2261,-0.9241,0.2853,-0.1165
161,1381793.0,1280.2324210000002,1.0,3.47,3.83,-8.92,-18.37,-28.25,28.5,-21.37,-3.31,1.37,-0.18001168461156325,0.1415724400119216,-0.4998408207222713,-135.06606324188033,33.15356371555689,-13.380300633180664,-0.2261,-0.9241,0.2853,-0.1165
162,1381832.0,1280.2755539999998,1.0,3.54,4.08,-8.76,-18.75,-28.25,28.0,9.31,-1.31,-7.25,-0.2321599526670681,0.4331536466099764,-0.4731398653039669,-135.54829362030736,32.48460118565665,-13.44952940908047,-0.2259,-0.9257,0.2797,-0.1171
163,1381832.0,1280.2755539999998,1.0,3.54,4.08,-8.76,-18.75,-28.25,28.0,9.31,-1.31,-7.25,-0.2321599526670681,0.4331536466099764,-0.4731398653039669,-135.54829362030736,32.48460118565665,-13.44952940908047,-0.2259,-0.9257,0.2797,-0.1171
164,1381867.0,1280.3418789999998,1.0,3.11,3.2,-8.49,-18.75,-28.25,28.06,37.63,2.81,-17.62,-0.06986080419748453,-0.19653558160329232,0.2176618764699274,-136.7450958533554,31.43565821002521,-13.611082444309169,-0.2202,-0.9296,0.2709,-0.1185
165,1381867.0,1280.3418789999998,1.0,3.11,3.2,-8.49,-18.75,-28.25,28.06,37.63,2.81,-17.62,-0.06986080419748453,-0.19653558160329232,0.2176618764699274,-136.7450958533554,31.43565821002521,-13.611082444309169,-0.2202,-0.9296,0.2709,-0.1185
166,1381902.0,1280.361087,1.0,3.08,2.71,-8.79,-18.75,-28.25,28.06,2.44,-3.25,-7.81,0.10315236164625724,-0.6288649606889278,0.1273685983925148,-137.4975120486347,30.900315264438852,-13.807290567361374,-0.2144,-0.932,0.2664,-0.1202
167,1381902.0,1280.361087,1.0,3.08,2.71,-8.79,-18.75,-28.25,28.06,2.44,-3.25,-7.81,0.10315236164625724,-0.6288649606889278,0.1273685983925148,-137.4975120486347,30.900315264438852,-13.807290567361374,-0.2144,-0.932,0.2664,-0.1202
168,1381935.0,1280.4143,1.0,3.23,3.45,-9.04,-19.19,-27.19,29.25,-3.5,2.13,-1.5,-0.19099127086903467,-0.1297445336396148,-0.3915698785102944,-137.75115489107054,30.48441543516209,-13.841919736512358,-0.2151,-0.9328,0.2629,-0.1205
169,1381935.0,1280.4143,1.0,3.23,3.45,-9.04,-19.19,-27.19,29.25,-3.5,2.13,-1.5,-0.19099127086903467,-0.1297445336396148,-0.3915698785102944,-137.75115489107054,30.48441543516209,-13.841919736512358,-0.2151,-0.9328,0.2629,-0.1205
170,1381971.0,1280.4269160000001,1.0,3.17,3.33,-8.7,-18.75,-27.87,28.87,3.38,-4.06,-1.56,-0.12968144785683755,-0.07160669743082071,-0.032346656314340194,-138.1664535645985,30.045196559032803,-13.865006554805131,-0.2139,-0.9341,0.2592,-0.1207
171,1381971.0,1280.4269160000001,1.0,3.17,3.33,-8.7,-18.75,-27.87,28.87,3.38,-4.06,-1.56,-0.12968144785683755,-0.07160669743082071,-0.032346656314340194,-138.1664535645985,30.045196559032803,-13.865006554805131,-0.2139,-0.9341,0.2592,-0.1207
172,1382006.0,1280.489849,1.0,3.21,3.0,-8.76,-18.75,-27.87,28.87,2.25,-2.44,-1.81,0.08517901341818113,-0.3188943854596802,0.012123421007252944,-138.29503211078548,29.985877446985693,-13.78420515869276,-0.2131,-0.9345,0.2587,-0.12
173,1382006.0,1280.489849,1.0,3.21,3.0,-8.76,-18.75,-27.87,28.87,2.25,-2.44,-1.81,0.08517901341818113,-0.3188943854596802,0.012123421007252944,-138.29503211078548,29.985877446985693,-13.78420515869276,-0.2131,-0.9345,0.2587,-0.12
174,1382041.0,1280.4979859999999,1.0,3.17,3.47,-8.7,-18.75,-27.19,28.5,-6.5,-2.88,-2.38,-0.1546202267532828,0.03385732381618012,-0.0804499927735467,-138.48861330559185,29.665695841620533,-13.668786527863627,-0.2144,-0.9351,0.256,-0.11900000000000001
175,1382041.0,1280.4979859999999,1.0,3.17,3.47,-8.7,-18.75,-27.19,28.5,-6.5,-2.88,-2.38,-0.1546202267532828,0.03385732381618012,-0.0804499927735467,-138.48861330559185,29.665695841620533,-13.668786527863627,-0.2144,-0.9351,0.256,-0.11900000000000001
176,1382076.0,1280.5458529999999,1.0,3.29,3.43,-8.76,-16.87,-27.87,28.87,-2.38,-2.25,-2.0,-0.007581309950502102,0.018506523088672733,-0.15960305881516312,-138.94369485234358,29.002366759572602,-13.645704477358525,-0.2145,-0.9365,0.2504,-0.1188
177,1382076.0,1280.5458529999999,1.0,3.29,3.43,-8.76,-16.87,-27.87,28.87,-2.38,-2.25,-2.0,-0.007581309950502102,0.018506523088672733,-0.15960305881516312,-138.94369485234358,29.002366759572602,-13.645704477358525,-0.2145,-0.9365,0.2504,-0.1188
178,1382113.0,1280.569898,1.0,3.15,3.27,-8.81,-18.75,-27.87,30.06,5.69,2.88,-5.69,-0.035254634899161086,-0.18629320678838115,-0.1027168794642268,-139.33764146351638,28.505522169511824,-13.668786527863627,-0.2141,-0.9377,0.2462,-0.11900000000000001
179,1382113.0,1280.569898,1.0,3.15,3.27,-8.81,-18.75,-27.87,30.06,5.69,2.88,-5.69,-0.035254634899161086,-0.18629320678838115,-0.1027168794642268,-139.33764146351638,28.505522169511824,-13.668786527863627,-0.2141,-0.9377,0.2462,-0.11900000000000001
180,1382148.0,1280.619481,1.0,3.04,3.07,-8.85,-18.75,-27.87,30.06,-0.37,-0.44,-0.5,-0.035815116107522416,-0.401466334829085,-0.033397868758417104,-139.43670037409964,28.434589251931108,-13.703410648771609,-0.2137,-0.938,0.2456,-0.1193
181,1382148.0,1280.619481,1.0,3.04,3.07,-8.85,-18.75,-27.87,30.06,-0.37,-0.44,-0.5,-0.035815116107522416,-0.401466334829085,-0.033397868758417104,-139.43670037409964,28.434589251931108,-13.703410648771609,-0.2137,-0.938,0.2456,-0.1193
182,1382182.0,1280.643348,1.0,3.16,3.71,-8.8,-17.69,-28.25,29.19,-9.31,-3.31,1.5,-0.22934689986134135,0.14649853956502026,-0.2489771896599944,-139.5691405181039,28.115528300006982,-13.668786527863627,-0.2151,-0.9384,0.2429,-0.11900000000000001
183,1382182.0,1280.643348,1.0,3.16,3.71,-8.8,-17.69,-28.25,29.19,-9.31,-3.31,1.5,-0.22934689986134135,0.14649853956502026,-0.2489771896599944,-139.5691405181039,28.115528300006982,-13.668786527863627,-0.2151,-0.9384,0.2429,-0.11900000000000001
184,1382219.0,1280.691364,1.0,3.18,3.36,-8.66,-17.69,-28.25,28.87,2.38,0.88,-2.5,-0.013991490381456195,-0.05764516641596629,-0.011398750794921142,-139.9355135446495,27.643253148970494,-13.749578099392743,-0.2147,-0.9395,0.2389,-0.1197
185,1382219.0,1280.691364,1.0,3.18,3.36,-8.66,-17.69,-28.25,28.87,2.38,0.88,-2.5,-0.013991490381456195,-0.05764516641596629,-0.011398750794921142,-139.9355135446495,27.643253148970494,-13.749578099392743,-0.2147,-0.9395,0.2389,-0.1197
186,1382254.0,1280.710637,1.0,3.19,3.5,-8.7,-17.69,-28.25,28.87,-8.06,-0.81,-1.69,-0.06922180149886459,0.020279776755397938,-0.09844450095515178,-139.8686617976523,27.60785191517117,-13.714952301602876,-0.2157,-0.9393,0.2386,-0.1194
187,1382254.0,1280.710637,1.0,3.19,3.5,-8.7,-17.69,-28.25,28.87,-8.06,-0.81,-1.69,-0.06922180149886459,0.020279776755397938,-0.09844450095515178,-139.8686617976523,27.60785191517117,-13.714952301602876,-0.2157,-0.9393,0.2386,-0.1194
188,1382287.0,1280.762029,1.0,3.21,3.65,-8.87,-16.87,-27.87,28.87,-3.75,-3.19,-0.5,-0.1144178932689166,0.047257230952951534,-0.3071116790105606,-140.1367137765361,27.15966751179376,-13.657245433015795,-0.2167,-0.9401,0.2348,-0.1189
189,1382287.0,1280.762029,1.0,3.21,3.65,-8.87,-16.87,-27.87,28.87,-3.75,-3.19,-0.5,-0.1144178932689166,0.047257230952951534,-0.3071116790105606,-140.1367137765361,27.15966751179376,-13.657245433015795,-0.2167,-0.9401,0.2348,-0.1189
190,1382324.0,1280.781303,1.0,3.05,3.31,-8.68,-18.0,-27.87,29.25,-1.19,-2.38,-3.06,-0.03972802983474455,-0.19662474232366955,0.03113157925363197,-140.40650617828152,26.817917077101303,-13.599542044193303,-0.2166,-0.9409,0.2319,-0.1184
191,1382324.0,1280.781303,1.0,3.05,3.31,-8.68,-18.0,-27.87,29.25,-1.19,-2.38,-3.06,-0.03972802983474455,-0.19662474232366955,0.03113157925363197,-140.40650617828152,26.817917077101303,-13.599542044193303,-0.2166,-0.9409,0.2319,-0.1184
192,1382359.0,1280.825914,1.0,3.05,3.39,-8.71,-18.0,-27.87,29.25,-7.88,-1.25,-3.75,-0.05503567695870565,-0.16931948754766668,-0.02325345758280406,-140.40650617828152,26.74724052277769,-13.4841456448157,-0.218,-0.9409,0.2313,-0.1174
193,1382359.0,1280.825914,1.0,3.05,3.39,-8.71,-18.0,-27.87,29.25,-7.88,-1.25,-3.75,-0.05503567695870565,-0.16931948754766668,-0.02325345758280406,-140.40650617828152,26.74724052277769,-13.4841456448157,-0.218,-0.9409,0.2313,-0.1174
194,1382393.0,1280.893473,1.0,2.92,3.85,-8.6,-17.69,-29.06,30.06,-9.44,-2.25,-0.56,-0.3330704422426851,0.14617840630709833,-0.051169026236678405,-140.47423039692836,26.35870385587789,-13.380300633180664,-0.2208,-0.9411,0.228,-0.1165
195,1382393.0,1280.893473,1.0,2.92,3.85,-8.6,-17.69,-29.06,30.06,-9.44,-2.25,-0.56,-0.3330704422426851,0.14617840630709833,-0.051169026236678405,-140.47423039692836,26.35870385587789,-13.380300633180664,-0.2208,-0.9411,0.228,-0.1165
196,1382428.0,1280.9009939999999,1.0,2.96,3.72,-8.56,-16.5,-28.25,28.37,-0.12,1.12,-1.63,-0.23001320470248396,0.06864878316985856,0.018086199818085902,-140.78037862226373,25.89992116016652,-13.495684664619233,-0.2208,-0.9420000000000001,0.2241,-0.1175
197,1382428.0,1280.9009939999999,1.0,2.96,3.72,-8.56,-16.5,-28.25,28.37,-0.12,1.12,-1.63,-0.23001320470248396,0.06864878316985856,0.018086199818085902,-140.78037862226373,25.89992116016652,-13.495684664619233,-0.2208,-0.9420000000000001,0.2241,-0.1175
198,1382463.0,1280.920098,1.0,3.27,3.45,-8.72,-17.25,-28.25,28.37,0.06,1.19,-1.56,0.12877714366862614,-0.10005900475331853,-0.12346604377493442,-141.02009032147248,25.523799625853453,-13.680327762024126,-0.2197,-0.9427,0.2209,-0.1191
199,1382463.0,1280.920098,1.0,3.27,3.45,-8.72,-17.25,-28.25,28.37,0.06,1.19,-1.56,0.12877714366862614,-0.10005900475331853,-0.12346604377493442,-141.02009032147248,25.523799625853453,-13.680327762024126,-0.2197,-0.9427,0.2209,-0.1191
200,1382498.0,1280.963532,1.0,3.17,3.8,-8.77,-17.25,-28.25,28.37,-4.69,-2.69,-1.06,-0.1017800776930376,0.10446417977135104,-0.2621398007123705,-140.98575914579104,25.535549170145078,-13.541842119876778,-0.2209,-0.9426,0.221,-0.1179
201,1382498.0,1280.963532,1.0,3.17,3.8,-8.77,-17.25,-28.25,28.37,-4.69,-2.69,-1.06,-0.1017800776930376,0.10446417977135104,-0.2621398007123705,-140.98575914579104,25.535549170145078,-13.541842119876778,-0.2209,-0.9426,0.221,-0.1179
202,1382535.0,1280.981939,1.0,2.78,3.43,-8.68,-16.87,-28.69,29.19,2.06,-1.56,-1.12,-0.2490354543799363,-0.2789042487595075,0.07546848065273615,-141.33038910827102,25.13621688663897,-13.553381828311744,-0.22,-0.9436,0.2176,-0.11800000000000001
203,1382535.0,1280.981939,1.0,2.78,3.43,-8.68,-16.87,-28.69,29.19,2.06,-1.56,-1.12,-0.2490354543799363,-0.2789042487595075,0.07546848065273615,-141.33038910827102,25.13621688663897,-13.553381828311744,-0.22,-0.9436,0.2176,-0.11800000000000001
204,1382572.0,1281.032423,1.0,2.89,3.67,-8.62,-18.0,-29.37,29.19,-2.56,2.69,0.06,-0.26186211071723625,-0.029662570255899023,0.005836341588953076,-141.39967008106163,24.88972570037191,-13.657245433015795,-0.2203,-0.9438,0.2155,-0.1189
205,1382572.0,1281.032423,1.0,2.89,3.67,-8.62,-18.0,-29.37,29.19,-2.56,2.69,0.06,-0.26186211071723625,-0.029662570255899023,0.005836341588953076,-141.39967008106163,24.88972570037191,-13.657245433015795,-0.2203,-0.9438,0.2155,-0.1189
206,1382604.0,1281.093574,1.0,3.26,3.59,-8.79,-18.0,-29.37,29.19,0.5,2.38,-0.69,0.06561590384659527,-0.04629365976125244,-0.2319431011386381,-141.39967008106163,24.8662564695287,-13.738036026791262,-0.2203,-0.9438,0.2153,-0.1196
207,1382604.0,1281.093574,1.0,3.26,3.59,-8.79,-18.0,-29.37,29.19,0.5,2.38,-0.69,0.06561590384659527,-0.04629365976125244,-0.2319431011386381,-141.39967008106163,24.8662564695287,-13.738036026791262,-0.2203,-0.9438,0.2153,-0.1196
208,1382639.0,1281.101142,1.0,3.09,3.56,-8.72,-18.0,-29.06,28.87,-1.44,-1.75,-2.06,-0.047736485447312405,-0.1041333464531422,-0.10531133336453637,-141.5733981273395,24.608164621444825,-13.726494094235369,-0.2205,-0.9443,0.2131,-0.1195
209,1382639.0,1281.101142,1.0,3.09,3.56,-8.72,-18.0,-29.06,28.87,-1.44,-1.75,-2.06,-0.047736485447312405,-0.1041333464531422,-0.10531133336453637,-141.5733981273395,24.608164621444825,-13.726494094235369,-0.2205,-0.9443,0.2131,-0.1195
