acc_x,acc_y,acc_z,lin_x,lin_y,lin_z,eul_x,eul_y,eul_z
4.17,0.15,-9.1,-0.0883935480990152,0.0531197634590392,-0.2038826966842535,-154.84376268843482,1.959611168911186,-25.10099664997855
4.17,0.15,-9.1,-0.0883935480990152,0.0531197634590392,-0.2038826966842535,-154.84376268843482,1.959611168911186,-25.10099664997855
4.41,0.14,-9.12,0.1077903000947829,0.0608839271611875,-0.3238373722155589,-154.73873772257048,1.94815034703792,-25.17143953683573
4.41,0.14,-9.12,0.1077903000947829,0.0608839271611875,-0.3238373722155589,-154.73873772257048,1.94815034703792,-25.17143953683573
4.35,-0.2,-8.91,0.1588484148581352,-0.2589456460584853,-0.1058831945716285,-154.73873772257048,1.9825328715837247,-25.14795750167836
4.35,-0.2,-8.91,0.1588484148581352,-0.2589456460584853,-0.1058831945716285,-154.73873772257048,1.9825328715837247,-25.14795750167836
4.58,-0.83,-8.86,0.4112922403954292,-0.8199101171355743,-0.1594669014219984,-154.73873772257048,2.2575997541901875,-25.15969838503005
4.58,-0.83,-8.86,0.4112922403954292,-0.8199101171355743,-0.1594669014219984,-154.73873772257048,2.2575997541901875,-25.15969838503005
5.64,-2.37,-8.84,1.4483628071163364,-2.2332340753942925,-0.6090598050713698,-154.63414056108863,2.8421620551927376,-25.21840683143225
5.64,-2.37,-8.84,1.4483628071163364,-2.2332340753942925,-0.6090598050713698,-154.63414056108863,2.8421620551927376,-25.21840683143225
5.71,-2.8,-8.48,1.8024065019174569,-2.49620718935058,-0.3360705654932694,-154.63414056108863,4.550480755424785,-24.948403420997227
5.71,-2.8,-8.48,1.8024065019174569,-2.49620718935058,-0.3360705654932694,-154.63414056108863,4.550480755424785,-24.948403420997227
6.96,-4.61,-8.69,3.1834588795846464,-3.896049917525127,-1.143061621871427,-154.3228637180319,6.9140653613570215,-24.66681067830264
6.96,-4.61,-8.69,3.1834588795846464,-3.896049917525127,-1.143061621871427,-154.3228637180319,6.9140653613570215,-24.66681067830264
7.26,-4.99,-8.58,3.9913014377378992,-3.699721414473744,-1.2208462837625014,-153.3110465719337,11.628070333672753,-23.904917493763705
7.26,-4.99,-8.58,3.9913014377378992,-3.699721414473744,-1.2208462837625014,-153.3110465719337,11.628070333672753,-23.904917493763705
7.67,-4.98,-8.19,4.990904724422717,-3.026347253273016,-0.9932339037436808,-151.6255402012684,16.616652750638245,-22.804986838376163
7.67,-4.98,-8.19,4.990904724422717,-3.026347253273016,-0.9932339037436808,-151.6255402012684,16.616652750638245,-22.804986838376163
6.25,-6.3,-8.36,5.159213847338107,-3.8647043670328136,-0.5417156986440244,-148.01592812505623,24.79585513058625,-19.889680039418103
6.25,-6.3,-8.36,5.159213847338107,-3.8647043670328136,-0.5417156986440244,-148.01592812505623,24.79585513058625,-19.889680039418103
7.36,-3.93,-7.65,6.343828892084017,0.06619307057802,0.4317658158957727,-141.02009032147248,35.841352697842005,-14.488567642103208
7.36,-3.93,-7.65,6.343828892084017,0.06619307057802,0.4317658158957727,-141.02009032147248,35.841352697842005,-14.488567642103208
7.2,0.47,-7.22,3.989838165241807,4.253880500962175,1.4295984841793103,-133.6770461216721,45.051672965046905,-8.395611151395807
7.2,0.47,-7.22,3.989838165241807,4.253880500962175,1.4295984841793103,-133.6770461216721,45.051672965046905,-8.395611151395807
2.83,0.07,-2.98,1.8418531575332768,1.9477508599373416,6.69087665559607,-123.38130576448056,55.57582333465725,1.3292918974264516
2.83,0.07,-2.98,1.8418531575332768,1.9477508599373416,6.69087665559607,-123.38130576448056,55.57582333465725,1.3292918974264516
2.02,2.62,-1.57,-0.904370369553346,2.6786004887903903,7.479223598129075,-111.86945684906637,64.36259051293125,11.766299745968876
2.02,2.62,-1.57,-0.904370369553346,2.6786004887903903,7.479223598129075,-111.86945684906637,64.36259051293125,11.766299745968876
0.0,5.81,1.71,-5.654217596189325,1.7707303196345077,8.551844234126225,-102.81460845539635,69.90540033624497,19.30823806837105
0.0,5.81,1.71,-5.654217596189325,1.7707303196345077,8.551844234126225,-102.81460845539635,69.90540033624497,19.30823806837105
-0.3,5.37,3.32,-6.260364016229508,0.6624282450701755,9.242441523962992,-92.605449400739,75.83119675698822,25.25363512809168
-0.3,5.37,3.32,-6.260364016229508,0.6624282450701755,9.242441523962992,-92.605449400739,75.83119675698822,25.25363512809168
2.54,8.45,3.37,-8.339042016647737,3.01592511308227,6.554639244042487,-85.40628863509704,79.74778543159233,26.817917077101303
2.54,8.45,3.37,-8.339042016647737,3.01592511308227,6.554639244042487,-85.40628863509704,79.74778543159233,26.817917077101303
2.74,9.3,4.98,-9.674615729586982,2.52897159981188,5.470279036605257,-78.04123484742134,80.8271028985237,26.499953978465857
2.74,9.3,4.98,-9.674615729586982,2.52897159981188,5.470279036605257,-78.04123484742134,80.8271028985237,26.499953978465857
2.91,10.07,8.01,-12.037878981381366,2.930520135569372,5.275135753675803,-73.9261202682898,79.13695813068195,23.448298031292182
2.91,10.07,8.01,-12.037878981381366,2.930520135569372,5.275135753675803,-73.9261202682898,79.13695813068195,23.448298031292182
7.48,11.93,12.06,-14.957892272190197,8.01340859981169,2.3390103872430394,-69.72374829540703,77.05643698119782,10.062607019364435
7.48,11.93,12.06,-14.957892272190197,8.01340859981169,2.3390103872430394,-69.72374829540703,77.05643698119782,10.062607019364435
13.34,4.35,10.63,-3.553550462350388,13.78960003801332,-0.541983238411369,-70.33938584771147,65.12237782833996,-13.080365619179068
13.34,4.35,10.63,-3.553550462350388,13.78960003801332,-0.541983238411369,-70.33938584771147,65.12237782833996,-13.080365619179068
15.97,2.11,9.69,2.568022488873196,11.354073149749274,-4.95408790183892,-67.86281386047486,53.911212957858886,-31.53090365657372
15.97,2.11,9.69,2.568022488873196,11.354073149749274,-4.95408790183892,-67.86281386047486,53.911212957858886,-31.53090365657372
17.67,2.85,11.85,4.088662969225712,7.180272779543783,-10.004973303894738,-61.687686660703456,39.72937892373464,-53.038696673597066
17.67,2.85,11.85,4.088662969225712,7.180272779543783,-10.004973303894738,-61.687686660703456,39.72937892373464,-53.038696673597066
19.37,1.18,9.63,6.828348002178387,-0.9193244272399108,-10.732451882960373,-55.23930804894636,27.985604401100783,-63.63292917864976
19.37,1.18,9.63,6.828348002178387,-0.9193244272399108,-10.732451882960373,-55.23930804894636,27.985604401100783,-63.63292917864976
18.74,4.52,6.08,2.44815512628212,-9.593903408216017,-7.8157208357156,-43.44356934572808,16.0609738361326,-71.43652135500591
18.74,4.52,6.08,2.44815512628212,-9.593903408216017,-7.8157208357156,-43.44356934572808,16.0609738361326,-71.43652135500591
16.16,1.52,5.88,4.4708521388711295,-10.39900838567843,-3.2280155402791646,-36.25106819831296,8.533497036933403,-73.82576315428821
16.16,1.52,5.88,4.4708521388711295,-10.39900838567843,-3.2280155402791646,-36.25106819831296,8.533497036933403,-73.82576315428821
34.16,20.51,16.35,-4.406940983768079,-25.661955942302463,-24.499779257223967,-29.879123753551497,7.752301412421159,-69.93336466039091
34.16,20.51,16.35,-4.406940983768079,-25.661955942302463,-24.499779257223967,-29.879123753551497,7.752301412421159,-69.93336466039091
10.46,0.93,0.04,5.738867954129816,-8.513638261987952,7.6017785413710355,-22.185757394813148,0.5958787923837214,-51.927193035567214
10.46,0.93,0.04,5.738867954129816,-8.513638261987952,7.6017785413710355,-22.185757394813148,0.5958787923837214,-51.927193035567214
4.25,-2.12,13.04,6.673004651661267,4.107281963383647,-1.647595666658738,-31.31663271482452,3.4841201823987773,-53.55153591306849
4.25,-2.12,13.04,6.673004651661267,4.107281963383647,-1.647595666658738,-31.31663271482452,3.4841201823987773,-53.55153591306849
3.5,10.21,12.1,-6.631585813825611,1.640264965850248,-4.898304962041574,-33.51241368583526,15.089441590206311,-63.20189622403351
3.5,10.21,12.1,-6.631585813825611,1.640264965850248,-4.898304962041574,-33.51241368583526,15.089441590206311,-63.20189622403351
5.69,9.93,7.47,-7.129962755167316,-1.5165444612839851,-1.7538700578034412,-32.818938689500946,16.338764939656073,-72.75460720541858
5.69,9.93,7.47,-7.129962755167316,-1.5165444612839851,-1.7538700578034412,-32.818938689500946,16.338764939656073,-72.75460720541858
5.01,4.7,5.19,-2.448225197113461,-1.5899087069917957,1.7069843471689854,-33.46454755353707,14.280666944469896,-74.47207628489997
5.01,4.7,5.19,-2.448225197113461,-1.5899087069917957,1.7069843471689854,-33.46454755353707,14.280666944469896,-74.47207628489997
2.87,2.53,8.15,-0.0485535367837708,2.399814560315665,1.1291600040298082,-36.60091053338324,14.130545861300051,-72.00208892273058
2.87,2.53,8.15,-0.0485535367837708,2.399814560315665,1.1291600040298082,-36.60091053338324,14.130545861300051,-72.00208892273058
2.66,4.46,8.92,-1.7398442919946664,3.1247084461470003,0.1245665999155303,-38.25846833636598,15.135679738336451,-71.06997715893745
2.66,4.46,8.92,-1.7398442919946664,3.1247084461470003,0.1245665999155303,-38.25846833636598,15.135679738336451,-71.06997715893745
3.66,4.41,7.05,-1.6412405831221792,1.3415695133853778,0.9719049222364262,-39.37623490539532,14.708070420797664,-72.058757038671
3.66,4.41,7.05,-1.6412405831221792,1.3415695133853778,0.9719049222364262,-39.37623490539532,14.708070420797664,-72.058757038671
3.96,5.12,8.04,-1.8791591776454384,1.8160895868561688,-0.1787483094107713,-40.29034769423164,14.188281840563285,-72.79731116496349
3.96,5.12,8.04,-1.8791591776454384,1.8160895868561688,-0.1787483094107713,-40.29034769423164,14.188281840563285,-72.79731116496349
5.12,3.96,8.97,0.1581262147334496,1.6060708141134654,-1.1364954637260052,-41.7953389567468,12.377021364647929,-72.72614441111948
5.12,3.96,8.97,0.1581262147334496,1.6060708141134654,-1.1364954637260052,-41.7953389567468,12.377021364647929,-72.72614441111948
8.4,0.69,7.54,4.230913861796721,-2.001401860484549,-0.4880796461298758,-42.70441132531611,9.050681021579294,-72.11544554429472
8.4,0.69,7.54,4.230913861796721,-2.001401860484549,-0.4880796461298758,-42.70441132531611,9.050681021579294,-72.11544554429472
7.29,0.02,5.45,4.2737270299551895,-2.590021493689353,2.199150677906204,-43.406566594214624,5.938500516393254,-70.7183188364016
7.29,0.02,5.45,4.2737270299551895,-2.590021493689353,2.199150677906204,-43.406566594214624,5.938500516393254,-70.7183188364016
3.47,4.76,8.57,-0.1689556950110589,2.3590495703224965,-0.3200345066825569,-44.38257587959071,7.94756506816392,-68.94352388945018
3.47,4.76,8.57,-0.1689556950110589,2.3590495703224965,-0.3200345066825569,-44.38257587959071,7.94756506816392,-68.94352388945018
3.49,5.3,8.83,-0.5704529715914055,2.6070730433493248,-0.7345431750558422,-44.927644585005865,8.476043091817116,-68.83236163614916
3.49,5.3,8.83,-0.5704529715914055,2.6070730433493248,-0.7345431750558422,-44.927644585005865,8.476043091817116,-68.83236163614916
5.33,4.95,7.26,-0.0452576634740535,0.036427267771812,-0.4702962778619,-44.50636177945312,6.959986103018456,-70.11524930068694
5.33,4.95,7.26,-0.0452576634740535,0.036427267771812,-0.4702962778619,-44.50636177945312,6.959986103018456,-70.11524930068694
5.73,4.66,6.36,0.1271101319243921,-1.0155946904224151,0.1138428504097444,-43.98682632143316,5.743441500733661,-70.17125455372687
5.73,4.66,6.36,0.1271101319243921,-1.0155946904224151,0.1138428504097444,-43.98682632143316,5.743441500733661,-70.17125455372687
4.79,3.51,7.25,1.3440758495694256,0.2067433571465296,0.5342491623053736,-44.11043851170447,4.447268815934101,-69.29138458685418
4.79,3.51,7.25,1.3440758495694256,0.2067433571465296,0.5342491623053736,-44.11043851170447,4.447268815934101,-69.29138458685418
