,TIME,ELAPSED_SECONDS,PSTATE,acc_x,acc_y,acc_z,mag_x,mag_y,mag_z,gyr_x,gyr_y,gyr_z,lin_x,lin_y,lin_z,eul_x,eul_y,eul_z,qua_w,qua_x,qua_y,qua_z
0,2385672.0,2328.6076199999998,1.0,3.22,0.27,-9.15,2.56,-17.75,29.5,1.06,9.5,-5.13,-0.016678906324681067,-0.16796629614488334,0.10431475855203054,-141.43435545776626,-33.18943360011411,-18.83183055191492,0.0266,-0.9439,-0.2856,-0.1636
1,2385672.0,2328.6076199999998,1.0,3.22,0.27,-9.15,2.56,-17.75,29.5,1.06,9.5,-5.13,-0.016678906324681067,-0.16796629614488334,0.10431475855203054,-141.43435545776626,-33.18943360011411,-18.83183055191492,0.0266,-0.9439,-0.2856,-0.1636
2,2385704.0,2328.6935129999997,1.0,3.36,0.3,-9.45,2.25,-18.19,30.69,-3.13,9.0,-3.0,-0.04149476985545858,-0.14991722965705356,-0.22619122311952825,-141.02009032147248,-33.416687431310486,-19.203632237851558,0.0272,-0.9427,-0.2875,-0.1668
3,2385704.0,2328.6935129999997,1.0,3.36,0.3,-9.45,2.25,-18.19,30.69,-3.13,9.0,-3.0,-0.04149476985545858,-0.14991722965705356,-0.22619122311952825,-141.02009032147248,-33.416687431310486,-19.203632237851558,0.0272,-0.9427,-0.2875,-0.1668
4,2385739.0,2328.699676,1.0,3.47,0.4,-9.3,2.25,-18.56,29.06,0.25,4.56,-1.06,0.11463519695255528,-0.13348557545081152,-0.12612103193092672,-140.91718374591224,-33.4525819599508,-19.389609385924846,0.0275,-0.9424,-0.2878,-0.1684
5,2385739.0,2328.699676,1.0,3.47,0.4,-9.3,2.25,-18.56,29.06,0.25,4.56,-1.06,0.11463519695255528,-0.13348557545081152,-0.12612103193092672,-140.91718374591224,-33.4525819599508,-19.389609385924846,0.0275,-0.9424,-0.2878,-0.1684
6,2385774.0,2328.710306,1.0,3.29,0.49,-9.26,2.25,-18.56,29.06,-3.44,1.69,-2.44,0.012810631356882138,0.02422454769199281,-0.03261059513688025,-140.78037862226373,-33.524381159227765,-19.505871262305693,0.0269,-0.9420000000000001,-0.2884,-0.1694
7,2385774.0,2328.710306,1.0,3.29,0.49,-9.26,2.25,-18.56,29.06,-3.44,1.69,-2.44,0.012810631356882138,0.02422454769199281,-0.03261059513688025,-140.78037862226373,-33.524381159227765,-19.505871262305693,0.0269,-0.9420000000000001,-0.2884,-0.1694
8,2385807.0,2328.713466,1.0,3.37,0.44,-9.35,1.88,-18.19,29.5,-0.25,0.31,-0.69,0.013871834088448262,-0.04567615665747432,-0.14175295026955936,-140.74624891732873,-33.548317235556404,-19.54075377357945,0.0269,-0.9419,-0.2886,-0.1697
9,2385807.0,2328.713466,1.0,3.37,0.44,-9.35,1.88,-18.19,29.5,-0.25,0.31,-0.69,0.013871834088448262,-0.04567615665747432,-0.14175295026955936,-140.74624891732873,-33.548317235556404,-19.54075377357945,0.0269,-0.9419,-0.2886,-0.1697
10,2385842.0,2328.7559530000003,1.0,3.22,0.46,-9.27,2.56,-18.19,29.06,-1.81,-2.5,-0.63,-0.06254437847338437,0.020938530281164103,-0.01722651483216886,-140.71214769326966,-33.644076625825655,-19.4826172689267,0.0262,-0.9418,-0.2894,-0.1692
11,2385842.0,2328.7559530000003,1.0,3.22,0.46,-9.27,2.56,-18.19,29.06,-1.81,-2.5,-0.63,-0.06254437847338437,0.020938530281164103,-0.01722651483216886,-140.71214769326966,-33.644076625825655,-19.4826172689267,0.0262,-0.9418,-0.2894,-0.1692
12,2385876.0,2328.773538,1.0,3.04,0.49,-9.14,2.25,-18.56,30.25,-1.31,-3.5,0.06,-0.1331479960833708,0.10610272529909534,0.16339775696378034,-140.71214769326966,-33.69196539056284,-19.377984308584086,0.0256,-0.9418,-0.2898,-0.1683
13,2385876.0,2328.773538,1.0,3.04,0.49,-9.14,2.25,-18.56,30.25,-1.31,-3.5,0.06,-0.1331479960833708,0.10610272529909534,0.16339775696378034,-140.71214769326966,-33.69196539056284,-19.377984308584086,0.0256,-0.9418,-0.2898,-0.1683
14,2385911.0,2328.814888,1.0,3.11,0.45,-9.21,2.25,-18.56,30.25,0.12,-0.81,0.31,-0.11347923879689988,0.03917069987024935,0.07606481109004902,-140.78037862226373,-33.67999263161277,-19.319861939553064,0.0254,-0.9420000000000001,-0.2897,-0.1678
15,2385911.0,2328.814888,1.0,3.11,0.45,-9.21,2.25,-18.56,30.25,0.12,-0.81,0.31,-0.11347923879689988,0.03917069987024935,0.07606481109004902,-140.78037862226373,-33.67999263161277,-19.319861939553064,0.0254,-0.9420000000000001,-0.2897,-0.1678
16,2385948.0,2328.822219,1.0,3.24,0.41,-9.34,2.56,-18.19,28.69,0.56,-0.37,2.13,-0.07096241484360326,-0.041884875633649205,-0.0875154520668211,-140.78037862226373,-33.67999263161277,-19.30823806837105,0.0256,-0.9420000000000001,-0.2897,-0.1677
17,2385948.0,2328.822219,1.0,3.24,0.41,-9.34,2.56,-18.19,28.69,0.56,-0.37,2.13,-0.07096241484360326,-0.041884875633649205,-0.0875154520668211,-140.78037862226373,-33.67999263161277,-19.30823806837105,0.0256,-0.9420000000000001,-0.2897,-0.1677
18,2385983.0,2328.8394559999997,1.0,3.35,0.46,-9.24,1.88,-18.19,30.69,-0.5,-0.56,1.56,0.07341407379718339,-0.06992400830266515,-0.032121315912947423,-140.78037862226373,-33.668020251284275,-19.30823806837105,0.0258,-0.9420000000000001,-0.2896,-0.1677
19,2385983.0,2328.8394559999997,1.0,3.35,0.46,-9.24,1.88,-18.19,30.69,-0.5,-0.56,1.56,0.07341407379718339,-0.06992400830266515,-0.032121315912947423,-140.78037862226373,-33.668020251284275,-19.30823806837105,0.0258,-0.9420000000000001,-0.2896,-0.1677
20,2386016.0,2328.842376,1.0,3.42,0.48,-9.41,1.88,-18.19,30.69,2.25,-2.44,1.44,0.10049426248189036,-0.06639398934388774,-0.2163432027008394,-140.8487237731441,-33.62013451285477,-19.23849904872923,0.0259,-0.9422,-0.2892,-0.1671
21,2386016.0,2328.842376,1.0,3.42,0.48,-9.41,1.88,-18.19,30.69,2.25,-2.44,1.44,0.10049426248189036,-0.06639398934388774,-0.2163432027008394,-140.8487237731441,-33.62013451285477,-19.23849904872923,0.0259,-0.9422,-0.2892,-0.1671
22,2386051.0,2328.881103,1.0,3.28,0.45,-9.37,1.88,-18.56,29.06,-1.5,-2.94,1.75,0.0008773266420173537,-0.02679549122688671,-0.13100974623542072,-140.9514569794307,-33.57225481905068,-19.157145947707967,0.0258,-0.9425,-0.2888,-0.1664
23,2386051.0,2328.881103,1.0,3.28,0.45,-9.37,1.88,-18.56,29.06,-1.5,-2.94,1.75,0.0008773266420173537,-0.02679549122688671,-0.13100974623542072,-140.9514569794307,-33.57225481905068,-19.157145947707967,0.0258,-0.9425,-0.2888,-0.1664
24,2386087.0,2328.9396239999996,1.0,3.29,0.53,-9.24,2.56,-17.75,30.25,2.19,-1.94,0.69,0.10592187999451687,0.009175990547898916,-0.015330266551947247,-140.8829393690889,-33.70393852830112,-19.06418290551579,0.0259,-0.9423,-0.2899,-0.1656
25,2386087.0,2328.9396239999996,1.0,3.29,0.53,-9.24,2.56,-17.75,30.25,2.19,-1.94,0.69,0.10592187999451687,0.009175990547898916,-0.015330266551947247,-140.8829393690889,-33.70393852830112,-19.06418290551579,0.0259,-0.9423,-0.2899,-0.1656
26,2386120.0,2328.999861,1.0,3.06,0.36,-9.15,2.56,-17.75,30.25,-0.94,-2.81,1.12,-0.12956216595376524,-0.025731699520989026,0.1527258484027243,-140.91718374591224,-33.668020251284275,-18.994468937034103,0.0258,-0.9424,-0.2896,-0.165
27,2386120.0,2328.999861,1.0,3.06,0.36,-9.15,2.56,-17.75,30.25,-0.94,-2.81,1.12,-0.12956216595376524,-0.025731699520989026,0.1527258484027243,-140.91718374591224,-33.668020251284275,-18.994468937034103,0.0258,-0.9424,-0.2896,-0.165
28,2386155.0,2329.0223149999997,1.0,3.07,0.47,-9.25,2.25,-18.56,29.87,-0.69,0.75,0.56,-0.0912238721685216,0.07097638572335405,0.04986054045869892,-140.9514569794307,-33.668020251284275,-18.994468937034103,0.0256,-0.9425,-0.2896,-0.165
29,2386155.0,2329.0223149999997,1.0,3.07,0.47,-9.25,2.25,-18.56,29.87,-0.69,0.75,0.56,-0.0912238721685216,0.07097638572335405,0.04986054045869892,-140.9514569794307,-33.668020251284275,-18.994468937034103,0.0256,-0.9425,-0.2896,-0.165
30,2386190.0,2329.0758170000004,1.0,3.03,0.5,-9.05,1.88,-17.75,31.0,-1.75,1.75,1.06,-0.052036421446914366,0.09128683197502682,0.2503767240230648,-140.8829393690889,-33.70393852830112,-19.029325032716933,0.0257,-0.9423,-0.2899,-0.1653
31,2386190.0,2329.0758170000004,1.0,3.03,0.5,-9.05,1.88,-17.75,31.0,-1.75,1.75,1.06,-0.052036421446914366,0.09128683197502682,0.2503767240230648,-140.8829393690889,-33.70393852830112,-19.029325032716933,0.0257,-0.9423,-0.2899,-0.1653
32,2386225.0,2329.1200059999996,1.0,3.16,0.46,-9.18,1.88,-17.75,31.0,0.31,4.06,1.0,-0.030231320579485244,0.021140613413124957,0.08717269194888644,-140.78037862226373,-33.751834870470574,-19.157145947707967,0.0262,-0.9420000000000001,-0.2903,-0.1664
33,2386225.0,2329.1200059999996,1.0,3.16,0.46,-9.18,1.88,-17.75,31.0,0.31,4.06,1.0,-0.030231320579485244,0.021140613413124957,0.08717269194888644,-140.78037862226373,-33.751834870470574,-19.157145947707967,0.0262,-0.9420000000000001,-0.2903,-0.1664
34,2386257.0,2329.136547,1.0,3.24,0.42,-9.29,2.56,-17.75,29.5,-0.75,2.94,0.63,-0.03703723349554504,-0.029756593274512824,-0.040981328826832815,-140.74624891732873,-33.71591204499429,-19.250121718432275,0.0264,-0.9419,-0.29,-0.1672
35,2386257.0,2329.136547,1.0,3.24,0.42,-9.29,2.56,-17.75,29.5,-0.75,2.94,0.63,-0.03703723349554504,-0.029756593274512824,-0.040981328826832815,-140.74624891732873,-33.71591204499429,-19.250121718432275,0.0264,-0.9419,-0.29,-0.1672
36,2386292.0,2329.1404620000003,1.0,3.33,0.39,-9.39,2.25,-17.37,29.87,-0.69,3.44,0.25,-0.035137813613071466,-0.07939308871737266,-0.16358380224949445,-140.57602612666605,-33.83566809114509,-19.377984308584086,0.0267,-0.9414,-0.29100000000000004,-0.1683
37,2386292.0,2329.1404620000003,1.0,3.33,0.39,-9.39,2.25,-17.37,29.87,-0.69,3.44,0.25,-0.035137813613071466,-0.07939308871737266,-0.16358380224949445,-140.57602612666605,-33.83566809114509,-19.377984308584086,0.0267,-0.9414,-0.29100000000000004,-0.1683
38,2386327.0,2329.180909,1.0,3.3,0.57,-9.33,1.06,-18.56,30.69,-2.13,0.88,1.31,0.053150791078087734,0.07494809814817854,-0.1057340611626678,-140.61001416599206,-33.775785318620265,-19.412860145181693,0.0264,-0.9415,-0.2905,-0.1686
39,2386327.0,2329.180909,1.0,3.3,0.57,-9.33,1.06,-18.56,30.69,-2.13,0.88,1.31,0.053150791078087734,0.07494809814817854,-0.1057340611626678,-140.61001416599206,-33.775785318620265,-19.412860145181693,0.0264,-0.9415,-0.2905,-0.1686
40,2386362.0,2329.185556,1.0,3.35,0.45,-9.42,1.06,-18.56,30.69,1.06,1.19,0.69,-0.006531899737099112,-0.03273222324780717,-0.20136108791587226,-140.61001416599206,-33.775785318620265,-19.447737797457524,0.0266,-0.9415,-0.2905,-0.1689
41,2386362.0,2329.185556,1.0,3.35,0.45,-9.42,1.06,-18.56,30.69,1.06,1.19,0.69,-0.006531899737099112,-0.03273222324780717,-0.20136108791587226,-140.61001416599206,-33.775785318620265,-19.447737797457524,0.0266,-0.9415,-0.2905,-0.1689
42,2386399.0,2329.288634,1.0,3.36,0.4,-9.44,0.37,-18.19,29.5,0.88,-0.88,0.5,-0.031003244437448663,-0.07380967978117442,-0.22115090199266876,-140.71214769326966,-33.668020251284275,-19.447737797457524,0.0266,-0.9418,-0.2896,-0.1689
43,2386399.0,2329.288634,1.0,3.36,0.4,-9.44,0.37,-18.19,29.5,0.88,-0.88,0.5,-0.031003244437448663,-0.07380967978117442,-0.22115090199266876,-140.71214769326966,-33.668020251284275,-19.447737797457524,0.0266,-0.9418,-0.2896,-0.1689
44,2386434.0,2329.299198,1.0,3.33,0.36,-9.28,2.56,-18.19,30.25,1.25,-1.44,1.0,-0.01887126116004631,-0.11132544489328636,-0.0586503259313691,-140.71214769326966,-33.668020251284275,-19.40123466474733,0.0269,-0.9418,-0.2896,-0.1685
45,2386434.0,2329.299198,1.0,3.33,0.36,-9.28,2.56,-18.19,30.25,1.25,-1.44,1.0,-0.01887126116004631,-0.11132544489328636,-0.0586503259313691,-140.71214769326966,-33.668020251284275,-19.40123466474733,0.0269,-0.9418,-0.2896,-0.1685
46,2386466.0,2329.344538,1.0,3.19,0.32,-9.15,2.56,-18.19,30.25,0.94,-2.0,-0.44,-0.0961629179207665,-0.09668679435673448,0.1121977536369254,-140.78037862226373,-33.656048249410745,-19.30823806837105,0.0267,-0.9420000000000001,-0.2895,-0.1677
47,2386466.0,2329.344538,1.0,3.19,0.32,-9.15,2.56,-18.19,30.25,0.94,-2.0,-0.44,-0.0961629179207665,-0.09668679435673448,0.1121977536369254,-140.78037862226373,-33.656048249410745,-19.30823806837105,0.0267,-0.9420000000000001,-0.2895,-0.1677
48,2386501.0,2329.348177,1.0,3.06,0.19,-9.16,2.25,-18.19,30.25,0.81,-3.13,-1.12,-0.2603447582478644,-0.13400832320943964,0.15162217113469545,-140.78037862226373,-33.69196539056284,-19.23849904872923,0.0269,-0.9420000000000001,-0.2898,-0.1671
49,2386501.0,2329.348177,1.0,3.06,0.19,-9.16,2.25,-18.19,30.25,0.81,-3.13,-1.12,-0.2603447582478644,-0.13400832320943964,0.15162217113469545,-140.78037862226373,-33.69196539056284,-19.23849904872923,0.0269,-0.9420000000000001,-0.2898,-0.1671
50,2386538.0,2329.4168210000003,1.0,2.88,0.45,-8.76,1.88,-17.75,30.25,-4.88,0.75,-3.31,-0.1346471230578361,0.0986033410792759,0.5759053099232414,-140.78037862226373,-33.751834870470574,-19.192010366536685,0.0259,-0.9420000000000001,-0.2903,-0.1667
51,2386538.0,2329.4168210000003,1.0,2.88,0.45,-8.76,1.88,-17.75,30.25,-4.88,0.75,-3.31,-0.1346471230578361,0.0986033410792759,0.5759053099232414,-140.78037862226373,-33.751834870470574,-19.192010366536685,0.0259,-0.9420000000000001,-0.2903,-0.1667
52,2386573.0,2329.453664,1.0,3.02,0.43,-9.12,1.88,-17.75,30.25,1.63,18.62,-4.69,-0.19876130388599333,0.08592000268906702,0.19245155721676888,-140.44035437538835,-33.883581162404816,-19.54075377357945,0.0266,-0.941,-0.2914,-0.1697
53,2386573.0,2329.453664,1.0,3.02,0.43,-9.12,1.88,-17.75,30.25,1.63,18.62,-4.69,-0.19876130388599333,0.08592000268906702,0.19245155721676888,-140.44035437538835,-33.883581162404816,-19.54075377357945,0.0266,-0.941,-0.2914,-0.1697
54,2386608.0,2329.4601390000003,1.0,3.39,0.58,-9.4,1.06,-18.19,29.5,1.63,17.69,-8.06,-0.022665858459563475,0.11778945093217058,-0.20205180913136367,-139.8686617976523,-34.09926566702287,-20.23879269230359,0.0285,-0.9393,-0.2932,-0.1757
55,2386608.0,2329.4601390000003,1.0,3.39,0.58,-9.4,1.06,-18.19,29.5,1.63,17.69,-8.06,-0.022665858459563475,0.11778945093217058,-0.20205180913136367,-139.8686617976523,-34.09926566702287,-20.23879269230359,0.0285,-0.9393,-0.2932,-0.1757
56,2386642.0,2329.524,1.0,3.21,0.36,-9.22,1.5,-18.56,29.87,1.56,16.75,-14.0,-0.29607545892361203,0.03946121886882431,0.04176996311124448,-139.33764146351638,-34.435022863600715,-20.669626923426364,0.0296,-0.9377,-0.29600000000000004,-0.1794
57,2386642.0,2329.524,1.0,3.21,0.36,-9.22,1.5,-18.56,29.87,1.56,16.75,-14.0,-0.29607545892361203,0.03946121886882431,0.04176996311124448,-139.33764146351638,-34.435022863600715,-20.669626923426364,0.0296,-0.9377,-0.29600000000000004,-0.1794
58,2386677.0,2329.595113,1.0,3.24,0.44,-9.41,1.88,-17.75,29.5,-6.25,11.81,-26.69,-0.3845259810860426,0.1179448247016111,-0.1471195768083735,-138.42399053309921,-35.16755548021839,-21.170698001897183,0.028999999999999998,-0.9349,-0.3021,-0.1837
59,2386677.0,2329.595113,1.0,3.24,0.44,-9.41,1.88,-17.75,29.5,-6.25,11.81,-26.69,-0.3845259810860426,0.1179448247016111,-0.1471195768083735,-138.42399053309921,-35.16755548021839,-21.170698001897183,0.028999999999999998,-0.9349,-0.3021,-0.1837
60,2386712.0,2329.647306,1.0,2.55,0.53,-9.44,1.88,-17.75,29.5,-12.38,10.06,-53.81,-0.9860588172557232,0.4854280750111076,0.07582025157138794,-136.65191882638644,-36.963188541465996,-21.695513718287586,0.0237,-0.9293,-0.317,-0.1882
61,2386712.0,2329.647306,1.0,2.55,0.53,-9.44,1.88,-17.75,29.5,-12.38,10.06,-53.81,-0.9860588172557232,0.4854280750111076,0.07582025157138794,-136.65191882638644,-36.963188541465996,-21.695513718287586,0.0237,-0.9293,-0.317,-0.1882
62,2386749.0,2329.657241,1.0,0.82,-0.84,-9.68,2.56,-17.75,28.69,-28.69,15.31,-129.38,-3.3179411601024413,0.39220358141941214,0.6459817487849246,-133.6770461216721,-39.985349368070324,-22.349262916740443,0.0148,-0.9194,-0.3419,-0.1938
63,2386749.0,2329.657241,1.0,0.82,-0.84,-9.68,2.56,-17.75,28.69,-28.69,15.31,-129.38,-3.3179411601024413,0.39220358141941214,0.6459817487849246,-133.6770461216721,-39.985349368070324,-22.349262916740443,0.0148,-0.9194,-0.3419,-0.1938
64,2386784.0,2329.660628,1.0,0.12,-1.57,-8.94,3.75,-18.87,27.87,-60.94,16.0,-178.63,-4.4061145553939465,0.07402246853610595,1.8704307994677067,-127.58485235552216,-45.98367660557063,-23.776088713509264,-0.0118,-0.8972,-0.3906,-0.20600000000000002
65,2386784.0,2329.660628,1.0,0.12,-1.57,-8.94,3.75,-18.87,27.87,-60.94,16.0,-178.63,-4.4061145553939465,0.07402246853610595,1.8704307994677067,-127.58485235552216,-45.98367660557063,-23.776088713509264,-0.0118,-0.8972,-0.3906,-0.20600000000000002
66,2386819.0,2329.7163379999997,1.0,-0.27,0.63,-7.09,3.75,-18.87,27.87,-148.56,31.31,-221.94,-2.7517496777004347,1.3594020398816078,3.3787576700646813,-121.5009364289817,-51.138286174965344,-25.852890528278607,-0.0494,-0.8725,-0.4316,-0.2237
67,2386819.0,2329.7163379999997,1.0,-0.27,0.63,-7.09,3.75,-18.87,27.87,-148.56,31.31,-221.94,-2.7517496777004347,1.3594020398816078,3.3787576700646813,-121.5009364289817,-51.138286174965344,-25.852890528278607,-0.0494,-0.8725,-0.4316,-0.2237
68,2386853.0,2329.75688,1.0,-2.24,3.77,-5.13,7.0,-19.0,27.5,-223.06,58.56,-260.56,-0.9160289455949856,4.093385020024252,4.5196385522468185,-110.65153929836842,-58.4972102111192,-30.650725683430657,-0.1225,-0.8224,-0.4886,-0.2643
69,2386853.0,2329.75688,1.0,-2.24,3.77,-5.13,7.0,-19.0,27.5,-223.06,58.56,-260.56,-0.9160289455949856,4.093385020024252,4.5196385522468185,-110.65153929836842,-58.4972102111192,-30.650725683430657,-0.1225,-0.8224,-0.4886,-0.2643
70,2386890.0,2329.771835,1.0,-4.95,5.6,-1.37,12.56,-20.25,23.0,-251.94,139.5,-294.63,1.8561681252128368,6.7134736156212105,6.769659400195364,-99.97425316489787,-64.53868567478604,-35.98590378205003,-0.1813,-0.7659,-0.5339,-0.3089
71,2386890.0,2329.771835,1.0,-4.95,5.6,-1.37,12.56,-20.25,23.0,-251.94,139.5,-294.63,1.8561681252128368,6.7134736156212105,6.769659400195364,-99.97425316489787,-64.53868567478604,-35.98590378205003,-0.1813,-0.7659,-0.5339,-0.3089
72,2386927.0,2329.8497079999997,1.0,-4.32,6.59,-1.17,19.25,-22.5,18.56,-223.94,209.63,-242.38,3.030073693964124,5.7167703213884495,5.1594368026484085,-85.17260901453768,-71.60598002322817,-44.989651826175965,-0.2313,-0.6767,-0.585,-0.3826
73,2386927.0,2329.8497079999997,1.0,-4.32,6.59,-1.17,19.25,-22.5,18.56,-223.94,209.63,-242.38,3.030073693964124,5.7167703213884495,5.1594368026484085,-85.17260901453768,-71.60598002322817,-44.989651826175965,-0.2313,-0.6767,-0.585,-0.3826
74,2386962.0,2329.932613,1.0,-5.27,7.13,0.86,19.25,-22.5,18.56,-210.31,188.0,-184.13,5.0471100027259626,5.649605070492054,5.120708988009561,-72.640787235407,-75.62798453079644,-53.57720819427434,-0.2649,-0.5923,-0.6131,-0.4507
75,2386962.0,2329.932613,1.0,-5.27,7.13,0.86,19.25,-22.5,18.56,-210.31,188.0,-184.13,5.0471100027259626,5.649605070492054,5.120708988009561,-72.640787235407,-75.62798453079644,-53.57720819427434,-0.2649,-0.5923,-0.6131,-0.4507
76,2387001.0,2329.943971,1.0,-4.04,8.61,3.28,21.25,-23.25,16.19,-206.13,204.31,-98.94,7.305486950831809,3.423451493977584,3.79649690048508,-64.76922217655454,-76.50088290484744,-60.39735535491725,-0.27699999999999997,-0.5356,-0.6191,-0.503
77,2387001.0,2329.943971,1.0,-4.04,8.61,3.28,21.25,-23.25,16.19,-206.13,204.31,-98.94,7.305486950831809,3.423451493977584,3.79649690048508,-64.76922217655454,-76.50088290484744,-60.39735535491725,-0.27699999999999997,-0.5356,-0.6191,-0.503
78,2387038.0,2329.946979,1.0,-0.94,9.65,3.69,20.69,-25.19,13.0,-198.31,295.0,-41.81,6.001982054586714,0.01619834561736866,1.3450810538755054,-54.36161866399844,-76.02014547215987,-71.30954553159043,-0.26899999999999996,-0.4568,-0.6158,-0.5829
79,2387038.0,2329.946979,1.0,-0.94,9.65,3.69,20.69,-25.19,13.0,-198.31,295.0,-41.81,6.001982054586714,0.01619834561736866,1.3450810538755054,-54.36161866399844,-76.02014547215987,-71.30954553159043,-0.26899999999999996,-0.4568,-0.6158,-0.5829
80,2387073.0,2329.9498399999998,1.0,3.95,12.23,5.47,20.69,-25.19,13.0,-208.81,319.81,-39.75,4.010217323590911,-4.709180428913597,-2.7168509763846966,-45.7970207204561,-74.97668509466439,-80.42135265062157,-0.2476,-0.3891,-0.6086,-0.6456
81,2387073.0,2329.9498399999998,1.0,3.95,12.23,5.47,20.69,-25.19,13.0,-208.81,319.81,-39.75,4.010217323590911,-4.709180428913597,-2.7168509763846966,-45.7970207204561,-74.97668509466439,-80.42135265062157,-0.2476,-0.3891,-0.6086,-0.6456
82,2387105.0,2329.952545,1.0,3.3,12.97,6.42,17.69,-28.5,12.5,-178.38,340.31,-43.63,2.2869255168176292,-4.2754589283909405,-4.222523982532634,-33.29706335021371,-73.21072347606676,-92.02642985732345,-0.2115,-0.2865,-0.5963,-0.7195
83,2387105.0,2329.952545,1.0,3.3,12.97,6.42,17.69,-28.5,12.5,-178.38,340.31,-43.63,2.2869255168176292,-4.2754589283909405,-4.222523982532634,-33.29706335021371,-73.21072347606676,-92.02642985732345,-0.2115,-0.2865,-0.5963,-0.7195
84,2387142.0,2330.003051,1.0,2.62,12.11,6.1,13.75,-30.0,10.56,-126.87,340.19,-23.87,0.7486226260689772,-3.3822331289879846,-3.5622154426960897,-24.24470448957822,-72.11544554429472,-99.06954993305422,-0.1748,-0.21,-0.5886,-0.7608
85,2387142.0,2330.003051,1.0,2.62,12.11,6.1,13.75,-30.0,10.56,-126.87,340.19,-23.87,0.7486226260689772,-3.3822331289879846,-3.5622154426960897,-24.24470448957822,-72.11544554429472,-99.06954993305422,-0.1748,-0.21,-0.5886,-0.7608
86,2387179.0,2330.057198,1.0,4.75,12.95,8.32,11.38,-31.56,8.75,-123.06,256.63,-23.56,-2.450200185376718,-4.995075514269001,-5.310662580559097,-14.084359674365961,-69.87744078129813,-106.27930542410908,-0.1299,-0.1226,-0.5727,-0.8001
87,2387179.0,2330.057198,1.0,4.75,12.95,8.32,11.38,-31.56,8.75,-123.06,256.63,-23.56,-2.450200185376718,-4.995075514269001,-5.310662580559097,-14.084359674365961,-69.87744078129813,-106.27930542410908,-0.1299,-0.1226,-0.5727,-0.8001
88,2387214.0,2330.1271309999997,1.0,5.93,13.42,7.22,11.38,-31.56,8.75,-81.94,227.69,-13.69,-5.642791284175428,-2.990131374134947,-5.246845304700761,-6.225383461526625,-67.80757842682634,-110.75231492282506,-0.0933,-0.0543,-0.5578,-0.8229
89,2387214.0,2330.1271309999997,1.0,5.93,13.42,7.22,11.38,-31.56,8.75,-81.94,227.69,-13.69,-5.642791284175428,-2.990131374134947,-5.246845304700761,-6.225383461526625,-67.80757842682634,-110.75231492282506,-0.0933,-0.0543,-0.5578,-0.8229
90,2387251.0,2330.16732,1.0,2.29,11.7,7.59,10.0,-30.5,8.25,-30.37,73.81,20.5,-2.2148057535925134,-2.9236287502145126,-3.8421312791022704,-3.873932556571698,-67.33879642330523,-111.82855209706509,-0.0747,-0.0338,-0.5544,-0.8282
91,2387251.0,2330.16732,1.0,2.29,11.7,7.59,10.0,-30.5,8.25,-30.37,73.81,20.5,-2.2148057535925134,-2.9236287502145126,-3.8421312791022704,-3.873932556571698,-67.33879642330523,-111.82855209706509,-0.0747,-0.0338,-0.5544,-0.8282
92,2387288.0,2330.172089,1.0,2.38,12.7,8.31,7.5,-30.56,7.06,-24.25,45.06,10.63,-2.533512253187409,-2.8488318016296983,-5.075418842367737,-2.3263684457528235,-66.29551072464068,-113.19003713661381,-0.0608,-0.0203,-0.5468,-0.8348
93,2387288.0,2330.172089,1.0,2.38,12.7,8.31,7.5,-30.56,7.06,-24.25,45.06,10.63,-2.533512253187409,-2.8488318016296983,-5.075418842367737,-2.3263684457528235,-66.29551072464068,-113.19003713661381,-0.0608,-0.0203,-0.5468,-0.8348
94,2387322.0,2330.187859,1.0,1.88,12.27,8.02,7.5,-30.56,7.06,0.63,8.19,2.38,-2.1079574405259933,-2.6375261884014662,-4.581111154343217,-1.8335431812694831,-66.17237591930831,-113.39846355737878,-0.057,-0.016,-0.5459,-0.8358
95,2387322.0,2330.187859,1.0,1.88,12.27,8.02,7.5,-30.56,7.06,0.63,8.19,2.38,-2.1079574405259933,-2.6375261884014662,-4.581111154343217,-1.8335431812694831,-66.17237591930831,-113.39846355737878,-0.057,-0.016,-0.5459,-0.8358
96,2387355.0,2330.19087,1.0,1.33,12.22,7.85,8.06,-28.69,6.38,20.44,-9.06,17.81,-1.37468418476899,-2.604048517231152,-4.477921212047366,-2.555603608821701,-66.8438272739107,-112.71282300150172,-0.0552,-0.0223,-0.5508,-0.8325
97,2387355.0,2330.19087,1.0,1.33,12.22,7.85,8.06,-28.69,6.38,20.44,-9.06,17.81,-1.37468418476899,-2.604048517231152,-4.477921212047366,-2.555603608821701,-66.8438272739107,-112.71282300150172,-0.0552,-0.0223,-0.5508,-0.8325
98,2387392.0,2330.230625,1.0,1.22,13.25,7.72,7.06,-29.87,6.69,44.5,-42.25,43.38,-0.93963226917473,-2.3293144415491422,-5.37032879787397,-3.965659465674837,-67.86281386047486,-111.68555504305651,-0.0513,-0.0346,-0.5582,-0.8275
99,2387392.0,2330.230625,1.0,1.22,13.25,7.72,7.06,-29.87,6.69,44.5,-42.25,43.38,-0.93963226917473,-2.3293144415491422,-5.37032879787397,-3.965659465674837,-67.86281386047486,-111.68555504305651,-0.0513,-0.0346,-0.5582,-0.8275
100,2387429.0,2330.283409,1.0,0.21,13.83,7.57,6.25,-30.25,7.75,80.19,-78.81,60.06,0.943731394733613,-2.436777866987647,-5.7429282798619115,-7.3733240323499585,-70.14324952507593,-109.07590597018145,-0.048,-0.0643,-0.5746,-0.8145
101,2387429.0,2330.283409,1.0,0.21,13.83,7.57,6.25,-30.25,7.75,80.19,-78.81,60.06,0.943731394733613,-2.436777866987647,-5.7429282798619115,-7.3733240323499585,-70.14324952507593,-109.07590597018145,-0.048,-0.0643,-0.5746,-0.8145
102,2387462.0,2330.340086,1.0,-1.83,14.16,7.07,6.25,-30.25,7.75,105.06,-98.37,90.12,4.253607638350935,-2.314559777947588,-5.37192157618166,-12.400074265032766,-73.49648178219452,-104.93351333870716,-0.0406,-0.10800000000000001,-0.5983,-0.7929999999999999
103,2387462.0,2330.340086,1.0,-1.83,14.16,7.07,6.25,-30.25,7.75,105.06,-98.37,90.12,4.253607638350935,-2.314559777947588,-5.37192157618166,-12.400074265032766,-73.49648178219452,-104.93351333870716,-0.0406,-0.10800000000000001,-0.5983,-0.7929999999999999
104,2387501.0,2330.400336,1.0,-1.36,12.14,5.02,3.69,-31.75,9.5,153.06,-58.0,104.5,4.1585749830531125,-1.7786282457413212,-2.601908968461082,-15.968397992715149,-77.0271439519232,-100.61802099879914,-0.0258,-0.1389,-0.6227,-0.7695
105,2387501.0,2330.400336,1.0,-1.36,12.14,5.02,3.69,-31.75,9.5,153.06,-58.0,104.5,4.1585749830531125,-1.7786282457413212,-2.601908968461082,-15.968397992715149,-77.0271439519232,-100.61802099879914,-0.0258,-0.1389,-0.6227,-0.7695
106,2387535.0,2330.412914,1.0,-1.42,10.9,3.49,1.75,-30.69,13.88,169.19,-42.0,62.56,4.504502464177774,-1.6561001302866414,-0.6801650507521106,-19.215254308568724,-82.72182782084748,-94.05820202109098,-0.0082,-0.1669,-0.6608,-0.7317
107,2387535.0,2330.412914,1.0,-1.42,10.9,3.49,1.75,-30.69,13.88,169.19,-42.0,62.56,4.504502464177774,-1.6561001302866414,-0.6801650507521106,-19.215254308568724,-82.72182782084748,-94.05820202109098,-0.0082,-0.1669,-0.6608,-0.7317
108,2387570.0,2330.4616379999998,1.0,-1.88,9.0,1.54,1.75,-30.69,13.88,184.94,-19.75,73.94,4.520814558370884,-0.630956698086603,1.6782965767068454,-21.20567161915569,-87.41863949905357,-88.69365764034536,0.008,-0.184,-0.691,-0.6990000000000001
109,2387570.0,2330.4616379999998,1.0,-1.88,9.0,1.54,1.75,-30.69,13.88,184.94,-19.75,73.94,4.520814558370884,-0.630956698086603,1.6782965767068454,-21.20567161915569,-87.41863949905357,-88.69365764034536,0.008,-0.184,-0.691,-0.6990000000000001
110,2387605.0,2330.482586,1.0,-1.72,7.99,0.23,-1.06,-29.5,18.75,181.5,-7.69,72.25,4.341506964687398,-0.303537256733482,2.8849029366246306,-23.30787601995589,-93.5048551721208,-81.64230083997052,0.035,-0.20199999999999999,-0.7284,-0.6537
111,2387605.0,2330.482586,1.0,-1.72,7.99,0.23,-1.06,-29.5,18.75,181.5,-7.69,72.25,4.341506964687398,-0.303537256733482,2.8849029366246306,-23.30787601995589,-93.5048551721208,-81.64230083997052,0.035,-0.20199999999999999,-0.7284,-0.6537
112,2387640.0,2330.48627,1.0,-0.11,5.79,-0.96,-2.88,-26.0,25.06,199.38,28.31,102.81,2.2717627593877454,0.09346277145307624,4.3947964658204866,-24.79585513058625,-97.99832666971392,-76.13654269852312,0.0641,-0.2147,-0.7547,-0.6166
113,2387640.0,2330.48627,1.0,-0.11,5.79,-0.96,-2.88,-26.0,25.06,199.38,28.31,102.81,2.2717627593877454,0.09346277145307624,4.3947964658204866,-24.79585513058625,-97.99832666971392,-76.13654269852312,0.0641,-0.2147,-0.7547,-0.6166
114,2387679.0,2330.529847,1.0,0.93,4.84,-2.02,-5.75,-21.25,29.06,183.31,27.12,109.87,1.3513069845590304,0.4588251044091583,4.6749496037330935,-26.817917077101303,-103.12744256593236,-69.04085162488089,0.1078,-0.2319,-0.7833,-0.5667
115,2387679.0,2330.529847,1.0,0.93,4.84,-2.02,-5.75,-21.25,29.06,183.31,27.12,109.87,1.3513069845590304,0.4588251044091583,4.6749496037330935,-26.817917077101303,-103.12744256593236,-69.04085162488089,0.1078,-0.2319,-0.7833,-0.5667
116,2387712.0,2330.546276,1.0,3.38,1.26,-3.45,-5.75,-21.25,29.06,194.56,31.87,156.06,-2.2126670600994203,1.9033412819814937,5.757465335718059,-29.06155185997118,-106.31751960155215,-63.296099194215,0.1461,-0.2509,-0.8003,-0.5247
117,2387712.0,2330.546276,1.0,3.38,1.26,-3.45,-5.75,-21.25,29.06,194.56,31.87,156.06,-2.2126670600994203,1.9033412819814937,5.757465335718059,-29.06155185997118,-106.31751960155215,-63.296099194215,0.1461,-0.2509,-0.8003,-0.5247
118,2387750.0,2330.597877,1.0,5.71,-0.93,-4.51,-7.19,-15.5,32.69,144.56,27.81,142.5,-4.738342265808356,2.7931458359449057,4.953244091650918,-32.25789123557385,-108.9180458077566,-56.31540097731903,0.1949,-0.2778,-0.8137,-0.4719
119,2387750.0,2330.597877,1.0,5.71,-0.93,-4.51,-7.19,-15.5,32.69,144.56,27.81,142.5,-4.738342265808356,2.7931458359449057,4.953244091650918,-32.25789123557385,-108.9180458077566,-56.31540097731903,0.1949,-0.2778,-0.8137,-0.4719
120,2387785.0,2330.652858,1.0,6.35,-1.41,-4.45,-12.0,-8.38,36.69,90.37,35.56,80.87,-5.163645901512976,2.674708903171356,4.487270967905734,-33.70393852830112,-109.53146516582777,-53.153985232120654,0.2204,-0.2899,-0.8168,-0.4474
121,2387785.0,2330.652858,1.0,6.35,-1.41,-4.45,-12.0,-8.38,36.69,90.37,35.56,80.87,-5.163645901512976,2.674708903171356,4.487270967905734,-33.70393852830112,-109.53146516582777,-53.153985232120654,0.2204,-0.2899,-0.8168,-0.4474
122,2387820.0,2330.698155,1.0,5.97,10.0,-10.13,-12.0,-8.38,36.69,-107.62,-91.94,-67.0,3.2794192662880914,2.9399205937128614,-4.987270243754239,-33.476513522752754,-108.97720765299681,-53.962642188164594,0.2205,-0.28800000000000003,-0.8140000000000001,-0.4537
123,2387820.0,2330.698155,1.0,5.97,10.0,-10.13,-12.0,-8.38,36.69,-107.62,-91.94,-67.0,3.2794192662880914,2.9399205937128614,-4.987270243754239,-33.476513522752754,-108.97720765299681,-53.962642188164594,0.2205,-0.28800000000000003,-0.8140000000000001,-0.4537
124,2387855.0,2330.762693,1.0,6.54,6.51,-2.26,-13.38,-4.25,36.75,-100.75,-148.5,-20.19,-0.7254681331281163,-2.5402120927378355,0.6808449115859325,-36.63712122701613,-106.81586235047912,-57.436125785536824,0.1602,-0.3143,-0.8029,-0.4805
125,2387855.0,2330.762693,1.0,6.54,6.51,-2.26,-13.38,-4.25,36.75,-100.75,-148.5,-20.19,-0.7254681331281163,-2.5402120927378355,0.6808449115859325,-36.63712122701613,-106.81586235047912,-57.436125785536824,0.1602,-0.3143,-0.8029,-0.4805
126,2387892.0,2330.806228,1.0,5.88,4.57,-5.58,-9.5,-9.5,36.19,-11.31,0.0,-11.5,-1.7850125084209276,1.2287313037910654,0.7568074749687064,-36.07025258875129,-107.27847580775386,-57.553756403368006,0.1547,-0.3096,-0.8053,-0.4814
127,2387892.0,2330.806228,1.0,5.88,4.57,-5.58,-9.5,-9.5,36.19,-11.31,0.0,-11.5,-1.7850125084209276,1.2287313037910654,0.7568074749687064,-36.07025258875129,-107.27847580775386,-57.553756403368006,0.1547,-0.3096,-0.8053,-0.4814
128,2387927.0,2330.864577,1.0,4.99,5.24,-4.97,-9.5,-9.5,36.19,-1.5,-14.81,47.75,-0.5179688874305088,0.753105726150141,1.0760635364860018,-37.543632473884564,-106.47054675108936,-57.344681030456115,0.1561,-0.3218,-0.8011,-0.4798
129,2387927.0,2330.864577,1.0,4.99,5.24,-4.97,-9.5,-9.5,36.19,-1.5,-14.81,47.75,-0.5179688874305088,0.753105726150141,1.0760635364860018,-37.543632473884564,-106.47054675108936,-57.344681030456115,0.1561,-0.3218,-0.8011,-0.4798
130,2387961.0,2330.872574,1.0,6.28,4.83,-5.19,-8.38,-10.25,36.56,23.94,25.56,16.44,-1.615084256876575,0.651121814211177,0.4969269522263531,-37.87057079932817,-106.10755148916279,-57.214114833301345,0.1636,-0.3245,-0.7992,-0.4788
131,2387961.0,2330.872574,1.0,6.28,4.83,-5.19,-8.38,-10.25,36.56,23.94,25.56,16.44,-1.615084256876575,0.651121814211177,0.4969269522263531,-37.87057079932817,-106.10755148916279,-57.214114833301345,0.1636,-0.3245,-0.7992,-0.4788
132,2387998.0,2330.885467,1.0,7.56,4.78,-4.62,-8.0,-10.69,36.25,75.56,42.19,28.25,-2.155107462413466,-0.32285632058548064,-0.02176165304484634,-38.10083031138289,-106.47054675108936,-55.62764107730477,0.1844,-0.3264,-0.8011,-0.4666
133,2387998.0,2330.885467,1.0,7.56,4.78,-4.62,-8.0,-10.69,36.25,75.56,42.19,28.25,-2.155107462413466,-0.32285632058548064,-0.02176165304484634,-38.10083031138289,-106.47054675108936,-55.62764107730477,0.1844,-0.3264,-0.8011,-0.4666
134,2388033.0,2330.924516,1.0,7.67,2.66,-4.47,-9.5,-8.88,36.25,-37.38,-23.62,-21.12,-3.740401795443508,0.2675897573258141,1.331793651340318,-38.015979325491685,-106.4131295533326,-55.83503588596936,0.1829,-0.3257,-0.8008,-0.4682
135,2388033.0,2330.924516,1.0,7.67,2.66,-4.47,-9.5,-8.88,36.25,-37.38,-23.62,-21.12,-3.740401795443508,0.2675897573258141,1.331793651340318,-38.015979325491685,-106.4131295533326,-55.83503588596936,0.1829,-0.3257,-0.8008,-0.4682
136,2388066.0,2330.947546,1.0,7.2,2.57,-3.83,-9.5,-8.88,36.25,-47.75,-34.75,-13.44,-3.6834205444358568,-0.14378090853496284,2.0913703457574697,-38.44045190034536,-105.76506603938064,-57.09667459203971,0.1655,-0.3292,-0.7974,-0.4779
137,2388066.0,2330.947546,1.0,7.2,2.57,-3.83,-9.5,-8.88,36.25,-47.75,-34.75,-13.44,-3.6834205444358568,-0.14378090853496284,2.0913703457574697,-38.44045190034536,-105.76506603938064,-57.09667459203971,0.1655,-0.3292,-0.7974,-0.4779
138,2388103.0,2330.986387,1.0,7.52,1.57,-3.37,-8.75,-9.0,37.06,-58.19,-55.81,12.38,-4.666921206707287,-0.4559352203307285,2.850776976054856,-39.51014004319908,-104.8019451062217,-57.94633904000565,0.1526,-0.33799999999999997,-0.7923,-0.4844
139,2388103.0,2330.986387,1.0,7.52,1.57,-3.37,-8.75,-9.0,37.06,-58.19,-55.81,12.38,-4.666921206707287,-0.4559352203307285,2.850776976054856,-39.51014004319908,-104.8019451062217,-57.94633904000565,0.1526,-0.33799999999999997,-0.7923,-0.4844
140,2388140.0,2330.993459,1.0,6.23,1.07,-2.68,-8.0,-10.75,36.25,-103.12,-81.0,17.62,-4.129910692466421,-0.6597611928073326,4.3615831647153325,-42.065313242449655,-102.52115080428871,-59.60343856980716,0.1252,-0.3589,-0.78,-0.49700000000000005
141,2388140.0,2330.993459,1.0,6.23,1.07,-2.68,-8.0,-10.75,36.25,-103.12,-81.0,17.62,-4.129910692466421,-0.6597611928073326,4.3615831647153325,-42.065313242449655,-102.52115080428871,-59.60343856980716,0.1252,-0.3589,-0.78,-0.49700000000000005
142,2388174.0,2331.011332,1.0,4.52,1.59,-2.19,-8.0,-10.75,36.25,-140.25,-88.5,10.56,-2.595436917540761,-0.5619918751967591,5.256653039640648,-44.18463175478608,-99.77840482252957,-61.821201404862826,0.0983,-0.3761,-0.7648,-0.5137
143,2388174.0,2331.011332,1.0,4.52,1.59,-2.19,-8.0,-10.75,36.25,-140.25,-88.5,10.56,-2.595436917540761,-0.5619918751967591,5.256653039640648,-44.18463175478608,-99.77840482252957,-61.821201404862826,0.0983,-0.3761,-0.7648,-0.5137
144,2388207.0,2331.159441,1.0,3.89,1.62,-1.37,-6.06,-13.5,35.5,-173.63,-91.75,-5.63,-2.0525290241484786,-1.054099193184077,6.023873308737778,-46.956385579504534,-95.25858813139106,-65.44898558136794,0.0567,-0.3984,-0.7388,-0.5406
145,2388207.0,2331.159441,1.0,3.89,1.62,-1.37,-6.06,-13.5,35.5,-173.63,-91.75,-5.63,-2.0525290241484786,-1.054099193184077,6.023873308737778,-46.956385579504534,-95.25858813139106,-65.44898558136794,0.0567,-0.3984,-0.7388,-0.5406
146,2388244.0,2331.209373,1.0,1.99,4.25,-0.18,-3.56,-17.56,33.06,-243.69,-120.75,-75.44,1.066766465900762,-1.0727616683321337,5.3607314548412095,-47.80732155074712,-91.10624511400431,-69.66789572403633,0.0055,-0.4052,-0.7139,-0.5712
147,2388244.0,2331.209373,1.0,1.99,4.25,-0.18,-3.56,-17.56,33.06,-243.69,-120.75,-75.44,1.066766465900762,-1.0727616683321337,5.3607314548412095,-47.80732155074712,-91.10624511400431,-69.66789572403633,0.0055,-0.4052,-0.7139,-0.5712
148,2388281.0,2331.290891,1.0,0.03,7.25,2.77,0.56,-22.75,27.5,-210.75,-113.44,-37.75,5.107753128185701,-1.5146619170712812,4.1628075802930935,-49.227628404888755,-84.61355507220527,-74.8034850768004,-0.0669,-0.4165,-0.6731,-0.6074
149,2388281.0,2331.290891,1.0,0.03,7.25,2.77,0.56,-22.75,27.5,-210.75,-113.44,-37.75,5.107753128185701,-1.5146619170712812,4.1628075802930935,-49.227628404888755,-84.61355507220527,-74.8034850768004,-0.0669,-0.4165,-0.6731,-0.6074
150,2388316.0,2331.30267,1.0,0.18,10.8,4.36,0.56,-22.75,27.5,-302.13,-29.69,-107.0,6.343745890825941,-1.230392305816248,0.11515770797307745,-46.8939256305629,-77.1590095835216,-82.49301728450641,-0.1348,-0.3979,-0.6236,-0.6593
151,2388316.0,2331.30267,1.0,0.18,10.8,4.36,0.56,-22.75,27.5,-302.13,-29.69,-107.0,6.343745890825941,-1.230392305816248,0.11515770797307745,-46.8939256305629,-77.1590095835216,-82.49301728450641,-0.1348,-0.3979,-0.6236,-0.6593
152,2388353.0,2331.3455940000003,1.0,2.63,19.08,5.89,6.19,-28.06,23.19,-223.5,-74.44,76.62,6.8385286435090356,-0.23935650860546964,-9.136228198776836,-46.45711770819951,-69.82153596259464,-88.67763467052185,-0.1686,-0.3944,-0.5723,-0.6989
153,2388353.0,2331.3455940000003,1.0,2.63,19.08,5.89,6.19,-28.06,23.19,-223.5,-74.44,76.62,6.8385286435090356,-0.23935650860546964,-9.136228198776836,-46.45711770819951,-69.82153596259464,-88.67763467052185,-0.1686,-0.3944,-0.5723,-0.6989
154,2388389.0,2331.3622600000003,1.0,3.31,18.29,5.54,7.69,-34.5,14.75,-28.44,-55.63,66.5,6.6032582144524765,1.0684980526130996,-8.398489188284936,-51.48152030899618,-64.63357693133646,-89.5298988974798,-0.1721,-0.4343,-0.5346,-0.7042
155,2388389.0,2331.3622600000003,1.0,3.31,18.29,5.54,7.69,-34.5,14.75,-28.44,-55.63,66.5,6.6032582144524765,1.0684980526130996,-8.398489188284936,-51.48152030899618,-64.63357693133646,-89.5298988974798,-0.1721,-0.4343,-0.5346,-0.7042
156,2388424.0,2331.365326,1.0,7.07,14.26,2.36,7.69,-34.5,14.75,15.94,36.13,25.12,1.1199731613155108,-0.9354403084672712,-6.217479041767841,-51.45607859919252,-64.32197736057384,-90.16107125343979,-0.1637,-0.4341,-0.5323,-0.7081
157,2388424.0,2331.365326,1.0,7.07,14.26,2.36,7.69,-34.5,14.75,15.94,36.13,25.12,1.1199731613155108,-0.9354403084672712,-6.217479041767841,-51.45607859919252,-64.32197736057384,-90.16107125343979,-0.1637,-0.4341,-0.5323,-0.7081
158,2388459.0,2331.4031010000003,1.0,9.49,10.22,0.35,5.56,-36.88,13.06,61.0,-57.75,49.56,-2.2004864647785847,-2.91757198726612,-3.657251106939485,-53.24369423684897,-64.98646672733051,-88.62957889033545,-0.1503,-0.4481,-0.5372,-0.6986
159,2388459.0,2331.4031010000003,1.0,9.49,10.22,0.35,5.56,-36.88,13.06,61.0,-57.75,49.56,-2.2004864647785847,-2.91757198726612,-3.657251106939485,-53.24369423684897,-64.98646672733051,-88.62957889033545,-0.1503,-0.4481,-0.5372,-0.6986
160,2388494.0,2331.418959,1.0,9.37,5.65,0.2,4.38,-37.25,13.06,49.31,-135.0,95.19,-2.71194584721862,-4.577788562548502,0.2437737800359532,-57.35774212215939,-64.64713688163303,-85.7654543452423,-0.14400000000000002,-0.4799,-0.5347,-0.6805
161,2388494.0,2331.418959,1.0,9.37,5.65,0.2,4.38,-37.25,13.06,49.31,-135.0,95.19,-2.71194584721862,-4.577788562548502,0.2437737800359532,-57.35774212215939,-64.64713688163303,-85.7654543452423,-0.14400000000000002,-0.4799,-0.5347,-0.6805
162,2388531.0,2331.423137,1.0,9.3,4.23,0.77,2.5,-37.25,16.69,-20.5,-231.38,120.06,-1.1848162935967013,-5.5135947922832855,1.2525701069352628,-66.02199478441803,-60.861952842422134,-81.12844881454608,-0.1539,-0.5448,-0.5065,-0.6503
163,2388531.0,2331.423137,1.0,9.3,4.23,0.77,2.5,-37.25,16.69,-20.5,-231.38,120.06,-1.1848162935967013,-5.5135947922832855,1.2525701069352628,-66.02199478441803,-60.861952842422134,-81.12844881454608,-0.1539,-0.5448,-0.5065,-0.6503
164,2388566.0,2331.426236,1.0,9.07,4.0,0.69,2.5,-37.25,16.69,-42.38,-260.25,155.81,0.5254013003864926,-5.164792663229574,1.3337596891673282,-76.86613864248247,-54.07840095968836,-75.81667229763626,-0.1715,-0.6216,-0.4546,-0.6144
165,2388566.0,2331.426236,1.0,9.07,4.0,0.69,2.5,-37.25,16.69,-42.38,-260.25,155.81,0.5254013003864926,-5.164792663229574,1.3337596891673282,-76.86613864248247,-54.07840095968836,-75.81667229763626,-0.1715,-0.6216,-0.4546,-0.6144
166,2388602.0,2331.4656449999998,1.0,7.76,3.01,1.31,1.37,-38.25,16.56,-63.06,-285.06,156.56,2.197919404682576,-4.467813261689052,3.0094744873921897,-85.62478707023612,-48.007947366775134,-71.01366013662432,-0.1879,-0.6796,-0.4068,-0.5808
167,2388602.0,2331.4656449999998,1.0,7.76,3.01,1.31,1.37,-38.25,16.56,-63.06,-285.06,156.56,2.197919404682576,-4.467813261689052,3.0094744873921897,-85.62478707023612,-48.007947366775134,-71.01366013662432,-0.1879,-0.6796,-0.4068,-0.5808
168,2388639.0,2331.521398,1.0,7.55,2.12,1.7,-0.5,-38.56,18.19,-116.75,-238.44,139.38,3.5831799847091244,-4.162533385714925,3.956775043217712,-95.44579560430292,-39.48578948035391,-65.50347830987022,-0.2139,-0.7399,-0.3378,-0.541
169,2388639.0,2331.521398,1.0,7.55,2.12,1.7,-0.5,-38.56,18.19,-116.75,-238.44,139.38,3.5831799847091244,-4.162533385714925,3.956775043217712,-95.44579560430292,-39.48578948035391,-65.50347830987022,-0.2139,-0.7399,-0.3378,-0.541
170,2388674.0,2331.528082,1.0,6.64,4.08,2.61,-0.5,-38.56,18.19,-190.31,-235.19,146.06,5.223450495257951,-1.28073958518035,3.591879606933052,-101.21199312357183,-31.888273849894752,-62.262463418184296,-0.2452,-0.7728,-0.2747,-0.517
171,2388674.0,2331.528082,1.0,6.64,4.08,2.61,-0.5,-38.56,18.19,-190.31,-235.19,146.06,5.223450495257951,-1.28073958518035,3.591879606933052,-101.21199312357183,-31.888273849894752,-62.262463418184296,-0.2452,-0.7728,-0.2747,-0.517
172,2388709.0,2331.54474,1.0,6.52,7.45,3.18,-3.25,-39.25,16.87,-227.19,-195.75,126.62,5.768690627383312,2.846412190702295,1.6368613805704069,-106.24110823664705,-20.611388956075047,-58.628588254962324,-0.2974,-0.7999,-0.1789,-0.4896
173,2388709.0,2331.54474,1.0,6.52,7.45,3.18,-3.25,-39.25,16.87,-227.19,-195.75,126.62,5.768690627383312,2.846412190702295,1.6368613805704069,-106.24110823664705,-20.611388956075047,-58.628588254962324,-0.2974,-0.7999,-0.1789,-0.4896
174,2388744.0,2331.731433,1.0,4.74,6.27,2.22,-7.88,-38.5,13.5,-174.38,-142.63,102.37,3.627954933633261,3.249817788188833,3.2503150983115923,-107.84087503637959,-13.899637842978935,-56.445414155152676,-0.3294,-0.8082,-0.121,-0.4729
175,2388744.0,2331.731433,1.0,4.74,6.27,2.22,-7.88,-38.5,13.5,-174.38,-142.63,102.37,3.627954933633261,3.249817788188833,3.2503150983115923,-107.84087503637959,-13.899637842978935,-56.445414155152676,-0.3294,-0.8082,-0.121,-0.4729
176,2388783.0,2331.746162,1.0,3.51,5.83,3.28,-11.06,-39.5,12.5,-198.5,-125.0,119.25,3.1052445572260887,4.595040829516244,4.677278107175651,-108.27006185000631,-5.674601147870103,-54.31009785710634,-0.3641,-0.8104,-0.0495,-0.4564
177,2388783.0,2331.746162,1.0,3.51,5.83,3.28,-11.06,-39.5,12.5,-198.5,-125.0,119.25,3.1052445572260887,4.595040829516244,4.677278107175651,-108.27006185000631,-5.674601147870103,-54.31009785710634,-0.3641,-0.8104,-0.0495,-0.4564
178,2388815.0,2331.889072,1.0,4.34,8.27,4.41,-11.06,-39.5,12.5,-216.56,-107.56,148.31,2.1898061180784167,7.264302678770808,2.798707666017103,-106.22201600575642,4.149120969117045,-52.91066611549383,-0.4006,-0.7998,0.0362,-0.4455
179,2388815.0,2331.889072,1.0,4.34,8.27,4.41,-11.06,-39.5,12.5,-216.56,-107.56,148.31,2.1898061180784167,7.264302678770808,2.798707666017103,-106.22201600575642,4.149120969117045,-52.91066611549383,-0.4006,-0.7998,0.0362,-0.4455
180,2388854.0,2332.178884,1.0,6.32,8.49,4.64,-13.5,-36.75,11.56,-136.13,-16.37,171.88,2.181897721691976,7.422534195351052,1.2219305257877142,-103.6079880821084,10.591876570929834,-53.75699560652143,-0.4116,-0.7859,0.0923,-0.4521
181,2388854.0,2332.178884,1.0,6.32,8.49,4.64,-13.5,-36.75,11.56,-136.13,-16.37,171.88,2.181897721691976,7.422534195351052,1.2219305257877142,-103.6079880821084,10.591876570929834,-53.75699560652143,-0.4116,-0.7859,0.0923,-0.4521
182,2388891.0,2332.189305,1.0,9.37,7.88,2.98,-16.87,-32.56,11.88,-108.25,87.25,154.38,1.4667147795853506,5.320133953414702,-1.521042725046437,-97.87613706345994,16.848301053200124,-57.6583726523369,-0.4214,-0.754,0.1465,-0.4822
183,2388891.0,2332.189305,1.0,9.37,7.88,2.98,-16.87,-32.56,11.88,-108.25,87.25,154.38,1.4667147795853506,5.320133953414702,-1.521042725046437,-97.87613706345994,16.848301053200124,-57.6583726523369,-0.4214,-0.754,0.1465,-0.4822
184,2388926.0,2332.192089,1.0,4.66,7.65,-3.18,-16.87,-32.56,11.88,-87.94,81.81,152.25,-5.25109540832005,1.0826616440840846,1.9578067236216723,-93.12086388400516,20.355205608113067,-61.67434029817293,-0.4229,-0.7261,0.1767,-0.5126
185,2388926.0,2332.192089,1.0,4.66,7.65,-3.18,-16.87,-32.56,11.88,-87.94,81.81,152.25,-5.25109540832005,1.0826616440840846,1.9578067236216723,-93.12086388400516,20.355205608113067,-61.67434029817293,-0.4229,-0.7261,0.1767,-0.5126
186,2388961.0,2332.39507,1.0,20.27,25.07,9.12,-15.69,-26.56,11.19,-562.94,242.5,143.88,-11.695517242000045,14.653271161986499,-17.96111405646257,-79.61346922485379,30.19946487135094,-65.70797477306883,-0.4774,-0.6402,0.2605,-0.5425
187,2388961.0,2332.39507,1.0,20.27,25.07,9.12,-15.69,-26.56,11.19,-562.94,242.5,143.88,-11.695517242000045,14.653271161986499,-17.96111405646257,-79.61346922485379,30.19946487135094,-65.70797477306883,-0.4774,-0.6402,0.2605,-0.5425
188,2388998.0,2332.7827199999997,1.0,20.61,29.89,1.46,-13.69,-20.56,10.0,-293.69,431.38,126.44,-25.737272054811807,-1.0381263957194893,-15.822062819084652,-58.484077048449976,32.53234621871178,-74.08395810619946,-0.5657,-0.4885,0.2801,-0.6024
189,2388998.0,2332.7827199999997,1.0,20.61,29.89,1.46,-13.69,-20.56,10.0,-293.69,431.38,126.44,-25.737272054811807,-1.0381263957194893,-15.822062819084652,-58.484077048449976,32.53234621871178,-74.08395810619946,-0.5657,-0.4885,0.2801,-0.6024
