,TIME,ELAPSED_SECONDS,PSTATE,acc_x,acc_y,acc_z,mag_x,mag_y,mag_z,gyr_x,gyr_y,gyr_z,lin_x,lin_y,lin_z,eul_x,eul_y,eul_z,qua_w,qua_x,qua_y,qua_z
0,732381.0,672.175773,1.0,7.07,2.28,-6.5,-21.06,13.56,37.75,-1.88,-0.37,0.75,0.09120453296121472,-0.02076272535899215,-0.06373756292796172,-24.64335146895964,-124.30646648477429,-24.596436196111345,0.3568,-0.2134,-0.8842,-0.213
1,732381.0,672.175773,1.0,7.07,2.28,-6.5,-21.06,13.56,37.75,-1.88,-0.37,0.75,0.09120453296121472,-0.02076272535899215,-0.06373756292796172,-24.64335146895964,-124.30646648477429,-24.596436196111345,0.3568,-0.2134,-0.8842,-0.213
2,732416.0,672.179336,1.0,7.1,2.25,-6.47,-21.5,13.88,38.19,-1.12,2.19,-0.56,0.04313038548407039,-0.011920895468430448,-0.05901762373937203,-24.64335146895964,-124.25742213626366,-24.631622257728548,0.35700000000000004,-0.2134,-0.884,-0.2133
3,732416.0,672.179336,1.0,7.1,2.25,-6.47,-21.5,13.88,38.19,-1.12,2.19,-0.56,0.04313038548407039,-0.011920895468430448,-0.05901762373937203,-24.64335146895964,-124.25742213626366,-24.631622257728548,0.35700000000000004,-0.2134,-0.884,-0.2133
4,732452.0,672.233594,1.0,7.14,2.31,-6.51,-21.5,13.56,38.56,1.94,13.81,-0.69,0.1218310330349484,-0.011595402195129887,-0.1271721619896926,-24.537797991913113,-123.98838434414272,-24.725463298356363,0.3599,-0.2125,-0.8829,-0.2141
5,732452.0,672.233594,1.0,7.14,2.31,-6.51,-21.5,13.56,38.56,1.94,13.81,-0.69,0.1218310330349484,-0.011595402195129887,-0.1271721619896926,-24.537797991913113,-123.98838434414272,-24.725463298356363,0.3599,-0.2125,-0.8829,-0.2141
6,732487.0,672.250403,1.0,6.93,2.0,-6.23,-21.5,13.56,38.56,1.19,-2.81,-2.06,-0.05072599221248042,0.1419015690645773,0.2769547887977506,-24.479166312304468,-123.98838434414272,-24.70200146162693,0.3604,-0.212,-0.8829,-0.2139
7,732487.0,672.250403,1.0,6.93,2.0,-6.23,-21.5,13.56,38.56,1.19,-2.81,-2.06,-0.05072599221248042,0.1419015690645773,0.2769547887977506,-24.479166312304468,-123.98838434414272,-24.70200146162693,0.3604,-0.212,-0.8829,-0.2139
8,732520.0,672.297723,1.0,7.18,2.3,-6.6,-22.19,14.25,39.38,-1.0,5.25,-0.25,0.1589091237528677,0.048918388392334984,-0.21207022174814227,-24.479166312304468,-123.8908464883956,-24.748926188008948,0.361,-0.212,-0.8825,-0.2143
9,732520.0,672.297723,1.0,7.18,2.3,-6.6,-22.19,14.25,39.38,-1.0,5.25,-0.25,0.1589091237528677,0.048918388392334984,-0.21207022174814227,-24.479166312304468,-123.8908464883956,-24.748926188008948,0.361,-0.212,-0.8825,-0.2143
10,732555.0,672.361989,1.0,7.09,2.24,-6.33,-21.87,13.19,40.19,-1.69,-2.81,-0.31,0.033561802366863736,-0.02520632200065553,0.04177221035239143,-24.479166312304468,-123.91521633901593,-24.76065802803315,0.3608,-0.212,-0.8826,-0.2144
11,732555.0,672.361989,1.0,7.09,2.24,-6.33,-21.87,13.19,40.19,-1.69,-2.81,-0.31,0.033561802366863736,-0.02520632200065553,0.04177221035239143,-24.479166312304468,-123.91521633901593,-24.76065802803315,0.3608,-0.212,-0.8826,-0.2144
12,732590.0,672.389521,1.0,6.99,2.34,-6.38,-21.87,13.19,40.19,-1.25,8.06,-1.31,0.20314847625503107,-0.03503431821999658,0.05997860443412328,-24.43226565454688,-123.74483108000663,-24.842788298368426,0.3622,-0.2116,-0.8819,-0.2151
13,732590.0,672.389521,1.0,6.99,2.34,-6.38,-21.87,13.19,40.19,-1.25,8.06,-1.31,0.20314847625503107,-0.03503431821999658,0.05997860443412328,-24.43226565454688,-123.74483108000663,-24.842788298368426,0.3622,-0.2116,-0.8819,-0.2151
14,732624.0,672.406428,1.0,7.42,2.17,-6.77,-21.87,13.88,38.56,0.5,-3.88,-1.69,0.05848485827555772,0.22759364075442834,-0.4667613446333263,-24.39709288880459,-123.69623657185858,-24.8662564695287,0.3628,-0.2113,-0.8817,-0.2153
15,732624.0,672.406428,1.0,7.42,2.17,-6.77,-21.87,13.88,38.56,0.5,-3.88,-1.69,0.05848485827555772,0.22759364075442834,-0.4667613446333263,-24.39709288880459,-123.69623657185858,-24.8662564695287,0.3628,-0.2113,-0.8817,-0.2153
16,732661.0,672.478312,1.0,7.18,2.13,-6.4,-21.87,13.56,38.56,-1.88,-10.88,-0.06,-0.06259003036733651,0.0815137476060428,-0.04417422932466231,-24.44399042905254,-123.98838434414272,-24.772390131710253,0.36,-0.2117,-0.8829,-0.2145
17,732661.0,672.478312,1.0,7.18,2.13,-6.4,-21.87,13.56,38.56,-1.88,-10.88,-0.06,-0.06259003036733651,0.0815137476060428,-0.04417422932466231,-24.44399042905254,-123.98838434414272,-24.772390131710253,0.36,-0.2117,-0.8829,-0.2145
18,732696.0,672.4817009999999,1.0,7.11,2.42,-6.32,-21.87,13.88,38.19,0.5,-3.13,0.12,0.06548072058474919,-0.19366432374567832,-0.007070314179523862,-24.51434453810049,-124.1105266335135,-24.78412249918103,0.3585,-0.2123,-0.8834,-0.2146
19,732696.0,672.4817009999999,1.0,7.11,2.42,-6.32,-21.87,13.88,38.19,0.5,-3.13,0.12,0.06548072058474919,-0.19366432374567832,-0.007070314179523862,-24.51434453810049,-124.1105266335135,-24.78412249918103,0.3585,-0.2123,-0.8834,-0.2146
20,732729.0,672.521151,1.0,7.22,2.26,-6.65,-21.87,13.88,38.19,1.12,1.0,-1.94,0.08656819050997122,0.09133897678308324,-0.2652248572305069,-24.43226565454688,-124.13498454962264,-24.772390131710253,0.3586,-0.2116,-0.8835,-0.2145
21,732729.0,672.521151,1.0,7.22,2.26,-6.65,-21.87,13.88,38.19,1.12,1.0,-1.94,0.08656819050997122,0.09133897678308324,-0.2652248572305069,-24.43226565454688,-124.13498454962264,-24.772390131710253,0.3586,-0.2116,-0.8835,-0.2145
22,732764.0,672.5733240000001,1.0,7.22,2.28,-6.8,-21.06,13.19,38.56,-0.19,-5.56,0.12,0.15682796479277775,0.1415863794178014,-0.3679339367820021,-24.44399042905254,-124.25742213626366,-24.737194611496925,0.3575,-0.2117,-0.884,-0.2142
23,732764.0,672.5733240000001,1.0,7.22,2.28,-6.8,-21.06,13.19,38.56,-0.19,-5.56,0.12,0.15682796479277775,0.1415863794178014,-0.3679339367820021,-24.44399042905254,-124.25742213626366,-24.737194611496925,0.3575,-0.2117,-0.884,-0.2142
24,732801.0,672.608221,1.0,6.92,2.23,-6.28,-21.5,14.25,38.19,2.31,-11.06,0.5,5.558200825933613e-05,-0.0689003493423408,0.19972787380520174,-24.51434453810049,-124.57692406667047,-24.58470803246293,0.3549,-0.2123,-0.8853,-0.2129
25,732801.0,672.608221,1.0,6.92,2.23,-6.28,-21.5,14.25,38.19,2.31,-11.06,0.5,5.558200825933613e-05,-0.0689003493423408,0.19972787380520174,-24.51434453810049,-124.57692406667047,-24.58470803246293,0.3549,-0.2123,-0.8853,-0.2129
26,732833.0,672.665577,1.0,6.85,2.41,-6.45,-21.5,14.25,38.19,-1.44,-3.81,0.56,0.20522737750790004,-0.12062292739131596,0.09704486730233697,-24.54952511022461,-124.67557399344672,-24.58470803246293,0.3534,-0.2126,-0.8857,-0.2129
27,732833.0,672.665577,1.0,6.85,2.41,-6.45,-21.5,14.25,38.19,-1.44,-3.81,0.56,0.20522737750790004,-0.12062292739131596,0.09704486730233697,-24.54952511022461,-124.67557399344672,-24.58470803246293,0.3534,-0.2126,-0.8857,-0.2129
28,732868.0,672.705065,1.0,6.94,2.12,-6.74,-21.5,13.56,38.56,2.94,-0.25,-0.88,0.14216768998981416,0.2361944693497827,-0.09332982425073057,-24.51434453810049,-124.77438620684354,-24.50261820231894,0.3531,-0.2123,-0.8861,-0.2122
29,732868.0,672.705065,1.0,6.94,2.12,-6.74,-21.5,13.56,38.56,2.94,-0.25,-0.88,0.14216768998981416,0.2361944693497827,-0.09332982425073057,-24.51434453810049,-124.77438620684354,-24.50261820231894,0.3531,-0.2123,-0.8861,-0.2122
30,732903.0,672.772652,1.0,6.93,2.34,-6.55,-21.06,13.19,39.38,-0.44,-2.06,1.88,0.16125217541324288,-0.05118673886286906,-0.01039526085568454,-24.50261820231894,-124.82385344491156,-24.44399042905254,0.353,-0.2122,-0.8863,-0.2117
31,732903.0,672.772652,1.0,6.93,2.34,-6.55,-21.06,13.19,39.38,-0.44,-2.06,1.88,0.16125217541324288,-0.05118673886286906,-0.01039526085568454,-24.50261820231894,-124.82385344491156,-24.44399042905254,0.353,-0.2122,-0.8863,-0.2117
32,732940.0,672.776126,1.0,6.89,2.32,-6.39,-21.06,13.19,39.38,0.12,-0.5,-0.56,0.08480628063839146,-0.11099471910755243,0.12847413534996122,-24.54952511022461,-124.84860239500851,-24.467440757791284,0.3526,-0.2126,-0.8864,-0.2119
33,732940.0,672.776126,1.0,6.89,2.32,-6.39,-21.06,13.19,39.38,0.12,-0.5,-0.56,0.08480628063839146,-0.11099471910755243,0.12847413534996122,-24.54952511022461,-124.84860239500851,-24.467440757791284,0.3526,-0.2126,-0.8864,-0.2119
34,732973.0,672.817991,1.0,6.9,2.14,-6.5,-21.5,13.88,38.56,-0.12,0.0,-1.06,0.04852159002636641,0.0909102506113535,0.08919246309071482,-24.479166312304468,-124.84860239500851,-24.420541139763646,0.353,-0.212,-0.8864,-0.2115
35,732973.0,672.817991,1.0,6.9,2.14,-6.5,-21.5,13.88,38.56,-0.12,0.0,-1.06,0.04852159002636641,0.0909102506113535,0.08919246309071482,-24.479166312304468,-124.84860239500851,-24.420541139763646,0.353,-0.212,-0.8864,-0.2115
36,733007.0,672.835838,1.0,6.94,2.33,-6.17,-21.5,14.69,38.19,-3.88,0.75,-0.31,-0.05401178840099918,-0.22792894494258095,0.2355199140189779,-24.50261820231894,-124.74966789127242,-24.54952511022461,0.3531,-0.2122,-0.8859999999999999,-0.2126
37,733007.0,672.835838,1.0,6.94,2.33,-6.17,-21.5,14.69,38.19,-3.88,0.75,-0.31,-0.05401178840099918,-0.22792894494258095,0.2355199140189779,-24.50261820231894,-124.74966789127242,-24.54952511022461,0.3531,-0.2122,-0.8859999999999999,-0.2126
38,733044.0,672.874998,1.0,7.26,2.28,-6.76,-21.87,13.56,39.38,1.56,4.31,1.75,0.07439154603520193,0.07771040573638732,-0.3713668495988873,-24.38536915234885,-124.52765968867384,-24.57298013035922,0.3558,-0.2112,-0.8851,-0.2128
39,733044.0,672.874998,1.0,7.26,2.28,-6.76,-21.87,13.56,39.38,1.56,4.31,1.75,0.07439154603520193,0.07771040573638732,-0.3713668495988873,-24.38536915234885,-124.52765968867384,-24.57298013035922,0.3558,-0.2112,-0.8851,-0.2128
40,733077.0,673.0046070000001,1.0,7.06,2.37,-6.51,-21.87,13.56,39.38,-2.25,0.0,-1.94,0.1050475827463998,-0.0814302861597187,-0.08389771556434589,-24.38536915234885,-124.57692406667047,-24.608164621444825,0.3552,-0.2112,-0.8853,-0.2131
41,733077.0,673.0046070000001,1.0,7.06,2.37,-6.51,-21.87,13.56,39.38,-2.25,0.0,-1.94,0.1050475827463998,-0.0814302861597187,-0.08389771556434589,-24.38536915234885,-124.57692406667047,-24.608164621444825,0.3552,-0.2112,-0.8853,-0.2131
42,733114.0,673.009742,1.0,7.04,2.14,-6.62,-21.06,14.25,38.56,0.19,0.25,-0.75,0.056082127663810544,0.16600901913697494,-0.08955613167096033,-24.350199497398,-124.60157138168795,-24.57298013035922,0.3552,-0.2109,-0.8854,-0.2128
43,733114.0,673.009742,1.0,7.04,2.14,-6.62,-21.06,14.25,38.56,0.19,0.25,-0.75,0.056082127663810544,0.16600901913697494,-0.08955613167096033,-24.350199497398,-124.60157138168795,-24.57298013035922,0.3552,-0.2109,-0.8854,-0.2128
44,733149.0,673.069252,1.0,7.07,2.15,-6.51,-22.19,13.56,38.56,-0.12,1.25,0.12,-0.01267907127803608,0.09938830127662657,-0.041063501454074114,-24.361922456785425,-124.57692406667047,-24.608164621444825,0.3555,-0.21100000000000002,-0.8853,-0.2131
45,733149.0,673.069252,1.0,7.07,2.15,-6.51,-22.19,13.56,38.56,-0.12,1.25,0.12,-0.01267907127803608,0.09938830127662657,-0.041063501454074114,-24.361922456785425,-124.57692406667047,-24.608164621444825,0.3555,-0.21100000000000002,-0.8853,-0.2131
46,733186.0,673.0841839999999,1.0,7.13,2.5,-6.45,-22.19,13.56,38.56,-2.75,0.94,1.12,0.10471965214650976,-0.22443748065683256,-0.12451617581896635,-24.40881688456287,-124.5030425986932,-24.666810678302642,0.3557,-0.2114,-0.885,-0.2136
47,733186.0,673.0841839999999,1.0,7.13,2.5,-6.45,-22.19,13.56,38.56,-2.75,0.94,1.12,0.10471965214650976,-0.22443748065683256,-0.12451617581896635,-24.40881688456287,-124.5030425986932,-24.666810678302642,0.3557,-0.2114,-0.885,-0.2136
48,733218.0,673.086588,1.0,7.1,2.1,-6.65,-21.06,13.56,38.56,4.69,11.56,-2.63,0.06622477548990319,0.2332044380324777,-0.14240673766077627,-24.24470448957822,-124.35555059912924,-24.631622257728548,0.3582,-0.21,-0.8844,-0.2133
49,733218.0,673.086588,1.0,7.1,2.1,-6.65,-21.06,13.56,38.56,4.69,11.56,-2.63,0.06622477548990319,0.2332044380324777,-0.14240673766077627,-24.24470448957822,-124.35555059912924,-24.631622257728548,0.3582,-0.21,-0.8844,-0.2133
50,733255.0,673.0889099999999,1.0,7.04,2.2,-6.38,-21.87,13.88,37.75,-2.0,1.25,-0.5,0.03680824068698574,0.029169174374410026,0.054532572862244784,-24.186105170420962,-124.25742213626366,-24.608164621444825,0.3596,-0.2095,-0.884,-0.2131
51,733255.0,673.0889099999999,1.0,7.04,2.2,-6.38,-21.87,13.88,37.75,-2.0,1.25,-0.5,0.03680824068698574,0.029169174374410026,0.054532572862244784,-24.186105170420962,-124.25742213626366,-24.608164621444825,0.3596,-0.2095,-0.884,-0.2131
52,733290.0,673.125502,1.0,7.08,2.21,-6.51,-21.87,13.88,37.75,0.19,1.12,0.44,0.08637142603055431,0.08756458761792163,-0.061251115220033014,-24.197824520118107,-124.23291484122736,-24.655080942437507,0.3596,-0.2096,-0.8839,-0.2135
53,733290.0,673.125502,1.0,7.08,2.21,-6.51,-21.87,13.88,37.75,0.19,1.12,0.44,0.08637142603055431,0.08756458761792163,-0.061251115220033014,-24.197824520118107,-124.23291484122736,-24.655080942437507,0.3596,-0.2096,-0.8839,-0.2135
54,733325.0,673.141574,1.0,7.02,2.22,-6.41,-21.87,13.19,38.19,-1.12,-0.63,-0.5,0.0763706295164377,0.04663663728680922,0.04504702963648377,-24.20954412674289,-124.18392994389635,-24.70200146162693,0.3596,-0.2097,-0.8837,-0.2139
55,733325.0,673.141574,1.0,7.02,2.22,-6.41,-21.87,13.19,38.19,-1.12,-0.63,-0.5,0.0763706295164377,0.04663663728680922,0.04504702963648377,-24.20954412674289,-124.18392994389635,-24.70200146162693,0.3596,-0.2097,-0.8837,-0.2139
56,733360.0,673.179703,1.0,7.23,2.18,-6.94,-22.56,15.0,38.19,-1.37,4.63,-1.25,0.22046451975759726,0.3308770976054909,-0.4418043098853861,-24.162667241251796,-124.1105266335135,-24.76065802803315,0.3604,-0.2093,-0.8834,-0.2144
57,733360.0,673.179703,1.0,7.23,2.18,-6.94,-22.56,15.0,38.19,-1.37,4.63,-1.25,0.22046451975759726,0.3308770976054909,-0.4418043098853861,-24.162667241251796,-124.1105266335135,-24.76065802803315,0.3604,-0.2093,-0.8834,-0.2144
58,733394.0,673.183502,1.0,7.05,2.36,-6.08,-21.5,13.19,38.56,0.94,-9.69,0.25,-0.055240082113637456,-0.25119388798296605,0.20600678384160886,-24.186105170420962,-124.23291484122736,-24.690270937756786,0.3594,-0.2095,-0.8839,-0.2138
59,733394.0,673.183502,1.0,7.05,2.36,-6.08,-21.5,13.19,38.56,0.94,-9.69,0.25,-0.055240082113637456,-0.25119388798296605,0.20600678384160886,-24.186105170420962,-124.23291484122736,-24.690270937756786,0.3594,-0.2095,-0.8839,-0.2138
60,733429.0,673.2371730000001,1.0,7.21,2.34,-6.65,-21.5,13.19,38.56,1.88,-1.69,0.06,0.12015895053492165,0.010271797373541558,-0.2763880499522582,-24.186105170420962,-124.38010760157816,-24.596436196111345,0.3583,-0.2095,-0.8845,-0.213
61,733429.0,673.2371730000001,1.0,7.21,2.34,-6.65,-21.5,13.19,38.56,1.88,-1.69,0.06,0.12015895053492165,0.010271797373541558,-0.2763880499522582,-24.186105170420962,-124.38010760157816,-24.596436196111345,0.3583,-0.2095,-0.8845,-0.213
62,733464.0,673.261283,1.0,6.92,2.17,-6.47,-21.87,14.25,38.56,4.94,-6.69,-1.31,0.1070721068117485,0.09341141685394727,0.08883080682994837,-24.174386077512,-124.55228684017095,-24.467440757791284,0.3574,-0.2094,-0.8852,-0.2119
63,733464.0,673.261283,1.0,6.92,2.17,-6.47,-21.87,14.25,38.56,4.94,-6.69,-1.31,0.1070721068117485,0.09341141685394727,0.08883080682994837,-24.174386077512,-124.55228684017095,-24.467440757791284,0.3574,-0.2094,-0.8852,-0.2119
64,733499.0,673.301817,1.0,7.13,2.22,-6.46,-21.06,13.88,39.0,4.81,5.5,-1.31,0.008755854865717339,-0.003803935778495582,-0.06739723834548705,-24.01034566150753,-124.57692406667047,-24.33847679675364,0.3586,-0.20800000000000002,-0.8853,-0.2108
65,733499.0,673.301817,1.0,7.13,2.22,-6.46,-21.06,13.88,39.0,4.81,5.5,-1.31,0.008755854865717339,-0.003803935778495582,-0.06739723834548705,-24.01034566150753,-124.57692406667047,-24.33847679675364,0.3586,-0.20800000000000002,-0.8853,-0.2108
66,733534.0,673.3167080000001,1.0,7.1,2.08,-6.59,-21.06,13.88,39.0,9.94,6.88,-1.75,0.06881075186475849,0.1861822850365591,-0.099161488069333,-23.776088713509264,-124.52765968867384,-24.174386077512,0.361,-0.20600000000000002,-0.8851,-0.2094
67,733534.0,673.3167080000001,1.0,7.1,2.08,-6.59,-21.06,13.88,39.0,9.94,6.88,-1.75,0.06881075186475849,0.1861822850365591,-0.099161488069333,-23.776088713509264,-124.52765968867384,-24.174386077512,0.361,-0.20600000000000002,-0.8851,-0.2094
68,733566.0,673.3658019999999,1.0,6.95,2.19,-6.28,-21.87,13.88,38.19,2.75,5.0,-2.13,0.08311462199727143,-0.02896744478981628,0.18743730629410396,-23.600462193143148,-124.47843555677237,-24.080642561887807,0.3629,-0.2045,-0.8849,-0.2086
69,733566.0,673.3658019999999,1.0,6.95,2.19,-6.28,-21.87,13.88,38.19,2.75,5.0,-2.13,0.08311462199727143,-0.02896744478981628,0.18743730629410396,-23.600462193143148,-124.47843555677237,-24.080642561887807,0.3629,-0.2045,-0.8849,-0.2086
70,733603.0,673.403887,1.0,7.16,2.23,-6.48,-22.19,13.88,38.19,0.81,2.0,-1.31,0.09686170889507778,0.006001747165318204,-0.10392424110131238,-23.518522416981746,-124.40467458524144,-24.06892577380089,0.364,-0.2038,-0.8846,-0.2085
71,733603.0,673.403887,1.0,7.16,2.23,-6.48,-22.19,13.88,38.19,0.81,2.0,-1.31,0.09686170889507778,0.006001747165318204,-0.10392424110131238,-23.518522416981746,-124.40467458524144,-24.06892577380089,0.364,-0.2038,-0.8846,-0.2085
72,733638.0,673.457684,1.0,7.02,2.31,-6.15,-22.19,13.88,38.19,-1.31,-1.5,0.19,0.034023010570352334,-0.2012056165713001,0.19429551555593605,-23.518522416981746,-124.45383854948406,-24.0923596055089,0.3635,-0.2038,-0.8848,-0.2087
73,733638.0,673.457684,1.0,7.02,2.31,-6.15,-22.19,13.88,38.19,-1.31,-1.5,0.19,0.034023010570352334,-0.2012056165713001,0.19429551555593605,-23.518522416981746,-124.45383854948406,-24.0923596055089,0.3635,-0.2038,-0.8848,-0.2087
74,733671.0,673.473356,1.0,7.31,2.35,-6.69,-22.19,14.25,37.75,3.19,-3.13,-1.44,0.16183885205328966,-0.01720743528246782,-0.3760908928115772,-23.49511329436541,-124.47843555677237,-24.080642561887807,0.3633,-0.2036,-0.8849,-0.2086
75,733671.0,673.473356,1.0,7.31,2.35,-6.69,-22.19,14.25,37.75,3.19,-3.13,-1.44,0.16183885205328966,-0.01720743528246782,-0.3760908928115772,-23.49511329436541,-124.47843555677237,-24.080642561887807,0.3633,-0.2036,-0.8849,-0.2086
76,733706.0,673.483341,1.0,6.87,2.0,-6.3,-22.19,13.88,37.75,3.75,3.81,-1.94,0.050282566338906265,0.15315660416639754,0.2745508231070879,-23.41318918903326,-124.57692406667047,-23.98691540045918,0.3633,-0.2029,-0.8853,-0.2078
77,733706.0,673.483341,1.0,6.87,2.0,-6.3,-22.19,13.88,37.75,3.75,3.81,-1.94,0.050282566338906265,0.15315660416639754,0.2745508231070879,-23.41318918903326,-124.57692406667047,-23.98691540045918,0.3633,-0.2029,-0.8853,-0.2078
78,733743.0,673.517662,1.0,7.0,2.0,-6.55,-22.19,15.38,37.75,-4.81,3.31,-1.19,0.12221668954026588,0.2793625602459916,0.01841626552417175,-23.34297818708293,-124.45383854948406,-24.080642561887807,0.3644,-0.2023,-0.8848,-0.2086
79,733743.0,673.517662,1.0,7.0,2.0,-6.55,-22.19,15.38,37.75,-4.81,3.31,-1.19,0.12221668954026588,0.2793625602459916,0.01841626552417175,-23.34297818708293,-124.45383854948406,-24.080642561887807,0.3644,-0.2023,-0.8848,-0.2086
80,733777.0,673.583572,1.0,7.08,2.43,-6.46,-22.19,15.38,37.75,-4.06,0.0,-0.37,0.23504460044060385,-0.12270193127810368,-0.07730661017713912,-23.40148673707778,-124.38010760157816,-24.22126399043484,0.3642,-0.2028,-0.8845,-0.2098
81,733777.0,673.583572,1.0,7.08,2.43,-6.46,-22.19,15.38,37.75,-4.06,0.0,-0.37,0.23504460044060385,-0.12270193127810368,-0.07730661017713912,-23.40148673707778,-124.38010760157816,-24.22126399043484,0.3642,-0.2028,-0.8845,-0.2098
82,733814.0,673.638448,1.0,7.21,2.33,-6.56,-22.56,14.25,37.75,-3.25,-0.75,0.31,0.1526546697824666,-0.004163940152833057,-0.2144916122813072,-23.41318918903326,-124.33100356461244,-24.291588578811197,0.3641,-0.2029,-0.8843,-0.2104
83,733814.0,673.638448,1.0,7.21,2.33,-6.56,-22.56,14.25,37.75,-3.25,-0.75,0.31,0.1526546697824666,-0.004163940152833057,-0.2144916122813072,-23.41318918903326,-124.33100356461244,-24.291588578811197,0.3641,-0.2029,-0.8843,-0.2104
84,733847.0,673.650842,1.0,7.2,2.17,-6.09,-21.87,14.69,37.75,0.94,-1.25,-3.25,-0.20127200495349445,-0.10594959225832913,0.1327022916483429,-23.366380865675165,-124.40467458524144,-24.350199497398,0.3635,-0.2025,-0.8846,-0.2109
85,733847.0,673.650842,1.0,7.2,2.17,-6.09,-21.87,14.69,37.75,0.94,-1.25,-3.25,-0.20127200495349445,-0.10594959225832913,0.1327022916483429,-23.366380865675165,-124.40467458524144,-24.350199497398,0.3635,-0.2025,-0.8846,-0.2109
86,733882.0,673.688583,1.0,7.17,1.92,-6.6,-21.87,14.69,37.75,3.88,10.81,-3.88,0.011978146235944898,0.4025240301507226,-0.11772055581682572,-23.132398374270107,-124.25742213626366,-24.373645675055762,0.3658,-0.2005,-0.884,-0.2111
87,733882.0,673.688583,1.0,7.17,1.92,-6.6,-21.87,14.69,37.75,3.88,10.81,-3.88,0.011978146235944898,0.4025240301507226,-0.11772055581682572,-23.132398374270107,-124.25742213626366,-24.373645675055762,0.3658,-0.2005,-0.884,-0.2111
88,733917.0,673.746305,1.0,6.98,2.41,-6.32,-22.19,13.56,38.19,-9.06,0.06,-2.25,0.2133453708115292,-0.08528360372694355,0.08975180872061372,-23.155792207151627,-124.20841744814189,-24.57298013035922,0.3652,-0.2007,-0.8838,-0.2128
89,733917.0,673.746305,1.0,6.98,2.41,-6.32,-22.19,13.56,38.19,-9.06,0.06,-2.25,0.2133453708115292,-0.08528360372694355,0.08975180872061372,-23.155792207151627,-124.20841744814189,-24.57298013035922,0.3652,-0.2007,-0.8838,-0.2128
90,733954.0,673.754242,1.0,7.06,2.56,-6.32,-22.56,13.88,38.19,-0.63,1.94,-3.69,0.23195480570927415,-0.19356174631191814,-0.003973365437751397,-23.109005518751957,-124.13498454962264,-24.76065802803315,0.3652,-0.2003,-0.8835,-0.2144
91,733954.0,673.754242,1.0,7.06,2.56,-6.32,-22.56,13.88,38.19,-0.63,1.94,-3.69,0.23195480570927415,-0.19356174631191814,-0.003973365437751397,-23.109005518751957,-124.13498454962264,-24.76065802803315,0.3652,-0.2003,-0.8835,-0.2144
92,733988.0,673.8004980000001,1.0,7.42,2.21,-6.87,-22.56,13.88,38.19,2.13,6.31,-6.88,0.13752229844371294,0.3484196973845756,-0.5372898360540166,-22.88682192770989,-124.06164029835844,-24.854522251558684,0.3663,-0.1984,-0.8832,-0.2152
93,733988.0,673.8004980000001,1.0,7.42,2.21,-6.87,-22.56,13.88,38.19,2.13,6.31,-6.88,0.13752229844371294,0.3484196973845756,-0.5372898360540166,-22.88682192770989,-124.06164029835844,-24.854522251558684,0.3663,-0.1984,-0.8832,-0.2152
94,734021.0,673.806499,1.0,7.31,1.98,-6.65,-22.19,13.19,38.19,-1.44,-8.0,-9.63,-0.10127318581333344,0.4644058597378055,-0.26077623212489165,-22.65303861752037,-124.38010760157816,-24.995350383000986,0.3636,-0.1964,-0.8845,-0.2164
95,734021.0,673.806499,1.0,7.31,1.98,-6.65,-22.19,13.19,38.19,-1.44,-8.0,-9.63,-0.10127318581333344,0.4644058597378055,-0.26077623212489165,-22.65303861752037,-124.38010760157816,-24.995350383000986,0.3636,-0.1964,-0.8845,-0.2164
96,734056.0,673.892028,1.0,7.0,2.36,-6.95,-23.0,13.19,39.0,0.19,0.63,-22.31,0.402747129391177,0.41449148948696,-0.3194593987231897,-22.244146955349766,-124.62622879876837,-25.230149327633608,0.3619,-0.1929,-0.8855,-0.2184
97,734056.0,673.892028,1.0,7.0,2.36,-6.95,-23.0,13.19,39.0,0.19,0.63,-22.31,0.402747129391177,0.41449148948696,-0.3194593987231897,-22.244146955349766,-124.62622879876837,-25.230149327633608,0.3619,-0.1929,-0.8855,-0.2184
98,734093.0,673.943628,1.0,7.29,2.28,-7.48,-23.69,13.88,39.0,1.5,-15.94,-46.19,0.2539277134316041,0.8049576578221681,-0.8507635645317251,-20.797769475573414,-125.74649376545209,-25.58255007875368,0.3555,-0.1805,-0.89,-0.2214
99,734093.0,673.943628,1.0,7.29,2.28,-7.48,-23.69,13.88,39.0,1.5,-15.94,-46.19,0.2539277134316041,0.8049576578221681,-0.8507635645317251,-20.797769475573414,-125.74649376545209,-25.58255007875368,0.3555,-0.1805,-0.89,-0.2214
100,734128.0,673.951666,1.0,7.08,1.56,-8.62,-23.69,13.88,39.0,8.56,-52.88,-41.56,0.39406945525882,2.0237883192495496,-1.2664430684836656,-19.703563060929827,-127.351803991908,-25.559049077875773,0.3442,-0.1711,-0.8963,-0.2212
101,734128.0,673.951666,1.0,7.08,1.56,-8.62,-23.69,13.88,39.0,8.56,-52.88,-41.56,0.39406945525882,2.0237883192495496,-1.2664430684836656,-19.703563060929827,-127.351803991908,-25.559049077875773,0.3442,-0.1711,-0.8963,-0.2212
102,734164.0,673.965477,1.0,7.76,2.36,-10.29,-21.5,11.38,39.0,6.69,-120.69,-26.12,0.376875001762556,1.8466685823942912,-3.159424208481312,-19.470990576087328,-130.57034285366944,-25.183180957237052,0.3141,-0.1691,-0.9084,-0.218
103,734164.0,673.965477,1.0,7.76,2.36,-10.29,-21.5,11.38,39.0,6.69,-120.69,-26.12,0.376875001762556,1.8466685823942912,-3.159424208481312,-19.470990576087328,-130.57034285366944,-25.183180957237052,0.3141,-0.1691,-0.9084,-0.218
104,734199.0,673.96858,1.0,5.81,2.11,-9.22,-21.5,12.88,39.0,4.38,-205.0,-37.88,0.22146066465549435,1.5087339757702942,-1.1884069332026057,-19.66867198617123,-134.8267795347168,-24.537797991913113,0.2704,-0.1708,-0.9233,-0.2125
105,734199.0,673.96858,1.0,5.81,2.11,-9.22,-21.5,12.88,39.0,4.38,-205.0,-37.88,0.22146066465549435,1.5087339757702942,-1.1884069332026057,-19.66867198617123,-134.8267795347168,-24.537797991913113,0.2704,-0.1708,-0.9233,-0.2125
106,734234.0,674.019937,1.0,2.77,0.06,-8.81,-21.5,12.88,39.0,-0.31,-252.75,1.63,0.2389694272651075,3.103151007082139,1.1114819487155536,-20.92593832998922,-141.39967008106163,-22.699787605080815,0.1938,-0.1816,-0.9438,-0.1968
107,734234.0,674.019937,1.0,2.77,0.06,-8.81,-21.5,12.88,39.0,-0.31,-252.75,1.63,0.2389694272651075,3.103151007082139,1.1114819487155536,-20.92593832998922,-141.39967008106163,-22.699787605080815,0.1938,-0.1816,-0.9438,-0.1968
108,734269.0,674.071335,1.0,0.94,1.04,-7.94,-15.19,12.5,42.19,-39.88,-190.19,34.5,0.9449400735645196,2.1231691438987794,2.0860256053174044,-23.776088713509264,-143.94200484154302,-22.139049946746336,0.1287,-0.20600000000000002,-0.9509,-0.192
109,734269.0,674.071335,1.0,0.94,1.04,-7.94,-15.19,12.5,42.19,-39.88,-190.19,34.5,0.9449400735645196,2.1231691438987794,2.0860256053174044,-23.776088713509264,-143.94200484154302,-22.139049946746336,0.1287,-0.20600000000000002,-0.9509,-0.192
110,734306.0,674.114223,1.0,0.22,0.77,-7.79,-7.0,12.06,44.88,-11.0,-147.81,67.12,0.9204853728475711,2.3832800527007976,2.4040772804131016,-26.38224270571989,-143.86802831777294,-21.532188889890495,0.0956,-0.2282,-0.9507,-0.1868
111,734306.0,674.114223,1.0,0.22,0.77,-7.79,-7.0,12.06,44.88,-11.0,-147.81,67.12,0.9204853728475711,2.3832800527007976,2.4040772804131016,-26.38224270571989,-143.86802831777294,-21.532188889890495,0.0956,-0.2282,-0.9507,-0.1868
112,734341.0,674.227899,1.0,-0.82,2.35,-6.01,-7.0,12.06,44.88,-48.69,-143.06,87.12,1.9175445567362583,0.8057514335857321,3.643145517953632,-30.710138215163173,-141.78287468010964,-21.368908312577144,0.0516,-0.2648,-0.9449,-0.1854
113,734341.0,674.227899,1.0,-0.82,2.35,-6.01,-7.0,12.06,44.88,-48.69,-143.06,87.12,1.9175445567362583,0.8057514335857321,3.643145517953632,-30.710138215163173,-141.78287468010964,-21.368908312577144,0.0516,-0.2648,-0.9449,-0.1854
114,734375.0,674.2327889999999,1.0,-1.6,6.32,-5.8,0.75,11.38,44.19,-38.56,-71.94,65.31,4.498158443100979,-1.784815292852345,2.545561583573729,-33.476513522752754,-139.40365501423122,-22.045646214809636,0.0294,-0.28800000000000003,-0.9379,-0.1912
115,734375.0,674.2327889999999,1.0,-1.6,6.32,-5.8,0.75,11.38,44.19,-38.56,-71.94,65.31,4.498158443100979,-1.784815292852345,2.545561583573729,-33.476513522752754,-139.40365501423122,-22.045646214809636,0.0294,-0.28800000000000003,-0.9379,-0.1912
116,734410.0,674.242748,1.0,-1.09,3.07,-7.02,5.38,9.88,45.38,51.06,-18.12,45.56,2.264849383955112,0.7395011615857323,2.443430914571977,-35.44414023991489,-138.6505925631453,-20.366848065448238,0.0271,-0.3044,-0.9356,-0.1768
117,734410.0,674.242748,1.0,-1.09,3.07,-7.02,5.38,9.88,45.38,51.06,-18.12,45.56,2.264849383955112,0.7395011615857323,2.443430914571977,-35.44414023991489,-138.6505925631453,-20.366848065448238,0.0271,-0.3044,-0.9356,-0.1768
118,734447.0,674.300535,1.0,0.32,4.06,-7.7,8.69,8.69,44.56,27.31,-33.75,63.56,1.7622548535788662,-0.682076809757977,1.3034018525784459,-37.24119428419274,-137.68760819354466,-19.110662839696182,0.0264,-0.3193,-0.9326,-0.166
119,734447.0,674.300535,1.0,0.32,4.06,-7.7,8.69,8.69,44.56,27.31,-33.75,63.56,1.7622548535788662,-0.682076809757977,1.3034018525784459,-37.24119428419274,-137.68760819354466,-19.110662839696182,0.0264,-0.3193,-0.9326,-0.166
120,734480.0,674.303311,1.0,-0.72,5.51,-5.9,8.69,8.69,44.56,48.25,-31.5,51.38,3.73656738479547,-1.8223474947835805,2.8492356967448917,-39.522316021456795,-136.4970459556038,-17.161136490218524,0.0251,-0.3381,-0.9288,-0.1492
121,734480.0,674.303311,1.0,-0.72,5.51,-5.9,8.69,8.69,44.56,48.25,-31.5,51.38,3.73656738479547,-1.8223474947835805,2.8492356967448917,-39.522316021456795,-136.4970459556038,-17.161136490218524,0.0251,-0.3381,-0.9288,-0.1492
122,734517.0,674.3146370000001,1.0,1.05,2.99,-8.22,9.5,11.38,43.38,112.94,86.56,39.31,1.2180884913577814,-0.5555869544023044,1.0992632758835337,-40.265936898659355,-136.37352437272858,-14.950741939900693,0.0523,-0.3442,-0.9284,-0.1301
123,734517.0,674.3146370000001,1.0,1.05,2.99,-8.22,9.5,11.38,43.38,112.94,86.56,39.31,1.2180884913577814,-0.5555869544023044,1.0992632758835337,-40.265936898659355,-136.37352437272858,-14.950741939900693,0.0523,-0.3442,-0.9284,-0.1301
124,734554.0,674.3443269999999,1.0,2.94,3.21,-8.93,9.88,11.69,42.56,94.75,78.62,42.13,0.8156713420681259,-1.8516095362953515,0.08045740542174329,-40.99909698527016,-135.63926552609757,-12.319391311580373,0.0914,-0.3502,-0.9259999999999999,-0.1073
125,734554.0,674.3443269999999,1.0,2.94,3.21,-8.93,9.88,11.69,42.56,94.75,78.62,42.13,0.8156713420681259,-1.8516095362953515,0.08045740542174329,-40.99909698527016,-135.63926552609757,-12.319391311580373,0.0914,-0.3502,-0.9259999999999999,-0.1073
126,734586.0,674.396087,1.0,3.31,2.51,-8.49,9.88,11.69,42.56,120.94,79.87,8.0,0.6231123397196292,-1.833110186411122,0.5552858813110735,-40.889011943209034,-135.397065246721,-10.120125690641805,0.1196,-0.3493,-0.9252,-0.0882
127,734586.0,674.396087,1.0,3.31,2.51,-8.49,9.88,11.69,42.56,120.94,79.87,8.0,0.6231123397196292,-1.833110186411122,0.5552858813110735,-40.889011943209034,-135.397065246721,-10.120125690641805,0.1196,-0.3493,-0.9252,-0.0882
128,734621.0,674.451951,1.0,3.76,0.64,-7.71,6.56,16.19,41.38,131.75,107.75,3.06,-0.20678038402431032,-1.0475355316533554,1.2713579029065158,-39.68064610609173,-134.97619058332577,-6.845186330854816,0.1668,-0.3394,-0.9238,-0.0597
129,734621.0,674.451951,1.0,3.76,0.64,-7.71,6.56,16.19,41.38,131.75,107.75,3.06,-0.20678038402431032,-1.0475355316533554,1.2713579029065158,-39.68064610609173,-134.97619058332577,-6.845186330854816,0.1668,-0.3394,-0.9238,-0.0597
130,734656.0,674.556194,1.0,6.82,-0.61,-8.39,3.56,18.75,41.38,133.44,140.06,1.75,-2.1142337473079045,-1.772877068898678,-0.6653852635157609,-38.69539839808244,-133.61881240543406,-4.6766337060034,0.2089,-0.3313,-0.9192,-0.0408
131,734656.0,674.556194,1.0,6.82,-0.61,-8.39,3.56,18.75,41.38,133.44,140.06,1.75,-2.1142337473079045,-1.772877068898678,-0.6653852635157609,-38.69539839808244,-133.61881240543406,-4.6766337060034,0.2089,-0.3313,-0.9192,-0.0408
132,734693.0,674.629307,1.0,6.92,-2.72,-7.34,-1.5,24.0,38.06,143.38,99.69,17.25,-2.7085974736899083,-0.53604669977383,-0.26988480424606465,-37.362137156703376,-131.23228149999522,-0.7792286067117273,0.2604,-0.3203,-0.9108,-0.0068
133,734693.0,674.629307,1.0,6.92,-2.72,-7.34,-1.5,24.0,38.06,143.38,99.69,17.25,-2.7085974736899083,-0.53604669977383,-0.26988480424606465,-37.362137156703376,-131.23228149999522,-0.7792286067117273,0.2604,-0.3203,-0.9108,-0.0068
134,734728.0,674.698596,1.0,7.93,-4.23,-6.56,-1.5,24.0,38.06,130.81,97.62,23.25,-3.8095784037238234,-0.1896487850307977,-0.6462226063325467,-36.90278239165085,-128.81789729217328,1.8220825674649568,0.2936,-0.3165,-0.9019,0.0159
135,734728.0,674.698596,1.0,7.93,-4.23,-6.56,-1.5,24.0,38.06,130.81,97.62,23.25,-3.8095784037238234,-0.1896487850307977,-0.6462226063325467,-36.90278239165085,-128.81789729217328,1.8220825674649568,0.2936,-0.3165,-0.9019,0.0159
136,734765.0,674.756901,1.0,7.62,-5.38,-5.77,-5.69,27.25,34.69,95.56,112.69,41.63,-3.6070828412029705,0.5881711432654613,-0.5347574517412248,-36.78200193719797,-124.70026179828331,4.997776256010228,0.3375,-0.3155,-0.8858,0.0436
137,734765.0,674.756901,1.0,7.62,-5.38,-5.77,-5.69,27.25,34.69,95.56,112.69,41.63,-3.6070828412029705,0.5881711432654613,-0.5347574517412248,-36.78200193719797,-124.70026179828331,4.997776256010228,0.3375,-0.3155,-0.8858,0.0436
138,734799.0,674.760223,1.0,10.61,-5.28,-6.91,-7.88,32.06,31.06,96.81,113.56,58.63,-3.4498914943456835,-1.3473025395685347,-3.402499274049162,-37.42262477199783,-120.63897960324066,7.109236280779951,0.3719,-0.3208,-0.8688,0.062
139,734799.0,674.760223,1.0,10.61,-5.28,-6.91,-7.88,32.06,31.06,96.81,113.56,58.63,-3.4498914943456835,-1.3473025395685347,-3.402499274049162,-37.42262477199783,-120.63897960324066,7.109236280779951,0.3719,-0.3208,-0.8688,0.062
140,734834.0,674.800596,1.0,11.88,-5.63,-9.93,-7.88,32.06,31.06,96.44,52.44,80.25,-0.6242431011837719,-1.8266311218729576,-6.5551940065669125,-38.3555137295299,-115.70907375985723,9.62554711472919,0.41,-0.3285,-0.8467,0.0839
141,734834.0,674.800596,1.0,11.88,-5.63,-9.93,-7.88,32.06,31.06,96.44,52.44,80.25,-0.6242431011837719,-1.8266311218729576,-6.5551940065669125,-38.3555137295299,-115.70907375985723,9.62554711472919,0.41,-0.3285,-0.8467,0.0839
142,734869.0,674.812313,1.0,7.7,-5.2,-6.37,-10.5,35.75,27.5,48.81,10.44,27.5,-0.92556011190684,-0.3756691089362891,-1.4142729210363123,-39.21805551339583,-114.15363047105913,11.651107384541652,0.4153,-0.3356,-0.8394,0.1015
143,734869.0,674.812313,1.0,7.7,-5.2,-6.37,-10.5,35.75,27.5,48.81,10.44,27.5,-0.92556011190684,-0.3756691089362891,-1.4142729210363123,-39.21805551339583,-114.15363047105913,11.651107384541652,0.4153,-0.3356,-0.8394,0.1015
144,734906.0,674.81943,1.0,5.94,-2.34,-5.55,-9.25,38.25,24.5,30.06,-8.31,15.81,0.7409270465960784,-1.5558750274390485,1.5246224698227469,-39.54666937259589,-113.06525678920107,12.377021364647927,0.4221,-0.3383,-0.8342,0.1078
145,734906.0,674.81943,1.0,5.94,-2.34,-5.55,-9.25,38.25,24.5,30.06,-8.31,15.81,0.7409270465960784,-1.5558750274390485,1.5246224698227469,-39.54666937259589,-113.06525678920107,12.377021364647927,0.4221,-0.3383,-0.8342,0.1078
146,734941.0,674.821979,1.0,6.29,-2.38,-5.82,-9.25,38.25,24.5,65.87,12.31,-8.88,0.9040870589229778,-1.806695756210148,1.1452773008038584,-38.88977704125324,-112.73350926918677,13.426452603767608,0.4268,-0.3329,-0.8326,0.1169
147,734941.0,674.821979,1.0,6.29,-2.38,-5.82,-9.25,38.25,24.5,65.87,12.31,-8.88,0.9040870589229778,-1.806695756210148,1.1452773008038584,-38.88977704125324,-112.73350926918677,13.426452603767608,0.4268,-0.3329,-0.8326,0.1169
148,734976.0,674.856014,1.0,5.63,-3.98,-4.19,-9.38,39.06,23.0,89.0,-25.0,-47.31,-0.6325406754649844,-0.3654254684420093,1.7717413806754294,-36.63712122701613,-112.94068164320149,15.551935573755918,0.4337,-0.3143,-0.8336,0.1353
149,734976.0,674.856014,1.0,5.63,-3.98,-4.19,-9.38,39.06,23.0,89.0,-25.0,-47.31,-0.6325406754649844,-0.3654254684420093,1.7717413806754294,-36.63712122701613,-112.94068164320149,15.551935573755918,0.4337,-0.3143,-0.8336,0.1353
150,735010.0,674.8626419999999,1.0,6.68,-9.46,-3.93,-11.69,40.75,22.0,143.63,27.12,-50.19,-2.6577102014403655,3.332216487050541,-1.6559766522376282,-32.938414434386345,-112.2796992436405,18.251289114029838,0.4526,-0.2835,-0.8304,0.1586
151,735010.0,674.8626419999999,1.0,6.68,-9.46,-3.93,-11.69,40.75,22.0,143.63,27.12,-50.19,-2.6577102014403655,3.332216487050541,-1.6559766522376282,-32.938414434386345,-112.2796992436405,18.251289114029838,0.4526,-0.2835,-0.8304,0.1586
152,735047.0,674.8786200000001,1.0,8.13,-5.69,-5.56,-12.06,41.75,16.87,-25.62,-2.38,-73.37,-0.6194348628737621,-0.1921647668869424,-1.5496686443945755,-31.48327814398648,-112.85774497558256,17.184314583414665,0.4581,-0.2713,-0.8332,0.1494
153,735047.0,674.8786200000001,1.0,8.13,-5.69,-5.56,-12.06,41.75,16.87,-25.62,-2.38,-73.37,-0.6194348628737621,-0.1921647668869424,-1.5496686443945755,-31.48327814398648,-112.85774497558256,17.184314583414665,0.4581,-0.2713,-0.8332,0.1494
154,735082.0,674.881271,1.0,6.76,-5.53,-4.23,-12.06,41.75,16.87,-21.37,-11.13,-70.31,-1.2401193757769406,0.9568227987275032,0.2296988115654521,-29.49976914452507,-114.7888564887898,15.112560354905925,0.4564,-0.2546,-0.8424,0.1315
155,735082.0,674.881271,1.0,6.76,-5.53,-4.23,-12.06,41.75,16.87,-21.37,-11.13,-70.31,-1.2401193757769406,0.9568227987275032,0.2296988115654521,-29.49976914452507,-114.7888564887898,15.112560354905925,0.4564,-0.2546,-0.8424,0.1315
156,735117.0,674.9182089999999,1.0,6.17,-3.25,-2.78,-15.5,41.19,17.75,-75.5,78.0,-84.0,-1.4878119627691508,-0.24978384398457545,2.452479510085769,-28.60011675110229,-115.23680905302649,12.054333120262198,0.4633,-0.247,-0.8445,0.105
157,735117.0,674.9182089999999,1.0,6.17,-3.25,-2.78,-15.5,41.19,17.75,-75.5,78.0,-84.0,-1.4878119627691508,-0.24978384398457545,2.452479510085769,-28.60011675110229,-115.23680905302649,12.054333120262198,0.4633,-0.247,-0.8445,0.105
158,735154.0,674.970202,1.0,9.39,-3.37,-5.72,-18.0,39.56,19.06,-50.56,140.38,-86.19,0.26390002299829496,-0.5470176641032525,-1.6771877057941982,-26.912168656137837,-112.0743054876913,7.499640647274437,0.5036,-0.2327,-0.8294,0.0654
159,735154.0,674.970202,1.0,9.39,-3.37,-5.72,-18.0,39.56,19.06,-50.56,140.38,-86.19,0.26390002299829496,-0.5470176641032525,-1.6771877057941982,-26.912168656137837,-112.0743054876913,7.499640647274437,0.5036,-0.2327,-0.8294,0.0654
160,735188.0,674.977129,1.0,7.39,-4.09,-3.24,-18.0,39.56,19.06,-85.31,133.88,-103.5,-1.156067228624559,1.3217226667534951,0.9322847970634882,-25.89992116016652,-110.53077739592041,3.40386984812725,0.523,-0.2241,-0.8218,0.0297
161,735188.0,674.977129,1.0,7.39,-4.09,-3.24,-18.0,39.56,19.06,-85.31,133.88,-103.5,-1.156067228624559,1.3217226667534951,0.9322847970634882,-25.89992116016652,-110.53077739592041,3.40386984812725,0.523,-0.2241,-0.8218,0.0297
162,735223.0,674.992687,1.0,10.04,-1.28,-5.28,-22.87,37.88,18.25,-119.0,131.88,-51.5,1.287994535939215,-0.6350977301636803,-1.5183718961612431,-25.86464777060069,-106.4131295533326,-2.9338644268256844,0.555,-0.2238,-0.8008,-0.0256
163,735223.0,674.992687,1.0,10.04,-1.28,-5.28,-22.87,37.88,18.25,-119.0,131.88,-51.5,1.287994535939215,-0.6350977301636803,-1.5183718961612431,-25.86464777060069,-106.4131295533326,-2.9338644268256844,0.555,-0.2238,-0.8008,-0.0256
164,735258.0,675.107051,1.0,7.84,-0.53,-2.81,-26.19,34.5,17.56,-50.75,43.19,-60.13,0.12122834154944825,-0.9089684839986024,1.511972189240714,-25.147957501678356,-105.46176616813965,-5.525454047712893,0.5631,-0.2177,-0.7958,-0.0482
165,735258.0,675.107051,1.0,7.84,-0.53,-2.81,-26.19,34.5,17.56,-50.75,43.19,-60.13,0.12122834154944825,-0.9089684839986024,1.511972189240714,-25.147957501678356,-105.46176616813965,-5.525454047712893,0.5631,-0.2177,-0.7958,-0.0482
166,735295.0,675.167699,1.0,11.3,1.31,-4.58,-29.25,32.56,18.75,23.5,52.0,-47.25,1.7961464702241499,-2.3981417862780057,-2.084744948886721,-23.109005518751957,-103.75636397061544,-7.292945412680463,0.5804,-0.2003,-0.7867,-0.0636
167,735295.0,675.167699,1.0,11.3,1.31,-4.58,-29.25,32.56,18.75,23.5,52.0,-47.25,1.7961464702241499,-2.3981417862780057,-2.084744948886721,-23.109005518751957,-103.75636397061544,-7.292945412680463,0.5804,-0.2003,-0.7867,-0.0636
168,735330.0,675.174125,1.0,11.7,-1.57,-4.06,-29.25,32.56,18.75,23.44,26.81,-36.88,0.26254465831163043,0.3253517210542112,-2.669876622421766,-21.298944377524897,-103.27503144100895,-7.890132207309978,0.5884,-0.1848,-0.7841,-0.0688
169,735330.0,675.174125,1.0,11.7,-1.57,-4.06,-29.25,32.56,18.75,23.44,26.81,-36.88,0.26254465831163043,0.3253517210542112,-2.669876622421766,-21.298944377524897,-103.27503144100895,-7.890132207309978,0.5884,-0.1848,-0.7841,-0.0688
170,735367.0,675.189547,1.0,11.96,-2.0,-3.19,-30.69,30.25,15.88,7.0,-17.81,-23.31,-0.9785761380330792,0.5154406011890569,-2.6831222048369696,-20.087487431641744,-104.59559036293443,-7.913105112625811,0.5821,-0.1744,-0.7912,-0.069
171,735367.0,675.189547,1.0,11.96,-2.0,-3.19,-30.69,30.25,15.88,7.0,-17.81,-23.31,-0.9785761380330792,0.5154406011890569,-2.6831222048369696,-20.087487431641744,-104.59559036293443,-7.913105112625811,0.5821,-0.1744,-0.7912,-0.069
172,735404.0,675.192048,1.0,11.37,-2.91,-1.54,-30.75,29.56,16.69,2.75,-45.06,40.06,-2.8044093426898904,0.6584387427902518,-1.6745671245311105,-20.55315637010219,-105.78405748823394,-6.454917855397503,0.5735,-0.1784,-0.7975,-0.0563
173,735404.0,675.192048,1.0,11.37,-2.91,-1.54,-30.75,29.56,16.69,2.75,-45.06,40.06,-2.8044093426898904,0.6584387427902518,-1.6745671245311105,-20.55315637010219,-105.78405748823394,-6.454917855397503,0.5735,-0.1784,-0.7975,-0.0563
174,735438.0,675.230405,1.0,13.5,-4.58,-1.98,-30.75,29.56,16.69,-18.87,-58.25,14.13,-3.9688210767954315,1.6680373743076924,-3.9269915629030137,-21.147383365420364,-107.23982794355229,-6.282764679968377,0.5613,-0.1835,-0.8051,-0.0548
175,735438.0,675.230405,1.0,13.5,-4.58,-1.98,-30.75,29.56,16.69,-18.87,-58.25,14.13,-3.9688210767954315,1.6680373743076924,-3.9269915629030137,-21.147383365420364,-107.23982794355229,-6.282764679968377,0.5613,-0.1835,-0.8051,-0.0548
176,735471.0,675.2857769999999,1.0,12.98,-4.49,-1.83,-31.19,29.87,17.5,-52.75,-102.56,18.56,-4.759157031701283,1.288569535055934,-3.142458575532679,-22.39598723123728,-110.51066825702887,-6.317194167065648,0.5329999999999999,-0.1942,-0.8217,-0.0551
177,735471.0,675.2857769999999,1.0,12.98,-4.49,-1.83,-31.19,29.87,17.5,-52.75,-102.56,18.56,-4.759157031701283,1.288569535055934,-3.142458575532679,-22.39598723123728,-110.51066825702887,-6.317194167065648,0.5329999999999999,-0.1942,-0.8217,-0.0551
178,735508.0,675.341257,1.0,10.1,-4.66,-0.97,-29.69,28.69,22.25,-81.12,-123.25,26.25,-5.226914281270234,1.6055003247189388,0.07175216778929361,-24.20954412674289,-113.44021811063548,-7.074792869515193,0.5033,-0.2097,-0.836,-0.0617
179,735508.0,675.341257,1.0,10.1,-4.66,-0.97,-29.69,28.69,22.25,-81.12,-123.25,26.25,-5.226914281270234,1.6055003247189388,0.07175216778929361,-24.20954412674289,-113.44021811063548,-7.074792869515193,0.5033,-0.2097,-0.836,-0.0617
180,735545.0,675.360334,1.0,7.79,-3.23,-1.25,-25.19,27.56,27.25,-109.75,-106.5,37.56,-4.150438790747973,0.6485915904538357,2.3882480970934807,-27.59605210118816,-116.42333876589676,-8.648411389524659,0.4636,-0.2385,-0.85,-0.0754
181,735545.0,675.360334,1.0,7.79,-3.23,-1.25,-25.19,27.56,27.25,-109.75,-106.5,37.56,-4.150438790747973,0.6485915904538357,2.3882480970934807,-27.59605210118816,-116.42333876589676,-8.648411389524659,0.4636,-0.2385,-0.85,-0.0754
182,735580.0,675.3635009999999,1.0,7.31,-2.75,-2.13,-25.19,27.56,27.25,-103.44,-62.38,48.44,-3.397407857205065,0.4504526280418082,2.472468908583484,-30.318170931025325,-117.254831475668,-10.14313387414705,0.4414,-0.2615,-0.8538,-0.0884
183,735580.0,675.3635009999999,1.0,7.31,-2.75,-2.13,-25.19,27.56,27.25,-103.44,-62.38,48.44,-3.397407857205065,0.4504526280418082,2.472468908583484,-30.318170931025325,-117.254831475668,-10.14313387414705,0.4414,-0.2615,-0.8538,-0.0884
184,735617.0,675.401436,1.0,6.35,-0.47,-2.96,-21.5,24.69,31.25,-128.0,-46.0,64.81,-1.3838185367215596,-0.9672134494634642,2.9908929326887814,-34.591013631336175,-116.77224597329428,-12.630631138714767,0.4175,-0.2973,-0.8516,-0.11
185,735617.0,675.401436,1.0,6.35,-0.47,-2.96,-21.5,24.69,31.25,-128.0,-46.0,64.81,-1.3838185367215596,-0.9672134494634642,2.9908929326887814,-34.591013631336175,-116.77224597329428,-12.630631138714767,0.4175,-0.2973,-0.8516,-0.11
186,735651.0,675.456968,1.0,6.31,-1.07,-2.79,-18.56,23.19,34.56,-112.25,-14.69,61.38,-1.9456902344686617,-0.6745311652279651,3.135488390607713,-37.83422856646789,-115.55847283517146,-14.58098330322708,0.4038,-0.3242,-0.846,-0.1269
187,735651.0,675.456968,1.0,6.31,-1.07,-2.79,-18.56,23.19,34.56,-112.25,-14.69,61.38,-1.9456902344686617,-0.6745311652279651,3.135488390607713,-37.83422856646789,-115.55847283517146,-14.58098330322708,0.4038,-0.3242,-0.846,-0.1269
188,735686.0,675.475701,1.0,8.09,1.0,-4.89,-18.56,23.19,34.56,-126.31,11.56,73.62,-0.06610945425392245,-1.941269345539344,0.5014201335148396,-42.175827701141685,-112.48564315719341,-17.439320584956548,0.3954,-0.3598,-0.8314,-0.1516
189,735686.0,675.475701,1.0,8.09,1.0,-4.89,-18.56,23.19,34.56,-126.31,11.56,73.62,-0.06610945425392245,-1.941269345539344,0.5014201335148396,-42.175827701141685,-112.48564315719341,-17.439320584956548,0.3954,-0.3598,-0.8314,-0.1516
190,735721.0,675.4797169999999,1.0,6.07,1.21,-4.5,-16.0,20.25,38.88,-140.81,-8.44,59.25,0.686384542327872,-1.1460639367087446,2.271770192529344,-46.60679955433233,-109.3528985741182,-20.890980569305803,0.3806,-0.3956,-0.8159,-0.1813
191,735721.0,675.4797169999999,1.0,6.07,1.21,-4.5,-16.0,20.25,38.88,-140.81,-8.44,59.25,0.686384542327872,-1.1460639367087446,2.271770192529344,-46.60679955433233,-109.3528985741182,-20.890980569305803,0.3806,-0.3956,-0.8159,-0.1813
192,735758.0,675.583573,1.0,5.38,3.14,-5.22,-14.88,17.5,42.56,-150.44,19.12,73.06,2.8367730366101624,-1.2024558222604356,2.28606367084497,-49.947121594647854,-106.33663306993485,-23.776088713509264,0.3723,-0.4222,-0.8004,-0.20600000000000002
193,735758.0,675.583573,1.0,5.38,3.14,-5.22,-14.88,17.5,42.56,-150.44,19.12,73.06,2.8367730366101624,-1.2024558222604356,2.28606367084497,-49.947121594647854,-106.33663306993485,-23.776088713509264,0.3723,-0.4222,-0.8004,-0.20600000000000002
194,735793.0,675.660924,1.0,4.88,4.15,-6.12,-14.88,17.5,42.56,-118.37,31.06,72.81,4.271119697489936,-0.3054948567421518,2.0506517133693505,-54.16847683303728,-101.93702600813637,-27.20682475697043,0.3661,-0.4553,-0.7768,-0.2352
195,735793.0,675.660924,1.0,4.88,4.15,-6.12,-14.88,17.5,42.56,-118.37,31.06,72.81,4.271119697489936,-0.3054948567421518,2.0506517133693505,-54.16847683303728,-101.93702600813637,-27.20682475697043,0.3661,-0.4553,-0.7768,-0.2352
196,735827.0,675.668647,1.0,4.69,4.0,-6.08,-14.88,15.0,45.38,-95.19,37.25,56.25,4.2367815199902745,0.2510508949712613,2.2601835553649314,-56.56249373757082,-98.84027760077332,-29.274683969227155,0.3672,-0.4738,-0.7595,-0.2527
197,735827.0,675.668647,1.0,4.69,4.0,-6.08,-14.88,15.0,45.38,-95.19,37.25,56.25,4.2367815199902745,0.2510508949712613,2.2601835553649314,-56.56249373757082,-98.84027760077332,-29.274683969227155,0.3672,-0.4738,-0.7595,-0.2527
198,735864.0,675.722486,1.0,4.63,4.69,-5.59,-16.06,13.38,47.56,-75.87,60.81,45.75,4.783255959214644,0.2085212515854442,2.612341046648413,-59.06273808576779,-95.00384413179769,-32.114772865183184,0.3701,-0.4929,-0.7373,-0.2766
199,735864.0,675.722486,1.0,4.63,4.69,-5.59,-16.06,13.38,47.56,-75.87,60.81,45.75,4.783255959214644,0.2085212515854442,2.612341046648413,-59.06273808576779,-95.00384413179769,-32.114772865183184,0.3701,-0.4929,-0.7373,-0.2766
200,735899.0,675.738963,1.0,6.32,5.17,-6.11,-17.56,11.75,47.88,-52.81,77.94,39.88,5.110576142170913,0.06879675902279381,0.9816469687811756,-60.07940725192446,-92.15850909816106,-34.09926566702287,0.3803,-0.5006,-0.7203,-0.2932
201,735899.0,675.738963,1.0,6.32,5.17,-6.11,-17.56,11.75,47.88,-52.81,77.94,39.88,5.110576142170913,0.06879675902279381,0.9816469687811756,-60.07940725192446,-92.15850909816106,-34.09926566702287,0.3803,-0.5006,-0.7203,-0.2932
202,735934.0,675.741992,1.0,8.91,3.35,-6.09,-17.56,11.75,47.88,-11.94,92.25,19.94,3.1133820536190946,0.0097016499738114,-1.0563817161550428,-60.09264488671134,-89.23974978700055,-36.16667598822457,0.3995,-0.5007,-0.7024,-0.3104
203,735934.0,675.741992,1.0,8.91,3.35,-6.09,-17.56,11.75,47.88,-11.94,92.25,19.94,3.1133820536190946,0.0097016499738114,-1.0563817161550428,-60.09264488671134,-89.23974978700055,-36.16667598822457,0.3995,-0.5007,-0.7024,-0.3104
204,735969.0,675.776819,1.0,10.14,4.33,-5.82,-19.37,11.56,48.0,-43.5,78.44,-0.44,3.85878246361168,-0.5343177732192563,-2.0367111114305327,-59.94707947928739,-87.30772231970468,-38.05234138049009,0.4095,-0.4996,-0.6903,-0.326
205,735969.0,675.776819,1.0,10.14,4.33,-5.82,-19.37,11.56,48.0,-43.5,78.44,-0.44,3.85878246361168,-0.5343177732192563,-2.0367111114305327,-59.94707947928739,-87.30772231970468,-38.05234138049009,0.4095,-0.4996,-0.6903,-0.326
206,736006.0,675.84206,1.0,10.56,2.9,-5.64,-23.69,11.75,46.25,-18.44,47.31,-14.13,2.4056210872632624,0.1272780458341385,-2.273498487645464,-58.87843997243265,-85.82802462250922,-40.05852194281655,0.4213,-0.4915,-0.6809,-0.3425
207,736006.0,675.84206,1.0,10.56,2.9,-5.64,-23.69,11.75,46.25,-18.44,47.31,-14.13,2.4056210872632624,0.1272780458341385,-2.273498487645464,-58.87843997243265,-85.82802462250922,-40.05852194281655,0.4213,-0.4915,-0.6809,-0.3425
208,736043.0,675.8923589999999,1.0,7.98,2.26,-3.86,-23.69,11.75,46.25,-15.06,8.63,-10.31,1.7271190178756592,-0.17050858176205175,0.824691042086771,-58.65487400856189,-85.56231961630726,-40.85232569399261,0.4207,-0.4898,-0.6792,-0.349
209,736043.0,675.8923589999999,1.0,7.98,2.26,-3.86,-23.69,11.75,46.25,-15.06,8.63,-10.31,1.7271190178756592,-0.17050858176205175,0.824691042086771,-58.65487400856189,-85.56231961630726,-40.85232569399261,0.4207,-0.4898,-0.6792,-0.349
210,736075.0,675.8986269999999,1.0,8.98,1.83,-3.67,-27.69,11.38,48.19,7.06,32.63,-25.37,1.0474992167180308,-0.3881412277663781,-0.0020345080409835963,-57.77612880999804,-85.31276410779735,-41.80760523510253,0.4246,-0.4831,-0.6776,-0.3568
211,736075.0,675.8986269999999,1.0,8.98,1.83,-3.67,-27.69,11.38,48.19,7.06,32.63,-25.37,1.0474992167180308,-0.3881412277663781,-0.0020345080409835963,-57.77612880999804,-85.31276410779735,-41.80760523510253,0.4246,-0.4831,-0.6776,-0.3568
212,736110.0,675.9945769999999,1.0,19.23,5.72,-8.0,-29.06,10.06,46.5,-13.25,75.0,123.12,5.092299109731679,-0.6756991014397311,-11.172463911253244,-58.56288867530428,-82.69129653429431,-41.41533197987328,0.4465,-0.4891,-0.6606,-0.3536
213,736110.0,675.9945769999999,1.0,19.23,5.72,-8.0,-29.06,10.06,46.5,-13.25,75.0,123.12,5.092299109731679,-0.6756991014397311,-11.172463911253244,-58.56288867530428,-82.69129653429431,-41.41533197987328,0.4465,-0.4891,-0.6606,-0.3536
214,736149.0,676.006558,1.0,7.53,-2.76,-2.61,-30.19,9.75,44.75,-9.5,-23.56,-9.19,-2.6757161309894464,0.7040448391807392,1.8395009458661529,-58.15602096155954,-82.47777750148487,-39.85124375899717,0.4617,-0.486,-0.6592,-0.3408
215,736149.0,676.006558,1.0,7.53,-2.76,-2.61,-30.19,9.75,44.75,-9.5,-23.56,-9.19,-2.6757161309894464,0.7040448391807392,1.8395009458661529,-58.15602096155954,-82.47777750148487,-39.85124375899717,0.4617,-0.486,-0.6592,-0.3408
216,736182.0,676.047282,1.0,8.81,-0.3,-3.56,-30.19,9.75,44.75,-3.0,-5.31,65.75,0.057359928691642637,0.28307516109234365,0.3042146125978267,-59.352689332048705,-81.71803504011511,-38.64682184617822,0.4662,-0.4951,-0.6542,-0.3309
217,736182.0,676.047282,1.0,8.81,-0.3,-3.56,-30.19,9.75,44.75,-3.0,-5.31,65.75,0.057359928691642637,0.28307516109234365,0.3042146125978267,-59.352689332048705,-81.71803504011511,-38.64682184617822,0.4662,-0.4951,-0.6542,-0.3309
218,736219.0,676.107221,1.0,9.33,-1.24,-3.69,-29.75,13.69,43.56,43.81,-4.25,79.5,-0.37472466050340536,0.3841744967543717,-0.2886256963271752,-60.42387417457696,-80.58651122616075,-36.612980343917975,0.4794,-0.5032,-0.6467,-0.3141
219,736219.0,676.107221,1.0,9.33,-1.24,-3.69,-29.75,13.69,43.56,43.81,-4.25,79.5,-0.37472466050340536,0.3841744967543717,-0.2886256963271752,-60.42387417457696,-80.58651122616075,-36.612980343917975,0.4794,-0.5032,-0.6467,-0.3141
220,736253.0,676.196233,1.0,9.06,-1.17,-3.63,-29.0,15.88,43.56,23.94,-27.12,42.19,0.008234273242345934,0.15861724695659565,-0.02209217617453163,-61.55426474750001,-80.2863724526912,-34.39903434859307,0.4849,-0.5117,-0.6447,-0.2957
221,736253.0,676.196233,1.0,9.06,-1.17,-3.63,-29.0,15.88,43.56,23.94,-27.12,42.19,0.008234273242345934,0.15861724695659565,-0.02209217617453163,-61.55426474750001,-80.2863724526912,-34.39903434859307,0.4849,-0.5117,-0.6447,-0.2957
222,736288.0,676.238244,1.0,9.97,-1.88,-4.16,-29.0,15.88,43.56,17.12,-3.06,-23.19,-0.456102541655556,0.4816739395950598,-1.1387079515432197,-61.2077995443589,-80.63158949863124,-33.8955603834521,0.4871,-0.5091,-0.647,-0.2915
223,736288.0,676.238244,1.0,9.97,-1.88,-4.16,-29.0,15.88,43.56,17.12,-3.06,-23.19,-0.456102541655556,0.4816739395950598,-1.1387079515432197,-61.2077995443589,-80.63158949863124,-33.8955603834521,0.4871,-0.5091,-0.647,-0.2915
224,736323.0,676.253734,1.0,10.68,-1.0,-4.91,-28.25,18.87,43.56,-5.56,-17.25,-48.13,0.3092989573479039,0.5976795960846211,-1.9711941684124683,-60.06617050138386,-82.12775101851454,-34.339061261923746,0.4805,-0.5005,-0.6569,-0.2952
225,736323.0,676.253734,1.0,10.68,-1.0,-4.91,-28.25,18.87,43.56,-5.56,-17.25,-48.13,0.3092989573479039,0.5976795960846211,-1.9711941684124683,-60.06617050138386,-82.12775101851454,-34.339061261923746,0.4805,-0.5005,-0.6569,-0.2952
226,736360.0,676.256534,1.0,12.38,-1.09,-4.63,-27.87,18.37,43.56,53.31,-121.62,53.25,0.1562644278803509,-0.9354011027246091,-3.4217288200066616,-60.88853462317393,-83.77959386115333,-31.459467480314125,0.4731,-0.5067,-0.6677,-0.2711
227,736360.0,676.256534,1.0,12.38,-1.09,-4.63,-27.87,18.37,43.56,53.31,-121.62,53.25,0.1562644278803509,-0.9354011027246091,-3.4217288200066616,-60.88853462317393,-83.77959386115333,-31.459467480314125,0.4731,-0.5067,-0.6677,-0.2711
228,736395.0,676.26477,1.0,10.48,-1.45,-4.12,-26.37,19.87,44.75,40.0,-166.69,21.0,-0.41168557223875607,-1.6041693516465618,-1.4256452098334922,-62.262463418184296,-87.5931456195006,-26.48818157203767,0.4487,-0.517,-0.6921,-0.2291
229,736395.0,676.26477,1.0,10.48,-1.45,-4.12,-26.37,19.87,44.75,40.0,-166.69,21.0,-0.41168557223875607,-1.6041693516465618,-1.4256452098334922,-62.262463418184296,-87.5931456195006,-26.48818157203767,0.4487,-0.517,-0.6921,-0.2291
230,736430.0,676.2953719999999,1.0,8.68,-2.56,-3.75,-26.37,19.87,44.75,28.19,-191.31,15.63,-1.6571592480794537,-1.4376088183163471,0.25962930702966425,-63.64641513634406,-90.77943113369116,-22.59460775363036,0.4205,-0.5273,-0.7119,-0.1959
231,736430.0,676.2953719999999,1.0,8.68,-2.56,-3.75,-26.37,19.87,44.75,28.19,-191.31,15.63,-1.6571592480794537,-1.4376088183163471,0.25962930702966425,-63.64641513634406,-90.77943113369116,-22.59460775363036,0.4205,-0.5273,-0.7119,-0.1959
232,736468.0,676.307222,1.0,10.6,-2.19,-5.66,-17.87,22.06,46.75,-26.25,-188.88,13.06,-1.233299388678199,-2.6880271301236105,-2.0443070400708763,-65.47622986306104,-94.49620014403055,-18.51827857520288,0.3774,-0.5408,-0.7343,-0.1609
233,736468.0,676.307222,1.0,10.6,-2.19,-5.66,-17.87,22.06,46.75,-26.25,-188.88,13.06,-1.233299388678199,-2.6880271301236105,-2.0443070400708763,-65.47622986306104,-94.49620014403055,-18.51827857520288,0.3774,-0.5408,-0.7343,-0.1609
234,736503.0,676.3142320000001,1.0,9.15,-2.33,-5.23,-10.38,25.06,47.88,-49.69,-199.38,8.81,-1.8319777178945036,-2.861246975631006,-0.4384182469947717,-67.10488432031785,-97.14611248818822,-16.17670848781425,0.3356,-0.5527,-0.7498,-0.1407
235,736503.0,676.3142320000001,1.0,9.15,-2.33,-5.23,-10.38,25.06,47.88,-49.69,-199.38,8.81,-1.8319777178945036,-2.861246975631006,-0.4384182469947717,-67.10488432031785,-97.14611248818822,-16.17670848781425,0.3356,-0.5527,-0.7498,-0.1407
236,736538.0,676.316741,1.0,6.01,-2.29,-4.02,-10.38,25.06,47.88,-71.94,-110.69,-7.56,-2.1526866720980613,-1.9624322042236504,2.8038362843855906,-69.207831623394,-99.31706154713407,-14.534774284595127,0.2836,-0.5679,-0.7622,-0.1265
237,736538.0,676.316741,1.0,6.01,-2.29,-4.02,-10.38,25.06,47.88,-71.94,-110.69,-7.56,-2.1526866720980613,-1.9624322042236504,2.8038362843855906,-69.207831623394,-99.31706154713407,-14.534774284595127,0.2836,-0.5679,-0.7622,-0.1265
238,736571.0,676.421634,1.0,6.09,-1.73,-5.29,-0.75,21.75,49.06,-119.44,-64.37,-30.25,-1.9221453756776763,-1.778535194016576,1.98314249259609,-69.68185709018104,-100.86955398800987,-16.419805484293857,0.2429,-0.5713,-0.7709,-0.1428
239,736571.0,676.421634,1.0,6.09,-1.73,-5.29,-0.75,21.75,49.06,-119.44,-64.37,-30.25,-1.9221453756776763,-1.778535194016576,1.98314249259609,-69.68185709018104,-100.86955398800987,-16.419805484293857,0.2429,-0.5713,-0.7709,-0.1428
240,736610.0,676.47321,1.0,4.38,0.64,-5.41,4.0,18.75,50.38,-145.19,-86.31,-33.63,0.22197513152730688,-1.1748248938707253,2.91951608887811,-70.08725387641728,-101.80973815523876,-18.460228812044047,0.2057,-0.5742,-0.7761,-0.1604
241,736610.0,676.47321,1.0,4.38,0.64,-5.41,4.0,18.75,50.38,-145.19,-86.31,-33.63,0.22197513152730688,-1.1748248938707253,2.91951608887811,-70.08725387641728,-101.80973815523876,-18.460228812044047,0.2057,-0.5742,-0.7761,-0.1604
242,736645.0,676.4882299999999,1.0,1.8,2.7,-4.18,4.0,18.75,50.38,-137.06,-88.25,-30.31,2.2068101314073507,-0.3051871895282099,5.006728144045911,-70.77453260444078,-102.46623177403809,-20.937591354374124,0.1541,-0.5791,-0.7797,-0.1817
243,736645.0,676.4882299999999,1.0,1.8,2.7,-4.18,4.0,18.75,50.38,-137.06,-88.25,-30.31,2.2068101314073507,-0.3051871895282099,5.006728144045911,-70.77453260444078,-102.46623177403809,-20.937591354374124,0.1541,-0.5791,-0.7797,-0.1817
244,736679.0,676.568075,1.0,0.52,3.38,-4.63,4.88,11.69,52.06,-92.44,-32.44,-26.37,2.970517155292546,0.8185587785285509,4.944789311312331,-70.73237044324748,-102.64942299100883,-22.59460775363036,0.1309,-0.5788,-0.7807,-0.1959
245,736679.0,676.568075,1.0,0.52,3.38,-4.63,4.88,11.69,52.06,-92.44,-32.44,-26.37,2.970517155292546,0.8185587785285509,4.944789311312331,-70.73237044324748,-102.64942299100883,-22.59460775363036,0.1309,-0.5788,-0.7807,-0.1959
246,736714.0,676.58046,1.0,1.17,2.57,-6.1,7.06,7.19,52.0,-7.5,27.37,-16.87,1.8747247938441831,1.203689082267968,3.4646992322492123,-69.54229663061771,-103.38588087785587,-23.740958889771715,0.1294,-0.5703,-0.7847,-0.2057
247,736714.0,676.58046,1.0,1.17,2.57,-6.1,7.06,7.19,52.0,-7.5,27.37,-16.87,1.8747247938441831,1.203689082267968,3.4646992322492123,-69.54229663061771,-103.38588087785587,-23.740958889771715,0.1294,-0.5703,-0.7847,-0.2057
248,736749.0,676.5837240000001,1.0,4.2,-1.54,-7.13,5.69,2.75,53.19,72.06,62.63,17.19,-2.720292406854269,0.4201678981292254,1.852282133312372,-69.05476022725051,-103.33043920857978,-23.284475807440252,0.1506,-0.5668,-0.7844,-0.2018
249,736749.0,676.5837240000001,1.0,4.2,-1.54,-7.13,5.69,2.75,53.19,72.06,62.63,17.19,-2.720292406854269,0.4201678981292254,1.852282133312372,-69.05476022725051,-103.33043920857978,-23.284475807440252,0.1506,-0.5668,-0.7844,-0.2018
250,736784.0,676.587296,1.0,4.36,-2.63,-7.76,5.69,2.75,53.19,5.5,60.56,21.0,-3.5792232171291998,1.1807404421733392,1.3249571754407636,-69.11040625696496,-102.22862690361036,-23.98691540045918,0.1705,-0.5672,-0.7784,-0.2078
251,736784.0,676.587296,1.0,4.36,-2.63,-7.76,5.69,2.75,53.19,5.5,60.56,21.0,-3.5792232171291998,1.1807404421733392,1.3249571754407636,-69.11040625696496,-102.22862690361036,-23.98691540045918,0.1705,-0.5672,-0.7784,-0.2078
252,736819.0,676.627672,1.0,3.49,0.79,-7.64,0.75,4.56,52.69,-131.5,25.94,-51.56,-0.5565792949030597,1.121215805031039,1.4635753505057387,-68.98522882076507,-101.53756251878842,-27.301153346475182,0.1539,-0.5663,-0.7746,-0.23600000000000002
253,736819.0,676.627672,1.0,3.49,0.79,-7.64,0.75,4.56,52.69,-131.5,25.94,-51.56,-0.5565792949030597,1.121215805031039,1.4635753505057387,-68.98522882076507,-101.53756251878842,-27.301153346475182,0.1539,-0.5663,-0.7746,-0.23600000000000002
254,736856.0,676.7117440000001,1.0,1.89,-0.24,-6.74,-2.88,2.75,51.0,-120.0,-6.06,-35.44,-1.5604733577114298,2.3520115177767185,3.396481147300527,-68.16692984371839,-101.03160716122223,-31.44756267107627,0.1298,-0.5604,-0.7718,-0.271
255,736856.0,676.7117440000001,1.0,1.89,-0.24,-6.74,-2.88,2.75,51.0,-120.0,-6.06,-35.44,-1.5604733577114298,2.3520115177767185,3.396481147300527,-68.16692984371839,-101.03160716122223,-31.44756267107627,0.1298,-0.5604,-0.7718,-0.271
256,736890.0,676.717058,1.0,3.77,4.76,-6.82,-2.88,2.75,51.0,-131.06,102.06,-9.63,1.8938865109534788,0.2940795752030927,0.878626081624958,-67.75236088092288,-99.14020348928251,-36.20284159032565,0.1157,-0.5574,-0.7612,-0.3107
257,736890.0,676.717058,1.0,3.77,4.76,-6.82,-2.88,2.75,51.0,-131.06,102.06,-9.63,1.8938865109534788,0.2940795752030927,0.878626081624958,-67.75236088092288,-99.14020348928251,-36.20284159032565,0.1157,-0.5574,-0.7612,-0.3107
258,736923.0,676.7665509999999,1.0,3.86,3.55,-7.96,-3.5,-1.69,49.75,-48.81,89.94,39.69,0.4661025177252194,1.8919343533203756,0.4756783010987338,-67.60060461724801,-96.28384663999226,-40.19271594298347,0.133,-0.5563,-0.7448,-0.3436
259,736923.0,676.7665509999999,1.0,3.86,3.55,-7.96,-3.5,-1.69,49.75,-48.81,89.94,39.69,0.4661025177252194,1.8919343533203756,0.4756783010987338,-67.60060461724801,-96.28384663999226,-40.19271594298347,0.133,-0.5563,-0.7448,-0.3436
260,736960.0,676.772568,1.0,1.46,0.25,-6.6,-6.88,-4.25,49.38,-14.81,69.62,51.56,-1.435342904763479,3.4951382458119857,4.196133144272046,-67.79377236455424,-94.46244378855971,-41.881213444145885,0.1497,-0.5577,-0.7341,-0.3574
261,736960.0,676.772568,1.0,1.46,0.25,-6.6,-6.88,-4.25,49.38,-14.81,69.62,51.56,-1.435342904763479,3.4951382458119857,4.196133144272046,-67.79377236455424,-94.46244378855971,-41.881213444145885,0.1497,-0.5577,-0.7341,-0.3574
262,736997.0,676.79007,1.0,2.78,1.29,-3.62,-9.69,-3.69,51.25,-109.94,93.44,40.44,-0.4623345003193986,0.72163057145698,5.141631658326185,-68.45773265562515,-90.45355927355087,-46.220292814904006,0.16,-0.5625,-0.7099,-0.3925
263,736997.0,676.79007,1.0,2.78,1.29,-3.62,-9.69,-3.69,51.25,-109.94,93.44,40.44,-0.4623345003193986,0.72163057145698,5.141631658326185,-68.45773265562515,-90.45355927355087,-46.220292814904006,0.16,-0.5625,-0.7099,-0.3925
264,737030.0,676.8705669999999,1.0,4.72,3.16,-3.82,-9.69,-3.69,51.25,-162.44,187.0,46.44,0.3727287127350489,0.21198241510504226,2.974919855857223,-67.79377236455424,-85.79673551557339,-52.6036825036909,0.1711,-0.5577,-0.6807,-0.4431
265,737030.0,676.8705669999999,1.0,4.72,3.16,-3.82,-9.69,-3.69,51.25,-162.44,187.0,46.44,0.3727287127350489,0.21198241510504226,2.974919855857223,-67.79377236455424,-85.79673551557339,-52.6036825036909,0.1711,-0.5577,-0.6807,-0.4431
266,737067.0,676.875361,1.0,7.29,3.54,-4.9,-15.0,-2.88,54.0,-170.63,135.5,101.62,-0.5631131146238506,0.9337803788676108,0.3993837752043756,-67.79377236455424,-78.18880666556636,-60.43713492448142,0.1949,-0.5577,-0.6306,-0.5033
267,737067.0,676.875361,1.0,7.29,3.54,-4.9,-15.0,-2.88,54.0,-170.63,135.5,101.62,-0.5631131146238506,0.9337803788676108,0.3993837752043756,-67.79377236455424,-78.18880666556636,-60.43713492448142,0.1949,-0.5577,-0.6306,-0.5033
268,737103.0,676.923404,1.0,8.17,8.63,2.37,-23.75,-2.06,56.19,-247.63,156.25,35.44,5.971448081642921,-3.5387359382492303,-0.12621744941189486,-68.12542738094108,-71.4506360226007,-67.54545388216584,0.1906,-0.5601,-0.5839,-0.5559
269,737103.0,676.923404,1.0,8.17,8.63,2.37,-23.75,-2.06,56.19,-247.63,156.25,35.44,5.971448081642921,-3.5387359382492303,-0.12621744941189486,-68.12542738094108,-71.4506360226007,-67.54545388216584,0.1906,-0.5601,-0.5839,-0.5559
270,737138.0,676.9411660000001,1.0,9.22,7.16,0.17,-23.75,-2.06,56.19,-141.5,346.94,65.94,2.6522044019402866,0.04135088029806066,-1.5629147196815385,-63.05395914548726,-62.516989117670676,-79.6283867646292,0.2177,-0.5229,-0.5189,-0.6403
271,737138.0,676.9411660000001,1.0,9.22,7.16,0.17,-23.75,-2.06,56.19,-141.5,346.94,65.94,2.6522044019402866,0.04135088029806066,-1.5629147196815385,-63.05395914548726,-62.516989117670676,-79.6283867646292,0.2177,-0.5229,-0.5189,-0.6403
272,737173.0,677.03215,1.0,16.08,9.11,-2.09,-29.19,-1.0,56.88,-127.87,127.19,77.25,0.41818732682640936,3.772655410952064,-8.401007469040211,-60.63615363736209,-55.43338813739566,-86.42403683122414,0.2453,-0.5048,-0.4651,-0.6847
273,737173.0,677.03215,1.0,16.08,9.11,-2.09,-29.19,-1.0,56.88,-127.87,127.19,77.25,0.41818732682640936,3.772655410952064,-8.401007469040211,-60.63615363736209,-55.43338813739566,-86.42403683122414,0.2453,-0.5048,-0.4651,-0.6847
274,737210.0,677.036882,1.0,7.83,5.08,5.19,-38.69,6.0,55.56,-34.38,65.94,85.37,3.8454748840852617,-2.9230918404388606,0.2819842836491535,-61.30101752415778,-52.83388194622903,-87.2602177357086,0.2571,-0.5098,-0.4449,-0.69
275,737210.0,677.036882,1.0,7.83,5.08,5.19,-38.69,6.0,55.56,-34.38,65.94,85.37,3.8454748840852617,-2.9230918404388606,0.2819842836491535,-61.30101752415778,-52.83388194622903,-87.2602177357086,0.2571,-0.5098,-0.4449,-0.69
276,737245.0,677.077131,1.0,11.39,4.15,2.76,-38.69,6.0,55.56,-39.75,261.94,85.94,0.4112283299225865,0.3557780812783624,-2.61415968445902,-56.432409277717255,-47.1938685290374,-92.77144614855234,0.3033,-0.4728,-0.4003,-0.7240000000000001
277,737245.0,677.077131,1.0,11.39,4.15,2.76,-38.69,6.0,55.56,-39.75,261.94,85.94,0.4112283299225865,0.3557780812783624,-2.61415968445902,-56.432409277717255,-47.1938685290374,-92.77144614855234,0.3033,-0.4728,-0.4003,-0.7240000000000001
278,737280.0,677.092862,1.0,20.84,4.19,-5.4,-32.56,13.88,58.0,1.75,91.94,80.94,-6.391397579174358,10.161939664796602,-8.548368911293919,-53.12836054260164,-43.86326796394638,-95.17360460220829,0.3396,-0.4472,-0.3735,-0.7383
279,737280.0,677.092862,1.0,20.84,4.19,-5.4,-32.56,13.88,58.0,1.75,91.94,80.94,-6.391397579174358,10.161939664796602,-8.548368911293919,-53.12836054260164,-43.86326796394638,-95.17360460220829,0.3396,-0.4472,-0.3735,-0.7383
280,737316.0,677.173914,1.0,14.04,1.89,1.49,-31.56,22.06,55.19,-49.44,-143.38,-7.25,-2.4623346283650083,1.276184307292051,-4.165538869027504,-57.03145830719132,-43.96211035016289,-93.12086388400516,0.3237,-0.4774,-0.3743,-0.7261
281,737316.0,677.173914,1.0,14.04,1.89,1.49,-31.56,22.06,55.19,-49.44,-143.38,-7.25,-2.4623346283650083,1.276184307292051,-4.165538869027504,-57.03145830719132,-43.96211035016289,-93.12086388400516,0.3237,-0.4774,-0.3743,-0.7261
282,737351.0,677.223286,1.0,9.31,4.7,3.94,-23.37,22.37,55.69,-72.25,54.63,5.06,2.638451415833213,0.2644292930008514,-1.0219395330504977,-58.30030109286572,-42.286383276048326,-94.05820202109098,0.312,-0.4871,-0.3607,-0.7317
283,737351.0,677.223286,1.0,9.31,4.7,3.94,-23.37,22.37,55.69,-72.25,54.63,5.06,2.638451415833213,0.2644292930008514,-1.0219395330504977,-58.30030109286572,-42.286383276048326,-94.05820202109098,0.312,-0.4871,-0.3607,-0.7317
284,737386.0,677.238443,1.0,10.44,3.6,0.61,-23.37,22.37,55.69,31.37,85.06,25.44,-0.4138359801445393,3.108702837058524,-0.7994994639856028,-55.67947118427708,-41.03580078188174,-95.85542117857165,0.3286,-0.467,-0.3505,-0.7423
285,737386.0,677.238443,1.0,10.44,3.6,0.61,-23.37,22.37,55.69,31.37,85.06,25.44,-0.4138359801445393,3.108702837058524,-0.7994994639856028,-55.67947118427708,-41.03580078188174,-95.85542117857165,0.3286,-0.467,-0.3505,-0.7423
286,737421.0,677.242645,1.0,8.63,2.76,3.57,-19.19,18.56,54.25,12.63,-54.25,23.19,1.0559446244904076,-0.20083381508235387,0.12759804597426871,-56.38039768350901,-41.586888761097505,-94.51308235594236,0.3339,-0.4724,-0.355,-0.7344
287,737421.0,677.242645,1.0,8.63,2.76,3.57,-19.19,18.56,54.25,12.63,-54.25,23.19,1.0559446244904076,-0.20083381508235387,0.12759804597426871,-56.38039768350901,-41.586888761097505,-94.51308235594236,0.3339,-0.4724,-0.355,-0.7344
288,737458.0,677.281513,1.0,8.12,3.0,4.63,-20.06,20.19,53.19,24.0,-1.69,5.81,2.0877679075660485,-1.2344520284429137,0.2940975899677465,-57.63221366567701,-42.175827701141685,-93.0375673318354,0.3342,-0.48200000000000004,-0.3598,-0.7256
289,737458.0,677.281513,1.0,8.12,3.0,4.63,-20.06,20.19,53.19,24.0,-1.69,5.81,2.0877679075660485,-1.2344520284429137,0.2940975899677465,-57.63221366567701,-42.175827701141685,-93.0375673318354,0.3342,-0.48200000000000004,-0.3598,-0.7256
290,737492.0,677.2931570000001,1.0,9.89,1.62,2.45,-20.06,20.19,53.19,18.5,43.69,0.75,-0.7111863783276244,0.2616879463627817,-0.4824089148867099,-56.56249373757082,-42.32324429701836,-93.33773486561995,0.3406,-0.4738,-0.361,-0.7274
291,737492.0,677.2931570000001,1.0,9.89,1.62,2.45,-20.06,20.19,53.19,18.5,43.69,0.75,-0.7111863783276244,0.2616879463627817,-0.4824089148867099,-56.56249373757082,-42.32324429701836,-93.33773486561995,0.3406,-0.4738,-0.361,-0.7274
292,737527.0,677.351951,1.0,12.16,1.8,-1.42,-15.69,21.56,50.88,12.44,-35.31,0.56,-3.0145168547244623,4.058765316083868,-1.4876455619877742,-55.99071256936834,-42.569102018017894,-93.35443526255777,0.3445,-0.4694,-0.363,-0.7275
293,737527.0,677.351951,1.0,12.16,1.8,-1.42,-15.69,21.56,50.88,12.44,-35.31,0.56,-3.0145168547244623,4.058765316083868,-1.4876455619877742,-55.99071256936834,-42.569102018017894,-93.35443526255777,0.3445,-0.4694,-0.363,-0.7275
294,737562.0,677.355135,1.0,8.9,1.66,3.03,-15.75,22.87,53.25,-5.31,-67.12,-4.19,0.010562064536063565,-0.6243505966109322,0.2800254784129148,-57.69761729678852,-43.35723698802017,-91.96044935664196,0.337,-0.4825,-0.3694,-0.7191
295,737562.0,677.355135,1.0,8.9,1.66,3.03,-15.75,22.87,53.25,-5.31,-67.12,-4.19,0.010562064536063565,-0.6243505966109322,0.2800254784129148,-57.69761729678852,-43.35723698802017,-91.96044935664196,0.337,-0.4825,-0.3694,-0.7191
296,737599.0,677.407554,1.0,8.49,2.75,2.94,-12.56,22.69,52.06,-12.19,10.88,0.88,1.0617511150814531,-0.07806623866203721,0.4710841236321155,-58.15602096155954,-43.209298755684706,-91.82860613360762,0.335,-0.486,-0.3682,-0.7183
297,737599.0,677.407554,1.0,8.49,2.75,2.94,-12.56,22.69,52.06,-12.19,10.88,0.88,1.0617511150814531,-0.07806623866203721,0.4710841236321155,-58.15602096155954,-43.209298755684706,-91.82860613360762,0.335,-0.486,-0.3682,-0.7183
298,737632.0,677.456151,1.0,8.9,2.47,2.01,-12.56,22.69,52.06,15.31,18.56,-5.56,0.1985471584481817,0.6856002702159247,0.38107143445019,-57.436125785536824,-43.29558684746807,-92.24113894853753,0.337,-0.4805,-0.3689,-0.7208
299,737632.0,677.456151,1.0,8.9,2.47,2.01,-12.56,22.69,52.06,15.31,18.56,-5.56,0.1985471584481817,0.6856002702159247,0.38107143445019,-57.436125785536824,-43.29558684746807,-92.24113894853753,0.337,-0.4805,-0.3689,-0.7208
300,737669.0,677.489705,1.0,9.27,2.01,1.61,-14.06,23.19,52.19,8.31,8.44,-7.56,-0.5363687976293754,0.8616429691568677,0.2392585108514496,-56.99233821526014,-43.505251180584146,-92.39002905922057,0.3379,-0.4771,-0.3706,-0.7217
301,737669.0,677.489705,1.0,9.27,2.01,1.61,-14.06,23.19,52.19,8.31,8.44,-7.56,-0.5363687976293754,0.8616429691568677,0.2392585108514496,-56.99233821526014,-43.505251180584146,-92.39002905922057,0.3379,-0.4771,-0.3706,-0.7217
302,737703.0,677.496147,1.0,9.26,2.06,1.98,-13.38,23.19,52.5,8.56,5.94,-3.94,-0.3681594033584133,0.5709346707027783,0.13969120958880232,-56.67963771453915,-43.71506869334832,-92.43970392561262,0.3387,-0.4747,-0.3723,-0.722
303,737703.0,677.496147,1.0,9.26,2.06,1.98,-13.38,23.19,52.5,8.56,5.94,-3.94,-0.3681594033584133,0.5709346707027783,0.13969120958880232,-56.67963771453915,-43.71506869334832,-92.43970392561262,0.3387,-0.4747,-0.3723,-0.722
304,737738.0,677.585335,1.0,9.02,2.35,2.28,-13.38,23.19,52.5,1.06,6.44,-3.25,0.04117564462295231,0.4404023622816533,0.22094969560978409,-56.341397290432546,-43.83856273356188,-92.5722802515405,0.3396,-0.4721,-0.3733,-0.7228
305,737738.0,677.585335,1.0,9.02,2.35,2.28,-13.38,23.19,52.5,1.06,6.44,-3.25,0.04117564462295231,0.4404023622816533,0.22094969560978409,-56.341397290432546,-43.83856273356188,-92.5722802515405,0.3396,-0.4721,-0.3733,-0.7228
306,737773.0,677.6288480000001,1.0,9.11,2.3,1.94,-13.38,23.69,52.0,12.94,3.25,-3.75,-0.2189380495672224,0.7121517212362476,0.2415778070475625,-55.97773522242152,-44.17226486112258,-92.55569944229441,0.3407,-0.4693,-0.376,-0.7227
307,737773.0,677.6288480000001,1.0,9.11,2.3,1.94,-13.38,23.69,52.0,12.94,3.25,-3.75,-0.2189380495672224,0.7121517212362476,0.2415778070475625,-55.97773522242152,-44.17226486112258,-92.55569944229441,0.3407,-0.4693,-0.376,-0.7227
308,737810.0,677.732079,1.0,9.01,2.27,2.25,-14.5,24.75,51.88,8.5,1.5,-4.81,-0.10539644078631548,0.3762248731165423,0.2545378547664594,-55.84800465854668,-44.531125521078216,-92.42314314089434,0.3406,-0.4683,-0.3789,-0.7219
309,737810.0,677.732079,1.0,9.01,2.27,2.25,-14.5,24.75,51.88,8.5,1.5,-4.81,-0.10539644078631548,0.3762248731165423,0.2545378547664594,-55.84800465854668,-44.531125521078216,-92.42314314089434,0.3406,-0.4683,-0.3789,-0.7219
310,737843.0,677.779673,1.0,9.14,2.53,2.17,-14.5,24.75,51.88,5.5,-0.19,-3.81,0.01659385587625395,0.5668446907353544,0.09439939879883674,-55.705390880466844,-44.766490602125245,-92.35692495140921,0.3407,-0.4672,-0.3808,-0.7215
311,737843.0,677.779673,1.0,9.14,2.53,2.17,-14.5,24.75,51.88,5.5,-0.19,-3.81,0.01659385587625395,0.5668446907353544,0.09439939879883674,-55.705390880466844,-44.766490602125245,-92.35692495140921,0.3407,-0.4672,-0.3808,-0.7215
312,737878.0,677.798115,1.0,9.1,2.38,2.0,-13.75,25.19,53.0,10.13,-0.5,-3.75,-0.19156594174819566,0.5765246807051017,0.2094982463545474,-55.62764107730477,-45.225406324165256,-92.15850909816106,0.3401,-0.4666,-0.3845,-0.7203
313,737878.0,677.798115,1.0,9.1,2.38,2.0,-13.75,25.19,53.0,10.13,-0.5,-3.75,-0.19156594174819566,0.5765246807051017,0.2094982463545474,-55.62764107730477,-45.225406324165256,-92.15850909816106,0.3401,-0.4666,-0.3845,-0.7203
314,737912.0,677.837705,1.0,8.92,2.3,2.26,-13.75,25.87,53.0,9.38,0.25,-3.88,-0.1108797361016296,0.2504669893146274,0.3256705162448714,-55.53696813006854,-45.54834570673154,-92.00993104367019,0.34,-0.4659,-0.3871,-0.7194
315,737912.0,677.837705,1.0,8.92,2.3,2.26,-13.75,25.87,53.0,9.38,0.25,-3.88,-0.1108797361016296,0.2504669893146274,0.3256705162448714,-55.53696813006854,-45.54834570673154,-92.00993104367019,0.34,-0.4659,-0.3871,-0.7194
316,737947.0,677.85472,1.0,8.98,2.41,2.22,-13.75,25.87,53.0,4.88,3.44,-2.69,-0.07604250130705338,0.3247751733220989,0.2533448847643012,-55.35573541687352,-45.821900740364754,-91.91098977027544,0.3406,-0.4645,-0.3893,-0.7188
317,737947.0,677.85472,1.0,8.98,2.41,2.22,-13.75,25.87,53.0,4.88,3.44,-2.69,-0.07604250130705338,0.3247751733220989,0.2533448847643012,-55.35573541687352,-45.821900740364754,-91.91098977027544,0.3406,-0.4645,-0.3893,-0.7188
318,737980.0,677.893736,1.0,9.17,2.45,1.92,-13.5,25.56,53.0,5.31,2.56,-2.0,-0.2401315135377231,0.6152619124353023,0.14530487443323992,-55.25224136431043,-46.008573794141824,-91.84507796689995,0.3409,-0.4637,-0.3908,-0.7184
319,737980.0,677.893736,1.0,9.17,2.45,1.92,-13.5,25.56,53.0,5.31,2.56,-2.0,-0.2401315135377231,0.6152619124353023,0.14530487443323992,-55.25224136431043,-46.008573794141824,-91.84507796689995,0.3409,-0.4637,-0.3908,-0.7184
320,738017.0,677.94782,1.0,9.14,2.44,2.04,-13.88,26.25,51.69,1.12,-0.69,-0.75,-0.19490176392296246,0.4739075541805993,0.14268472002768814,-55.25224136431043,-46.19537604537457,-91.72982641130142,0.3407,-0.4637,-0.3923,-0.7177
321,738017.0,677.94782,1.0,9.14,2.44,2.04,-13.88,26.25,51.69,1.12,-0.69,-0.75,-0.19490176392296246,0.4739075541805993,0.14268472002768814,-55.25224136431043,-46.19537604537457,-91.72982641130142,0.3407,-0.4637,-0.3923,-0.7177
322,738052.0,678.010395,1.0,9.07,2.39,2.11,-14.25,26.19,51.25,1.06,-6.0,0.06,-0.1643862142958259,0.3346658706874557,0.19987760092930704,-55.45927852016165,-46.35737642818546,-91.48326004604112,0.34,-0.4653,-0.3936,-0.7162
323,738052.0,678.010395,1.0,9.07,2.39,2.11,-14.25,26.19,51.25,1.06,-6.0,0.06,-0.1643862142958259,0.3346658706874557,0.19987760092930704,-55.45927852016165,-46.35737642818546,-91.48326004604112,0.34,-0.4653,-0.3936,-0.7162
324,738086.0,678.027611,1.0,8.86,2.65,2.48,-14.25,26.19,51.25,-2.81,-5.75,0.25,0.29228635361466915,0.0689844860346629,0.2367853286382804,-55.66651249731456,-46.43217889831124,-91.35198041570484,0.3389,-0.4669,-0.3942,-0.7154
325,738086.0,678.027611,1.0,8.86,2.65,2.48,-14.25,26.19,51.25,-2.81,-5.75,0.25,0.29228635361466915,0.0689844860346629,0.2367853286382804,-55.66651249731456,-46.43217889831124,-91.35198041570484,0.3389,-0.4669,-0.3942,-0.7154
326,738121.0,678.030452,1.0,9.14,2.46,1.86,-14.56,27.0,52.88,4.69,1.31,-1.12,-0.2239251591128968,0.5568020354386543,0.17905273918525033,-55.56287082864312,-46.53194812307301,-91.33558129123823,0.3392,-0.4661,-0.395,-0.7153
327,738121.0,678.030452,1.0,9.14,2.46,1.86,-14.56,27.0,52.88,4.69,1.31,-1.12,-0.2239251591128968,0.5568020354386543,0.17905273918525033,-55.56287082864312,-46.53194812307301,-91.33558129123823,0.3392,-0.4661,-0.395,-0.7153
328,738158.0,678.053238,1.0,8.99,2.67,2.14,-13.88,27.0,52.06,-0.81,-1.25,-3.06,0.10531725004384374,0.3720257679521177,0.1952450504193788,-55.549919093881286,-46.63175471031061,-91.33558129123823,0.3385,-0.466,-0.3958,-0.7153
329,738158.0,678.053238,1.0,8.99,2.67,2.14,-13.88,27.0,52.06,-0.81,-1.25,-3.06,0.10531725004384374,0.3720257679521177,0.1952450504193788,-55.549919093881286,-46.63175471031061,-91.33558129123823,0.3385,-0.466,-0.3958,-0.7153
330,738193.0,678.071614,1.0,9.06,2.38,1.97,-13.88,27.0,52.06,3.25,-1.69,-0.94,-0.23248161944848575,0.3626571591653154,0.24404930345699505,-55.57582333465725,-46.85645674888645,-91.15534914020606,0.3384,-0.4662,-0.3976,-0.7142
331,738193.0,678.071614,1.0,9.06,2.38,1.97,-13.88,27.0,52.06,3.25,-1.69,-0.94,-0.23248161944848575,0.3626571591653154,0.24404930345699505,-55.57582333465725,-46.85645674888645,-91.15534914020606,0.3384,-0.4662,-0.3976,-0.7142
332,738226.0,678.087422,1.0,8.98,2.56,2.11,-14.25,27.25,51.69,-4.06,-4.19,-0.63,0.016226672397859243,0.2809839521199371,0.23759128381720274,-55.770203681703904,-46.8939256305629,-91.05716253041412,0.337,-0.4677,-0.3979,-0.7136
333,738226.0,678.087422,1.0,8.98,2.56,2.11,-14.25,27.25,51.69,-4.06,-4.19,-0.63,0.016226672397859243,0.2809839521199371,0.23759128381720274,-55.770203681703904,-46.8939256305629,-91.05716253041412,0.337,-0.4677,-0.3979,-0.7136
334,738260.0,678.123816,1.0,9.18,2.58,1.92,-13.88,26.19,53.25,0.19,-5.19,0.37,-0.09758298832044354,0.4528500112516221,0.09065265398863608,-55.92583364179144,-46.956385579504534,-90.95906154292842,0.3362,-0.4689,-0.3984,-0.713
335,738260.0,678.123816,1.0,9.18,2.58,1.92,-13.88,26.19,53.25,0.19,-5.19,0.37,-0.09758298832044354,0.4528500112516221,0.09065265398863608,-55.92583364179144,-46.956385579504534,-90.95906154292842,0.3362,-0.4689,-0.3984,-0.713
336,738297.0,678.128783,1.0,8.91,2.63,2.17,-13.88,26.19,53.25,2.25,-8.63,-1.94,0.14770149524746226,0.16063854606150785,0.2690255826819801,-56.133515021345396,-47.2313854664036,-90.68157114407572,0.3348,-0.4705,-0.4006,-0.7113
337,738297.0,678.128783,1.0,8.91,2.63,2.17,-13.88,26.19,53.25,2.25,-8.63,-1.94,0.14770149524746226,0.16063854606150785,0.2690255826819801,-56.133515021345396,-47.2313854664036,-90.68157114407572,0.3348,-0.4705,-0.4006,-0.7113
338,738330.0,678.1474059999999,1.0,9.06,2.55,1.9,-12.75,26.56,51.69,4.88,-5.81,-1.69,-0.07576014181695911,0.3381699504799385,0.21102591995683184,-56.17247760648797,-47.481635948605785,-90.46983065734315,0.3347,-0.4708,-0.4026,-0.71
339,738330.0,678.1474059999999,1.0,9.06,2.55,1.9,-12.75,26.56,51.69,4.88,-5.81,-1.69,-0.07576014181695911,0.3381699504799385,0.21102591995683184,-56.17247760648797,-47.481635948605785,-90.46983065734315,0.3347,-0.4708,-0.4026,-0.71
340,738365.0,678.150387,1.0,9.11,2.51,1.79,-13.88,26.19,52.06,3.75,-6.63,-2.0,-0.1606607705435894,0.3609058136661743,0.1972673397834601,-56.3283987391895,-47.78225428161778,-90.19353290614056,0.3338,-0.47200000000000003,-0.405,-0.7083
341,738365.0,678.150387,1.0,9.11,2.51,1.79,-13.88,26.19,52.06,3.75,-6.63,-2.0,-0.1606607705435894,0.3609058136661743,0.1972673397834601,-56.3283987391895,-47.78225428161778,-90.19353290614056,0.3338,-0.47200000000000003,-0.405,-0.7083
342,738400.0,678.2622610000001,1.0,8.98,2.51,1.97,-12.75,26.56,51.25,1.44,-9.31,-0.37,-0.027623066832948684,0.13556316128675114,0.27762803573311606,-56.53647049567268,-47.995403677336114,-89.93409723395683,0.3329,-0.4736,-0.4067,-0.7067
343,738400.0,678.2622610000001,1.0,8.98,2.51,1.97,-12.75,26.56,51.25,1.44,-9.31,-0.37,-0.027623066832948684,0.13556316128675114,0.27762803573311606,-56.53647049567268,-47.995403677336114,-89.93409723395683,0.3329,-0.4736,-0.4067,-0.7067
344,738435.0,678.320588,1.0,9.06,2.62,1.93,-12.75,26.56,51.25,-1.37,-6.13,-0.19,0.04434411801452765,0.18836774803787604,0.1819187730671299,-56.77079436287129,-48.08322235291628,-89.77224753073929,0.3318,-0.4754,-0.4074,-0.7057
345,738435.0,678.320588,1.0,9.06,2.62,1.93,-12.75,26.56,51.25,-1.37,-6.13,-0.19,0.04434411801452765,0.18836774803787604,0.1819187730671299,-56.77079436287129,-48.08322235291628,-89.77224753073929,0.3318,-0.4754,-0.4074,-0.7057
346,738469.0,678.3270259999999,1.0,9.17,2.7,1.53,-12.38,26.56,52.19,-3.19,-4.25,-0.31,-0.07323558233764227,0.5671508436078672,0.14265618429034,-56.91411976899951,-48.10831891577421,-89.6914080232464,0.3309,-0.4765,-0.4076,-0.7052
347,738469.0,678.3270259999999,1.0,9.17,2.7,1.53,-12.38,26.56,52.19,-3.19,-4.25,-0.31,-0.07323558233764227,0.5671508436078672,0.14265618429034,-56.91411976899951,-48.10831891577421,-89.6914080232464,0.3309,-0.4765,-0.4076,-0.7052
348,738504.0,678.3416980000001,1.0,8.94,2.73,1.92,-12.75,26.56,52.88,0.37,-8.25,-1.0,0.1943195739039678,0.17721768648716996,0.2675864298798221,-57.09667459203971,-48.20872972254528,-89.56218264522055,0.3295,-0.4779,-0.4084,-0.7044
349,738504.0,678.3416980000001,1.0,8.94,2.73,1.92,-12.75,26.56,52.88,0.37,-8.25,-1.0,0.1943195739039678,0.17721768648716996,0.2675864298798221,-57.09667459203971,-48.20872972254528,-89.56218264522055,0.3295,-0.4779,-0.4084,-0.7044
350,738539.0,678.377335,1.0,8.98,2.4,1.78,-12.75,26.56,52.88,5.56,-2.88,-0.37,-0.15149708310422685,0.11501547207670824,0.34448216831397005,-57.17496080016431,-48.44736344772761,-89.3524992184972,0.3292,-0.4785,-0.4103,-0.7031
351,738539.0,678.377335,1.0,8.98,2.4,1.78,-12.75,26.56,52.88,5.56,-2.88,-0.37,-0.15149708310422685,0.11501547207670824,0.34448216831397005,-57.17496080016431,-48.44736344772761,-89.3524992184972,0.3292,-0.4785,-0.4103,-0.7031
352,738574.0,678.3835650000001,1.0,9.03,2.71,1.72,-12.0,26.19,52.06,-4.25,-0.19,-1.37,0.07503520516022788,0.3048118960296642,0.22829630920191055,-57.22716779893635,-48.434798213187825,-89.3524992184972,0.3287,-0.4789,-0.4102,-0.7031
353,738574.0,678.3835650000001,1.0,9.03,2.71,1.72,-12.0,26.19,52.06,-4.25,-0.19,-1.37,0.07503520516022788,0.3048118960296642,0.22829630920191055,-57.22716779893635,-48.434798213187825,-89.3524992184972,0.3287,-0.4789,-0.4102,-0.7031
354,738609.0,678.399545,1.0,9.2,2.65,1.66,-12.0,26.19,52.88,1.12,-0.94,-0.88,-0.06123949691322439,0.331907744104734,0.09561571041883532,-57.22716779893635,-48.49763058758104,-89.33638544460486,0.3283,-0.4789,-0.4107,-0.703
355,738609.0,678.399545,1.0,9.2,2.65,1.66,-12.0,26.19,52.88,1.12,-0.94,-0.88,-0.06123949691322439,0.331907744104734,0.09561571041883532,-57.22716779893635,-48.49763058758104,-89.33638544460486,0.3283,-0.4789,-0.4107,-0.703
356,738643.0,678.402857,1.0,9.02,2.64,1.86,-12.0,26.19,52.88,0.25,-2.38,-1.44,0.0689509673272184,0.11773148762047934,0.2269326210306559,-57.26633156409672,-48.58562199629408,-89.27195273153545,0.3278,-0.4792,-0.4114,-0.7026
357,738643.0,678.402857,1.0,9.02,2.64,1.86,-12.0,26.19,52.88,0.25,-2.38,-1.44,0.0689509673272184,0.11773148762047934,0.2269326210306559,-57.26633156409672,-48.58562199629408,-89.27195273153545,0.3278,-0.4792,-0.4114,-0.7026
358,738676.0,678.514894,1.0,9.12,2.58,1.52,-12.38,26.19,52.5,1.56,-0.5,-1.19,-0.1557751904813811,0.3814296230048597,0.21647557339414905,-57.2793877763047,-48.698798646668465,-89.20755577049032,0.3274,-0.4793,-0.4123,-0.7022
359,738676.0,678.514894,1.0,9.12,2.58,1.52,-12.38,26.19,52.5,1.56,-0.5,-1.19,-0.1557751904813811,0.3814296230048597,0.21647557339414905,-57.2793877763047,-48.698798646668465,-89.20755577049032,0.3274,-0.4793,-0.4123,-0.7022
360,738711.0,678.525759,1.0,9.11,2.72,1.83,-12.38,27.0,51.25,-2.19,-2.25,-0.81,0.09452561788927992,0.1505044354166747,0.12637039027371166,-57.35774212215939,-48.73653543441946,-89.17537067204425,0.3267,-0.4799,-0.4126,-0.7020000000000001
361,738711.0,678.525759,1.0,9.11,2.72,1.83,-12.38,27.0,51.25,-2.19,-2.25,-0.81,0.09452561788927992,0.1505044354166747,0.12637039027371166,-57.35774212215939,-48.73653543441946,-89.17537067204425,0.3267,-0.4799,-0.4126,-0.7020000000000001
362,738746.0,678.5291950000001,1.0,9.15,2.83,1.82,-12.38,27.0,51.25,-2.13,-0.56,-1.12,0.1650737340294932,0.20563566785426726,0.06117594101037405,-57.37080402823785,-48.73653543441946,-89.20755577049032,0.326,-0.48,-0.4126,-0.7022
363,738746.0,678.5291950000001,1.0,9.15,2.83,1.82,-12.38,27.0,51.25,-2.13,-0.56,-1.12,0.1650737340294932,0.20563566785426726,0.06117594101037405,-57.37080402823785,-48.73653543441946,-89.20755577049032,0.326,-0.48,-0.4126,-0.7022
364,738781.0,678.576766,1.0,9.2,2.65,1.6,-11.56,26.56,51.69,3.13,1.56,-1.25,-0.10569019096022747,0.31327070876071783,0.10545465888005444,-57.33162075280612,-48.824609844362676,-89.20755577049032,0.3256,-0.4797,-0.4133,-0.7022
365,738781.0,678.576766,1.0,9.2,2.65,1.6,-11.56,26.56,51.69,3.13,1.56,-1.25,-0.10569019096022747,0.31327070876071783,0.10545465888005444,-57.33162075280612,-48.824609844362676,-89.20755577049032,0.3256,-0.4797,-0.4133,-0.7022
366,738813.0,678.629222,1.0,9.15,2.72,1.68,-12.0,27.69,52.06,-0.31,-2.25,-1.06,0.003747516221432434,0.2559956005823023,0.11759678471602975,-57.35774212215939,-48.887538949850274,-89.14319448171844,0.3253,-0.4799,-0.4138,-0.7018
367,738813.0,678.629222,1.0,9.15,2.72,1.68,-12.0,27.69,52.06,-0.31,-2.25,-1.06,0.003747516221432434,0.2559956005823023,0.11759678471602975,-57.35774212215939,-48.887538949850274,-89.14319448171844,0.3253,-0.4799,-0.4138,-0.7018
368,738850.0,678.635847,1.0,9.15,2.79,1.76,-12.0,27.0,52.19,-0.94,-1.88,-1.94,0.09508867238624408,0.19924136146768,0.0826867635277253,-57.40999463594625,-48.95048376737758,-89.11102718958544,0.3247,-0.4803,-0.4143,-0.7016
369,738850.0,678.635847,1.0,9.15,2.79,1.76,-12.0,27.0,52.19,-0.94,-1.88,-1.94,0.09508867238624408,0.19924136146768,0.0826867635277253,-57.40999463594625,-48.95048376737758,-89.11102718958544,0.3247,-0.4803,-0.4143,-0.7016
