acc_x,acc_y,acc_z,lin_x,lin_y,lin_z,eul_x,eul_y,eul_z
-0.64,1.71,-9.52,-0.1202535287198957,-0.0927070628099164,0.1143311603550945,-121.78298489723478,-56.7968463150502,-1.8793858210517669
-0.64,1.71,-9.52,-0.1202535287198957,-0.0927070628099164,0.1143311603550945,-121.78298489723478,-56.7968463150502,-1.8793858210517669
-0.53,1.85,-9.72,0.0414808317091943,-0.1642753804820411,-0.1005742802900258,-121.78298489723478,-56.78381993878929,-1.7647797695524667
-0.53,1.85,-9.72,0.0414808317091943,-0.1642753804820411,-0.1005742802900258,-121.78298489723478,-56.78381993878929,-1.7647797695524667
-0.65,1.87,-9.47,0.0310324745612081,-0.0304340984222688,0.1320228365804272,-121.78298489723478,-56.77079436287129,-1.6730962049034406
-0.65,1.87,-9.47,0.0310324745612081,-0.0304340984222688,0.1320228365804272,-121.78298489723478,-56.77079436287129,-1.6730962049034406
-0.84,1.97,-9.29,0.041651214653855,0.2006286818497338,0.2751961073172513,-121.78298489723478,-56.77079436287129,-1.5928739664684124
-0.84,1.97,-9.29,0.041651214653855,0.2006286818497338,0.2751961073172513,-121.78298489723478,-56.77079436287129,-1.5928739664684124
-0.56,1.86,-9.73,0.0464906999670009,-0.1546461759315883,-0.1140366282070584,-121.78298489723478,-56.78381993878929,-1.638715147453804
-0.56,1.86,-9.73,0.0464906999670009,-0.1546461759315883,-0.1140366282070584,-121.78298489723478,-56.78381993878929,-1.638715147453804
-0.7,1.77,-9.46,-0.0594831944785694,-0.0542164898319673,0.1574001679247167,-121.78298489723478,-56.77079436287129,-1.5355728478655368
-0.7,1.77,-9.46,-0.0594831944785694,-0.0542164898319673,0.1574001679247167,-121.78298489723478,-56.77079436287129,-1.5355728478655368
-0.79,1.81,-9.38,-0.0703127284522701,0.0595856143035755,0.2214475673548914,-121.78298489723478,-56.75776958698043,-1.5699534720315549
-0.79,1.81,-9.38,-0.0703127284522701,0.0595856143035755,0.2214475673548914,-121.78298489723478,-56.75776958698043,-1.5699534720315549
-0.33,1.94,-9.99,0.1970251788549622,-0.3394287517610537,-0.3677575602157379,-121.78298489723478,-56.77079436287129,-1.707477412974553
-0.33,1.94,-9.99,0.1970251788549622,-0.3394287517610537,-0.3677575602157379,-121.78298489723478,-56.77079436287129,-1.707477412974553
-0.77,1.81,-9.51,-0.0868016164139184,0.0323753525795964,0.0958046549266207,-121.80654521371449,-56.75776958698043,-1.6616358358374437
-0.77,1.81,-9.51,-0.0868016164139184,0.0323753525795964,0.0958046549266207,-121.80654521371449,-56.75776958698043,-1.6616358358374437
-0.63,1.85,-9.5,0.0218932837156568,-0.0537322397476492,0.1078854637026136,-121.80654521371449,-56.75776958698043,-1.6960169933572922
-0.63,1.85,-9.5,0.0218932837156568,-0.0537322397476492,0.1078854637026136,-121.80654521371449,-56.75776958698043,-1.6960169933572922
-0.43,1.99,-9.76,0.2134069429631837,-0.1970712776994784,-0.1592027175651686,-121.80654521371449,-56.75776958698043,-1.6845565907051554
-0.43,1.99,-9.76,0.2134069429631837,-0.1970712776994784,-0.1592027175651686,-121.80654521371449,-56.75776958698043,-1.6845565907051554
-0.8,1.86,-9.43,-0.0420759868444441,0.0759717048806342,0.1621200523359576,-121.80654521371449,-56.73172243401768,-1.5470330404085568
-0.8,1.86,-9.43,-0.0420759868444441,0.0759717048806342,0.1621200523359576,-121.80654521371449,-56.73172243401768,-1.5470330404085568
-0.7,1.97,-9.49,0.0905188265786762,0.0371825331370625,0.0895813164275534,-121.78298489723478,-56.74474561080106,-1.5699534720315549
-0.7,1.97,-9.49,0.0905188265786762,0.0371825331370625,0.0895813164275534,-121.78298489723478,-56.74474561080106,-1.5699534720315549
-0.72,1.76,-9.52,-0.0858549685131457,-0.0640144314339572,0.0991822005710556,-121.78298489723478,-56.74474561080106,-1.5011923619341792
-0.72,1.76,-9.52,-0.0858549685131457,-0.0640144314339572,0.0991822005710556,-121.78298489723478,-56.74474561080106,-1.5011923619341792
-0.75,1.79,-9.54,-0.0824544973666657,-0.0316639543708744,0.0716410811618839,-121.78298489723478,-56.75776958698043,-1.5011923619341792
-0.75,1.79,-9.54,-0.0824544973666657,-0.0316639543708744,0.0716410811618839,-121.78298489723478,-56.75776958698043,-1.5011923619341792
-0.56,1.91,-9.75,0.0919265368733922,-0.1600211360658122,-0.1427290131761811,-121.78298489723478,-56.74474561080106,-1.5241126706819226
-0.56,1.91,-9.75,0.0919265368733922,-0.1600211360658122,-0.1427290131761811,-121.78298489723478,-56.74474561080106,-1.5241126706819226
-0.77,1.84,-9.39,-0.0308879495035937,0.030426511777293,0.2072375095422352,-121.78298489723478,-56.74474561080106,-1.4668120111410634
-0.77,1.84,-9.39,-0.0308879495035937,0.030426511777293,0.2072375095422352,-121.78298489723478,-56.74474561080106,-1.4668120111410634
-0.66,1.86,-9.64,0.01217995859924,-0.0862457576741686,-0.0329238382255052,-121.80654521371449,-56.71870005631496,-1.5011923619341792
-0.66,1.86,-9.64,0.01217995859924,-0.0862457576741686,-0.0329238382255052,-121.80654521371449,-56.71870005631496,-1.5011923619341792
-0.83,1.87,-9.56,-0.0627354010527008,0.0716188684558349,0.0306418674780211,-121.8301142376418,-56.69265769689071,-1.4897322301406863
-0.83,1.87,-9.56,-0.0627354010527008,0.0716188684558349,0.0306418674780211,-121.8301142376418,-56.69265769689071,-1.4897322301406863
-0.9,1.88,-9.5,-0.0856765291698388,0.1385323682710854,0.0820488094477323,-121.8536919796764,-56.65360014298316,-1.4668120111410634
-0.9,1.88,-9.5,-0.0856765291698388,0.1385323682710854,0.0820488094477323,-121.8536919796764,-56.65360014298316,-1.4668120111410634
-0.92,2.02,-9.69,-0.006649877471154,0.1918455373612103,-0.1324672177877168,-121.8536919796764,-56.65360014298316,-1.4668120111410634
-0.92,2.02,-9.69,-0.006649877471154,0.1918455373612103,-0.1324672177877168,-121.8536919796764,-56.65360014298316,-1.4668120111410634
-0.89,2.24,-9.81,0.1736382535698523,0.2554144675751327,-0.2903997278487509,-121.8301142376418,-56.66661853000819,-1.4668120111410634
-0.89,2.24,-9.81,0.1736382535698523,0.2554144675751327,-0.2903997278487509,-121.8301142376418,-56.66661853000819,-1.4668120111410634
-0.85,2.52,-9.51,0.4744394053917866,0.4164877802973039,-0.048016162761403,-121.71235608620218,-56.8098734919699,-1.4209717482803246
-0.85,2.52,-9.51,0.4744394053917866,0.4164877802973039,-0.048016162761403,-121.71235608620218,-56.8098734919699,-1.4209717482803246
-0.8,2.6,-9.39,0.5919263061543673,0.4369871874082401,0.0582775488611169,-121.5009364289817,-57.03145830719132,-1.4095117183833985
-0.8,2.6,-9.39,0.5919263061543673,0.4369871874082401,0.0582775488611169,-121.5009364289817,-57.03145830719132,-1.4095117183833985
-1.12,2.27,-9.01,0.2294290586245426,0.5934913180799601,0.4694914192313106,-121.08017234591216,-57.47532863305489,-1.2605325708995527
-1.12,2.27,-9.01,0.2294290586245426,0.5934913180799601,0.4694914192313106,-121.08017234591216,-57.47532863305489,-1.2605325708995527
-0.94,2.26,-9.15,0.3364473194944605,0.4447274433418288,0.3513488042504065,-120.68528037991206,-57.94633904000565,-1.237612897472461
-0.94,2.26,-9.15,0.3364473194944605,0.4447274433418288,0.3513488042504065,-120.68528037991206,-57.94633904000565,-1.237612897472461
-0.92,1.63,-8.81,-0.0678790825026291,0.2395728937241364,0.8034618280938233,-120.17776326239716,-58.60230588655673,-1.1344749665222489
-0.92,1.63,-8.81,-0.0678790825026291,0.2395728937241364,0.8034618280938233,-120.17776326239716,-58.60230588655673,-1.1344749665222489
-0.34,1.28,-9.25,-0.0697991084484105,-0.4067361348988141,0.4714374260396497,-119.81110097439957,-59.11542551802431,-1.2146932735575866
-0.34,1.28,-9.25,-0.0697991084484105,-0.4067361348988141,0.4714374260396497,-119.81110097439957,-59.11542551802431,-1.2146932735575866
-0.32,1.58,-9.2,0.2349818038386764,-0.1627690097301477,0.4708538474838058,-119.24220793672814,-59.82805979528858,-1.4095117183833985
-0.32,1.58,-9.2,0.2349818038386764,-0.1627690097301477,0.4708538474838058,-119.24220793672814,-59.82805979528858,-1.4095117183833985
-0.48,1.27,-8.94,-0.053440393672231,-0.0413698475458382,0.7643973680482539,-118.88063215220504,-60.31782031136974,-1.5928739664684124
-0.48,1.27,-8.94,-0.053440393672231,-0.0413698475458382,0.7643973680482539,-118.88063215220504,-60.31782031136974,-1.5928739664684124
-0.22,1.3,-9.04,0.0966480575527138,-0.1147418449551073,0.6722374046555348,-118.38659680691794,-60.92841409128425,-2.0742204847835874
-0.22,1.3,-9.04,0.0966480575527138,-0.1147418449551073,0.6722374046555348,-118.38659680691794,-60.92841409128425,-2.0742204847835874
0.18,0.66,-9.49,-0.2956389325152928,-0.66736555398901,0.3200636361423381,-118.1186232350635,-61.28769792030866,-2.440984806055245
0.18,0.66,-9.49,-0.2956389325152928,-0.66736555398901,0.3200636361423381,-118.1186232350635,-61.28769792030866,-2.440984806055245
0.19,0.44,-9.29,-0.4725803415085488,-0.5764815101420401,0.5342103593615111,-117.82949322355816,-61.67434029817293,-3.0714215263829594
0.19,0.44,-9.29,-0.4725803415085488,-0.5764815101420401,0.5342103593615111,-117.82949322355816,-61.67434029817293,-3.0714215263829594
0.34,-0.04,-9.62,-0.8607195366506122,-0.7936782490347971,0.2520261604008205,-117.80730258048688,-61.78113721204743,-3.5873017007906127
0.34,-0.04,-9.62,-0.8607195366506122,-0.7936782490347971,0.2520261604008205,-117.80730258048688,-61.78113721204743,-3.5873017007906127
0.82,-0.09,-10.09,-0.7784910860331066,-1.0733607731258754,-0.2298059621253579,-117.89610796371052,-61.70103395154207,-4.401398006442045
0.82,-0.09,-10.09,-0.7784910860331066,-1.0733607731258754,-0.2298059621253579,-117.89610796371052,-61.70103395154207,-4.401398006442045
0.81,0.28,-10.09,-0.5389740215009622,-0.7461496328489948,-0.2777621162091801,-118.23015155570128,-61.327659484771935,-5.2271876941715805
0.81,0.28,-10.09,-0.5389740215009622,-0.7461496328489948,-0.2777621162091801,-118.23015155570128,-61.327659484771935,-5.2271876941715805
0.91,0.33,-9.69,-0.4722394640952259,-0.7040860428931428,0.1053947857117911,-118.56583115924386,-60.92841409128425,-5.904077101832591
0.91,0.33,-9.69,-0.4722394640952259,-0.7040860428931428,0.1053947857117911,-118.56583115924386,-60.92841409128425,-5.904077101832591
1.04,0.73,-10.21,-0.2352450526023336,-0.5095270638840375,-0.4667935286517189,-119.21955248767716,-60.18533311886693,-6.776309776380446
1.04,0.73,-10.21,-0.2352450526023336,-0.5095270638840375,-0.4667935286517189,-119.21955248767716,-60.18533311886693,-6.776309776380446
1.14,0.85,-10.39,-0.1833732700143193,-0.4617044502183267,-0.6684348800614934,-119.74257704437856,-59.56382572725951,-7.35035834348681
1.14,0.85,-10.39,-0.1833732700143193,-0.4617044502183267,-0.6684348800614934,-119.74257704437856,-59.56382572725951,-7.35035834348681
1.16,1.1,-10.19,-0.0292794108867509,-0.2787447622927677,-0.5041765465767831,-120.5695899160874,-58.64173070844467,-8.027974436112627
1.16,1.1,-10.19,-0.0292794108867509,-0.2787447622927677,-0.5041765465767831,-120.5695899160874,-58.64173070844467,-8.027974436112627
1.26,1.26,-10.58,0.0401865317432517,-0.2251793070672729,-0.9199188513305696,-121.24347666895368,-57.907047347217045,-8.41859128124216
1.26,1.26,-10.58,0.0401865317432517,-0.2251793070672729,-0.9199188513305696,-121.24347666895368,-57.907047347217045,-8.41859128124216
1.33,1.39,-10.65,0.1167919932461907,-0.2077454611529093,-1.013086662862177,-122.11362560713808,-56.94018936700064,-8.68288738926451
1.33,1.39,-10.65,0.1167919932461907,-0.2077454611529093,-1.013086662862177,-122.11362560713808,-56.94018936700064,-8.68288738926451
1.42,1.65,-10.85,0.3181169758861567,-0.1458511379041704,-1.2540429726498186,-122.82802018843608,-56.2114472624779,-8.774827247055486
1.42,1.65,-10.85,0.3181169758861567,-0.1458511379041704,-1.2540429726498186,-122.82802018843608,-56.2114472624779,-8.774827247055486
1.04,1.68,-10.25,0.2219727615353242,0.1209424094346353,-0.6289909015803411,-123.6476805433651,-55.35573541687352,-8.636919564056372
1.04,1.68,-10.25,0.2219727615353242,0.1209424094346353,-0.6289909015803411,-123.6476805433651,-55.35573541687352,-8.636919564056372
0.91,1.75,-10.14,0.2330619201796666,0.2067456661021344,-0.5187138372170796,-124.30646648477428,-54.735501492602346,-8.395611151395807
0.91,1.75,-10.14,0.2330619201796666,0.2067456661021344,-0.5187138372170796,-124.30646648477428,-54.735501492602346,-8.395611151395807
0.87,2.04,-10.34,0.4252690903413556,0.2908597605360794,-0.7559560610296909,-125.02213252137535,-54.00122182339204,-7.970538771598189
0.87,2.04,-10.34,0.4252690903413556,0.2908597605360794,-0.7559560610296909,-125.02213252137535,-54.00122182339204,-7.970538771598189
0.48,2.22,-9.84,0.4650311858095054,0.6298620790509676,-0.2616874872715815,-125.47069041747116,-53.59004542379221,-7.47667331573405
0.48,2.22,-9.84,0.4650311858095054,0.6298620790509676,-0.2616874872715815,-125.47069041747116,-53.59004542379221,-7.47667331573405
0.58,2.29,-9.91,0.6114181826167387,0.4677661883385442,-0.3518913617808774,-125.8974793863132,-53.16679865181976,-6.89110540785609
0.58,2.29,-9.91,0.6114181826167387,0.4677661883385442,-0.3518913617808774,-125.8974793863132,-53.16679865181976,-6.89110540785609
0.27,2.51,-9.53,0.6844563251173251,0.6972987199928843,-0.0035076966990281,-126.02359896120804,-53.0002800197644,-6.294241112432486
0.27,2.51,-9.53,0.6844563251173251,0.6972987199928843,-0.0035076966990281,-126.02359896120804,-53.0002800197644,-6.294241112432486
0.17,2.52,-9.45,0.7227575537133226,0.7122304976378786,0.0777163874818818,-126.02359896120804,-53.06431134668802,-5.686074397008276
0.17,2.52,-9.45,0.7227575537133226,0.7122304976378786,0.0777163874818818,-126.02359896120804,-53.06431134668802,-5.686074397008276
0.14,2.08,-9.42,0.4907066150222327,0.4055526213374687,0.1797536107528525,-125.821937957947,-53.35908614472047,-4.837200229263812
0.14,2.08,-9.42,0.4907066150222327,0.4055526213374687,0.1797536107528525,-125.821937957947,-53.35908614472047,-4.837200229263812
0.01,1.78,-9.48,0.2704604880754495,0.2789911104327609,0.168812323182161,-125.57083317422124,-53.667084063629616,-4.183521171347446
0.01,1.78,-9.48,0.2704604880754495,0.2789911104327609,0.168812323182161,-125.57083317422124,-53.667084063629616,-4.183521171347446
0.15,1.67,-9.56,0.3718057672147166,0.0174811011750816,0.1078637417835839,-125.09665734949913,-54.20709186156805,-3.40386984812725
0.15,1.67,-9.56,0.3718057672147166,0.0174811011750816,0.1078637417835839,-125.09665734949913,-54.20709186156805,-3.40386984812725
-0.06,1.39,-9.42,0.1311041221028801,0.001561068446205,0.2853628353235305,-124.67557399344672,-54.67099400962296,-2.8421620551927376
-0.06,1.39,-9.42,0.1311041221028801,0.001561068446205,0.2853628353235305,-124.67557399344672,-54.67099400962296,-2.8421620551927376
0.0,1.48,-9.5,0.3214746896560821,-0.0590614312227629,0.1976143683014442,-124.0127932062898,-55.38161658816516,-2.2575997541901875
0.0,1.48,-9.5,0.3214746896560821,-0.0590614312227629,0.1976143683014442,-124.0127932062898,-55.38161658816516,-2.2575997541901875
-0.54,0.97,-9.02,-0.266542843934267,0.1189927309952208,0.723275316419139,-123.502242338284,-55.92583364179144,-1.707477412974553
-0.54,0.97,-9.02,-0.266542843934267,0.1189927309952208,0.723275316419139,-123.502242338284,-55.92583364179144,-1.707477412974553
-0.32,0.96,-9.21,-0.1091580244526952,-0.0915660855498134,0.5423205489455594,-122.7801400993836,-56.69265769689071,-1.4095117183833985
-0.32,0.96,-9.21,-0.1091580244526952,-0.0915660855498134,0.5423205489455594,-122.7801400993836,-56.69265769689071,-1.4095117183833985
-0.22,0.53,-9.18,-0.3610868981653432,-0.3892463789002073,0.6240684725379975,-122.3033398527211,-57.21411483330135,-1.1917736982377245
-0.22,0.53,-9.18,-0.3610868981653432,-0.3892463789002073,0.6240684725379975,-122.3033398527211,-57.21411483330135,-1.1917736982377245
-0.72,0.56,-8.8,-0.5316661688979845,0.0928386418758058,0.9759811651141614,-121.6183055994286,-57.907047347217045,-0.985499555804114
-0.72,0.56,-8.8,-0.5316661688979845,0.0928386418758058,0.9759811651141614,-121.6183055994286,-57.907047347217045,-0.985499555804114
-0.65,0.19,-8.99,-0.8176839874954289,-0.0843478139049606,0.8287338529821929,-121.12678863705332,-58.484077048449976,-1.2605325708995527
-0.65,0.19,-8.99,-0.8176839874954289,-0.0843478139049606,0.8287338529821929,-121.12678863705332,-58.484077048449976,-1.2605325708995527
-0.02,0.48,-9.56,-0.3282447791715578,-0.4379742489249785,0.2502472289660567,-120.8011763350936,-58.825814107213525,-1.7303983035632713
-0.02,0.48,-9.56,-0.3282447791715578,-0.4379742489249785,0.2502472289660567,-120.8011763350936,-58.825814107213525,-1.7303983035632713
0.12,0.18,-9.99,-0.5341246988460016,-0.7009341975138217,-0.146756555387876,-120.54647637591216,-59.10225237254154,-1.7877008349543104
0.12,0.18,-9.99,-0.5341246988460016,-0.7009341975138217,-0.146756555387876,-120.54647637591216,-59.10225237254154,-1.7877008349543104
-0.09,0.32,-9.8,-0.516168044564006,-0.4018838210132792,0.02285932643289,-120.26974778474064,-59.39226049534915,-1.925228761643688
-0.09,0.32,-9.8,-0.516168044564006,-0.4018838210132792,0.02285932643289,-120.26974778474064,-59.39226049534915,-1.925228761643688
0.46,0.44,-10.42,-0.1861805696470135,-0.8050311787649517,-0.6000238969135712,-120.20074735368748,-59.497821729807775,-2.085681528609333
0.46,0.44,-10.42,-0.1861805696470135,-0.8050311787649517,-0.6000238969135712,-120.20074735368748,-59.497821729807775,-2.085681528609333
-0.08,0.61,-9.73,-0.2710824791029806,-0.2337452034603205,0.0637922329286411,-120.108859015364,-59.56382572725951,-2.0742204847835874
-0.08,0.61,-9.73,-0.2710824791029806,-0.2337452034603205,0.0637922329286411,-120.108859015364,-59.56382572725951,-2.0742204847835874
-0.13,0.7,-9.78,-0.2224705997118434,-0.1713977275213396,0.0047915205449751,-120.108859015364,-59.56382572725951,-2.0054546535892377
-0.13,0.7,-9.78,-0.2224705997118434,-0.1713977275213396,0.0047915205449751,-120.108859015364,-59.56382572725951,-2.0054546535892377
-0.08,0.86,-9.93,-0.0915221077188741,-0.1506508282173297,-0.1592833748403155,-120.13181910251944,-59.52422071985297,-2.085681528609333
-0.08,0.86,-9.93,-0.0915221077188741,-0.1506508282173297,-0.1592833748403155,-120.13181910251944,-59.52422071985297,-2.085681528609333
-0.19,0.97,-9.61,-0.0363121057109191,0.0056897402458042,0.1460211872448571,-120.17776326239716,-59.471426215105645,-2.085681528609333
-0.19,0.97,-9.61,-0.0363121057109191,0.0056897402458042,0.1460211872448571,-120.17776326239716,-59.471426215105645,-2.085681528609333
-0.01,1.09,-9.83,0.1302545832007758,-0.1207600513769206,-0.0820076820894488,-120.17776326239716,-59.43183945325738,-2.085681528609333
-0.01,1.09,-9.83,0.1302545832007758,-0.1207600513769206,-0.0820076820894488,-120.17776326239716,-59.43183945325738,-2.085681528609333
-0.21,0.88,-9.84,-0.1560345742202172,-0.0572743747740485,-0.0734549011456451,-120.20074735368748,-59.40545261479044,-2.0971425933011094
-0.21,0.88,-9.84,-0.1560345742202172,-0.0572743747740485,-0.0734549011456451,-120.20074735368748,-59.40545261479044,-2.0971425933011094
-0.12,0.92,-9.82,-0.0756170565131981,-0.1192217668531921,-0.0560711372456772,-120.22373946495335,-59.39226049534915,-2.085681528609333
-0.12,0.92,-9.82,-0.0756170565131981,-0.1192217668531921,-0.0560711372456772,-120.22373946495335,-59.39226049534915,-2.085681528609333
-0.28,1.02,-9.6,-0.0565744961798819,0.0751039781127552,0.1490126740877411,-120.2467396055226,-59.36587885432352,-2.0742204847835874
-0.28,1.02,-9.6,-0.0565744961798819,0.0751039781127552,0.1490126740877411,-120.2467396055226,-59.36587885432352,-2.0742204847835874
-0.01,1.0,-9.93,0.0368316718713374,-0.1861325174564674,-0.1717766351911667,-120.26974778474064,-59.35268933204871,-2.085681528609333
-0.01,1.0,-9.93,0.0368316718713374,-0.1861325174564674,-0.1717766351911667,-120.26974778474064,-59.35268933204871,-2.085681528609333
-0.23,0.66,-9.68,-0.3306481577412756,-0.1551499679622133,0.1083253878196259,-120.26974778474064,-59.33950067480581,-1.9939937526124856
-0.23,0.66,-9.68,-0.3306481577412756,-0.1551499679622133,0.1083253878196259,-120.26974778474064,-59.33950067480581,-1.9939937526124856
-0.15,0.73,-9.71,-0.2312356935453944,-0.1846043382316433,0.0725886023953652,-120.31578829659291,-59.299939889821125,-2.0054546535892377
-0.15,0.73,-9.71,-0.2312356935453944,-0.1846043382316433,0.0725886023953652,-120.31578829659291,-59.299939889821125,-2.0054546535892377
-0.22,1.06,-9.65,0.0169857279931865,0.0330660313325935,0.0961856381573334,-120.3388206480064,-59.2735703520065,-1.9825328715837247
-0.22,1.06,-9.65,0.0169857279931865,0.0330660313325935,0.0961856381573334,-120.3388206480064,-59.2735703520065,-1.9825328715837247
-0.07,0.99,-9.81,0.0202909121908012,-0.1626779908398183,-0.0520631082194924,-120.38490958888936,-59.22084162921026,-1.925228761643688
-0.07,0.99,-9.81,0.0202909121908012,-0.1626779908398183,-0.0520631082194924,-120.38490958888936,-59.22084162921026,-1.925228761643688
-0.37,1.15,-9.46,0.033485085610628,0.1812757211333952,0.2716084236895302,-120.36186107562722,-59.22084162921026,-1.856464464018338
-0.37,1.15,-9.46,0.033485085610628,0.1812757211333952,0.2716084236895302,-120.36186107562722,-59.22084162921026,-1.856464464018338
-0.16,1.11,-9.78,0.077526711895196,-0.0417952593480731,-0.0370455847506132,-120.36186107562722,-59.23402251666461,-1.8793858210517669
-0.16,1.11,-9.78,0.077526711895196,-0.0417952593480731,-0.0370455847506132,-120.36186107562722,-59.23402251666461,-1.8793858210517669
-0.24,0.86,-9.79,-0.1674978023121066,-0.1018434359045012,-0.0220260248155366,-120.3388206480064,-59.2603868777191,-1.8220825674649568
-0.24,0.86,-9.79,-0.1674978023121066,-0.1018434359045012,-0.0220260248155366,-120.3388206480064,-59.2603868777191,-1.8220825674649568
-0.17,0.93,-9.72,-0.0587292044570406,-0.1278272729638127,0.0417940835601413,-120.3388206480064,-59.2603868777191,-1.7647797695524667
-0.17,0.93,-9.72,-0.0587292044570406,-0.1278272729638127,0.0417940835601413,-120.3388206480064,-59.2603868777191,-1.7647797695524667
-0.33,0.96,-9.59,-0.1073672688740161,0.0296820927343472,0.1637152162868265,-120.31578829659291,-59.2603868777191,-1.7647797695524667
-0.33,0.96,-9.59,-0.1073672688740161,0.0296820927343472,0.1637152162868265,-120.31578829659291,-59.2603868777191,-1.7647797695524667
-0.08,0.97,-10.06,-0.0048935091048202,-0.2180991543114677,-0.2979681923147055,-120.36186107562722,-59.24720426605303,-1.741858774764144
-0.08,0.97,-10.06,-0.0048935091048202,-0.2180991543114677,-0.2979681923147055,-120.36186107562722,-59.24720426605303,-1.741858774764144
-0.3,1.09,-9.65,0.0122413941362693,0.0574134168104847,0.0908302276987544,-120.3388206480064,-59.24720426605303,-1.7533192633889718
-0.3,1.09,-9.65,0.0122413941362693,0.0574134168104847,0.0908302276987544,-120.3388206480064,-59.24720426605303,-1.7533192633889718
-0.1,1.16,-9.74,0.1635332601334887,-0.0884891037316301,-0.000930055821664,-120.3388206480064,-59.24720426605303,-1.7647797695524667
-0.1,1.16,-9.74,0.1635332601334887,-0.0884891037316301,-0.000930055821664,-120.3388206480064,-59.24720426605303,-1.7647797695524667
-0.36,1.0,-9.61,-0.087221065130528,0.0481401924157042,0.1385697868619377,-120.3388206480064,-59.24720426605303,-1.6730962049034406
-0.36,1.0,-9.61,-0.087221065130528,0.0481401924157042,0.1385697868619377,-120.3388206480064,-59.24720426605303,-1.6730962049034406
-0.23,1.0,-9.84,-0.0398933329749285,-0.083739528360099,-0.0862715206315183,-120.31578829659291,-59.2603868777191,-1.6730962049034406
-0.23,1.0,-9.84,-0.0398933329749285,-0.083739528360099,-0.0862715206315183,-120.31578829659291,-59.2603868777191,-1.6730962049034406
-0.31,1.02,-9.54,-0.0367946637627725,0.0129092087691181,0.2073490095607741,-120.31578829659291,-59.2603868777191,-1.638715147453804
-0.31,1.02,-9.54,-0.0367946637627725,0.0129092087691181,0.2073490095607741,-120.31578829659291,-59.2603868777191,-1.638715147453804
-0.22,1.03,-9.81,-0.0034280629812063,-0.081397961285518,-0.0593908787052388,-120.26974778474064,-59.286754689259176,-1.638715147453804
-0.22,1.03,-9.81,-0.0034280629812063,-0.081397961285518,-0.0593908787052388,-120.26974778474064,-59.286754689259176,-1.638715147453804
-0.51,0.93,-9.53,-0.2105660104955864,0.1353813940089453,0.2210757431607106,-120.2467396055226,-59.32631288225003,-1.6043342375287626
-0.51,0.93,-9.53,-0.2105660104955864,0.1353813940089453,0.2210757431607106,-120.2467396055226,-59.32631288225003,-1.6043342375287626
-0.21,1.06,-9.68,0.0367832439388953,-0.0709118062657207,0.0668492572385002,-120.20074735368748,-59.35268933204871,-1.6272548279067642
-0.21,1.06,-9.68,0.0367832439388953,-0.0709118062657207,0.0668492572385002,-120.20074735368748,-59.35268933204871,-1.6272548279067642
-0.22,1.03,-9.74,-0.0040111429243056,-0.0680016552373017,0.0101067481372556,-120.20074735368748,-59.36587885432352,-1.6960169933572922
-0.22,1.03,-9.74,-0.0040111429243056,-0.0680016552373017,0.0101067481372556,-120.20074735368748,-59.36587885432352,-1.6960169933572922
-0.24,1.09,-9.67,0.0412930064753053,-0.0188903083439403,0.072558463350731,-120.13181910251944,-59.43183945325738,-1.6960169933572922
-0.24,1.09,-9.67,0.0412930064753053,-0.0188903083439403,0.072558463350731,-120.13181910251944,-59.43183945325738,-1.6960169933572922
-0.06,1.02,-9.83,0.0672092191355376,-0.221561735724757,-0.0735976344535931,-120.108859015364,-59.471426215105645,-1.6616358358374437
-0.06,1.02,-9.83,0.0672092191355376,-0.221561735724757,-0.0735976344535931,-120.108859015364,-59.471426215105645,-1.6616358358374437
