,TIME,ELAPSED_SECONDS,PSTATE,acc_x,acc_y,acc_z,mag_x,mag_y,mag_z,gyr_x,gyr_y,gyr_z,lin_x,lin_y,lin_z,eul_x,eul_y,eul_z,qua_w,qua_x,qua_y,qua_z
0,3130640.0,41.235738,1.0,-0.36,1.72,-10.46,19.25,-18.56,26.75,-2.75,-1.31,-0.81,0.6372436161359436,-0.7033346861990488,-0.7573852561359491,-129.88954402446632,-48.522767881927,2.6473004867786654,-0.099,-0.9059,-0.4109,0.0231
1,3130640.0,41.235738,1.0,-0.36,1.72,-10.46,19.25,-18.56,26.75,-2.75,-1.31,-0.81,0.6372436161359436,-0.7033346861990488,-0.7573852561359491,-129.88954402446632,-48.522767881927,2.6473004867786654,-0.099,-0.9059,-0.4109,0.0231
2,3130675.0,41.239156,1.0,-1.56,1.69,-9.3,19.25,-18.56,26.75,1.37,-6.81,-0.44,-0.0840857434484932,0.3417414451738032,0.23294421945716515,-129.86249210271768,-48.522767881927,3.048495041051397,-0.1005,-0.9058,-0.4109,0.0266
3,3130675.0,41.239156,1.0,-1.56,1.69,-9.3,19.25,-18.56,26.75,1.37,-6.81,-0.44,-0.0840857434484932,0.3417414451738032,0.23294421945716515,-129.86249210271768,-48.522767881927,3.048495041051397,-0.1005,-0.9058,-0.4109,0.0266
4,3130710.0,41.316637,1.0,-1.54,1.74,-9.39,19.69,-19.0,26.0,0.12,1.37,-1.81,-0.03501654686679448,0.3422037253260015,0.13954234301083626,-129.80842917390058,-48.54790766181375,3.048495041051397,-0.1004,-0.9056,-0.4111,0.0266
5,3130710.0,41.316637,1.0,-1.54,1.74,-9.39,19.69,-19.0,26.0,0.12,1.37,-1.81,-0.03501654686679448,0.3422037253260015,0.13954234301083626,-129.80842917390058,-48.54790766181375,3.048495041051397,-0.1004,-0.9056,-0.4111,0.0266
6,3130744.0,41.357457000000004,1.0,-0.65,1.56,-10.16,20.37,-19.0,24.37,-1.06,0.5,-0.88,0.37608920983196,-0.5678251383298081,-0.4704036399557978,-129.80842917390058,-48.57304992918911,2.9224015288032215,-0.0998,-0.9056,-0.4113,0.0255
7,3130744.0,41.357457000000004,1.0,-0.65,1.56,-10.16,20.37,-19.0,24.37,-1.06,0.5,-0.88,0.37608920983196,-0.5678251383298081,-0.4704036399557978,-129.80842917390058,-48.57304992918911,2.9224015288032215,-0.0998,-0.9056,-0.4113,0.0255
8,3130781.0,41.408871000000005,1.0,-1.36,1.67,-9.56,20.37,-19.0,24.37,1.31,-14.5,-1.5,0.047267395962084124,0.10480354465276598,0.007727507689571311,-129.75442065073912,-48.58562199629408,3.2204467196467967,-0.1011,-0.9054,-0.4114,0.0281
9,3130781.0,41.408871000000005,1.0,-1.36,1.67,-9.56,20.37,-19.0,24.37,1.31,-14.5,-1.5,0.047267395962084124,0.10480354465276598,0.007727507689571311,-129.75442065073912,-48.58562199629408,3.2204467196467967,-0.1011,-0.9054,-0.4114,0.0281
10,3130814.0,41.474981,1.0,-1.55,1.54,-9.37,20.06,-18.19,24.75,-1.19,2.75,-0.37,-0.1442885476838215,0.18290371646527825,0.18808841078560867,-129.72743673627951,-48.57304992918911,3.40386984812725,-0.1014,-0.9053,-0.4113,0.0297
11,3130814.0,41.474981,1.0,-1.55,1.54,-9.37,20.06,-18.19,24.75,-1.19,2.75,-0.37,-0.1442885476838215,0.18290371646527825,0.18808841078560867,-129.72743673627951,-48.57304992918911,3.40386984812725,-0.1014,-0.9053,-0.4113,0.0297
12,3130851.0,41.477614,1.0,-1.25,1.62,-9.58,19.25,-19.0,25.19,-0.44,11.38,1.12,0.06066039287879961,0.011998762200303823,0.010759211182403305,-129.78141812262746,-48.58562199629408,3.048495041051397,-0.1004,-0.9055,-0.4114,0.0266
13,3130851.0,41.477614,1.0,-1.25,1.62,-9.58,19.25,-19.0,25.19,-0.44,11.38,1.12,0.06066039287879961,0.011998762200303823,0.010759211182403305,-129.78141812262746,-48.58562199629408,3.048495041051397,-0.1004,-0.9055,-0.4114,0.0266
14,3130886.0,41.480138000000004,1.0,-0.87,1.67,-9.93,20.37,-18.56,27.56,0.25,-8.25,-0.12,0.3349458556277129,-0.3072709961245782,-0.2900868891507944,-129.80842917390058,-48.57304992918911,3.0370318442136965,-0.1004,-0.9056,-0.4113,0.0265
15,3130886.0,41.480138000000004,1.0,-0.87,1.67,-9.93,20.37,-18.56,27.56,0.25,-8.25,-0.12,0.3349458556277129,-0.3072709961245782,-0.2900868891507944,-129.80842917390058,-48.57304992918911,3.0370318442136965,-0.1004,-0.9056,-0.4113,0.0265
16,3130920.0,41.54821,1.0,-1.53,1.48,-9.44,20.37,-18.56,27.56,0.31,-4.38,1.06,-0.19964556738121625,0.13092477460052787,0.13256604590797316,-129.80842917390058,-48.522767881927,3.254837913384077,-0.1011,-0.9056,-0.4109,0.0284
17,3130920.0,41.54821,1.0,-1.53,1.48,-9.44,20.37,-18.56,27.56,0.31,-4.38,1.06,-0.19964556738121625,0.13092477460052787,0.13256604590797316,-129.80842917390058,-48.522767881927,3.254837913384077,-0.1011,-0.9056,-0.4109,0.0284
18,3130957.0,41.554860999999995,1.0,-1.27,1.78,-9.73,19.69,-18.19,26.0,-0.5,5.25,0.75,0.1678272751596894,0.08077089855085551,-0.16428325961315515,-129.83545382657294,-48.51019892418311,3.1287382797377283,-0.1011,-0.9057,-0.4108,0.0273
19,3130957.0,41.554860999999995,1.0,-1.27,1.78,-9.73,19.69,-18.19,26.0,-0.5,5.25,0.75,0.1678272751596894,0.08077089855085551,-0.16428325961315515,-129.83545382657294,-48.51019892418311,3.1287382797377283,-0.1011,-0.9057,-0.4108,0.0273
20,3130992.0,41.604948,1.0,-1.0,1.71,-9.84,18.87,-18.19,26.5,0.75,7.5,1.94,0.2629744744910664,-0.14734271278228528,-0.2262376476693415,-129.9166096140095,-48.47249577682955,2.8994758203914888,-0.0999,-0.9059999999999999,-0.4105,0.0253
21,3130992.0,41.604948,1.0,-1.0,1.71,-9.84,18.87,-18.19,26.5,0.75,7.5,1.94,0.2629744744910664,-0.14734271278228528,-0.2262376476693415,-129.9166096140095,-48.47249577682955,2.8994758203914888,-0.0999,-0.9059999999999999,-0.4105,0.0253
22,3131027.0,41.615753000000005,1.0,-1.21,1.67,-9.61,18.87,-18.19,26.5,1.5,-8.63,0.19,0.11672960930291255,0.008896889165605826,-0.021442136507225484,-129.9166096140095,-48.44736344772761,3.025568677774776,-0.1005,-0.9059999999999999,-0.4103,0.0264
23,3131027.0,41.615753000000005,1.0,-1.21,1.67,-9.61,18.87,-18.19,26.5,1.5,-8.63,0.19,0.11672960930291255,0.008896889165605826,-0.021442136507225484,-129.9166096140095,-48.44736344772761,3.025568677774776,-0.1005,-0.9059999999999999,-0.4103,0.0264
24,3131060.0,41.658553999999995,1.0,-1.44,1.61,-9.61,20.37,-18.56,24.75,-1.0,-1.88,-1.5,-0.06252082508601832,0.1211992194783591,-0.0421672841021099,-129.86249210271768,-48.47249577682955,3.163128706652845,-0.10099999999999999,-0.9058,-0.4105,0.0276
25,3131060.0,41.658553999999995,1.0,-1.44,1.61,-9.61,20.37,-18.56,24.75,-1.0,-1.88,-1.5,-0.06252082508601832,0.1211992194783591,-0.0421672841021099,-129.86249210271768,-48.47249577682955,3.163128706652845,-0.10099999999999999,-0.9058,-0.4105,0.0276
26,3131097.0,41.675529,1.0,-1.07,1.68,-9.81,19.69,-18.56,25.56,0.0,3.75,0.19,0.21152009764155225,-0.1360372276018098,-0.2003552024069677,-129.88954402446632,-48.47249577682955,3.048495041051397,-0.1008,-0.9059,-0.4105,0.0266
27,3131097.0,41.675529,1.0,-1.07,1.68,-9.81,19.69,-18.56,25.56,0.0,3.75,0.19,0.21152009764155225,-0.1360372276018098,-0.2003552024069677,-129.88954402446632,-48.47249577682955,3.048495041051397,-0.1008,-0.9059,-0.4105,0.0266
28,3131133.0,41.711677,1.0,-0.81,1.69,-10.05,20.37,-18.56,26.5,1.88,-7.5,0.12,0.4141593709079943,-0.3847469953587065,-0.4009521555040792,-129.88954402446632,-48.45992930219389,3.243374149708243,-0.1008,-0.9059,-0.4104,0.0283
29,3131133.0,41.711677,1.0,-0.81,1.69,-10.05,20.37,-18.56,26.5,1.88,-7.5,0.12,0.4141593709079943,-0.3847469953587065,-0.4009521555040792,-129.88954402446632,-48.45992930219389,3.243374149708243,-0.1008,-0.9059,-0.4104,0.0283
30,3131166.0,41.758684,1.0,-1.76,1.58,-9.2,20.37,-18.56,26.5,-1.06,-1.31,-0.12,-0.2468430507934674,0.4032647714640696,0.31926648122249723,-129.86249210271768,-48.44736344772761,3.4153340784378665,-0.1011,-0.9058,-0.4103,0.0298
31,3131166.0,41.758684,1.0,-1.76,1.58,-9.2,20.37,-18.56,26.5,-1.06,-1.31,-0.12,-0.2468430507934674,0.4032647714640696,0.31926648122249723,-129.86249210271768,-48.44736344772761,3.4153340784378665,-0.1011,-0.9058,-0.4103,0.0298
32,3131203.0,41.850566,1.0,-1.48,1.74,-9.37,20.37,-18.19,26.5,-1.31,13.38,2.75,-0.003626409267816349,0.2968861367892313,0.16679805762359304,-129.9166096140095,-48.44736344772761,3.025568677774776,-0.1008,-0.9059999999999999,-0.4103,0.0264
33,3131203.0,41.850566,1.0,-1.48,1.74,-9.37,20.37,-18.19,26.5,-1.31,13.38,2.75,-0.003626409267816349,0.2968861367892313,0.16679805762359304,-129.9166096140095,-48.44736344772761,3.025568677774776,-0.1008,-0.9059999999999999,-0.4103,0.0264
34,3131238.0,41.855627,1.0,-1.01,1.87,-9.77,20.37,-18.19,24.5,4.63,-11.81,-0.94,0.4015418135115155,-0.05301046466799497,-0.1836379869720268,-129.9166096140095,-48.434798213187825,3.094348134689141,-0.1008,-0.9059999999999999,-0.4102,0.027000000000000003
35,3131238.0,41.855627,1.0,-1.01,1.87,-9.77,20.37,-18.19,24.5,4.63,-11.81,-0.94,0.4015418135115155,-0.05301046466799497,-0.1836379869720268,-129.9166096140095,-48.434798213187825,3.094348134689141,-0.1008,-0.9059999999999999,-0.4102,0.027000000000000003
36,3131273.0,41.865517,1.0,-1.46,1.35,-9.51,20.37,-18.19,24.5,3.81,1.31,1.19,-0.24657603498080302,0.005139028395884204,0.09411305801824454,-129.97078188553854,-48.40966960291665,3.243374149708243,-0.0998,-0.9062,-0.41,0.0283
37,3131273.0,41.865517,1.0,-1.46,1.35,-9.51,20.37,-18.19,24.5,3.81,1.31,1.19,-0.24657603498080302,0.005139028395884204,0.09411305801824454,-129.97078188553854,-48.40966960291665,3.243374149708243,-0.0998,-0.9062,-0.41,0.0283
38,3131308.0,41.904467,1.0,-1.19,1.55,-9.83,20.75,-18.56,25.25,1.5,7.13,0.88,0.04492387455488656,-0.10467245213423426,-0.21505272574771966,-129.97078188553854,-48.44736344772761,3.0370318442136965,-0.0992,-0.9062,-0.4103,0.0265
39,3131308.0,41.904467,1.0,-1.19,1.55,-9.83,20.75,-18.56,25.25,1.5,7.13,0.88,0.04492387455488656,-0.10467245213423426,-0.21505272574771966,-129.97078188553854,-48.44736344772761,3.0370318442136965,-0.0992,-0.9062,-0.4103,0.0265
40,3131344.0,41.920353000000006,1.0,-0.74,1.69,-10.06,19.69,-18.19,25.25,-0.12,-13.75,-1.12,0.4506904135012296,-0.4137895250499093,-0.4028042645597392,-129.9436888935972,-48.434798213187825,3.140201723904295,-0.0999,-0.9061,-0.4102,0.0274
41,3131344.0,41.920353000000006,1.0,-0.74,1.69,-10.06,19.69,-18.19,25.25,-0.12,-13.75,-1.12,0.4506904135012296,-0.4137895250499093,-0.4028042645597392,-129.9436888935972,-48.434798213187825,3.140201723904295,-0.0999,-0.9061,-0.4102,0.0274
42,3131379.0,41.972502,1.0,-1.76,1.46,-9.31,19.69,-18.19,25.25,0.69,1.44,0.31,-0.3461617977015259,0.3288262482489143,0.2318212648071558,-129.9436888935972,-48.40966960291665,3.32362118371626,-0.1,-0.9061,-0.41,0.028999999999999998
43,3131379.0,41.972502,1.0,-1.76,1.46,-9.31,19.69,-18.19,25.25,0.69,1.44,0.31,-0.3461617977015259,0.3288262482489143,0.2318212648071558,-129.9436888935972,-48.40966960291665,3.32362118371626,-0.1,-0.9061,-0.41,0.028999999999999998
44,3131414.0,42.023475,1.0,-1.42,1.73,-9.81,19.25,-18.56,25.56,-0.94,10.5,0.94,0.01826744644152836,0.189206007686048,-0.2536316753337502,-129.99788861220236,-48.40966960291665,2.9797163137078666,-0.0992,-0.9063,-0.41,0.026000000000000002
45,3131414.0,42.023475,1.0,-1.42,1.73,-9.81,19.25,-18.56,25.56,-0.94,10.5,0.94,0.01826744644152836,0.189206007686048,-0.2536316753337502,-129.99788861220236,-48.40966960291665,2.9797163137078666,-0.0992,-0.9063,-0.41,0.026000000000000002
46,3131449.0,42.059695,1.0,-1.41,1.62,-9.97,20.37,-18.56,25.56,3.56,-8.5,1.44,-0.055560268828121866,0.08183080854209679,-0.3915663526423128,-130.02500909601727,-48.371981330891565,3.014105541619682,-0.0989,-0.9064,-0.4097,0.0263
47,3131449.0,42.059695,1.0,-1.41,1.62,-9.97,20.37,-18.56,25.56,3.56,-8.5,1.44,-0.055560268828121866,0.08183080854209679,-0.3915663526423128,-130.02500909601727,-48.371981330891565,3.014105541619682,-0.0989,-0.9064,-0.4097,0.0263
48,3131486.0,42.109677000000005,1.0,-2.22,1.17,-9.91,19.25,-19.0,25.19,-1.81,3.88,5.44,-0.8904315338298661,0.3958341075277543,-0.3695893369495362,-130.18802216268048,-48.20872972254528,3.2319104185008167,-0.0982,-0.907,-0.4084,0.0282
49,3131486.0,42.109677000000005,1.0,-2.22,1.17,-9.91,19.25,-19.0,25.19,-1.81,3.88,5.44,-0.8904315338298661,0.3958341075277543,-0.3695893369495362,-130.18802216268048,-48.20872972254528,3.2319104185008167,-0.0982,-0.907,-0.4084,0.0282
50,3131518.0,42.122944,1.0,-1.6,2.5,-11.03,19.25,-19.0,25.19,-21.19,-16.25,2.13,0.44163368628936495,0.5052927641256931,-1.5960049061899042,-130.24247093533856,-48.070674990989744,3.2089830530311807,-0.1017,-0.9072,-0.4073,0.027999999999999997
51,3131518.0,42.122944,1.0,-1.6,2.5,-11.03,19.25,-19.0,25.19,-21.19,-16.25,2.13,0.44163368628936495,0.5052927641256931,-1.5960049061899042,-130.24247093533856,-48.070674990989744,3.2089830530311807,-0.1017,-0.9072,-0.4073,0.027999999999999997
52,3131557.0,42.128344,1.0,-2.48,2.17,-10.73,20.06,-19.37,26.0,-5.25,-65.12,4.69,-0.25797145420291,0.7267813972822577,-1.3914498177985948,-130.0792914251156,-47.84492701246389,4.389930414609093,-0.1103,-0.9066,-0.4055,0.0383
53,3131557.0,42.128344,1.0,-2.48,2.17,-10.73,20.06,-19.37,26.0,-5.25,-65.12,4.69,-0.25797145420291,0.7267813972822577,-1.3914498177985948,-130.0792914251156,-47.84492701246389,4.389930414609093,-0.1103,-0.9066,-0.4055,0.0383
54,3131592.0,42.195484,1.0,-2.74,1.53,-10.75,20.37,-19.0,25.56,-2.25,-83.19,6.81,-0.5348016127409123,-0.0020355525263255907,-1.3792779048068071,-129.88954402446632,-47.168860218257045,7.247016388579905,-0.12300000000000001,-0.9059,-0.4001,0.0632
55,3131592.0,42.195484,1.0,-2.74,1.53,-10.75,20.37,-19.0,25.56,-2.25,-83.19,6.81,-0.5348016127409123,-0.0020355525263255907,-1.3792779048068071,-129.88954402446632,-47.168860218257045,7.247016388579905,-0.12300000000000001,-0.9059,-0.4001,0.0632
56,3131627.0,42.204301,1.0,-2.32,1.63,-11.91,20.37,-19.0,25.56,-1.56,-75.75,22.37,0.14361273786973294,-0.911519151144125,-2.4013763850722025,-130.0792914251156,-46.282594858931596,9.280599254023052,-0.131,-0.9066,-0.39299999999999996,0.0809
57,3131627.0,42.204301,1.0,-2.32,1.63,-11.91,20.37,-19.0,25.56,-1.56,-75.75,22.37,0.14361273786973294,-0.911519151144125,-2.4013763850722025,-130.0792914251156,-46.282594858931596,9.280599254023052,-0.131,-0.9066,-0.39299999999999996,0.0809
58,3131660.0,42.264886,1.0,-3.11,2.63,-11.2,21.5,-19.0,22.5,-13.06,-91.5,17.81,0.6523811648665736,-0.07496209341513893,-2.092836522547019,-129.78141812262746,-45.175757046056106,12.054333120262198,-0.1469,-0.9055,-0.3841,0.105
59,3131660.0,42.264886,1.0,-3.11,2.63,-11.2,21.5,-19.0,22.5,-13.06,-91.5,17.81,0.6523811648665736,-0.07496209341513893,-2.092836522547019,-129.78141812262746,-45.175757046056106,12.054333120262198,-0.1469,-0.9055,-0.3841,0.105
60,3131697.0,42.267584,1.0,-4.28,3.02,-9.58,22.25,-20.06,21.19,2.69,-101.81,8.06,0.3233835017901397,1.0802959188847203,-1.0535334164258447,-129.1104989092044,-44.444462000793465,14.650301303680088,-0.1589,-0.903,-0.3782,0.1275
61,3131697.0,42.267584,1.0,-4.28,3.02,-9.58,22.25,-20.06,21.19,2.69,-101.81,8.06,0.3233835017901397,1.0802959188847203,-1.0535334164258447,-129.1104989092044,-44.444462000793465,14.650301303680088,-0.1589,-0.903,-0.3782,0.1275
62,3131734.0,42.305036,1.0,-4.83,2.84,-8.55,25.25,-20.06,17.87,24.44,-78.44,5.69,0.12721797462239506,1.3858279594826683,-0.3205557574460851,-128.5268474503853,-43.579286875788114,17.845191938186247,-0.1636,-0.9008,-0.3712,0.1551
63,3131734.0,42.305036,1.0,-4.83,2.84,-8.55,25.25,-20.06,17.87,24.44,-78.44,5.69,0.12721797462239506,1.3858279594826683,-0.3205557574460851,-128.5268474503853,-43.579286875788114,17.845191938186247,-0.1636,-0.9008,-0.3712,0.1551
64,3131768.0,42.369772999999995,1.0,-4.28,2.79,-9.02,25.25,-20.06,17.87,41.25,-57.69,2.06,0.8538594883682865,0.7238835226244524,-0.4991646994692402,-128.2898515902458,-43.01216531236248,19.854779083760317,-0.1612,-0.8999,-0.3666,0.1724
65,3131768.0,42.369772999999995,1.0,-4.28,2.79,-9.02,25.25,-20.06,17.87,41.25,-57.69,2.06,0.8538594883682865,0.7238835226244524,-0.4991646994692402,-128.2898515902458,-43.01216531236248,19.854779083760317,-0.1612,-0.8999,-0.3666,0.1724
66,3131805.0,42.372453,1.0,-3.68,3.22,-8.3,26.06,-19.69,17.56,25.44,-52.75,-16.37,1.7923767476200143,0.8817915489264601,0.3827108417269045,-127.66274936627121,-42.72901972322527,22.232468575814032,-0.1572,-0.8975,-0.3643,0.1928
67,3131805.0,42.372453,1.0,-3.68,3.22,-8.3,26.06,-19.69,17.56,25.44,-52.75,-16.37,1.7923767476200143,0.8817915489264601,0.3827108417269045,-127.66274936627121,-42.72901972322527,22.232468575814032,-0.1572,-0.8975,-0.3643,0.1928
68,3131840.0,42.443585,1.0,-3.93,2.84,-6.7,27.19,-19.69,16.37,27.69,-44.94,-22.94,1.2300883418284871,1.4006321456217945,1.7490069039111358,-126.73497195223709,-42.97521768410124,23.928344197778117,-0.1542,-0.8939,-0.3663,0.2073
69,3131840.0,42.443585,1.0,-3.93,2.84,-6.7,27.19,-19.69,16.37,27.69,-44.94,-22.94,1.2300883418284871,1.4006321456217945,1.7490069039111358,-126.73497195223709,-42.97521768410124,23.928344197778117,-0.1542,-0.8939,-0.3663,0.2073
70,3131875.0,42.500549,1.0,-2.91,3.98,-6.87,27.19,-19.69,16.37,26.62,-24.81,-35.25,3.0040387340939096,1.4805048578384217,2.042034320522985,-125.57083317422124,-43.60396968900631,25.512050354420897,-0.1495,-0.8893,-0.3714,0.2208
71,3131875.0,42.500549,1.0,-2.91,3.98,-6.87,27.19,-19.69,16.37,26.62,-24.81,-35.25,3.0040387340939096,1.4805048578384217,2.042034320522985,-125.57083317422124,-43.60396968900631,25.512050354420897,-0.1495,-0.8893,-0.3714,0.2208
72,3131910.0,42.507153,1.0,-3.62,2.13,-5.4,26.87,-17.87,15.56,35.06,-20.81,-56.06,1.0819381842535074,1.3566297058571208,3.1892286286015987,-123.93959592332432,-45.10129990098643,27.077153605664893,-0.1378,-0.8827,-0.3835,0.2341
73,3131910.0,42.507153,1.0,-3.62,2.13,-5.4,26.87,-17.87,15.56,35.06,-20.81,-56.06,1.0819381842535074,1.3566297058571208,3.1892286286015987,-123.93959592332432,-45.10129990098643,27.077153605664893,-0.1378,-0.8827,-0.3835,0.2341
74,3131947.0,42.558625,1.0,-3.25,1.8,-5.17,29.87,-16.69,15.56,32.06,6.44,-65.12,1.1487245498637035,1.0921293096314182,3.6406881545468153,-122.37462983210787,-46.98137369898728,27.57245336826063,-0.1286,-0.8762,-0.3986,0.2383
75,3131947.0,42.558625,1.0,-3.25,1.8,-5.17,29.87,-16.69,15.56,32.06,6.44,-65.12,1.1487245498637035,1.0921293096314182,3.6406881545468153,-122.37462983210787,-46.98137369898728,27.57245336826063,-0.1286,-0.8762,-0.3986,0.2383
76,3131983.0,42.574042999999996,1.0,-3.17,0.78,-5.46,29.87,-16.69,15.56,47.81,24.75,-70.37,0.7075274551185429,0.5148529218292577,3.5055999788418326,-120.89404187117351,-49.27805128980349,27.87933033417513,-0.1069,-0.8699,-0.4169,0.2409
77,3131983.0,42.574042999999996,1.0,-3.17,0.78,-5.46,29.87,-16.69,15.56,47.81,24.75,-70.37,0.7075274551185429,0.5148529218292577,3.5055999788418326,-120.89404187117351,-49.27805128980349,27.87933033417513,-0.1069,-0.8699,-0.4169,0.2409
78,3132018.0,42.668191,1.0,-3.84,-0.52,-4.89,30.19,-14.5,17.19,38.19,17.12,-79.37,-0.7009745349472776,0.6002453805414226,3.6360389942328943,-119.56019073883043,-51.17639894970855,28.0210345439132,-0.0898,-0.8641,-0.4319,0.2421
79,3132018.0,42.668191,1.0,-3.84,-0.52,-4.89,30.19,-14.5,17.19,38.19,17.12,-79.37,-0.7009745349472776,0.6002453805414226,3.6360389942328943,-119.56019073883043,-51.17639894970855,28.0210345439132,-0.0898,-0.8641,-0.4319,0.2421
80,3132053.0,42.745115999999996,1.0,-3.69,-0.64,-5.12,30.56,-11.88,18.37,29.25,42.25,-77.56,-0.4999242391917134,0.6623909785459993,3.5176585111673524,-117.69645604638977,-53.98836120988355,27.584252585600556,-0.069,-0.8558,-0.4539,0.2384
81,3132053.0,42.745115999999996,1.0,-3.69,-0.64,-5.12,30.56,-11.88,18.37,29.25,42.25,-77.56,-0.4999242391917134,0.6623909785459993,3.5176585111673524,-117.69645604638977,-53.98836120988355,27.584252585600556,-0.069,-0.8558,-0.4539,0.2384
82,3132090.0,42.754255,1.0,-2.69,-3.11,-6.78,31.0,-8.69,19.56,59.75,73.94,-74.37,-1.386274578309786,-1.6348255211000342,2.172372803755942,-116.59757736800644,-56.00369069764568,26.770798221316568,-0.0457,-0.8508,-0.4695,0.2315
83,3132090.0,42.754255,1.0,-2.69,-3.11,-6.78,31.0,-8.69,19.56,59.75,73.94,-74.37,-1.386274578309786,-1.6348255211000342,2.172372803755942,-116.59757736800644,-56.00369069764568,26.770798221316568,-0.0457,-0.8508,-0.4695,0.2315
84,3132123.0,42.756855,1.0,-3.05,-2.93,-6.39,31.0,-8.69,19.56,33.13,65.75,-69.81,-1.5002471548332448,-0.6073709808961383,2.3166660904058007,-115.36530326577595,-58.352791710028974,25.253635128091673,-0.0184,-0.8451,-0.4875,0.2186
85,3132123.0,42.756855,1.0,-3.05,-2.93,-6.39,31.0,-8.69,19.56,33.13,65.75,-69.81,-1.5002471548332448,-0.6073709808961383,2.3166660904058007,-115.36530326577595,-58.352791710028974,25.253635128091673,-0.0184,-0.8451,-0.4875,0.2186
86,3132160.0,42.759215999999995,1.0,-1.49,-3.18,-7.29,31.37,-4.88,22.5,35.19,86.69,-64.69,-0.7925889379853265,-1.8188511775643657,1.9618948623774093,-114.51291967073887,-60.11912281043993,23.565343649892732,0.0001,-0.8411,-0.5009,0.2042
87,3132160.0,42.759215999999995,1.0,-1.49,-3.18,-7.29,31.37,-4.88,22.5,35.19,86.69,-64.69,-0.7925889379853265,-1.8188511775643657,1.9618948623774093,-114.51291967073887,-60.11912281043993,23.565343649892732,0.0001,-0.8411,-0.5009,0.2042
88,3132196.0,42.803177000000005,1.0,-2.14,-3.78,-7.07,29.56,-2.0,25.69,27.19,102.69,-53.69,-1.6474553327885226,-0.8764539269360307,1.7214400806209689,-113.75411958451244,-61.75443240547686,21.31060447484913,0.0322,-0.8375,-0.5132,0.1849
89,3132196.0,42.803177000000005,1.0,-2.14,-3.78,-7.07,29.56,-2.0,25.69,27.19,102.69,-53.69,-1.6474553327885226,-0.8764539269360307,1.7214400806209689,-113.75411958451244,-61.75443240547686,21.31060447484913,0.0322,-0.8375,-0.5132,0.1849
90,3132231.0,42.818406,1.0,-0.24,-4.16,-7.45,29.56,-2.0,25.69,21.56,104.56,-47.63,-1.1963029188406051,-2.2794784832028654,1.6679438884004032,-113.31502385151421,-62.90613913443401,18.91314493847748,0.0527,-0.8354,-0.5218,0.1643
91,3132231.0,42.818406,1.0,-0.24,-4.16,-7.45,29.56,-2.0,25.69,21.56,104.56,-47.63,-1.1963029188406051,-2.2794784832028654,1.6679438884004032,-113.31502385151421,-62.90613913443401,18.91314493847748,0.0527,-0.8354,-0.5218,0.1643
92,3132266.0,42.858456,1.0,-0.34,-5.79,-8.33,27.75,0.88,26.87,24.5,106.0,-33.63,-2.439249856397853,-2.2441567321037708,0.21277587638255646,-112.83702493862923,-63.86232469664676,16.03782888845279,0.0828,-0.8331,-0.5289,0.1395
93,3132266.0,42.858456,1.0,-0.34,-5.79,-8.33,27.75,0.88,26.87,24.5,106.0,-33.63,-2.439249856397853,-2.2441567321037708,0.21277587638255646,-112.83702493862923,-63.86232469664676,16.03782888845279,0.0828,-0.8331,-0.5289,0.1395
94,3132301.0,42.873631,1.0,1.05,-4.89,-7.79,24.5,2.25,30.56,-3.38,117.56,-19.19,-1.5470020819347656,-2.4965258784305373,1.0275359731282592,-112.9821839632563,-64.22724850843996,12.204140573704526,0.1045,-0.8338,-0.5316,0.1063
95,3132301.0,42.873631,1.0,1.05,-4.89,-7.79,24.5,2.25,30.56,-3.38,117.56,-19.19,-1.5470020819347656,-2.4965258784305373,1.0275359731282592,-112.9821839632563,-64.22724850843996,12.204140573704526,0.1045,-0.8338,-0.5316,0.1063
96,3132338.0,42.910415,1.0,2.7,-6.07,-9.58,20.87,3.69,32.56,-0.69,142.31,-3.88,-1.6369323136224718,-3.734145725147157,-1.1152503980069248,-113.46110408162376,-63.9028359466197,8.740349140335567,0.1227,-0.8361,-0.5292,0.0762
97,3132338.0,42.910415,1.0,2.7,-6.07,-9.58,20.87,3.69,32.56,-0.69,142.31,-3.88,-1.6369323136224718,-3.734145725147157,-1.1152503980069248,-113.46110408162376,-63.9028359466197,8.740349140335567,0.1227,-0.8361,-0.5292,0.0762
98,3132372.0,42.962483,1.0,0.56,-6.13,-9.49,20.87,3.69,32.56,-26.12,101.81,7.56,-3.0528735618321736,-1.2699161221977582,-1.010830115907236,-114.38591221182236,-63.01363300906978,4.6881024349692195,0.13699999999999998,-0.8405,-0.5226,0.0409
99,3132372.0,42.962483,1.0,0.56,-6.13,-9.49,20.87,3.69,32.56,-26.12,101.81,7.56,-3.0528735618321736,-1.2699161221977582,-1.010830115907236,-114.38591221182236,-63.01363300906978,4.6881024349692195,0.13699999999999998,-0.8405,-0.5226,0.0409
100,3132409.0,43.029866999999996,1.0,3.18,-5.68,-9.57,17.75,3.69,35.5,-44.69,121.25,39.94,-1.771783922466734,-3.0308276779117067,-1.222156160183104,-115.75216046951117,-61.55426474750001,1.4668120111410634,0.1439,-0.8469,-0.5117,0.0128
101,3132409.0,43.029866999999996,1.0,3.18,-5.68,-9.57,17.75,3.69,35.5,-44.69,121.25,39.94,-1.771783922466734,-3.0308276779117067,-1.222156160183104,-115.75216046951117,-61.55426474750001,1.4668120111410634,0.1439,-0.8469,-0.5117,0.0128
102,3132444.0,43.032887,1.0,4.73,-4.7,-11.69,13.38,1.75,36.69,-39.63,118.69,65.0,-0.3394911823007123,-2.814953518433923,-3.3493289611490558,-118.25247900079262,-58.60230588655673,-3.1058114852451255,0.1516,-0.8583,-0.4894,-0.0271
103,3132444.0,43.032887,1.0,4.73,-4.7,-11.69,13.38,1.75,36.69,-39.63,118.69,65.0,-0.3394911823007123,-2.814953518433923,-3.3493289611490558,-118.25247900079262,-58.60230588655673,-3.1058114852451255,0.1516,-0.8583,-0.4894,-0.0271
104,3132479.0,43.102273,1.0,4.58,-5.49,-12.02,13.38,1.75,36.69,-56.19,75.87,71.31,-1.3376796363162673,-2.720474081551748,-3.8464278201177,-120.38490958888936,-56.107543888708584,-5.686074397008276,0.153,-0.8677,-0.4703,-0.0496
105,3132479.0,43.102273,1.0,4.58,-5.49,-12.02,13.38,1.75,36.69,-56.19,75.87,71.31,-1.3376796363162673,-2.720474081551748,-3.8464278201177,-120.38490958888936,-56.107543888708584,-5.686074397008276,0.153,-0.8677,-0.4703,-0.0496
106,3132514.0,43.112489000000004,1.0,5.62,-2.82,-13.73,9.0,0.69,38.75,-88.81,73.25,87.81,0.9116023530469956,-1.4600900751332488,-5.1962436583052725,-124.06164029835844,-52.19500183844674,-9.085166406176855,0.1418,-0.8832,-0.4399,-0.0792
107,3132514.0,43.112489000000004,1.0,5.62,-2.82,-13.73,9.0,0.69,38.75,-88.81,73.25,87.81,0.9116023530469956,-1.4600900751332488,-5.1962436583052725,-124.06164029835844,-52.19500183844674,-9.085166406176855,0.1418,-0.8832,-0.4399,-0.0792
108,3132549.0,43.154806,1.0,5.98,-2.27,-14.7,5.69,-2.69,37.69,-61.75,30.12,101.5,1.3009674436854182,-1.0430216175298594,-6.137718586301434,-127.17120439382437,-48.90012665540839,-10.557352206642195,0.1342,-0.8956,-0.4139,-0.092
109,3132549.0,43.154806,1.0,5.98,-2.27,-14.7,5.69,-2.69,37.69,-61.75,30.12,101.5,1.3009674436854182,-1.0430216175298594,-6.137718586301434,-127.17120439382437,-48.90012665540839,-10.557352206642195,0.1342,-0.8956,-0.4139,-0.092
110,3132585.0,43.161108,1.0,4.92,-0.88,-13.84,4.5,-5.69,38.56,-77.06,-2.5,102.0,1.4534738209713858,0.05731676981091194,-4.836113695411099,-131.56643317341502,-44.754098011748425,-11.478340954533572,0.1152,-0.912,-0.3807,-0.1
111,3132585.0,43.161108,1.0,4.92,-0.88,-13.84,4.5,-5.69,38.56,-77.06,-2.5,102.0,1.4534738209713858,0.05731676981091194,-4.836113695411099,-131.56643317341502,-44.754098011748425,-11.478340954533572,0.1152,-0.912,-0.3807,-0.1
112,3132620.0,43.212153,1.0,4.19,0.31,-13.86,4.5,-5.69,38.56,-65.87,-15.06,110.19,1.651382180985301,1.060669501584147,-4.5425561487990835,-136.28110106832045,-40.400219905352074,-11.512892133606984,0.0962,-0.9281,-0.3453,-0.1003
113,3132620.0,43.212153,1.0,4.19,0.31,-13.86,4.5,-5.69,38.56,-65.87,-15.06,110.19,1.651382180985301,1.060669501584147,-4.5425561487990835,-136.28110106832045,-40.400219905352074,-11.512892133606984,0.0962,-0.9281,-0.3453,-0.1003
114,3132657.0,43.22678,1.0,3.8,1.25,-13.51,4.19,-9.06,37.0,-60.81,-50.56,95.69,2.0657158481746487,1.578163895792633,-4.041267415720558,-139.70199765652578,-37.56783922201158,-10.64941932234672,0.0803,-0.9388,-0.322,-0.0928
115,3132657.0,43.22678,1.0,3.8,1.25,-13.51,4.19,-9.06,37.0,-60.81,-50.56,95.69,2.0657158481746487,1.578163895792633,-4.041267415720558,-139.70199765652578,-37.56783922201158,-10.64941932234672,0.0803,-0.9388,-0.322,-0.0928
116,3132694.0,43.260581,1.0,3.15,2.27,-12.33,4.06,-11.69,35.88,-51.94,-74.19,90.06,2.5361908493153753,2.040217464011373,-2.7037276391998635,-144.1648201843402,-34.039340850884635,-8.522006076442151,0.0582,-0.9515,-0.2927,-0.0743
117,3132694.0,43.260581,1.0,3.15,2.27,-12.33,4.06,-11.69,35.88,-51.94,-74.19,90.06,2.5361908493153753,2.040217464011373,-2.7037276391998635,-144.1648201843402,-34.039340850884635,-8.522006076442151,0.0582,-0.9515,-0.2927,-0.0743
118,3132727.0,43.323344,1.0,2.28,2.8,-11.63,4.06,-11.69,35.88,-40.75,-82.56,71.75,2.414410431112444,2.512100096674144,-1.8619092672971096,-147.03240000479886,-31.888273849894752,-6.546738821065048,0.0435,-0.9589,-0.2747,-0.0571
119,3132727.0,43.323344,1.0,2.28,2.8,-11.63,4.06,-11.69,35.88,-40.75,-82.56,71.75,2.414410431112444,2.512100096674144,-1.8619092672971096,-147.03240000479886,-31.888273849894752,-6.546738821065048,0.0435,-0.9589,-0.2747,-0.0571
120,3132762.0,43.358132,1.0,1.78,3.67,-10.94,3.75,-14.69,36.19,-37.13,-103.19,52.56,2.898799741692584,2.961498476817022,-1.1088154884422377,-150.0772121119661,-29.618281737295238,-3.2204467196467967,0.0234,-0.9661,-0.2556,-0.0281
121,3132762.0,43.358132,1.0,1.78,3.67,-10.94,3.75,-14.69,36.19,-37.13,-103.19,52.56,2.898799741692584,2.961498476817022,-1.1088154884422377,-150.0772121119661,-29.618281737295238,-3.2204467196467967,0.0234,-0.9661,-0.2556,-0.0281
122,3132798.0,43.416375,1.0,0.65,3.23,-9.98,6.06,-17.0,33.5,-25.5,-100.81,37.81,2.082445004222433,2.781963339834722,-0.11201436473200843,-151.6255402012684,-28.35184823709937,-0.4812859628976946,0.0118,-0.9695,-0.2449,-0.0042
123,3132798.0,43.416375,1.0,0.65,3.23,-9.98,6.06,-17.0,33.5,-25.5,-100.81,37.81,2.082445004222433,2.781963339834722,-0.11201436473200843,-151.6255402012684,-28.35184823709937,-0.4812859628976946,0.0118,-0.9695,-0.2449,-0.0042
124,3132835.0,43.467729999999996,1.0,0.0,3.27,-9.17,7.69,-17.75,31.06,-20.0,-106.5,21.25,1.9947024176835595,2.7035376934347264,0.6691532856331488,-152.33556563307292,-27.44268161964677,3.254837913384077,-0.0042,-0.971,-0.2372,0.0284
125,3132835.0,43.467729999999996,1.0,0.0,3.27,-9.17,7.69,-17.75,31.06,-20.0,-106.5,21.25,1.9947024176835595,2.7035376934347264,0.6691532856331488,-152.33556563307292,-27.44268161964677,3.254837913384077,-0.0042,-0.971,-0.2372,0.0284
126,3132870.0,43.4739,1.0,-0.83,3.04,-8.6,7.69,-17.75,31.06,-12.13,-103.12,2.44,1.4919051874563425,2.634408699378337,1.162310249835123,-152.04943428155016,-27.195035005738163,6.11062569758793,-0.0138,-0.9704,-0.2351,0.0533
127,3132870.0,43.4739,1.0,-0.83,3.04,-8.6,7.69,-17.75,31.06,-12.13,-103.12,2.44,1.4919051874563425,2.634408699378337,1.162310249835123,-152.04943428155016,-27.195035005738163,6.11062569758793,-0.0138,-0.9704,-0.2351,0.0533
128,3132907.0,43.525659000000005,1.0,-0.89,3.12,-8.24,10.38,-18.69,31.06,-15.0,-89.19,-18.0,1.9064842870662704,2.4341210110589233,1.508187939672743,-150.61456567249238,-27.513461750107517,9.60254790532585,-0.0255,-0.9673,-0.2378,0.0837
129,3132907.0,43.525659000000005,1.0,-0.89,3.12,-8.24,10.38,-18.69,31.06,-15.0,-89.19,-18.0,1.9064842870662704,2.4341210110589233,1.508187939672743,-150.61456567249238,-27.513461750107517,9.60254790532585,-0.0255,-0.9673,-0.2378,0.0837
130,3132942.0,43.581337,1.0,-1.28,2.72,-7.82,12.0,-20.56,29.06,-16.69,-80.19,-30.75,1.6307615160668667,2.092891512986002,1.8599763567335,-149.0298356031949,-28.257305549296962,11.869983070722633,-0.0329,-0.9637,-0.2441,0.1034
131,3132942.0,43.581337,1.0,-1.28,2.72,-7.82,12.0,-20.56,29.06,-16.69,-80.19,-30.75,1.6307615160668667,2.092891512986002,1.8599763567335,-149.0298356031949,-28.257305549296962,11.869983070722633,-0.0329,-0.9637,-0.2441,0.1034
132,3132977.0,43.593546,1.0,-1.41,3.55,-7.43,12.0,-20.56,29.06,-17.06,-80.06,-52.81,2.261234799099808,2.6078358476225407,2.1986601619945056,-146.07660730478975,-29.950289927892534,14.673408500442047,-0.0453,-0.9565,-0.2584,0.1277
133,3132977.0,43.593546,1.0,-1.41,3.55,-7.43,12.0,-20.56,29.06,-17.06,-80.06,-52.81,2.261234799099808,2.6078358476225407,2.1986601619945056,-146.07660730478975,-29.950289927892534,14.673408500442047,-0.0453,-0.9565,-0.2584,0.1277
134,3133011.0,43.596166,1.0,-2.19,1.89,-6.92,15.06,-19.87,26.69,15.69,-70.06,-62.56,1.0874124845453674,1.5235003107975857,2.5436560655777427,-142.77543036661098,-32.126697427860236,17.532071555357696,-0.046,-0.9477,-0.2767,0.1524
135,3133011.0,43.596166,1.0,-2.19,1.89,-6.92,15.06,-19.87,26.69,15.69,-70.06,-62.56,1.0874124845453674,1.5235003107975857,2.5436560655777427,-142.77543036661098,-32.126697427860236,17.532071555357696,-0.046,-0.9477,-0.2767,0.1524
136,3133048.0,43.646957,1.0,-2.66,1.6,-6.62,17.06,-19.19,26.19,3.31,-51.31,-74.37,0.7470593329967959,1.5147888775027791,2.6927680070529534,-140.17034192327273,-34.12323828365854,19.192010366536685,-0.0467,-0.9402,-0.2934,0.1667
137,3133048.0,43.646957,1.0,-2.66,1.6,-6.62,17.06,-19.19,26.19,3.31,-51.31,-74.37,0.7470593329967959,1.5147888775027791,2.6927680070529534,-140.17034192327273,-34.12323828365854,19.192010366536685,-0.0467,-0.9402,-0.2934,0.1667
138,3133085.0,43.650005,1.0,-2.76,0.33,-6.63,17.06,-19.19,26.19,28.06,-39.06,-78.25,0.27037338755912843,0.5911667950209152,2.6469838030488813,-136.90081703525604,-36.818231622724255,21.12406961438943,-0.0394,-0.9301,-0.3158,0.1833
139,3133085.0,43.650005,1.0,-2.76,0.33,-6.63,17.06,-19.19,26.19,28.06,-39.06,-78.25,0.27037338755912843,0.5911667950209152,2.6469838030488813,-136.90081703525604,-36.818231622724255,21.12406961438943,-0.0394,-0.9301,-0.3158,0.1833
140,3133120.0,43.724140000000006,1.0,-2.53,-0.52,-7.06,20.5,-17.69,26.06,16.94,-27.75,-80.62,0.2423041958246475,-0.22727121835036695,2.2963546349697186,-134.5590130176977,-38.93838987087892,22.2091125181558,-0.0338,-0.9224,-0.3333,0.1926
141,3133120.0,43.724140000000006,1.0,-2.53,-0.52,-7.06,20.5,-17.69,26.06,16.94,-27.75,-80.62,0.2423041958246475,-0.22727121835036695,2.2963546349697186,-134.5590130176977,-38.93838987087892,22.2091125181558,-0.0338,-0.9224,-0.3333,0.1926
142,3133157.0,43.735619,1.0,-2.96,-0.76,-6.1,23.06,-15.88,24.5,7.19,-14.06,-77.12,-0.33996659128202633,0.15673360714080165,2.994230657856952,-131.59437695002578,-41.69722676024061,23.272776070440536,-0.0262,-0.9121,-0.3559,0.2017
143,3133157.0,43.735619,1.0,-2.96,-0.76,-6.1,23.06,-15.88,24.5,7.19,-14.06,-77.12,-0.33996659128202633,0.15673360714080165,2.994230657856952,-131.59437695002578,-41.69722676024061,23.272776070440536,-0.0262,-0.9121,-0.3559,0.2017
144,3133192.0,43.783311,1.0,-3.1,-0.34,-5.69,25.69,-13.25,25.0,28.94,8.63,-81.87,-0.19011962174560249,0.776369928884409,3.3674882328946456,-129.56581673326838,-43.887975339090566,23.49511329436541,-0.0181,-0.9047,-0.3737,0.2036
145,3133192.0,43.783311,1.0,-3.1,-0.34,-5.69,25.69,-13.25,25.0,28.94,8.63,-81.87,-0.19011962174560249,0.776369928884409,3.3674882328946456,-129.56581673326838,-43.887975339090566,23.49511329436541,-0.0181,-0.9047,-0.3737,0.2036
146,3133227.0,43.850555,1.0,-2.61,-2.86,-6.54,25.69,-13.25,25.0,41.5,34.13,-82.94,-1.2162217463222649,-1.0932477940175878,2.384459358104005,-127.24853393391231,-46.63175471031061,23.2493773342699,0.0049,-0.8959,-0.3958,0.2015
147,3133227.0,43.850555,1.0,-2.61,-2.86,-6.54,25.69,-13.25,25.0,41.5,34.13,-82.94,-1.2162217463222649,-1.0932477940175878,2.384459358104005,-127.24853393391231,-46.63175471031061,23.2493773342699,0.0049,-0.8959,-0.3958,0.2015
148,3133261.0,43.942541999999996,1.0,-1.93,-5.13,-8.96,26.87,-11.06,25.37,41.63,21.5,-72.81,-1.5132649199185613,-3.0944560382139503,-0.11593893181135327,-125.5457815403515,-48.61076799855758,22.945282804181343,0.0208,-0.8892,-0.4116,0.1989
149,3133261.0,43.942541999999996,1.0,-1.93,-5.13,-8.96,26.87,-11.06,25.37,41.63,21.5,-72.81,-1.5132649199185613,-3.0944560382139503,-0.11593893181135327,-125.5457815403515,-48.61076799855758,22.945282804181343,0.0208,-0.8892,-0.4116,0.1989
150,3133298.0,43.951811,1.0,-2.27,-6.7,-9.68,26.87,-8.19,27.37,26.44,-14.13,-54.31,-2.436413184517624,-3.5945995311432304,-1.3686819863444573,-123.26060567533968,-50.64336935396991,23.55363796786013,0.0345,-0.8799,-0.4277,0.2041
151,3133298.0,43.951811,1.0,-2.27,-6.7,-9.68,26.87,-8.19,27.37,26.44,-14.13,-54.31,-2.436413184517624,-3.5945995311432304,-1.3686819863444573,-123.26060567533968,-50.64336935396991,23.55363796786013,0.0345,-0.8799,-0.4277,0.2041
152,3133333.0,44.012747999999995,1.0,-3.64,-7.13,-9.14,26.87,-8.19,27.37,3.69,6.0,-26.12,-3.670183663161077,-2.591503606057929,-1.4822809032544946,-122.20841159701892,-51.62149845664168,23.76437852052494,0.0387,-0.8755,-0.4354,0.2059
153,3133333.0,44.012747999999995,1.0,-3.64,-7.13,-9.14,26.87,-8.19,27.37,3.69,6.0,-26.12,-3.670183663161077,-2.591503606057929,-1.4822809032544946,-122.20841159701892,-51.62149845664168,23.76437852052494,0.0387,-0.8755,-0.4354,0.2059
154,3133366.0,44.015225,1.0,-3.59,-4.12,-9.76,26.87,-5.5,27.37,-39.63,19.56,-0.69,-1.417895118021875,-0.822403706996814,-1.2583093572234851,-122.32709422851921,-52.15672470466425,22.57123707542117,0.033,-0.8759999999999999,-0.4396,0.1957
155,3133366.0,44.015225,1.0,-3.59,-4.12,-9.76,26.87,-5.5,27.37,-39.63,19.56,-0.69,-1.417895118021875,-0.822403706996814,-1.2583093572234851,-122.32709422851921,-52.15672470466425,22.57123707542117,0.033,-0.8759999999999999,-0.4396,0.1957
156,3133403.0,44.017674,1.0,-2.98,-2.84,-10.29,27.19,-4.5,27.75,-12.44,18.19,7.94,-0.11913035738129905,-0.5743276950513381,-1.2606918514405372,-122.87593702038136,-52.054682916137764,21.648844944741544,0.0295,-0.8783,-0.4388,0.1878
157,3133403.0,44.017674,1.0,-2.98,-2.84,-10.29,27.19,-4.5,27.75,-12.44,18.19,7.94,-0.11913035738129905,-0.5743276950513381,-1.2606918514405372,-122.87593702038136,-52.054682916137764,21.648844944741544,0.0295,-0.8783,-0.4388,0.1878
158,3133440.0,44.019925,1.0,-2.72,-1.96,-10.09,26.87,-5.56,28.69,-19.94,2.44,6.63,0.5198938673322853,-0.2524384430427247,-0.8100389941819675,-123.16421485435569,-51.93993891277072,21.25230621784773,0.026000000000000002,-0.8795,-0.4379,0.1844
159,3133440.0,44.019925,1.0,-2.72,-1.96,-10.09,26.87,-5.56,28.69,-19.94,2.44,6.63,0.5198938673322853,-0.2524384430427247,-0.8100389941819675,-123.16421485435569,-51.93993891277072,21.25230621784773,0.026000000000000002,-0.8795,-0.4379,0.1844
160,3133472.0,44.070923,1.0,-3.21,-1.56,-9.14,26.87,-5.56,28.69,-10.5,-2.31,7.63,0.16052290040384692,0.4140526104579236,0.0046046606731646724,-123.42965193046732,-51.76155935207183,21.100756747738608,0.0215,-0.8806,-0.4365,0.1831
161,3133472.0,44.070923,1.0,-3.21,-1.56,-9.14,26.87,-5.56,28.69,-10.5,-2.31,7.63,0.16052290040384692,0.4140526104579236,0.0046046606731646724,-123.42965193046732,-51.76155935207183,21.100756747738608,0.0215,-0.8806,-0.4365,0.1831
162,3133509.0,44.104265000000005,1.0,-2.81,-1.36,-9.48,27.19,-6.0,27.06,-0.75,10.06,6.63,0.6061024379934771,0.1961128706543052,-0.15378571218760229,-123.74483108000663,-51.54513650446032,20.856024774540764,0.0213,-0.8819,-0.4348,0.18100000000000002
163,3133509.0,44.104265000000005,1.0,-2.81,-1.36,-9.48,27.19,-6.0,27.06,-0.75,10.06,6.63,0.6061024379934771,0.1961128706543052,-0.15378571218760229,-123.74483108000663,-51.54513650446032,20.856024774540764,0.0213,-0.8819,-0.4348,0.18100000000000002
164,3133546.0,44.119378999999995,1.0,-2.58,-1.77,-9.57,27.19,-6.75,27.37,3.88,7.75,4.31,0.4312639535831501,-0.2014579193850874,-0.2505676126927305,-123.98838434414272,-51.37976979085595,20.623036118505983,0.0231,-0.8829,-0.4335,0.179
165,3133546.0,44.119378999999995,1.0,-2.58,-1.77,-9.57,27.19,-6.75,27.37,3.88,7.75,4.31,0.4312639535831501,-0.2014579193850874,-0.2505676126927305,-123.98838434414272,-51.37976979085595,20.623036118505983,0.0231,-0.8829,-0.4335,0.179
166,3133579.0,44.167393,1.0,-2.84,-1.58,-9.08,27.19,-6.75,27.37,-3.69,-9.0,0.19,0.27230580765526124,0.1407131965567091,0.1674358544675929,-123.96398525409832,-51.36705403350072,20.751169149926106,0.0217,-0.8828,-0.4334,0.1801
167,3133579.0,44.167393,1.0,-2.84,-1.58,-9.08,27.19,-6.75,27.37,-3.69,-9.0,0.19,0.27230580765526124,0.1407131965567091,0.1674358544675929,-123.96398525409832,-51.36705403350072,20.751169149926106,0.0217,-0.8828,-0.4334,0.1801
168,3133614.0,44.203551000000004,1.0,-3.05,-1.79,-9.1,26.5,-7.56,27.37,-2.63,-7.06,1.5,0.020723126910993664,0.12503814140103064,0.0444506568598495,-123.86648635871313,-51.35433895468569,20.9608980601766,0.02,-0.8824,-0.4333,0.1819
169,3133614.0,44.203551000000004,1.0,-3.05,-1.79,-9.1,26.5,-7.56,27.37,-2.63,-7.06,1.5,0.020723126910993664,0.12503814140103064,0.0444506568598495,-123.86648635871313,-51.35433895468569,20.9608980601766,0.02,-0.8824,-0.4333,0.1819
170,3133650.0,44.256727000000005,1.0,-3.49,-1.52,-8.38,27.56,-7.56,28.19,-4.31,4.31,-0.56,-0.28416070742785043,0.7093902782390559,0.6343592214924829,-123.86648635871313,-51.41792113681584,20.879328419459103,0.0188,-0.8824,-0.4338,0.1812
171,3133650.0,44.256727000000005,1.0,-3.49,-1.52,-8.38,27.56,-7.56,28.19,-4.31,4.31,-0.56,-0.28416070742785043,0.7093902782390559,0.6343592214924829,-123.86648635871313,-51.41792113681584,20.879328419459103,0.0188,-0.8824,-0.4338,0.1812
172,3133685.0,44.30658,1.0,-2.7,-1.6,-9.09,27.56,-7.56,28.19,-1.94,11.69,0.19,0.2843096994151582,0.0005271384975066296,0.19430024996782969,-123.98838434414272,-51.443358765022325,20.506574164810864,0.0195,-0.8829,-0.434,0.17800000000000002
173,3133685.0,44.30658,1.0,-2.7,-1.6,-9.09,27.56,-7.56,28.19,-1.94,11.69,0.19,0.2843096994151582,0.0005271384975066296,0.19430024996782969,-123.98838434414272,-51.443358765022325,20.506574164810864,0.0195,-0.8829,-0.434,0.17800000000000002
174,3133720.0,44.321081,1.0,-2.59,-1.83,-9.92,26.5,-6.5,28.19,5.38,-31.87,-2.19,0.5116824629709961,-0.3887055092962818,-0.5880837187698429,-123.7205290097115,-51.51968798135092,20.984205642908503,0.0181,-0.8818,-0.4346,0.1821
175,3133720.0,44.321081,1.0,-2.59,-1.83,-9.92,26.5,-6.5,28.19,5.38,-31.87,-2.19,0.5116824629709961,-0.3887055092962818,-0.5880837187698429,-123.7205290097115,-51.51968798135092,20.984205642908503,0.0181,-0.8818,-0.4346,0.1821
176,3133755.0,44.360490000000006,1.0,-3.73,-1.95,-8.17,26.5,-6.88,27.87,-0.44,-15.5,-0.31,-0.7187179389945291,0.5445713037841717,0.660547736234177,-123.38130576448057,-51.55786178927636,21.71884947041321,0.0151,-0.8804,-0.4349,0.1884
177,3133755.0,44.360490000000006,1.0,-3.73,-1.95,-8.17,26.5,-6.88,27.87,-0.44,-15.5,-0.31,-0.7187179389945291,0.5445713037841717,0.660547736234177,-123.38130576448057,-51.55786178927636,21.71884947041321,0.0151,-0.8804,-0.4349,0.1884
178,3133790.0,44.376821,1.0,-3.0,-1.72,-9.26,28.0,-6.5,27.06,-4.25,14.75,3.19,0.1848728534592721,-0.0015794636907140447,-0.07625541962981153,-123.45383923298037,-51.64695790877244,21.403893300909647,0.015,-0.8807,-0.4356,0.1857
179,3133790.0,44.376821,1.0,-3.0,-1.72,-9.26,28.0,-6.5,27.06,-4.25,14.75,3.19,0.1848728534592721,-0.0015794636907140447,-0.07625541962981153,-123.45383923298037,-51.64695790877244,21.403893300909647,0.015,-0.8807,-0.4356,0.1857
180,3133825.0,44.429522,1.0,-2.69,-1.14,-9.58,28.0,-6.5,27.06,-7.19,-9.88,0.06,0.8851032568773157,0.035061429273642086,-0.169695168489433,-123.42965193046732,-51.659688661303676,21.392231414012297,0.0127,-0.8806,-0.4357,0.1856
181,3133825.0,44.429522,1.0,-2.69,-1.14,-9.58,28.0,-6.5,27.06,-7.19,-9.88,0.06,0.8851032568773157,0.035061429273642086,-0.169695168489433,-123.42965193046732,-51.659688661303676,21.392231414012297,0.0127,-0.8806,-0.4357,0.1856
182,3133859.0,44.495577000000004,1.0,-3.52,-1.81,-8.81,28.0,-6.88,27.87,3.13,-3.5,1.75,-0.3009968631726597,0.34882308145213003,0.15935383235766487,-123.30885743015295,-51.68515222063561,21.672178876755066,0.0127,-0.8801,-0.4359,0.188
183,3133859.0,44.495577000000004,1.0,-3.52,-1.81,-8.81,28.0,-6.88,27.87,3.13,-3.5,1.75,-0.3009968631726597,0.34882308145213003,0.15935383235766487,-123.30885743015295,-51.68515222063561,21.672178876755066,0.0127,-0.8801,-0.4359,0.188
184,3133896.0,44.502939000000005,1.0,-3.43,-1.31,-8.57,28.0,-7.19,27.06,-3.44,7.69,-1.69,0.012385869061510846,0.6400129661938543,0.505245267737708,-123.30885743015295,-51.79977218612414,21.42721774773248,0.0125,-0.8801,-0.4368,0.1859
185,3133896.0,44.502939000000005,1.0,-3.43,-1.31,-8.57,28.0,-7.19,27.06,-3.44,7.69,-1.69,0.012385869061510846,0.6400129661938543,0.505245267737708,-123.30885743015295,-51.79977218612414,21.42721774773248,0.0125,-0.8801,-0.4368,0.1859
186,3133931.0,44.555223,1.0,-3.12,-1.86,-8.94,28.0,-7.19,27.06,6.81,-11.69,-1.06,-0.08124490270451462,0.01787036462336466,0.15726245902866687,-123.26060567533968,-51.77429627625306,21.56718332965744,0.0137,-0.8799,-0.4366,0.1871
187,3133931.0,44.555223,1.0,-3.12,-1.86,-8.94,28.0,-7.19,27.06,6.81,-11.69,-1.06,-0.08124490270451462,0.01787036462336466,0.15726245902866687,-123.26060567533968,-51.77429627625306,21.56718332965744,0.0137,-0.8799,-0.4366,0.1871
188,3133964.0,44.571191999999996,1.0,-3.25,-1.54,-9.01,28.69,-6.5,27.37,-4.5,-3.44,-0.88,0.13670555504183796,0.2711371358269794,0.11015598180990338,-122.89990924402274,-52.06743571130708,21.765523710742034,0.012,-0.8784,-0.4389,0.1888
189,3133964.0,44.571191999999996,1.0,-3.25,-1.54,-9.01,28.69,-6.5,27.37,-4.5,-3.44,-0.88,0.13670555504183796,0.2711371358269794,0.11015598180990338,-122.89990924402274,-52.06743571130708,21.765523710742034,0.012,-0.8784,-0.4389,0.1888
190,3134001.0,44.613436,1.0,-3.24,-1.91,-8.81,27.19,-7.19,26.19,6.56,7.88,-0.12,-0.20863629848566284,0.08502802244611529,0.2300618220342621,-122.92389068833596,-52.06743571130708,21.71884947041321,0.013000000000000001,-0.8785,-0.4389,0.1884
191,3134001.0,44.613436,1.0,-3.24,-1.91,-8.81,27.19,-7.19,26.19,6.56,7.88,-0.12,-0.20863629848566284,0.08502802244611529,0.2300618220342621,-122.92389068833596,-52.06743571130708,21.71884947041321,0.013000000000000001,-0.8785,-0.4389,0.1884
192,3134038.0,44.670684,1.0,-2.69,-1.76,-9.7,27.19,-6.88,27.75,-2.13,2.63,-0.06,0.4970938992966456,-0.34784806869037965,-0.3941146466522536,-122.97188128580086,-52.054682916137764,21.57884859507936,0.013999999999999999,-0.8787,-0.4388,0.1872
193,3134038.0,44.670684,1.0,-2.69,-1.76,-9.7,27.19,-6.88,27.75,-2.13,2.63,-0.06,0.4970938992966456,-0.34784806869037965,-0.3941146466522536,-122.97188128580086,-52.054682916137764,21.57884859507936,0.013999999999999999,-0.8787,-0.4388,0.1872
194,3134070.0,44.682159000000006,1.0,-3.44,-1.59,-8.72,27.19,-6.88,27.75,-1.37,-10.0,-1.44,-0.08077206902684309,0.4326266312296373,0.30894448388633045,-122.80407555685306,-52.10569825761032,21.882225322200526,0.0126,-0.878,-0.4392,0.1898
195,3134070.0,44.682159000000006,1.0,-3.44,-1.59,-8.72,27.19,-6.88,27.75,-1.37,-10.0,-1.44,-0.08077206902684309,0.4326266312296373,0.30894448388633045,-122.80407555685306,-52.10569825761032,21.882225322200526,0.0126,-0.878,-0.4392,0.1898
196,3134107.0,44.728798,1.0,-3.35,-1.55,-8.66,26.06,-7.19,26.56,4.88,7.88,-1.69,-0.020358945327494105,0.41241904511268745,0.4018588782060899,-122.80407555685306,-52.131210091854,21.847212431989455,0.0134,-0.878,-0.4394,0.1895
197,3134107.0,44.728798,1.0,-3.35,-1.55,-8.66,26.06,-7.19,26.56,4.88,7.88,-1.69,-0.020358945327494105,0.41241904511268745,0.4018588782060899,-122.80407555685306,-52.131210091854,21.847212431989455,0.0134,-0.878,-0.4394,0.1895
198,3134142.0,44.786122,1.0,-2.91,-1.76,-9.31,27.19,-6.5,27.37,-0.25,10.19,-2.25,0.2585688297341449,-0.09735764964284166,-0.10119858828322847,-122.85197400573631,-52.182242098214466,21.590514086807822,0.0153,-0.8782,-0.4398,0.1873
199,3134142.0,44.786122,1.0,-2.91,-1.76,-9.31,27.19,-6.5,27.37,-0.25,10.19,-2.25,0.2585688297341449,-0.09735764964284166,-0.10119858828322847,-122.85197400573631,-52.182242098214466,21.590514086807822,0.0153,-0.8782,-0.4398,0.1873
200,3134177.0,44.803546999999995,1.0,-3.11,-1.91,-9.16,27.19,-6.5,27.37,1.88,-1.25,-0.69,-0.01268449674101525,0.004169948409324498,-0.05365535607658956,-122.82802018843607,-52.23328523623708,21.56718332965744,0.0161,-0.8781,-0.4402,0.1871
201,3134177.0,44.803546999999995,1.0,-3.11,-1.91,-9.16,27.19,-6.5,27.37,1.88,-1.25,-0.69,-0.01268449674101525,0.004169948409324498,-0.05365535607658956,-122.82802018843607,-52.23328523623708,21.56718332965744,0.0161,-0.8781,-0.4402,0.1871
202,3134212.0,44.806955,1.0,-3.06,-1.62,-9.02,27.56,-7.19,26.19,-2.06,-0.56,-0.69,0.18709641592252468,0.15343801891264186,0.14798281940509386,-122.7801400993836,-52.27157490538662,21.57884859507936,0.0156,-0.8779,-0.4405,0.1872
203,3134212.0,44.806955,1.0,-3.06,-1.62,-9.02,27.56,-7.19,26.19,-2.06,-0.56,-0.69,0.18709641592252468,0.15343801891264186,0.14798281940509386,-122.7801400993836,-52.27157490538662,21.57884859507936,0.0156,-0.8779,-0.4405,0.1872
204,3134248.0,44.859374,1.0,-3.01,-1.88,-9.07,27.56,-6.5,27.37,4.25,2.81,-1.81,0.033460504309730334,-0.02994807239546826,0.06717447471573834,-122.70838865597605,-52.360941896715254,21.532188889890495,0.0165,-0.8776,-0.4412,0.1868
205,3134248.0,44.859374,1.0,-3.01,-1.88,-9.07,27.56,-6.5,27.37,4.25,2.81,-1.81,0.033460504309730334,-0.02994807239546826,0.06717447471573834,-122.70838865597605,-52.360941896715254,21.532188889890495,0.0165,-0.8776,-0.4412,0.1868
206,3134281.0,44.913814,1.0,-3.02,-1.87,-9.06,27.56,-6.5,27.37,-0.81,-0.06,0.25,0.03317887078613012,-0.008695718336216629,0.07527170363231406,-122.70838865597605,-52.360941896715254,21.52052452835445,0.0168,-0.8776,-0.4412,0.1867
207,3134281.0,44.913814,1.0,-3.02,-1.87,-9.06,27.56,-6.5,27.37,-0.81,-0.06,0.25,0.03317887078613012,-0.008695718336216629,0.07527170363231406,-122.70838865597605,-52.360941896715254,21.52052452835445,0.0168,-0.8776,-0.4412,0.1867
208,3134316.0,44.917305999999996,1.0,-3.18,-1.8,-8.99,27.56,-5.69,27.37,-2.13,1.94,-0.19,-0.03790962723834854,0.1665696633654372,0.10390206926362566,-122.58898532309729,-52.527000178757774,21.450543092817842,0.0161,-0.8771,-0.4425,0.1861
209,3134316.0,44.917305999999996,1.0,-3.18,-1.8,-8.99,27.56,-5.69,27.37,-2.13,1.94,-0.19,-0.03790962723834854,0.1665696633654372,0.10390206926362566,-122.58898532309729,-52.527000178757774,21.450543092817842,0.0161,-0.8771,-0.4425,0.1861
210,3134351.0,44.960069,1.0,-3.03,-1.53,-8.98,27.19,-6.06,28.19,-2.88,6.06,-1.0,0.22067996341576648,0.22639404649575345,0.2117427003197125,-122.63671936413529,-52.55255813835036,21.275624852029367,0.016,-0.8773,-0.4427,0.1846
211,3134351.0,44.960069,1.0,-3.03,-1.53,-8.98,27.19,-6.06,28.19,-2.88,6.06,-1.0,0.22067996341576648,0.22639404649575345,0.2117427003197125,-122.63671936413529,-52.55255813835036,21.275624852029367,0.016,-0.8773,-0.4427,0.1846
212,3134384.0,44.978772,1.0,-3.07,-1.8,-8.92,27.19,-6.06,28.19,4.81,6.44,-0.94,-0.034727279513106314,0.12998049921049104,0.20387961401853616,-122.6606000192726,-52.565338173503186,21.170698001897183,0.0172,-0.8774,-0.4428,0.1837
213,3134384.0,44.978772,1.0,-3.07,-1.8,-8.92,27.19,-6.06,28.19,4.81,6.44,-0.94,-0.034727279513106314,0.12998049921049104,0.20387961401853616,-122.6606000192726,-52.565338173503186,21.170698001897183,0.0172,-0.8774,-0.4428,0.1837
214,3134418.0,45.02925,1.0,-2.02,-1.9,-10.28,26.87,-6.5,27.37,4.13,-19.31,0.56,0.957785802144407,-0.9430363593901759,-0.7556475143705708,-122.5651319143896,-52.565338173503186,21.403893300909647,0.0177,-0.877,-0.4428,0.1857
215,3134418.0,45.02925,1.0,-2.02,-1.9,-10.28,26.87,-6.5,27.37,4.13,-19.31,0.56,0.957785802144407,-0.9430363593901759,-0.7556475143705708,-122.5651319143896,-52.565338173503186,21.403893300909647,0.0177,-0.877,-0.4428,0.1857
216,3134453.0,45.074647999999996,1.0,-3.45,-2.14,-8.59,27.19,-5.69,28.19,0.69,-5.56,-1.75,-0.5304749563388357,0.21683735885950506,0.32288609106067234,-122.3033398527211,-52.68039020015169,21.753854808314237,0.0165,-0.8759,-0.4437,0.1887
217,3134453.0,45.074647999999996,1.0,-3.45,-2.14,-8.59,27.19,-5.69,28.19,0.69,-5.56,-1.75,-0.5304749563388357,0.21683735885950506,0.32288609106067234,-122.3033398527211,-52.68039020015169,21.753854808314237,0.0165,-0.8759,-0.4437,0.1887
218,3134490.0,45.090833,1.0,-3.02,-1.77,-9.13,27.56,-6.88,26.56,-2.94,14.94,0.94,0.11763521490092332,0.0558165387105245,0.029470116709438443,-122.44600053491276,-52.70596508072085,21.403893300909647,0.0165,-0.8765,-0.4439,0.1857
219,3134490.0,45.090833,1.0,-3.02,-1.77,-9.13,27.56,-6.88,26.56,-2.94,14.94,0.94,0.11763521490092332,0.0558165387105245,0.029470116709438443,-122.44600053491276,-52.70596508072085,21.403893300909647,0.0165,-0.8765,-0.4439,0.1857
220,3134523.0,45.128060999999995,1.0,-2.45,-1.66,-9.93,27.56,-6.88,26.56,-2.81,-2.0,1.12,0.7571743033414491,-0.4250211976024081,-0.5185155703890754,-122.54128756505699,-52.65481814526298,21.263965423591053,0.0164,-0.8769,-0.4435,0.1845
221,3134523.0,45.128060999999995,1.0,-2.45,-1.66,-9.93,27.56,-6.88,26.56,-2.81,-2.0,1.12,0.7571743033414491,-0.4250211976024081,-0.5185155703890754,-122.54128756505699,-52.65481814526298,21.263965423591053,0.0164,-0.8769,-0.4435,0.1845
222,3134560.0,45.218915,1.0,-3.48,-1.82,-8.61,26.87,-6.06,27.87,1.88,-1.19,0.19,-0.33998083067942475,0.44086602824731796,0.3596954547559097,-122.44600053491276,-52.66760381963542,21.473869337236096,0.0159,-0.8765,-0.4436,0.1863
223,3134560.0,45.218915,1.0,-3.48,-1.82,-8.61,26.87,-6.06,27.87,1.88,-1.19,0.19,-0.33998083067942475,0.44086602824731796,0.3596954547559097,-122.44600053491276,-52.66760381963542,21.473869337236096,0.0159,-0.8765,-0.4436,0.1863
224,3134597.0,45.224037,1.0,-3.09,-1.6,-8.87,26.87,-6.5,27.87,-1.75,9.38,0.25,0.09252332528792297,0.2706228733969861,0.2828270966343549,-122.5651319143896,-52.66760381963542,21.182355652510953,0.0169,-0.877,-0.4436,0.1838
225,3134597.0,45.224037,1.0,-3.09,-1.6,-8.87,26.87,-6.5,27.87,-1.75,9.38,0.25,0.09252332528792297,0.2706228733969861,0.2828270966343549,-122.5651319143896,-52.66760381963542,21.182355652510953,0.0169,-0.877,-0.4436,0.1838
226,3134629.0,45.234252000000005,1.0,-2.48,-1.8,-9.65,26.87,-6.5,27.87,-0.44,8.69,-0.06,0.5011615373875326,-0.3860180902236934,-0.2984342226803545,-122.70838865597605,-52.64203317675828,20.914285524438075,0.0184,-0.8776,-0.4434,0.1815
227,3134629.0,45.234252000000005,1.0,-2.48,-1.8,-9.65,26.87,-6.5,27.87,-0.44,8.69,-0.06,0.5011615373875326,-0.3860180902236934,-0.2984342226803545,-122.70838865597605,-52.64203317675828,20.914285524438075,0.0184,-0.8776,-0.4434,0.1815
