acc_x,acc_y,acc_z,lin_x,lin_y,lin_z,eul_x,eul_y,eul_z
4.27,7.22,-4.41,-0.4543773044649381,-0.239241418250427,0.3437907698845759,-59.20766160334654,-87.97477410653165,-62.35619623181861
4.27,7.22,-4.41,-0.4543773044649381,-0.239241418250427,0.3437907698845759,-59.20766160334654,-87.97477410653165,-62.35619623181861
5.78,5.61,-4.73,-2.2715682534981445,-1.1986046670935186,0.8257411082607575,-60.26481476661726,-87.21273191771509,-62.22230638887762
5.78,5.61,-4.73,-2.2715682534981445,-1.1986046670935186,0.8257411082607575,-60.26481476661726,-87.21273191771509,-62.22230638887762
7.93,5.59,-4.82,-2.803528459201357,-2.524440249791526,-0.3487835015143776,-64.20019215099853,-83.81038394201012,-62.34280299111539
7.93,5.59,-4.82,-2.803528459201357,-2.524440249791526,-0.3487835015143776,-64.20019215099853,-83.81038394201012,-62.34280299111539
7.3,8.78,-2.87,1.7661626125378933,-1.865862736820849,-1.683107433184425,-71.9737624996918,-76.00560231797398,-63.05395914548726
7.3,8.78,-2.87,1.7661626125378933,-1.865862736820849,-1.683107433184425,-71.9737624996918,-76.00560231797398,-63.05395914548726
7.34,5.57,-2.75,0.5082515061107407,-2.167956837907412,0.4522583278757946,-77.64355736158599,-71.18267056189946,-62.31601934999826
7.34,5.57,-2.75,0.5082515061107407,-2.167956837907412,0.4522583278757946,-77.64355736158599,-71.18267056189946,-62.31601934999826
9.05,5.48,-3.14,0.7078982157730136,-2.2622100786889026,-0.9717443923009108,-83.27262296307823,-64.68782282646684,-62.91957249352721
9.05,5.48,-3.14,0.7078982157730136,-2.2622100786889026,-0.9717443923009108,-83.27262296307823,-64.68782282646684,-62.91957249352721
8.53,4.7,-2.62,0.9835711658480316,-1.878250550496624,-0.0533734599757149,-86.92820940034244,-59.64305925688446,-63.79482577106735
8.53,4.7,-2.62,0.9835711658480316,-1.878250550496624,-0.0533734599757149,-86.92820940034244,-59.64305925688446,-63.79482577106735
7.87,3.22,-2.28,0.779515294411788,-1.675440387831996,1.1991558575332455,-91.72982641130142,-53.35908614472047,-64.15961512656168
7.87,3.22,-2.28,0.779515294411788,-1.675440387831996,1.1991558575332455,-91.72982641130142,-53.35908614472047,-64.15961512656168
8.52,3.36,-2.46,0.9939138130225348,-1.2612529636452654,0.4603685847001682,-94.51308235594236,-48.171071061668,-65.4626072017906
8.52,3.36,-2.46,0.9939138130225348,-1.2612529636452654,0.4603685847001682,-94.51308235594236,-48.171071061668,-65.4626072017906
9.3,5.06,-3.41,1.148166496114489,0.8044494819501322,-1.2276725767688337,-96.52454726797548,-41.20714343304567,-68.66575661319368
9.3,5.06,-3.41,1.148166496114489,0.8044494819501322,-1.2276725767688337,-96.52454726797548,-41.20714343304567,-68.66575661319368
8.76,3.47,-3.5,0.0059942259834663,0.1154465749481934,-0.243978644895181,-98.0332655181114,-37.30166033497223,-69.82153596259464
8.76,3.47,-3.5,0.0059942259834663,0.1154465749481934,-0.243978644895181,-98.0332655181114,-37.30166033497223,-69.82153596259464
8.82,3.7,-3.53,0.0965643983411306,0.3857142463143386,-0.3808521392470468,-100.94154333267473,-32.162473260424385,-69.91938190191141
8.82,3.7,-3.53,0.0965643983411306,0.3857142463143386,-0.3808521392470468,-100.94154333267473,-32.162473260424385,-69.91938190191141
9.15,5.18,-4.6,-0.0802287747110356,1.798175263763429,-1.5280325744922258,-104.07247881840765,-28.31639242391693,-68.63800520067792
9.15,5.18,-4.6,-0.0802287747110356,1.798175263763429,-1.5280325744922258,-104.07247881840765,-28.31639242391693,-68.63800520067792
10.29,5.14,-7.0,-0.9186490376068372,1.5120369809820544,-3.5415157209463306,-111.25813232752796,-23.95177191669858,-63.00019289675618
10.29,5.14,-7.0,-0.9186490376068372,1.5120369809820544,-3.5415157209463306,-111.25813232752796,-23.95177191669858,-63.00019289675618
7.51,5.46,-5.99,0.4999878604817291,2.5713036697840628,-0.9278835053334262,-122.0899512562803,-19.505871262305693,-53.24369423684897
7.51,5.46,-5.99,0.4999878604817291,2.5713036697840628,-0.9278835053334262,-122.0899512562803,-19.505871262305693,-53.24369423684897
6.52,4.43,-7.07,0.3072407706477024,2.013837302194945,-0.5842239973661503,-131.2600452849924,-17.045256614539127,-44.51874337646561
6.52,4.43,-7.07,0.3072407706477024,2.013837302194945,-0.5842239973661503,-131.2600452849924,-17.045256614539127,-44.51874337646561
3.84,3.31,-6.21,0.1710469215998081,1.7882378984954868,1.9939201205663268,-141.78287468010964,-14.7196246947995,-34.17118813606689
3.84,3.31,-6.21,0.1710469215998081,1.7882378984954868,1.9939201205663268,-141.78287468010964,-14.7196246947995,-34.17118813606689
1.51,3.73,-6.23,-0.9037612061996332,2.7491896283461843,2.97795524407758,-148.39242814751884,-13.530302549412,-27.336531426237315
1.51,3.73,-6.23,-0.9037612061996332,2.7491896283461843,2.97795524407758,-148.39242814751884,-13.530302549412,-27.336531426237315
0.99,1.72,-6.27,-1.049447929026219,1.0639312122187148,3.402111810565152,-154.0662728728033,-13.645704477358525,-21.07744476440248
0.99,1.72,-6.27,-1.049447929026219,1.0639312122187148,3.402111810565152,-154.0662728728033,-13.645704477358525,-21.07744476440248
2.49,1.63,-8.87,-0.2494600008651826,0.4824397725172082,0.4664721872460103,-156.36226771891504,-13.51876311679545,-18.51827857520288
2.49,1.63,-8.87,-0.2494600008651826,0.4824397725172082,0.4664721872460103,-156.36226771891504,-13.51876311679545,-18.51827857520288
1.92,2.41,-9.24,-0.2495245050505188,1.2501550918755588,0.1502039784226543,-158.5304946671076,-13.51876311679545,-15.586632804931574
1.92,2.41,-9.24,-0.2495245050505188,1.2501550918755588,0.1502039784226543,-158.5304946671076,-13.51876311679545,-15.586632804931574
1.01,1.06,-8.26,-0.8795224557854302,0.2597369219081576,1.4681683048011165,-159.53822461146382,-13.830376539145911,-13.968904250085991
1.01,1.06,-8.26,-0.8795224557854302,0.2597369219081576,1.4681683048011165,-159.53822461146382,-13.830376539145911,-13.968904250085991
2.3,1.5,-9.88,0.1915447528321494,0.2097049953157074,-0.4438980059654458,-159.8633643903993,-14.303764676023915,-13.057297449093689
2.3,1.5,-9.88,0.1915447528321494,0.2097049953157074,-0.4438980059654458,-159.8633643903993,-14.303764676023915,-13.057297449093689
1.97,1.27,-9.63,0.0363595731346162,0.0706222806675805,-0.1041718869534147,-159.9948843845241,-14.823619947246296,-12.204140573704526
1.97,1.27,-9.63,0.0363595731346162,0.0706222806675805,-0.1041718869534147,-159.9948843845241,-14.823619947246296,-12.204140573704526
1.13,0.63,-9.87,-0.8027576104531958,-0.29513957424863,-0.1109693136544525,-160.06096636558732,-15.621331474060083,-11.30560069930953
1.13,0.63,-9.87,-0.8027576104531958,-0.29513957424863,-0.1109693136544525,-160.06096636558732,-15.621331474060083,-11.30560069930953
0.65,1.01,-9.32,-0.9558652533018208,0.1912173707174911,0.4602732937749519,-159.73268910086296,-16.2808838756779,-10.764512919793646
0.65,1.01,-9.32,-0.9558652533018208,0.1912173707174911,0.4602732937749519,-159.73268910086296,-16.2808838756779,-10.764512919793646
1.01,1.47,-9.56,-0.4964059386747484,0.4358874612771619,0.1041666444280977,-159.0283735374385,-17.207493384994194,-10.52282880334764
1.01,1.47,-9.56,-0.4964059386747484,0.4358874612771619,0.1041666444280977,-159.0283735374385,-17.207493384994194,-10.52282880334764
0.99,1.78,-9.96,-0.4582401148614873,0.8094797622320418,-0.3168305532320961,-158.16444882979192,-18.471838381894354,-10.499813733449365
0.99,1.78,-9.96,-0.4582401148614873,0.8094797622320418,-0.3168305532320961,-158.16444882979192,-18.471838381894354,-10.499813733449365
1.4,0.77,-10.44,-0.4311441147955843,-0.149564812746564,-0.7450439454793347,-157.21671751944734,-19.81987998842397,-10.396251161173767
1.4,0.77,-10.44,-0.4311441147955843,-0.149564812746564,-0.7450439454793347,-157.21671751944734,-19.81987998842397,-10.396251161173767
1.05,0.71,-10.29,-0.6308224319317083,0.0434549507766452,-0.5418220962383984,-156.41828103776766,-21.07744476440248,-9.91307033213892
1.05,0.71,-10.29,-0.6308224319317083,0.0434549507766452,-0.5418220962383984,-156.41828103776766,-21.07744476440248,-9.91307033213892
1.73,0.22,-10.97,0.1102613758860467,-0.355500267967927,-1.29486620223393,-156.0841409493743,-22.41935080242252,-8.096899901459961
1.73,0.22,-10.97,0.1102613758860467,-0.355500267967927,-1.29486620223393,-156.0841409493743,-22.41935080242252,-8.096899901459961
1.04,-1.0,-10.52,-0.120263912652199,-0.8567752449759423,-0.7765193159898924,-156.0841409493743,-23.46000147463535,-4.11472114096103
1.04,-1.0,-10.52,-0.120263912652199,-0.8567752449759423,-0.7765193159898924,-156.0841409493743,-23.46000147463535,-4.11472114096103
1.39,-1.49,-11.32,0.7636558026505849,-1.3045959972423078,-1.5955190523802332,-155.91878451766874,-23.89320452199912,-0.1718874029970642
1.39,-1.49,-11.32,0.7636558026505849,-1.3045959972423078,-1.5955190523802332,-155.91878451766874,-23.89320452199912,-0.1718874029970642
-0.36,-2.32,-8.85,-0.1920081932890814,-1.3943020246442843,0.7593545633635532,-154.84376268843482,-23.881491803544503,5.97292446733722
-0.36,-2.32,-8.85,-0.1920081932890814,-1.3943020246442843,0.7593545633635532,-154.84376268843482,-23.881491803544503,5.97292446733722
-0.35,-2.19,-8.91,0.2900204647520065,-1.2286369462484898,0.7119790667370367,-153.71118144535646,-24.127512270969643,8.522006076442151
-0.35,-2.19,-8.91,0.2900204647520065,-1.2286369462484898,0.7119790667370367,-153.71118144535646,-24.127512270969643,8.522006076442151
-0.65,-1.95,-10.0,0.8063564375652836,-0.7848567530525226,-0.3402110502354301,-152.67309729035,-23.858067126010045,11.2825706212041
-0.65,-1.95,-10.0,0.8063564375652836,-0.7848567530525226,-0.3402110502354301,-152.67309729035,-23.858067126010045,11.2825706212041
-2.08,-1.4,-9.31,-0.0834745826394758,0.2310902814258383,0.1680749354023465,-151.8602645048557,-23.75266857932526,13.195714475135588
-2.08,-1.4,-9.31,-0.0834745826394758,0.2310902814258383,0.1680749354023465,-151.8602645048557,-23.75266857932526,13.195714475135588
-2.89,-1.98,-8.45,-0.9786656605827524,0.0916662239061426,0.7122115440978991,-150.2552755154301,-24.467440757791284,14.7196246947995
-2.89,-1.98,-8.45,-0.9786656605827524,0.0916662239061426,0.7122115440978991,-150.2552755154301,-24.467440757791284,14.7196246947995
-2.82,-2.44,-8.29,-1.0861678884727048,-0.2439962349235081,0.7849647275359981,-149.46197984083236,-25.018825462277388,14.962299399917931
-2.82,-2.44,-8.29,-1.0861678884727048,-0.2439962349235081,0.7849647275359981,-149.46197984083236,-25.018825462277388,14.962299399917931
-2.2,-2.28,-9.06,-0.3658394335576365,-0.1732083811059934,0.2171682431181985,-149.0298356031949,-25.758842544663853,14.25756979612918
-2.2,-2.28,-9.06,-0.3658394335576365,-0.1732083811059934,0.2171682431181985,-149.0298356031949,-25.758842544663853,14.25756979612918
-2.23,-2.52,-9.31,-0.4394784159576289,-0.2395096343560372,-0.0801540264262357,-148.56117141184754,-26.22926038886817,14.061267443693245
-2.23,-2.52,-9.31,-0.4394784159576289,-0.2395096343560372,-0.0801540264262357,-148.56117141184754,-26.22926038886817,14.061267443693245
-2.5,-2.55,-8.25,-1.0636519527183863,-0.1169057108637445,0.8808459702082967,-148.14094650942238,-26.87682214392707,13.380300633180664
-2.5,-2.55,-8.25,-1.0636519527183863,-0.1169057108637445,0.8808459702082967,-148.14094650942238,-26.87682214392707,13.380300633180664
-1.43,-3.06,-9.31,-0.3089576402642701,-0.8277974924830558,-0.057623743563747,-148.1827256280383,-27.3719121623715,11.962154211464537
-1.43,-3.06,-9.31,-0.3089576402642701,-0.8277974924830558,-0.057623743563747,-148.1827256280383,-27.3719121623715,11.962154211464537
-1.04,-1.96,-10.42,0.5171005405212997,0.1261526819941183,-0.8336644940278095,-148.5189029496625,-27.690458980540107,10.557352206642197
-1.04,-1.96,-10.42,0.5171005405212997,0.1261526819941183,-0.8336644940278095,-148.5189029496625,-27.690458980540107,10.557352206642197
-1.35,-2.85,-9.58,-0.389096078714325,-0.5113548677882511,-0.2585633827712979,-148.22455825803132,-27.973794960271835,10.14313387414705
-1.35,-2.85,-9.58,-0.389096078714325,-0.5113548677882511,-0.2585633827712979,-148.22455825803132,-27.973794960271835,10.14313387414705
-1.23,-2.83,-9.04,-0.5164555358011105,-0.5643233839181396,0.2851893558601724,-147.97436096195162,-28.45823232032684,9.395572354596672
-1.23,-2.83,-9.04,-0.5164555358011105,-0.5643233839181396,0.2851893558601724,-147.97436096195162,-28.45823232032684,9.395572354596672
-0.84,-1.83,-9.83,0.3140606932164939,0.1988812293835977,-0.2205735507928725,-148.14094650942238,-28.63559484770936,8.740349140335567
-0.84,-1.83,-9.83,0.3140606932164939,0.1988812293835977,-0.2205735507928725,-148.14094650942238,-28.63559484770936,8.740349140335567
-1.07,-1.88,-9.65,-0.0328198167590088,0.2785847337628675,-0.0788501596146957,-147.84997349806363,-29.08522811781525,8.211782210366408
-1.07,-1.88,-9.65,-0.0328198167590088,0.2785847337628675,-0.0788501596146957,-147.84997349806363,-29.08522811781525,8.211782210366408
-1.32,-2.67,-8.88,-0.8408775510471453,-0.2809130464554779,0.4825032398682154,-147.27558529764082,-29.701259829199124,7.660420468145224
-1.32,-2.67,-8.88,-0.8408775510471453,-0.2809130464554779,0.4825032398682154,-147.27558529764082,-29.701259829199124,7.660420468145224
-0.68,-2.19,-9.4,-0.0971844383220963,-0.0631046502852556,0.1316785277908749,-147.15377378773437,-30.021467926252928,6.868145731332586
-0.68,-2.19,-9.4,-0.0971844383220963,-0.0631046502852556,0.1316785277908749,-147.15377378773437,-30.021467926252928,6.868145731332586
-0.38,-2.37,-10.11,0.0320398588567643,-0.1765647759719717,-0.5828253634305529,-146.871240884656,-30.460662205117806,5.949975106955117
-0.38,-2.37,-10.11,0.0320398588567643,-0.1765647759719717,-0.5828253634305529,-146.871240884656,-30.460662205117806,5.949975106955117
-0.68,-2.78,-9.22,-0.6315264252498105,-0.4525862631732979,0.1839923604184044,-146.4319313048688,-30.92409351880312,5.525454047712893
-0.68,-2.78,-9.22,-0.6315264252498105,-0.4525862631732979,0.1839923604184044,-146.4319313048688,-30.92409351880312,5.525454047712893
-0.49,-2.01,-8.26,-0.4123903175089329,-0.016808798776374,1.301507338626907,-146.35265556905202,-31.257132968636736,4.240855681461491
-0.49,-2.01,-8.26,-0.4123903175089329,-0.016808798776374,1.301507338626907,-146.35265556905202,-31.257132968636736,4.240855681461491
0.18,-0.67,-10.7,0.8281036601824215,1.187592406317801,-0.817622615311075,-146.0373496598969,-31.888273849894752,2.5670656278548973
0.18,-0.67,-10.7,0.8281036601824215,1.187592406317801,-0.817622615311075,-146.0373496598969,-31.888273849894752,2.5670656278548973
0.0,-1.88,-9.53,-0.2667039510641257,0.2875557359585898,0.1009052732310085,-144.388983618951,-33.416687431310486,1.2146932735575866
0.0,-1.88,-9.53,-0.2667039510641257,0.2875557359585898,0.1009052732310085,-144.388983618951,-33.416687431310486,1.2146932735575866
0.18,-2.76,-8.64,-0.8239032782877563,-0.5203863245322748,0.7872275428098234,-143.2814024718206,-34.351055102879386,0.1031324170464276
0.18,-2.76,-8.64,-0.8239032782877563,-0.5203863245322748,0.7872275428098234,-143.2814024718206,-34.351055102879386,0.1031324170464276
1.16,-2.2,-10.47,-0.0546998161647763,-0.0509417332877111,-0.9544332572711394,-141.95828650840244,-35.57649524988903,-2.486832027635776
1.16,-2.2,-10.47,-0.0546998161647763,-0.0509417332877111,-0.9544332572711394,-141.95828650840244,-35.57649524988903,-2.486832027635776
1.68,-2.95,-9.84,-0.3214644976612442,-0.9332379216948044,-0.5556001204253018,-140.8487237731441,-36.46817032738551,-3.805139007503523
1.68,-2.95,-9.84,-0.3214644976612442,-0.9332379216948044,-0.5556001204253018,-140.8487237731441,-36.46817032738551,-3.805139007503523
1.43,-1.17,-9.64,0.3824822761198977,0.5023905457424399,0.0115128877384886,-140.17034192327273,-37.26537941343616,-4.550480755424785
1.43,-1.17,-9.64,0.3824822761198977,0.5023905457424399,0.0115128877384886,-140.17034192327273,-37.26537941343616,-4.550480755424785
1.41,-2.87,-9.52,-0.6869252259073121,-0.7341782221961333,-0.1855727793452022,-139.3046731473042,-38.015979325491685,-4.6536963885673295
1.41,-2.87,-9.52,-0.6869252259073121,-0.7341782221961333,-0.1855727793452022,-139.3046731473042,-38.015979325491685,-4.6536963885673295
1.34,-2.78,-9.85,-0.6997245906917329,-0.5455706898835904,-0.4772810635340807,-138.94369485234358,-38.44045190034536,-4.642227799866185
1.34,-2.78,-9.85,-0.6997245906917329,-0.5455706898835904,-0.4772810635340807,-138.94369485234358,-38.44045190034536,-4.642227799866185
1.36,-1.92,-9.8,-0.1181116749441658,0.0056752213605284,-0.2711482428754941,-139.2059212883253,-38.306987464775865,-4.3669953627837845
1.36,-1.92,-9.8,-0.1181116749441658,0.0056752213605284,-0.2711482428754941,-139.2059212883253,-38.306987464775865,-4.3669953627837845
1.13,-1.85,-9.1,-0.2359648344902059,-0.0539747220681701,0.4551363617561002,-139.33764146351638,-38.37977954174036,-4.068855279934243
1.13,-1.85,-9.1,-0.2359648344902059,-0.0539747220681701,0.4551363617561002,-139.33764146351638,-38.37977954174036,-4.068855279934243
1.32,-1.97,-9.43,-0.1887640283859874,-0.1918050571076754,0.086784828010451,-139.2717303873644,-38.44045190034536,-4.206454848857137
1.32,-1.97,-9.43,-0.1887640283859874,-0.1918050571076754,0.086784828010451,-139.2717303873644,-38.44045190034536,-4.206454848857137
1.38,-1.46,-9.74,0.1418693685755217,0.208129435032142,-0.1351886237422519,-139.40365501423122,-38.367646412161214,-4.3669953627837845
1.38,-1.46,-9.74,0.1418693685755217,0.208129435032142,-0.1351886237422519,-139.40365501423122,-38.367646412161214,-4.3669953627837845
1.42,-2.22,-9.69,-0.3124667163761431,-0.3793203873610829,-0.2232742566875512,-139.2059212883253,-38.48899785121896,-4.4587366294239885
1.42,-2.22,-9.69,-0.3124667163761431,-0.3793203873610829,-0.2232742566875512,-139.2059212883253,-38.48899785121896,-4.4587366294239885
1.19,-2.12,-9.39,-0.4344311127825856,-0.2221565882903602,0.1193120757544718,-139.1730548258568,-38.52541202617238,-4.504608331312204
1.19,-2.12,-9.39,-0.4344311127825856,-0.2221565882903602,0.1193120757544718,-139.1730548258568,-38.52541202617238,-4.504608331312204
1.28,-2.08,-9.71,-0.3545523304370708,-0.1609488659528355,-0.1982132228296916,-139.2388131216407,-38.44045190034536,-4.61929076192046
1.28,-2.08,-9.71,-0.3545523304370708,-0.1609488659528355,-0.1982132228296916,-139.2388131216407,-38.44045190034536,-4.61929076192046
1.48,-1.6,-9.79,0.074434665871972,0.0808940824860526,-0.222428503428679,-139.3046731473042,-38.37977954174036,-4.733977821845079
1.48,-1.6,-9.79,0.074434665871972,0.0808940824860526,-0.222428503428679,-139.3046731473042,-38.37977954174036,-4.733977821845079
1.26,-2.16,-9.34,-0.4398355508069989,-0.3001147355438725,0.152362049366058,-139.2717303873644,-38.40404714248387,-4.733977821845079
1.26,-2.16,-9.34,-0.4398355508069989,-0.3001147355438725,0.152362049366058,-139.2717303873644,-38.40404714248387,-4.733977821845079
1.24,-2.04,-9.38,-0.4254762079490496,-0.202721347585905,0.1391025317068024,-139.33764146351638,-38.367646412161214,-4.96336629149859
1.24,-2.04,-9.38,-0.4254762079490496,-0.202721347585905,0.1391025317068024,-139.33764146351638,-38.367646412161214,-4.96336629149859
