acc_x,acc_y,acc_z,lin_x,lin_y,lin_z,eul_x,eul_y,eul_z
3.87,2.56,-8.82,-0.1483101029290054,0.1334298256152339,-0.1574405553394839,-149.63651807466178,11.89302513102135,-22.09234622296079
3.87,2.56,-8.82,-0.1483101029290054,0.1334298256152339,-0.1574405553394839,-149.63651807466178,11.89302513102135,-22.09234622296079
4.04,2.47,-9.02,-0.0335035800627349,-0.0006262603968896,-0.3806841516768227,-149.59279181341395,11.92758912667584,-22.05732086897936
4.04,2.47,-9.02,-0.0335035800627349,-0.0006262603968896,-0.3806841516768227,-149.59279181341395,11.92758912667584,-22.05732086897936
4.34,2.85,-9.3,0.0894288638785674,0.1879549015954791,-0.8425178282047803,-149.24516700325162,12.169567773976445,-21.823871652385925
4.34,2.85,-9.3,0.0894288638785674,0.1879549015954791,-0.8425178282047803,-149.24516700325162,12.169567773976445,-21.823871652385925
3.74,2.7,-9.33,-0.3386393696058381,-0.1498012501994716,-0.5947625465146159,-149.20198320614296,12.158043754647911,-21.392231414012297
3.74,2.7,-9.33,-0.3386393696058381,-0.1498012501994716,-0.5947625465146159,-149.20198320614296,12.158043754647911,-21.392231414012297
3.19,3.3,-9.37,-0.8580523276461468,0.2269023344274044,-0.5892752370172598,-149.4184972482763,12.192616183384214,-20.57644875978384
3.19,3.3,-9.37,-0.8580523276461468,0.2269023344274044,-0.5892752370172598,-149.4184972482763,12.192616183384214,-20.57644875978384
3.3,3.31,-9.78,-0.7613168702971718,0.0552238286594826,-1.0059281824571844,-149.68030591183427,12.054333120262198,-19.947852442498814
3.3,3.31,-9.78,-0.7613168702971718,0.0552238286594826,-1.0059281824571844,-149.68030591183427,12.054333120262198,-19.947852442498814
2.94,4.84,-9.55,-1.218899925435914,1.4081637406153693,-1.1388083207551638,-150.0772121119661,11.800859775906506,-18.959614614971
2.94,4.84,-9.55,-1.218899925435914,1.4081637406153693,-1.1388083207551638,-150.0772121119661,11.800859775906506,-18.959614614971
2.49,4.55,-9.14,-1.2673408583744854,1.251971824011884,-0.5504062275472368,-150.9325061978301,11.086833319532731,-18.15844670797989
2.49,4.55,-9.14,-1.2673408583744854,1.251971824011884,-0.5504062275472368,-150.9325061978301,11.086833319532731,-18.15844670797989
2.5,5.05,-8.99,-1.0652114721268298,1.867959149495514,-0.5831841245404608,-152.47972490837182,9.637046865121436,-17.103194349757633
2.5,5.05,-8.99,-1.0652114721268298,1.867959149495514,-0.5831841245404608,-152.47972490837182,9.637046865121436,-17.103194349757633
2.13,4.86,-7.8,-0.8474831510659395,2.2041098322266057,0.6731855884997646,-154.11739099299157,7.936078336486531,-16.38507281218067
2.13,4.86,-7.8,-0.8474831510659395,2.2041098322266057,0.6731855884997646,-154.11739099299157,7.936078336486531,-16.38507281218067
2.18,4.07,-7.19,-0.2479234434979649,1.8662163520726525,1.471833235762119,-156.5307030363511,4.802792327898413,-15.760140597334962
2.18,4.07,-7.19,-0.2479234434979649,1.8662163520726525,1.471833235762119,-156.5307030363511,4.802792327898413,-15.760140597334962
2.83,2.69,-6.98,0.7280370165635204,0.8398349077533672,1.8864202413230349,-158.71585002764485,1.3751317128217122,-15.609765091037287
2.83,2.69,-6.98,0.7280370165635204,0.8398349077533672,1.8864202413230349,-158.71585002764485,1.3751317128217122,-15.609765091037287
3.12,1.88,-6.78,1.1310474689318994,0.1780950704385228,2.195722739218416,-159.40959116439532,-1.5355728478655368,-15.852692930840096
3.12,1.88,-6.78,1.1310474689318994,0.1780950704385228,2.195722739218416,-159.40959116439532,-1.5355728478655368,-15.852692930840096
4.06,-0.17,-7.32,1.7064584311994817,-1.897607923312104,1.8328188134265493,-159.40959116439532,-5.181303758795194,-16.709303811577858
4.06,-0.17,-7.32,1.7064584311994817,-1.897607923312104,1.8328188134265493,-159.40959116439532,-5.181303758795194,-16.709303811577858
4.48,0.62,-7.61,1.9132790858344204,-1.2166082240223264,1.249423371649554,-158.4077981068511,-7.304427851725569,-17.6712197397126
4.48,0.62,-7.61,1.9132790858344204,-1.2166082240223264,1.249423371649554,-158.4077981068511,-7.304427851725569,-17.6712197397126
4.55,-0.68,-7.85,1.4246267812406428,-2.535801349789516,1.1853072943318406,-156.25063177900063,-9.98208514628972,-19.42448582735805
4.55,-0.68,-7.85,1.4246267812406428,-2.535801349789516,1.1853072943318406,-156.25063177900063,-9.98208514628972,-19.42448582735805
4.82,-0.44,-8.45,1.218975436611836,-2.4300979661195954,0.4558627197760288,-154.58200075536982,-11.489857897732715,-20.879328419459103
4.82,-0.44,-8.45,1.218975436611836,-2.4300979661195954,0.4558627197760288,-154.58200075536982,-11.489857897732715,-20.879328419459103
4.59,0.34,-8.07,0.9475370237800352,-1.630821886216661,0.7098816966956445,-152.28767595523584,-12.838176201349,-22.79329707445838
4.59,0.34,-8.07,0.9475370237800352,-1.630821886216661,0.7098816966956445,-152.28767595523584,-12.838176201349,-22.79329707445838
5.32,0.55,-8.54,1.0775968697708858,-1.6873471743894095,-0.0689838783563683,-150.1661139822511,-13.588001782657653,-24.8662564695287
5.32,0.55,-8.54,1.0775968697708858,-1.6873471743894095,-0.0689838783563683,-150.1661139822511,-13.588001782657653,-24.8662564695287
6.15,-0.15,-9.85,0.5370922649301235,-2.6845827024662725,-1.4792725414926124,-147.68484875398153,-13.680327762024126,-27.666855466190324
6.15,-0.15,-9.85,0.5370922649301235,-2.6845827024662725,-1.4792725414926124,-147.68484875398153,-13.680327762024126,-27.666855466190324
5.49,1.41,-8.57,0.540664088717184,-0.9884060505228476,-0.4062749396273073,-146.1159090950019,-12.965030073382623,-29.49976914452507
5.49,1.41,-8.57,0.540664088717184,-0.9884060505228476,-0.4062749396273073,-146.1159090950019,-12.965030073382623,-29.49976914452507
5.83,1.36,-9.63,-0.2269127461287381,-1.3519634392833422,-1.4492864543553416,-143.94200484154302,-11.754779974813852,-32.01938920775377
5.83,1.36,-9.63,-0.2269127461287381,-1.3519634392833422,-1.4492864543553416,-143.94200484154302,-11.754779974813852,-32.01938920775377
5.79,1.69,-9.33,-0.4733702706482698,-1.058169299126016,-1.2425716160801803,-142.2760067690691,-9.855560741569812,-34.13522516911611
5.79,1.69,-9.33,-0.4733702706482698,-1.058169299126016,-1.2425716160801803,-142.2760067690691,-9.855560741569812,-34.13522516911611
6.18,2.2,-9.66,-0.6252185923573139,-0.7841030280376131,-1.827020278686472,-140.9514569794307,-8.257737442475136,-35.63667282414923
6.18,2.2,-9.66,-0.6252185923573139,-0.7841030280376131,-1.827020278686472,-140.9514569794307,-8.257737442475136,-35.63667282414923
6.12,1.62,-9.01,-0.5868485915985971,-1.3027819673095178,-1.1120160300694195,-139.76858389100772,-5.663127955663872,-36.93902480540506
6.12,1.62,-9.01,-0.5868485915985971,-1.3027819673095178,-1.1120160300694195,-139.76858389100772,-5.663127955663872,-36.93902480540506
6.19,4.1,-9.21,-0.8781270149911424,0.8872740046538157,-1.9573560262738887,-138.87838831455554,-3.3121572228147254,-37.616257937648726
6.19,4.1,-9.21,-0.8781270149911424,0.8872740046538157,-1.9573560262738887,-138.87838831455554,-3.3121572228147254,-37.616257937648726
5.79,3.18,-9.04,-1.1226150903104144,0.0622680462205731,-1.3330967677424024,-138.7806141249359,-0.5500415954991054,-37.49522418973963
5.79,3.18,-9.04,-1.1226150903104144,0.0622680462205731,-1.3330967677424024,-138.7806141249359,-0.5500415954991054,-37.49522418973963
5.67,3.23,-8.4,-0.7908741124288025,0.3159194888077949,-0.7960153731446891,-139.14021367291954,1.6043342375287626,-36.842386864351504
5.67,3.23,-8.4,-0.7908741124288025,0.3159194888077949,-0.7960153731446891,-139.14021367291954,1.6043342375287626,-36.842386864351504
5.5,4.08,-7.96,-0.6763085719035496,1.3204912175970231,-0.5883925520927491,-139.9355135446495,4.298191253728037,-35.528360490512846
5.5,4.08,-7.96,-0.6763085719035496,1.3204912175970231,-0.5883925520927491,-139.9355135446495,4.298191253728037,-35.528360490512846
5.23,2.96,-7.97,-0.6011194875751145,0.3193795463033839,-0.1518665595614905,-140.57602612666605,5.881128455236522,-34.53100937438062
5.23,2.96,-7.97,-0.6011194875751145,0.3193795463033839,-0.1518665595614905,-140.57602612666605,5.881128455236522,-34.53100937438062
5.28,4.61,-8.06,-0.8308186977530868,1.8838912229675664,-0.6745137784880395,-141.08884000838947,8.108387763620353,-33.23726531919248
5.28,4.61,-8.06,-0.8308186977530868,1.8838912229675664,-0.6745137784880395,-141.08884000838947,8.108387763620353,-33.23726531919248
4.99,3.2,-7.88,-0.4971567842468895,0.6937933650727992,-0.017096021679217,-141.9934624116977,9.154139652218912,-31.98362621241675
4.99,3.2,-7.88,-0.4971567842468895,0.6937933650727992,-0.017096021679217,-141.9934624116977,9.154139652218912,-31.98362621241675
4.65,4.02,-7.76,-0.645629401107867,1.6194406397590786,0.0618526860112798,-143.61025532246643,10.292697102933529,-29.96215210560615
4.65,4.02,-7.76,-0.645629401107867,1.6194406397590786,0.0618526860112798,-143.61025532246643,10.292697102933529,-29.96215210560615
4.83,2.15,-7.76,0.2164044723241856,0.1165943375170244,0.4200332045397168,-145.37657897397716,10.833574298853826,-28.292756752714663
4.83,2.15,-7.76,0.2164044723241856,0.1165943375170244,0.4200332045397168,-145.37657897397716,10.833574298853826,-28.292756752714663
4.61,3.05,-7.99,-0.1539353693212582,0.9734666827835504,0.1410736323133665,-146.31308564363076,11.155913338134187,-27.312945744821853
4.61,3.05,-7.99,-0.1539353693212582,0.9734666827835504,0.1410736323133665,-146.31308564363076,11.155913338134187,-27.312945744821853
4.34,2.22,-7.98,0.0223477458889402,0.294455179605849,0.4601428061089603,-147.72605283657722,11.052294827398208,-26.05280141790223
4.34,2.22,-7.98,0.0223477458889402,0.294455179605849,0.4601428061089603,-147.72605283657722,11.052294827398208,-26.05280141790223
4.62,1.86,-8.36,0.3524325965993452,0.0132485190121407,0.0819795304366124,-148.90133503664836,10.902639624835572,-25.124476539770274
4.62,1.86,-8.36,0.3524325965993452,0.0132485190121407,0.0819795304366124,-148.90133503664836,10.902639624835572,-25.124476539770274
4.6,1.51,-8.56,0.5772515823888187,-0.1966585278636432,-0.0087361887369521,-150.56941987552764,10.822063795614437,-23.65899809735879
4.6,1.51,-8.56,0.5772515823888187,-0.1966585278636432,-0.0087361887369521,-150.56941987552764,10.822063795614437,-23.65899809735879
3.8,2.03,-7.87,0.1802551574554302,0.4768694584683674,0.8490887471929156,-151.81316645370248,10.810553401892458,-22.44271531767953
3.8,2.03,-7.87,0.1802551574554302,0.4768694584683674,0.8490887471929156,-151.81316645370248,10.810553401892458,-22.44271531767953
3.92,1.51,-8.64,0.2650888872563895,-0.0518834208425775,0.2033622300487714,-153.11317220133924,10.269686237501055,-21.63717831946885
3.92,1.51,-8.64,0.2650888872563895,-0.0518834208425775,0.2033622300487714,-153.11317220133924,10.269686237501055,-21.63717831946885
3.9,1.09,-8.32,0.5079346165633667,-0.2959098772246019,0.5722068781946811,-153.8627830260387,9.959079806154524,-21.24064723466595
3.9,1.09,-8.32,0.5079346165633667,-0.2959098772246019,0.5722068781946811,-153.8627830260387,9.959079806154524,-21.24064723466595
3.8,1.18,-8.71,0.3511762183843355,-0.2044759332168806,0.2394474383116343,-154.68638599830706,9.694547078719877,-20.69292362085707
3.8,1.18,-8.71,0.3511762183843355,-0.2044759332168806,0.2394474383116343,-154.68638599830706,9.694547078719877,-20.69292362085707
3.75,1.06,-8.67,0.3710512092971214,-0.2823438072298836,0.3125674758906776,-154.9492208405226,9.637046865121436,-20.506574164810864
3.75,1.06,-8.67,0.3710512092971214,-0.2823438072298836,0.3125674758906776,-154.9492208405226,9.637046865121436,-20.506574164810864
3.39,1.22,-8.31,0.1167621058508363,-0.1050586402777624,0.7506062008159287,-154.8964372754453,9.614047461503418,-20.57644875978384
3.39,1.22,-8.31,0.1167621058508363,-0.1050586402777624,0.7506062008159287,-154.8964372754453,9.614047461503418,-20.57644875978384
3.63,1.25,-8.12,0.3309820647473104,-0.0177274971591243,0.8309084368387651,-154.52996593229264,9.591048446078224,-20.995859763455265
3.63,1.25,-8.12,0.3309820647473104,-0.0177274971591243,0.8309084368387651,-154.52996593229264,9.591048446078224,-20.995859763455265
4.23,0.77,-8.67,0.635485496479728,-0.5624877880048584,0.1663976344180042,-153.66083809692267,9.60254790532585,-21.928912393640328
4.23,0.77,-8.67,0.635485496479728,-0.5624877880048584,0.1663976344180042,-153.66083809692267,9.60254790532585,-21.928912393640328
3.58,1.67,-7.56,0.1362138615592869,0.3558807543818581,1.2852830514066156,-152.52794284369597,10.039600263356236,-22.723163534007305
3.58,1.67,-7.56,0.1362138615592869,0.3558807543818581,1.2852830514066156,-152.52794284369597,10.039600263356236,-22.723163534007305
3.88,1.19,-6.95,0.5466915878407133,0.0053314352175564,1.7770734306171097,-151.06981274894218,10.4537848668845,-24.03377694135321
3.88,1.19,-6.95,0.5466915878407133,0.0053314352175564,1.7770734306171097,-151.06981274894218,10.4537848668845,-24.03377694135321
5.83,1.03,-8.18,1.3859259648266944,-0.3190544459515085,-0.1903302180727433,-148.1827256280383,11.224997424028942,-26.74724052277769
5.83,1.03,-8.18,1.3859259648266944,-0.3190544459515085,-0.1903302180727433,-148.1827256280383,11.224997424028942,-26.74724052277769
4.33,1.76,-5.6,0.7301924361195427,0.7383640716568379,2.5866681784217667,-145.76376947074462,12.169567773976445,-28.682903338517608
4.33,1.76,-5.6,0.7301924361195427,0.7383640716568379,2.5866681784217667,-145.76376947074462,12.169567773976445,-28.682903338517608
4.37,1.94,-3.97,0.8919359130369884,1.2301388453432298,3.780655580137624,-140.47423039692836,13.34568808643722,-33.78776111254545
4.37,1.94,-3.97,0.8919359130369884,1.2301388453432298,3.780655580137624,-140.47423039692836,13.34568808643722,-33.78776111254545
7.32,2.51,-6.4,0.7789780683586023,1.0798475167314097,-0.1467224189153757,-134.35177886278402,13.426452603767608,-40.11951210127083
7.32,2.51,-6.4,0.7789780683586023,1.0798475167314097,-0.1467224189153757,-134.35177886278402,13.426452603767608,-40.11951210127083
7.0,2.25,-4.51,0.499707387165857,0.9473135902812092,1.2477079223317329,-125.77163105081792,12.400074265032766,-49.20242077437143
7.0,2.25,-4.51,0.499707387165857,0.9473135902812092,1.2477079223317329,-125.77163105081792,12.400074265032766,-49.20242077437143
8.54,1.87,-2.57,1.6979189975757885,0.7640530632956518,0.8866335205230841,-117.07896160834984,10.534336497867196,-58.2740608132382
8.54,1.87,-2.57,1.6979189975757885,0.7640530632956518,0.8866335205230841,-117.07896160834984,10.534336497867196,-58.2740608132382
13.97,2.89,-7.17,-2.87982340683887,-1.7282183289012911,-5.802378751113012,-104.14702125080773,7.602997386301144,-70.91515282684179
13.97,2.89,-7.17,-2.87982340683887,-1.7282183289012911,-5.802378751113012,-104.14702125080773,7.602997386301144,-70.91515282684179
12.36,2.38,-6.55,-3.834010221647487,-2.383837116378604,-3.645271283700642,-98.85789490415894,6.317194167065648,-75.90384057849288
12.36,2.38,-6.55,-3.834010221647487,-2.383837116378604,-3.645271283700642,-98.85789490415894,6.317194167065648,-75.90384057849288
8.78,3.07,-1.2,-0.2289562143447718,0.7242875407710294,0.4591216309498822,-97.45833109591425,6.937025592767178,-76.66148200858531
8.78,3.07,-1.2,-0.2289562143447718,0.7242875407710294,0.4591216309498822,-97.45833109591425,6.937025592767178,-76.66148200858531
9.94,2.76,-2.13,-1.0882110890129926,-0.3935984645050608,-0.6632581597924467,-95.00384413179768,6.48935022815341,-78.79547515620452
9.94,2.76,-2.13,-1.0882110890129926,-0.3935984645050608,-0.6632581597924467,-95.00384413179768,6.48935022815341,-78.79547515620452
10.48,3.07,-2.58,-1.7398109445246888,-0.5789399166994897,-1.2635616714254445,-93.58851254585272,6.294241112432486,-79.95698362722979
10.48,3.07,-2.58,-1.7398109445246888,-0.5789399166994897,-1.2635616714254445,-93.58851254585272,6.294241112432486,-79.95698362722979
9.37,2.81,-1.48,-0.8178862013727916,-0.1870036564102761,-0.0513159055047029,-93.48813148907244,6.3057176080928565,-79.83740266974313
9.37,2.81,-1.48,-0.8178862013727916,-0.1870036564102761,-0.0513159055047029,-93.48813148907244,6.3057176080928565,-79.83740266974313
10.15,2.79,-1.42,-0.6001686617796597,-0.3731017261915745,-0.7916325344170971,-93.53831032521614,6.3975318623814825,-79.6582267018899
10.15,2.79,-1.42,-0.6001686617796597,-0.3731017261915745,-0.7916325344170971,-93.53831032521614,6.3975318623814825,-79.6582267018899
10.56,3.1,-1.24,-0.4179334122870017,-0.0658321049379657,-1.2605175598074183,-93.94058643018808,6.6729995322127,-79.24105462662456
10.56,3.1,-1.24,-0.4179334122870017,-0.0658321049379657,-1.2605175598074183,-93.94058643018808,6.6729995322127,-79.24105462662456
9.29,2.81,-0.84,-0.0551144045227502,0.1462138282828808,0.0659424323315747,-94.6144322101244,6.799268354310192,-78.48441476201302
9.29,2.81,-0.84,-0.0551144045227502,0.1462138282828808,0.0659424323315747,-94.6144322101244,6.799268354310192,-78.48441476201302
9.27,2.45,-1.24,-0.158444669047174,-0.2977559950749025,0.1443916379892105,-95.36065966207356,6.879625535030392,-77.74655203029216
9.27,2.45,-1.24,-0.158444669047174,-0.2977559950749025,0.1443916379892105,-95.36065966207356,6.879625535030392,-77.74655203029216
9.03,2.65,-0.87,0.1259552753324544,0.1349631717480972,0.3575114037634321,-95.88962981558169,7.086273935339353,-77.21765539082577
9.03,2.65,-0.87,0.1259552753324544,0.1349631717480972,0.3575114037634321,-95.88962981558169,7.086273935339353,-77.21765539082577
8.89,2.96,-0.98,-0.0381242277807923,0.4222303315774145,0.3952543494945893,-96.42132059422951,7.189606746883267,-76.66148200858531
8.89,2.96,-0.98,-0.0381242277807923,0.4222303315774145,0.3952543494945893,-96.42132059422951,7.189606746883267,-76.66148200858531
9.2,2.5,-1.15,0.107570128254038,-0.1184225155589324,0.2052488118756255,-96.71406744218916,7.086273935339353,-76.38419493533601
9.2,2.5,-1.15,0.107570128254038,-0.1184225155589324,0.2052488118756255,-96.71406744218916,7.086273935339353,-76.38419493533601
9.17,2.9,-1.33,-0.138563261212132,0.2016538383191857,0.1005727309827495,-97.21541095446707,7.086273935339353,-75.9619815049614
9.17,2.9,-1.33,-0.138563261212132,0.2016538383191857,0.1005727309827495,-97.21541095446707,7.086273935339353,-75.9619815049614
8.89,2.62,-1.2,0.069711910764964,0.0773914794935435,0.4618305363399724,-97.5452305573509,6.902585349926143,-75.71504118189101
8.89,2.62,-1.2,0.069711910764964,0.0773914794935435,0.4618305363399724,-97.5452305573509,6.902585349926143,-75.71504118189101
9.15,2.7,-1.45,-0.0855788320667519,-0.0065107126193639,0.1574202963333242,-97.7540968309242,6.810747745686069,-75.526483262398
9.15,2.7,-1.45,-0.0855788320667519,-0.0065107126193639,0.1574202963333242,-97.7540968309242,6.810747745686069,-75.526483262398
9.45,2.94,-1.7,-0.2905315469796862,0.0425751817272801,-0.2307739112488658,-97.96340007132606,6.604129057804274,-75.39608386757837
9.45,2.94,-1.7,-0.2905315469796862,0.0425751817272801,-0.2307739112488658,-97.96340007132606,6.604129057804274,-75.39608386757837
9.08,2.86,-1.37,0.0176936035336333,0.1827361923509121,0.1905596083491847,-98.3657986482455,6.48935022815341,-74.97668509466439
9.08,2.86,-1.37,0.0176936035336333,0.1827361923509121,0.1905596083491847,-98.3657986482455,6.48935022815341,-74.97668509466439
9.33,2.92,-1.66,-0.1629872908864555,0.0687388970381341,-0.1079659838414048,-98.59396637382844,6.420486066048695,-74.78906078163884
9.33,2.92,-1.66,-0.1629872908864555,0.0687388970381341,-0.1079659838414048,-98.59396637382844,6.420486066048695,-74.78906078163884
9.1,2.76,-1.67,-0.1046607115609508,-0.0167499525828849,0.1523625806953514,-98.9989474081356,6.328670789467022,-74.41451438386142
9.1,2.76,-1.67,-0.1046607115609508,-0.0167499525828849,0.1523625806953514,-98.9989474081356,6.328670789467022,-74.41451438386142
9.05,2.71,-1.52,0.0755521751385442,0.0101509627445028,0.2384114564232771,-99.22859240723112,6.259812004164343,-74.1844858325427
9.05,2.71,-1.52,0.0755521751385442,0.0101509627445028,0.2384114564232771,-99.22859240723112,6.259812004164343,-74.1844858325427
8.78,2.9,-1.55,-0.0554765290990037,0.2138187478102728,0.4337046839425121,-99.42333079065403,6.2024314124588535,-73.96915070870061
8.78,2.9,-1.55,-0.0554765290990037,0.2138187478102728,0.4337046839425121,-99.42333079065403,6.2024314124588535,-73.96915070870061
9.26,2.8,-2.08,-0.3448367758989019,-0.2022322072940188,-0.080421848243068,-99.49424158104073,6.099150260471113,-73.88310198436405
9.26,2.8,-2.08,-0.3448367758989019,-0.2022322072940188,-0.080421848243068,-99.49424158104073,6.099150260471113,-73.88310198436405
9.07,3.0,-1.65,-0.0394097324995957,0.1808896500964043,0.1137079385063746,-99.7250605850298,6.076199569788739,-73.61093410103018
9.07,3.0,-1.65,-0.0394097324995957,0.1808896500964043,0.1137079385063746,-99.7250605850298,6.076199569788739,-73.61093410103018
8.96,3.03,-1.69,-0.0846595332636161,0.20651754243913,0.2009858757401659,-99.88518184221611,5.949975106955117,-73.45358416852795
8.96,3.03,-1.69,-0.0846595332636161,0.20651754243913,0.2009858757401659,-99.88518184221611,5.949975106955117,-73.45358416852795
8.92,2.94,-1.79,-0.1044592270392437,0.08552131215748,0.2465310480698921,-100.13478976112896,5.92702598542953,-73.15363536728181
8.92,2.94,-1.79,-0.1044592270392437,0.08552131215748,0.2465310480698921,-100.13478976112896,5.92702598542953,-73.15363536728181
8.79,3.02,-1.78,-0.1335933207885005,0.1739411114802731,0.3459524932419669,-100.25983753174992,5.8467059276897535,-72.99675173267174
8.79,3.02,-1.78,-0.1335933207885005,0.1739411114802731,0.3459524932419669,-100.25983753174992,5.8467059276897535,-72.99675173267174
8.9,2.86,-1.7,0.0463871745917467,0.0179847497428309,0.3052224873148628,-100.31347946564678,5.697547703194251,-72.89699940259716
8.9,2.86,-1.7,0.0463871745917467,0.0179847497428309,0.3052224873148628,-100.31347946564678,5.697547703194251,-72.89699940259716
