,TIME,ELAPSED_SECONDS,PSTATE,acc_x,acc_y,acc_z,mag_x,mag_y,mag_z,gyr_x,gyr_y,gyr_z,lin_x,lin_y,lin_z,eul_x,eul_y,eul_z,qua_w,qua_x,qua_y,qua_z
0,162635.0,118.149093,1.0,7.26,2.85,-5.95,-27.69,-29.69,23.0,3.44,6.38,-12.94,0.08024093744595366,0.6008595625558217,0.015576045727003772,-127.81886761171008,-7.407773121999347,-50.14946187500939,-0.0982,-0.8981,-0.0646,-0.4238
1,162635.0,118.149093,1.0,7.26,2.85,-5.95,-27.69,-29.69,23.0,3.44,6.38,-12.94,0.08024093744595366,0.6008595625558217,0.015576045727003772,-127.81886761171008,-7.407773121999347,-50.14946187500939,-0.0982,-0.8981,-0.0646,-0.4238
2,162670.0,118.15976599999999,1.0,7.5,2.79,-6.0,-27.69,-29.69,23.0,9.94,33.25,-34.44,0.09050550891639578,0.41231317328964295,-0.18614273276432947,-126.9655039569828,-8.441571750266656,-50.846289172862214,-0.0981,-0.8948,-0.0736,-0.4293
3,162670.0,118.15976599999999,1.0,7.5,2.79,-6.0,-27.69,-29.69,23.0,9.94,33.25,-34.44,0.09050550891639578,0.41231317328964295,-0.18614273276432947,-126.9655039569828,-8.441571750266656,-50.846289172862214,-0.0981,-0.8948,-0.0736,-0.4293
4,162705.0,118.29288100000001,1.0,7.71,1.96,-5.93,-27.69,-30.37,23.87,37.94,41.81,-23.0,0.019958143953562428,-0.4429917339435927,-0.10566355416824892,-125.49571017669871,-10.028097037556813,-52.19500183844674,-0.0922,-0.889,-0.0874,-0.4399
5,162705.0,118.29288100000001,1.0,7.71,1.96,-5.93,-27.69,-30.37,23.87,37.94,41.81,-23.0,0.019958143953562428,-0.4429917339435927,-0.10566355416824892,-125.49571017669871,-10.028097037556813,-52.19500183844674,-0.0922,-0.889,-0.0874,-0.4399
6,162742.0,118.299572,1.0,6.33,2.76,-2.37,-26.87,-30.75,23.5,22.19,115.75,-35.31,1.872095800590993,0.9356622597709262,2.8121383337684014,-123.2364939020704,-11.19045487105573,-54.42603640579737,-0.086,-0.8798,-0.0975,-0.4573
7,162742.0,118.299572,1.0,6.33,2.76,-2.37,-26.87,-30.75,23.5,22.19,115.75,-35.31,1.872095800590993,0.9356622597709262,2.8121383337684014,-123.2364939020704,-11.19045487105573,-54.42603640579737,-0.086,-0.8798,-0.0975,-0.4573
8,162775.0,118.30320800000001,1.0,8.99,2.47,-3.02,-26.87,-30.75,23.5,5.56,359.25,-112.25,0.9173752662303858,-0.49920410868664705,0.06238923384748851,-111.09591679955122,-15.551935573755918,-65.69433435122963,-0.0868,-0.8246,-0.1353,-0.5424
9,162775.0,118.30320800000001,1.0,8.99,2.47,-3.02,-26.87,-30.75,23.5,5.56,359.25,-112.25,0.9173752662303858,-0.49920410868664705,0.06238923384748851,-111.09591679955122,-15.551935573755918,-65.69433435122963,-0.0868,-0.8246,-0.1353,-0.5424
10,162811.0,118.350095,1.0,10.5,1.85,-3.29,-29.19,-29.69,20.19,-3.0,349.31,-84.19,-1.1025101167144449,-1.8141350738619244,-1.1473440376251034,-99.19322722858459,-19.05256341690962,-76.7345404390869,-0.0867,-0.7615,-0.1655,-0.6207
11,162811.0,118.350095,1.0,10.5,1.85,-3.29,-29.19,-29.69,20.19,-3.0,349.31,-84.19,-1.1025101167144449,-1.8141350738619244,-1.1473440376251034,-99.19322722858459,-19.05256341690962,-76.7345404390869,-0.0867,-0.7615,-0.1655,-0.6207
12,162848.0,118.36861,1.0,5.97,5.11,2.12,-31.19,-33.38,10.69,-36.25,159.06,37.06,2.9633202641083765,2.5137668781431914,2.6549292913400966,-92.05943487025185,-18.216471799125177,-84.11869444886841,-0.0903,-0.7197,-0.1583,-0.6699
13,162848.0,118.36861,1.0,5.97,5.11,2.12,-31.19,-33.38,10.69,-36.25,159.06,37.06,2.9633202641083765,2.5137668781431914,2.6549292913400966,-92.05943487025185,-18.216471799125177,-84.11869444886841,-0.0903,-0.7197,-0.1583,-0.6699
14,162883.0,118.371734,1.0,9.65,2.34,1.45,-31.19,-33.38,10.69,73.19,342.94,36.19,0.862246893804297,-1.03796453302526,-0.13718024404110096,-84.36588268573803,-18.820214993044136,-92.0759410724168,-0.0647,-0.6715,-0.1635,-0.7198
15,162883.0,118.371734,1.0,9.65,2.34,1.45,-31.19,-33.38,10.69,73.19,342.94,36.19,0.862246893804297,-1.03796453302526,-0.13718024404110096,-84.36588268573803,-18.820214993044136,-92.0759410724168,-0.0647,-0.6715,-0.1635,-0.7198
16,162918.0,118.41895500000001,1.0,9.5,0.32,1.89,-31.87,-34.19,3.25,18.44,182.0,13.19,-0.7160978867956043,-2.688477360706912,0.5231273228319591,-74.24196019139418,-20.751169149926106,-101.827911474709,-0.0316,-0.6035,-0.1801,-0.7762
17,162918.0,118.41895500000001,1.0,9.5,0.32,1.89,-31.87,-34.19,3.25,18.44,182.0,13.19,-0.7160978867956043,-2.688477360706912,0.5231273228319591,-74.24196019139418,-20.751169149926106,-101.827911474709,-0.0316,-0.6035,-0.1801,-0.7762
18,162953.0,118.43861799999999,1.0,6.69,1.2,3.12,-33.5,-33.06,-3.19,-72.25,79.94,-22.75,0.8482403050750873,-1.297402729879113,2.4903849322657585,-70.40949185665009,-19.16876722159467,-106.01228040091104,-0.044000000000000004,-0.5765,-0.1665,-0.7987
19,162953.0,118.43861799999999,1.0,6.69,1.2,3.12,-33.5,-33.06,-3.19,-72.25,79.94,-22.75,0.8482403050750873,-1.297402729879113,2.4903849322657585,-70.40949185665009,-19.16876722159467,-106.01228040091104,-0.044000000000000004,-0.5765,-0.1665,-0.7987
20,162990.0,118.489898,1.0,10.51,5.62,4.45,-32.06,-33.06,-6.06,-77.5,123.37,-44.56,0.4521729985175938,1.5541705192645994,-2.8118718459398178,-66.98117667091634,-17.984399539927896,-109.5116049915234,-0.0649,-0.5518,-0.1563,-0.8167
21,162990.0,118.489898,1.0,10.51,5.62,4.45,-32.06,-33.06,-6.06,-77.5,123.37,-44.56,0.4521729985175938,1.5541705192645994,-2.8118718459398178,-66.98117667091634,-17.984399539927896,-109.5116049915234,-0.0649,-0.5518,-0.1563,-0.8167
22,163024.0,118.559294,1.0,11.6,6.83,4.04,-32.06,-33.06,-6.06,-61.69,173.25,-6.13,-1.9290558022331303,2.649529907595363,-3.8604358261967615,-60.31782031136974,-16.720885966499374,-116.24952660685352,-0.0721,-0.5024,-0.1454,-0.8492
23,163024.0,118.559294,1.0,11.6,6.83,4.04,-32.06,-33.06,-6.06,-61.69,173.25,-6.13,-1.9290558022331303,2.649529907595363,-3.8604358261967615,-60.31782031136974,-16.720885966499374,-116.24952660685352,-0.0721,-0.5024,-0.1454,-0.8492
24,163061.0,118.567576,1.0,9.6,4.61,4.4,-30.5,-33.38,-13.19,-0.88,105.0,-76.62,-1.5007518411891632,0.6995959706823403,-1.5964377129386502,-56.17247760648797,-17.92639313237552,-119.62852711601612,-0.0827,-0.4708,-0.1558,-0.8644
25,163061.0,118.567576,1.0,9.6,4.61,4.4,-30.5,-33.38,-13.19,-0.88,105.0,-76.62,-1.5007518411891632,0.6995959706823403,-1.5964377129386502,-56.17247760648797,-17.92639313237552,-119.62852711601612,-0.0827,-0.4708,-0.1558,-0.8644
26,163098.0,118.587576,1.0,7.23,3.02,5.46,-26.5,-33.38,-17.25,19.12,33.75,-30.12,0.3612101120783205,-0.5726620117779186,0.28055502486990314,-54.219965017577714,-19.08742247639564,-120.82438029207813,-0.0931,-0.4557,-0.1658,-0.8696
27,163098.0,118.587576,1.0,7.23,3.02,5.46,-26.5,-33.38,-17.25,19.12,33.75,-30.12,0.3612101120783205,-0.5726620117779186,0.28055502486990314,-54.219965017577714,-19.08742247639564,-120.82438029207813,-0.0931,-0.4557,-0.1658,-0.8696
28,163131.0,118.634984,1.0,4.59,1.98,5.97,-26.5,-33.38,-17.25,-13.38,45.19,-49.06,2.1185536396614,-0.8834924541174047,2.3661814959745247,-52.88506854972636,-19.343110284151184,-121.78298489723478,-0.1007,-0.4453,-0.168,-0.8737
29,163131.0,118.634984,1.0,4.59,1.98,5.97,-26.5,-33.38,-17.25,-13.38,45.19,-49.06,2.1185536396614,-0.8834924541174047,2.3661814959745247,-52.88506854972636,-19.343110284151184,-121.78298489723478,-0.1007,-0.4453,-0.168,-0.8737
30,163166.0,118.65865500000001,1.0,5.85,3.32,5.69,-23.87,-35.25,-17.25,-44.75,72.25,-61.38,0.6127518971092645,-0.14806456428297474,1.0189533736141811,-49.75757860526172,-19.343110284151184,-124.08607855408228,-0.1205,-0.4207,-0.168,-0.8833
31,163166.0,118.65865500000001,1.0,5.85,3.32,5.69,-23.87,-35.25,-17.25,-44.75,72.25,-61.38,0.6127518971092645,-0.14806456428297474,1.0189533736141811,-49.75757860526172,-19.343110284151184,-124.08607855408228,-0.1205,-0.4207,-0.168,-0.8833
32,163203.0,118.704195,1.0,8.99,3.33,6.15,-21.5,-36.25,-18.19,-11.06,43.25,-45.44,-1.339387807772238,-1.5111166491963983,-1.402902478708171,-47.84492701246389,-19.42448582735805,-125.37071718924679,-0.1329,-0.4055,-0.1687,-0.8885
33,163203.0,118.704195,1.0,8.99,3.33,6.15,-21.5,-36.25,-18.19,-11.06,43.25,-45.44,-1.339387807772238,-1.5111166491963983,-1.402902478708171,-47.84492701246389,-19.42448582735805,-125.37071718924679,-0.1329,-0.4055,-0.1687,-0.8885
34,163237.0,118.71829199999999,1.0,7.43,5.59,6.16,-18.87,-37.06,-22.5,-92.62,-1.37,-43.75,-0.9202156881502104,1.1961714309689098,-1.2441860314962607,-46.956385579504534,-17.485694626999518,-126.02359896120804,-0.1556,-0.3984,-0.152,-0.8911
35,163237.0,118.71829199999999,1.0,7.43,5.59,6.16,-18.87,-37.06,-22.5,-92.62,-1.37,-43.75,-0.9202156881502104,1.1961714309689098,-1.2441860314962607,-46.956385579504534,-17.485694626999518,-126.02359896120804,-0.1556,-0.3984,-0.152,-0.8911
36,163272.0,118.774429,1.0,6.45,4.89,6.53,-18.87,-37.06,-22.5,-19.94,10.31,-47.06,-0.08975845693036201,0.8549906189380909,-0.5575400050576729,-46.35737642818546,-16.883054257264604,-126.07412316645296,-0.1707,-0.3936,-0.1468,-0.8913
37,163272.0,118.774429,1.0,6.45,4.89,6.53,-18.87,-37.06,-22.5,-19.94,10.31,-47.06,-0.08975845693036201,0.8549906189380909,-0.5575400050576729,-46.35737642818546,-16.883054257264604,-126.07412316645296,-0.1707,-0.3936,-0.1468,-0.8913
38,163309.0,118.79328999999998,1.0,7.96,1.6,6.14,-17.5,-34.75,-23.69,5.31,-24.25,-10.25,-0.6644379465119445,-2.938460418684992,0.08321580301709375,-46.33244691855332,-18.088822794467358,-125.27091255577452,-0.1782,-0.3934,-0.1572,-0.8881
39,163309.0,118.79328999999998,1.0,7.96,1.6,6.14,-17.5,-34.75,-23.69,5.31,-24.25,-10.25,-0.6644379465119445,-2.938460418684992,0.08321580301709375,-46.33244691855332,-18.088822794467358,-125.27091255577452,-0.1782,-0.3934,-0.1572,-0.8881
40,163346.0,118.891127,1.0,6.52,4.98,6.31,-15.06,-36.25,-23.37,-102.25,-105.44,-3.19,-0.11988441503719385,0.9870454719583329,-0.4956928870969808,-48.171071061668,-15.679165793853409,-123.91521633901593,-0.1895,-0.4081,-0.1364,-0.8826
41,163346.0,118.891127,1.0,6.52,4.98,6.31,-15.06,-36.25,-23.37,-102.25,-105.44,-3.19,-0.11988441503719385,0.9870454719583329,-0.4956928870969808,-48.171071061668,-15.679165793853409,-123.91521633901593,-0.1895,-0.4081,-0.1364,-0.8826
42,163379.0,118.904959,1.0,7.15,2.75,5.66,-15.06,-36.25,-23.37,-14.88,-39.25,-18.69,-0.13844911142035754,-1.020119187401245,0.3377119028825213,-50.64336935396991,-13.680327762024126,-121.5009364289817,-0.2041,-0.4277,-0.1191,-0.8725
43,163379.0,118.904959,1.0,7.15,2.75,5.66,-15.06,-36.25,-23.37,-14.88,-39.25,-18.69,-0.13844911142035754,-1.020119187401245,0.3377119028825213,-50.64336935396991,-13.680327762024126,-121.5009364289817,-0.2041,-0.4277,-0.1191,-0.8725
44,163414.0,118.90861899999999,1.0,7.5,2.59,5.49,-17.87,-35.56,-25.0,-46.75,-25.69,-19.37,-0.3698669486761466,-1.239225641903159,0.2449703228341349,-51.0874785737173,-12.307865676783145,-120.68528037991206,-0.2178,-0.4312,-0.1072,-0.8690000000000001
45,163414.0,118.90861899999999,1.0,7.5,2.59,5.49,-17.87,-35.56,-25.0,-46.75,-25.69,-19.37,-0.3698669486761466,-1.239225641903159,0.2449703228341349,-51.0874785737173,-12.307865676783145,-120.68528037991206,-0.2178,-0.4312,-0.1072,-0.8690000000000001
46,163450.0,118.95464199999999,1.0,6.69,5.29,5.73,-17.5,-36.25,-26.69,-90.25,-69.87,-18.12,-0.5744216558894586,1.8098905415736424,-0.2912426508835235,-52.182242098214466,-9.23461264182475,-119.15163191547691,-0.2377,-0.4398,-0.0805,-0.8623
47,163450.0,118.95464199999999,1.0,6.69,5.29,5.73,-17.5,-36.25,-26.69,-90.25,-69.87,-18.12,-0.5744216558894586,1.8098905415736424,-0.2912426508835235,-52.182242098214466,-9.23461264182475,-119.15163191547691,-0.2377,-0.4398,-0.0805,-0.8623
48,163487.0,119.01420900000001,1.0,6.8,3.58,5.76,-17.5,-36.25,-26.69,-13.31,-34.0,-8.25,0.10100487157138104,0.4172663596817303,0.21239719944295032,-53.38473671711782,-7.775272426130343,-117.63003319551184,-0.2485,-0.4492,-0.0678,-0.8555
49,163487.0,119.01420900000001,1.0,6.8,3.58,5.76,-17.5,-36.25,-26.69,-13.31,-34.0,-8.25,0.10100487157138104,0.4172663596817303,0.21239719944295032,-53.38473671711782,-7.775272426130343,-117.63003319551184,-0.2485,-0.4492,-0.0678,-0.8555
50,163520.0,119.029214,1.0,6.36,4.84,5.47,-19.0,-34.56,-28.69,-58.5,-23.19,-7.0,-0.4129168081738521,1.814470726298448,0.3022670272377255,-53.74414891259134,-6.546738821065048,-117.07896160834984,-0.2548,-0.452,-0.0571,-0.853
51,163520.0,119.029214,1.0,6.36,4.84,5.47,-19.0,-34.56,-28.69,-58.5,-23.19,-7.0,-0.4129168081738521,1.814470726298448,0.3022670272377255,-53.74414891259134,-6.546738821065048,-117.07896160834984,-0.2548,-0.452,-0.0571,-0.853
52,163557.0,119.081529,1.0,6.28,4.62,5.57,-20.5,-34.69,-28.19,-4.75,1.19,-5.19,-0.24929320166327065,1.6990987769341788,0.3801651702331128,-53.71845771367622,-6.099150260471113,-116.88163381383896,-0.259,-0.4518,-0.0532,-0.8521
53,163557.0,119.081529,1.0,6.28,4.62,5.57,-20.5,-34.69,-28.19,-4.75,1.19,-5.19,-0.24929320166327065,1.6990987769341788,0.3801651702331128,-53.71845771367622,-6.099150260471113,-116.88163381383896,-0.259,-0.4518,-0.0532,-0.8521
54,163592.0,119.10483799999999,1.0,7.22,2.82,5.57,-20.87,-35.38,-29.75,-0.81,7.81,-2.06,0.016847535370461728,-0.3550439353076205,0.2683398789904459,-53.56437169079451,-6.420486066048695,-117.013124056645,-0.2584,-0.4506,-0.055999999999999994,-0.8527
55,163592.0,119.10483799999999,1.0,7.22,2.82,5.57,-20.87,-35.38,-29.75,-0.81,7.81,-2.06,0.016847535370461728,-0.3550439353076205,0.2683398789904459,-53.56437169079451,-6.420486066048695,-117.013124056645,-0.2584,-0.4506,-0.055999999999999994,-0.8527
56,163627.0,119.14776599999999,1.0,7.14,3.58,5.58,-20.87,-35.38,-29.75,-10.63,-2.56,1.06,-0.2701058477998227,0.3704199207878216,0.07411528836049186,-53.448875784329395,-6.076199569788739,-117.0570088918249,-0.2599,-0.4497,-0.053,-0.8529
57,163627.0,119.14776599999999,1.0,7.14,3.58,5.58,-20.87,-35.38,-29.75,-10.63,-2.56,1.06,-0.2701058477998227,0.3704199207878216,0.07411528836049186,-53.448875784329395,-6.076199569788739,-117.0570088918249,-0.2599,-0.4497,-0.053,-0.8529
58,163661.0,119.20456200000001,1.0,7.15,2.85,5.83,-21.19,-35.5,-30.87,16.56,12.5,-6.06,0.2062381566123702,-0.27639348754146553,0.1570400357163777,-53.320615694584525,-6.3975318623814825,-117.14486104081259,-0.2598,-0.4487,-0.0558,-0.8533
59,163661.0,119.20456200000001,1.0,7.15,2.85,5.83,-21.19,-35.5,-30.87,16.56,12.5,-6.06,0.2062381566123702,-0.27639348754146553,0.1570400357163777,-53.320615694584525,-6.3975318623814825,-117.14486104081259,-0.2598,-0.4487,-0.0558,-0.8533
60,163698.0,119.27363999999999,1.0,7.65,3.11,5.85,-21.56,-37.06,-30.5,-7.56,-1.12,0.69,-0.15063002704824086,-0.3084709449885754,-0.3076594806837569,-53.089928878816565,-6.386054856968827,-117.32089688772969,-0.2603,-0.4469,-0.0557,-0.8541
61,163698.0,119.27363999999999,1.0,7.65,3.11,5.85,-21.56,-37.06,-30.5,-7.56,-1.12,0.69,-0.15063002704824086,-0.3084709449885754,-0.3076594806837569,-53.089928878816565,-6.386054856968827,-117.32089688772969,-0.2603,-0.4469,-0.0557,-0.8541
62,163733.0,119.301165,1.0,6.99,3.05,6.14,-21.56,-37.06,-30.5,7.94,-8.19,3.63,0.4378135661938825,0.029262457920770764,0.025562995489046614,-53.28215172783013,-6.317194167065648,-117.18882847106602,-0.2596,-0.4484,-0.0551,-0.8535
63,163733.0,119.301165,1.0,6.99,3.05,6.14,-21.56,-37.06,-30.5,7.94,-8.19,3.63,0.4378135661938825,0.029262457920770764,0.025562995489046614,-53.28215172783013,-6.317194167065648,-117.18882847106602,-0.2596,-0.4484,-0.0551,-0.8535
64,163768.0,119.30503200000001,1.0,6.75,3.44,5.71,-21.19,-37.06,-30.75,-12.44,5.13,-2.56,0.015348666186829757,0.4293446515760184,0.3295392805555277,-53.089928878816565,-6.145052377433652,-117.29886813726064,-0.2609,-0.4469,-0.0536,-0.8540000000000001
65,163768.0,119.30503200000001,1.0,6.75,3.44,5.71,-21.19,-37.06,-30.75,-12.44,5.13,-2.56,0.015348666186829757,0.4293446515760184,0.3295392805555277,-53.089928878816565,-6.145052377433652,-117.29886813726064,-0.2609,-0.4469,-0.0536,-0.8540000000000001
66,163803.0,119.356866,1.0,7.32,3.32,5.75,-21.19,-37.5,-30.0,1.37,10.38,-3.69,-0.2098743509411876,0.00876061899435143,-0.07379411999642294,-52.795499446887185,-6.328670789467022,-117.51946956763666,-0.2614,-0.4446,-0.0552,-0.855
67,163803.0,119.356866,1.0,7.32,3.32,5.75,-21.19,-37.5,-30.0,1.37,10.38,-3.69,-0.2098743509411876,0.00876061899435143,-0.07379411999642294,-52.795499446887185,-6.328670789467022,-117.51946956763666,-0.2614,-0.4446,-0.0552,-0.855
68,163840.0,119.37397299999999,1.0,7.44,2.75,6.21,-19.69,-37.06,-31.25,-6.0,-0.88,2.0,0.3119317263279028,-0.505709860992235,-0.2495498853744653,-52.68039020015169,-6.523783187455053,-117.63003319551184,-0.2609,-0.4437,-0.0569,-0.8555
69,163840.0,119.37397299999999,1.0,7.44,2.75,6.21,-19.69,-37.06,-31.25,-6.0,-0.88,2.0,0.3119317263279028,-0.505709860992235,-0.2495498853744653,-52.68039020015169,-6.523783187455053,-117.63003319551184,-0.2609,-0.4437,-0.0569,-0.8555
70,163872.0,119.381097,1.0,6.97,3.29,6.23,-19.69,-37.06,-31.25,0.31,1.75,-3.25,0.32105793222071444,0.20863889682535008,-0.0964450523000462,-52.64203317675828,-6.351624225020216,-117.60790637777723,-0.262,-0.4434,-0.0554,-0.8554
71,163872.0,119.381097,1.0,6.97,3.29,6.23,-19.69,-37.06,-31.25,0.31,1.75,-3.25,0.32105793222071444,0.20863889682535008,-0.0964450523000462,-52.64203317675828,-6.351624225020216,-117.60790637777723,-0.262,-0.4434,-0.0554,-0.8554
72,163909.0,119.44728700000002,1.0,7.16,3.25,5.57,-20.87,-37.19,-31.06,2.13,2.25,-1.94,-0.2990791219784809,-0.03984529054050756,0.17534873632756032,-52.437569453805544,-6.46639524800481,-117.74077335444635,-0.2626,-0.4418,-0.0564,-0.856
73,163909.0,119.44728700000002,1.0,7.16,3.25,5.57,-20.87,-37.19,-31.06,2.13,2.25,-1.94,-0.2990791219784809,-0.03984529054050756,0.17534873632756032,-52.437569453805544,-6.46639524800481,-117.74077335444635,-0.2626,-0.4418,-0.0564,-0.856
74,163944.0,119.451146,1.0,7.35,3.25,5.69,-20.87,-39.06,-31.19,0.5,-3.0,4.0,-0.2835314534796473,-0.1138327579273044,-0.03549163777937458,-52.50144503161559,-6.48935022815341,-117.71861115458816,-0.262,-0.4423,-0.0566,-0.8559
75,163944.0,119.451146,1.0,7.35,3.25,5.69,-20.87,-39.06,-31.19,0.5,-3.0,4.0,-0.2835314534796473,-0.1138327579273044,-0.03549163777937458,-52.50144503161559,-6.48935022815341,-117.71861115458816,-0.262,-0.4423,-0.0566,-0.8559
76,163979.0,119.49498999999999,1.0,7.26,3.33,5.85,-20.87,-39.06,-31.19,6.88,-9.5,5.25,-0.08940879660645717,0.057134729118573084,-0.0932359432731822,-52.87227083326433,-6.454917855397503,-117.51946956763666,-0.2601,-0.4452,-0.0563,-0.855
77,163979.0,119.49498999999999,1.0,7.26,3.33,5.85,-20.87,-39.06,-31.19,6.88,-9.5,5.25,-0.08940879660645717,0.057134729118573084,-0.0932359432731822,-52.87227083326433,-6.454917855397503,-117.51946956763666,-0.2601,-0.4452,-0.0563,-0.855
78,164014.0,119.506221,1.0,7.16,3.16,6.0,-20.87,-37.19,-29.5,4.31,-3.75,2.38,0.17418133105279165,-0.009648063533028495,-0.053409217813186416,-53.05150365290267,-6.512305468988996,-117.43114513306999,-0.2588,-0.4466,-0.0568,-0.8546
79,164014.0,119.506221,1.0,7.16,3.16,6.0,-20.87,-37.19,-29.5,4.31,-3.75,2.38,0.17418133105279165,-0.009648063533028495,-0.053409217813186416,-53.05150365290267,-6.512305468988996,-117.43114513306999,-0.2588,-0.4466,-0.0568,-0.8546
80,164050.0,119.530491,1.0,7.05,3.36,6.06,-20.06,-37.88,-30.25,0.81,4.81,-0.88,0.1831400952473378,0.2183679384061814,-0.07436589660643378,-52.97467248448692,-6.535260971441647,-117.4973779425748,-0.2588,-0.446,-0.057,-0.8549
81,164050.0,119.530491,1.0,7.05,3.36,6.06,-20.06,-37.88,-30.25,0.81,4.81,-0.88,0.1831400952473378,0.2183679384061814,-0.07436589660643378,-52.97467248448692,-6.535260971441647,-117.4973779425748,-0.2588,-0.446,-0.057,-0.8549
82,164083.0,119.57838600000001,1.0,7.55,3.17,5.61,-20.06,-37.88,-30.25,4.44,-0.37,-1.63,-0.3324745535845449,-0.2728157370924522,-0.10992865621069113,-52.936266526907346,-6.684478178549483,-117.51946956763666,-0.2586,-0.4457,-0.0583,-0.855
83,164083.0,119.57838600000001,1.0,7.55,3.17,5.61,-20.06,-37.88,-30.25,4.44,-0.37,-1.63,-0.3324745535845449,-0.2728157370924522,-0.10992865621069113,-52.936266526907346,-6.684478178549483,-117.51946956763666,-0.2586,-0.4457,-0.0583,-0.855
84,164118.0,119.64978700000002,1.0,7.0,3.09,5.77,-21.56,-38.0,-29.87,-5.94,-2.5,1.94,0.0969731481957246,-0.031632647591497635,0.2238218379105117,-53.038696673597066,-6.650042440520529,-117.4973779425748,-0.2576,-0.4465,-0.057999999999999996,-0.8549
85,164118.0,119.64978700000002,1.0,7.0,3.09,5.77,-21.56,-38.0,-29.87,-5.94,-2.5,1.94,0.0969731481957246,-0.031632647591497635,0.2238218379105117,-53.038696673597066,-6.650042440520529,-117.4973779425748,-0.2576,-0.4465,-0.057999999999999996,-0.8549
86,164153.0,119.67141000000001,1.0,7.15,3.69,5.78,-21.19,-38.19,-30.25,3.06,3.88,-0.88,-0.21232716279765615,0.4131326458947995,-0.08937135167635367,-52.96186978619433,-6.638563994932457,-117.58578661368068,-0.2574,-0.4459,-0.0579,-0.8553
87,164153.0,119.67141000000001,1.0,7.15,3.69,5.78,-21.19,-38.19,-30.25,3.06,3.88,-0.88,-0.21232716279765615,0.4131326458947995,-0.08937135167635367,-52.96186978619433,-6.638563994932457,-117.58578661368068,-0.2574,-0.4459,-0.0579,-0.8553
88,164190.0,119.71803999999999,1.0,7.5,3.03,5.78,-21.19,-38.56,-29.5,10.75,-1.0,2.06,-0.0964538752647386,-0.3700844634943379,-0.1277867802018111,-53.000280019764396,-7.166643396943946,-117.71861115458816,-0.2538,-0.4462,-0.0625,-0.8559
89,164190.0,119.71803999999999,1.0,7.5,3.03,5.78,-21.19,-38.56,-29.5,10.75,-1.0,2.06,-0.0964538752647386,-0.3700844634943379,-0.1277867802018111,-53.000280019764396,-7.166643396943946,-117.71861115458816,-0.2538,-0.4462,-0.0625,-0.8559
90,164222.0,119.744949,1.0,7.0,3.17,5.89,-21.19,-38.56,-29.5,0.25,-1.63,1.81,0.18483814944281424,0.018578904784444683,0.12643875835823515,-53.077119755232744,-7.143680335170353,-117.69645604638977,-0.2534,-0.4468,-0.0623,-0.8558
91,164222.0,119.744949,1.0,7.0,3.17,5.89,-21.19,-38.56,-29.5,0.25,-1.63,1.81,0.18483814944281424,0.018578904784444683,0.12643875835823515,-53.077119755232744,-7.143680335170353,-117.69645604638977,-0.2534,-0.4468,-0.0623,-0.8558
92,164259.0,119.795472,1.0,7.26,3.38,5.77,-21.19,-38.19,-30.25,8.25,-0.12,0.37,-0.10284219537806667,0.05802510258008176,-0.06304890981079225,-53.11554927222101,-7.22405231414402,-117.69645604638977,-0.2523,-0.4471,-0.063,-0.8558
93,164259.0,119.795472,1.0,7.26,3.38,5.77,-21.19,-38.19,-30.25,8.25,-0.12,0.37,-0.10284219537806667,0.05802510258008176,-0.06304890981079225,-53.11554927222101,-7.22405231414402,-117.69645604638977,-0.2523,-0.4471,-0.063,-0.8558
94,164296.0,119.810671,1.0,7.23,3.15,5.81,-20.5,-37.5,-29.06,7.81,1.69,-0.94,0.04480903080543902,-0.1432457913555636,0.012316291471519136,-53.153985232120654,-7.442222882076424,-117.69645604638977,-0.2513,-0.4474,-0.0649,-0.8558
95,164296.0,119.810671,1.0,7.23,3.15,5.81,-20.5,-37.5,-29.06,7.81,1.69,-0.94,0.04480903080543902,-0.1432457913555636,0.012316291471519136,-53.153985232120654,-7.442222882076424,-117.69645604638977,-0.2513,-0.4474,-0.0649,-0.8558
96,164329.0,119.83203600000002,1.0,7.16,3.36,5.74,-20.5,-37.5,-29.06,-3.81,-1.94,1.81,-0.05759131266674002,0.07213287182605321,0.03453251761638576,-53.153985232120654,-7.442222882076424,-117.76294265360838,-0.2505,-0.4474,-0.0649,-0.8561
97,164329.0,119.83203600000002,1.0,7.16,3.36,5.74,-20.5,-37.5,-29.06,-3.81,-1.94,1.81,-0.05759131266674002,0.07213287182605321,0.03453251761638576,-53.153985232120654,-7.442222882076424,-117.76294265360838,-0.2505,-0.4474,-0.0649,-0.8561
98,164364.0,119.89328300000001,1.0,7.13,3.48,5.62,-21.56,-38.56,-29.87,7.44,3.5,-0.19,-0.1811154503690456,0.16582270084043893,0.08701008766150052,-53.14117252914141,-7.557060298129735,-117.80730258048688,-0.2499,-0.4473,-0.0659,-0.8563
99,164364.0,119.89328300000001,1.0,7.13,3.48,5.62,-21.56,-38.56,-29.87,7.44,3.5,-0.19,-0.1811154503690456,0.16582270084043893,0.08701008766150052,-53.14117252914141,-7.557060298129735,-117.80730258048688,-0.2499,-0.4473,-0.0659,-0.8563
