acc_x,acc_y,acc_z,lin_x,lin_y,lin_z,eul_x,eul_y,eul_z
6.44,-0.77,-7.48,-0.1093435348276382,-0.6074154722465815,-0.0744425729631164,-133.12658560187518,-23.740958889771715,-38.51327351873995
6.44,-0.77,-7.48,-0.1093435348276382,-0.6074154722465815,-0.0744425729631164,-133.12658560187518,-23.740958889771715,-38.51327351873995
6.38,-0.02,-7.5,0.0996808252365165,0.1490127797379438,-0.0382806206064714,-132.7820481898819,-23.62387580431868,-38.93838987087892
6.38,-0.02,-7.5,0.0996808252365165,0.1490127797379438,-0.0382806206064714,-132.7820481898819,-23.62387580431868,-38.93838987087892
6.67,-0.24,-7.78,-0.0612854871416074,-0.006068636523014,-0.4437698577773705,-132.1847414191665,-23.65899809735879,-39.571024584505096
6.67,-0.24,-7.78,-0.0612854871416074,-0.006068636523014,-0.4437698577773705,-132.1847414191665,-23.65899809735879,-39.571024584505096
6.17,-0.15,-7.29,-0.1208222841774786,0.0924063786806212,0.2561336245978154,-131.9590360744759,-23.729249451725817,-39.814679382357845
6.17,-0.15,-7.29,-0.1208222841774786,0.0924063786806212,0.2561336245978154,-131.9590360744759,-23.729249451725817,-39.814679382357845
6.29,0.0,-7.44,-0.1350598167998558,0.2387090628960359,0.0679397758903785,-131.51059102084358,-23.881491803544503,-40.22932427895751
6.29,0.0,-7.44,-0.1350598167998558,0.2387090628960359,0.0679397758903785,-131.51059102084358,-23.881491803544503,-40.22932427895751
6.29,0.48,-7.52,-0.0374561432694944,0.7029973177892456,0.0163848448311938,-131.1767984012427,-23.89320452199912,-40.607862210384674
6.29,0.48,-7.52,-0.0374561432694944,0.7029973177892456,0.0163848448311938,-131.1767984012427,-23.89320452199912,-40.607862210384674
6.25,-0.22,-7.27,-0.290614329197611,0.1012064982309796,0.221812987490038,-130.54294242265092,-24.0923596055089,-41.096983557102725
6.25,-0.22,-7.27,-0.290614329197611,0.1012064982309796,0.221812987490038,-130.54294242265092,-24.0923596055089,-41.096983557102725
7.34,0.71,-7.81,0.4319264874499426,0.7722744650668187,-0.8981541392659249,-130.02500909601727,-24.24470448957822,-41.58688876109751
7.34,0.71,-7.81,0.4319264874499426,0.7722744650668187,-0.8981541392659249,-130.02500909601727,-24.24470448957822,-41.58688876109751
6.37,0.78,-7.77,-0.2288311367307918,1.0738454108660611,-0.2109690955947432,-129.48518799624307,-24.80758802606676,-41.94256744155725
6.37,0.78,-7.77,-0.2288311367307918,1.0738454108660611,-0.2109690955947432,-129.48518799624307,-24.80758802606676,-41.94256744155725
8.38,4.45,-9.18,1.7851854863472938,3.975363754210008,-2.6556489773576004,-129.27076347961943,-25.0892571067724,-42.18810962075827
8.38,4.45,-9.18,1.7851854863472938,3.975363754210008,-2.6556489773576004,-129.27076347961943,-25.0892571067724,-42.18810962075827
4.97,9.6,-5.59,3.805703302595519,7.831455809851095,1.3040667295484225,-130.3788376016962,-26.00575632582789,-41.37858245579029
4.97,9.6,-5.59,3.805703302595519,7.831455809851095,1.3040667295484225,-130.3788376016962,-26.00575632582789,-41.37858245579029
5.12,4.36,-6.4,1.288108340977168,3.261896513046896,1.2110227372531115,-128.0015563372832,-29.06155185997118,-41.85667536570541
5.12,4.36,-6.4,1.288108340977168,3.261896513046896,1.2110227372531115,-128.0015563372832,-29.06155185997118,-41.85667536570541
7.85,1.4,-7.72,0.1890383690242475,0.1028073978654016,-1.2899528645698943,-123.14014055583444,-32.52040941662392,-44.71692355018706
7.85,1.4,-7.72,0.1890383690242475,0.1028073978654016,-1.2899528645698943,-123.14014055583444,-32.52040941662392,-44.71692355018706
6.7,2.88,-4.98,1.6005792536794523,0.7572111183319878,1.1550849753951822,-118.27481372474286,-36.23901092380315,-47.66948159847917
6.7,2.88,-4.98,1.6005792536794523,0.7572111183319878,1.1550849753951822,-118.27481372474286,-36.23901092380315,-47.66948159847917
6.41,1.68,-2.94,1.8001997850047813,-0.7820328849130034,2.8279821256142768,-114.810125415467,-38.48899785121896,-49.84601386938241
6.41,1.68,-2.94,1.8001997850047813,-0.7820328849130034,2.8279821256142768,-114.810125415467,-38.48899785121896,-49.84601386938241
9.33,-0.96,-3.8,-0.2192448127952076,-3.4177999697352703,0.2839888656878085,-107.4913564581971,-42.053036389733045,-54.78712101513374
9.33,-0.96,-3.8,-0.2192448127952076,-3.4177999697352703,0.2839888656878085,-107.4913564581971,-42.053036389733045,-54.78712101513374
11.91,0.85,-6.49,-1.0658616488099908,-1.4383004210159889,-3.6650214198536415,-102.0280527784433,-43.7274156925049,-59.24720426605303
11.91,0.85,-6.49,-1.0658616488099908,-1.4383004210159889,-3.6650214198536415,-102.0280527784433,-43.7274156925049,-59.24720426605303
11.12,1.79,-5.69,-0.6792060008657148,-0.6342971915839177,-2.7779018903589403,-98.71704488690264,-44.940044922743645,-61.87463337928294
11.12,1.79,-5.69,-0.6792060008657148,-0.6342971915839177,-2.7779018903589403,-98.71704488690264,-44.940044922743645,-61.87463337928294
8.32,0.27,-3.51,-0.9527360525684334,-1.7184441189913158,0.9887906325548332,-96.9385013444038,-47.03135704516996,-62.15539687050149
8.32,0.27,-3.51,-0.9527360525684334,-1.7184441189913158,0.9887906325548332,-96.9385013444038,-47.03135704516996,-62.15539687050149
7.75,-0.2,-3.38,-1.612001859301456,-1.9122986675606293,1.7275743219502822,-94.59753382343494,-49.11421404634533,-63.17498984222817
7.75,-0.2,-3.38,-1.612001859301456,-1.9122986675606293,1.7275743219502822,-94.59753382343494,-49.11421404634533,-63.17498984222817
7.59,3.15,-4.02,0.0771451533341862,0.4989060324864376,0.6723114144172619,-93.10419946060928,-50.14946187500939,-64.30844165448818
7.59,3.15,-4.02,0.0771451533341862,0.4989060324864376,0.6723114144172619,-93.10419946060928,-50.14946187500939,-64.30844165448818
6.78,2.66,-2.26,0.3861184875086591,-0.8372145388150649,2.23686900385482,-89.030647823847,-54.40026707594486,-65.47622986306104
6.78,2.66,-2.26,0.3861184875086591,-0.8372145388150649,2.23686900385482,-89.030647823847,-54.40026707594486,-65.47622986306104
7.92,1.28,-3.17,-1.9798660918136448,-1.6235496267747167,1.5690583089845818,-83.42603924278487,-57.80230590894848,-68.51318055335086
7.92,1.28,-3.17,-1.9798660918136448,-1.6235496267747167,1.5690583089845818,-83.42603924278487,-57.80230590894848,-68.51318055335086
8.88,3.19,-4.3,-1.869558702274334,-0.2384172072450204,-0.3898399594929156,-80.75187187324588,-58.33966779766776,-70.84482737383499
8.88,3.19,-4.3,-1.869558702274334,-0.2384172072450204,-0.3898399594929156,-80.75187187324588,-58.33966779766776,-70.84482737383499
8.82,5.24,-2.63,0.4507139707195206,-0.2180707481533037,-0.7723954231654613,-79.43458474445285,-58.31342248941901,-72.32820965004784
8.82,5.24,-2.63,0.4507139707195206,-0.2180707481533037,-0.7723954231654613,-79.43458474445285,-58.31342248941901,-72.32820965004784
10.96,4.16,-3.37,-1.7239428708976987,-1.146641422649333,-2.2140544063875787,-76.36961551362315,-59.14177438587889,-74.61607730658687
10.96,4.16,-3.37,-1.7239428708976987,-1.146641422649333,-2.2140544063875787,-76.36961551362315,-59.14177438587889,-74.61607730658687
10.43,4.86,-3.62,-1.6035853799777593,-0.0908274707985312,-2.148648586805349,-74.68812953802521,-58.85212533574583,-76.50088290484744
10.43,4.86,-3.62,-1.6035853799777593,-0.0908274707985312,-2.148648586805349,-74.68812953802521,-58.85212533574583,-76.50088290484744
7.54,5.46,-2.18,0.5850269189668059,0.5716465980889063,0.2805509205773209,-75.61348008001588,-58.43155282050608,-76.00560231797398
7.54,5.46,-2.18,0.5850269189668059,0.5716465980889063,0.2805509205773209,-75.61348008001588,-58.43155282050608,-76.00560231797398
6.22,5.54,-2.24,0.9746380288713968,1.1912943369457172,1.3196895007730376,-76.48629178886966,-58.56288867530428,-75.12117195535056
6.22,5.54,-2.24,0.9746380288713968,1.1912943369457172,1.3196895007730376,-76.48629178886966,-58.56288867530428,-75.12117195535056
7.02,5.71,-3.74,-0.0380152842391716,1.6662819370663569,0.1581185394941791,-76.83688424157663,-59.60343856980716,-73.94046239689769
7.02,5.71,-3.74,-0.0380152842391716,1.6662819370663569,0.1581185394941791,-76.83688424157663,-59.60343856980716,-73.94046239689769
7.22,6.03,-4.88,-0.1527689224066061,1.7499970789419548,-0.6440854707714879,-79.44948291717178,-61.94144435552603,-69.29138458685418
7.22,6.03,-4.88,-0.1527689224066061,1.7499970789419548,-0.6440854707714879,-79.44948291717178,-61.94144435552603,-69.29138458685418
7.1,6.43,-3.62,1.380902683531743,0.5036473884054109,-0.3273890312435252,-81.29447844633472,-64.26784056455223,-65.2311808589057
7.1,6.43,-3.62,1.380902683531743,0.5036473884054109,-0.3273890312435252,-81.29447844633472,-64.26784056455223,-65.2311808589057
6.56,8.09,-2.84,3.390340781472075,0.1204973386838008,-0.4421728483498253,-81.5968810686458,-68.04245292301711,-61.22111365086855
6.56,8.09,-2.84,3.390340781472075,0.1204973386838008,-0.4421728483498253,-81.5968810686458,-68.04245292301711,-61.22111365086855
6.8,3.92,-4.35,-0.7239153744935761,-0.999617164261116,0.918139885504635,-79.34522946763786,-72.32820965004784,-59.07590865675504
6.8,3.92,-4.35,-0.7239153744935761,-0.999617164261116,0.918139885504635,-79.34522946763786,-72.32820965004784,-59.07590865675504
6.3,3.69,-4.2,-1.0142823557347564,-1.0520636147581546,1.5114409337167911,-76.00560231797398,-76.07833252250538,-58.74690084345127
6.3,3.69,-4.2,-1.0142823557347564,-1.0520636147581546,1.5114409337167911,-76.00560231797398,-76.07833252250538,-58.74690084345127
6.46,6.3,-4.23,0.7259858363712025,-0.6851259686269153,-0.1088957223746103,-74.3282126664446,-77.45247883989401,-59.10225237254154
6.46,6.3,-4.23,0.7259858363712025,-0.6851259686269153,-0.1088957223746103,-74.3282126664446,-77.45247883989401,-59.10225237254154
5.15,5.81,-5.97,-0.4933395543892443,1.0073959763856002,0.0772476837815414,-71.91712490112356,-80.13655154254863,-58.76005092877733
5.15,5.81,-5.97,-0.4933395543892443,1.0073959763856002,0.0772476837815414,-71.91712490112356,-80.13655154254863,-58.76005092877733
4.2,4.28,-3.71,-0.2720429115655584,-0.2386743465287759,2.7645248086549903,-69.98930763271481,-82.47777750148487,-58.19536005826746
4.2,4.28,-3.71,-0.2720429115655584,-0.2386743465287759,2.7645248086549903,-69.98930763271481,-82.47777750148487,-58.19536005826746
6.16,5.91,-4.93,-0.939033551423006,-0.7588478367803799,0.022940787747439,-67.58681526824894,-83.073454311338,-60.06617050138386
6.16,5.91,-4.93,-0.939033551423006,-0.7588478367803799,0.022940787747439,-67.58681526824894,-83.073454311338,-60.06617050138386
4.84,8.78,-3.81,1.6929617791601403,-0.014846826747151,-0.7840893503021533,-65.68069497759913,-82.49301728450641,-62.63767369990508
4.84,8.78,-3.81,1.6929617791601403,-0.014846826747151,-0.7840893503021533,-65.68069497759913,-82.49301728450641,-62.63767369990508
5.53,7.26,-5.32,-0.8380621212654851,0.4118594890109124,-0.7156560040188751,-63.40381821677742,-83.05814635391897,-64.32197736057384
5.53,7.26,-5.32,-0.8380621212654851,0.4118594890109124,-0.7156560040188751,-63.40381821677742,-83.05814635391897,-64.32197736057384
5.12,7.76,-3.97,0.2760489320327146,-0.0970510396121011,-0.2981645991321269,-62.35619623181861,-83.10407566239712,-65.2719990372295
5.12,7.76,-3.97,0.2760489320327146,-0.0970510396121011,-0.2981645991321269,-62.35619623181861,-83.10407566239712,-65.2719990372295
4.59,7.3,-3.6,0.2417322913863381,0.0037689643444061,0.4653625462167206,-61.40760741658022,-83.073454311338,-66.1586995980381
4.59,7.3,-3.6,0.2417322913863381,0.0037689643444061,0.4653625462167206,-61.40760741658022,-83.073454311338,-66.1586995980381
4.72,7.94,-3.68,0.2798594381214708,0.1544484087717981,-0.1312685136487328,-60.370840106403314,-82.61499961080214,-67.60060461724801
4.72,7.94,-3.68,0.2798594381214708,0.1544484087717981,-0.1312685136487328,-60.370840106403314,-82.61499961080214,-67.60060461724801
5.2,8.11,-3.74,-0.1103198920630442,-0.014458582220775,-0.5271450662288313,-59.577029137074135,-82.09735799224998,-68.83236163614916
5.2,8.11,-3.74,-0.1103198920630442,-0.014458582220775,-0.5271450662288313,-59.577029137074135,-82.09735799224998,-68.83236163614916
4.76,8.09,-3.62,0.1444224389569067,0.1878426624916392,-0.2508823660067723,-59.60343856980716,-82.08216411124334,-68.81847155097867
4.76,8.09,-3.62,0.1444224389569067,0.1878426624916392,-0.2508823660067723,-59.60343856980716,-82.08216411124334,-68.81847155097867
4.51,7.49,-3.63,-0.0908631301328981,0.2595651867909017,0.3440145422964402,-59.497821729807775,-82.31025694358621,-68.65188033330544
4.51,7.49,-3.63,-0.0908631301328981,0.2595651867909017,0.3440145422964402,-59.497821729807775,-82.31025694358621,-68.65188033330544
4.52,7.87,-3.57,0.1195945538298903,0.2521213013633581,0.0580946202479264,-59.40545261479044,-82.24939344216158,-68.77680821232158
4.52,7.87,-3.57,0.1195945538298903,0.2521213013633581,0.0580946202479264,-59.40545261479044,-82.24939344216158,-68.77680821232158
4.42,7.9,-3.45,0.2258692987211515,0.2334269528247028,0.1245327254783656,-59.418645600644645,-82.14295016552349,-68.83236163614916
4.42,7.9,-3.45,0.2258692987211515,0.2334269528247028,0.1245327254783656,-59.418645600644645,-82.14295016552349,-68.83236163614916
4.41,7.94,-3.59,0.1319301803556326,0.319031023608582,0.0464956142596477,-59.16812669186737,-82.32547723365738,-68.86014526786532
4.41,7.94,-3.59,0.1319301803556326,0.319031023608582,0.0464956142596477,-59.16812669186737,-82.32547723365738,-68.86014526786532
4.59,7.87,-3.48,0.0677583732683735,0.1063454593733985,0.0547527770939506,-58.99689808623479,-82.46253949499255,-68.8879335180276
4.59,7.87,-3.48,0.0677583732683735,0.1063454593733985,0.0547527770939506,-58.99689808623479,-82.46253949499255,-68.8879335180276
4.79,8.05,-3.74,-0.09899058323737,0.1812753814125569,-0.277572334941059,-59.07590865675504,-82.31025694358621,-68.97132601860129
4.79,8.05,-3.74,-0.09899058323737,0.1812753814125569,-0.277572334941059,-59.07590865675504,-82.31025694358621,-68.97132601860129
4.39,8.19,-3.3,0.4237352989139943,0.1644514694168251,-0.0438121267563342,-59.0363995158976,-82.26460667045434,-69.01303790274106
4.39,8.19,-3.3,0.4237352989139943,0.1644514694168251,-0.0438121267563342,-59.0363995158976,-82.26460667045434,-69.01303790274106
4.21,8.14,-3.14,0.5696748764437629,0.1481156064374773,0.1372739962302382,-59.0363995158976,-82.32547723365738,-68.92962456147485
4.21,8.14,-3.14,0.5696748764437629,0.1481156064374773,0.1372739962302382,-59.0363995158976,-82.32547723365738,-68.92962456147485
4.48,8.08,-3.56,0.1271199311137774,0.2166238451609489,-0.0911939385969962,-59.128599522356026,-82.31025694358621,-68.84625287494748
4.48,8.08,-3.56,0.1271199311137774,0.2166238451609489,-0.0911939385969962,-59.128599522356026,-82.31025694358621,-68.84625287494748
4.24,7.97,-3.65,0.1386828741169092,0.4152190801791482,0.0788876583367379,-59.299939889821125,-82.29503842028417,-68.67963404083082
4.24,7.97,-3.65,0.1386828741169092,0.4152190801791482,0.0788876583367379,-59.299939889821125,-82.29503842028417,-68.67963404083082
4.05,7.92,-3.61,0.2317324560048332,0.494683387328918,0.2221527040989368,-59.51102079023914,-82.23418197710798,-68.52704538255442
4.05,7.92,-3.61,0.2317324560048332,0.494683387328918,0.2221527040989368,-59.51102079023914,-82.23418197710798,-68.52704538255442
4.27,7.86,-3.55,0.1315919976476249,0.2615170075426891,0.1874352502961045,-59.51102079023914,-82.35592311764404,-68.38844844007662
4.27,7.86,-3.55,0.1315919976476249,0.2615170075426891,0.1874352502961045,-59.51102079023914,-82.35592311764404,-68.38844844007662
4.34,8.06,-3.62,0.1431856853916762,0.2649853190226663,-0.0327036698403819,-59.550623188016026,-82.31025694358621,-68.37459501300991
4.34,8.06,-3.62,0.1431856853916762,0.2649853190226663,-0.0327036698403819,-59.550623188016026,-82.31025694358621,-68.37459501300991
4.37,8.01,-3.53,0.1420210643271962,0.1694397232905418,0.0255958544869212,-59.497821729807775,-82.31025694358621,-68.38844844007662
4.37,8.01,-3.53,0.1420210643271962,0.1694397232905418,0.0255958544869212,-59.497821729807775,-82.31025694358621,-68.38844844007662
4.38,8.03,-3.37,0.227675917155789,0.0670991520120836,0.061607086777581,-59.43183945325738,-82.24939344216158,-68.52704538255442
4.38,8.03,-3.37,0.227675917155789,0.0670991520120836,0.061607086777581,-59.43183945325738,-82.24939344216158,-68.52704538255442
4.43,7.86,-3.34,0.1113001068544928,-0.005463632725164,0.1864793967865825,-59.39226049534915,-82.20376433319544,-68.59638668148234
4.43,7.86,-3.34,0.1113001068544928,-0.005463632725164,0.1864793967865825,-59.39226049534915,-82.20376433319544,-68.59638668148234
4.39,8.08,-3.42,0.1761872679992019,0.1177926956716532,-0.0020187642840401,-59.32631288225003,-82.09735799224998,-68.74903841235427
4.39,8.08,-3.42,0.1761872679992019,0.1177926956716532,-0.0020187642840401,-59.32631288225003,-82.09735799224998,-68.74903841235427
4.39,8.08,-3.32,0.2287185416356416,0.0551274410428357,0.0329327545525881,-59.24720426605303,-82.09735799224998,-68.81847155097867
4.39,8.08,-3.32,0.2287185416356416,0.0551274410428357,0.0329327545525881,-59.24720426605303,-82.09735799224998,-68.81847155097867
4.27,8.05,-3.32,0.2690241149941085,0.1419930894994778,0.1130818237252793,-59.31312595403664,-82.0214061143213,-68.83236163614916
4.27,8.05,-3.32,0.2690241149941085,0.1419930894994778,0.1130818237252793,-59.31312595403664,-82.0214061143213,-68.83236163614916
4.24,7.92,-3.46,0.1162748189646231,0.2385830893900591,0.1834926035977239,-59.39226049534915,-81.96067611888428,-68.81847155097867
4.24,7.92,-3.46,0.1162748189646231,0.2385830893900591,0.1834926035977239,-59.39226049534915,-81.96067611888428,-68.81847155097867
4.23,8.15,-3.43,0.2599861401084334,0.2601656621128932,0.0114970642256473,-59.32631288225003,-81.96067611888428,-68.8879335180276
4.23,8.15,-3.43,0.2599861401084334,0.2601656621128932,0.0114970642256473,-59.32631288225003,-81.96067611888428,-68.8879335180276
4.34,8.06,-3.32,0.2271348706659722,0.08820099603476,0.0720606232041802,-59.2603868777191,-82.03659298623278,-68.86014526786532
4.34,8.06,-3.32,0.2271348706659722,0.08820099603476,0.0720606232041802,-59.2603868777191,-82.03659298623278,-68.86014526786532
