,TIME,ELAPSED_SECONDS,PSTATE,acc_x,acc_y,acc_z,mag_x,mag_y,mag_z,gyr_x,gyr_y,gyr_z,lin_x,lin_y,lin_z,eul_x,eul_y,eul_z,qua_w,qua_x,qua_y,qua_z
0,68786.0,24.147733,1.0,8.94,3.51,0.28,-35.75,-34.19,6.88,-9.75,0.37,-0.88,0.1308393472134442,0.4547334806234582,0.2098693665364646,-77.68768880531772,-34.015373611081245,-91.69691933728231,0.0791,-0.6272,-0.2925,-0.7175
1,68786.0,24.147733,1.0,8.94,3.51,0.28,-35.75,-34.19,6.88,-9.75,0.37,-0.88,0.1308393472134442,0.4547334806234582,0.2098693665364646,-77.68768880531772,-34.015373611081245,-91.69691933728231,0.0791,-0.6272,-0.2925,-0.7175
2,68818.0,24.150044,1.0,8.93,3.79,0.12,-35.38,-34.56,6.88,-7.69,9.13,-8.56,0.05715207200944755,0.7622362414005739,0.1350870677247542,-77.37905512772029,-33.943481085591756,-92.0759410724168,0.0765,-0.6251,-0.2919,-0.7198
3,68818.0,24.150044,1.0,8.93,3.79,0.12,-35.38,-34.56,6.88,-7.69,9.13,-8.56,0.05715207200944755,0.7622362414005739,0.1350870677247542,-77.37905512772029,-33.943481085591756,-92.0759410724168,0.0765,-0.6251,-0.2919,-0.7198
4,68855.0,24.200345000000002,1.0,9.35,3.15,0.23,-35.0,-34.56,8.5,8.06,9.94,-1.56,-0.28995896851846137,0.0868823819894915,-0.05774431735550323,-76.99785688069619,-34.111251783016854,-92.34037663402384,0.0779,-0.6225,-0.2933,-0.7214
5,68855.0,24.200345000000002,1.0,9.35,3.15,0.23,-35.0,-34.56,8.5,8.06,9.94,-1.56,-0.28995896851846137,0.0868823819894915,-0.05774431735550323,-76.99785688069619,-34.111251783016854,-92.34037663402384,0.0779,-0.6225,-0.2933,-0.7214
6,68890.0,24.218102,1.0,8.56,3.4,0.36,-35.0,-34.56,8.5,-4.31,-5.63,-0.31,0.11017081872205484,0.4197461353703702,0.5993227237192347,-77.01249967190056,-34.12323828365854,-92.32383080569313,0.0778,-0.6226,-0.2934,-0.7213
7,68890.0,24.218102,1.0,8.56,3.4,0.36,-35.0,-34.56,8.5,-4.31,-5.63,-0.31,0.11017081872205484,0.4197461353703702,0.5993227237192347,-77.01249967190056,-34.12323828365854,-92.32383080569313,0.0778,-0.6226,-0.2934,-0.7213
8,68925.0,24.252132999999997,1.0,9.25,3.4,0.29,-34.56,-34.88,7.25,2.81,19.87,-6.5,-0.1599423169889272,0.2789834484363374,-0.047444919917035484,-76.69070095907627,-34.13522516911611,-92.65522197363407,0.0765,-0.6204,-0.2935,-0.7233
9,68925.0,24.252132999999997,1.0,9.25,3.4,0.29,-34.56,-34.88,7.25,2.81,19.87,-6.5,-0.1599423169889272,0.2789834484363374,-0.047444919917035484,-76.69070095907627,-34.13522516911611,-92.65522197363407,0.0765,-0.6204,-0.2935,-0.7233
10,68960.0,24.267447,1.0,9.45,3.11,0.25,-34.75,-34.56,6.5,3.0,4.81,2.25,-0.4135098342169581,0.04057240201911383,-0.13641107278841247,-76.38419493533601,-34.18317656247093,-92.88779417994404,0.0782,-0.6183,-0.2939,-0.7247
11,68960.0,24.267447,1.0,9.45,3.11,0.25,-34.75,-34.56,6.5,3.0,4.81,2.25,-0.4135098342169581,0.04057240201911383,-0.13641107278841247,-76.38419493533601,-34.18317656247093,-92.88779417994404,0.0782,-0.6183,-0.2939,-0.7247
12,68995.0,24.304865,1.0,8.97,3.54,0.47,-35.19,-35.25,5.69,-4.56,-15.13,2.56,0.12910638320934065,0.38604987008098013,0.16052657970181627,-76.7345404390869,-34.05132504616154,-92.65522197363407,0.077,-0.6207,-0.2928,-0.7233
13,68995.0,24.304865,1.0,8.97,3.54,0.47,-35.19,-35.25,5.69,-4.56,-15.13,2.56,0.12910638320934065,0.38604987008098013,0.16052657970181627,-76.7345404390869,-34.05132504616154,-92.65522197363407,0.077,-0.6207,-0.2928,-0.7233
14,69029.0,24.351663000000002,1.0,9.35,3.41,-0.09,-35.19,-35.25,5.69,2.44,-12.94,5.13,-0.3974479696193083,0.4544629706357606,-0.1278453832475268,-77.29099637299755,-34.015373611081245,-92.10896087538231,0.0771,-0.6245,-0.2925,-0.72
15,69029.0,24.351663000000002,1.0,9.35,3.41,-0.09,-35.19,-35.25,5.69,2.44,-12.94,5.13,-0.3974479696193083,0.4544629706357606,-0.1278453832475268,-77.29099637299755,-34.015373611081245,-92.10896087538231,0.0771,-0.6245,-0.2925,-0.72
16,69064.0,24.396553,1.0,12.07,3.36,-2.1,-34.5,-34.75,7.25,43.19,-82.12,31.56,-2.341109408255853,0.7197928562007689,-2.6587262471390427,-78.73617218118244,-34.267106355147284,-90.48610437094182,0.0818,-0.6343,-0.2946,-0.7101
17,69064.0,24.396553,1.0,12.07,3.36,-2.1,-34.5,-34.75,7.25,43.19,-82.12,31.56,-2.341109408255853,0.7197928562007689,-2.6587262471390427,-78.73617218118244,-34.267106355147284,-90.48610437094182,0.0818,-0.6343,-0.2946,-0.7101
18,69101.0,24.44739,1.0,9.91,2.56,-1.35,-34.5,-34.06,7.69,77.25,-265.31,71.5,-0.5907791028382277,-0.09485295863687336,-0.4999587035400523,-84.50513857353,-35.21564193303898,-84.08782976269961,0.0887,-0.6724,-0.3025,-0.6697
19,69101.0,24.44739,1.0,9.91,2.56,-1.35,-34.5,-34.06,7.69,77.25,-265.31,71.5,-0.5907791028382277,-0.09485295863687336,-0.4999587035400523,-84.50513857353,-35.21564193303898,-84.08782976269961,0.0887,-0.6724,-0.3025,-0.6697
20,69134.0,24.45241,1.0,10.83,2.13,-4.07,-34.5,-34.06,7.69,52.44,-273.38,98.31,-0.9138374639015348,0.03444009992940167,-1.92170943212378,-95.85542117857165,-34.831128724414064,-72.71191496585868,0.0894,-0.7423,-0.2993,-0.5928
21,69134.0,24.45241,1.0,10.83,2.13,-4.07,-34.5,-34.06,7.69,52.44,-273.38,98.31,-0.9138374639015348,0.03444009992940167,-1.92170943212378,-95.85542117857165,-34.831128724414064,-72.71191496585868,0.0894,-0.7423,-0.2993,-0.5928
22,69169.0,24.497239,1.0,11.55,1.08,-6.0,-34.5,-31.75,16.25,77.69,-379.06,140.56,0.2831380049756101,-0.8500551937824254,-3.222783565495547,-109.7303356928047,-33.67999263161277,-58.37904205289053,0.0972,-0.8178,-0.2897,-0.4877
23,69169.0,24.497239,1.0,11.55,1.08,-6.0,-34.5,-31.75,16.25,77.69,-379.06,140.56,0.2831380049756101,-0.8500551937824254,-3.222783565495547,-109.7303356928047,-33.67999263161277,-58.37904205289053,0.0972,-0.8178,-0.2897,-0.4877
24,69206.0,24.511627999999998,1.0,5.67,0.79,-4.29,-30.37,-27.06,25.0,32.5,-455.19,181.63,1.0340398214655253,-0.035755679178418535,2.728049631351544,-123.7205290097115,-30.971654123503786,-44.33307679780215,0.0934,-0.8818,-0.267,-0.3773
25,69206.0,24.511627999999998,1.0,5.67,0.79,-4.29,-30.37,-27.06,25.0,32.5,-455.19,181.63,1.0340398214655253,-0.035755679178418535,2.728049631351544,-123.7205290097115,-30.971654123503786,-44.33307679780215,0.0934,-0.8818,-0.267,-0.3773
26,69242.0,24.589788000000002,1.0,5.63,-0.07,-7.72,-22.25,-22.87,35.75,32.81,-301.13,133.38,0.615222315611538,0.029982058704507094,0.2714099621965751,-136.62090215577362,-27.301153346475182,-31.26903222594612,0.0908,-0.9292,-0.23600000000000002,-0.2695
27,69242.0,24.589788000000002,1.0,5.63,-0.07,-7.72,-22.25,-22.87,35.75,32.81,-301.13,133.38,0.615222315611538,0.029982058704507094,0.2714099621965751,-136.62090215577362,-27.301153346475182,-31.26903222594612,0.0908,-0.9292,-0.23600000000000002,-0.2695
28,69277.0,24.610845,1.0,3.52,-1.32,-7.39,-22.25,-22.87,35.75,15.13,-252.88,123.44,-0.2351958887089109,-0.5643400775129671,1.5379679302353684,-144.05324557319378,-24.772390131710253,-23.34297818708293,0.0909,-0.9512,-0.2145,-0.2023
29,69277.0,24.610845,1.0,3.52,-1.32,-7.39,-22.25,-22.87,35.75,15.13,-252.88,123.44,-0.2351958887089109,-0.5643400775129671,1.5379679302353684,-144.05324557319378,-24.772390131710253,-23.34297818708293,0.0909,-0.9512,-0.2145,-0.2023
30,69314.0,24.651093,1.0,2.79,-0.84,-9.01,-15.0,-19.75,39.19,-35.69,-182.38,106.69,0.12992021584407387,0.06832751669477438,0.33837391150441043,-152.47972490837182,-21.042478443283557,-15.1934809103634,0.0766,-0.9713,-0.1826,-0.1322
31,69314.0,24.651093,1.0,2.79,-0.84,-9.01,-15.0,-19.75,39.19,-35.69,-182.38,106.69,0.12992021584407387,0.06832751669477438,0.33837391150441043,-152.47972490837182,-21.042478443283557,-15.1934809103634,0.0766,-0.9713,-0.1826,-0.1322
32,69349.0,24.660906,1.0,1.17,0.28,-7.3,-8.75,-19.69,40.0,-31.44,-111.37,70.25,-0.06198792103976744,1.0396142928562868,2.4818524178320063,-156.98580474112185,-18.69245669557365,-11.155913338134189,0.0632,-0.9799,-0.1624,-0.0972
33,69349.0,24.660906,1.0,1.17,0.28,-7.3,-8.75,-19.69,40.0,-31.44,-111.37,70.25,-0.06198792103976744,1.0396142928562868,2.4818524178320063,-156.98580474112185,-18.69245669557365,-11.155913338134189,0.0632,-0.9799,-0.1624,-0.0972
34,69384.0,24.699202,1.0,1.98,-0.34,-10.04,-8.75,-19.69,40.0,-26.37,-12.19,30.31,0.27193976715733725,0.4466369833503772,-0.4190120405791884,-159.3455716366145,-17.09160645080068,-9.60254790532585,0.0547,-0.9838,-0.1486,-0.0837
35,69384.0,24.699202,1.0,1.98,-0.34,-10.04,-8.75,-19.69,40.0,-26.37,-12.19,30.31,0.27193976715733725,0.4466369833503772,-0.4190120405791884,-159.3455716366145,-17.09160645080068,-9.60254790532585,0.0547,-0.9838,-0.1486,-0.0837
36,69419.0,24.75106,1.0,1.62,-0.43,-9.95,-5.56,-20.37,40.56,-12.63,-39.81,33.88,0.1200468139140618,0.3198526169960824,-0.2777480021551,-161.14943788464137,-15.852692930840096,-8.384121213370948,0.0489,-0.9865,-0.1379,-0.0731
37,69419.0,24.75106,1.0,1.62,-0.43,-9.95,-5.56,-20.37,40.56,-12.63,-39.81,33.88,0.1200468139140618,0.3198526169960824,-0.2777480021551,-161.14943788464137,-15.852692930840096,-8.384121213370948,0.0489,-0.9865,-0.1379,-0.0731
38,69455.0,24.764715,1.0,0.64,-0.06,-8.51,-5.69,-20.37,39.0,-13.63,-15.94,17.94,-0.4353650845506055,0.6923138616753479,1.3116833279001965,-162.15571301144445,-15.22816347918777,-7.729330710703709,0.0453,-0.9879,-0.1325,-0.0674
39,69455.0,24.764715,1.0,0.64,-0.06,-8.51,-5.69,-20.37,39.0,-13.63,-15.94,17.94,-0.4353650845506055,0.6923138616753479,1.3116833279001965,-162.15571301144445,-15.22816347918777,-7.729330710703709,0.0453,-0.9879,-0.1325,-0.0674
40,69492.0,24.811279000000003,1.0,2.08,-1.29,-10.84,-5.69,-20.37,39.0,7.56,23.5,8.19,0.2627654460694477,-0.5942513078041638,-1.2872185634689668,-162.30409717935632,-14.800508833176535,-8.119875707408232,0.0451,-0.9881,-0.1288,-0.0708
41,69492.0,24.811279000000003,1.0,2.08,-1.29,-10.84,-5.69,-20.37,39.0,7.56,23.5,8.19,0.2627654460694477,-0.5942513078041638,-1.2872185634689668,-162.30409717935632,-14.800508833176535,-8.119875707408232,0.0451,-0.9881,-0.1288,-0.0708
42,69525.0,24.848689,1.0,1.09,-0.84,-8.95,-4.69,-20.75,40.25,-19.25,-27.56,25.06,-0.2427551336335981,-0.1594078350824258,0.7561329381295074,-163.14335483645732,-14.153639819523336,-7.614481849246592,0.0432,-0.9892,-0.1232,-0.0664
43,69525.0,24.848689,1.0,1.09,-0.84,-8.95,-4.69,-20.75,40.25,-19.25,-27.56,25.06,-0.2427551336335981,-0.1594078350824258,0.7561329381295074,-163.14335483645732,-14.153639819523336,-7.614481849246592,0.0432,-0.9892,-0.1232,-0.0664
44,69560.0,24.897115,1.0,1.27,-1.09,-10.12,-5.0,-20.37,39.0,-4.5,4.44,23.12,-0.2402143893078941,-0.3684463515151245,-0.44137148383894775,-164.1089976777972,-13.207250097467805,-7.47667331573405,0.0409,-0.9904,-0.115,-0.0652
45,69560.0,24.897115,1.0,1.27,-1.09,-10.12,-5.0,-20.37,39.0,-4.5,4.44,23.12,-0.2402143893078941,-0.3684463515151245,-0.44137148383894775,-164.1089976777972,-13.207250097467805,-7.47667331573405,0.0409,-0.9904,-0.115,-0.0652
46,69597.0,24.945610000000002,1.0,2.3,-2.75,-11.4,-4.88,-20.37,39.88,6.81,-14.31,37.56,0.3199798434235069,-1.9683778030201682,-1.9762020199644412,-164.78654130633294,-12.273289521851867,-7.212570385921347,0.0455,-0.9912,-0.1069,-0.0629
47,69597.0,24.945610000000002,1.0,2.3,-2.75,-11.4,-4.88,-20.37,39.88,6.81,-14.31,37.56,0.3199798434235069,-1.9683778030201682,-1.9762020199644412,-164.78654130633294,-12.273289521851867,-7.212570385921347,0.0455,-0.9912,-0.1069,-0.0629
48,69629.0,24.951304,1.0,1.34,-1.56,-10.38,-4.88,-20.37,39.88,-46.5,-54.5,54.31,0.10381299430334988,-1.0194799467030369,-0.7253718144705791,-167.75915046700433,-10.304202691653053,-5.468092286497271,0.0319,-0.9943,-0.0898,-0.0477
49,69629.0,24.951304,1.0,1.34,-1.56,-10.38,-4.88,-20.37,39.88,-46.5,-54.5,54.31,0.10381299430334988,-1.0194799467030369,-0.7253718144705791,-167.75915046700433,-10.304202691653053,-5.468092286497271,0.0319,-0.9943,-0.0898,-0.0477
50,69666.0,24.997363,1.0,0.59,0.96,-9.17,-6.0,-20.37,39.38,-55.19,-47.06,55.13,0.09524438502367394,1.241365189025204,0.6519495147521148,-170.27366439531403,-8.590953131273462,-4.11472114096103,0.0181,-0.9964,-0.0749,-0.0359
51,69666.0,24.997363,1.0,0.59,0.96,-9.17,-6.0,-20.37,39.38,-55.19,-47.06,55.13,0.09524438502367394,1.241365189025204,0.6519495147521148,-170.27366439531403,-8.590953131273462,-4.11472114096103,0.0181,-0.9964,-0.0749,-0.0359
52,69703.0,25.055953,1.0,0.25,1.68,-9.06,-4.88,-22.0,38.19,-12.56,-40.63,31.69,0.06777530101445216,1.832347117753354,0.7730233446287826,-172.22653193357402,-7.1781250358345785,-2.544141615361497,0.0095,-0.9977,-0.0626,-0.0222
53,69703.0,25.055953,1.0,0.25,1.68,-9.06,-4.88,-22.0,38.19,-12.56,-40.63,31.69,0.06777530101445216,1.832347117753354,0.7730233446287826,-172.22653193357402,-7.1781250358345785,-2.544141615361497,0.0095,-0.9977,-0.0626,-0.0222
54,69738.0,25.062479,1.0,-0.02,0.94,-9.84,-4.88,-22.0,38.19,1.44,-62.75,25.12,-0.05936931113143865,1.1315178897380982,-0.013011020121746595,-173.5168579087077,-6.420486066048695,-0.9052827329224428,0.0095,-0.9984,-0.055999999999999994,-0.0079
55,69738.0,25.062479,1.0,-0.02,0.94,-9.84,-4.88,-22.0,38.19,1.44,-62.75,25.12,-0.05936931113143865,1.1315178897380982,-0.013011020121746595,-173.5168579087077,-6.420486066048695,-0.9052827329224428,0.0095,-0.9984,-0.055999999999999994,-0.0079
56,69771.0,25.098720999999998,1.0,-0.19,0.45,-10.13,-3.69,-22.37,38.19,13.31,-84.06,27.37,0.2327010689751208,0.6750176605394922,-0.30995522954501986,-174.1563208624574,-5.468092286497271,2.085681528609333,0.0112,-0.9987,-0.0477,0.0182
57,69771.0,25.098720999999998,1.0,-0.19,0.45,-10.13,-3.69,-22.37,38.19,13.31,-84.06,27.37,0.2327010689751208,0.6750176605394922,-0.30995522954501986,-174.1563208624574,-5.468092286497271,2.085681528609333,0.0112,-0.9987,-0.0477,0.0182
58,69808.0,25.148466,1.0,-1.05,1.13,-8.35,-2.88,-23.06,38.19,-7.56,-38.88,2.69,-0.4125430716414786,1.3310630620967203,1.4304945967877156,-174.1563208624574,-4.332593112917143,3.724881599063971,0.0087,-0.9987,-0.0378,0.0325
59,69808.0,25.148466,1.0,-1.05,1.13,-8.35,-2.88,-23.06,38.19,-7.56,-38.88,2.69,-0.4125430716414786,1.3310630620967203,1.4304945967877156,-174.1563208624574,-4.332593112917143,3.724881599063971,0.0087,-0.9987,-0.0378,0.0325
60,69842.0,25.166929999999997,1.0,-0.21,-0.48,-11.52,-2.88,-23.06,38.19,29.25,-38.88,-5.88,0.8196403769477679,-0.12170274972463632,-1.6954488559995582,-173.3172743700655,-3.7363468303015943,5.215716631990905,0.0164,-0.9983,-0.0326,0.0455
61,69842.0,25.166929999999997,1.0,-0.21,-0.48,-11.52,-2.88,-23.06,38.19,29.25,-38.88,-5.88,0.8196403769477679,-0.12170274972463632,-1.6954488559995582,-173.3172743700655,-3.7363468303015943,5.215716631990905,0.0164,-0.9983,-0.0326,0.0455
62,69877.0,25.198556,1.0,-1.82,-1.58,-8.09,-0.69,-22.37,39.38,16.75,-80.06,21.87,-0.7955557031935289,-1.1199213090490243,1.4777984954614445,-171.27085645575488,-3.266301709643329,7.671905315233598,0.0234,-0.9971,-0.0285,0.0669
63,69877.0,25.198556,1.0,-1.82,-1.58,-8.09,-0.69,-22.37,39.38,16.75,-80.06,21.87,-0.7955557031935289,-1.1199213090490243,1.4777984954614445,-171.27085645575488,-3.266301709643329,7.671905315233598,0.0234,-0.9971,-0.0285,0.0669
64,69912.0,25.256006,1.0,-1.81,0.07,-9.19,0.06,-22.0,39.5,-24.44,-29.69,8.75,-0.31574797503237845,0.43014003545915147,0.4550521276490862,-170.40978378389514,-2.1544482337672357,9.154139652218912,0.0172,-0.9965,-0.0188,0.0798
65,69912.0,25.256006,1.0,-1.81,0.07,-9.19,0.06,-22.0,39.5,-24.44,-29.69,8.75,-0.31574797503237845,0.43014003545915147,0.4550521276490862,-170.40978378389514,-2.1544482337672357,9.154139652218912,0.0172,-0.9965,-0.0188,0.0798
66,69947.0,25.258184,1.0,-1.77,-0.53,-8.64,3.75,-20.87,39.0,19.56,9.56,-11.63,-0.38107646981529797,-0.1445101887569597,0.980705431315096,-170.40978378389514,-1.94815034703792,9.165635515674056,0.0199,-0.9965,-0.017,0.0799
67,69947.0,25.258184,1.0,-1.77,-0.53,-8.64,3.75,-20.87,39.0,19.56,9.56,-11.63,-0.38107646981529797,-0.1445101887569597,0.980705431315096,-170.40978378389514,-1.94815034703792,9.165635515674056,0.0199,-0.9965,-0.017,0.0799
68,69982.0,25.299530999999998,1.0,-1.2,-0.62,-10.07,3.75,-20.87,39.0,-6.75,17.69,-6.56,0.3023513697394796,-0.18087880254910685,-0.3474214251971421,-170.8302288961765,-2.1773706400327653,8.579461739762628,0.0208,-0.9968,-0.019,0.0748
69,69982.0,25.299530999999998,1.0,-1.2,-0.62,-10.07,3.75,-20.87,39.0,-6.75,17.69,-6.56,0.3023513697394796,-0.18087880254910685,-0.3474214251971421,-170.8302288961765,-2.1773706400327653,8.579461739762628,0.0208,-0.9968,-0.019,0.0748
70,70017.0,25.347695,1.0,-1.86,0.28,-9.23,2.69,-20.87,39.88,-7.19,-12.5,-1.37,-0.4096022994763189,0.6698320773214783,0.4197202066940484,-170.8302288961765,-1.4782721132478738,8.832292528579133,0.0193,-0.9968,-0.0129,0.077
71,70017.0,25.347695,1.0,-1.86,0.28,-9.23,2.69,-20.87,39.88,-7.19,-12.5,-1.37,-0.4096022994763189,0.6698320773214783,0.4197202066940484,-170.8302288961765,-1.4782721132478738,8.832292528579133,0.0193,-0.9968,-0.0129,0.077
72,70053.0,25.410852,1.0,-1.62,-0.39,-9.64,1.56,-22.37,39.38,4.56,7.69,-10.5,-0.1525298276469293,0.03017103870829288,0.02493622581394384,-170.9747190636711,-1.0886361860699356,8.659903302137069,0.0207,-0.9969,-0.0095,0.0755
73,70053.0,25.410852,1.0,-1.62,-0.39,-9.64,1.56,-22.37,39.38,4.56,7.69,-10.5,-0.1525298276469293,0.03017103870829288,0.02493622581394384,-170.9747190636711,-1.0886361860699356,8.659903302137069,0.0207,-0.9969,-0.0095,0.0755
74,70088.0,25.414463,1.0,-1.19,-0.74,-10.16,1.56,-22.37,39.38,4.25,17.87,-10.56,0.2455190937121,-0.30208714003815523,-0.4421432818672084,-171.42275078156132,-1.4782721132478738,8.119875707408232,0.0208,-0.9972,-0.0129,0.0708
75,70088.0,25.414463,1.0,-1.19,-0.74,-10.16,1.56,-22.37,39.38,4.25,17.87,-10.56,0.2455190937121,-0.30208714003815523,-0.4421432818672084,-171.42275078156132,-1.4782721132478738,8.119875707408232,0.0208,-0.9972,-0.0129,0.0708
76,70121.0,25.450231,1.0,-1.77,-0.54,-9.15,2.69,-21.56,38.56,-3.94,10.88,-10.13,-0.5426141024863339,-0.13262859961471793,0.4881211681324285,-171.89546411123382,-1.283452294756085,7.648935698119245,0.0206,-0.9975,-0.0112,0.0667
77,70121.0,25.450231,1.0,-1.77,-0.54,-9.15,2.69,-21.56,38.56,-3.94,10.88,-10.13,-0.5426141024863339,-0.13262859961471793,0.4881211681324285,-171.89546411123382,-1.283452294756085,7.648935698119245,0.0206,-0.9975,-0.0112,0.0667
78,70158.0,25.468264,1.0,-1.47,-0.57,-9.5,2.75,-21.19,38.56,-8.13,8.25,-4.25,-0.2534738875614579,-0.17158788793959598,0.18157293095598348,-172.22653193357402,-0.9969591404369118,7.315910364212048,0.02,-0.9977,-0.0087,0.0638
79,70158.0,25.468264,1.0,-1.47,-0.57,-9.5,2.75,-21.19,38.56,-8.13,8.25,-4.25,-0.2534738875614579,-0.17158788793959598,0.18157293095598348,-172.22653193357402,-0.9969591404369118,7.315910364212048,0.02,-0.9977,-0.0087,0.0638
80,70191.0,25.504395000000002,1.0,-1.07,-0.36,-9.93,2.75,-21.19,38.56,-3.75,15.81,-4.06,0.13235916327144295,0.01662051766146796,-0.18642784470284468,-172.75138501198413,-1.1344749665222489,6.925545442265205,0.0184,-0.998,-0.0099,0.0604
81,70191.0,25.504395000000002,1.0,-1.07,-0.36,-9.93,2.75,-21.19,38.56,-3.75,15.81,-4.06,0.13235916327144295,0.01662051766146796,-0.18642784470284468,-172.75138501198413,-1.1344749665222489,6.925545442265205,0.0184,-0.998,-0.0099,0.0604
82,70225.0,25.554504,1.0,-1.09,-0.56,-10.01,2.06,-21.56,40.38,-4.94,4.44,-3.25,0.06666877203848645,-0.18507735631612235,-0.2761621894149098,-173.1234747164887,-0.7333909844413455,6.615607303690656,0.0183,-0.9982,-0.0064,0.0577
83,70225.0,25.554504,1.0,-1.09,-0.56,-10.01,2.06,-21.56,40.38,-4.94,4.44,-3.25,0.06666877203848645,-0.18507735631612235,-0.2761621894149098,-173.1234747164887,-0.7333909844413455,6.615607303690656,0.0183,-0.9982,-0.0064,0.0577
84,70260.0,25.574031,1.0,-1.16,-0.01,-9.93,2.06,-22.69,38.56,-9.75,-3.31,-1.06,-0.01137850623531225,0.31520402081406484,-0.1859030749082589,-173.1234747164887,-0.3781528311358495,6.592650878252481,0.0161,-0.9982,-0.0033,0.0575
85,70260.0,25.574031,1.0,-1.16,-0.01,-9.93,2.06,-22.69,38.56,-9.75,-3.31,-1.06,-0.01137850623531225,0.31520402081406484,-0.1859030749082589,-173.1234747164887,-0.3781528311358495,6.592650878252481,0.0161,-0.9982,-0.0033,0.0575
86,70295.0,25.613991,1.0,-1.34,-0.12,-9.37,2.06,-22.0,37.88,1.12,2.0,-5.88,-0.2419701233040974,0.18751637700974572,0.34550905042201663,-173.1234747164887,-0.13750990383378794,6.6729995322127,0.0162,-0.9982,-0.0012,0.0582
87,70295.0,25.613991,1.0,-1.34,-0.12,-9.37,2.06,-22.0,37.88,1.12,2.0,-5.88,-0.2419701233040974,0.18751637700974572,0.34550905042201663,-173.1234747164887,-0.13750990383378794,6.6729995322127,0.0162,-0.9982,-0.0012,0.0582
88,70330.0,25.65382,1.0,-1.17,-0.47,-9.69,2.06,-22.0,37.88,0.94,11.13,-7.38,-0.08612680017797023,-0.14445860609181366,0.0364087601217804,-173.3172743700655,-0.3552344019497601,6.386054856968827,0.0165,-0.9983,-0.0031,0.0557
89,70330.0,25.65382,1.0,-1.17,-0.47,-9.69,2.06,-22.0,37.88,0.94,11.13,-7.38,-0.08612680017797023,-0.14445860609181366,0.0364087601217804,-173.3172743700655,-0.3552344019497601,6.386054856968827,0.0165,-0.9983,-0.0031,0.0557
90,70367.0,25.69859,1.0,-1.18,0.1,-9.58,2.38,-22.0,37.38,-6.44,-2.0,-1.31,-0.12023708857316055,0.3946280386838462,0.16255275071761588,-173.5168579087077,-0.1718874029970642,6.3057176080928565,0.0152,-0.9984,-0.0015,0.055
91,70367.0,25.69859,1.0,-1.18,0.1,-9.58,2.38,-22.0,37.38,-6.44,-2.0,-1.31,-0.12023708857316055,0.3946280386838462,0.16255275071761588,-173.5168579087077,-0.1718874029970642,6.3057176080928565,0.0152,-0.9984,-0.0015,0.055
92,70402.0,25.711471,1.0,-1.03,-0.04,-9.87,1.69,-21.19,38.19,9.63,4.69,-8.44,0.046160691923814716,0.2885373776860353,-0.11272575516721695,-173.5168579087077,0.05729578190040675,6.225383461526625,0.0166,-0.9984,0.0005,0.0543
93,70402.0,25.711471,1.0,-1.03,-0.04,-9.87,1.69,-21.19,38.19,9.63,4.69,-8.44,0.046160691923814716,0.2885373776860353,-0.11272575516721695,-173.5168579087077,0.05729578190040675,6.225383461526625,0.0166,-0.9984,0.0005,0.0543
94,70434.0,25.76285,1.0,-1.22,-0.05,-9.68,1.69,-21.19,38.19,16.62,8.88,-19.5,-0.20289856243213505,0.3608765553196427,0.058732259006099234,-173.5168579087077,-0.4927452222969898,5.984399237389443,0.0208,-0.9984,-0.0043,0.0522
95,70434.0,25.76285,1.0,-1.22,-0.05,-9.68,1.69,-21.19,38.19,16.62,8.88,-19.5,-0.20289856243213505,0.3608765553196427,0.058732259006099234,-173.5168579087077,-0.4927452222969898,5.984399237389443,0.0208,-0.9984,-0.0043,0.0522
96,70469.0,25.803567,1.0,-1.01,-0.83,-10.06,1.69,-22.0,40.19,23.0,0.94,-16.94,0.012179729539580502,-0.27860861600318204,-0.3341009038175855,-173.5168579087077,-0.5844194845105756,5.823757869537403,0.027000000000000003,-0.9984,-0.0051,0.0508
97,70469.0,25.803567,1.0,-1.01,-0.83,-10.06,1.69,-22.0,40.19,23.0,0.94,-16.94,0.012179729539580502,-0.27860861600318204,-0.3341009038175855,-173.5168579087077,-0.5844194845105756,5.823757869537403,0.027000000000000003,-0.9984,-0.0051,0.0508
98,70506.0,25.817678,1.0,-1.12,-0.78,-9.36,1.25,-21.19,38.69,9.69,-5.63,-9.19,-0.13691107518358164,-0.1569120401320967,0.3499574508497574,-172.75138501198413,-0.5958787923837214,6.00734895779625,0.0327,-0.998,-0.0052,0.0524
99,70506.0,25.817678,1.0,-1.12,-0.78,-9.36,1.25,-21.19,38.69,9.69,-5.63,-9.19,-0.13691107518358164,-0.1569120401320967,0.3499574508497574,-172.75138501198413,-0.5958787923837214,6.00734895779625,0.0327,-0.998,-0.0052,0.0524
100,70541.0,25.852605,1.0,-1.16,-0.69,-9.47,1.25,-21.19,38.69,4.75,7.06,-9.88,-0.18124435695801314,-0.023840391643947856,0.24269777726293995,-172.75138501198413,-0.8594447501191841,5.915551513947968,0.0344,-0.998,-0.0075,0.0516
101,70541.0,25.852605,1.0,-1.16,-0.69,-9.47,1.25,-21.19,38.69,4.75,7.06,-9.88,-0.18124435695801314,-0.023840391643947856,0.24269777726293995,-172.75138501198413,-0.8594447501191841,5.915551513947968,0.0344,-0.998,-0.0075,0.0516
102,70574.0,25.903735,1.0,-1.07,-0.89,-9.77,2.38,-21.19,38.5,3.06,6.0,-6.38,-0.1081021415219799,-0.16489421707926874,-0.060012243341066814,-172.93498296022824,-0.8709042326408071,5.6516548202737225,0.0364,-0.9981,-0.0076,0.0493
103,70574.0,25.903735,1.0,-1.07,-0.89,-9.77,2.38,-21.19,38.5,3.06,6.0,-6.38,-0.1081021415219799,-0.16489421707926874,-0.060012243341066814,-172.93498296022824,-0.8709042326408071,5.6516548202737225,0.0364,-0.9981,-0.0076,0.0493
104,70608.0,25.920894,1.0,-0.88,-0.77,-9.92,2.38,-20.5,39.0,-0.44,12.31,-2.88,0.032074890136410635,-0.040568279902495175,-0.1818947096205452,-173.3172743700655,-0.7448503787209418,5.273072468222583,0.0363,-0.9983,-0.0065,0.046
105,70608.0,25.920894,1.0,-0.88,-0.77,-9.92,2.38,-20.5,39.0,-0.44,12.31,-2.88,0.032074890136410635,-0.040568279902495175,-0.1818947096205452,-173.3172743700655,-0.7448503787209418,5.273072468222583,0.0363,-0.9983,-0.0065,0.046
106,70643.0,25.964752999999998,1.0,-0.93,-0.79,-9.59,2.38,-20.5,39.0,-1.37,11.31,-5.19,-0.11785013196082525,-0.08701976656724214,0.14043880291645294,-173.5168579087077,-0.7333909844413455,4.860139072417077,0.0361,-0.9984,-0.0064,0.0424
107,70643.0,25.964752999999998,1.0,-0.93,-0.79,-9.59,2.38,-20.5,39.0,-1.37,11.31,-5.19,-0.11785013196082525,-0.08701976656724214,0.14043880291645294,-173.5168579087077,-0.7333909844413455,4.860139072417077,0.0361,-0.9984,-0.0064,0.0424
108,70676.0,26.001032000000002,1.0,-0.92,-0.51,-9.83,2.75,-20.06,40.19,-4.56,8.38,-3.63,-0.13868367151536207,0.18078243270066802,-0.07684556337644644,-173.93567700467025,-0.8365258107465946,4.550480755424785,0.0346,-0.9986,-0.0073,0.0397
109,70676.0,26.001032000000002,1.0,-0.92,-0.51,-9.83,2.75,-20.06,40.19,-4.56,8.38,-3.63,-0.13868367151536207,0.18078243270066802,-0.07684556337644644,-173.93567700467025,-0.8365258107465946,4.550480755424785,0.0346,-0.9986,-0.0073,0.0397
110,70711.0,26.052081,1.0,-0.89,-0.67,-9.46,2.06,-20.87,39.0,2.0,11.06,-6.0,-0.2125242146187743,-0.00047296306374167146,0.2836550281171171,-174.1563208624574,-0.8365258107465946,4.11472114096103,0.0348,-0.9987,-0.0073,0.0359
111,70711.0,26.052081,1.0,-0.89,-0.67,-9.46,2.06,-20.87,39.0,2.0,11.06,-6.0,-0.2125242146187743,-0.00047296306374167146,0.2836550281171171,-174.1563208624574,-0.8365258107465946,4.11472114096103,0.0348,-0.9987,-0.0073,0.0359
112,70746.0,26.099080999999998,1.0,-0.83,-0.81,-9.59,1.69,-20.5,40.25,-0.75,15.88,-4.56,-0.22527880534542105,-0.1306274813122819,0.15029013092986787,-174.3856214977935,-0.7448503787209418,3.6331610823402585,0.0349,-0.9988,-0.0065,0.0317
113,70746.0,26.099080999999998,1.0,-0.83,-0.81,-9.59,1.69,-20.5,40.25,-0.75,15.88,-4.56,-0.22527880534542105,-0.1306274813122819,0.15029013092986787,-174.3856214977935,-0.7448503787209418,3.6331610823402585,0.0349,-0.9988,-0.0065,0.0317
114,70780.0,26.104484,1.0,-0.6,-0.45,-9.77,1.69,-20.5,40.25,-5.94,13.63,-1.06,-0.0669702569969674,0.21275606577198225,0.010444109903824385,-174.8748825337537,-0.8021474641450599,3.1287382797377283,0.0336,-0.9990000000000001,-0.006999999999999999,0.0273
115,70780.0,26.104484,1.0,-0.6,-0.45,-9.77,1.69,-20.5,40.25,-5.94,13.63,-1.06,-0.0669702569969674,0.21275606577198225,0.010444109903824385,-174.8748825337537,-0.8021474641450599,3.1287382797377283,0.0336,-0.9990000000000001,-0.006999999999999999,0.0273
116,70817.0,26.152221,1.0,-0.61,-0.55,-9.91,0.56,-20.5,39.5,3.69,6.56,-2.88,-0.11923852100884227,0.1290939829702531,-0.13577510249227487,-175.13792719078654,-0.5500415954991054,2.8421620551927376,0.034,-0.9991,-0.0048,0.0248
117,70817.0,26.152221,1.0,-0.61,-0.55,-9.91,0.56,-20.5,39.5,3.69,6.56,-2.88,-0.11923852100884227,0.1290939829702531,-0.13577510249227487,-175.13792719078654,-0.5500415954991054,2.8421620551927376,0.034,-0.9991,-0.0048,0.0248
118,70852.0,26.167220999999998,1.0,-0.3,-0.93,-10.09,0.56,-20.87,39.38,4.44,6.44,-5.5,0.16537800486977125,-0.2129403056521968,-0.3269725774267957,-175.13792719078654,-0.4239897358038088,2.658762714530565,0.0354,-0.9991,-0.0037,0.0232
119,70852.0,26.167220999999998,1.0,-0.3,-0.93,-10.09,0.56,-20.87,39.38,4.44,6.44,-5.5,0.16537800486977125,-0.2129403056521968,-0.3269725774267957,-175.13792719078654,-0.4239897358038088,2.658762714530565,0.0354,-0.9991,-0.0037,0.0232
120,70885.0,26.238243,1.0,-0.55,-0.72,-9.84,0.56,-20.87,39.38,-4.31,-2.69,-1.31,-0.09149724205973588,-0.03217036692931352,-0.07449838073931048,-175.13792719078654,-0.5156637559929028,2.681687249969397,0.0347,-0.9991,-0.0045,0.0234
121,70885.0,26.238243,1.0,-0.55,-0.72,-9.84,0.56,-20.87,39.38,-4.31,-2.69,-1.31,-0.09149724205973588,-0.03217036692931352,-0.07449838073931048,-175.13792719078654,-0.5156637559929028,2.681687249969397,0.0347,-0.9991,-0.0045,0.0234
122,70920.0,26.243864000000002,1.0,-0.57,-0.76,-9.62,0.88,-20.5,38.56,1.12,8.81,-4.25,-0.14512630773079851,-0.08711905096289918,0.1413383844459677,-175.13792719078654,-0.4927452222969898,2.544141615361497,0.0347,-0.9991,-0.0043,0.0222
123,70920.0,26.243864000000002,1.0,-0.57,-0.76,-9.62,0.88,-20.5,38.56,1.12,8.81,-4.25,-0.14512630773079851,-0.08711905096289918,0.1413383844459677,-175.13792719078654,-0.4927452222969898,2.544141615361497,0.0347,-0.9991,-0.0043,0.0222
124,70957.0,26.296881,1.0,-0.21,-0.91,-10.19,0.19,-20.87,39.06,-0.75,6.88,-3.94,0.1662140476926074,-0.20072656192638502,-0.4227381409245048,-175.4160320064456,-0.4010712754482724,2.1315259137202647,0.0347,-0.9992,-0.0035,0.0186
125,70957.0,26.296881,1.0,-0.21,-0.91,-10.19,0.19,-20.87,39.06,-0.75,6.88,-3.94,0.1662140476926074,-0.20072656192638502,-0.4227381409245048,-175.4160320064456,-0.4010712754482724,2.1315259137202647,0.0347,-0.9992,-0.0035,0.0186
126,70991.0,26.314051,1.0,-0.64,-0.54,-9.47,0.19,-20.87,39.06,-4.69,-0.75,0.37,-0.2865669341822798,0.09745101300527634,0.3045195708647732,-175.71212631630448,-0.4125305035633525,2.142987063023817,0.0334,-0.9993,-0.0036,0.0187
127,70991.0,26.314051,1.0,-0.64,-0.54,-9.47,0.19,-20.87,39.06,-4.69,-0.75,0.37,-0.2865669341822798,0.09745101300527634,0.3045195708647732,-175.71212631630448,-0.4125305035633525,2.142987063023817,0.0334,-0.9993,-0.0036,0.0187
128,71024.0,26.346095000000002,1.0,-0.44,-0.78,-9.99,0.56,-20.5,39.38,-3.5,-4.06,1.37,-0.07399486854709272,-0.11741531943745324,-0.22244958082928254,-175.71212631630448,-0.3323159869732291,2.1086036789736795,0.033,-0.9993,-0.0029,0.0184
129,71024.0,26.346095000000002,1.0,-0.44,-0.78,-9.99,0.56,-20.5,39.38,-3.5,-4.06,1.37,-0.07399486854709272,-0.11741531943745324,-0.22244958082928254,-175.71212631630448,-0.3323159869732291,2.1086036789736795,0.033,-0.9993,-0.0029,0.0184
