acc_x,acc_y,acc_z,lin_x,lin_y,lin_z,eul_x,eul_y,eul_z
3.92,2.15,-9.05,-0.068203355310672,0.0260717230982585,-0.287212916028686,-152.00202441389632,-8.636919564056372,-24.32675435471253
3.92,2.15,-9.05,-0.068203355310672,0.0260717230982585,-0.287212916028686,-152.00202441389632,-8.636919564056372,-24.32675435471253
4.03,2.16,-9.06,0.0447336703065709,0.0281876856598704,-0.3416160761884868,-152.09692309623645,-8.602444609340731,-24.232984111333423
4.03,2.16,-9.06,0.0447336703065709,0.0281876856598704,-0.3416160761884868,-152.09692309623645,-8.602444609340731,-24.232984111333423
4.02,1.94,-9.07,0.0496998050281459,-0.1495672747300647,-0.3009738335085448,-152.3835367338065,-8.544988083393589,-24.01034566150753
4.02,1.94,-9.07,0.0496998050281459,-0.1495672747300647,-0.3009738335085448,-152.3835367338065,-8.544988083393589,-24.01034566150753
4.2,2.11,-9.5,0.1124461029474409,-0.0458259699015257,-0.7918100699542432,-152.7702885732456,-8.41859128124216,-23.68241421184977
4.2,2.11,-9.5,0.1124461029474409,-0.0458259699015257,-0.7918100699542432,-152.7702885732456,-8.41859128124216,-23.68241421184977
3.98,1.96,-9.28,0.1446967505152738,-0.0376082654662571,-0.4781955734035694,-153.81215335885898,-8.1313637329408,-22.82836708787642
3.98,1.96,-9.28,0.1446967505152738,-0.0376082654662571,-0.4781955734035694,-153.81215335885898,-8.1313637329408,-22.82836708787642
4.57,1.66,-9.77,0.6027664657837651,-0.4137201267416907,-1.0818259376349548,-154.73873772257048,-7.809729533725751,-22.08067087291992
4.57,1.66,-9.77,0.6027664657837651,-0.4137201267416907,-1.0818259376349548,-154.73873772257048,-7.809729533725751,-22.08067087291992
5.3,0.0,-10.65,1.1707889383164205,-2.0160511533798267,-1.8585671436656828,-157.04331809093284,-6.776309776380446,-20.27371434520358
5.3,0.0,-10.65,1.1707889383164205,-2.0160511533798267,-1.8585671436656828,-157.04331809093284,-6.776309776380446,-20.27371434520358
4.79,-0.52,-10.03,1.3055610995853428,-2.212377132249678,-1.0199975716145957,-159.53822461146382,-5.4336758888612415,-18.20486640453508
4.79,-0.52,-10.03,1.3055610995853428,-2.212377132249678,-1.0199975716145957,-159.53822461146382,-5.4336758888612415,-18.20486640453508
4.91,-2.68,-8.68,2.263605072661984,-3.917055098978709,0.5241033975538922,-162.68057392822612,-2.9797163137078666,-15.644464720667994
4.91,-2.68,-8.68,2.263605072661984,-3.917055098978709,0.5241033975538922,-162.68057392822612,-2.9797163137078666,-15.644464720667994
4.75,-2.23,-8.59,2.5009164713901506,-3.186576862021859,0.5917357461636499,-164.35965769726891,-0.0916732569994142,-14.349961892702815
4.75,-2.23,-8.59,2.5009164713901506,-3.186576862021859,0.5917357461636499,-164.35965769726891,-0.0916732569994142,-14.349961892702815
3.3,-0.01,-7.4,1.6337467460109705,-0.8119880050769059,1.9122439394081203,-164.87335484809628,4.057388916858228,-12.619102083523115
3.3,-0.01,-7.4,1.6337467460109705,-0.8119880050769059,1.9122439394081203,-164.87335484809628,4.057388916858228,-12.619102083523115
1.51,3.18,-5.95,-0.1580486699959091,2.2679247500203537,3.2777497904579933,-162.9877060930459,8.590953131273462,-11.420757981123572
1.51,3.18,-5.95,-0.1580486699959091,2.2679247500203537,3.2777497904579933,-162.9877060930459,8.590953131273462,-11.420757981123572
1.05,3.82,-6.29,-0.9906728568623946,2.6368280870096985,2.9273546196406928,-160.4621037024181,11.708702081111404,-11.789339646395064
1.05,3.82,-6.29,-0.9906728568623946,2.6368280870096985,2.9273546196406928,-160.4621037024181,11.708702081111404,-11.789339646395064
0.85,3.85,-6.38,-1.5710276954792528,2.384187471883985,2.8714555485841924,-156.70033876277134,14.89295693159816,-13.4841456448157
0.85,3.85,-6.38,-1.5710276954792528,2.384187471883985,2.8714555485841924,-156.70033876277134,14.89295693159816,-13.4841456448157
0.75,4.98,-6.86,-2.436309072145812,3.055244616489732,2.246730791543432,-153.66083809692267,16.686140017359815,-15.436288478593855
0.75,4.98,-6.86,-2.436309072145812,3.055244616489732,2.246730791543432,-153.66083809692267,16.686140017359815,-15.436288478593855
1.57,5.76,-7.4,-2.603055204986659,3.4602474154114327,1.341823278564387,-149.81204156148604,17.949595138790567,-18.796984460560505
1.57,5.76,-7.4,-2.603055204986659,3.4602474154114327,1.341823278564387,-149.81204156148604,17.949595138790567,-18.796984460560505
1.89,5.72,-7.57,-2.7634526945806592,3.1885821166831203,1.1008086684580825,-147.1943287474599,17.798795314151782,-21.858883165817787
1.89,5.72,-7.57,-2.7634526945806592,3.1885821166831203,1.1008086684580825,-147.1943287474599,17.798795314151782,-21.858883165817787
3.15,6.25,-8.34,-2.6503943132354086,3.2740021806202857,-0.2331169149070895,-143.83109490597238,16.419805484293857,-26.1233774379412
3.15,6.25,-8.34,-2.6503943132354086,3.2740021806202857,-0.2331169149070895,-143.83109490597238,16.419805484293857,-26.1233774379412
4.35,6.28,-8.4,-1.9841248390101616,3.185048174495793,-0.9096747780833851,-141.78287468010964,14.407711711634985,-29.0733898303354
4.35,6.28,-8.4,-1.9841248390101616,3.185048174495793,-0.9096747780833851,-141.78287468010964,14.407711711634985,-29.0733898303354
5.34,6.06,-9.07,-1.759126310539889,2.3741192008609246,-1.973550874504216,-139.3046731473042,10.591876570929834,-32.74727085632419
5.34,6.06,-9.07,-1.759126310539889,2.3741192008609246,-1.973550874504216,-139.3046731473042,10.591876570929834,-32.74727085632419
7.43,3.4,-9.56,-0.0136930633333508,-0.5472129563307173,-2.757540004948208,-137.5924585129037,6.11062569758793,-35.73297808318577
7.43,3.4,-9.56,-0.0136930633333508,-0.5472129563307173,-2.757540004948208,-137.5924585129037,6.11062569758793,-35.73297808318577
8.6,1.62,-10.07,0.6895882903106949,-2.699253144149925,-3.240487634502946,-136.65191882638644,2.956790311078442,-37.229102364563495
8.6,1.62,-10.07,0.6895882903106949,-2.699253144149925,-3.240487634502946,-136.65191882638644,2.956790311078442,-37.229102364563495
9.36,-0.11,-9.72,1.4926701310309307,-4.4024208534068325,-2.8618434585536594,-136.37352437272858,-0.0229183119580216,-38.07658496090942
9.36,-0.11,-9.72,1.4926701310309307,-4.4024208534068325,-2.8618434585536594,-136.37352437272858,-0.0229183119580216,-38.07658496090942
9.21,-1.25,-9.05,1.840299086936196,-5.2659676287786885,-1.905394407501058,-136.55893204947213,-1.2261530793833222,-38.10083031138289
9.21,-1.25,-9.05,1.840299086936196,-5.2659676287786885,-1.905394407501058,-136.55893204947213,-1.2261530793833222,-38.10083031138289
8.77,-1.82,-8.42,2.0118741599318706,-5.450807936057349,-1.0267592144999629,-137.1824741414482,-1.1803139285143014,-37.676791133557344
8.77,-1.82,-8.42,2.0118741599318706,-5.450807936057349,-1.0267592144999629,-137.1824741414482,-1.1803139285143014,-37.676791133557344
8.04,-0.58,-7.37,2.0782729142385854,-3.7353611208035753,-0.2443578594701794,-137.68760819354466,-0.0229183119580216,-37.21701087468853
8.04,-0.58,-7.37,2.0782729142385854,-3.7353611208035753,-0.2443578594701794,-137.68760819354466,-0.0229183119580216,-37.21701087468853
7.45,0.65,-6.68,1.9926797883415803,-2.0554104540374034,0.1966596188097736,-138.0702668424954,2.6129139620146145,-36.69748080490138
7.45,0.65,-6.68,1.9926797883415803,-2.0554104540374034,0.1966596188097736,-138.0702668424954,2.6129139620146145,-36.69748080490138
7.5,0.77,-7.06,1.8019182068869453,-1.6568764143258927,-0.2280075090204203,-138.03825139668672,6.351624225020216,-36.612980343917975
7.5,0.77,-7.06,1.8019182068869453,-1.6568764143258927,-0.2280075090204203,-138.03825139668672,6.351624225020216,-36.612980343917975
7.31,0.89,-6.82,1.7203521036271034,-1.1324418990566736,-0.0167182606734588,-137.56078717941855,9.62554711472919,-36.63712122701613
7.31,0.89,-6.82,1.7203521036271034,-1.1324418990566736,-0.0167182606734588,-137.56078717941855,9.62554711472919,-36.63712122701613
6.03,1.94,-5.94,0.7414951805902165,0.4142425397937941,1.1645039693322286,-136.03554234590246,14.592535930080526,-36.818231622724255
6.03,1.94,-5.94,0.7414951805902165,0.4142425397937941,1.1645039693322286,-136.03554234590246,14.592535930080526,-36.818231622724255
6.48,1.63,-5.44,1.2197690673767292,0.7060257862362406,1.306379944793493,-134.14543141113884,18.704070115126303,-37.362137156703376
6.48,1.63,-5.44,1.2197690673767292,0.7060257862362406,1.306379944793493,-134.14543141113884,18.704070115126303,-37.362137156703376
5.62,2.88,-4.41,0.1546185521155207,2.236478750607118,2.4377181980748004,-130.4881841928668,23.82293200606416,-38.74398218156732
5.62,2.88,-4.41,0.1546185521155207,2.236478750607118,2.4377181980748004,-130.4881841928668,23.82293200606416,-38.74398218156732
5.56,2.93,-4.64,-0.5434271926226812,2.1684987816950407,2.321304321936404,-126.55630673438098,27.348324709600163,-40.99909698527016
5.56,2.93,-4.64,-0.5434271926226812,2.1684987816950407,2.321304321936404,-126.55630673438098,27.348324709600163,-40.99909698527016
6.88,3.65,-4.49,-0.8455180955811974,3.1459235778872108,1.4277918443717468,-120.82438029207812,31.79294414962257,-44.345450751183655
6.88,3.65,-4.49,-0.8455180955811974,3.1459235778872108,1.4277918443717468,-120.82438029207812,31.79294414962257,-44.345450751183655
8.14,5.6,-5.94,-3.071519595387004,3.982880848765997,-0.5666632373261908,-115.57996801372803,34.111251783016854,-48.30917991037589
8.14,5.6,-5.94,-3.071519595387004,3.982880848765997,-0.5666632373261908,-115.57996801372803,34.111251783016854,-48.30917991037589
7.13,4.85,-4.56,-2.7452199672820354,3.5864610897837665,1.16060673254505,-112.65079783642123,34.831128724414064,-51.0747783558906
7.13,4.85,-4.56,-2.7452199672820354,3.5864610897837665,1.16060673254505,-112.65079783642123,34.831128724414064,-51.0747783558906
6.94,5.14,-4.07,-3.1628154729798696,3.564093137337016,1.533685694972064,-109.19450172299597,34.21914415630217,-54.735501492602346
6.94,5.14,-4.07,-3.1628154729798696,3.564093137337016,1.533685694972064,-109.19450172299597,34.21914415630217,-54.735501492602346
7.83,5.57,-3.97,-3.2518748847647263,3.7977366521999096,0.6908831066237884,-107.14328559013715,32.54428338361999,-57.47532863305489
7.83,5.57,-3.97,-3.2518748847647263,3.7977366521999096,0.6908831066237884,-107.14328559013715,32.54428338361999,-57.47532863305489
8.89,5.24,-3.98,-2.8781705369848627,3.23316835830652,-0.3714076107073492,-105.0276111512958,29.0023667595726,-61.28769792030866
8.89,5.24,-3.98,-2.8781705369848627,3.23316835830652,-0.3714076107073492,-105.0276111512958,29.0023667595726,-61.28769792030866
9.76,3.58,-4.73,-2.2323311522887206,1.0677991524500607,-1.3433904751080714,-103.75636397061544,25.38282633662164,-63.98388526065868
9.76,3.58,-4.73,-2.2323311522887206,1.0677991524500607,-1.3433904751080714,-103.75636397061544,25.38282633662164,-63.98388526065868
10.32,3.19,-4.43,-1.6365608305057957,0.1285397330714222,-1.7522663066905224,-102.68610514129892,20.122400879873982,-66.41873200300768
10.32,3.19,-4.43,-1.6365608305057957,0.1285397330714222,-1.7522663066905224,-102.68610514129892,20.122400879873982,-66.41873200300768
10.33,3.31,-4.0,-1.2849454551393111,-0.1048845927335835,-1.6826021253353964,-102.42963728896297,16.014684599323402,-67.51788517086389
10.33,3.31,-4.0,-1.2849454551393111,-0.1048845927335835,-1.6826021253353964,-102.42963728896297,16.014684599323402,-67.51788517086389
11.26,3.16,-3.63,-0.4516380597488416,-0.8587010515982256,-2.4002642524624296,-102.41134549904314,10.327214181692757,-68.56864672938487
11.26,3.16,-3.63,-0.4516380597488416,-0.8587010515982256,-2.4002642524624296,-102.41134549904314,10.327214181692757,-68.56864672938487
11.62,1.65,-3.83,0.2458684961126831,-2.91522832340558,-2.1873815367699905,-102.64942299100883,5.6516548202737225,-68.81847155097867
11.62,1.65,-3.83,0.2458684961126831,-2.91522832340558,-2.1873815367699905,-102.64942299100883,5.6516548202737225,-68.81847155097867
10.3,2.57,-2.72,0.6803297694256867,-1.919404085079132,-0.9611881935751044,-103.42286086216532,0.7104722177704716,-68.04245292301711
10.3,2.57,-2.72,0.6803297694256867,-1.919404085079132,-0.9611881935751044,-103.42286086216532,0.7104722177704716,-68.04245292301711
9.8,3.6,-3.2,0.114713525016187,-1.4217565170771849,-1.0194965542143386,-104.68932827217476,-3.851001219583861,-66.99491759872723
9.8,3.6,-3.2,0.114713525016187,-1.4217565170771849,-1.0194965542143386,-104.68932827217476,-3.851001219583861,-66.99491759872723
10.05,-1.07,-2.67,1.7922156037589896,-5.5907231239883375,1.1574836713562444,-106.06943042494876,-7.717845476549469,-65.81713593554738
10.05,-1.07,-2.67,1.7922156037589896,-5.5907231239883375,1.1574836713562444,-106.06943042494876,-7.717845476549469,-65.81713593554738
8.65,3.72,-2.32,1.004073877860329,-0.9217860942335324,0.2053247766635735,-107.02758003485113,-9.25760576115156,-64.63357693133646
8.65,3.72,-2.32,1.004073877860329,-0.9217860942335324,0.2053247766635735,-107.02758003485113,-9.25760576115156,-64.63357693133646
7.89,2.82,-2.74,0.624621624807657,-1.6572745155622224,1.1709456855916702,-107.86033561317936,-10.8450849117299,-63.4577011826531
7.89,2.82,-2.74,0.624621624807657,-1.6572745155622224,1.1709456855916702,-107.86033561317936,-10.8450849117299,-63.4577011826531
7.48,4.38,-2.43,0.7366723346936768,-0.054752150480982,0.8348042549308925,-108.76048947633528,-11.720221376139571,-62.59743692135864
7.48,4.38,-2.43,0.7366723346936768,-0.054752150480982,0.8348042549308925,-108.76048947633528,-11.720221376139571,-62.59743692135864
7.43,4.28,-2.95,0.3621040671902721,-0.2223842795346744,0.7487680247951953,-109.41237708953594,-12.054333120262198,-62.115262460964935
7.43,4.28,-2.95,0.3621040671902721,-0.2223842795346744,0.7487680247951953,-109.41237708953594,-12.054333120262198,-62.115262460964935
7.37,4.86,-2.79,0.5242900365321347,0.3494640114005976,0.5695728182108972,-109.889785903268,-12.261764386292771,-61.62096412364078
7.37,4.86,-2.79,0.5242900365321347,0.3494640114005976,0.5695728182108972,-109.889785903268,-12.261764386292771,-61.62096412364078
7.51,4.7,-3.14,0.3342394089632421,0.075981109297841,0.4134497525589946,-110.16958750511162,-12.388547751922632,-61.40760741658022
7.51,4.7,-3.14,0.3342394089632421,0.075981109297841,0.4134497525589946,-110.16958750511162,-12.388547751922632,-61.40760741658022
7.31,4.73,-3.23,0.1881199023969542,0.1753478450847403,0.5235597798445202,-110.37004645806756,-12.307865676783145,-61.23442867267935
7.31,4.73,-3.23,0.1881199023969542,0.1753478450847403,0.5235597798445202,-110.37004645806756,-12.307865676783145,-61.23442867267935
7.59,5.19,-3.23,0.2506430431255291,0.4445676889171679,0.0744026934986052,-110.16958750511162,-12.204140573704526,-61.394280462247146
7.59,5.19,-3.23,0.2506430431255291,0.4445676889171679,0.0744026934986052,-110.16958750511162,-12.204140573704526,-61.394280462247146
7.54,5.02,-3.4,0.0665735253174705,0.2486197958806087,0.1347444916307711,-109.98960304245053,-12.307865676783145,-61.52759147164257
7.54,5.02,-3.4,0.0665735253174705,0.2486197958806087,0.1347444916307711,-109.98960304245053,-12.307865676783145,-61.52759147164257
7.6,4.79,-3.37,0.1329352611508782,0.035238733998347,0.2127932964647154,-109.96962968750276,-12.296340166976414,-61.54092764747301
7.6,4.79,-3.37,0.1329352611508782,0.035238733998347,0.2127932964647154,-109.96962968750276,-12.296340166976414,-61.54092764747301
7.73,4.92,-3.58,-0.0168844608775756,0.0400821634806041,-0.0307179576984193,-109.94966130041858,-12.169567773976445,-61.59428159649024
7.73,4.92,-3.58,-0.0168844608775756,0.0400821634806041,-0.0307179576984193,-109.94966130041858,-12.169567773976445,-61.59428159649024
7.97,4.88,-3.82,-0.1232457428330472,-0.1630321162045267,-0.2872061024000825,-109.92969787688708,-12.06585603312212,-61.580941721635504
7.97,4.88,-3.82,-0.1232457428330472,-0.1630321162045267,-0.2872061024000825,-109.92969787688708,-12.06585603312212,-61.580941721635504
7.67,4.92,-3.66,-0.1008844894211933,0.0550675221502228,-0.0126009840516108,-110.1295559906411,-11.812380025110386,-61.40760741658022
7.67,4.92,-3.66,-0.1008844894211933,0.0550675221502228,-0.0126009840516108,-110.1295559906411,-11.812380025110386,-61.40760741658022
7.39,4.68,-3.5,-0.0503387345184102,0.0196868435056334,0.38531365954384,-110.3098558920654,-11.558962006616271,-61.22111365086855
7.39,4.68,-3.5,-0.0503387345184102,0.0196868435056334,0.38531365954384,-110.3098558920654,-11.558962006616271,-61.22111365086855
7.5,4.76,-3.81,-0.2815829662322185,-0.0374049504604636,0.1452312686330099,-110.37004645806756,-11.2825706212041,-61.15455226396579
7.5,4.76,-3.81,-0.2815829662322185,-0.0374049504604636,0.1452312686330099,-110.37004645806756,-11.2825706212041,-61.15455226396579
7.89,5.15,-3.9,-0.2231992586215061,0.1218991054394194,-0.3874621584493045,-110.37004645806756,-11.075320376717384,-61.15455226396579
7.89,5.15,-3.9,-0.2231992586215061,0.1218991054394194,-0.3874621584493045,-110.37004645806756,-11.075320376717384,-61.15455226396579
7.59,4.93,-3.53,-0.0055146465038924,0.1854509851924364,0.0937988469777799,-110.55089162584848,-10.753003071870054,-61.008197532736816
7.59,4.93,-3.53,-0.0055146465038924,0.1854509851924364,0.0937988469777799,-110.55089162584848,-10.753003071870054,-61.008197532736816
7.72,4.89,-3.84,-0.2093771044294615,0.0197786982299765,-0.1035402116577497,-110.65153929836842,-10.52282880334764,-60.92841409128425
7.72,4.89,-3.84,-0.2093771044294615,0.0197786982299765,-0.1035402116577497,-110.65153929836842,-10.52282880334764,-60.92841409128425
7.62,5.05,-3.83,-0.2405271501555726,0.2260210499608241,-0.0992503212738125,-110.85321906669196,-10.396251161173767,-60.79551422894158
7.62,5.05,-3.83,-0.2405271501555726,0.2260210499608241,-0.0992503212738125,-110.85321906669196,-10.396251161173767,-60.79551422894158
7.34,4.74,-3.69,-0.1963910698057357,0.1253473601409274,0.3248243009583724,-111.05541520272617,-10.22366575133618,-60.609606145201504
7.34,4.74,-3.69,-0.1963910698057357,0.1253473601409274,0.3248243009583724,-111.05541520272617,-10.22366575133618,-60.609606145201504
