acc_x,acc_y,acc_z,lin_x,lin_y,lin_z,eul_x,eul_y,eul_z
5.96,-0.03,-7.72,-0.2378069152209041,0.2646953550045423,0.0601488718970468,-79.76271757028876,-87.32356135651855,-27.39550079751796
5.96,-0.03,-7.72,-0.2378069152209041,0.2646953550045423,0.0601488718970468,-79.76271757028876,-87.32356135651855,-27.39550079751796
5.49,-0.19,-7.21,-0.3486757533313287,0.2358033719272397,0.7521968420877805,-81.30958228614423,-86.07862420393977,-27.27756943376897
5.49,-0.19,-7.21,-0.3486757533313287,0.2358033719272397,0.7521968420877805,-81.30958228614423,-86.07862420393977,-27.27756943376897
5.6,0.18,-7.16,0.0526402919040176,0.1160926960182568,0.7158991242142445,-83.27262296307823,-84.07240023072654,-27.65505415801313
5.6,0.18,-7.16,0.0526402919040176,0.1160926960182568,0.7158991242142445,-83.27262296307823,-84.07240023072654,-27.65505415801313
5.57,0.76,-6.81,0.6372167573054035,-0.0114838112043995,0.9991291838855484,-84.38134798435583,-82.73709614997145,-28.22185710635222
5.57,0.76,-6.81,0.6372167573054035,-0.0114838112043995,0.9991291838855484,-84.38134798435583,-82.73709614997145,-28.22185710635222
5.57,0.19,-6.27,0.0474415175046698,-0.0527815515725336,1.418034893188242,-84.58256941003617,-81.14353390206055,-30.09265778200395
5.57,0.19,-6.27,0.0474415175046698,-0.0527815515725336,1.418034893188242,-84.58256941003617,-81.14353390206055,-30.09265778200395
4.79,1.24,-2.04,1.1834111716653024,-1.764517058208282,4.894489828540834,-84.02612286771037,-78.26265049482753,-34.86715957624261
4.79,1.24,-2.04,1.1834111716653024,-1.764517058208282,4.894489828540834,-84.02612286771037,-78.26265049482753,-34.86715957624261
6.89,3.69,-5.06,2.8499741364986657,1.1122898437502973,1.0127737940951975,-78.04123484742134,-73.53939139013687,-46.04592388413568
6.89,3.69,-5.06,2.8499741364986657,1.1122898437502973,1.0127737940951975,-78.04123484742134,-73.53939139013687,-46.04592388413568
8.26,0.8,-6.32,-0.5600948237186518,2.7551597908069705,-0.2385174110272583,-71.535350308977,-71.73319272014939,-52.50144503161559
8.26,0.8,-6.32,-0.5600948237186518,2.7551597908069705,-0.2385174110272583,-71.535350308977,-71.73319272014939,-52.50144503161559
7.38,2.15,-2.23,0.7524031709359906,0.5494543798428628,1.8573236541492408,-64.5657923959142,-69.70978337535752,-59.90739833750701
7.38,2.15,-2.23,0.7524031709359906,0.5494543798428628,1.8573236541492408,-64.5657923959142,-69.70978337535752,-59.90739833750701
7.72,1.73,-0.04,0.009259945463826,-0.6226871592751599,1.9196306038602995,-57.33162075280612,-67.87662551738967,-65.99466654035382
7.72,1.73,-0.04,0.009259945463826,-0.6226871592751599,1.9196306038602995,-57.33162075280612,-67.87662551738967,-65.99466654035382
9.65,2.69,-1.29,-0.2741993369291999,2.460166058906435,0.014045765873492,-46.80650649596007,-64.30844165448818,-74.17012064859728
9.65,2.69,-1.29,-0.2741993369291999,2.460166058906435,0.014045765873492,-46.80650649596007,-64.30844165448818,-74.17012064859728
7.9,3.28,1.96,0.1511759525125413,0.0859699908337621,1.0328392548301455,-39.58320288872564,-62.43657558225824,-79.74778543159233
7.9,3.28,1.96,0.1511759525125413,0.0859699908337621,1.0328392548301455,-39.58320288872564,-62.43657558225824,-79.74778543159233
4.67,3.27,12.53,0.1003047750344086,-9.813165277037076,0.152923973347951,-32.950364032221074,-59.24720426605303,-84.73757407583452
4.67,3.27,12.53,0.1003047750344086,-9.813165277037076,0.152923973347951,-32.950364032221074,-59.24720426605303,-84.73757407583452
10.29,8.8,5.19,2.7625841174425005,3.450040428846017,-4.00369214034477,-19.81987998842397,-48.43479821318783,-94.31067299052192
10.29,8.8,5.19,2.7625841174425005,3.450040428846017,-4.00369214034477,-19.81987998842397,-48.43479821318783,-94.31067299052192
6.42,4.01,12.09,-2.2846700851695307,-3.238778706836323,-3.8957291762626056,-12.054333120262198,-45.62292436209528,-97.58001140346656
6.42,4.01,12.09,-2.2846700851695307,-3.238778706836323,-3.8957291762626056,-12.054333120262198,-45.62292436209528,-97.58001140346656
6.63,6.96,7.81,0.5788102521737086,2.457490363770838,-2.318543598617387,-2.9453273542124467,-39.449267117403366,-101.17588829449863
6.63,6.96,7.81,0.5788102521737086,2.457490363770838,-2.318543598617387,-2.9453273542124467,-39.449267117403366,-101.17588829449863
4.49,6.55,8.1,0.7316561107146153,1.6307688306044268,-1.3950406026181152,2.223215714892369,-35.528360490512846,-102.74115590851989
4.49,6.55,8.1,0.7316561107146153,1.6307688306044268,-1.3950406026181152,2.223215714892369,-35.528360490512846,-102.74115590851989
2.22,4.83,9.53,-0.6859104347015428,-0.6861457389328054,-1.0624314193524145,5.938500516393254,-33.70393852830112,-103.38588087785588
2.22,4.83,9.53,-0.6859104347015428,-0.6861457389328054,-1.0624314193524145,5.938500516393254,-33.70393852830112,-103.38588087785588
2.8,5.05,7.34,-0.0741262055899389,1.419740710160133,0.5764310631838807,9.890066196362191,-31.054898349248795,-103.47835920176271
2.8,5.05,7.34,-0.0741262055899389,1.419740710160133,0.5764310631838807,9.890066196362191,-31.054898349248795,-103.47835920176271
2.69,4.9,7.65,-0.3547984102680949,1.4460831476147695,0.4497508545429003,11.2825706212041,-29.97401461191905,-103.64505914352164
2.69,4.9,7.65,-0.3547984102680949,1.4460831476147695,0.4497508545429003,11.2825706212041,-29.97401461191905,-103.64505914352164
1.39,4.18,8.59,-0.8637759067744155,-0.2714434608322831,0.1955725562142394,10.914150898036931,-30.235073199393444,-104.07247881840765
1.39,4.18,8.59,-0.8637759067744155,-0.2714434608322831,0.1955725562142394,10.914150898036931,-30.235073199393444,-104.07247881840765
1.95,4.98,7.21,0.2295013662922744,0.8085095067285457,0.8690529235817781,10.166142467644526,-30.4369103155404,-104.61433000481748
1.95,4.98,7.21,0.2295013662922744,0.8085095067285457,0.8690529235817781,10.166142467644526,-30.4369103155404,-104.61433000481748
3.66,5.36,5.29,0.7376380326396463,2.6027113641136825,1.8825674860481785,6.190955481383822,-32.950364032221074,-105.76506603938064
3.66,5.36,5.29,0.7376380326396463,2.6027113641136825,1.8825674860481785,6.190955481383822,-32.950364032221074,-105.76506603938064
2.53,3.03,10.67,-2.127786947859696,-2.691627036363333,-1.0403941412227962,-0.8136069048374162,-37.57994324822506,-106.71980105429785
2.53,3.03,10.67,-2.127786947859696,-2.691627036363333,-1.0403941412227962,-0.8136069048374162,-37.57994324822506,-106.71980105429785
2.77,3.43,11.7,-1.0617683956916808,-4.297417472805472,-1.8866237476865968,-8.774827247055486,-40.26593689865936,-107.80196748253584
2.77,3.43,11.7,-1.0617683956916808,-4.297417472805472,-1.8866237476865968,-8.774827247055486,-40.26593689865936,-107.80196748253584
6.25,6.53,6.75,0.9177404433742364,2.1104478541778966,-1.2373376101610685,-11.697182904814724,-39.814679382357845,-108.52472019757442
6.25,6.53,6.75,0.9177404433742364,2.1104478541778966,-1.2373376101610685,-11.697182904814724,-39.814679382357845,-108.52472019757442
4.98,5.17,8.35,0.528231982849387,-0.7364881466071621,-1.1674265525943976,-14.7196246947995,-41.158178579890034,-108.42668178324712
4.98,5.17,8.35,0.528231982849387,-0.7364881466071621,-1.1674265525943976,-14.7196246947995,-41.158178579890034,-108.42668178324712
4.49,4.91,8.6,0.7416074233084908,-1.6262484174133127,-0.9187187355985298,-16.581911426258042,-42.12670509670736,-108.11373745608395
4.49,4.91,8.6,0.7416074233084908,-1.6262484174133127,-0.9187187355985298,-16.581911426258042,-42.12670509670736,-108.11373745608395
5.59,4.94,6.1,0.3686920460495986,0.862503867540068,0.2159329645715111,-16.59349169701811,-41.89348323735908,-108.211405674282
5.59,4.94,6.1,0.3686920460495986,0.862503867540068,0.2159329645715111,-16.59349169701811,-41.89348323735908,-108.211405674282
5.42,4.4,6.93,-0.0706298247479964,-0.0181157740722461,-0.0298119272676391,-16.419805484293857,-41.979385883293695,-108.15279095507611
5.42,4.4,6.93,-0.0706298247479964,-0.0181157740722461,-0.0298119272676391,-16.419805484293857,-41.979385883293695,-108.15279095507611
5.47,4.31,7.25,-0.2141525482679336,-0.2378924548453374,-0.241088345816836,-16.30403579859025,-41.99165970563765,-108.11373745608395
5.47,4.31,7.25,-0.2141525482679336,-0.2378924548453374,-0.241088345816836,-16.30403579859025,-41.99165970563765,-108.11373745608395
5.6,4.74,7.08,0.0907004504181763,0.1445648112463953,-0.3877050283302968,-16.257732621833743,-41.81987201497412,-108.17232459490296
5.6,4.74,7.08,0.0907004504181763,0.1445648112463953,-0.3877050283302968,-16.257732621833743,-41.81987201497412,-108.17232459490296
5.51,4.86,6.76,0.2797411929452125,0.363184897959723,-0.1666714926053405,-16.2808838756779,-41.7585431287547,-108.15279095507611
5.51,4.86,6.76,0.2797411929452125,0.363184897959723,-0.1666714926053405,-16.2808838756779,-41.7585431287547,-108.15279095507611
5.36,4.45,7.63,-0.0499559666185789,-0.5002546930811744,-0.5130520133068508,-16.29245975343786,-41.84440708007335,-108.07470230594728
5.36,4.45,7.63,-0.0499559666185789,-0.5002546930811744,-0.5130520133068508,-16.29245975343786,-41.84440708007335,-108.07470230594728
5.6,4.77,7.24,0.1272653564556973,0.0049885723927296,-0.5139254996120091,-16.442961442690333,-41.94256744155725,-107.95770664544784
5.6,4.77,7.24,0.1272653564556973,0.0049885723927296,-0.5139254996120091,-16.442961442690333,-41.94256744155725,-107.95770664544784
4.7,4.5,7.45,0.3795060207381224,-0.8404373779256131,-0.0418087725191327,-16.466118077182387,-42.2372423793781,-107.74364009530142
4.7,4.5,7.45,0.3795060207381224,-0.8404373779256131,-0.0418087725191327,-16.466118077182387,-42.2372423793781,-107.74364009530142
5.1,4.51,6.86,0.1761246589755301,-0.1491917858316829,0.1445372954440689,-16.003112701402525,-42.29866977331948,-107.4332446849696
5.1,4.51,6.86,0.1761246589755301,-0.1491917858316829,0.1445372954440689,-16.003112701402525,-42.29866977331948,-107.4332446849696
5.68,4.23,6.46,-0.3721633585079813,0.4116126924460288,0.2369598573673013,-15.563501157916,-42.45844069063149,-107.02758003485113
5.68,4.23,6.46,-0.3721633585079813,0.4116126924460288,0.2369598573673013,-15.563501157916,-42.45844069063149,-107.02758003485113
5.36,4.43,7.2,-0.0899602232709237,-0.2542759394300846,-0.1994356934595558,-15.690733139619653,-42.446147551916006,-106.98904660999506
5.36,4.43,7.2,-0.0899602232709237,-0.2542759394300846,-0.1994356934595558,-15.690733139619653,-42.446147551916006,-106.98904660999506
5.22,4.58,7.37,0.0915839476540281,-0.3763958811193451,-0.3122253585172938,-15.436288478593855,-42.32324429701836,-106.75821257049073
5.22,4.58,7.37,0.0915839476540281,-0.3763958811193451,-0.3122253585172938,-15.436288478593855,-42.32324429701836,-106.75821257049073
5.5,4.43,6.97,-0.1690493530784076,0.0856002387508625,-0.1140301639479126,-15.008530771963963,-42.21267498362913,-106.64302990624311
5.5,4.43,6.97,-0.1690493530784076,0.0856002387508625,-0.1140301639479126,-15.008530771963963,-42.21267498362913,-106.64302990624311
5.56,4.52,6.84,-0.1168073230132149,0.2482753095064947,-0.0955878995851211,-14.950741939900691,-42.21267498362913,-106.6238479083088
5.56,4.52,6.84,-0.1168073230132149,0.2482753095064947,-0.0955878995851211,-14.950741939900691,-42.21267498362913,-106.6238479083088
5.06,4.67,6.88,0.2896329571558465,-0.064193682731565,0.0773698662374524,-14.985414779298193,-42.24952684009253,-106.43226434357533
5.06,4.67,6.88,0.2896329571558465,-0.064193682731565,0.0773698662374524,-14.985414779298193,-42.24952684009253,-106.43226434357533
4.9,4.53,7.29,0.2219057589706824,-0.5201319696407132,-0.0602249139883834,-15.043205913037664,-42.34782086095775,-106.20292801228648
4.9,4.53,7.29,0.2219057589706824,-0.5201319696407132,-0.0602249139883834,-15.043205913037664,-42.34782086095775,-106.20292801228648
5.12,4.33,7.02,-0.0348783724567888,-0.2087965264987561,0.1010388647001274,-14.869843995469047,-42.151265384526,-106.29841038740038
5.12,4.33,7.02,-0.0348783724567888,-0.2087965264987561,0.1010388647001274,-14.869843995469047,-42.151265384526,-106.29841038740038
5.23,4.56,6.66,0.1391845587802311,0.323961652236636,0.195314166387833,-14.25756979612918,-41.52560730818473,-106.39399903423676
5.23,4.56,6.66,0.1391845587802311,0.323961652236636,0.195314166387833,-14.25756979612918,-41.52560730818473,-106.39399903423676
5.23,4.74,7.0,0.2580672579175894,0.1719683619453298,-0.1293616834110427,-14.130545861300051,-41.40308164369669,-106.20292801228648
5.23,4.74,7.0,0.2580672579175894,0.1719683619453298,-0.1293616834110427,-14.130545861300051,-41.40308164369669,-106.20292801228648
5.24,4.62,7.18,0.1328086474918165,-0.0145976574163464,-0.2101633042175344,-14.188281840563285,-41.57463147554045,-105.974201394434
5.24,4.62,7.18,0.1328086474918165,-0.0145976574163464,-0.2101633042175344,-14.188281840563285,-41.57463147554045,-105.974201394434
5.16,4.35,7.08,-0.0393916871899181,-0.1033413003502019,0.0259409832352996,-14.2344732300193,-41.68496498644351,-105.87907721917452
5.16,4.35,7.08,-0.0393916871899181,-0.1033413003502019,0.0259409832352996,-14.2344732300193,-41.68496498644351,-105.87907721917452
5.12,4.48,7.17,0.0909500124875578,-0.1763694040844181,-0.0753701339873558,-14.373061379793723,-41.77080790377483,-105.822052873486
5.12,4.48,7.17,0.0909500124875578,-0.1763694040844181,-0.0753701339873558,-14.373061379793723,-41.77080790377483,-105.822052873486
5.17,4.3,6.93,-0.0511606149009366,-0.0518276051141302,0.1506416895835745,-14.39616145402999,-41.868944153662135,-105.65120455426174
5.17,4.3,6.93,-0.0511606149009366,-0.0518276051141302,0.1506416895835745,-14.39616145402999,-41.868944153662135,-105.65120455426174
5.32,4.32,7.27,-0.1293846941007346,-0.2365929709975836,-0.1805910287830237,-14.754288420181696,-42.02848420080716,-105.57537971529776
5.32,4.32,7.27,-0.1293846941007346,-0.2365929709975836,-0.1805910287830237,-14.754288420181696,-42.02848420080716,-105.57537971529776
5.25,4.71,6.93,0.3073951275944929,0.0678289008111834,-0.0762851650077056,-14.916070477056891,-41.9548397514564,-105.5943297282315
5.25,4.71,6.93,0.3073951275944929,0.0678289008111834,-0.0762851650077056,-14.916070477056891,-41.9548397514564,-105.5943297282315
5.46,4.47,6.91,-0.0076736504553134,0.1506564505668897,-0.0684623410820659,-14.869843995469047,-41.9548397514564,-105.5943297282315
5.46,4.47,6.91,-0.0076736504553134,0.1506564505668897,-0.0684623410820659,-14.869843995469047,-41.9548397514564,-105.5943297282315
5.3,4.29,7.21,-0.1190797793099145,-0.2361648333209807,-0.1134430528731442,-14.904513628099544,-42.065313242449655,-105.5374920637476
5.3,4.29,7.21,-0.1190797793099145,-0.2361648333209807,-0.1134430528731442,-14.904513628099544,-42.065313242449655,-105.5374920637476
5.24,4.64,7.08,0.2512358289239654,-0.087501465867354,-0.1453761279669034,-14.962299399917931,-42.053036389733045,-105.29162283128352
5.24,4.64,7.08,0.2512358289239654,-0.087501465867354,-0.1453761279669034,-14.962299399917931,-42.053036389733045,-105.29162283128352
