acc_x,acc_y,acc_z,lin_x,lin_y,lin_z,eul_x,eul_y,eul_z
2.76,-2.64,-9.11,-0.0063181443157644,-0.0286710883511736,-0.071529895595404,-120.38490958888936,54.25858892916724,-21.963930115303267
2.76,-2.64,-9.11,-0.0063181443157644,-0.0286710883511736,-0.071529895595404,-120.38490958888936,54.25858892916724,-21.963930115303267
2.84,-2.58,-9.14,-0.0186810688637907,0.0733329733144065,-0.1057600647971082,-120.38490958888936,54.27146504851861,-21.928912393640328
2.84,-2.58,-9.14,-0.0186810688637907,0.0733329733144065,-0.1057600647971082,-120.38490958888936,54.27146504851861,-21.928912393640328
2.73,-2.66,-8.99,0.0474019848195964,-0.0526804829946134,0.0422463920705027,-120.40796619724487,54.27146504851861,-21.917240280609395
2.73,-2.66,-8.99,0.0474019848195964,-0.0526804829946134,0.0422463920705027,-120.40796619724487,54.27146504851861,-21.917240280609395
2.8,-2.34,-9.2,-0.2385177063172915,0.1591592323338444,-0.0864474746302814,-120.40796619724487,54.27146504851861,-21.928912393640328
2.8,-2.34,-9.2,-0.2385177063172915,0.1591592323338444,-0.0864474746302814,-120.40796619724487,54.27146504851861,-21.928912393640328
2.81,-2.4,-9.17,-0.1765084231313885,0.1403346728792418,-0.0773851555501661,-120.43103091016366,54.24571355108697,-21.917240280609395
2.81,-2.4,-9.17,-0.1765084231313885,0.1403346728792418,-0.0773851555501661,-120.43103091016366,54.24571355108697,-21.917240280609395
2.81,-2.54,-8.99,0.0040811113400761,0.0736537576794131,0.0515303970166538,-120.45410373713348,54.23283891398725,-21.893896745024183
2.81,-2.54,-8.99,0.0040811113400761,0.0736537576794131,0.0515303970166538,-120.45410373713348,54.23283891398725,-21.893896745024183
2.84,-2.61,-8.97,0.0758820397795785,0.0471164674991617,0.0429098378219148,-120.45410373713348,54.20709186156805,-21.95225731085252
2.84,-2.61,-8.97,0.0758820397795785,0.0471164674991617,0.0429098378219148,-120.45410373713348,54.20709186156805,-21.95225731085252
3.16,-2.69,-9.35,0.1488794643382146,0.2187829169605675,-0.4195012281182589,-120.45410373713348,54.18134776958782,-22.022297601396428
3.16,-2.69,-9.35,0.1488794643382146,0.2187829169605675,-0.4195012281182589,-120.45410373713348,54.18134776958782,-22.022297601396428
2.83,-2.36,-9.11,-0.1687893629014565,0.1692567452008444,-0.0174765415901134,-120.45410373713348,54.219965017577714,-21.928912393640328
2.83,-2.36,-9.11,-0.1687893629014565,0.1692567452008444,-0.0174765415901134,-120.45410373713348,54.219965017577714,-21.928912393640328
2.78,-2.3,-8.9,-0.1534195893223049,0.1784790346836016,0.2059725414145585,-120.47718468766024,54.219965017577714,-21.893896745024183
2.78,-2.3,-8.9,-0.1534195893223049,0.1784790346836016,0.2059725414145585,-120.47718468766024,54.219965017577714,-21.893896745024183
2.87,-2.69,-9.11,0.0938958760300699,0.0030249231166237,-0.1158635129313214,-120.45410373713348,54.18134776958782,-22.01062364188303
2.87,-2.69,-9.11,0.0938958760300699,0.0030249231166237,-0.1158635129313214,-120.45410373713348,54.18134776958782,-22.01062364188303
3.06,-2.54,-9.27,0.0204796249378297,0.2296871970667737,-0.2777401340867431,-120.45410373713348,54.20709186156805,-21.987276416568136
3.06,-2.54,-9.27,0.0204796249378297,0.2296871970667737,-0.2777401340867431,-120.45410373713348,54.20709186156805,-21.987276416568136
2.92,-2.46,-8.87,0.0505454593383775,0.1979913925090726,0.1519545327658011,-120.47718468766024,54.20709186156805,-21.917240280609395
2.92,-2.46,-8.87,0.0505454593383775,0.1979913925090726,0.1519545327658011,-120.47718468766024,54.20709186156805,-21.917240280609395
2.87,-2.35,-9.14,-0.1645291754212682,0.2005251854898264,-0.0539645751884805,-120.45410373713348,54.24571355108697,-21.928912393640328
2.87,-2.35,-9.14,-0.1645291754212682,0.2005251854898264,-0.0539645751884805,-120.45410373713348,54.24571355108697,-21.928912393640328
2.77,-2.39,-9.27,-0.2343798885715899,0.0855888017725261,-0.1560625134094042,-120.50027377126791,54.1942194456681,-21.928912393640328
2.77,-2.39,-9.27,-0.2343798885715899,0.0855888017725261,-0.1560625134094042,-120.50027377126791,54.1942194456681,-21.928912393640328
3.01,-2.71,-9.06,0.2118306224844158,0.116445148717879,-0.1145076096097756,-120.50027377126791,54.16847683303728,-21.928912393640328
3.01,-2.71,-9.06,0.2118306224844158,0.116445148717879,-0.1145076096097756,-120.50027377126791,54.16847683303728,-21.928912393640328
2.55,-2.42,-8.89,-0.1877392316041681,-0.0664657216315642,0.2488607007548697,-120.52337099749846,54.14273717736637,-21.928912393640328
2.55,-2.42,-8.89,-0.1877392316041681,-0.0664657216315642,0.2488607007548697,-120.52337099749846,54.14273717736637,-21.928912393640328
2.89,-2.46,-9.2,-0.097772915053851,0.1569595231659579,-0.1437019618739814,-120.52337099749846,54.14273717736637,-21.928912393640328
2.89,-2.46,-9.2,-0.097772915053851,0.1569595231659579,-0.1437019618739814,-120.52337099749846,54.14273717736637,-21.928912393640328
2.85,-2.7,-9.26,0.0498172279365401,-0.0175215869022205,-0.2510491025678014,-120.5695899160874,54.12986845766676,-21.893896745024183
2.85,-2.7,-9.26,0.0498172279365401,-0.0175215869022205,-0.2510491025678014,-120.5695899160874,54.12986845766676,-21.893896745024183
2.79,-2.09,-8.94,-0.332344700016418,0.321874535805668,0.2221967665823072,-120.54647637591216,54.12986845766676,-21.88222532220053
2.79,-2.09,-8.94,-0.332344700016418,0.321874535805668,0.2221967665823072,-120.54647637591216,54.12986845766676,-21.88222532220053
2.58,-2.88,-9.01,0.1349873836725696,-0.3064110395307265,0.0077321678563428,-120.63897960324066,54.039808077971365,-21.893896745024183
2.58,-2.88,-9.01,0.1349873836725696,-0.3064110395307265,0.0077321678563428,-120.63897960324066,54.039808077971365,-21.893896745024183
2.7,-2.44,-9.09,-0.163460116721314,0.0379746977460464,0.0166786664070066,-120.59271162762089,54.104133233092014,-21.858883165817787
2.7,-2.44,-9.09,-0.163460116721314,0.0379746977460464,0.0166786664070066,-120.59271162762089,54.104133233092014,-21.858883165817787
3.04,-2.7,-9.18,0.1662224598141821,0.1536450555128481,-0.2309175983163278,-120.61584152012747,54.039808077971365,-21.917240280609395
3.04,-2.7,-9.18,0.1662224598141821,0.1536450555128481,-0.2309175983163278,-120.61584152012747,54.039808077971365,-21.917240280609395
2.77,-2.72,-8.99,0.1191060437185532,-0.0583484739823809,0.015132793461797,-120.66212588661212,54.00122182339204,-21.88222532220053
2.77,-2.72,-8.99,0.1191060437185532,-0.0583484739823809,0.015132793461797,-120.66212588661212,54.00122182339204,-21.88222532220053
2.76,-2.26,-8.95,-0.2233642707806759,0.2024105721959317,0.1766532002704206,-120.68528037991206,53.98836120988355,-21.88222532220053
2.76,-2.26,-8.95,-0.2233642707806759,0.2024105721959317,0.1766532002704206,-120.68528037991206,53.98836120988355,-21.88222532220053
2.83,-2.88,-9.09,0.2091344935156938,-0.1178427611061503,-0.1368793456235533,-120.777980646449,53.82124003233572,-22.022297601396428
2.83,-2.88,-9.09,0.2091344935156938,-0.1178427611061503,-0.1368793456235533,-120.777980646449,53.82124003233572,-22.022297601396428
2.79,-2.17,-8.86,-0.2579034720594243,0.2759951956249484,0.2751279572677028,-120.777980646449,53.83409111073488,-21.987276416568136
2.79,-2.17,-8.86,-0.2579034720594243,0.2759951956249484,0.2751279572677028,-120.777980646449,53.83409111073488,-21.987276416568136
2.76,-2.71,-9.18,0.0152814930675891,-0.1021013007664606,-0.1544464155735117,-120.87081305028902,53.71845771367622,-22.033971792326973
2.76,-2.71,-9.18,0.0152814930675891,-0.1021013007664606,-0.1544464155735117,-120.87081305028902,53.71845771367622,-22.033971792326973
2.97,-2.21,-9.2,-0.256570534392559,0.348655472970355,-0.1008022921914406,-120.87081305028902,53.73130294840485,-22.01062364188303
2.97,-2.21,-9.2,-0.256570534392559,0.348655472970355,-0.1008022921914406,-120.87081305028902,53.73130294840485,-22.01062364188303
2.79,-2.65,-9.05,0.0424753314071063,-0.0340763306609965,-0.0272777325954862,-121.03358960360973,53.56437169079451,-21.987276416568136
2.79,-2.65,-9.05,0.0424753314071063,-0.0340763306609965,-0.0272777325954862,-121.03358960360973,53.56437169079451,-21.987276416568136
2.98,-2.85,-9.31,0.1945554342799,-0.0287718750921857,-0.3737390083923504,-121.12678863705332,53.461705766242936,-22.01062364188303
2.98,-2.85,-9.31,0.1945554342799,-0.0287718750921857,-0.3737390083923504,-121.12678863705332,53.461705766242936,-22.01062364188303
3.03,-2.43,-9.13,-0.0221444457323316,0.277810831362929,-0.111264637941824,-121.10347629286508,53.51303293157287,-21.95225731085252
3.03,-2.43,-9.13,-0.0221444457323316,0.277810831362929,-0.111264637941824,-121.10347629286508,53.51303293157287,-21.95225731085252
2.71,-2.68,-8.88,0.0887908685554533,-0.0926359435777071,0.1441226513391615,-121.12678863705332,53.48736790080603,-21.95225731085252
2.71,-2.68,-8.88,0.0887908685554533,-0.0926359435777071,0.1441226513391615,-121.12678863705332,53.48736790080603,-21.95225731085252
2.94,-2.76,-9.18,0.1405800841227268,0.0322085182625213,-0.2189572061147178,-121.12678863705332,53.436046525616895,-21.998949913651906
2.94,-2.76,-9.18,0.1405800841227268,0.0322085182625213,-0.2189572061147178,-121.12678863705332,53.436046525616895,-21.998949913651906
2.76,-2.58,-9.12,-0.0518090532422216,-0.0021453228937444,-0.0648094270346764,-121.15010938852664,53.4488757843294,-21.917240280609395
2.76,-2.58,-9.12,-0.0518090532422216,-0.0021453228937444,-0.0648094270346764,-121.15010938852664,53.4488757843294,-21.917240280609395
2.9,-2.76,-9.2,0.1326852959456628,-0.0108118910315291,-0.2257912639821722,-121.2201221874496,53.3975630858556,-21.917240280609395
2.9,-2.76,-9.2,0.1326852959456628,-0.0108118910315291,-0.2257912639821722,-121.2201221874496,53.3975630858556,-21.917240280609395
2.91,-2.49,-8.96,0.0212848652812124,0.1824867297670212,0.0641633796361311,-121.2201221874496,53.38473671711782,-21.90556839778225
2.91,-2.49,-8.96,0.0212848652812124,0.1824867297670212,0.0641633796361311,-121.2201221874496,53.38473671711782,-21.90556839778225
2.68,-2.29,-8.84,-0.1989467907000685,0.1363081301076982,0.2927685487658777,-121.2668396082864,53.37191107016693,-21.83554192755703
2.68,-2.29,-8.84,-0.1989467907000685,0.1363081301076982,0.2927685487658777,-121.2668396082864,53.37191107016693,-21.83554192755703
2.78,-2.65,-9.19,-0.0173317835480049,-0.022184037114441,-0.1535812963995119,-121.29021101561548,53.29497233017572,-21.893896745024183
2.78,-2.65,-9.19,-0.0173317835480049,-0.022184037114441,-0.1535812963995119,-121.29021101561548,53.29497233017572,-21.893896745024183
2.78,-2.73,-9.01,0.1030678223246982,-0.0393990083004718,-0.0091140936478399,-121.29021101561548,53.28215172783013,-21.893896745024183
2.78,-2.73,-9.01,0.1030678223246982,-0.0393990083004718,-0.0091140936478399,-121.29021101561548,53.28215172783013,-21.893896745024183
2.86,-2.4,-9.44,-0.2673239160571303,0.196444359717989,-0.3394402586877696,-121.43061785942284,53.153985232120654,-21.858883165817787
2.86,-2.4,-9.44,-0.2673239160571303,0.196444359717989,-0.3394402586877696,-121.43061785942284,53.153985232120654,-21.858883165817787
2.95,-2.15,-9.29,-0.3342852374079539,0.4326544949635617,-0.1598018996500929,-121.5243930799012,53.11554927222101,-21.75385480831424
2.95,-2.15,-9.29,-0.3342852374079539,0.4326544949635617,-0.1598018996500929,-121.5243930799012,53.11554927222101,-21.75385480831424
3.01,-1.9,-9.24,-0.4464847378220304,0.6475025910234227,-0.0639675983830887,-121.71235608620218,52.97467248448692,-21.57884859507936
3.01,-1.9,-9.24,-0.4464847378220304,0.6475025910234227,-0.0639675983830887,-121.71235608620218,52.97467248448692,-21.57884859507936
2.55,-3.03,-9.13,0.1880482941307979,-0.3426703247432927,-0.1375701749365347,-122.13730880568986,52.51422225376784,-21.50886039245491
2.55,-3.03,-9.13,0.1880482941307979,-0.3426703247432927,-0.1375701749365347,-122.13730880568986,52.51422225376784,-21.50886039245491
3.05,-3.14,-9.18,0.5270392889628951,0.0227836140632258,-0.3499345880797779,-122.3984110822012,52.23328523623708,-21.35724709777197
3.05,-3.14,-9.18,0.5270392889628951,0.0227836140632258,-0.3499345880797779,-122.3984110822012,52.23328523623708,-21.35724709777197
2.46,-2.41,-8.53,-0.0381375843090265,0.0146785739305146,0.6077951764836289,-122.68448977939887,52.1184538275471,-21.08910064572278
2.46,-2.41,-8.53,-0.0381375843090265,0.0146785739305146,0.6077951764836289,-122.68448977939887,52.1184538275471,-21.08910064572278
2.63,-2.36,-8.71,-0.0141656468928976,0.1909337831121067,0.4091001265002792,-122.82802018843608,52.06743571130708,-20.83272200177108
2.63,-2.36,-8.71,-0.0141656468928976,0.1909337831121067,0.4091001265002792,-122.82802018843608,52.06743571130708,-20.83272200177108
2.84,-2.42,-9.51,-0.1687534956046926,0.3277932527031086,-0.4024720896413747,-122.85197400573632,51.9909293300881,-20.79776947557341
2.84,-2.42,-9.51,-0.1687534956046926,0.3277932527031086,-0.4024720896413747,-122.85197400573632,51.9909293300881,-20.79776947557341
1.57,-3.02,-8.77,-0.157026849669525,-0.90638949069305,0.4443852814800167,-123.30885743015295,51.55786178927636,-20.506574164810864
1.57,-3.02,-8.77,-0.157026849669525,-0.90638949069305,0.4443852814800167,-123.30885743015295,51.55786178927636,-20.506574164810864
2.43,-2.67,-9.44,-0.1757464847729519,-0.0230808618120759,-0.2985951947940375,-123.42965193046732,51.443358765022325,-20.4134200209308
2.43,-2.67,-9.44,-0.1757464847729519,-0.0230808618120759,-0.2985951947940375,-123.42965193046732,51.443358765022325,-20.4134200209308
2.42,-2.7,-9.12,-0.0421337073421217,-0.0559774594702975,-0.0074159909507862,-123.38130576448056,51.48152030899618,-20.471639758994087
2.42,-2.7,-9.12,-0.0421337073421217,-0.0559774594702975,-0.0074159909507862,-123.38130576448056,51.48152030899618,-20.471639758994087
2.45,-2.59,-9.04,-0.0815257081438243,0.0372416657459802,0.0894401835329254,-123.38130576448056,51.45607859919252,-20.49492914898236
2.45,-2.59,-9.04,-0.0815257081438243,0.0372416657459802,0.0894401835329254,-123.38130576448056,51.45607859919252,-20.49492914898236
3.04,-2.07,-9.14,-0.1453787715355291,0.7616502441168402,-0.0150023008312398,-123.38130576448056,51.54513650446032,-20.49492914898236
3.04,-2.07,-9.14,-0.1453787715355291,0.7616502441168402,-0.0150023008312398,-123.38130576448056,51.54513650446032,-20.49492914898236
2.32,-2.85,-9.12,0.0134709624418305,-0.2892520903955098,-0.0216485181247261,-123.502242338284,51.34162455414572,-20.623036118505983
2.32,-2.85,-9.12,0.0134709624418305,-0.2892520903955098,-0.0216485181247261,-123.502242338284,51.34162455414572,-20.623036118505983
2.1,-2.78,-8.86,-0.0397754759777685,-0.4483098449387639,0.2968952085008141,-123.7205290097115,51.163694017238186,-20.57644875978384
2.1,-2.78,-8.86,-0.0397754759777685,-0.4483098449387639,0.2968952085008141,-123.7205290097115,51.163694017238186,-20.57644875978384
2.84,-1.86,-9.26,-0.4311113095058805,0.6258285807586108,-0.0267259018112273,-123.6719537539127,51.26535237984769,-20.623036118505983
2.84,-1.86,-9.26,-0.4311113095058805,0.6258285807586108,-0.0267259018112273,-123.6719537539127,51.26535237984769,-20.623036118505983
2.52,-2.02,-8.76,-0.3510392775533086,0.1663697433931601,0.4783332957870616,-123.76914279530573,50.98589564550729,-21.21732993545333
2.52,-2.02,-8.76,-0.3510392775533086,0.1663697433931601,0.4783332957870616,-123.76914279530573,50.98589564550729,-21.21732993545333
3.56,-2.8,-9.39,0.456483826427945,0.3486878933760022,-0.6027562880273223,-123.6476805433651,50.71944432115219,-22.04564621480964
3.56,-2.8,-9.39,0.456483826427945,0.3486878933760022,-0.6027562880273223,-123.6476805433651,50.71944432115219,-22.04564621480964
4.0,-2.38,-9.63,0.2391226203155251,0.9181915223073976,-0.8470369064571415,-123.5991628945627,50.59266598447474,-22.39598723123728
4.0,-2.38,-9.63,0.2391226203155251,0.9181915223073976,-0.8470369064571415,-123.5991628945627,50.59266598447474,-22.39598723123728
2.85,-2.8,-8.92,0.1759349611586083,-0.1731616449856892,0.0358792047071343,-123.81779521129648,50.36463176877203,-22.36094364221954
2.85,-2.8,-8.92,0.1759349611586083,-0.1731616449856892,0.0358792047071343,-123.81779521129648,50.36463176877203,-22.36094364221954
3.16,-2.58,-8.96,0.179910908398473,0.2116503585116904,-0.0344086925788165,-123.74483108000663,50.47862213735133,-22.314222150985408
3.16,-2.58,-8.96,0.179910908398473,0.2116503585116904,-0.0344086925788165,-123.74483108000663,50.47862213735133,-22.314222150985408
2.96,-2.48,-8.88,-0.0183916417930387,0.0795495325392672,0.1236890055838308,-123.6719537539127,50.3899583498149,-22.66472550596455
2.96,-2.48,-8.88,-0.0183916417930387,0.0795495325392672,0.1236890055838308,-123.6719537539127,50.3899583498149,-22.66472550596455
2.5,-2.56,-8.97,-0.2994249784727555,-0.3804306459099665,0.1614378610204134,-123.84213593724544,50.04827088645171,-23.015443848374385
2.5,-2.56,-8.97,-0.2994249784727555,-0.3804306459099665,0.1614378610204134,-123.84213593724544,50.04827088645171,-23.015443848374385
2.32,-2.88,-8.35,0.060321005129765,-0.6731352289901684,0.6993699263538318,-123.96398525409832,49.88392440352733,-23.08561363949995
2.32,-2.88,-8.35,0.060321005129765,-0.6731352289901684,0.6993699263538318,-123.96398525409832,49.88392440352733,-23.08561363949995
3.51,-2.31,-9.34,-0.1114945935424122,0.4600106456118474,-0.424076228451943,-123.8908464883956,49.79547555361781,-23.43659483600268
3.51,-2.31,-9.34,-0.1114945935424122,0.4600106456118474,-0.424076228451943,-123.8908464883956,49.79547555361781,-23.43659483600268
2.73,-2.88,-9.16,-0.0692963735426981,-0.5358730476219835,-0.1613456906815624,-124.40467458524144,49.20242077437143,-23.518522416981742
2.73,-2.88,-9.16,-0.0692963735426981,-0.5358730476219835,-0.1613456906815624,-124.40467458524144,49.20242077437143,-23.518522416981742
3.36,-2.56,-8.64,0.2572867381252489,0.1864560143784575,0.1945827047150281,-124.33100356461244,49.24023317275956,-23.600462193143148
3.36,-2.56,-8.64,0.2572867381252489,0.1864560143784575,0.1945827047150281,-124.33100356461244,49.24023317275956,-23.600462193143148
3.9,-2.24,-9.28,0.0650640305479672,0.6974608235150601,-0.4819512203598659,-124.28193934639008,49.24023317275956,-23.78779915841677
3.9,-2.24,-9.28,0.0650640305479672,0.6974608235150601,-0.4819512203598659,-124.28193934639008,49.24023317275956,-23.78779915841677
3.06,-2.31,-9.19,-0.3100581953331058,-0.0136845608236442,-0.1462127363337977,-124.70026179828332,48.81202590600522,-23.78779915841677
3.06,-2.31,-9.19,-0.3100581953331058,-0.0136845608236442,-0.1462127363337977,-124.70026179828332,48.81202590600522,-23.78779915841677
1.71,-2.59,-7.97,-0.3436668154097342,-1.142822574001476,1.3373554789469753,-125.52074054609028,48.09577032776433,-23.49511329436541
1.71,-2.59,-7.97,-0.3436668154097342,-1.142822574001476,1.3373554789469753,-125.52074054609028,48.09577032776433,-23.49511329436541
3.26,-2.26,-9.23,-0.180525013396194,0.0066472677389703,-0.2380235404078643,-125.696251455902,47.80732155074712,-23.79950985538602
3.26,-2.26,-9.23,-0.180525013396194,0.0066472677389703,-0.2380235404078643,-125.696251455902,47.80732155074712,-23.79950985538602
3.35,-2.08,-9.06,-0.1837074647514785,0.1219267812695017,-0.0718056195492362,-126.17530318519164,47.2313854664036,-23.98691540045918
3.35,-2.08,-9.06,-0.1837074647514785,0.1219267812695017,-0.0718056195492362,-126.17530318519164,47.2313854664036,-23.98691540045918
3.17,-2.31,-9.39,-0.2314384204572009,-0.2784916968173452,-0.3632063722571885,-126.81171301116376,46.55689626255423,-23.98691540045918
3.17,-2.31,-9.39,-0.2314384204572009,-0.2784916968173452,-0.3632063722571885,-126.81171301116376,46.55689626255423,-23.98691540045918
3.35,-3.11,-7.97,0.9670802104766524,-0.6208270221111778,0.6910134520061622,-127.3259688536123,45.821900740364754,-24.24470448957822
3.35,-3.11,-7.97,0.9670802104766524,-0.6208270221111778,0.6910134520061622,-127.3259688536123,45.821900740364754,-24.24470448957822
5.77,-1.5,-9.66,0.6458539856410856,1.9710012528019685,-1.3538395363368636,-127.09397976921672,46.02102324962843,-24.42054113976365
5.77,-1.5,-9.66,0.6458539856410856,1.9710012528019685,-1.3538395363368636,-127.09397976921672,46.02102324962843,-24.42054113976365
4.23,-1.42,-9.04,0.0031174315623186,0.9650336628567842,-0.2282690485610619,-127.6108060653337,45.70995860569551,-24.02206117401117
4.23,-1.42,-9.04,0.0031174315623186,0.9650336628567842,-0.2282690485610619,-127.6108060653337,45.70995860569551,-24.02206117401117
4.49,-1.31,-9.14,0.0545574640078902,1.2431578302173212,-0.3848848251522145,-127.58485235552216,45.80946044511175,-23.91663071897709
4.49,-1.31,-9.14,0.0545574640078902,1.2431578302173212,-0.3848848251522145,-127.58485235552216,45.80946044511175,-23.91663071897709
4.45,-1.84,-9.53,0.2462452947057228,0.8533749154602385,-0.8338440913708762,-127.7407542896587,45.685088838323495,-23.78779915841677
4.45,-1.84,-9.53,0.2462452947057228,0.8533749154602385,-0.8338440913708762,-127.7407542896587,45.685088838323495,-23.78779915841677
2.75,-2.16,-8.39,-0.0726525341482511,-0.3975734038633232,0.7260741923861271,-127.97542141388575,45.66022134435174,-23.30787601995589
2.75,-2.16,-8.39,-0.0726525341482511,-0.3975734038633232,0.7260741923861271,-127.97542141388575,45.66022134435174,-23.30787601995589
3.95,-2.14,-9.26,0.3131718401098504,0.4346103635938264,-0.4716152831311504,-127.7407542896587,45.971228872033386,-23.21428107252436
3.95,-2.14,-9.26,0.3131718401098504,0.4346103635938264,-0.4716152831311504,-127.7407542896587,45.971228872033386,-23.21428107252436
3.16,-1.99,-8.94,-0.1334861382021693,0.0480306182977697,0.1190716384788004,-127.7407542896587,46.03347327955085,-23.015443848374385
3.16,-1.99,-8.94,-0.1334861382021693,0.0480306182977697,0.1190716384788004,-127.7407542896587,46.03347327955085,-23.015443848374385
2.49,-2.16,-8.52,-0.2750935953633205,-0.44382568112244,0.6861542745163067,-127.7407542896587,46.08327914813054,-22.898513619526447
2.49,-2.16,-8.52,-0.2750935953633205,-0.44382568112244,0.6861542745163067,-127.7407542896587,46.08327914813054,-22.898513619526447
3.45,-2.85,-8.97,0.5870149729544717,-0.2520413663753449,-0.1972386724694654,-127.58485235552216,46.18291852714496,-23.015443848374385
3.45,-2.85,-8.97,0.5870149729544717,-0.2520413663753449,-0.1972386724694654,-127.58485235552216,46.18291852714496,-23.015443848374385
2.96,-1.74,-8.57,-0.3154084692280849,0.201341474328887,0.5820047977033678,-126.9655039569828,46.88143541316104,-22.96866884885643
2.96,-1.74,-8.57,-0.3154084692280849,0.201341474328887,0.5820047977033678,-126.9655039569828,46.88143541316104,-22.96866884885643
3.96,-1.23,-9.6,-0.4771931057828969,1.1856561543018025,-0.5722230709822025,-126.47990511760632,47.39402100857085,-22.98036223475966
3.96,-1.23,-9.6,-0.4771931057828969,1.1856561543018025,-0.5722230709822025,-126.47990511760632,47.39402100857085,-22.98036223475966
3.25,-2.85,-9.1,0.4028710814133175,-0.3496476547183447,-0.253690024537482,-126.86293079671192,46.93139982661226,-23.00374973438176
3.25,-2.85,-9.1,0.4028710814133175,-0.3496476547183447,-0.253690024537482,-126.86293079671192,46.93139982661226,-23.00374973438176
3.06,-2.28,-8.88,-0.0064264472492679,-0.0607628962522346,0.1416271561979876,-126.93984342653314,46.93139982661226,-22.86343926833653
3.06,-2.28,-8.88,-0.0064264472492679,-0.0607628962522346,0.1416271561979876,-126.93984342653314,46.93139982661226,-22.86343926833653
3.63,-2.5,-9.53,0.2263213564547416,0.1686216962894697,-0.6894514365883939,-126.88855686312144,46.94389240735087,-22.88682192770989
3.63,-2.5,-9.53,0.2263213564547416,0.1686216962894697,-0.6894514365883939,-126.88855686312144,46.94389240735087,-22.88682192770989
3.05,-2.42,-8.83,0.1419550021614225,-0.0979904753384279,0.1579170964471039,-126.9655039569828,47.04385436374432,-22.51281453874211
3.05,-2.42,-8.83,0.1419550021614225,-0.0979904753384279,0.1579170964471039,-126.9655039569828,47.04385436374432,-22.51281453874211
2.84,-1.91,-8.68,-0.2691494224079705,0.1310131646741101,0.4810672225485284,-126.99117600895984,47.09384957314965,-22.372624603038307
2.84,-1.91,-8.68,-0.2691494224079705,0.1310131646741101,0.4810672225485284,-126.99117600895984,47.09384957314965,-22.372624603038307
3.34,-3.05,-9.16,0.6015601552479946,-0.2971697719082,-0.3871478941257233,-126.93984342653314,47.03135704516996,-22.55955209306089
3.34,-3.05,-9.16,0.6015601552479946,-0.2971697719082,-0.3871478941257233,-126.93984342653314,47.03135704516996,-22.55955209306089
2.81,-2.36,-8.78,-0.0116961470932828,-0.1847298470605354,0.2924585953798377,-126.99117600895984,47.09384957314965,-22.325902171258928
2.81,-2.36,-8.78,-0.0116961470932828,-0.1847298470605354,0.2924585953798377,-126.99117600895984,47.09384957314965,-22.325902171258928
2.74,-2.34,-8.82,-0.0482358120227154,-0.2494849148083635,0.2824161419029831,-127.01685959928788,47.15635695640368,-22.197434839762675
2.74,-2.34,-8.82,-0.0482358120227154,-0.2494849148083635,0.2824161419029831,-127.01685959928788,47.15635695640368,-22.197434839762675
3.58,-2.11,-9.43,0.0429303457136029,0.4706044914300986,-0.4875274026904535,-126.81171301116376,47.30643546064212,-22.337582426465424
3.58,-2.11,-9.43,0.0429303457136029,0.4706044914300986,-0.4875274026904535,-126.81171301116376,47.30643546064212,-22.337582426465424
3.08,-2.37,-9.08,0.0793454905370091,-0.0072718725369551,-0.0697537692371259,-126.93984342653314,47.26890777482772,-22.127373666986447
3.08,-2.37,-9.08,0.0793454905370091,-0.0072718725369551,-0.0697537692371259,-126.93984342653314,47.26890777482772,-22.127373666986447
3.13,-1.87,-9.07,-0.230812252358367,0.3641579403495773,0.0407493913187071,-126.88855686312144,47.343968530185975,-22.104021805228783
3.13,-1.87,-9.07,-0.230812252358367,0.3641579403495773,0.0407493913187071,-126.88855686312144,47.343968530185975,-22.104021805228783
3.42,-2.04,-9.1,0.0312065194911584,0.4481674997771572,-0.1163622465552141,-126.81171301116376,47.35648075084825,-22.24414695534977
3.42,-2.04,-9.1,0.0312065194911584,0.4481674997771572,-0.1163622465552141,-126.81171301116376,47.35648075084825,-22.24414695534977
3.0,-2.92,-9.0,0.4104392452298867,-0.4454022551263144,-0.1009004771413373,-126.86293079671192,47.2313854664036,-22.349262916740443
3.0,-2.92,-9.0,0.4104392452298867,-0.4454022551263144,-0.1009004771413373,-126.86293079671192,47.2313854664036,-22.349262916740443
3.22,-1.7,-9.07,-0.3096252533308008,0.5162529245439998,0.0516043763035334,-126.76054091134182,47.40653562717492,-22.24414695534977
3.22,-1.7,-9.07,-0.3096252533308008,0.5162529245439998,0.0516043763035334,-126.76054091134182,47.40653562717492,-22.24414695534977
3.23,-2.3,-9.11,0.089620273551858,0.12113110806204,-0.1277496024534929,-126.76054091134182,47.39402100857085,-22.30254236550936
3.23,-2.3,-9.11,0.089620273551858,0.12113110806204,-0.1277496024534929,-126.76054091134182,47.39402100857085,-22.30254236550936
3.38,-2.01,-9.16,-0.0531568637847005,0.4114305700174199,-0.1531692370086599,-126.6838681332996,47.431566664841,-22.38430579933233
3.38,-2.01,-9.16,-0.0531568637847005,0.4114305700174199,-0.1531692370086599,-126.6838681332996,47.431566664841,-22.38430579933233
2.8,-2.38,-8.71,0.0377036879413333,-0.2166101754574028,0.3557157359283263,-126.81171301116376,47.33145690842096,-22.30254236550936
2.8,-2.38,-8.71,0.0377036879413333,-0.2166101754574028,0.3557157359283263,-126.81171301116376,47.33145690842096,-22.30254236550936
2.88,-2.54,-9.02,0.0738120007986413,-0.2660616105451119,0.007151900202631,-126.78612125881504,47.35648075084825,-22.279183498407725
2.88,-2.54,-9.02,0.0738120007986413,-0.2660616105451119,0.007151900202631,-126.78612125881504,47.35648075084825,-22.279183498407725
3.32,-2.07,-9.2,-0.0681194040365736,0.3504700016939521,-0.184337464945914,-126.6838681332996,47.40653562717492,-22.349262916740443
3.32,-2.07,-9.2,-0.0681194040365736,0.3504700016939521,-0.184337464945914,-126.6838681332996,47.40653562717492,-22.349262916740443
2.69,-2.76,-8.83,0.1874524535312488,-0.5388439530928721,0.1891082781315489,-126.88855686312144,47.24389230544818,-22.25582556887037
2.69,-2.76,-8.83,0.1874524535312488,-0.5388439530928721,0.1891082781315489,-126.88855686312144,47.24389230544818,-22.25582556887037
3.23,-2.2,-9.25,-0.02175361185263,0.1890694357030962,-0.2332294578846543,-126.83731618493428,47.33145690842096,-22.2091125181558
3.23,-2.2,-9.25,-0.02175361185263,0.1890694357030962,-0.2332294578846543,-126.83731618493428,47.33145690842096,-22.2091125181558
2.78,-2.65,-9.6,-0.082804961901873,-0.4853047080183557,-0.5213954432898227,-127.01685959928788,47.2313854664036,-22.09234622296079
2.78,-2.65,-9.6,-0.082804961901873,-0.4853047080183557,-0.5213954432898227,-127.01685959928788,47.2313854664036,-22.09234622296079
2.49,-2.4,-8.81,-0.0605572727129004,-0.4472996973879154,0.3529493596455442,-127.42938014555916,47.01886031964005,-21.602179804976902
2.49,-2.4,-8.81,-0.0605572727129004,-0.4472996973879154,0.3529493596455442,-127.42938014555916,47.01886031964005,-21.602179804976902
2.46,-2.48,-9.05,-0.1002279415068609,-0.5283085944336792,0.1208178525390089,-127.68873899317936,46.781534903600594,-21.48553279702964
2.46,-2.48,-9.05,-0.1002279415068609,-0.5283085944336792,0.1208178525390089,-127.68873899317936,46.781534903600594,-21.48553279702964
2.18,-2.17,-9.18,-0.4955160846613603,-0.5507074607633347,0.1534181524526978,-128.44773606463812,46.10818553492847,-21.263965423591053
2.18,-2.17,-9.18,-0.4955160846613603,-0.5507074607633347,0.1534181524526978,-128.44773606463812,46.10818553492847,-21.263965423591053
0.88,-3.72,-8.33,0.0884608428619296,-2.49901015822596,0.9891207027215608,-129.75442065073912,44.90284557373644,-20.774468878532232
0.88,-3.72,-8.33,0.0884608428619296,-2.49901015822596,0.9891207027215608,-129.75442065073912,44.90284557373644,-20.774468878532232
-0.34,-4.64,-6.45,0.5424525548849497,-4.021498343194235,2.9669865359555287,-131.76235907719015,42.95058853731749,-20.506574164810864
-0.34,-4.64,-6.45,0.5424525548849497,-4.021498343194235,2.9669865359555287,-131.76235907719015,42.95058853731749,-20.506574164810864
1.63,-2.15,-8.8,-0.5966382371860803,-1.3707781882345815,0.7245582820867842,-132.15647345628565,42.26181180963939,-21.298944377524897
1.63,-2.15,-8.8,-0.5966382371860803,-1.3707781882345815,0.7245582820867842,-132.15647345628565,42.26181180963939,-21.298944377524897
1.2,-1.42,-8.74,-1.3162963759759965,-1.6081553363282328,1.1161264102022326,-133.2997533527462,40.52234562197142,-22.22079043012782
1.2,-1.42,-8.74,-1.3162963759759965,-1.6081553363282328,1.1161264102022326,-133.2997533527462,40.52234562197142,-22.22079043012782
0.33,-3.45,-7.9,-0.3640354146225617,-3.816345309443608,2.078494547630505,-135.63926552609755,37.87057079932817,-22.139049946746336
0.33,-3.45,-7.9,-0.3640354146225617,-3.816345309443608,2.078494547630505,-135.63926552609755,37.87057079932817,-22.139049946746336
-0.6,-3.26,-5.24,-0.3048644214557901,-3.9459541262326367,5.033631697269737,-138.03825139668672,35.119475421316324,-21.858883165817787
-0.6,-3.26,-5.24,-0.3048644214557901,-3.9459541262326367,5.033631697269737,-138.03825139668672,35.119475421316324,-21.858883165817787
2.29,-0.56,-5.73,0.1688340495918849,-0.5766819579503952,3.639841021032602,-137.91042216197232,34.32706780881908,-22.44271531767953
2.29,-0.56,-5.73,0.1688340495918849,-0.5766819579503952,3.639841021032602,-137.91042216197232,34.32706780881908,-22.44271531767953
3.57,0.68,-5.85,0.5083331967091733,0.3694997909840337,2.948452914352332,-137.655868969081,32.28174931703743,-23.272776070440536
3.57,0.68,-5.85,0.5083331967091733,0.3694997909840337,2.948452914352332,-137.655868969081,32.28174931703743,-23.272776070440536
1.47,-0.36,-3.71,0.1922276729599625,-1.0741142293207289,5.951273605389594,-137.87852272532075,29.701259829199124,-23.79950985538602
1.47,-0.36,-3.71,0.1922276729599625,-1.0741142293207289,5.951273605389594,-137.87852272532075,29.701259829199124,-23.79950985538602
5.81,5.21,-4.02,0.4483278731854271,3.9903838981628166,2.000470495055989,-133.99857662596108,25.00708778933191,-28.824858813433643
5.81,5.21,-4.02,0.4483278731854271,3.9903838981628166,2.000470495055989,-133.99857662596108,25.00708778933191,-28.824858813433643
7.98,8.63,-5.01,-0.4981729678817109,4.355674822974342,-2.1949049213666267,-124.47843555677235,21.71884947041321,-34.57901199780452
7.98,8.63,-5.01,-0.4981729678817109,4.355674822974342,-2.1949049213666267,-124.47843555677235,21.71884947041321,-34.57901199780452
11.55,7.24,-8.37,0.8622753085750613,0.4203880234495649,-6.160715318109372,-120.15478718177204,20.611388956075047,-37.846342205002045
11.55,7.24,-8.37,0.8622753085750613,0.4203880234495649,-6.160715318109372,-120.15478718177204,20.611388956075047,-37.846342205002045
8.66,10.58,-4.5,-0.8047925967435661,4.504390734321015,-3.8405025597389617,-118.88063215220504,22.05732086897936,-33.727885940809074
8.66,10.58,-4.5,-0.8047925967435661,4.504390734321015,-3.8405025597389617,-118.88063215220504,22.05732086897936,-33.727885940809074
7.07,9.67,-2.99,-0.8997567992402431,4.796480241460103,-1.5343426812208012,-118.58826863083308,23.83464346005029,-31.292831778140112
7.07,9.67,-2.99,-0.8997567992402431,4.796480241460103,-1.5343426812208012,-118.58826863083308,23.83464346005029,-31.292831778140112
10.03,6.61,-6.54,0.8331029158299379,-0.0746320945532952,-3.84490557371021,-114.57650555012708,23.366380865675165,-37.04777503969204
10.03,6.61,-6.54,0.8331029158299379,-0.0746320945532952,-3.84490557371021,-114.57650555012708,23.366380865675165,-37.04777503969204
10.32,6.59,-7.89,-0.1559620699682452,-1.9273625852323728,-4.630924217914091,-110.81284195033062,23.00374973438176,-40.31476039756773
10.32,6.59,-7.89,-0.1559620699682452,-1.9273625852323728,-4.630924217914091,-110.81284195033062,23.00374973438176,-40.31476039756773
8.22,6.66,-1.68,0.7299884474399716,2.989404366660892,-0.4538070268186871,-109.889785903268,24.31503217113493,-40.15611188549902
8.22,6.66,-1.68,0.7299884474399716,2.989404366660892,-0.4538070268186871,-109.889785903268,24.31503217113493,-40.15611188549902
8.88,8.08,-4.47,-1.2347365505442764,1.3348180437508217,-2.874650660453849,-107.56890139317557,25.98223545272544,-41.26836056402613
8.88,8.08,-4.47,-1.2347365505442764,1.3348180437508217,-2.874650660453849,-107.56890139317557,25.98223545272544,-41.26836056402613
8.5,4.26,-3.93,1.038389703753368,-0.5766708787622281,-0.4125328205941496,-106.5088462839978,25.10099664997855,-42.93827474491775
8.5,4.26,-3.93,1.038389703753368,-0.5766708787622281,-0.4125328205941496,-106.5088462839978,25.10099664997855,-42.93827474491775
9.26,5.37,-3.88,0.5187969951656062,-0.2775927311413673,-1.5640444358480003,-104.25895173526337,24.924931536010146,-44.71692355018706
9.26,5.37,-3.88,0.5187969951656062,-0.2775927311413673,-1.5640444358480003,-104.25895173526337,24.924931536010146,-44.71692355018706
9.8,7.18,-4.56,-0.6793713802662835,-0.0858501407116549,-3.1516324587603,-103.23811172650564,25.31235434951457,-44.69214333160206
9.8,7.18,-4.56,-0.6793713802662835,-0.0858501407116549,-3.1516324587603,-103.23811172650564,25.31235434951457,-44.69214333160206
5.11,3.09,1.95,1.930607326401577,3.0772666285058987,4.681624590469963,-102.46623177403808,22.898513619526447,-46.55689626255423
5.11,3.09,1.95,1.930607326401577,3.0772666285058987,4.681624590469963,-102.46623177403808,22.898513619526447,-46.55689626255423
13.3,8.45,1.42,2.5700919073949176,3.827179391742078,-5.327953578917019,-97.84125321339737,21.054133663315955,-50.45328632935345
13.3,8.45,1.42,2.5700919073949176,3.827179391742078,-5.327953578917019,-97.84125321339737,21.054133663315955,-50.45328632935345
9.89,7.02,-2.62,-0.2362978681889544,0.3479360387386996,-2.594156579833271,-99.06954993305422,21.33392533931821,-49.934480858485706
9.89,7.02,-2.62,-0.2362978681889544,0.3479360387386996,-2.594156579833271,-99.06954993305422,21.33392533931821,-49.934480858485706
4.82,2.19,-2.04,0.4569580592156177,-1.0408941327374974,4.248068460025025,-100.70777770605255,20.436707276203283,-49.07642066173354
4.82,2.19,-2.04,0.4569580592156177,-1.0408941327374974,4.248068460025025,-100.70777770605255,20.436707276203283,-49.07642066173354
7.62,6.75,-2.13,-1.1830617764258162,0.8148726055253861,-0.4938425838488154,-98.64669547249989,21.590514086807826,-50.06091747705543
7.62,6.75,-2.13,-1.1830617764258162,0.8148726055253861,-0.4938425838488154,-98.64669547249989,21.590514086807826,-50.06091747705543
8.94,2.19,-2.3,2.4568091179903826,-1.7287737592091184,0.8074761352927915,-98.50614716044564,22.01062364188303,-50.541973215859535
8.94,2.19,-2.3,2.4568091179903826,-1.7287737592091184,0.8074761352927915,-98.50614716044564,22.01062364188303,-50.541973215859535
8.51,6.36,-2.05,-0.5775808057880328,0.5251165985458814,-0.9851456323642864,-97.44096021432264,22.82836708787642,-50.3899583498149
8.51,6.36,-2.05,-0.5775808057880328,0.5251165985458814,-0.9851456323642864,-97.44096021432264,22.82836708787642,-50.3899583498149
7.43,6.52,-1.68,-1.2116275782560673,1.0128582832649973,-0.0950557474775912,-96.99036426880296,23.272776070440536,-50.630692516856975
7.43,6.52,-1.68,-1.2116275782560673,1.0128582832649973,-0.0950557474775912,-96.99036426880296,23.272776070440536,-50.630692516856975
8.49,5.66,-1.68,-0.0465784542830419,0.5730488127408209,-0.5184430022839486,-97.37150665847632,23.08561363949995,-50.9605066250118
8.49,5.66,-1.68,-0.0465784542830419,0.5730488127408209,-0.5184430022839486,-97.37150665847632,23.08561363949995,-50.9605066250118
9.36,5.98,-2.34,0.0231597411950814,0.0291753556777449,-1.544306454194018,-97.597406347569,22.62966555670664,-50.55464541508696
9.36,5.98,-2.34,0.0231597411950814,0.0291753556777449,-1.544306454194018,-97.597406347569,22.62966555670664,-50.55464541508696
10.37,7.64,-1.89,-0.0378172196161077,0.9231417155941548,-3.178918113518576,-97.7540968309242,21.71884947041321,-49.492462296741046
10.37,7.64,-1.89,-0.0378172196161077,0.9231417155941548,-3.178918113518576,-97.7540968309242,21.71884947041321,-49.492462296741046
12.53,10.09,-3.1,-0.2970199273052658,0.7614856964901379,-6.556446244196102,-99.14020348928253,20.448351223683986,-47.49415477267991
12.53,10.09,-3.1,-0.2970199273052658,0.7614856964901379,-6.556446244196102,-99.14020348928253,20.448351223683986,-47.49415477267991
9.24,9.48,-2.37,-0.8609321839975449,1.538480839504508,-3.5258956114365017,-101.30231586461944,18.855062255560348,-44.977249267006
9.24,9.48,-2.37,-0.8609321839975449,1.538480839504508,-3.5258956114365017,-101.30231586461944,18.855062255560348,-44.977249267006
8.21,8.7,-2.84,-0.443357665189753,0.945464693572224,-2.443624710957545,-103.9421788631584,16.605072138436235,-42.12670509670736
8.21,8.7,-2.84,-0.443357665189753,0.945464693572224,-2.443624710957545,-103.9421788631584,16.605072138436235,-42.12670509670736
8.02,9.09,-2.62,-0.2353537650381322,1.4745253188217906,-2.505266328883817,-105.70811662886264,15.447852474357363,-40.43685258518578
8.02,9.09,-2.62,-0.2353537650381322,1.4745253188217906,-2.505266328883817,-105.70811662886264,15.447852474357363,-40.43685258518578
7.78,9.03,-2.13,0.3729535584749505,2.3060656621576734,-2.0739714822726416,-108.9180458077566,14.153639819523336,-38.598252513901095
7.78,9.03,-2.13,0.3729535584749505,2.3060656621576734,-2.0739714822726416,-108.9180458077566,14.153639819523336,-38.598252513901095
8.09,9.08,-2.9,0.823521685301958,2.2311157236701606,-2.4672424005968576,-112.73350926918675,12.803582439206052,-36.79407807568971
8.09,9.08,-2.9,0.823521685301958,2.2311157236701606,-2.4672424005968576,-112.73350926918675,12.803582439206052,-36.79407807568971
7.65,8.77,-3.05,0.995549104289813,2.398593741153371,-1.9404147417066573,-115.70907375985723,11.950632395319571,-35.17957649356332
7.65,8.77,-3.05,0.995549104289813,2.398593741153371,-1.9404147417066573,-115.70907375985723,11.950632395319571,-35.17957649356332
6.32,7.28,-3.04,1.1515692555232953,2.144348950903764,-0.0044689895185463,-120.2467396055226,10.833574298853826,-32.460730842800366
6.32,7.28,-3.04,1.1515692555232953,2.144348950903764,-0.0044689895185463,-120.2467396055226,10.833574298853826,-32.460730842800366
5.42,7.05,-3.21,0.8387390801401131,2.270598507320845,0.667508947691088,-123.52645816564733,9.80955486143351,-30.413159765182687
5.42,7.05,-3.21,0.8387390801401131,2.270598507320845,0.667508947691088,-123.52645816564733,9.80955486143351,-30.413159765182687
5.2,5.69,-4.34,1.1590272017711516,1.0828906684316535,1.1040237443356684,-128.47409395200597,8.510515201802361,-27.832105272694303
5.2,5.69,-4.34,1.1590272017711516,1.0828906684316535,1.1040237443356684,-128.47409395200597,8.510515201802361,-27.832105272694303
3.46,4.22,-4.33,0.4080159457178596,0.3811018233865302,2.862790526461424,-132.24132459051677,7.063311874799694,-25.700071520307283
3.46,4.22,-4.33,0.4080159457178596,0.3811018233865302,2.862790526461424,-132.24132459051677,7.063311874799694,-25.700071520307283
3.33,3.68,-5.36,0.3752894210738498,-0.206554717659716,2.5143668870755853,-137.088392741319,5.364844561963229,-23.600462193143148
3.33,3.68,-5.36,0.3752894210738498,-0.206554717659716,2.5143668870755853,-137.088392741319,5.364844561963229,-23.600462193143148
2.85,2.77,-6.18,0.0310360832046384,-1.018514055944558,2.530011636072416,-140.67807487589178,4.378462866761455,-22.174080183171977
2.85,2.77,-6.18,0.0310360832046384,-1.018514055944558,2.530011636072416,-140.67807487589178,4.378462866761455,-22.174080183171977
2.94,3.37,-6.65,0.1821450513674132,-0.2936012275178226,1.800176275602821,-145.06982302382067,2.452446574526375,-20.157316215575328
2.94,3.37,-6.65,0.1821450513674132,-0.2936012275178226,1.800176275602821,-145.06982302382067,2.452446574526375,-20.157316215575328
1.59,1.65,-6.77,-0.7345693282575212,-1.4440425303167026,2.845425318047848,-148.4345315385202,1.5928739664684124,-18.72729753587516
1.59,1.65,-6.77,-0.7345693282575212,-1.4440425303167026,2.845425318047848,-148.4345315385202,1.5928739664684124,-18.72729753587516
2.67,2.22,-7.48,0.206729454842937,-0.8733101255912198,1.6089495689620232,-151.67233263341282,0.0572957819004067,-17.520477052231193
2.67,2.22,-7.48,0.206729454842937,-0.8733101255912198,1.6089495689620232,-151.67233263341282,0.0572957819004067,-17.520477052231193
1.39,3.02,-6.49,-0.5472938680396747,0.7073852961846678,2.5697531881926152,-155.05511767406654,-0.9282017781870658,-16.095692494623034
1.39,3.02,-6.49,-0.5472938680396747,0.7073852961846678,2.5697531881926152,-155.05511767406654,-0.9282017781870658,-16.095692494623034
0.44,1.59,-7.53,-1.5733240466453795,-0.5706267868432641,2.2819150203223515,-157.6264722380801,-1.5355728478655368,-15.18192036535379
0.44,1.59,-7.53,-1.5733240466453795,-0.5706267868432641,2.2819150203223515,-157.6264722380801,-1.5355728478655368,-15.18192036535379
2.31,1.55,-8.13,0.1670604365432487,-0.5407642134255924,1.232551512344278,-159.66766312617878,-2.704611892754087,-14.673408500442047
2.31,1.55,-8.13,0.1670604365432487,-0.5407642134255924,1.232551512344278,-159.66766312617878,-2.704611892754087,-14.673408500442047
1.45,1.25,-7.94,-0.4993614002066703,-0.4054537724116652,1.6644853350954172,-161.64573705685663,-3.140201723904295,-13.911181889055529
1.45,1.25,-7.94,-0.4993614002066703,-0.4054537724116652,1.6644853350954172,-161.64573705685663,-3.140201723904295,-13.911181889055529
2.77,0.0,-9.15,0.5701118352540661,-1.4574223444512064,0.3755157837353611,-164.02631287450075,-3.4267983429423063,-13.195714475135588
2.77,0.0,-9.15,0.5701118352540661,-1.4574223444512064,0.3755157837353611,-164.02631287450075,-3.4267983429423063,-13.195714475135588
2.65,-0.81,-9.57,0.2398061888956495,-2.1755676211220267,0.0869330021809382,-163.86220596785728,-5.0436569106979485,-13.426452603767608
2.65,-0.81,-9.57,0.2398061888956495,-2.1755676211220267,0.0869330021809382,-163.86220596785728,-5.0436569106979485,-13.426452603767608
1.53,-1.17,-9.67,-0.9107983316705276,-2.1372373663463,0.2243035838595748,-164.35965769726891,-5.605762844556931,-13.461068017168213
1.53,-1.17,-9.67,-0.9107983316705276,-2.1372373663463,0.2243035838595748,-164.35965769726891,-5.605762844556931,-13.461068017168213
4.77,-2.59,-11.04,1.7776228575360196,-3.6006857124799034,-1.8216654143800424,-164.96066657615674,-5.318958088351593,-13.576461659580188
4.77,-2.59,-11.04,1.7776228575360196,-3.6006857124799034,-1.8216654143800424,-164.96066657615674,-5.318958088351593,-13.576461659580188
3.37,-3.1,-10.74,0.3059798799726437,-3.913137395252567,-1.1891779378556997,-164.19211217641143,-7.22405231414402,-13.703410648771609
3.37,-3.1,-10.74,0.3059798799726437,-3.913137395252567,-1.1891779378556997,-164.19211217641143,-7.22405231414402,-13.703410648771609
2.92,-0.44,-9.57,0.449746631774981,-1.2240796107202585,-0.1233176270280971,-163.94405112777469,-7.442222882076424,-13.772662665221276
2.92,-0.44,-9.57,0.449746631774981,-1.2240796107202585,-0.1233176270280971,-163.94405112777469,-7.442222882076424,-13.772662665221276
2.89,2.04,-9.4,0.7266113191579454,1.1130412033527817,-0.1485936067888644,-163.69974033883318,-7.430739554030821,-13.922726077012074
2.89,2.04,-9.4,0.7266113191579454,1.1130412033527817,-0.1485936067888644,-163.69974033883318,-7.430739554030821,-13.922726077012074
2.33,1.37,-9.41,0.1023442651381227,0.4632684078272401,0.027651685566024,-163.53886738912243,-7.568544455864769,-13.922726077012074
2.33,1.37,-9.41,0.1023442651381227,0.4632684078272401,0.027651685566024,-163.53886738912243,-7.568544455864769,-13.922726077012074
2.82,0.67,-9.57,0.4183093893061185,-0.3794487933423801,-0.1766979288287533,-163.22171672296716,-7.614481849246592,-14.072813487232237
2.82,0.67,-9.57,0.4183093893061185,-0.3794487933423801,-0.1766979288287533,-163.22171672296716,-7.614481849246592,-14.072813487232237
3.74,0.61,-9.9,1.2199501063685094,-0.5354192860803203,-0.7097537544240744,-163.69974033883318,-6.718914520918895,-14.061267443693245
3.74,0.61,-9.9,1.2199501063685094,-0.5354192860803203,-0.7097537544240744,-163.69974033883318,-6.718914520918895,-14.061267443693245
2.8,0.76,-10.05,0.3276994940046705,-0.2798730773175004,-0.6448754437915394,-164.02631287450075,-6.259812004164343,-13.865006554805133
2.8,0.76,-10.05,0.3276994940046705,-0.2798730773175004,-0.6448754437915394,-164.02631287450075,-6.259812004164343,-13.865006554805133
2.05,-0.29,-9.57,-0.3272754674135287,-1.2260872892293055,0.0978343808001156,-164.35965769726891,-5.777862453568277,-13.576461659580188
2.05,-0.29,-9.57,-0.3272754674135287,-1.2260872892293055,0.0978343808001156,-164.35965769726891,-5.777862453568277,-13.576461659580188
3.29,-0.12,-9.38,1.0266169250331574,-1.062197471437268,-0.0239498912023563,-165.49550626988113,-3.495584654482353,-13.207250097467805
3.29,-0.12,-9.38,1.0266169250331574,-1.062197471437268,-0.0239498912023563,-165.49550626988113,-3.495584654482353,-13.207250097467805
2.45,-0.72,-9.4,0.3403884896057387,-1.5006562043081784,0.1882786912692271,-166.62885834304856,-0.7563097804494618,-12.561458728935325
2.45,-0.72,-9.4,0.3403884896057387,-1.5006562043081784,0.1882786912692271,-166.62885834304856,-0.7563097804494618,-12.561458728935325
2.86,0.01,-9.33,0.7993999435802491,-0.8463337632366734,0.117827631341898,-166.53078742603913,0.5271230305187238,-12.377021364647929
2.86,0.01,-9.33,0.7993999435802491,-0.8463337632366734,0.117827631341898,-166.53078742603913,0.5271230305187238,-12.377021364647929
2.51,1.77,-8.79,0.5177782479217067,0.8354341492946731,0.5475433763471891,-165.95667115359868,2.738999060214957,-12.181091916848366
2.51,1.77,-8.79,0.5177782479217067,0.8354341492946731,0.5475433763471891,-165.95667115359868,2.738999060214957,-12.181091916848366
3.18,-0.3,-9.03,1.2633200711235428,-1.1992127009275184,0.3880932477247097,-165.31507383873742,4.596353909147252,-12.204140573704526
3.18,-0.3,-9.03,1.2633200711235428,-1.1992127009275184,0.3880932477247097,-165.31507383873742,4.596353909147252,-12.204140573704526
2.55,-0.37,-8.45,0.7754815959812189,-1.4650040741643109,1.1294216777201012,-163.86220596785728,5.904077101832591,-12.411600904099071
2.55,-0.37,-8.45,0.7754815959812189,-1.4650040741643109,1.1294216777201012,-163.86220596785728,5.904077101832591,-12.411600904099071
1.82,1.73,-8.12,-0.1460855239966769,0.3613417170012279,1.3161970566504395,-162.45372607444324,6.902585349926143,-12.561458728935325
1.82,1.73,-8.12,-0.1460855239966769,0.3613417170012279,1.3161970566504395,-162.45372607444324,6.902585349926143,-12.561458728935325
1.2,3.73,-7.47,-1.0069508430165044,2.13463813263113,1.7083063395676137,-160.66576217664587,8.142851840335263,-12.976563032466052
1.2,3.73,-7.47,-1.0069508430165044,2.13463813263113,1.7083063395676137,-160.66576217664587,8.142851840335263,-12.976563032466052
3.57,1.93,-8.51,1.196791340501681,0.3755319328842556,0.4623166233120486,-159.15467994543428,9.441564242690683,-13.79574779269871
3.57,1.93,-8.51,1.196791340501681,0.3755319328842556,0.4623166233120486,-159.15467994543428,9.441564242690683,-13.79574779269871
2.52,2.0,-7.37,0.2340276114954616,0.1783828716563626,1.7704375446104947,-155.591382770185,11.38620958683243,-15.054764601110485
2.52,2.0,-7.37,0.2340276114954616,0.1783828716563626,1.7704375446104947,-155.591382770185,11.38620958683243,-15.054764601110485
2.04,4.65,-6.22,-0.8900701132774165,2.6078009208023047,2.264790179576859,-152.1444912618588,13.011162702254634,-16.894639006068054
2.04,4.65,-6.22,-0.8900701132774165,2.6078009208023047,2.264790179576859,-152.1444912618588,13.011162702254634,-16.894639006068054
4.83,0.56,-8.71,1.816533017139769,-1.586156329404388,0.1272432053492291,-150.0772121119661,13.968904250085991,-19.00608743835356
4.83,0.56,-8.71,1.816533017139769,-1.586156329404388,0.1272432053492291,-150.0772121119661,13.968904250085991,-19.00608743835356
1.31,1.88,-5.25,-0.968930106753726,-0.2715078709567338,4.167460525950136,-145.7248595525418,15.008530771963963,-20.82107094211026
1.31,1.88,-5.25,-0.968930106753726,-0.2715078709567338,4.167460525950136,-145.7248595525418,15.008530771963963,-20.82107094211026
2.06,6.4,-4.7,-2.035054762192902,3.593585031802604,2.7187519523359223,-140.67807487589178,16.51243337847321,-23.70583132960312
2.06,6.4,-4.7,-2.035054762192902,3.593585031802604,2.7187519523359223,-140.67807487589178,16.51243337847321,-23.70583132960312
4.02,2.38,-5.28,0.2652940167535719,-0.1085283659014455,2.7624296259295287,-135.1561066706563,17.682816604505923,-29.345750980318734
4.02,2.38,-5.28,0.2652940167535719,-0.1085283659014455,2.7624296259295287,-135.1561066706563,17.682816604505923,-29.345750980318734
6.04,2.72,-4.73,1.457807473774536,0.261300745062097,1.802937155948365,-130.3242488651211,17.126370676427072,-33.919519970596944
6.04,2.72,-4.73,1.457807473774536,0.261300745062097,1.802937155948365,-130.3242488651211,17.126370676427072,-33.919519970596944
6.07,2.78,-3.78,1.1227360203247276,0.3140809224600538,2.2236085915140844,-123.2364939020704,18.320928845487863,-39.71719501771099
6.07,2.78,-3.78,1.1227360203247276,0.3140809224600538,2.2236085915140844,-123.2364939020704,18.320928845487863,-39.71719501771099
8.41,2.97,-3.72,2.028203511847595,0.3418001821026149,0.3643535023229809,-118.20783138151,19.889680039418103,-43.75211129257185
8.41,2.97,-3.72,2.028203511847595,0.3418001821026149,0.3643535023229809,-118.20783138151,19.889680039418103,-43.75211129257185
7.56,0.92,-3.45,2.1890881693851325,-1.4270628466630388,1.8647431371406755,-113.00294363849156,21.34558610673021,-47.33145690842096
7.56,0.92,-3.45,2.1890881693851325,-1.4270628466630388,1.8647431371406755,-113.00294363849156,21.34558610673021,-47.33145690842096
6.61,0.95,-2.99,1.631408436856741,-1.2136850782747748,2.778124191345257,-110.22967237255024,23.06222273541725,-48.774277851992856
6.61,0.95,-2.99,1.631408436856741,-1.2136850782747748,2.778124191345257,-110.22967237255024,23.06222273541725,-48.774277851992856
9.12,4.98,-2.53,0.0840911158034469,1.6665961170718475,-0.7570182107497097,-104.57685468499146,27.89113735405041,-50.12416021166318
9.12,4.98,-2.53,0.0840911158034469,1.6665961170718475,-0.7570182107497097,-104.57685468499146,27.89113735405041,-50.12416021166318
8.29,3.75,-2.84,0.0894764165425728,0.5138118211811584,0.2892873725019172,-101.57380680599564,31.39994691440291,-49.77021027536523
8.29,3.75,-2.84,0.0894764165425728,0.5138118211811584,0.2892873725019172,-101.57380680599564,31.39994691440291,-49.77021027536523
10.29,3.3,-4.8,0.5186455100595859,-1.1921787207506072,-1.9459589330277856,-99.97425316489787,33.62013451285477,-49.07642066173354
10.29,3.3,-4.8,0.5186455100595859,-1.1921787207506072,-1.9459589330277856,-99.97425316489787,33.62013451285477,-49.07642066173354
6.11,-1.31,-2.54,3.2224369268933337,-1.9982632962346631,4.2278827480781525,-99.31706154713407,35.34791273696944,-46.50700231874489
6.11,-1.31,-2.54,3.2224369268933337,-1.9982632962346631,4.2278827480781525,-99.31706154713407,35.34791273696944,-46.50700231874489
13.0,8.96,-4.36,-2.6137054731457217,1.7669410198107056,-6.266235961524094,-95.24158590053024,40.14391148287503,-45.20058056579144
13.0,8.96,-4.36,-2.6137054731457217,1.7669410198107056,-6.266235961524094,-95.24158590053024,40.14391148287503,-45.20058056579144
6.34,1.57,-3.22,0.9164091894319216,-1.190498630224059,2.6812161739821487,-93.52158145031368,42.56910201801789,-43.25860308220909
6.34,1.57,-3.22,0.9164091894319216,-1.190498630224059,2.6812161739821487,-93.52158145031368,42.56910201801789,-43.25860308220909
7.96,2.72,0.3,1.2083659287404536,3.0102108251368724,2.039508790359993,-90.99175237676184,47.36899357064292,-39.33972504606741
7.96,2.72,0.3,1.2083659287404536,3.0102108251368724,2.039508790359993,-90.99175237676184,47.36899357064292,-39.33972504606741
10.58,9.74,-0.57,-4.490296174523986,2.8077592595877903,-3.5755257649962986,-83.30329159943979,50.12416021166318,-39.37623490539532
10.58,9.74,-0.57,-4.490296174523986,2.8077592595877903,-3.5755257649962986,-83.30329159943979,50.12416021166318,-39.37623490539532
9.15,-1.11,-3.5,4.803786433936488,-2.7396189548124923,1.6443755694530946,-78.32175344327142,46.369842053756535,-42.852092757216354
9.15,-1.11,-3.5,4.803786433936488,-2.7396189548124923,1.6443755694530946,-78.32175344327142,46.369842053756535,-42.852092757216354
11.39,2.91,4.26,1.6464090817452144,4.92633180173888,-1.5673726883334034,-72.42759839996175,49.21502427217554,-41.03580078188174
11.39,2.91,4.26,1.6464090817452144,4.92633180173888,-1.5673726883334034,-72.42759839996175,49.21502427217554,-41.03580078188174
13.12,12.98,2.45,-6.613319415377039,0.1740790742754088,-7.595964826114399,-65.02722926644273,50.541973215859535,-38.999166163078655
13.12,12.98,2.45,-6.613319415377039,0.1740790742754088,-7.595964826114399,-65.02722926644273,50.541973215859535,-38.999166163078655
11.91,5.62,1.12,0.0847603842627098,-0.5091945377823741,-3.4001829511640387,-62.101886205747824,49.02603833164671,-38.44045190034536
11.91,5.62,1.12,0.0847603842627098,-0.5091945377823741,-3.4001829511640387,-62.101886205747824,49.02603833164671,-38.44045190034536
9.97,3.34,0.81,1.6998633040265116,-0.8520744234922208,-0.5662490125448763,-56.22443872055198,49.441996043237744,-34.75907767623433
9.97,3.34,0.81,1.6998633040265116,-0.8520744234922208,-0.5662490125448763,-56.22443872055198,49.441996043237744,-34.75907767623433
9.35,3.66,3.02,0.0632027434994892,0.658351846145665,-0.657626289351823,-49.39154002007115,54.07840095968836,-29.843545089972302
9.35,3.66,3.02,0.0632027434994892,0.658351846145665,-0.657626289351823,-49.39154002007115,54.07840095968836,-29.843545089972302
10.14,5.65,5.87,-3.2865741936437374,1.5499466507944295,-2.683149656094012,-45.12611671542185,58.52347906562028,-28.552816976564145
10.14,5.65,5.87,-3.2865741936437374,1.5499466507944295,-2.683149656094012,-45.12611671542185,58.52347906562028,-28.552816976564145
12.64,6.29,4.08,-2.0383455087033115,-1.6578846947568553,-4.652833598180122,-39.85124375899717,58.37904205289053,-30.650725683430657
12.64,6.29,4.08,-2.0383455087033115,-1.6578846947568553,-4.652833598180122,-39.85124375899717,58.37904205289053,-30.650725683430657
10.14,0.0,1.33,2.9398831847002165,0.0758463157943163,0.0117618333746492,-37.616257937648726,59.24720426605303,-31.304732073341743
10.14,0.0,1.33,2.9398831847002165,0.0758463157943163,0.0117618333746492,-37.616257937648726,59.24720426605303,-31.304732073341743
10.53,3.15,3.36,-1.2854216955979814,-0.8009758758703367,-1.5862920568508,-33.0459740960127,64.34905178938227,-30.44878609284871
10.53,3.15,3.36,-1.2854216955979814,-0.8009758758703367,-1.5862920568508,-33.0459740960127,64.34905178938227,-30.44878609284871
10.92,2.56,2.03,-0.3853390585285877,-1.7238035398718974,-1.4539412440642945,-30.805215870860085,66.09033392975714,-32.031310917714855
10.92,2.56,2.03,-0.3853390585285877,-1.7238035398718974,-1.4539412440642945,-30.805215870860085,66.09033392975714,-32.031310917714855
9.77,1.37,3.9,-1.2406686955197817,0.2352877562410273,-0.7264018302968704,-28.943189564308163,66.40503646948389,-32.795047946580326
9.77,1.37,3.9,-1.2406686955197817,0.2352877562410273,-0.7264018302968704,-28.943189564308163,66.40503646948389,-32.795047946580326
11.05,2.91,1.36,-0.3592110409679237,-3.33573167191643,-1.2008048212118627,-26.370473139201327,66.03566049429847,-34.17118813606689
11.05,2.91,1.36,-0.3592110409679237,-3.33573167191643,-1.2008048212118627,-26.370473139201327,66.03566049429847,-34.17118813606689
10.14,1.61,2.23,-0.2918400228647213,-1.8172165402726577,-0.5372928385318225,-25.617803632217928,65.7761926206296,-34.78309311529889
10.14,1.61,2.23,-0.2918400228647213,-1.8172165402726577,-0.5372928385318225,-25.617803632217928,65.7761926206296,-34.78309311529889
9.99,0.87,1.37,0.8269197398533588,-1.9669097581970247,-0.086851389647153,-25.03056340197877,65.20397390849297,-35.191597906700245
9.99,0.87,1.37,0.8269197398533588,-1.9669097581970247,-0.086851389647153,-25.03056340197877,65.20397390849297,-35.191597906700245
9.42,1.05,3.14,-0.6589825520384666,-0.9026704573121932,-0.1155185150779747,-24.56125248965988,65.13597459719793,-35.44414023991489
9.42,1.05,3.14,-0.6589825520384666,-0.9026704573121932,-0.1155185150779747,-24.56125248965988,65.13597459719793,-35.44414023991489
10.08,0.63,1.75,0.7141823107891235,-1.7374595742771448,-0.2699058528054916,-24.24470448957822,65.02722926644273,-35.841352697842005
10.08,0.63,1.75,0.7141823107891235,-1.7374595742771448,-0.2699058528054916,-24.24470448957822,65.02722926644273,-35.841352697842005
10.03,0.91,1.77,0.4555937770989098,-1.9224280100867857,-0.2262262005868738,-24.11579445991055,65.2311808589057,-35.88952982832807
10.03,0.91,1.77,0.4555937770989098,-1.9224280100867857,-0.2262262005868738,-24.11579445991055,65.2311808589057,-35.88952982832807
9.3,1.05,3.33,-0.9487341749986856,-0.7793050132203336,-0.0510367043723398,-24.42054113976365,65.59888072386629,-36.07025258875129
9.3,1.05,3.33,-0.9487341749986856,-0.7793050132203336,-0.0510367043723398,-24.42054113976365,65.59888072386629,-36.07025258875129
9.29,-0.25,2.97,0.192238904139341,-0.0546627014655982,0.0522891192039747,-24.67854067669555,65.61251381736736,-36.22695406441953
9.29,-0.25,2.97,0.192238904139341,-0.0546627014655982,0.0522891192039747,-24.67854067669555,65.61251381736736,-36.22695406441953
9.24,-0.05,3.08,-0.0217535434644584,-0.1111543809422872,0.0673650423173182,-24.79585513058625,65.51710409627202,-36.32342057290312
9.24,-0.05,3.08,-0.0217535434644584,-0.1111543809422872,0.0673650423173182,-24.79585513058625,65.51710409627202,-36.32342057290312
9.68,0.78,1.83,0.3566221524003135,-1.6340572299483167,0.0669180935422542,-24.948403420997227,65.3536633459727,-36.46817032738551
9.68,0.78,1.83,0.3566221524003135,-1.6340572299483167,0.0669180935422542,-24.948403420997227,65.3536633459727,-36.46817032738551
9.43,0.4,2.52,0.0994903324983188,-0.7957489728495415,0.070522163639783,-25.30060996520192,65.40812696087787,-36.45610555039494
9.43,0.4,2.52,0.0994903324983188,-0.7957489728495415,0.070522163639783,-25.30060996520192,65.40812696087787,-36.45610555039494
9.21,0.13,2.8,0.0393347222500817,-0.304008203790753,0.1844344655373948,-25.64130737095736,65.58524867553507,-36.37166381418113
9.21,0.13,2.8,0.0393347222500817,-0.304008203790753,0.1844344655373948,-25.64130737095736,65.58524867553507,-36.37166381418113
9.14,0.4,2.86,-0.2254480653691514,-0.3837901434552138,0.2316263292403313,-25.94695623100749,65.74890233219018,-36.33548075823788
9.14,0.4,2.86,-0.2254480653691514,-0.3837901434552138,0.2316263292403313,-25.94695623100749,65.74890233219018,-36.33548075823788
9.24,-0.19,2.76,0.3336724714422249,0.0214599007125333,0.1671737614036779,-26.582368805630427,65.57161767194049,-36.22695406441953
9.24,-0.19,2.76,0.3336724714422249,0.0214599007125333,0.1671737614036779,-26.582368805630427,65.57161767194049,-36.22695406441953
9.18,-0.34,2.81,0.4587887415824055,0.1902471455649969,0.2130365559320353,-26.75901922805568,65.2719990372295,-36.04615086901799
9.18,-0.34,2.81,0.4587887415824055,0.1902471455649969,0.2130365559320353,-26.75901922805568,65.2719990372295,-36.04615086901799
9.25,0.73,2.7,-0.1972344914929507,-0.6728208661543689,0.1685064734990131,-26.582368805630427,65.20397390849297,-35.94976046847315
9.25,0.73,2.7,-0.1972344914929507,-0.6728208661543689,0.1685064734990131,-26.582368805630427,65.20397390849297,-35.94976046847315
9.49,0.76,2.4,0.0500831018412901,-0.9481454234123708,0.0344336731388263,-26.617693729981983,65.12237782833996,-35.9377135193296
9.49,0.76,2.4,0.0500831018412901,-0.9481454234123708,0.0344336731388263,-26.617693729981983,65.12237782833996,-35.9377135193296
9.16,0.66,3.12,-0.3792784581710443,-0.326275445078172,0.120304343091691,-26.723683975588173,64.79636344196814,-35.9377135193296
9.16,0.66,3.12,-0.3792784581710443,-0.326275445078172,0.120304343091691,-26.723683975588173,64.79636344196814,-35.9377135193296
9.14,0.68,2.78,-0.105094905095903,-0.5668275090746626,0.2464166536909733,-26.91216865613784,64.4032127251192,-35.92566698091841
9.14,0.68,2.78,-0.105094905095903,-0.5668275090746626,0.2464166536909733,-26.91216865613784,64.4032127251192,-35.92566698091841
9.47,0.8,2.59,0.1529914689185779,-0.7913197516944399,-0.0106513940194599,-27.666855466190324,63.673390007198286,-35.829309438989284
9.47,0.8,2.59,0.1529914689185779,-0.7913197516944399,-0.0106513940194599,-27.666855466190324,63.673390007198286,-35.829309438989284
9.36,0.57,2.6,0.3589849772011239,-0.6372005873988145,0.1030627665299732,-27.70226118700864,63.16153810810004,-35.91362085306447
9.36,0.57,2.6,0.3589849772011239,-0.6372005873988145,0.1030627665299732,-27.70226118700864,63.16153810810004,-35.91362085306447
9.28,0.73,3.0,-0.0174993645362349,-0.4902323344722115,0.0388116500640851,-27.52525947842401,63.04051613304179,-35.91362085306447
9.28,0.73,3.0,-0.0174993645362349,-0.4902323344722115,0.0388116500640851,-27.52525947842401,63.04051613304179,-35.91362085306447
9.21,0.39,3.15,0.0977610488753734,-0.15072522758301,0.0667103347303612,-27.38370633207425,63.09429398938783,-35.91362085306447
9.21,0.39,3.15,0.0977610488753734,-0.15072522758301,0.0667103347303612,-27.38370633207425,63.09429398938783,-35.91362085306447
9.23,0.44,2.91,0.2223046302199249,-0.3669315101172672,0.1282957019663779,-27.253986698732728,63.1077408741901,-35.865440443720345
9.23,0.44,2.91,0.2223046302199249,-0.3669315101172672,0.1282957019663779,-27.253986698732728,63.1077408741901,-35.865440443720345
