acc_x,acc_y,acc_z,lin_x,lin_y,lin_z,eul_x,eul_y,eul_z
-3.59,-4.34,-8.16,0.154379163817173,-0.1413126338101484,-0.1062455312413508,-106.24110823664704,63.52507692958832,4.034456312516312
-3.59,-4.34,-8.16,0.154379163817173,-0.1413126338101484,-0.1062455312413508,-106.24110823664704,63.52507692958832,4.034456312516312
-3.44,-4.13,-8.12,0.0516190794860992,0.0205565559578464,0.0690007508926893,-106.33663306993483,63.44422897307763,4.068855279934243
-3.44,-4.13,-8.12,0.0516190794860992,0.0205565559578464,0.0690007508926893,-106.33663306993483,63.44422897307763,4.068855279934243
-3.31,-4.47,-8.38,0.2918056019898186,0.1539138970991613,-0.2458402388874337,-106.33663306993483,63.376882602273,3.82807003686826
-3.31,-4.47,-8.38,0.2918056019898186,0.1539138970991613,-0.2458402388874337,-106.33663306993483,63.376882602273,3.82807003686826
-3.11,-4.32,-8.63,0.183437273453953,0.4850106612081044,-0.3196778351642493,-106.31751960155216,63.390349920821656,3.793673550039814
-3.11,-4.32,-8.63,0.183437273453953,0.4850106612081044,-0.3196778351642493,-106.31751960155216,63.390349920821656,3.793673550039814
-3.36,-3.94,-8.24,-0.1228497935782289,0.2102513655091074,0.0777496360575611,-106.31751960155216,63.40381821677742,4.022990071019942
-3.36,-3.94,-8.24,-0.1228497935782289,0.2102513655091074,0.0777496360575611,-106.31751960155216,63.40381821677742,4.022990071019942
-3.77,-4.1,-8.0,-0.1243609614301267,-0.2491362610057237,0.0626587502746449,-106.20292801228648,63.34995089580225,4.080321683767285
-3.77,-4.1,-8.0,-0.1243609614301267,-0.2491362610057237,0.0626587502746449,-106.20292801228648,63.34995089580225,4.080321683767285
-3.69,-3.19,-7.98,-0.9224859030079908,0.0779341761181569,0.4999026614856312,-106.29841038740038,63.1077408741901,3.8853982832056495
-3.69,-3.19,-7.98,-0.9224859030079908,0.0779341761181569,0.4999026614856312,-106.29841038740038,63.1077408741901,3.8853982832056495
-3.6,-4.51,-8.13,0.1847848516748017,-0.1215159526526212,-0.1607011241373701,-106.33663306993483,62.93300681618901,3.873932556571698
-3.6,-4.51,-8.13,0.1847848516748017,-0.1215159526526212,-0.1607011241373701,-106.33663306993483,62.93300681618901,3.873932556571698
-3.12,-4.73,-8.71,0.4589778082293959,0.5152022384306294,-0.5613443106209832,-106.20292801228648,63.05395914548726,3.954193464226632
-3.12,-4.73,-8.71,0.4589778082293959,0.5152022384306294,-0.5613443106209832,-106.20292801228648,63.05395914548726,3.954193464226632
-3.7,-3.74,-7.75,-0.3577029446768295,-0.1317632197203098,0.4474413231246697,-106.12661834568743,63.12118872806756,4.321125783265932
-3.7,-3.74,-7.75,-0.3577029446768295,-0.1317632197203098,0.4474413231246697,-106.12661834568743,63.12118872806756,4.321125783265932
-3.54,-3.98,-8.18,-0.1926221177945899,0.1477661110310271,0.0482965581448073,-106.18384425288782,63.05395914548726,4.298191253728037
-3.54,-3.98,-8.18,-0.1926221177945899,0.1477661110310271,0.0482965581448073,-106.18384425288782,63.05395914548726,4.298191253728037
-3.44,-4.32,-8.24,0.1141119355707879,0.1576879735517824,-0.1107948810748347,-106.18384425288782,63.080848073266175,4.194987989089829
-3.44,-4.32,-8.24,0.1141119355707879,0.1576879735517824,-0.1107948810748347,-106.18384425288782,63.080848073266175,4.194987989089829
-3.53,-4.18,-8.0,0.0357283946978188,0.0027732672667704,0.1147969372054014,-106.18384425288782,63.1077408741901,4.309658496908005
-3.53,-4.18,-8.0,0.0357283946978188,0.0027732672667704,0.1147969372054014,-106.18384425288782,63.1077408741901,4.309658496908005
-3.76,-3.73,-7.61,-0.3345923996998803,-0.238072226370321,0.5441465834773282,-106.06943042494876,63.1884425474074,4.4702044875913645
-3.76,-3.73,-7.61,-0.3345923996998803,-0.238072226370321,0.5441465834773282,-106.06943042494876,63.1884425474074,4.4702044875913645
-3.49,-4.06,-8.4,-0.1242778010193047,0.2842817978951235,-0.1496263565280458,-106.03132620370606,63.25572065292907,4.424333322525307
-3.49,-4.06,-8.4,-0.1242778010193047,0.2842817978951235,-0.1496263565280458,-106.03132620370606,63.25572065292907,4.424333322525307
-3.6,-4.26,-8.15,0.0636410145305874,0.0024071499569013,-0.0688775315751417,-106.08848885002472,63.22880649321045,4.424333322525307
-3.6,-4.26,-8.15,0.0636410145305874,0.0024071499569013,-0.0688775315751417,-106.08848885002472,63.22880649321045,4.424333322525307
-3.49,-4.1,-7.99,0.0334132203790882,0.0565354313636237,0.1720307910377503,-106.06943042494876,63.26917919273301,4.516076369343336
-3.49,-4.1,-7.99,0.0334132203790882,0.0565354313636237,0.1720307910377503,-106.06943042494876,63.26917919273301,4.516076369343336
-3.52,-4.43,-8.0,0.2982521610759228,-0.0583496640556133,0.0126242207242395,-106.06943042494876,63.296099194215,4.481672390551605
-3.52,-4.43,-8.0,0.2982521610759228,-0.0583496640556133,0.0126242207242395,-106.06943042494876,63.296099194215,4.481672390551605
-3.54,-4.35,-7.97,0.2432941992770213,-0.088919209371276,0.064581364088891,-106.03132620370606,63.417287490539216,4.4587366294239885
-3.54,-4.35,-7.97,0.2432941992770213,-0.088919209371276,0.064581364088891,-106.03132620370606,63.417287490539216,4.4587366294239885
-3.74,-3.7,-7.79,-0.3371766144469331,-0.1651579791280193,0.4140606460145673,-105.974201394434,63.53855502158924,4.550480755424785
-3.74,-3.7,-7.79,-0.3371766144469331,-0.1651579791280193,0.4140606460145673,-105.974201394434,63.53855502158924,4.550480755424785
-3.58,-4.27,-8.01,0.1630719331935121,-0.1138478146021588,0.0511466188456068,-105.95516818414836,63.64641513634406,4.3669953627837845
-3.58,-4.27,-8.01,0.1630719331935121,-0.1138478146021588,0.0511466188456068,-105.95516818414836,63.64641513634406,4.3669953627837845
-3.3,-4.21,-8.62,0.0857043834531602,0.3525634533057445,-0.3317351657968732,-105.93613916476912,63.94335613096246,4.034456312516312
-3.3,-4.21,-8.62,0.0857043834531602,0.3525634533057445,-0.3317351657968732,-105.93613916476912,63.94335613096246,4.034456312516312
-3.27,-4.18,-8.38,0.1296727689956195,0.1734341937825054,-0.1101441167197823,-105.93613916476912,64.24077819073915,3.656090990936744
-3.27,-4.18,-8.38,0.1296727689956195,0.1734341937825054,-0.1101441167197823,-105.93613916476912,64.24077819073915,3.656090990936744
-3.17,-4.62,-8.48,0.5286597915104588,0.1178852397077769,-0.3427500756251209,-105.822052873486,64.5657923959142,3.35801326652208
-3.17,-4.62,-8.48,0.5286597915104588,0.1178852397077769,-0.3427500756251209,-105.822052873486,64.5657923959142,3.35801326652208
-3.17,-4.04,-8.72,0.0758414710073862,0.3662163443760793,-0.3061653182181327,-105.5185544187127,65.13597459719793,3.6904861286986015
-3.17,-4.04,-8.72,0.0758414710073862,0.3662163443760793,-0.3061653182181327,-105.5185544187127,65.13597459719793,3.6904861286986015
-3.51,-3.94,-8.04,0.0997183584934842,-0.2463461203121269,0.1933950965873929,-105.23498190512574,65.66705665174257,3.8853982832056495
-3.51,-3.94,-8.04,0.0997183584934842,-0.2463461203121269,0.1933950965873929,-105.23498190512574,65.66705665174257,3.8853982832056495
-3.15,-3.85,-8.6,0.0888374349554559,0.269560381512987,-0.124334095791772,-104.98995994505609,66.22709184452836,3.793673550039814
-3.15,-3.85,-8.6,0.0888374349554559,0.269560381512987,-0.124334095791772,-104.98995994505609,66.22709184452836,3.793673550039814
-3.41,-3.88,-8.2,0.1396312244917862,-0.2356032527512315,0.1191583624067096,-104.82072855146713,66.73402593846353,3.5185137037623337
-3.41,-3.88,-8.2,0.1396312244917862,-0.2356032527512315,0.1191583624067096,-104.82072855146713,66.73402593846353,3.5185137037623337
-2.97,-4.77,-8.31,1.0934246209048082,-0.1095572386930401,-0.1644241552677847,-104.55812296797365,67.2562029587362,3.2089830530311807
-2.97,-4.77,-8.31,1.0934246209048082,-0.1095572386930401,-0.1644241552677847,-104.55812296797365,67.2562029587362,3.2089830530311807
-3.03,-3.93,-8.71,0.4862804874542685,0.0550148163338501,-0.205862404861481,-104.1843158106976,68.4993168665412,3.6331610823402585
-3.03,-3.93,-8.71,0.4862804874542685,0.0550148163338501,-0.205862404861481,-104.1843158106976,68.4993168665412,3.6331610823402585
-2.99,-2.84,-8.81,-0.2579854174242362,0.2772283333421508,0.0866506185396911,-103.9421788631584,69.40285407677956,4.2867240536107065
-2.99,-2.84,-8.81,-0.2579854174242362,0.2772283333421508,0.0866506185396911,-103.9421788631584,69.40285407677956,4.2867240536107065
-3.49,-1.21,-8.51,-1.6309553082602857,0.047452747547463,0.6741786466801418,-103.88639399112432,69.94734861219692,5.181303758795194
-3.49,-1.21,-8.51,-1.6309553082602857,0.047452747547463,0.6741786466801418,-103.88639399112432,69.94734861219692,5.181303758795194
-3.13,-2.04,-8.98,-0.9091362447437794,0.4010629999317912,0.1313453661097074,-103.86780674134882,69.73771440110959,4.986306217889054
-3.13,-2.04,-8.98,-0.9091362447437794,0.4010629999317912,0.1313453661097074,-103.86780674134882,69.73771440110959,4.986306217889054
-3.21,-3.25,-8.45,-0.0152551505270353,-0.136805141289745,0.2019557501188984,-103.97938807566652,69.12432067193492,3.782208130568333
-3.21,-3.25,-8.45,-0.0152551505270353,-0.136805141289745,0.2019557501188984,-103.97938807566652,69.12432067193492,3.782208130568333
-3.61,-3.05,-7.61,-0.2806480735618879,-0.8282107078546554,0.8913819904446587,-104.37102298797171,68.66575661319368,3.0714215263829594
-3.61,-3.05,-7.61,-0.2806480735618879,-0.8282107078546554,0.8913819904446587,-104.37102298797171,68.66575661319368,3.0714215263829594
-3.62,-2.65,-6.27,-0.4825700547906831,-1.3890922881413883,2.2384699838240216,-104.8019451062217,68.29149832235984,1.8106219718874
-3.62,-2.65,-6.27,-0.4825700547906831,-1.3890922881413883,2.2384699838240216,-104.8019451062217,68.29149832235984,1.8106219718874
-4.42,-1.49,-3.45,-1.1823459021616216,-3.0181892125827985,4.995039869836662,-105.36720117412769,68.08393507833873,0.7104722177704716
-4.42,-1.49,-3.45,-1.1823459021616216,-3.0181892125827985,4.995039869836662,-105.36720117412769,68.08393507833873,0.7104722177704716
-3.96,-2.24,-1.96,-0.0696620138732324,-3.6011136689250414,6.4054843840229765,-106.5663277531852,67.72475880644298,-2.910938660030132
-3.96,-2.24,-1.96,-0.0696620138732324,-3.6011136689250414,6.4054843840229765,-106.5663277531852,67.72475880644298,-2.910938660030132
-2.77,-2.77,-2.0,0.7089221162376709,-3.0655043340604866,6.733229655991474,-108.36791454974384,67.03614692743177,-9.073671186517632
-2.77,-2.77,-2.0,0.7089221162376709,-3.0655043340604866,6.733229655991474,-108.36791454974384,67.03614692743177,-9.073671186517632
-0.56,-3.91,-1.83,2.487745906920704,-1.7854145379395532,6.712459438590863,-109.5116049915234,66.1586995980381,-14.45391421483677
-0.56,-3.91,-1.83,2.487745906920704,-1.7854145379395532,6.712459438590863,-109.5116049915234,66.1586995980381,-14.45391421483677
1.33,-3.47,-2.78,2.3799920327625887,-0.4415231000032849,5.846991520263384,-110.02956467321044,65.09518738061836,-21.275624852029367
1.33,-3.47,-2.78,2.3799920327625887,-0.4415231000032849,5.846991520263384,-110.02956467321044,65.09518738061836,-21.275624852029367
4.66,-1.85,-5.52,1.0837765764988123,2.237834577028621,2.776285518830644,-109.63083923692189,64.49803318236535,-24.995350383000986
4.66,-1.85,-5.52,1.0837765764988123,2.237834577028621,2.776285518830644,-109.63083923692189,64.49803318236535,-24.995350383000986
5.88,-4.84,-4.55,4.422794091120122,1.138767147526453,2.2010861279871303,-109.03641233282303,62.59743692135864,-29.641988140572547
5.88,-4.84,-4.55,4.422794091120122,1.138767147526453,2.2010861279871303,-109.03641233282303,62.59743692135864,-29.641988140572547
8.03,-1.18,-6.35,1.369259654439242,2.9129650745712583,0.0170860427518029,-107.23982794355229,62.07513651497276,-32.150547625319554
8.03,-1.18,-6.35,1.369259654439242,2.9129650745712583,0.0170860427518029,-107.23982794355229,62.07513651497276,-32.150547625319554
8.18,2.31,-6.82,-1.6122917968535768,2.763988288848663,-0.6107289362250885,-103.64505914352164,61.84791552643628,-34.351055102879386
8.18,2.31,-6.82,-1.6122917968535768,2.763988288848663,-0.6107289362250885,-103.64505914352164,61.84791552643628,-34.351055102879386
7.29,2.46,-6.71,-1.7252554620227678,0.6959941419299471,-0.231222570677506,-99.52971641733647,60.782229218492176,-36.79407807568971
7.29,2.46,-6.71,-1.7252554620227678,0.6959941419299471,-0.231222570677506,-99.52971641733647,60.782229218492176,-36.79407807568971
9.34,1.59,-8.48,-0.7504780960638162,-0.8594085511366696,-2.8571685224505483,-96.04370901836045,59.9867685475142,-39.449267117403366
9.34,1.59,-8.48,-0.7504780960638162,-0.8594085511366696,-2.8571685224505483,-96.04370901836045,59.9867685475142,-39.449267117403366
10.92,1.74,-6.39,-0.3218780618512207,0.3668192683976677,-2.9553223451209187,-91.77920529298514,59.22084162921026,-43.07375512826057
10.92,1.74,-6.39,-0.3218780618512207,0.3668192683976677,-2.9553223451209187,-91.77920529298514,59.22084162921026,-43.07375512826057
10.76,1.0,-5.62,0.2961719058393868,-0.2019118717023631,-2.368468635900724,-88.72571015189867,58.28718053424962,-45.821900740364754
10.76,1.0,-5.62,0.2961719058393868,-0.2019118717023631,-2.368468635900724,-88.72571015189867,58.28718053424962,-45.821900740364754
10.59,6.28,-2.15,-4.476333590035977,3.197145309596689,-1.416081372533137,-84.28858454106421,58.53661475812208,-48.34685890896744
10.59,6.28,-2.15,-4.476333590035977,3.197145309596689,-1.416081372533137,-84.28858454106421,58.53661475812208,-48.34685890896744
13.29,1.07,-5.57,0.460783308757617,-1.1134775273264772,-4.592716185305145,-81.7331870750525,57.56683056380633,-49.84601386938241
13.29,1.07,-5.57,0.460783308757617,-1.1134775273264772,-4.592716185305145,-81.7331870750525,57.56683056380633,-49.84601386938241
8.48,2.1,-1.41,-0.6467277133551803,1.2832386481470448,1.0748952028999277,-80.06170285521922,57.56683056380633,-49.441996043237744
8.48,2.1,-1.41,-0.6467277133551803,1.2832386481470448,1.0748952028999277,-80.06170285521922,57.56683056380633,-49.441996043237744
8.63,3.13,-0.49,-1.6021174010331534,1.9824345903283624,0.973922622322343,-77.4231048305095,58.12979906907962,-49.66917497940315
8.63,3.13,-0.49,-1.6021174010331534,1.9824345903283624,0.973922622322343,-77.4231048305095,58.12979906907962,-49.66917497940315
9.43,1.83,0.99,-0.0259227342369081,3.0141170385646814,0.6323202430268076,-75.45402498067408,57.540683062151366,-49.934480858485706
9.43,1.83,0.99,-0.0259227342369081,3.0141170385646814,0.6323202430268076,-75.45402498067408,57.540683062151366,-49.934480858485706
10.82,1.62,2.03,0.4471286387250617,3.334780515682064,-0.7998109975551753,-71.7614760712347,55.62764107730477,-52.1184538275471
10.82,1.62,2.03,0.4471286387250617,3.334780515682064,-0.7998109975551753,-71.7614760712347,55.62764107730477,-52.1184538275471
11.17,2.13,2.53,0.1116540483170656,2.9845129656788423,-1.4533196150206984,-68.20844247958603,53.94978377937824,-52.78270669863224
11.17,2.13,2.53,0.1116540483170656,2.9845129656788423,-1.4533196150206984,-68.20844247958603,53.94978377937824,-52.78270669863224
10.98,2.59,5.11,-0.4220676239940737,4.480633277509181,-1.731390750199029,-63.64641513634406,52.386481614636175,-53.461705766242936
10.98,2.59,5.11,-0.4220676239940737,4.480633277509181,-1.731390750199029,-63.64641513634406,52.386481614636175,-53.461705766242936
12.78,5.2,4.9,-2.463504341817251,2.628689430404789,-4.384880510706932,-58.78635364877629,51.1001794642751,-52.43756945380554
12.78,5.2,4.9,-2.463504341817251,2.628689430404789,-4.384880510706932,-58.78635364877629,51.1001794642751,-52.43756945380554
16.28,5.74,1.42,-1.2413999516494254,-3.6469348783088353,-7.080066440842468,-52.06743571130708,48.522767881927,-52.412024132935976
16.28,5.74,1.42,-1.2413999516494254,-3.6469348783088353,-7.080066440842468,-52.06743571130708,48.522767881927,-52.412024132935976
15.12,8.41,0.19,-3.276060723191208,-7.2446613308318755,-5.56087772372684,-45.43651590599992,46.80650649596007,-51.9017033518216
15.12,8.41,0.19,-3.276060723191208,-7.2446613308318755,-5.56087772372684,-45.43651590599992,46.80650649596007,-51.9017033518216
11.24,4.59,2.97,-1.2620761530572109,-2.753269758456012,-2.319902247900308,-44.43208368482341,44.927644585005865,-52.15672470466425
11.24,4.59,2.97,-1.2620761530572109,-2.753269758456012,-2.319902247900308,-44.43208368482341,44.927644585005865,-52.15672470466425
11.04,2.53,2.65,0.8525683399265944,-2.572444504162794,-1.5053196118208074,-42.86440291129757,44.345450751183655,-51.138286174965344
11.04,2.53,2.65,0.8525683399265944,-2.572444504162794,-1.5053196118208074,-42.86440291129757,44.345450751183655,-51.138286174965344
9.55,3.09,3.49,-0.3056254189176877,-1.5154014649107097,-0.7071909491231114,-42.76593619701882,44.39495201253494,-50.541973215859535
9.55,3.09,3.49,-0.3056254189176877,-1.5154014649107097,-0.7071909491231114,-42.76593619701882,44.39495201253494,-50.541973215859535
8.21,1.89,4.29,0.2940059971570144,0.1417639563706787,0.3581705744887262,-43.17232602381402,43.97446806674141,-49.30326654818019
8.21,1.89,4.29,0.2940059971570144,0.1417639563706787,0.3581705744887262,-43.17232602381402,43.97446806674141,-49.30326654818019
7.7,1.7,4.77,0.1969440752664442,0.7727363788966075,0.6253106902942935,-42.98753303890184,43.8262109221212,-48.91271498969397
7.7,1.7,4.77,0.1969440752664442,0.7727363788966075,0.6253106902942935,-42.98753303890184,43.8262109221212,-48.91271498969397
7.56,3.57,5.36,-1.7188840255049738,0.4113857131882001,0.0340198779781655,-41.78307317970489,43.91268486070203,-48.72395587995984
7.56,3.57,5.36,-1.7188840255049738,0.4113857131882001,0.0340198779781655,-41.78307317970489,43.91268486070203,-48.72395587995984
8.92,3.65,3.83,-0.9121302079857572,-1.502994459458035,-0.4142514347325683,-41.182660023882,43.8262109221212,-49.12681310673511
8.92,3.65,3.83,-0.9121302079857572,-1.502994459458035,-0.4142514347325683,-41.182660023882,43.8262109221212,-49.12681310673511
8.94,4.04,4.33,-1.3624585743129014,-1.2664060588034394,-0.7543169219966401,-41.07250897869503,43.8262109221212,-48.90012665540839
8.94,4.04,4.33,-1.3624585743129014,-1.2664060588034394,-0.7543169219966401,-41.07250897869503,43.8262109221212,-48.90012665540839
8.36,2.4,4.78,-0.1200320981093976,0.0574523053680871,-0.1170736724946817,-41.78307317970489,43.283258399546064,-48.62334193420396
8.36,2.4,4.78,-0.1200320981093976,0.0574523053680871,-0.1170736724946817,-41.78307317970489,43.283258399546064,-48.62334193420396
8.01,2.31,4.66,-0.0549596857289456,0.1261853227041078,0.2571548983059486,-42.12670509670736,42.80285732809909,-48.53533746105607
8.01,2.31,4.66,-0.0549596857289456,0.1261853227041078,0.2571548983059486,-42.12670509670736,42.80285732809909,-48.53533746105607
7.59,1.78,5.22,0.2149355856066452,0.9634170816531984,0.4765626359492856,-42.56910201801789,42.138984987119,-48.58562199629408
7.59,1.78,5.22,0.2149355856066452,0.9634170816531984,0.4765626359492856,-42.56910201801789,42.138984987119,-48.58562199629408
8.22,1.86,4.4,0.62286866642143,-0.0246884887007896,0.3198473192800062,-42.54450701803225,41.84440708007335,-48.78685991006569
8.22,1.86,4.4,0.62286866642143,-0.0246884887007896,0.3198473192800062,-42.54450701803225,41.84440708007335,-48.78685991006569
8.16,2.44,4.71,-0.0243066023231213,-0.0029465321525647,0.0740912148175638,-42.175827701141685,42.053036389733045,-48.6862209673472
8.16,2.44,4.71,-0.0243066023231213,-0.0029465321525647,0.0740912148175638,-42.175827701141685,42.053036389733045,-48.6862209673472
7.84,2.95,4.96,-0.7008424102939035,0.129779187267893,0.0978046887137242,-42.065313242449655,42.33553232385557,-48.57304992918911
7.84,2.95,4.96,-0.7008424102939035,0.129779187267893,0.0978046887137242,-42.065313242449655,42.33553232385557,-48.57304992918911
7.98,2.6,4.8,-0.3006589325557525,0.0892906277991252,0.1432121339990164,-41.31734313597096,43.18464974314042,-46.80650649596007
7.98,2.6,4.8,-0.3006589325557525,0.0892906277991252,0.1432121339990164,-41.31734313597096,43.18464974314042,-46.80650649596007
7.82,2.78,5.01,-0.5848028760629755,0.2749224754094099,0.1338363850964636,-41.46433827740303,43.29558684746807,-46.70663424071843
7.82,2.78,5.01,-0.5848028760629755,0.2749224754094099,0.1338363850964636,-41.46433827740303,43.29558684746807,-46.70663424071843
7.57,2.5,5.04,-0.4241663419243607,0.5244252618222027,0.3991231698952245,-41.04803635831072,43.78915870024722,-45.10129990098643
7.57,2.5,5.04,-0.4241663419243607,0.5244252618222027,0.3991231698952245,-41.04803635831072,43.78915870024722,-45.10129990098643
8.07,2.47,4.53,-0.0231733599496946,-0.0572287820720882,0.2283992274480919,-40.33917501022326,44.37020029186166,-43.71506869334832
8.07,2.47,4.53,-0.0231733599496946,-0.0572287820720882,0.2283992274480919,-40.33917501022326,44.37020029186166,-43.71506869334832
8.15,2.6,4.51,-0.0972808391420756,-0.1742591093908636,0.1380011698309111,-39.61974059674283,44.989651826175965,-42.43385492531204
8.15,2.6,4.51,-0.0972808391420756,-0.1742591093908636,0.1380011698309111,-39.61974059674283,44.989651826175965,-42.43385492531204
7.99,2.54,4.74,-0.2106982881647419,0.1066928703996721,0.1783831329688237,-39.68064610609173,45.08889233071614,-42.42156281061413
7.99,2.54,4.74,-0.2106982881647419,0.1066928703996721,0.1783831329688237,-39.68064610609173,45.08889233071614,-42.42156281061413
7.81,2.9,4.93,-0.6357917054360971,0.1256728927232995,0.1479246580445075,-39.25455153393627,45.461363019955,-41.30509675325747
7.81,2.9,4.93,-0.6357917054360971,0.1256728927232995,0.1479246580445075,-39.25455153393627,45.461363019955,-41.30509675325747
7.83,2.49,4.88,-0.2631094185422618,0.2934580941699214,0.2584535325596437,-38.84117149116385,45.78458156617274,-40.302553807332
7.83,2.49,4.88,-0.2631094185422618,0.2934580941699214,0.2584535325596437,-38.84117149116385,45.78458156617274,-40.302553807332
8.08,2.58,4.68,-0.1366368687258701,0.0048152257054854,0.1202416264228158,-38.78042477210455,45.74726752330664,-40.26593689865936
8.08,2.58,4.68,-0.1366368687258701,0.0048152257054854,0.1202416264228158,-38.78042477210455,45.74726752330664,-40.26593689865936
8.04,2.38,4.63,0.0341186692538459,0.0973812700700529,0.2289544105250503,-38.44045190034536,46.08327914813054,-39.351894536966725
8.04,2.38,4.63,0.0341186692538459,0.0973812700700529,0.2289544105250503,-38.44045190034536,46.08327914813054,-39.351894536966725
7.94,2.67,4.84,-0.3174833132997663,0.1157365262678546,0.1379422578938349,-37.95538472991653,46.43217889831124,-38.37977954174036
7.94,2.67,4.84,-0.3174833132997663,0.1157365262678546,0.1379422578938349,-37.95538472991653,46.43217889831124,-38.37977954174036
8.03,2.53,4.49,-0.0011478211287951,-0.0979239265381359,0.2655646536089495,-38.04022025359053,46.29505700445262,-38.40404714248387
8.03,2.53,4.49,-0.0011478211287951,-0.0979239265381359,0.2655646536089495,-38.04022025359053,46.29505700445262,-38.40404714248387
7.84,2.46,4.78,-0.1657733849065984,0.2324811310902006,0.3048569213993293,-37.73733524113148,46.68167205165904,-37.616257937648726
7.84,2.46,4.78,-0.1657733849065984,0.2324811310902006,0.3048569213993293,-37.73733524113148,46.68167205165904,-37.616257937648726
8.09,2.51,4.53,0.0229851995004644,-0.066665681137439,0.2012282306260804,-37.28956626386321,46.968879343305815,-36.87862290728264
8.09,2.51,4.53,0.0229851995004644,-0.066665681137439,0.2012282306260804,-37.28956626386321,46.968879343305815,-36.87862290728264
7.91,2.58,4.72,-0.2065191267909069,0.0672169561025484,0.2434009845721441,-36.87862290728264,47.25639974151138,-36.23901092380315
7.91,2.58,4.72,-0.2065191267909069,0.0672169561025484,0.2434009845721441,-36.87862290728264,47.25639974151138,-36.23901092380315
7.81,2.62,4.95,-0.3734073550272424,0.2508451082210521,0.2066164751161849,-36.951106460626896,47.20637357843252,-36.17873077462121
7.81,2.62,4.95,-0.3734073550272424,0.2508451082210521,0.2066164751161849,-36.951106460626896,47.20637357843252,-36.17873077462121
8.14,2.38,4.33,0.2832950464277806,-0.164693311969446,0.2900581715320971,-36.63712122701613,47.2313854664036,-35.51632781311482
8.14,2.38,4.33,0.2832950464277806,-0.164693311969446,0.2900581715320971,-36.63712122701613,47.2313854664036,-35.51632781311482
8.01,2.88,4.76,-0.3634041409307048,-0.1223590299010781,0.0616479118444477,-36.311360803930285,47.56928036162765,-34.9512454084058
8.01,2.88,4.76,-0.3634041409307048,-0.1223590299010781,0.0616479118444477,-36.311360803930285,47.56928036162765,-34.9512454084058
7.81,2.75,4.93,-0.4500200130532963,0.1477751516071843,0.1817269097920082,-36.38372566673132,47.619376147320615,-34.92721890485463
7.81,2.75,4.93,-0.4500200130532963,0.1477751516071843,0.1817269097920082,-36.38372566673132,47.619376147320615,-34.92721890485463
8.07,2.43,4.39,0.1777859898008414,-0.109407278636854,0.3062120001385296,-36.17873077462121,47.75718944121001,-34.39903434859307
8.07,2.43,4.39,0.1777859898008414,-0.109407278636854,0.3062120001385296,-36.17873077462121,47.75718944121001,-34.39903434859307
7.91,2.58,4.81,-0.2194644455280194,0.1514384683250411,0.1999074851065945,-35.997952375875286,47.995403677336114,-33.96744372977673
7.91,2.58,4.81,-0.2194644455280194,0.1514384683250411,0.1999074851065945,-35.997952375875286,47.995403677336114,-33.96744372977673
7.93,2.63,4.74,-0.2100050814988624,0.0724223823046583,0.2035227560088017,-36.03410062770514,48.02049166769566,-33.90753998612701
7.93,2.63,4.74,-0.2100050814988624,0.0724223823046583,0.2035227560088017,-36.03410062770514,48.02049166769566,-33.90753998612701
8.04,2.78,4.54,-0.1751546342235015,-0.168368979965338,0.167014491294525,-35.97385559965812,48.258949886108525,-33.488479867763736
8.04,2.78,4.54,-0.1751546342235015,-0.168368979965338,0.167014491294525,-35.97385559965812,48.258949886108525,-33.488479867763736
7.92,2.51,4.74,-0.1264452422730772,0.1852471469023602,0.2440250938734891,-35.91362085306447,48.30917991037589,-33.20139097173225
7.92,2.51,4.74,-0.1264452422730772,0.1852471469023602,0.2440250938734891,-35.91362085306447,48.30917991037589,-33.20139097173225
8.21,2.68,4.44,0.0580730161108228,-0.2121929859955725,0.0983184408960333,-35.684822197148925,48.397106226699925,-32.771158669290664
8.21,2.68,4.44,0.0580730161108228,-0.2121929859955725,0.0983184408960333,-35.684822197148925,48.397106226699925,-32.771158669290664
8.0,2.51,4.64,-0.038988787724822,0.106592854380751,0.2245407417089691,-35.73297808318577,48.522767881927,-32.69949961813303
8.0,2.51,4.64,-0.038988787724822,0.106592854380751,0.2245407417089691,-35.73297808318577,48.522767881927,-32.69949961813303
7.71,3.0,4.99,-0.7323676476950846,0.1008731892407515,0.1734956760881285,-35.4802322080149,48.862365423932296,-32.25789123557385
7.71,3.0,4.99,-0.7323676476950846,0.1008731892407515,0.1734956760881285,-35.4802322080149,48.862365423932296,-32.25789123557385
7.92,2.58,4.85,-0.2511961898676619,0.2443675729779988,0.1742834702487155,-35.42008094609324,48.92530395295319,-31.94786641552185
7.92,2.58,4.85,-0.2511961898676619,0.2443675729779988,0.1742834702487155,-35.42008094609324,48.92530395295319,-31.94786641552185
8.26,2.74,4.44,0.0350210343566933,-0.2313070024886459,0.0396611806272471,-35.43211039129503,48.79944259465472,-31.959785992705623
8.26,2.74,4.44,0.0350210343566933,-0.2313070024886459,0.0396611806272471,-35.43211039129503,48.79944259465472,-31.959785992705623
7.98,2.9,4.68,-0.3441761091575844,-0.1067856956896153,0.1183612129601954,-35.39602326525133,48.862365423932296,-31.876356399703745
7.98,2.9,4.68,-0.3441761091575844,-0.1067856956896153,0.1183612129601954,-35.39602326525133,48.862365423932296,-31.876356399703745
7.99,2.54,4.71,-0.086705797095161,0.1602347271746944,0.191942155402879,-35.45617049212599,48.79944259465472,-31.804859125621785
7.99,2.54,4.71,-0.086705797095161,0.1602347271746944,0.191942155402879,-35.45617049212599,48.79944259465472,-31.804859125621785
8.08,2.45,4.47,0.1644010472021074,0.0256898572473986,0.2545762813296175,-35.51632781311482,48.64849167574625,-31.85252256097231
8.08,2.45,4.47,0.1644010472021074,0.0256898572473986,0.2545762813296175,-35.51632781311482,48.64849167574625,-31.85252256097231
7.89,2.77,4.77,-0.3090064031536288,0.0725486443272078,0.1849478773495416,-35.4802322080149,48.7113769507911,-31.721461697138416
7.89,2.77,4.77,-0.3090064031536288,0.0725486443272078,0.1849478773495416,-35.4802322080149,48.7113769507911,-31.721461697138416
7.75,2.69,5.12,-0.4646138380852939,0.410884689008961,0.1563490848058197,-35.55242705989692,48.54790766181375,-31.59044340777591
7.75,2.69,5.12,-0.4646138380852939,0.410884689008961,0.1563490848058197,-35.55242705989692,48.54790766181375,-31.59044340777591
7.93,2.74,4.84,-0.1786548045238576,0.1105712945637904,0.122954607762642,-35.540393572715686,48.03303658033746,-31.495183998739208
7.93,2.74,4.84,-0.1786548045238576,0.1105712945637904,0.122954607762642,-35.540393572715686,48.03303658033746,-31.495183998739208
8.29,2.56,4.14,0.5244446500876507,-0.3776216874172127,0.2150046943088739,-35.4802322080149,47.71959673028522,-31.578534757977327
8.29,2.56,4.14,0.5244446500876507,-0.3776216874172127,0.2150046943088739,-35.4802322080149,47.71959673028522,-31.578534757977327
7.96,3.46,4.61,-0.5759769275470462,-0.5843775896404646,0.0131800627581686,-35.03535067049245,48.34685890896744,-31.15005518797356
7.96,3.46,4.61,-0.5759769275470462,-0.5843775896404646,0.0131800627581686,-35.03535067049245,48.34685890896744,-31.15005518797356
7.57,2.51,5.23,-0.496890583052585,0.6283774078487445,0.303169501688922,-35.15553486649333,48.79944259465472,-30.93598315774567
7.57,2.51,5.23,-0.496890583052585,0.6283774078487445,0.303169501688922,-35.15553486649333,48.79944259465472,-30.93598315774567
7.79,2.43,4.85,-0.1239399019201278,0.3734090438183065,0.3220991626273246,-35.227664546585345,48.72395587995984,-30.99543647635929
7.79,2.43,4.85,-0.1239399019201278,0.3734090438183065,0.3220991626273246,-35.227664546585345,48.72395587995984,-30.99543647635929
8.35,2.63,4.18,0.4038973954437565,-0.383490589232335,0.121527292366192,-35.07140174532199,48.49763058758104,-31.00732816596471
8.35,2.63,4.18,0.4038973954437565,-0.383490589232335,0.121527292366192,-35.07140174532199,48.49763058758104,-31.00732816596471
8.04,2.82,4.55,-0.0819392358882146,-0.197307268196333,0.1500017303601151,-34.97527349807247,48.54790766181375,-30.94787313807167
8.04,2.82,4.55,-0.0819392358882146,-0.197307268196333,0.1500017303601151,-34.97527349807247,48.54790766181375,-30.94787313807167
7.88,2.43,5.1,-0.1969035597933727,0.4968552073056396,0.1255517208214449,-34.9993031752255,48.64849167574625,-30.971654123503782
7.88,2.43,5.1,-0.1969035597933727,0.4968552073056396,0.1255517208214449,-34.9993031752255,48.64849167574625,-30.971654123503782
8.09,3.22,4.52,-0.3501656984093047,-0.5167844386151152,0.0159800623673973,-34.80711013090355,48.72395587995984,-31.019220197898697
8.09,3.22,4.52,-0.3501656984093047,-0.5167844386151152,0.0159800623673973,-34.80711013090355,48.72395587995984,-31.019220197898697
7.88,2.8,5.11,-0.4671653284559043,0.2418143344646286,0.020446324236035,-34.93923195845143,48.67364391258275,-31.06679175207397
7.88,2.8,5.11,-0.4671653284559043,0.2418143344646286,0.020446324236035,-34.93923195845143,48.67364391258275,-31.06679175207397
8.01,2.44,4.81,0.0155561100567853,0.2551885606817441,0.1534413725053536,-34.9993031752255,48.61076799855758,-31.00732816596471
8.01,2.44,4.81,0.0155561100567853,0.2551885606817441,0.1534413725053536,-34.9993031752255,48.61076799855758,-31.00732816596471
8.03,2.44,4.6,0.1283010994632971,0.1136179500632617,0.2376829821187094,-35.01131860953798,48.6862209673472,-30.91220422108664
8.03,2.44,4.6,0.1283010994632971,0.1136179500632617,0.2376829821187094,-35.01131860953798,48.6862209673472,-30.91220422108664
8.35,2.88,4.09,0.2556015435512544,-0.6033386120163207,0.0950255030281148,-34.96325925488904,48.74911561441486,-30.781444422149058
8.35,2.88,4.09,0.2556015435512544,-0.6033386120163207,0.0950255030281148,-34.96325925488904,48.74911561441486,-30.781444422149058
7.78,3.05,4.91,-0.5942832270833396,-0.0112803346070315,0.1326797602246809,-34.92721890485463,48.96307461903554,-30.52004779633356
7.78,3.05,4.91,-0.5942832270833396,-0.0112803346070315,0.1326797602246809,-34.92721890485463,48.96307461903554,-30.52004779633356
7.91,2.93,4.62,-0.287758255403475,-0.151117947719015,0.194586821247773,-34.97527349807247,48.93789354543228,-30.48441543516209
7.91,2.93,4.62,-0.287758255403475,-0.151117947719015,0.194586821247773,-34.97527349807247,48.93789354543228,-30.48441543516209
8.02,2.5,4.36,0.2054739852799501,-0.0574225960203202,0.344383723529047,-34.97527349807247,48.92530395295319,-30.377536447956228
8.02,2.5,4.36,0.2054739852799501,-0.0574225960203202,0.344383723529047,-34.97527349807247,48.92530395295319,-30.377536447956228
8.02,2.78,4.8,-0.2199147442025092,0.0561374356861272,0.0579431065911624,-34.90319398604888,48.975666100652674,-30.35378924019512
8.02,2.78,4.8,-0.2199147442025092,0.0561374356861272,0.0579431065911624,-34.90319398604888,48.975666100652674,-30.35378924019512
8.17,3.0,4.54,-0.1583333045153687,-0.3152922878000275,-0.0033459907196213,-34.85514889719688,48.96307461903554,-30.401284991821623
8.17,3.0,4.54,-0.1583333045153687,-0.3152922878000275,-0.0033459907196213,-34.85514889719688,48.96307461903554,-30.401284991821623
8.15,2.62,4.68,0.012892790007662,0.0593735960446959,0.0503387835586899,-34.96325925488904,48.96307461903554,-30.47253865250361
8.15,2.62,4.68,0.012892790007662,0.0593735960446959,0.0503387835586899,-34.96325925488904,48.96307461903554,-30.47253865250361
7.88,2.48,4.9,-0.1307184044736719,0.3602177753651494,0.2093610154459337,-35.03535067049245,48.84977960308056,-30.531925921642927
7.88,2.48,4.9,-0.1307184044736719,0.3602177753651494,0.2093610154459337,-35.03535067049245,48.84977960308056,-30.531925921642927
7.91,2.53,4.9,-0.1274610162578286,0.2997649921460992,0.1695915982459581,-34.96325925488904,48.69879864666847,-30.54380438300529
7.91,2.53,4.9,-0.1274610162578286,0.2997649921460992,0.1695915982459581,-34.96325925488904,48.69879864666847,-30.54380438300529
8.4,3.13,4.32,0.0208181104815868,-0.6401304027851396,-0.1235614616812714,-34.73506381234489,48.7113769507911,-30.47253865250361
8.4,3.13,4.32,0.0208181104815868,-0.6401304027851396,-0.1235614616812714,-34.73506381234489,48.7113769507911,-30.47253865250361
7.92,2.96,4.59,-0.2611384739171554,-0.2331379191329279,0.1924129835694934,-34.699045966979874,48.83719440997261,-30.28255562108873
7.92,2.96,4.59,-0.2611384739171554,-0.2331379191329279,0.1924129835694934,-34.699045966979874,48.83719440997261,-30.28255562108873
7.73,2.48,4.87,-0.1838002854037336,0.3560356481977336,0.3483385189639723,-34.85514889719688,48.887538949850274,-30.235073199393444
7.73,2.48,4.87,-0.1838002854037336,0.3560356481977336,0.3483385189639723,-34.85514889719688,48.887538949850274,-30.235073199393444
7.85,3.08,4.72,-0.4501454073086649,-0.1880922004298053,0.1552619943079491,-34.80711013090355,48.90012665540839,-30.22320342475908
7.85,3.08,4.72,-0.4501454073086649,-0.1880922004298053,0.1552619943079491,-34.80711013090355,48.90012665540839,-30.22320342475908
8.23,2.8,4.48,0.0656350959450576,-0.2408962216182711,0.0300984073068839,-34.77108519878443,48.87495187277357,-30.22320342475908
8.23,2.8,4.48,0.0656350959450576,-0.2408962216182711,0.0300984073068839,-34.77108519878443,48.87495187277357,-30.22320342475908
8.22,2.62,4.38,0.2347729210444054,-0.1906419614903607,0.1357794436300405,-34.77108519878443,48.84977960308056,-30.270684516880635
8.22,2.62,4.38,0.2347729210444054,-0.1906419614903607,0.1357794436300405,-34.77108519878443,48.84977960308056,-30.270684516880635
7.94,2.47,4.79,-0.0471347771728252,0.2491224640427474,0.213719461802082,-34.71105152226627,48.975666100652674,-30.306298828005648
7.94,2.47,4.79,-0.0471347771728252,0.2491224640427474,0.213719461802082,-34.71105152226627,48.975666100652674,-30.306298828005648
7.92,2.47,4.78,-0.0433769723687116,0.2517110317409863,0.2353146702370701,-34.80711013090355,48.90012665540839,-30.377536447956228
7.92,2.47,4.78,-0.0433769723687116,0.2517110317409863,0.2353146702370701,-34.80711013090355,48.90012665540839,-30.377536447956228
8.06,2.78,4.74,-0.1547039153340524,-0.0188931499216473,0.0529168814721874,-34.747070547478,48.90012665540839,-30.294427058078604
8.06,2.78,4.74,-0.1547039153340524,-0.0188931499216473,0.0529168814721874,-34.747070547478,48.90012665540839,-30.294427058078604
8.09,2.89,4.68,-0.1831970616559566,-0.1369841887336704,0.0265541840768452,-34.71105152226627,48.96307461903554,-30.16385952856291
8.09,2.89,4.68,-0.1831970616559566,-0.1369841887336704,0.0265541840768452,-34.71105152226627,48.96307461903554,-30.16385952856291
7.79,2.8,4.78,-0.3183668537660299,0.0633391622752266,0.2532667931488586,-34.795101425948374,48.92530395295319,-30.080791981197944
7.79,2.8,4.78,-0.3183668537660299,0.0633391622752266,0.2532667931488586,-34.795101425948374,48.92530395295319,-30.080791981197944
7.98,2.62,4.66,-0.0361030392183743,0.0670293461481368,0.2017239910546849,-34.80711013090355,48.91271498969397,-30.128257166842047
7.98,2.62,4.66,-0.0361030392183743,0.0670293461481368,0.2017239910546849,-34.80711013090355,48.91271498969397,-30.128257166842047
8.06,3.1,4.63,-0.3233365576173416,-0.3143385866965311,0.0185375811818655,-34.66303165808797,49.02603833164671,-30.15199174363297
8.06,3.1,4.63,-0.3233365576173416,-0.3143385866965311,0.0185375811818655,-34.66303165808797,49.02603833164671,-30.15199174363297
8.19,2.5,4.52,0.2085411739179224,0.0033981763474106,0.1261025448620181,-34.747070547478,48.98825821247561,-30.22320342475908
8.19,2.5,4.52,0.2085411739179224,0.0033981763474106,0.1261025448620181,-34.747070547478,48.98825821247561,-30.22320342475908
7.98,2.29,4.62,0.1917217340051247,0.2682613657915152,0.3113786180786935,-34.85514889719688,48.96307461903554,-30.258813745298948
7.98,2.29,4.62,0.1917217340051247,0.2682613657915152,0.3113786180786935,-34.85514889719688,48.96307461903554,-30.258813745298948
7.88,2.59,5.04,-0.28244400573654,0.3699952403525939,0.1119386115294816,-34.795101425948374,48.96307461903554,-30.235073199393444
7.88,2.59,5.04,-0.28244400573654,0.3699952403525939,0.1119386115294816,-34.795101425948374,48.96307461903554,-30.235073199393444
8.36,2.96,4.43,0.0535421750555961,-0.4204306758005163,-0.0977162736358963,-34.699045966979874,48.862365423932296,-30.21133398212997
8.36,2.96,4.43,0.0535421750555961,-0.4204306758005163,-0.0977162736358963,-34.699045966979874,48.862365423932296,-30.21133398212997
7.93,2.77,4.6,-0.1260779106765931,-0.0769743707141878,0.2308482420952043,-34.795101425948374,48.84977960308056,-30.17572764472251
7.93,2.77,4.6,-0.1260779106765931,-0.0769743707141878,0.2308482420952043,-34.795101425948374,48.84977960308056,-30.17572764472251
7.84,2.58,4.66,-0.0842086473446257,0.1156620392665772,0.3294599525025301,-34.80711013090355,48.90012665540839,-30.187596092266823
7.84,2.58,4.66,-0.0842086473446257,0.1156620392665772,0.3294599525025301,-34.80711013090355,48.90012665540839,-30.187596092266823
7.94,2.83,4.87,-0.3119288389784665,0.0625782660000089,0.0768923277844173,-34.71105152226627,48.91271498969397,-30.15199174363297
7.94,2.83,4.87,-0.3119288389784665,0.0625782660000089,0.0768923277844173,-34.71105152226627,48.91271498969397,-30.15199174363297
8.28,2.82,4.43,0.1191143350765173,-0.3115423710793117,0.0074432399504082,-34.723057470664465,48.78685991006569,-30.21133398212997
8.28,2.82,4.43,0.1191143350765173,-0.3115423710793117,0.0074432399504082,-34.723057470664465,48.78685991006569,-30.21133398212997
7.81,2.57,4.82,-0.1704442343097444,0.2381922764651312,0.2804958335788559,-34.80711013090355,48.862365423932296,-30.187596092266823
7.81,2.57,4.82,-0.1704442343097444,0.2381922764651312,0.2804958335788559,-34.80711013090355,48.862365423932296,-30.187596092266823
7.91,2.81,4.82,-0.2901142837622146,0.055824539929745,0.1314591841504864,-34.75907767623433,48.93789354543228,-30.14012428977767
7.91,2.81,4.82,-0.2901142837622146,0.055824539929745,0.1314591841504864,-34.75907767623433,48.93789354543228,-30.14012428977767
8.17,2.85,4.57,-0.0460477627051498,-0.1988518540795465,0.023264208584079,-34.747070547478,48.90012665540839,-30.15199174363297
8.17,2.85,4.57,-0.0460477627051498,-0.1988518540795465,0.023264208584079,-34.747070547478,48.90012665540839,-30.15199174363297
8.04,2.73,4.49,0.0133829701090282,-0.1414219997469894,0.2027747033242555,-34.80711013090355,48.887538949850274,-30.14012428977767
8.04,2.73,4.49,0.0133829701090282,-0.1414219997469894,0.2027747033242555,-34.80711013090355,48.887538949850274,-30.14012428977767
7.96,2.44,4.89,-0.0558118658052295,0.3615241556127844,0.1581534683872245,-34.85514889719688,48.95048376737758,-30.21133398212997
7.96,2.44,4.89,-0.0558118658052295,0.3615241556127844,0.1581534683872245,-34.85514889719688,48.95048376737758,-30.21133398212997
7.96,2.62,4.72,-0.0913215371122486,0.1117429500336448,0.1898119598759393,-34.80711013090355,48.96307461903554,-30.21133398212997
7.96,2.62,4.72,-0.0913215371122486,0.1117429500336448,0.1898119598759393,-34.80711013090355,48.96307461903554,-30.21133398212997
8.13,2.75,4.52,0.0185877047383354,-0.1542857273869762,0.1079052146395138,-34.77108519878443,48.93789354543228,-30.187596092266823
8.13,2.75,4.52,0.0185877047383354,-0.1542857273869762,0.1079052146395138,-34.77108519878443,48.93789354543228,-30.187596092266823
8.0,2.61,4.61,0.0025107266372317,0.0388068771282656,0.2117196864156785,-34.843138613311,48.92530395295319,-30.17572764472251
8.0,2.61,4.61,0.0025107266372317,0.0388068771282656,0.2117196864156785,-34.843138613311,48.92530395295319,-30.17572764472251
7.94,2.7,4.81,-0.1754287202639554,0.1150602787448564,0.1409536517609488,-34.80711013090355,48.79944259465472,-30.187596092266823
7.94,2.7,4.81,-0.1754287202639554,0.1150602787448564,0.1409536517609488,-34.80711013090355,48.79944259465472,-30.187596092266823
8.15,2.9,4.46,-0.0184665644141249,-0.3166847198590226,0.0791904254653133,-34.73506381234489,48.79944259465472,-30.17572764472251
8.15,2.9,4.46,-0.0184665644141249,-0.3166847198590226,0.0791904254653133,-34.73506381234489,48.79944259465472,-30.17572764472251
7.9,2.84,4.68,-0.2324794479864264,-0.0630250847005744,0.1983212616104541,-34.77108519878443,48.887538949850274,-30.128257166842047
7.9,2.84,4.68,-0.2324794479864264,-0.0630250847005744,0.1983212616104541,-34.77108519878443,48.887538949850274,-30.128257166842047
7.98,2.49,4.82,-0.0144679017415793,0.2675829402790037,0.1608690544315791,-34.85514889719688,48.79944259465472,-30.15199174363297
7.98,2.49,4.82,-0.0144679017415793,0.2675829402790037,0.1608690544315791,-34.85514889719688,48.79944259465472,-30.15199174363297
8.1,2.79,4.71,-0.0813542664103118,-0.0546149851863353,0.0307306730655785,-34.747070547478,48.72395587995984,-30.080791981197944
8.1,2.79,4.71,-0.0813542664103118,-0.0546149851863353,0.0307306730655785,-34.747070547478,48.72395587995984,-30.080791981197944
7.97,2.86,4.68,-0.1775942237354542,-0.1048161027593668,0.133988842061191,-34.699045966979874,48.72395587995984,-30.021467926252928
7.97,2.86,4.68,-0.1775942237354542,-0.1048161027593668,0.133988842061191,-34.699045966979874,48.72395587995984,-30.021467926252928
7.93,2.7,4.45,0.0316876368509809,-0.1430217384817582,0.3221394340302144,-34.747070547478,48.7113769507911,-30.021467926252928
7.93,2.7,4.45,0.0316876368509809,-0.1430217384817582,0.3221394340302144,-34.747070547478,48.7113769507911,-30.021467926252928
7.77,2.86,4.99,-0.4490105309685197,0.1527943966523308,0.1512036915463603,-34.71105152226627,48.74911561441486,-30.021467926252928
7.77,2.86,4.99,-0.4490105309685197,0.1527943966523308,0.1512036915463603,-34.71105152226627,48.74911561441486,-30.021467926252928
7.94,2.88,4.71,-0.2253137154475223,-0.1022410995089047,0.1391332305704047,-34.63902408126335,48.72395587995984,-30.045196559032803
7.94,2.88,4.71,-0.2253137154475223,-0.1022410995089047,0.1391332305704047,-34.63902408126335,48.72395587995984,-30.045196559032803
8.17,2.48,4.47,0.3017953136805634,-0.0439065555637536,0.1740391491964121,-34.63902408126335,48.63591649318546,-30.06892651053725
8.17,2.48,4.47,0.3017953136805634,-0.0439065555637536,0.1740391491964121,-34.63902408126335,48.63591649318546,-30.06892651053725
7.91,2.64,4.79,-0.1158086233906019,0.1073136721237677,0.1912003413244552,-34.57901199780452,48.64849167574625,-30.116390374671145
7.91,2.64,4.79,-0.1158086233906019,0.1073136721237677,0.1912003413244552,-34.57901199780452,48.64849167574625,-30.116390374671145
7.81,2.61,5.01,-0.2649260521522313,0.3005772208925108,0.1760857630940666,-34.591013631336175,48.64849167574625,-30.15199174363297
7.81,2.61,5.01,-0.2649260521522313,0.3005772208925108,0.1760857630940666,-34.591013631336175,48.64849167574625,-30.15199174363297
8.28,2.75,4.3,0.2493511737159238,-0.4045314131506175,0.0914516835506234,-34.375043949019776,48.7113769507911,-30.09265778200395
8.28,2.75,4.3,0.2493511737159238,-0.4045314131506175,0.0914516835506234,-34.375043949019776,48.7113769507911,-30.09265778200395
8.13,2.44,4.49,0.2893357357337067,-0.0167492896267631,0.2083895173227112,-34.48301299993159,48.66106748213056,-30.080791981197944
8.13,2.44,4.49,0.2893357357337067,-0.0167492896267631,0.2083895173227112,-34.48301299993159,48.66106748213056,-30.080791981197944
7.84,2.57,4.87,-0.1617286815011342,0.2117420164712045,0.229781558174114,-34.411030131340006,48.76169642019097,-30.009604103998093
7.84,2.57,4.87,-0.1617286815011342,0.2117420164712045,0.229781558174114,-34.411030131340006,48.76169642019097,-30.009604103998093
7.78,2.8,4.97,-0.4195494482002682,0.1159004013138058,0.169230980496378,-34.23113412634732,48.887538949850274,-29.96215210560615
7.78,2.8,4.97,-0.4195494482002682,0.1159004013138058,0.169230980496378,-34.23113412634732,48.887538949850274,-29.96215210560615
8.01,3.15,4.68,-0.3753914413099495,-0.384613355286231,0.0242089021591009,-34.18317656247093,48.82460984436268,-30.021467926252928
8.01,3.15,4.68,-0.3753914413099495,-0.384613355286231,0.0242089021591009,-34.18317656247093,48.82460984436268,-30.021467926252928
8.26,2.67,4.48,0.2001906758394127,-0.2327762594377962,0.0428065504997405,-34.30308206548676,48.6862209673472,-30.10452391311007
8.26,2.67,4.48,0.2001906758394127,-0.2327762594377962,0.0428065504997405,-34.30308206548676,48.6862209673472,-30.10452391311007
7.85,2.37,4.95,-0.0597488901532036,0.3912069111280543,0.2366297689445247,-34.39903434859307,48.6862209673472,-30.128257166842047
7.85,2.37,4.95,-0.0597488901532036,0.3912069111280543,0.2366297689445247,-34.39903434859307,48.6862209673472,-30.128257166842047
