,TIME,ELAPSED_SECONDS,PSTATE,acc_x,acc_y,acc_z,mag_x,mag_y,mag_z,gyr_x,gyr_y,gyr_z,lin_x,lin_y,lin_z,eul_x,eul_y,eul_z,qua_w,qua_x,qua_y,qua_z
0,781172.0,741.719149,1.0,5.57,-0.84,-8.28,-20.06,-17.69,33.5,-1.88,-1.0,0.81,-0.18181328670380945,0.09218475363220584,-0.20570965694279764,-144.1275913572786,-5.7663887448030415,-34.56701075551299,0.0633,-0.9514,-0.0503,-0.2971
1,781172.0,741.719149,1.0,5.57,-0.84,-8.28,-20.06,-17.69,33.5,-1.88,-1.0,0.81,-0.18181328670380945,0.09218475363220584,-0.20570965694279764,-144.1275913572786,-5.7663887448030415,-34.56701075551299,0.0633,-0.9514,-0.0503,-0.2971
2,781207.0,741.7533129999999,1.0,5.44,-0.78,-7.87,-20.06,-17.69,32.69,-1.19,-2.06,1.0,-0.0383498481483322,0.09257045880783156,0.20827201206354395,-144.23939029133862,-5.7319679651977244,-34.49501150829637,0.063,-0.9517,-0.05,-0.2965
3,781207.0,741.7533129999999,1.0,5.44,-0.78,-7.87,-20.06,-17.69,32.69,-1.19,-2.06,1.0,-0.0383498481483322,0.09257045880783156,0.20827201206354395,-144.23939029133862,-5.7319679651977244,-34.49501150829637,0.063,-0.9517,-0.05,-0.2965
4,781244.0,741.822657,1.0,5.54,-0.74,-7.98,-20.06,-17.69,32.69,-0.81,2.13,0.5,-0.018682495432305404,0.13929624405437846,0.06499472377733895,-144.20208645663692,-5.697547703194251,-34.53100937438062,0.0627,-0.9516,-0.0497,-0.2968
5,781244.0,741.822657,1.0,5.54,-0.74,-7.98,-20.06,-17.69,32.69,-0.81,2.13,0.5,-0.018682495432305404,0.13929624405437846,0.06499472377733895,-144.20208645663692,-5.697547703194251,-34.53100937438062,0.0627,-0.9516,-0.0497,-0.2968
6,781277.0,741.831384,1.0,5.48,-0.75,-8.12,-20.5,-17.0,34.0,-0.19,0.88,-1.44,-0.15991876003882236,0.15341823418460965,-0.015681130419464395,-144.1275913572786,-5.720494487173099,-34.60301565627788,0.0627,-0.9514,-0.0499,-0.2974
7,781277.0,741.831384,1.0,5.48,-0.75,-8.12,-20.5,-17.0,34.0,-0.19,0.88,-1.44,-0.15991876003882236,0.15341823418460965,-0.015681130419464395,-144.1275913572786,-5.720494487173099,-34.60301565627788,0.0627,-0.9514,-0.0499,-0.2974
8,781312.0,741.851099,1.0,5.44,-0.88,-7.96,-20.37,-18.5,33.5,1.75,0.37,-2.31,-0.12348654792510808,0.0030522076273150627,0.12603319338534116,-144.09039985888563,-5.812283928177061,-34.61501807279963,0.0629,-0.9513,-0.0507,-0.2975
9,781312.0,741.851099,1.0,5.44,-0.88,-7.96,-20.37,-18.5,33.5,1.75,0.37,-2.31,-0.12348654792510808,0.0030522076273150627,0.12603319338534116,-144.09039985888563,-5.812283928177061,-34.61501807279963,0.0629,-0.9513,-0.0507,-0.2975
10,781348.0,741.854511,1.0,5.48,-0.74,-7.81,-20.06,-17.69,33.19,1.75,4.19,-1.69,-0.0026202998332799893,0.12060796614609964,0.2379747075401877,-143.97904817901198,-5.8581800447136345,-34.699045966979874,0.0632,-0.951,-0.0511,-0.2982
11,781348.0,741.854511,1.0,5.48,-0.74,-7.81,-20.06,-17.69,33.19,1.75,4.19,-1.69,-0.0026202998332799893,0.12060796614609964,0.2379747075401877,-143.97904817901198,-5.8581800447136345,-34.699045966979874,0.0632,-0.951,-0.0511,-0.2982
12,781381.0,741.9012389999999,1.0,5.47,0.81,-7.73,-20.06,-17.69,33.19,3.44,6.06,-7.94,0.20561027379367114,1.6344541864848552,0.44629830107369095,-143.64697188895283,-6.2024314124588535,-34.96325925488904,0.0638,-0.9501,-0.0541,-0.3004
13,781381.0,741.9012389999999,1.0,5.47,0.81,-7.73,-20.06,-17.69,33.19,3.44,6.06,-7.94,0.20561027379367114,1.6344541864848552,0.44629830107369095,-143.64697188895283,-6.2024314124588535,-34.96325925488904,0.0638,-0.9501,-0.0541,-0.3004
14,781418.0,741.92045,1.0,5.84,1.55,-7.12,-19.37,-17.69,33.5,81.56,25.19,-69.19,0.9303087360191044,2.2931340920554777,0.8022865193568816,-142.48926046846375,-8.073924421552888,-35.528360490512846,0.0732,-0.9469,-0.0704,-0.3051
15,781418.0,741.92045,1.0,5.84,1.55,-7.12,-19.37,-17.69,33.5,81.56,25.19,-69.19,0.9303087360191044,2.2931340920554777,0.8022865193568816,-142.48926046846375,-8.073924421552888,-35.528360490512846,0.0732,-0.9469,-0.0704,-0.3051
16,781455.0,741.923754,1.0,6.23,-0.85,-6.07,-20.06,-17.69,34.0,169.94,70.5,-130.44,1.0417789403516668,-0.10724561361701652,1.130043807611198,-138.00625925895054,-13.738036026791262,-37.41052638436744,0.106,-0.9336,-0.1196,-0.3207
17,781455.0,741.923754,1.0,6.23,-0.85,-6.07,-20.06,-17.69,34.0,169.94,70.5,-130.44,1.0417789403516668,-0.10724561361701652,1.130043807611198,-138.00625925895054,-13.738036026791262,-37.41052638436744,0.106,-0.9336,-0.1196,-0.3207
18,781490.0,741.986938,1.0,6.71,-2.46,-5.85,-20.06,-17.69,34.0,79.06,90.62,-96.31,0.5093841932416003,-1.5954322234589229,0.7240664598378448,-133.61881240543406,-17.532071555357696,-39.79030547860814,0.1269,-0.9192,-0.1524,-0.3403
19,781490.0,741.986938,1.0,6.71,-2.46,-5.85,-20.06,-17.69,34.0,79.06,90.62,-96.31,0.5093841932416003,-1.5954322234589229,0.7240664598378448,-133.61881240543406,-17.532071555357696,-39.79030547860814,0.1269,-0.9192,-0.1524,-0.3403
20,781522.0,741.989951,1.0,7.2,-2.63,-6.41,-19.69,-15.5,35.19,81.06,124.56,-73.31,-0.4300062757911153,-1.3098381518080666,-0.09003725477613322,-127.5070627749377,-20.727870288694774,-44.19699919021153,0.1473,-0.8969,-0.1799,-0.3762
21,781522.0,741.989951,1.0,7.2,-2.63,-6.41,-19.69,-15.5,35.19,81.06,124.56,-73.31,-0.4300062757911153,-1.3098381518080666,-0.09003725477613322,-127.5070627749377,-20.727870288694774,-44.19699919021153,0.1473,-0.8969,-0.1799,-0.3762
22,781559.0,742.031584,1.0,7.96,-3.0,-5.38,-21.56,-15.19,34.38,30.19,176.38,-44.19,-0.27826499171557284,-1.906302729735984,-0.07234683657134511,-122.54128756505699,-21.81220160634161,-48.73653543441946,0.1581,-0.8769,-0.1892,-0.4126
23,781559.0,742.031584,1.0,7.96,-3.0,-5.38,-21.56,-15.19,34.38,30.19,176.38,-44.19,-0.27826499171557284,-1.906302729735984,-0.07234683657134511,-122.54128756505699,-21.81220160634161,-48.73653543441946,0.1581,-0.8769,-0.1892,-0.4126
24,781596.0,742.094721,1.0,8.61,-3.32,-3.44,-25.25,-14.69,31.5,-15.94,218.81,-8.25,0.07052997504895386,-2.6294655160367593,0.3161791674968466,-115.3438717556755,-20.797769475573414,-56.71870005631496,0.1663,-0.845,-0.1805,-0.475
25,781596.0,742.094721,1.0,8.61,-3.32,-3.44,-25.25,-14.69,31.5,-15.94,218.81,-8.25,0.07052997504895386,-2.6294655160367593,0.3161791674968466,-115.3438717556755,-20.797769475573414,-56.71870005631496,0.1663,-0.845,-0.1805,-0.475
26,781631.0,742.1175820000001,1.0,10.12,-0.94,-4.49,-25.25,-14.69,31.5,-90.37,242.13,18.69,-0.11267421151054093,0.24010018900283006,-1.3013541601226102,-109.71042658552565,-18.03080801097451,-63.929848409462785,0.1624,-0.8177,-0.1567,-0.5294
27,781631.0,742.1175820000001,1.0,10.12,-0.94,-4.49,-25.25,-14.69,31.5,-90.37,242.13,18.69,-0.11267421151054093,0.24010018900283006,-1.3013541601226102,-109.71042658552565,-18.03080801097451,-63.929848409462785,0.1624,-0.8177,-0.1567,-0.5294
28,781668.0,742.161026,1.0,10.6,-0.67,-4.7,-29.37,-14.38,25.25,-82.81,177.31,20.0,-1.4529357097030673,1.0438609155834204,-1.6693350214431284,-103.36739654993116,-14.338412369029564,-71.95960119494845,0.1537,-0.7846,-0.1248,-0.5875
29,781668.0,742.161026,1.0,10.6,-0.67,-4.7,-29.37,-14.38,25.25,-82.81,177.31,20.0,-1.4529357097030673,1.0438609155834204,-1.6693350214431284,-103.36739654993116,-14.338412369029564,-71.95960119494845,0.1537,-0.7846,-0.1248,-0.5875
30,781703.0,742.178605,1.0,10.56,-2.39,-3.18,-35.88,-15.5,19.5,-91.0,115.81,26.81,-1.3874701740281004,-0.9116042883735122,-1.3549808905823184,-100.27771483475884,-11.697182904814724,-76.04923610928397,0.1443,-0.7676,-0.1019,-0.616
31,781703.0,742.178605,1.0,10.56,-2.39,-3.18,-35.88,-15.5,19.5,-91.0,115.81,26.81,-1.3874701740281004,-0.9116042883735122,-1.3549808905823184,-100.27771483475884,-11.697182904814724,-76.04923610928397,0.1443,-0.7676,-0.1019,-0.616
32,781737.0,742.21383,1.0,9.92,0.4,-2.88,-35.88,-15.5,19.5,-132.69,34.31,29.06,-0.8054962266674073,1.6742260632055777,-0.36236877853058935,-99.15787486810976,-6.822227205491183,-78.8696393433536,0.1159,-0.7613,-0.0595,-0.6352
33,781737.0,742.21383,1.0,9.92,0.4,-2.88,-35.88,-15.5,19.5,-132.69,34.31,29.06,-0.8054962266674073,1.6742260632055777,-0.36236877853058935,-99.15787486810976,-6.822227205491183,-78.8696393433536,0.1159,-0.7613,-0.0595,-0.6352
34,781772.0,742.288142,1.0,9.9,-0.7,-2.41,-38.06,-17.0,13.38,-70.5,-15.69,27.0,-0.5189279566152045,0.5219879622069095,-0.3799265762180468,-100.0812477423364,-3.977125506843028,-78.61764169313197,0.1002,-0.7665,-0.0347,-0.6335
35,781772.0,742.288142,1.0,9.9,-0.7,-2.41,-38.06,-17.0,13.38,-70.5,-15.69,27.0,-0.5189279566152045,0.5219879622069095,-0.3799265762180468,-100.0812477423364,-3.977125506843028,-78.61764169313197,0.1002,-0.7665,-0.0347,-0.6335
36,781809.0,742.309114,1.0,9.57,-1.2,-2.36,-38.06,-17.0,10.5,-49.94,-69.12,21.81,-0.28008141802550834,-0.024632378387302367,-0.11884483125208335,-102.11916897408959,-2.544141615361497,-76.83688424157663,0.0912,-0.7778,-0.0222,-0.6214
37,781809.0,742.309114,1.0,9.57,-1.2,-2.36,-38.06,-17.0,10.5,-49.94,-69.12,21.81,-0.28008141802550834,-0.024632378387302367,-0.11884483125208335,-102.11916897408959,-2.544141615361497,-76.83688424157663,0.0912,-0.7778,-0.0222,-0.6214
38,781844.0,742.31241,1.0,9.39,-2.06,-2.69,-38.06,-17.0,10.5,-63.81,-89.06,36.88,-0.10894293138015568,-0.796832910349112,-0.14347506206263286,-105.70811662886265,-0.4125305035633525,-73.48218124573529,0.0823,-0.7971,-0.0036,-0.5982
39,781844.0,742.31241,1.0,9.39,-2.06,-2.69,-38.06,-17.0,10.5,-63.81,-89.06,36.88,-0.10894293138015568,-0.796832910349112,-0.14347506206263286,-105.70811662886265,-0.4125305035633525,-73.48218124573529,0.0823,-0.7971,-0.0036,-0.5982
40,781879.0,742.359605,1.0,9.33,-0.43,-3.1,-38.88,-16.56,12.19,-75.06,-74.75,37.63,0.06920655028852157,0.8998758132630521,0.007199302430196397,-108.25050517877196,1.6730962049034406,-71.06997715893745,0.0729,-0.8103,0.0146,-0.5812
41,781879.0,742.359605,1.0,9.33,-0.43,-3.1,-38.88,-16.56,12.19,-75.06,-74.75,37.63,0.06920655028852157,0.8998758132630521,0.007199302430196397,-108.25050517877196,1.6730962049034406,-71.06997715893745,0.0729,-0.8103,0.0146,-0.5812
42,781916.0,742.377289,1.0,9.26,-0.63,-3.65,-37.69,-15.88,14.25,-41.44,-90.69,23.06,0.12888816850593302,0.771423718714815,-0.1359499258857504,-111.80810781092319,3.2319104185008167,-67.55923990117556,0.0659,-0.8281,0.0282,-0.556
43,781916.0,742.377289,1.0,9.26,-0.63,-3.65,-37.69,-15.88,14.25,-41.44,-90.69,23.06,0.12888816850593302,0.771423718714815,-0.1359499258857504,-111.80810781092319,3.2319104185008167,-67.55923990117556,0.0659,-0.8281,0.0282,-0.556
44,781950.0,742.471864,1.0,8.95,-1.25,-4.31,-37.69,-16.06,16.69,-34.19,-112.12,23.56,-0.056706962846127175,0.2015859886065161,-0.20320751195102105,-114.9378688809502,3.942727502383202,-64.38967098038597,0.0641,-0.8431,0.0344,-0.5328
45,781950.0,742.471864,1.0,8.95,-1.25,-4.31,-37.69,-16.06,16.69,-34.19,-112.12,23.56,-0.056706962846127175,0.2015859886065161,-0.20320751195102105,-114.9378688809502,3.942727502383202,-64.38967098038597,0.0641,-0.8431,0.0344,-0.5328
46,781985.0,742.548534,1.0,8.4,-0.84,-4.19,-37.69,-16.06,16.69,-31.87,-116.12,19.75,0.5762036659636635,0.5518374551784095,0.41595435173238826,-119.46918424877704,4.997776256010228,-59.80162063871753,0.0597,-0.8637,0.0436,-0.4985
47,781985.0,742.548534,1.0,8.4,-0.84,-4.19,-37.69,-16.06,16.69,-31.87,-116.12,19.75,0.5762036659636635,0.5518374551784095,0.41595435173238826,-119.46918424877704,4.997776256010228,-59.80162063871753,0.0597,-0.8637,0.0436,-0.4985
48,782020.0,742.60771,1.0,7.84,-0.37,-4.67,-36.88,-15.38,19.56,-8.75,-78.56,3.0,0.30676544813829304,0.9721460125840938,0.7307353303898161,-122.18470178965723,5.101008867683621,-57.0836297204198,0.0591,-0.8754,0.0445,-0.4778
49,782020.0,742.60771,1.0,7.84,-0.37,-4.67,-36.88,-15.38,19.56,-8.75,-78.56,3.0,0.30676544813829304,0.9721460125840938,0.7307353303898161,-122.18470178965723,5.101008867683621,-57.0836297204198,0.0591,-0.8754,0.0445,-0.4778
50,782057.0,742.645174,1.0,8.05,-0.24,-6.43,-34.19,-15.25,20.75,35.94,-60.44,-22.06,-0.6553496014021654,1.2498766300468047,-0.4018428030343895,-124.40467458524144,4.206454848857137,-54.8516623694969,0.0629,-0.8846,0.0367,-0.4606
51,782057.0,742.645174,1.0,8.05,-0.24,-6.43,-34.19,-15.25,20.75,35.94,-60.44,-22.06,-0.6553496014021654,1.2498766300468047,-0.4018428030343895,-124.40467458524144,4.206454848857137,-54.8516623694969,0.0629,-0.8846,0.0367,-0.4606
52,782092.0,742.651703,1.0,8.35,-1.81,-6.08,-34.19,-15.25,20.75,62.5,-113.37,-26.19,0.2378386549578344,-0.2357085719841299,-0.6744221895854281,-126.83731618493427,2.544141615361497,-52.309870853255504,0.0735,-0.8943,0.0222,-0.4408
53,782092.0,742.651703,1.0,8.35,-1.81,-6.08,-34.19,-15.25,20.75,62.5,-113.37,-26.19,0.2378386549578344,-0.2357085719841299,-0.6744221895854281,-126.83731618493427,2.544141615361497,-52.309870853255504,0.0735,-0.8943,0.0222,-0.4408
54,782127.0,742.669408,1.0,7.15,-0.12,-5.07,-32.69,-16.5,23.0,36.88,-90.62,-37.31,1.0009564806921112,1.1278596254433744,1.1713840058886902,-130.92785324394194,0.6990128451499703,-48.120868117186305,0.0792,-0.9097,0.0061,-0.4077
55,782127.0,742.669408,1.0,7.15,-0.12,-5.07,-32.69,-16.5,23.0,36.88,-90.62,-37.31,1.0009564806921112,1.1278596254433744,1.1713840058886902,-130.92785324394194,0.6990128451499703,-48.120868117186305,0.0792,-0.9097,0.0061,-0.4077
56,782161.0,742.672184,1.0,7.33,0.16,-6.67,-29.69,-15.25,26.19,113.06,-68.06,-80.06,0.3243867760454547,1.6579227038845967,0.0398969301476253,-132.41145409892673,-2.2919839967771853,-46.182918527144956,0.0927,-0.915,-0.02,-0.3922
57,782161.0,742.672184,1.0,7.33,0.16,-6.67,-29.69,-15.25,26.19,113.06,-68.06,-80.06,0.3243867760454547,1.6579227038845967,0.0398969301476253,-132.41145409892673,-2.2919839967771853,-46.182918527144956,0.0927,-0.915,-0.02,-0.3922
58,782198.0,742.674965,1.0,7.36,-2.15,-5.8,-28.19,-14.5,29.06,93.56,-76.25,-80.25,0.9680767934840686,-0.749427876985641,0.2707554337249309,-133.50255170239728,-7.430739554030821,-43.5175891368055,0.1191,-0.9188,-0.0648,-0.3707
59,782198.0,742.674965,1.0,7.36,-2.15,-5.8,-28.19,-14.5,29.06,93.56,-76.25,-80.25,0.9680767934840686,-0.749427876985641,0.2707554337249309,-133.50255170239728,-7.430739554030821,-43.5175891368055,0.1191,-0.9188,-0.0648,-0.3707
60,782233.0,742.734716,1.0,6.68,-1.63,-6.72,-28.19,-14.5,29.06,83.87,-64.62,-78.37,0.28315193678238315,-0.03180843760016805,0.1964203875508872,-134.2337582296838,-11.720221376139571,-41.03580078188174,0.1337,-0.9213,-0.1021,-0.3505
61,782233.0,742.734716,1.0,6.68,-1.63,-6.72,-28.19,-14.5,29.06,83.87,-64.62,-78.37,0.28315193678238315,-0.03180843760016805,0.1964203875508872,-134.2337582296838,-11.720221376139571,-41.03580078188174,0.1337,-0.9213,-0.1021,-0.3505
62,782270.0,742.7377769999999,1.0,6.61,-2.99,-6.84,-25.56,-13.38,32.0,74.06,-47.13,-56.75,-0.12687940417526214,-1.2078621217215408,-0.08995399893349365,-134.05726525899885,-14.523222401516824,-39.61974059674283,0.147,-0.9207,-0.1264,-0.3389
63,782270.0,742.7377769999999,1.0,6.61,-2.99,-6.84,-25.56,-13.38,32.0,74.06,-47.13,-56.75,-0.12687940417526214,-1.2078621217215408,-0.08995399893349365,-134.05726525899885,-14.523222401516824,-39.61974059674283,0.147,-0.9207,-0.1264,-0.3389
64,782307.0,742.778396,1.0,6.43,-2.35,-6.96,-21.87,-13.0,33.69,38.44,-48.31,-40.0,0.08659048426428201,-0.6062160242401832,0.06324175544874501,-134.38132917213414,-16.940979741891212,-37.81000260574194,0.1537,-0.9218,-0.1473,-0.324
65,782307.0,742.778396,1.0,6.43,-2.35,-6.96,-21.87,-13.0,33.69,38.44,-48.31,-40.0,0.08659048426428201,-0.6062160242401832,0.06324175544874501,-134.38132917213414,-16.940979741891212,-37.81000260574194,0.1537,-0.9218,-0.1473,-0.324
66,782340.0,742.832551,1.0,6.16,-1.71,-7.29,-21.87,-13.0,33.69,29.31,-58.75,-34.13,0.1552251264805734,0.0670824364962973,0.11205330354981767,-134.9462708023221,-18.402183827223173,-36.25106819831296,0.1561,-0.9237,-0.1599,-0.3111
67,782340.0,742.832551,1.0,6.16,-1.71,-7.29,-21.87,-13.0,33.69,29.31,-58.75,-34.13,0.1552251264805734,0.0670824364962973,0.11205330354981767,-134.9462708023221,-18.402183827223173,-36.25106819831296,0.1561,-0.9237,-0.1599,-0.3111
68,782374.0,742.8448480000001,1.0,5.96,-1.65,-6.54,-21.5,-12.25,36.5,41.75,-34.25,-42.06,0.5864038465711338,-0.19145199930683396,0.8269408365199276,-134.88648767208014,-20.54151049721856,-34.747070547477996,0.162,-0.9235,-0.1783,-0.2986
69,782374.0,742.8448480000001,1.0,5.96,-1.65,-6.54,-21.5,-12.25,36.5,41.75,-34.25,-42.06,0.5864038465711338,-0.19145199930683396,0.8269408365199276,-134.88648767208014,-20.54151049721856,-34.747070547477996,0.162,-0.9235,-0.1783,-0.2986
70,782411.0,742.901699,1.0,6.18,-2.24,-7.28,-18.5,-11.88,37.0,21.19,-16.12,-33.88,0.15676903850004664,-0.4736914674274472,0.010761073401546641,-134.3222466489682,-21.893896745024186,-34.30308206548676,0.1658,-0.9216,-0.1899,-0.2949
71,782411.0,742.901699,1.0,6.18,-2.24,-7.28,-18.5,-11.88,37.0,21.19,-16.12,-33.88,0.15676903850004664,-0.4736914674274472,0.010761073401546641,-134.3222466489682,-21.893896745024186,-34.30308206548676,0.1658,-0.9216,-0.1899,-0.2949
72,782446.0,742.918947,1.0,6.08,-1.2,-8.25,-16.56,-11.19,35.69,13.0,-28.19,-32.88,0.18462512647922452,0.7444529651290352,-0.48318009312511206,-134.1748557862076,-23.46000147463535,-33.46454755353707,0.1653,-0.9211,-0.2033,-0.2879
73,782446.0,742.918947,1.0,6.08,-1.2,-8.25,-16.56,-11.19,35.69,13.0,-28.19,-32.88,0.18462512647922452,0.7444529651290352,-0.48318009312511206,-134.1748557862076,-23.46000147463535,-33.46454755353707,0.1653,-0.9211,-0.2033,-0.2879
74,782481.0,742.9613059999999,1.0,5.75,-2.21,-8.53,-16.56,-11.19,35.69,46.38,-44.69,-43.0,-0.5047572730911154,0.06148837040834242,-0.7028190291929644,-133.85216386873807,-25.21840683143225,-32.23403459047365,0.1699,-0.92,-0.2183,-0.2776
75,782481.0,742.9613059999999,1.0,5.75,-2.21,-8.53,-16.56,-11.19,35.69,46.38,-44.69,-43.0,-0.5047572730911154,0.06148837040834242,-0.7028190291929644,-133.85216386873807,-25.21840683143225,-32.23403459047365,0.1699,-0.92,-0.2183,-0.2776
76,782518.0,742.985392,1.0,5.29,-2.91,-6.98,-17.25,-12.19,37.75,18.69,-28.87,-26.75,-0.38863420907784746,-1.1276461398206492,0.6551486130754451,-133.73534909546765,-26.94751777725,-30.781444422149058,0.1724,-0.9196,-0.233,-0.2654
77,782518.0,742.985392,1.0,5.29,-2.91,-6.98,-17.25,-12.19,37.75,18.69,-28.87,-26.75,-0.38863420907784746,-1.1276461398206492,0.6551486130754451,-133.73534909546765,-26.94751777725,-30.781444422149058,0.1724,-0.9196,-0.233,-0.2654
78,782555.0,743.032488,1.0,5.14,-2.29,-7.45,-14.25,-9.75,39.75,10.75,-8.63,-18.69,-0.34448258617360666,-0.40352364847861893,0.4854537026923591,-133.53159111803808,-27.737669605365127,-30.377536447956228,0.1719,-0.9189,-0.2397,-0.262
79,782555.0,743.032488,1.0,5.14,-2.29,-7.45,-14.25,-9.75,39.75,10.75,-8.63,-18.69,-0.34448258617360666,-0.40352364847861893,0.4854537026923591,-133.53159111803808,-27.737669605365127,-30.377536447956228,0.1719,-0.9189,-0.2397,-0.262
80,782587.0,743.0506320000001,1.0,5.44,-2.61,-7.45,-14.25,-9.75,39.75,13.0,4.31,-11.31,-0.30885149077638296,-0.732734875100732,0.2528072987903798,-132.92531640784813,-28.422768181257144,-30.34191613696452,0.1753,-0.9168,-0.2455,-0.2617
81,782587.0,743.0506320000001,1.0,5.44,-2.61,-7.45,-14.25,-9.75,39.75,13.0,4.31,-11.31,-0.30885149077638296,-0.732734875100732,0.2528072987903798,-132.92531640784813,-28.422768181257144,-30.34191613696452,0.1753,-0.9168,-0.2455,-0.2617
82,782622.0,743.0940009999999,1.0,5.79,-2.29,-7.77,-12.75,-9.88,39.0,2.13,14.56,-4.94,-0.07994880335663629,-0.4001435498431418,-0.1419475558548342,-132.3546807037213,-28.6474215027532,-30.793329976755963,0.1773,-0.9148,-0.2474,-0.2655
83,782622.0,743.0940009999999,1.0,5.79,-2.29,-7.77,-12.75,-9.88,39.0,2.13,14.56,-4.94,-0.07994880335663629,-0.4001435498431418,-0.1419475558548342,-132.3546807037213,-28.6474215027532,-30.793329976755963,0.1773,-0.9148,-0.2474,-0.2655
84,782659.0,743.150818,1.0,6.06,-2.34,-7.95,-13.88,-10.25,39.88,-2.69,16.12,2.44,-0.05291586580970853,-0.4078728273051456,-0.4516412645280123,-132.01536875371886,-28.552816976564145,-31.26903222594612,0.1783,-0.9136,-0.2466,-0.2695
85,782659.0,743.150818,1.0,6.06,-2.34,-7.95,-13.88,-10.25,39.88,-2.69,16.12,2.44,-0.05291586580970853,-0.4078728273051456,-0.4516412645280123,-132.01536875371886,-28.552816976564145,-31.26903222594612,0.1783,-0.9136,-0.2466,-0.2695
86,782694.0,743.218109,1.0,6.01,-1.4,-7.89,-13.88,-10.25,39.88,-7.94,12.63,-0.94,0.3814946537618096,0.35580178692646314,-0.1963528950096336,-131.93089302515688,-28.35184823709937,-31.685725223095478,0.1771,-0.9133,-0.2449,-0.273
87,782694.0,743.218109,1.0,6.01,-1.4,-7.89,-13.88,-10.25,39.88,-7.94,12.63,-0.94,0.3814946537618096,0.35580178692646314,-0.1963528950096336,-131.93089302515688,-28.35184823709937,-31.685725223095478,0.1771,-0.9133,-0.2449,-0.273
88,782727.0,743.225858,1.0,6.0,-2.15,-8.16,-13.88,-9.88,39.5,-0.31,3.63,-1.94,-0.20224635403751298,-0.07512622023175064,-0.5452364205183517,-131.48269259246572,-28.47005431834872,-32.031310917714855,0.1792,-0.9117,-0.2459,-0.2759
89,782727.0,743.225858,1.0,6.0,-2.15,-8.16,-13.88,-9.88,39.5,-0.31,3.63,-1.94,-0.20224635403751298,-0.07512622023175064,-0.5452364205183517,-131.48269259246572,-28.47005431834872,-32.031310917714855,0.1792,-0.9117,-0.2459,-0.2759
90,782764.0,743.243822,1.0,5.72,-1.83,-7.43,-15.5,-10.0,39.5,-5.88,1.31,3.44,0.06629403000296252,-0.06350605732791093,0.2534425761936561,-131.56643317341502,-28.35184823709937,-32.07900131942766,0.1783,-0.912,-0.2449,-0.2763
91,782764.0,743.243822,1.0,5.72,-1.83,-7.43,-15.5,-10.0,39.5,-5.88,1.31,3.44,0.06629403000296252,-0.06350605732791093,0.2534425761936561,-131.56643317341502,-28.35184823709937,-32.07900131942766,0.1783,-0.912,-0.2449,-0.2763
92,782798.0,743.288944,1.0,5.8,-1.62,-7.73,-14.25,-10.69,39.88,-4.75,4.81,3.75,0.09187981486734352,0.2250091770661232,0.010822879748438652,-131.6503100355004,-28.115528300006982,-32.25789123557385,0.1777,-0.9123,-0.2429,-0.2778
93,782798.0,743.288944,1.0,5.8,-1.62,-7.73,-14.25,-10.69,39.88,-4.75,4.81,3.75,0.09187981486734352,0.2250091770661232,0.010822879748438652,-131.6503100355004,-28.115528300006982,-32.25789123557385,0.1777,-0.9123,-0.2429,-0.2778
94,782833.0,743.3069820000001,1.0,5.73,-1.4,-7.66,-14.25,-10.69,39.88,-4.31,3.81,-0.5,0.1667143025532759,0.3966372162330567,0.14831757353925745,-131.62233589525562,-28.032845198788678,-32.401061315113324,0.1771,-0.9122,-0.2422,-0.27899999999999997
95,782833.0,743.3069820000001,1.0,5.73,-1.4,-7.66,-14.25,-10.69,39.88,-4.31,3.81,-0.5,0.1667143025532759,0.3966372162330567,0.14831757353925745,-131.62233589525562,-28.032845198788678,-32.401061315113324,0.1771,-0.9122,-0.2422,-0.27899999999999997
96,782870.0,743.350922,1.0,5.75,-1.96,-7.69,-14.38,-10.38,39.0,4.94,9.75,-6.25,-0.19117568245700967,-0.026168989442047264,0.0085396187872675,-131.20453254720215,-28.22185710635222,-32.723384506373804,0.1782,-0.9107,-0.2438,-0.2817
97,782870.0,743.350922,1.0,5.75,-1.96,-7.69,-14.38,-10.38,39.0,4.94,9.75,-6.25,-0.19117568245700967,-0.026168989442047264,0.0085396187872675,-131.20453254720215,-28.22185710635222,-32.723384506373804,0.1782,-0.9107,-0.2438,-0.2817
98,782905.0,743.427429,1.0,5.86,-1.92,-7.66,-14.75,-10.38,37.75,-0.75,8.31,-6.75,-0.1255298493575851,-0.02879917903680773,-0.02620374976192608,-130.92785324394194,-28.34002932498839,-32.99816611056945,0.1786,-0.9097,-0.2448,-0.284
99,782905.0,743.427429,1.0,5.86,-1.92,-7.66,-14.75,-10.38,37.75,-0.75,8.31,-6.75,-0.1255298493575851,-0.02879917903680773,-0.02620374976192608,-130.92785324394194,-28.34002932498839,-32.99816611056945,0.1786,-0.9097,-0.2448,-0.284
100,782938.0,743.464787,1.0,5.89,-2.04,-7.61,-14.75,-10.38,37.75,-2.13,3.19,-2.25,-0.1768624905968299,-0.13716226192074446,-0.02776437876829974,-130.6800872399157,-28.446410631571,-33.16551997219127,0.1796,-0.9088,-0.2457,-0.2854
101,782938.0,743.464787,1.0,5.89,-2.04,-7.61,-14.75,-10.38,37.75,-2.13,3.19,-2.25,-0.1768624905968299,-0.13716226192074446,-0.02776437876829974,-130.6800872399157,-28.446410631571,-33.16551997219127,0.1796,-0.9088,-0.2457,-0.2854
102,782972.0,743.524045,1.0,5.96,-1.82,-7.34,-15.06,-10.75,37.75,-1.75,5.81,-1.37,0.08706087428806736,-0.09582433885507248,0.17893801322706793,-130.57034285366944,-28.422768181257144,-33.32098517464778,0.1798,-0.9084,-0.2455,-0.2867
103,782972.0,743.524045,1.0,5.96,-1.82,-7.34,-15.06,-10.75,37.75,-1.75,5.81,-1.37,0.08706087428806736,-0.09582433885507248,0.17893801322706793,-130.57034285366944,-28.422768181257144,-33.32098517464778,0.1798,-0.9084,-0.2455,-0.2867
104,783009.0,743.587295,1.0,6.28,-2.06,-7.99,-15.88,-10.38,39.0,1.37,15.94,-1.75,-0.17860637815474173,-0.043551788150219206,-0.5610065820551444,-130.13362905346793,-28.422768181257144,-33.823690775726206,0.1812,-0.9068,-0.2455,-0.2909
105,783009.0,743.587295,1.0,6.28,-2.06,-7.99,-15.88,-10.38,39.0,1.37,15.94,-1.75,-0.17860637815474173,-0.043551788150219206,-0.5610065820551444,-130.13362905346793,-28.422768181257144,-33.823690775726206,0.1812,-0.9068,-0.2455,-0.2909
106,783044.0,743.596311,1.0,6.22,-2.06,-7.8,-15.88,-10.38,39.0,-1.75,-1.81,3.13,-0.15556728519828072,-0.1077303243322909,-0.3784466120599657,-130.10645331555745,-28.35184823709937,-33.943481085591756,0.18100000000000002,-0.9067,-0.2449,-0.2919
107,783044.0,743.596311,1.0,6.22,-2.06,-7.8,-15.88,-10.38,39.0,-1.75,-1.81,3.13,-0.15556728519828072,-0.1077303243322909,-0.3784466120599657,-130.10645331555745,-28.35184823709937,-33.943481085591756,0.18100000000000002,-0.9067,-0.2449,-0.2919
108,783079.0,743.613759,1.0,6.08,-1.6,-7.56,-15.5,-10.0,39.0,-3.06,-1.56,3.13,0.12185334081293657,0.18063595432615345,-0.023534251342264056,-130.35153620627273,-28.16278249153404,-33.84764578735518,0.1797,-0.9076,-0.2433,-0.2911
109,783079.0,743.613759,1.0,6.08,-1.6,-7.56,-15.5,-10.0,39.0,-3.06,-1.56,3.13,0.12185334081293657,0.18063595432615345,-0.023534251342264056,-130.35153620627273,-28.16278249153404,-33.84764578735518,0.1797,-0.9076,-0.2433,-0.2911
110,783114.0,743.660528,1.0,5.99,-1.93,-7.45,-15.06,-10.0,37.75,5.25,7.75,-2.25,-0.10083433039924096,-0.08958813172499512,0.05527540948882504,-130.16081866157813,-28.22185710635222,-34.015373611081245,0.1805,-0.9069,-0.2438,-0.2925
111,783114.0,743.660528,1.0,5.99,-1.93,-7.45,-15.06,-10.0,37.75,5.25,7.75,-2.25,-0.10083433039924096,-0.08958813172499512,0.05527540948882504,-130.16081866157813,-28.22185710635222,-34.015373611081245,0.1805,-0.9069,-0.2438,-0.2925
112,783151.0,743.6783730000001,1.0,6.0,-1.96,-7.78,-15.88,-10.0,37.38,-1.88,4.0,1.75,-0.2798102804517941,0.047696967273981435,-0.2078111041366757,-130.0792914251156,-28.16278249153404,-34.17118813606689,0.1805,-0.9066,-0.2433,-0.2938
113,783151.0,743.6783730000001,1.0,6.0,-1.96,-7.78,-15.88,-10.0,37.38,-1.88,4.0,1.75,-0.2798102804517941,0.047696967273981435,-0.2078111041366757,-130.0792914251156,-28.16278249153404,-34.17118813606689,0.1805,-0.9066,-0.2433,-0.2938
114,783183.0,743.681365,1.0,5.97,-1.3,-7.29,-15.88,-10.0,37.38,-7.69,-1.12,3.31,0.2745488124107449,0.35944944332200524,0.3055753740800782,-130.18802216268048,-27.99741414521811,-34.20715457242007,0.1796,-0.907,-0.2419,-0.2941
115,783183.0,743.681365,1.0,5.97,-1.3,-7.29,-15.88,-10.0,37.38,-7.69,-1.12,3.31,0.2745488124107449,0.35944944332200524,0.3055753740800782,-130.18802216268048,-27.99741414521811,-34.20715457242007,0.1796,-0.907,-0.2419,-0.2941
116,783220.0,743.6939269999999,1.0,6.12,-1.89,-7.75,-15.88,-10.75,39.0,2.56,6.75,-1.88,-0.17117991599801796,0.07388983330772493,-0.245923686817358,-129.97078188553854,-28.068278987313843,-34.375043949019776,0.18100000000000002,-0.9062,-0.2425,-0.2955
117,783220.0,743.6939269999999,1.0,6.12,-1.89,-7.75,-15.88,-10.75,39.0,2.56,6.75,-1.88,-0.17117991599801796,0.07388983330772493,-0.245923686817358,-129.97078188553854,-28.068278987313843,-34.375043949019776,0.18100000000000002,-0.9062,-0.2425,-0.2955
118,783257.0,743.726636,1.0,6.2,-1.76,-7.41,-16.56,-10.0,38.56,-1.19,1.75,-0.31,0.09083220703912097,-0.002570127427431013,-0.013606763680337863,-129.88954402446632,-28.056467420340038,-34.48301299993159,0.1809,-0.9059,-0.2424,-0.2964
119,783257.0,743.726636,1.0,6.2,-1.76,-7.41,-16.56,-10.0,38.56,-1.19,1.75,-0.31,0.09083220703912097,-0.002570127427431013,-0.013606763680337863,-129.88954402446632,-28.056467420340038,-34.48301299993159,0.1809,-0.9059,-0.2424,-0.2964
120,783290.0,743.787354,1.0,6.17,-2.0,-7.54,-16.56,-10.0,38.56,0.81,2.56,-1.81,-0.13135876011396053,-0.11734471978310634,-0.13766873447750785,-129.80842917390058,-28.080090858618394,-34.555009904291715,0.1813,-0.9056,-0.2426,-0.297
121,783290.0,743.787354,1.0,6.17,-2.0,-7.54,-16.56,-10.0,38.56,0.81,2.56,-1.81,-0.13135876011396053,-0.11734471978310634,-0.13766873447750785,-129.80842917390058,-28.080090858618394,-34.555009904291715,0.1813,-0.9056,-0.2426,-0.297
122,783325.0,743.805699,1.0,6.16,-2.16,-7.54,-16.56,-10.0,38.56,-0.12,0.19,1.12,-0.2279268717112137,-0.2367958380887347,-0.16103664596835188,-129.78141812262746,-28.056467420340038,-34.57901199780452,0.1816,-0.9055,-0.2424,-0.2972
123,783325.0,743.805699,1.0,6.16,-2.16,-7.54,-16.56,-10.0,38.56,-0.12,0.19,1.12,-0.2279268717112137,-0.2367958380887347,-0.16103664596835188,-129.78141812262746,-28.056467420340038,-34.57901199780452,0.1816,-0.9055,-0.2424,-0.2972
124,783362.0,743.8577799999999,1.0,6.09,-1.49,-7.13,-15.88,-10.0,38.56,-3.63,6.5,0.0,0.2604738491152554,0.1289417918725876,0.3166222135161369,-129.83545382657294,-27.950176987884003,-34.66303165808797,0.1805,-0.9057,-0.2415,-0.2979
125,783362.0,743.8577799999999,1.0,6.09,-1.49,-7.13,-15.88,-10.0,38.56,-3.63,6.5,0.0,0.2604738491152554,0.1289417918725876,0.3166222135161369,-129.83545382657294,-27.950176987884003,-34.66303165808797,0.1805,-0.9057,-0.2415,-0.2979
126,783394.0,743.874955,1.0,6.24,-1.82,-7.43,-15.88,-10.0,38.56,-2.19,9.0,-1.25,0.01171316610835188,-0.011998876025125949,-0.06526059667346472,-129.56581673326838,-27.950176987884003,-34.92721890485463,0.1818,-0.9047,-0.2415,-0.3001
127,783394.0,743.874955,1.0,6.24,-1.82,-7.43,-15.88,-10.0,38.56,-2.19,9.0,-1.25,0.01171316610835188,-0.011998876025125949,-0.06526059667346472,-129.56581673326838,-27.950176987884003,-34.92721890485463,0.1818,-0.9047,-0.2415,-0.3001
128,783429.0,743.926012,1.0,6.44,-2.05,-8.16,-16.56,-10.0,37.38,2.88,-3.75,0.94,-0.3245954059552464,0.08749254311403831,-0.7833775201404549,-129.48518799624307,-27.961985822582488,-35.03535067049245,0.1819,-0.9044,-0.2416,-0.301
129,783429.0,743.926012,1.0,6.44,-2.05,-8.16,-16.56,-10.0,37.38,2.88,-3.75,0.94,-0.3245954059552464,0.08749254311403831,-0.7833775201404549,-129.48518799624307,-27.961985822582488,-35.03535067049245,0.1819,-0.9044,-0.2416,-0.301
130,783464.0,743.944163,1.0,6.02,-1.56,-6.92,-17.0,-10.75,37.0,-6.88,-4.31,1.56,0.2360187224666851,0.016542883774782302,0.50587468309004,-129.75442065073912,-27.784885032921768,-34.91520624744418,0.1806,-0.9054,-0.2401,-0.3
131,783464.0,743.944163,1.0,6.02,-1.56,-6.92,-17.0,-10.75,37.0,-6.88,-4.31,1.56,0.2360187224666851,0.016542883774782302,0.50587468309004,-129.75442065073912,-27.784885032921768,-34.91520624744418,0.1806,-0.9054,-0.2401,-0.3
132,783501.0,743.986907,1.0,6.19,-1.59,-7.49,-16.56,-10.75,37.75,-4.13,-2.75,0.12,0.07855027782396462,0.21058003032898046,-0.036814121165905433,-129.72743673627951,-27.761276718209416,-34.92721890485463,0.1808,-0.9053,-0.2399,-0.3001
133,783501.0,743.986907,1.0,6.19,-1.59,-7.49,-16.56,-10.75,37.75,-4.13,-2.75,0.12,0.07855027782396462,0.21058003032898046,-0.036814121165905433,-129.72743673627951,-27.761276718209416,-34.92721890485463,0.1808,-0.9053,-0.2399,-0.3001
134,783534.0,743.994097,1.0,6.22,-2.1,-7.6,-16.56,-10.75,37.75,4.56,-1.12,-1.5,-0.21468217398552206,-0.16808151775627067,-0.2324764643673856,-129.72743673627951,-27.855717200127586,-34.831128724414064,0.1811,-0.9053,-0.2407,-0.2993
135,783534.0,743.994097,1.0,6.22,-2.1,-7.6,-16.56,-10.75,37.75,4.56,-1.12,-1.5,-0.21468217398552206,-0.16808151775627067,-0.2324764643673856,-129.72743673627951,-27.855717200127586,-34.831128724414064,0.1811,-0.9053,-0.2407,-0.2993
136,783570.0,744.056328,1.0,6.12,-1.79,-7.59,-16.25,-10.38,37.75,-3.13,-1.06,4.19,-0.1014700722678129,0.10555348898754537,-0.10521976737469707,-129.86249210271768,-27.761276718209416,-34.78309311529889,0.1806,-0.9058,-0.2399,-0.2989
137,783570.0,744.056328,1.0,6.12,-1.79,-7.59,-16.25,-10.38,37.75,-3.13,-1.06,4.19,-0.1014700722678129,0.10555348898754537,-0.10521976737469707,-129.86249210271768,-27.761276718209416,-34.78309311529889,0.1806,-0.9058,-0.2399,-0.2989
138,783607.0,744.117079,1.0,6.07,-1.76,-7.29,-15.88,-10.75,39.0,-0.37,0.94,1.31,0.0195487789780337,0.005638998858264022,0.15853173544020294,-129.88954402446632,-27.702261187008638,-34.77108519878443,0.1805,-0.9059,-0.2394,-0.2988
139,783607.0,744.117079,1.0,6.07,-1.76,-7.29,-15.88,-10.75,39.0,-0.37,0.94,1.31,0.0195487789780337,0.005638998858264022,0.15853173544020294,-129.88954402446632,-27.702261187008638,-34.77108519878443,0.1805,-0.9059,-0.2394,-0.2988
140,783640.0,744.124814,1.0,5.99,-1.45,-6.93,-15.88,-10.75,39.0,-6.13,2.81,0.0,0.2762993741342178,0.11868743415807992,0.5375037637587106,-129.88954402446632,-27.631452438914533,-34.903193986048876,0.1801,-0.9059,-0.2388,-0.2999
141,783640.0,744.124814,1.0,5.99,-1.45,-6.93,-15.88,-10.75,39.0,-6.13,2.81,0.0,0.2762993741342178,0.11868743415807992,0.5375037637587106,-129.88954402446632,-27.631452438914533,-34.903193986048876,0.1801,-0.9059,-0.2388,-0.2999
142,783675.0,744.143642,1.0,6.27,-2.05,-7.47,-16.56,-10.0,38.56,7.44,13.5,-3.13,-0.1627827221191297,-0.16638899099620866,-0.15638751318114785,-129.43150224575868,-27.714063693203613,-35.299808644002006,0.1816,-0.9042,-0.2395,-0.3032
143,783675.0,744.143642,1.0,6.27,-2.05,-7.47,-16.56,-10.0,38.56,7.44,13.5,-3.13,-0.1627827221191297,-0.16638899099620866,-0.15638751318114785,-129.43150224575868,-27.714063693203613,-35.299808644002006,0.1816,-0.9042,-0.2395,-0.3032
144,783712.0,744.194846,1.0,6.26,-1.86,-7.39,-16.25,-10.38,37.38,-5.38,14.25,-1.5,-0.09248630375386313,-0.02882370155594793,-0.05488717621378392,-129.21728949054742,-27.643253148970494,-35.696860557625506,0.1813,-0.9034,-0.2389,-0.3065
145,783712.0,744.194846,1.0,6.26,-1.86,-7.39,-16.25,-10.38,37.38,-5.38,14.25,-1.5,-0.09248630375386313,-0.02882370155594793,-0.05488717621378392,-129.21728949054742,-27.643253148970494,-35.696860557625506,0.1813,-0.9034,-0.2389,-0.3065
146,783745.0,744.213696,1.0,6.36,-2.09,-7.41,-16.25,-10.38,37.38,-1.31,14.63,-0.25,-0.2168484512907872,-0.20243807717476325,-0.17522334993199173,-128.92411693093345,-27.57245336826063,-36.09435595913239,0.1821,-0.9023,-0.2383,-0.3098
147,783745.0,744.213696,1.0,6.36,-2.09,-7.41,-16.25,-10.38,37.38,-1.31,14.63,-0.25,-0.2168484512907872,-0.20243807717476325,-0.17522334993199173,-128.92411693093345,-27.57245336826063,-36.09435595913239,0.1821,-0.9023,-0.2383,-0.3098
148,783779.0,744.262831,1.0,6.5,-1.64,-7.81,-16.56,-10.75,36.56,-4.25,6.81,2.69,-0.1289603717337286,0.3363421898009946,-0.4795515901829468,-128.76486449761614,-27.312945744821853,-36.51643362197993,0.1816,-0.9017,-0.2361,-0.3133
149,783779.0,744.262831,1.0,6.5,-1.64,-7.81,-16.56,-10.75,36.56,-4.25,6.81,2.69,-0.1289603717337286,0.3363421898009946,-0.4795515901829468,-128.76486449761614,-27.312945744821853,-36.51643362197993,0.1816,-0.9017,-0.2361,-0.3133
150,783814.0,744.282214,1.0,6.34,-1.52,-6.97,-17.37,-11.5,38.56,-2.13,0.75,-0.12,0.21366660632677686,0.08871982512991805,0.2655088012769813,-128.73836728652063,-27.265777919115557,-36.612980343917975,0.1814,-0.9016,-0.2357,-0.3141
151,783814.0,744.282214,1.0,6.34,-1.52,-6.97,-17.37,-11.5,38.56,-2.13,0.75,-0.12,0.21366660632677686,0.08871982512991805,0.2655088012769813,-128.73836728652063,-27.265777919115557,-36.612980343917975,0.1814,-0.9016,-0.2357,-0.3141
152,783851.0,744.33046,1.0,6.43,-1.82,-7.1,-17.75,-9.69,37.38,1.37,7.63,-1.19,0.02220158073455369,-0.10374815955756922,0.05698111284278973,-128.5268474503853,-27.324738438026902,-36.79407807568971,0.1822,-0.9008,-0.2362,-0.3156
153,783851.0,744.33046,1.0,6.43,-1.82,-7.1,-17.75,-9.69,37.38,1.37,7.63,-1.19,0.02220158073455369,-0.10374815955756922,0.05698111284278973,-128.5268474503853,-27.324738438026902,-36.79407807568971,0.1822,-0.9008,-0.2362,-0.3156
154,783886.0,744.393953,1.0,6.53,-1.7,-7.51,-17.75,-9.69,37.38,-2.44,5.75,0.81,-0.07959931032504164,0.17345421211198864,-0.2876344018828991,-128.39505791682004,-27.242195772473625,-37.035689974508436,0.1821,-0.9003,-0.2355,-0.3176
155,783886.0,744.393953,1.0,6.53,-1.7,-7.51,-17.75,-9.69,37.38,-2.44,5.75,0.81,-0.07959931032504164,0.17345421211198864,-0.2876344018828991,-128.39505791682004,-27.242195772473625,-37.035689974508436,0.1821,-0.9003,-0.2355,-0.3176
156,783921.0,744.413241,1.0,6.36,-1.7,-7.25,-17.37,-11.5,37.0,-4.63,-1.63,1.63,-0.07316669015330995,0.10135140722985014,0.014486065112853554,-128.44773606463812,-27.15966751179376,-37.07194645139856,0.1818,-0.9005,-0.2348,-0.3179
157,783921.0,744.413241,1.0,6.36,-1.7,-7.25,-17.37,-11.5,37.0,-4.63,-1.63,1.63,-0.07316669015330995,0.10135140722985014,0.014486065112853554,-128.44773606463812,-27.15966751179376,-37.07194645139856,0.1818,-0.9005,-0.2348,-0.3179
158,783955.0,744.547597,1.0,6.31,-1.64,-6.89,-17.75,-11.5,37.38,-2.44,0.06,1.0,0.10281453158952514,-0.008244969872167385,0.3215479345203747,-128.47409395200597,-27.100727545597238,-37.05986053192884,0.1815,-0.9006,-0.2343,-0.3178
159,783955.0,744.547597,1.0,6.31,-1.64,-6.89,-17.75,-11.5,37.38,-2.44,0.06,1.0,0.10281453158952514,-0.008244969872167385,0.3215479345203747,-128.47409395200597,-27.100727545597238,-37.05986053192884,0.1815,-0.9006,-0.2343,-0.3178
160,783990.0,744.553708,1.0,6.48,-1.7,-7.23,-17.75,-11.5,37.38,-0.12,3.0,-1.31,0.004903130249764742,0.06074083792386897,-0.049798980739568684,-128.39505791682004,-27.100727545597238,-37.168649209123814,0.1817,-0.9003,-0.2343,-0.3187
161,783990.0,744.553708,1.0,6.48,-1.7,-7.23,-17.75,-11.5,37.38,-0.12,3.0,-1.31,0.004903130249764742,0.06074083792386897,-0.049798980739568684,-128.39505791682004,-27.100727545597238,-37.168649209123814,0.1817,-0.9003,-0.2343,-0.3187
162,784025.0,744.608208,1.0,6.48,-1.88,-7.46,-17.75,-11.19,38.19,0.56,2.75,-1.19,-0.2215231562303306,0.032455543559688715,-0.2495060314538655,-128.2635811405088,-27.14787893324093,-37.26537941343616,0.1821,-0.8998,-0.2347,-0.3195
163,784025.0,744.608208,1.0,6.48,-1.88,-7.46,-17.75,-11.19,38.19,0.56,2.75,-1.19,-0.2215231562303306,0.032455543559688715,-0.2495060314538655,-128.2635811405088,-27.14787893324093,-37.26537941343616,0.1821,-0.8998,-0.2347,-0.3195
164,784062.0,744.616069,1.0,6.42,-1.65,-7.16,-18.5,-10.75,37.75,-2.06,0.5,2.75,0.012450730659471665,0.09824648946218273,0.049873247064917685,-128.31613447366578,-27.100727545597238,-37.253286633756794,0.1821,-0.9,-0.2343,-0.3194
165,784062.0,744.616069,1.0,6.42,-1.65,-7.16,-18.5,-10.75,37.75,-2.06,0.5,2.75,0.012450730659471665,0.09824648946218273,0.049873247064917685,-128.31613447366578,-27.100727545597238,-37.253286633756794,0.1821,-0.9,-0.2343,-0.3194
166,784095.0,744.6343860000001,1.0,6.44,-1.56,-7.06,-18.5,-10.75,37.75,-1.56,1.69,0.75,0.1184800745587078,0.11364749036580445,0.12554227826349873,-128.3424298098244,-27.018223861950197,-37.28956626386321,0.1815,-0.9001,-0.2336,-0.3197
167,784095.0,744.6343860000001,1.0,6.44,-1.56,-7.06,-18.5,-10.75,37.75,-1.56,1.69,0.75,0.1184800745587078,0.11364749036580445,0.12554227826349873,-128.3424298098244,-27.018223861950197,-37.28956626386321,0.1815,-0.9001,-0.2336,-0.3197
168,784130.0,744.637766,1.0,6.54,-1.78,-7.39,-17.75,-10.75,37.38,2.31,3.19,-1.0,-0.11138759912784546,0.07458064066639725,-0.2200209595357876,-128.23732310544656,-27.041794884833607,-37.41052638436744,0.1821,-0.8997,-0.2338,-0.3207
169,784130.0,744.637766,1.0,6.54,-1.78,-7.39,-17.75,-10.75,37.38,2.31,3.19,-1.0,-0.11138759912784546,0.07458064066639725,-0.2200209595357876,-128.23732310544656,-27.041794884833607,-37.41052638436744,0.1821,-0.8997,-0.2338,-0.3207
170,784164.0,744.640754,1.0,6.61,-1.77,-7.27,-18.87,-11.5,37.0,0.75,0.25,0.31,-0.0029291614700488466,0.005378351282997018,-0.17723013216057024,-128.23732310544656,-26.94751777725,-37.446822845384496,0.1818,-0.8997,-0.233,-0.321
171,784164.0,744.640754,1.0,6.61,-1.77,-7.27,-18.87,-11.5,37.0,0.75,0.25,0.31,-0.0029291614700488466,0.005378351282997018,-0.17723013216057024,-128.23732310544656,-26.94751777725,-37.446822845384496,0.1818,-0.8997,-0.233,-0.321
172,784201.0,744.73249,1.0,6.43,-1.58,-6.87,-17.75,-10.38,36.56,-1.25,1.25,-1.12,0.17247602326759665,0.022183197016326428,0.2668407814061666,-128.2635811405088,-26.94751777725,-37.446822845384496,0.1816,-0.8998,-0.233,-0.321
173,784201.0,744.73249,1.0,6.43,-1.58,-6.87,-17.75,-10.38,36.56,-1.25,1.25,-1.12,0.17247602326759665,0.022183197016326428,0.2668407814061666,-128.2635811405088,-26.94751777725,-37.446822845384496,0.1816,-0.8998,-0.233,-0.321
174,784236.0,744.737525,1.0,6.53,-1.93,-7.23,-17.75,-10.38,36.56,2.0,6.63,-1.63,-0.1574782018416489,-0.1040356702745755,-0.1232582168595755,-128.05386288415187,-26.982869511205863,-37.65257654707046,0.1823,-0.899,-0.2333,-0.3227
175,784236.0,744.737525,1.0,6.53,-1.93,-7.23,-17.75,-10.38,36.56,2.0,6.63,-1.63,-0.1574782018416489,-0.1040356702745755,-0.1232582168595755,-128.05386288415187,-26.982869511205863,-37.65257654707046,0.1823,-0.899,-0.2333,-0.3227
176,784273.0,744.749276,1.0,6.65,-1.87,-7.57,-18.06,-10.75,35.0,-1.88,2.63,1.69,-0.2264599516265378,0.0762285862968175,-0.4387004133797437,-128.0800345447506,-26.806136930452627,-37.77366695276425,0.1818,-0.8991,-0.2318,-0.3237
177,784273.0,744.749276,1.0,6.65,-1.87,-7.57,-18.06,-10.75,35.0,-1.88,2.63,1.69,-0.2264599516265378,0.0762285862968175,-0.4387004133797437,-128.0800345447506,-26.806136930452627,-37.77366695276425,0.1818,-0.8991,-0.2318,-0.3237
178,784308.0,744.800329,1.0,6.39,-1.64,-6.88,-18.5,-11.19,37.38,-3.88,-1.19,1.94,0.0684904448085425,0.0043242312548194,0.2750504301484629,-128.2110774660985,-26.700128578583914,-37.74944537405314,0.18100000000000002,-0.8996,-0.2309,-0.3235
179,784308.0,744.800329,1.0,6.39,-1.64,-6.88,-18.5,-11.19,37.38,-3.88,-1.19,1.94,0.0684904448085425,0.0043242312548194,0.2750504301484629,-128.2110774660985,-26.700128578583914,-37.74944537405314,0.18100000000000002,-0.8996,-0.2309,-0.3235
180,784343.0,744.817275,1.0,6.51,-1.79,-7.01,-18.5,-11.19,37.38,-1.25,3.81,1.31,-0.006622189942495471,-0.08294658860132642,0.07436475911028673,-128.1586232989387,-26.641245110498453,-37.846342205002045,0.1812,-0.8994,-0.2304,-0.3243
181,784343.0,744.817275,1.0,6.51,-1.79,-7.01,-18.5,-11.19,37.38,-1.25,3.81,1.31,-0.006622189942495471,-0.08294658860132642,0.07436475911028673,-128.1586232989387,-26.641245110498453,-37.846342205002045,0.1812,-0.8994,-0.2304,-0.3243
182,784375.0,744.869502,1.0,6.7,-1.65,-7.54,-18.87,-11.88,37.0,-0.94,2.25,0.56,-0.08480506307240843,0.2304889945403945,-0.4111669353670191,-128.1586232989387,-26.52349964582953,-37.96750276694696,0.1807,-0.8994,-0.2294,-0.3253
183,784375.0,744.869502,1.0,6.7,-1.65,-7.54,-18.87,-11.88,37.0,-0.94,2.25,0.56,-0.08480506307240843,0.2304889945403945,-0.4111669353670191,-128.1586232989387,-26.52349964582953,-37.96750276694696,0.1807,-0.8994,-0.2294,-0.3253
184,784412.0,744.888555,1.0,6.53,-1.75,-7.08,-18.5,-10.75,37.5,-0.12,-1.19,0.44,-0.01772389312643491,-0.02342916800112493,0.017424446479473943,-128.18484420355122,-26.547046453502677,-37.931149977697146,0.1807,-0.8995,-0.2296,-0.325
185,784412.0,744.888555,1.0,6.53,-1.75,-7.08,-18.5,-10.75,37.5,-0.12,-1.19,0.44,-0.01772389312643491,-0.02342916800112493,0.017424446479473943,-128.18484420355122,-26.547046453502677,-37.931149977697146,0.1807,-0.8995,-0.2296,-0.325
186,784447.0,744.932187,1.0,6.5,-1.57,-6.68,-18.5,-10.75,37.5,-0.75,2.31,-0.37,0.24819635161867756,-0.052127353856454506,0.3582119645349273,-128.1324147334415,-26.547046453502677,-37.9917401637673,0.1807,-0.8993,-0.2296,-0.3255
187,784447.0,744.932187,1.0,6.5,-1.57,-6.68,-18.5,-10.75,37.5,-0.75,2.31,-0.37,0.24819635161867756,-0.052127353856454506,0.3582119645349273,-128.1324147334415,-26.547046453502677,-37.9917401637673,0.1807,-0.8993,-0.2296,-0.3255
188,784482.0,744.9488759999999,1.0,6.63,-1.86,-7.4,-18.06,-11.19,37.38,-0.56,5.19,-1.25,-0.2089431578208048,0.027976547309859327,-0.29939077122195634,-127.94929869917114,-26.57059440264536,-38.17357699786608,0.1812,-0.8986,-0.2298,-0.327
189,784482.0,744.9488759999999,1.0,6.63,-1.86,-7.4,-18.06,-11.19,37.38,-0.56,5.19,-1.25,-0.2089431578208048,0.027976547309859327,-0.29939077122195634,-127.94929869917114,-26.57059440264536,-38.17357699786608,0.1812,-0.8986,-0.2298,-0.327
