TIME,ELAPSED_SECONDS,PSTATE,acc_x,acc_y,acc_z,mag_x,mag_y,mag_z,gyr_x,gyr_y,gyr_z,lin_x,lin_y,lin_z,eul_x,eul_y,eul_z,qua_w,qua_x,qua_y,qua_z
837279.0,826.068501,1.0,-3.23,3.64,-8.73,15.25,-30.19,23.56,-2.81,1.88,3.19,0.05385576021714078,-0.034806966142444995,-0.1879129235199386,-147.27558529764082,-13.945814879054648,16.66297690980209,-0.2089,-0.9595,-0.1214,0.1449
837314.0,826.128975,1.0,-3.15,3.63,-8.69,16.0,-30.19,23.19,0.31,0.75,1.81,0.10101518232145068,-0.04971729678698897,-0.12324547393832044,-147.27558529764082,-13.8765501759761,16.59349169701811,-0.2094,-0.9595,-0.1208,0.1443
837349.0,826.1496549999997,1.0,-3.28,3.62,-8.44,16.0,-30.19,23.19,-1.0,-0.63,2.0,-0.07817471683991606,0.06949642734205694,0.05547268850403775,-147.31628725286762,-13.818833482803015,16.616652750638245,-0.2095,-0.9596,-0.1203,0.1445
837382.0,826.177505,1.0,-3.22,3.62,-8.67,16.0,-30.56,23.5,-1.25,1.75,0.81,0.015899944619180095,-0.050141546527313036,-0.12506349853956422,-147.31628725286762,-13.78420515869276,16.5471716366683,-0.21,-0.9596,-0.12,0.1439
837419.0,826.23825,1.0,-3.16,3.68,-8.61,15.25,-31.0,23.56,-0.63,-0.19,1.0,0.0664078651131994,0.015915233400125326,-0.07542653789409393,-147.35703857325038,-13.761120312162008,16.50085429879803,-0.2102,-0.9597,-0.1198,0.1435
837453.0,826.2494230000003,1.0,-3.33,3.55,-8.42,15.25,-30.56,24.37,0.19,-0.88,0.81,-0.17011226258185894,0.011411881591359918,0.0825185947238527,-147.35703857325038,-13.714952301602876,16.524012627926176,-0.2102,-0.9597,-0.1194,0.1437
837488.0,826.311182,1.0,-3.16,3.62,-8.64,15.25,-30.56,24.37,-1.63,2.81,0.94,0.04794788485851531,-0.054383365672392464,-0.07941814916202006,-147.35703857325038,-13.714952301602876,16.466118077182387,-0.2104,-0.9597,-0.1194,0.1432
837525.0,826.35285,1.0,-3.2,3.68,-8.55,15.25,-31.0,24.0,0.06,1.37,1.44,-0.0056028723910630535,0.041276251892229,-0.03627461003591748,-147.35703857325038,-13.668786527863627,16.396650200988272,-0.2106,-0.9597,-0.11900000000000001,0.1426
837560.0,826.386745,1.0,-3.19,3.59,-8.47,15.25,-30.56,23.69,-1.75,0.88,1.25,-0.04749211277677401,-0.006432287066174658,0.06997689647500316,-147.39783944401512,-13.634163660769715,16.361918539628213,-0.2107,-0.9598,-0.1187,0.1423
837595.0,826.399891,1.0,-3.03,3.59,-8.71,15.25,-30.56,23.69,-2.0,-0.94,2.0,0.1457405660590554,-0.15238215695984714,-0.0872187764516621,-147.39783944401512,-13.576461659580188,16.327188391573927,-0.2114,-0.9598,-0.1182,0.142
837629.0,826.448542,1.0,-3.37,3.5,-8.44,15.25,-30.56,22.37,-0.63,-0.25,2.0,-0.25712254519088185,-0.06400248950348268,0.07164657534256946,-147.35703857325038,-13.530302549412001,16.338764939656073,-0.2117,-0.9597,-0.1178,0.1421
837666.0,826.471691,1.0,-3.23,3.77,-8.5,15.25,-30.19,22.25,-0.44,3.25,2.19,-0.05824448146076632,0.11494667879625126,-0.036072938364824836,-147.39783944401512,-13.4841456448157,16.223006993376618,-0.2123,-0.9598,-0.1174,0.1411
837699.0,826.506562,1.0,-2.99,3.85,-8.84,15.25,-30.19,22.25,-1.56,-2.25,1.06,0.2567813190868071,-0.01421703359186943,-0.28503277494511536,-147.39783944401512,-13.437990937987554,16.19985740781584,-0.2128,-0.9598,-0.11699999999999999,0.1409
837734.0,826.555893,1.0,-3.16,3.73,-8.65,15.69,-31.0,23.56,1.19,-2.81,0.81,0.03982796567974156,-0.0084940006493055,-0.1291107451620359,-147.35703857325038,-13.380300633180664,16.315612011260463,-0.2126,-0.9597,-0.1165,0.1419
837769.0,826.5819740000003,1.0,-3.21,3.8,-8.41,15.25,-31.37,23.56,-1.75,0.19,0.37,-0.03613983128288156,0.15885130471097522,0.03702052004598855,-147.35703857325038,-13.368762981498053,16.350341655632345,-0.213,-0.9597,-0.1164,0.1422
837806.0,826.611482,1.0,-3.17,3.85,-8.47,14.5,-31.0,23.56,2.19,-0.56,-1.5,0.03790154624897602,0.17642891364266966,-0.02084898556203285,-147.31628725286762,-13.380300633180664,16.396650200988272,-0.2126,-0.9596,-0.1165,0.1426
837838.0,826.674558,1.0,-3.28,3.55,-8.54,14.5,-31.0,23.56,-0.81,0.19,-1.5,-0.13095185012372926,-0.09641563932563332,-0.004876672105755375,-147.35703857325038,-13.414914406298776,16.408227758317484,-0.2124,-0.9597,-0.1168,0.1427
837875.0,826.689829,1.0,-3.23,3.57,-8.47,15.25,-31.0,24.0,0.69,1.5,1.63,-0.101613290817977,-0.053282237764492174,0.06470277461081686,-147.35703857325038,-13.414914406298776,16.361918539628213,-0.2123,-0.9597,-0.1168,0.1423
837910.0,826.737471,1.0,-3.17,3.54,-8.63,15.25,-31.37,22.69,-0.88,-1.5,1.31,-0.020623015808287848,-0.16341390218985435,-0.04374443818317888,-147.35703857325038,-13.357225465957494,16.361918539628213,-0.2124,-0.9597,-0.1163,0.1423
837945.0,826.751168,1.0,-3.42,3.43,-8.48,15.25,-31.37,22.69,-2.81,-0.94,4.0,-0.31647091831219165,-0.17675091180493155,0.04753604057525962,-147.31628725286762,-13.253393932396618,16.408227758317484,-0.2134,-0.9596,-0.1154,0.1427
837980.0,826.794808,1.0,-3.37,3.43,-8.73,14.5,-31.0,23.19,-6.13,-1.25,7.44,-0.2206231297428276,-0.3249154962224182,-0.1522884652651122,-147.23493252348757,-13.114968872872085,16.408227758317484,-0.2147,-0.9594,-0.1142,0.1427
838017.0,826.811055,1.0,-3.58,3.66,-8.63,15.25,-31.0,23.19,-13.31,-5.81,12.25,-0.37970598901506336,-0.13509535556944133,-0.21963907456840026,-146.992038514199,-12.745928771149693,16.50085429879803,-0.2186,-0.9588,-0.111,0.1435
838049.0,826.855957,1.0,-3.38,4.51,-9.45,15.25,-31.0,23.19,-31.44,-25.44,8.06,0.26474083713958074,0.044569100731883436,-1.1931193559642672,-146.2735608004224,-12.457708722341447,16.83671699887327,-0.2255,-0.9570000000000001,-0.1085,0.1464
838084.0,826.9012,1.0,-4.12,5.56,-8.49,14.19,-31.37,23.19,-15.31,-30.31,-4.5,-0.17578069697393195,1.3125621177169913,-1.065993737091068,-145.03166189361892,-12.353968967121856,17.961196420173227,-0.2331,-0.9538,-0.1076,0.1561
838119.0,826.922835,1.0,-4.3,6.31,-7.19,14.5,-32.88,22.37,5.25,-42.06,-29.94,-0.24378517746063946,2.60717516799737,-0.3494026992837309,-144.388983618951,-12.561458728935325,19.157145947707967,-0.2319,-0.9521,-0.1094,0.1664
838156.0,826.96273,1.0,-4.47,7.07,-6.07,14.88,-31.37,21.5,61.88,2.69,-86.81,-0.05164341037363762,4.103315632148356,0.3213543387603401,-143.94200484154302,-14.604088706058507,20.599742008899195,-0.2183,-0.9509,-0.1271,0.1788
838191.0,827.015603,1.0,-3.62,5.47,-5.53,14.88,-31.37,21.5,86.25,58.88,-123.69,0.2847823736546093,3.2842718705434195,1.8858762196163656,-144.72781275910324,-17.508882729880764,20.459995384570266,-0.1926,-0.953,-0.1522,0.1776
838227.0,827.023633,1.0,-2.65,4.15,-5.07,17.87,-29.87,22.25,108.56,52.56,-155.06,0.9186942897221428,2.6784934138023067,3.3311906468537247,-144.46400874868328,-22.711475449834968,20.49492914898236,-0.1509,-0.9523,-0.1969,0.1779
838262.0,827.071383,1.0,-2.92,1.27,-3.24,20.87,-26.87,26.06,57.13,148.75,-131.56,-1.0511632480827222,1.3019022411768302,5.583261978482331,-144.53918747848587,-26.74724052277769,18.274501601194086,-0.11900000000000001,-0.9525,-0.2313,0.1588
838297.0,827.092646,1.0,0.38,0.96,-8.0,20.87,-26.87,26.06,44.13,165.19,-112.5,2.0983444068042294,-1.195876802541428,2.110363270441603,-144.23939029133862,-31.769115255908964,12.434654560583265,-0.0875,-0.9517,-0.2737,0.1083
838332.0,827.1514589999997,1.0,0.55,-3.76,-6.83,20.19,-23.56,30.37,11.44,152.25,-79.06,-1.191265949219587,-4.4379825114510885,3.4841349413952165,-143.02758111671002,-35.37196719600466,7.315910364212048,-0.0637,-0.9484,-0.3038,0.0638
838369.0,827.219752,1.0,0.74,-2.56,-4.37,18.87,-20.25,32.38,-73.37,263.13,0.06,-1.04223986640995,-3.0064864384632655,5.797550929609965,-142.70368938881398,-36.55263549385707,0.7792286067117273,-0.0618,-0.9475,-0.3136,0.0068
838406.0,827.250474,1.0,3.89,-3.6,-9.0,18.87,-20.25,32.38,-54.19,280.38,47.38,-0.7360976904797445,-5.570726949186334,1.0022612394056782,-142.45363711540872,-35.56446095223015,-10.177646918437086,-0.0507,-0.9468,-0.3054,-0.0887
838438.0,827.280547,1.0,5.46,-5.53,-12.1,13.69,-21.19,33.19,-72.25,155.56,116.81,-2.1227746728941805,-7.7568899734764,-2.1150522957084537,-142.56060519917662,-32.950364032221074,-16.338764939656073,-0.0484,-0.9471,-0.2836,-0.1421
838477.0,827.292395,1.0,5.22,-1.77,-9.87,5.56,-23.25,35.0,-173.44,153.31,162.5,-0.6552380033989587,-4.300163443253446,-0.6277861381058063,-143.42720670361226,-26.076325639174165,-23.92834419777812,-0.0676,-0.9495,-0.2256,-0.2073
838512.0,827.303626,1.0,10.31,0.35,-17.28,-4.56,-25.56,32.19,-148.19,123.87,171.44,-0.4025051797701327,-5.0320218398676735,-9.674975850615061,-142.24057734218397,-20.832722001771078,-29.274683969227155,-0.0898,-0.9462,-0.1808,-0.2527
838547.0,827.347129,1.0,9.31,7.18,-14.6,-4.56,-25.56,32.19,-125.94,-216.69,169.25,2.009384791286128,1.727311103332432,-8.750485261479687,-146.5113892939378,-12.03128766143814,-27.65505415801313,-0.1217,-0.9576,-0.1048,-0.239
838582.0,827.395321,1.0,5.74,11.03,-11.49,-11.0,-28.87,28.75,43.13,-99.69,81.19,1.6211702754862665,7.208828972887088,-5.4259857462372025,-152.1444912618588,-7.94756506816392,-22.711475449834968,-0.1197,-0.9706,-0.0693,-0.1969
838619.0,827.418328,1.0,2.26,15.73,-8.42,-11.0,-29.69,27.37,61.44,-179.13,-36.31,0.910384575959902,13.086267750111633,-2.496101574190332,-156.02889725740351,-7.867159619602527,-18.30932175034793,-0.1143,-0.9782,-0.0686,-0.1591
838656.0,827.510432,1.0,1.13,9.07,-6.3,-8.69,-27.75,30.69,210.19,-112.75,-86.19,1.303452352948853,7.960987243569773,2.180675041261185,-161.64573705685663,-11.37469368630907,-12.50381856554563,-0.0613,-0.9872,-0.0991,-0.1089
838690.0,827.5678379999997,1.0,3.12,1.1,-9.46,-8.69,-27.75,30.69,138.63,-10.69,-142.81,1.3810343400140634,-0.07426434815104105,-0.11923680966570772,-160.59764077497127,-15.598198868035936,-10.971708923508501,-0.0282,-0.9857,-0.1357,-0.0956
838727.0,827.6474019999997,1.0,2.89,-2.86,-10.28,-4.19,-23.0,34.56,85.69,-60.25,-87.0,0.1115571611024948,-3.467158048400857,-0.6898479906260118,-157.6856148741907,-20.39013361769746,-8.866772764864926,-0.0031,-0.9811,-0.177,-0.0773
838762.0,827.659285,1.0,1.56,-7.45,-8.78,1.0,-20.37,36.69,39.56,-64.75,-49.81,-2.319115243201105,-7.140901807100343,0.9379564169459941,-156.87120131517742,-22.139049946746336,-6.48935022815341,0.0089,-0.9797,-0.192,-0.0566
838797.0,827.6951740000003,1.0,2.43,-9.59,-9.81,1.0,-20.37,36.69,-24.94,-56.88,27.37,-2.173418387715857,-9.538583657334652,-0.11306644372796625,-156.98580474112185,-22.582922295565638,-4.447268815934101,0.0051,-0.9799,-0.1958,-0.0388
838832.0,827.707901,1.0,3.0,-5.95,-10.16,3.56,-18.19,36.25,-71.75,-84.19,94.37,0.4551601047695717,-6.958662757081195,-0.14312094772725992,-160.4621037024181,-19.319861939553064,-1.94815034703792,-0.0206,-0.9855,-0.1678,-0.017
838868.0,827.710624,1.0,1.57,-1.91,-7.31,4.38,-19.87,36.25,-67.44,-67.37,99.56,0.8499053162485982,-2.8708607985798977,2.6943424118406165,-162.8334582675195,-16.43138337904295,-0.2291832708413497,-0.0419,-0.9888,-0.1429,-0.002
838903.0,827.713093,1.0,1.48,1.44,-6.52,4.38,-19.87,36.25,-35.25,-55.56,110.12,1.815035532949644,0.3083995237219308,3.2199257953669944,-165.13681976050614,-13.299539926123945,1.1344749665222489,-0.0565,-0.9916,-0.1158,0.0099
838938.0,827.764371,1.0,-0.08,4.57,-6.31,4.75,-22.56,34.19,-45.13,-28.37,94.06,0.9059334421055852,3.5600273853241746,2.9354863711656054,-167.44083871780597,-9.085166406176855,2.922401528803221,-0.0712,-0.9940000000000001,-0.0792,0.0255
838973.0,827.781008,1.0,-0.28,5.07,-6.09,5.5,-23.69,35.06,-26.37,21.37,76.69,0.44695723059515147,4.000149438645544,2.9750737761317136,-168.6513771745933,-6.1221011960432445,2.1200647857418087,-0.0817,-0.9951,-0.0534,0.0185
839010.0,827.831854,1.0,-0.5,5.69,-5.63,3.19,-24.75,33.75,14.81,88.0,42.31,-0.0499929348150335,4.714337849964913,3.318544009585172,-169.36940436804014,-4.883078110442899,0.04583662483277591,-0.0821,-0.9957,-0.0426,0.0004
839045.0,827.885904,1.0,-0.88,4.99,-3.88,3.19,-24.75,33.75,-8.88,142.94,29.81,-0.9304452114468152,4.352434552750038,5.23286762951895,-168.4218955829601,-4.103254614165427,-5.215716631990905,-0.0827,-0.9949,-0.0358,-0.0455
839079.0,827.9025849999997,1.0,2.55,6.23,-7.86,0.19,-23.69,31.19,-33.25,200.44,13.69,1.2317630419349128,4.5332336672678,0.5856114290757333,-164.1089976777972,-3.977125506843028,-11.2825706212041,-0.0907,-0.9904,-0.0347,-0.0983
839116.0,827.906562,1.0,3.7,2.87,-9.35,-5.5,-25.19,31.19,13.25,147.81,-5.56,0.8222741814189771,0.9436608488996828,-0.5751980711685274,-159.53822461146382,-4.137654318321577,-17.31180678552449,-0.0878,-0.9841,-0.0361,-0.1505
839151.0,827.9559419999997,1.0,4.59,0.39,-10.17,-5.5,-25.19,31.19,-14.69,150.44,-0.5,0.4719215888446744,-1.6800024491011545,-1.220769543347231,-155.75453926974473,-4.596353909147252,-21.613845749720678,-0.0859,-0.9777,-0.0401,-0.1875
839186.0,827.980222,1.0,6.34,2.49,-12.23,-10.06,-24.87,31.19,-51.56,135.56,4.13,0.10819345550178604,-0.4542054944701734,-4.184439719710172,-150.34469905459454,-4.355527902560735,-26.912168656137837,-0.0992,-0.9667,-0.038,-0.2327
839221.0,828.02176,1.0,5.56,3.33,-10.92,-15.69,-24.5,29.56,-21.56,65.44,-5.88,-0.4367703725889811,0.4840813420197496,-2.8749822646549266,-148.0575479662478,-4.344060485976967,-29.002366759572602,-0.1077,-0.9614,-0.0379,-0.2504
839258.0,828.070746,1.0,5.26,1.68,-10.6,-17.5,-25.37,28.37,-1.94,40.44,-0.81,-0.9393927720512534,-1.0260521099541753,-2.0641022207936093,-146.39227073603638,-4.699571210920838,-30.769559206882434,-0.1074,-0.9573,-0.040999999999999995,-0.2653
839292.0,828.133024,1.0,5.78,2.53,-10.67,-17.5,-25.37,28.37,-17.87,22.5,-4.25,-0.7368300082263102,-0.3984397406481424,-2.560909472751668,-145.22287322309495,-4.768384859798278,-31.78102952643836,-0.1122,-0.9543,-0.0416,-0.2738
839329.0,828.139841,1.0,5.85,2.31,-10.56,-18.56,-25.37,28.56,-7.69,-0.5,-3.56,-0.6527912926768269,-0.6851519432771735,-2.4480074959412463,-144.9554604078314,-4.825730880475589,-31.90019165418321,-0.1156,-0.9536,-0.0421,-0.2748
839364.0,828.1695139999997,1.0,5.48,2.47,-9.95,-17.75,-27.25,28.06,-3.88,-18.87,3.63,-0.5282939420914898,-0.3727603350348991,-1.8000616464300163,-145.4536804163923,-4.6536963885673295,-31.340435037267948,-0.1166,-0.9549,-0.0406,-0.2701
839399.0,828.2148,1.0,5.09,2.8,-9.1,-17.75,-27.25,28.06,-4.63,-27.06,-4.5,-0.2646200117045434,0.13953006220746486,-0.9854122501515352,-146.07660730478975,-4.596353909147252,-30.54380438300529,-0.1182,-0.9565,-0.0401,-0.2634
839434.0,828.272114,1.0,4.97,3.05,-8.94,-17.69,-26.75,27.56,-8.31,-28.5,-7.88,-0.0814439607266424,0.3495570649070191,-0.8609728251487585,-146.9114591288739,-4.6536963885673295,-29.428677083635286,-0.1219,-0.9586,-0.0406,-0.254
839471.0,828.277339,1.0,4.38,3.12,-8.04,-17.69,-27.19,29.69,1.63,-31.94,-4.63,0.006980442706943979,0.6727920613547127,0.15741676022402018,-147.72605283657722,-4.66516502390792,-28.505522169511824,-0.1228,-0.9606,-0.0407,-0.2462
839505.0,828.3227019999997,1.0,4.1,2.98,-7.83,-17.69,-27.19,29.69,2.5,-23.12,-11.19,0.028296777236536563,0.6057610073533762,0.4990427406465905,-148.56117141184754,-4.928956774809122,-27.501664319152926,-0.12300000000000001,-0.9626,-0.043,-0.2377
839540.0,828.346416,1.0,4.2,2.41,-8.24,-15.69,-26.75,28.87,4.25,-17.62,-10.88,0.008480621187535675,-0.049150418470435775,0.2492857024842597,-149.0298356031949,-5.215716631990905,-26.94751777725,-0.1224,-0.9637,-0.0455,-0.233
839575.0,828.398321,1.0,3.98,2.38,-7.98,-16.06,-26.69,28.37,2.75,-16.62,-7.63,0.049360305322749376,-0.0059915669869376464,0.5772010640459442,-149.59279181341395,-5.479564528582773,-26.241026566581308,-0.1226,-0.965,-0.0478,-0.22699999999999998
839610.0,828.41878,1.0,4.19,2.24,-8.43,-14.19,-27.19,29.69,4.19,-12.88,-5.38,0.1023776134572678,-0.2673407369430785,0.1341814549679956,-149.94434113378782,-5.594289991509483,-25.817620461905193,-0.1222,-0.9658,-0.0488,-0.2234
839645.0,828.4683980000003,1.0,3.98,2.37,-8.5,-14.19,-27.19,29.69,1.69,-18.69,-6.88,0.004070662693957949,-0.12934288509986852,0.12726190736835366,-150.479330837061,-5.777862453568277,-25.147957501678356,-0.1219,-0.9670000000000001,-0.0504,-0.2177
839682.0,828.510283,1.0,3.89,2.29,-8.56,-14.19,-27.37,30.56,5.81,-13.88,-3.06,-0.028335816210094626,-0.18387199572936969,0.13115579191397586,-150.9325061978301,-5.8581800447136345,-24.70200146162693,-0.1205,-0.968,-0.0511,-0.2139
839716.0,828.533211,1.0,3.75,2.34,-8.38,-12.69,-27.06,28.75,3.44,-11.94,-1.81,0.005190498206601113,-0.06692450448049891,0.3325804325211763,-151.3927025567389,-5.904077101832591,-24.221263990434842,-0.1198,-0.9690000000000001,-0.0515,-0.2098
839751.0,828.572003,1.0,3.8,2.48,-8.63,-12.69,-27.06,28.75,-2.31,-10.06,1.06,-0.011015738630734795,0.007306956452743248,0.0564128099676573,-151.57882322936237,-5.8467059276897535,-23.998630403703213,-0.1199,-0.9694,-0.051,-0.2079
839786.0,828.586178,1.0,3.71,2.64,-8.63,-12.25,-26.69,28.56,-1.31,-7.75,5.06,-0.03883929498479111,0.17583216114091574,0.05071977473323663,-151.86026450485573,-5.628708719478254,-23.694122645249475,-0.1202,-0.97,-0.0491,-0.2053
839821.0,828.6517759999997,1.0,3.86,2.74,-8.9,-12.25,-27.06,29.19,-3.0,-5.38,1.88,0.006144803892830675,0.1880240160739204,-0.27213014497610644,-151.95469309277132,-5.491036825631306,-23.588755762396122,-0.1207,-0.9702,-0.0479,-0.2044
839856.0,828.668237,1.0,3.73,2.59,-8.76,-12.25,-27.06,29.19,1.0,-8.25,1.44,-0.011893064786981043,0.08991520454122975,-0.059979303414733565,-152.23986727877062,-5.3992599817249625,-23.284475807440252,-0.1209,-0.9708,-0.0471,-0.2018
839890.0,828.71555,1.0,3.63,2.45,-8.93,-12.25,-27.37,30.19,1.0,-9.13,1.75,-0.13124922266939665,-0.0661923588662985,-0.13833326862224204,-152.47972490837182,-5.307486603594608,-23.003749734381753,-0.1209,-0.9713,-0.0463,-0.1994
839925.0,828.777058,1.0,3.6,2.5,-8.89,-12.69,-27.06,30.56,-2.31,-9.19,1.69,-0.10053459500084982,-0.004446865606888506,-0.10455441826291256,-152.72165046658662,-5.204245622111723,-22.75822922439662,-0.121,-0.9718,-0.0454,-0.1973
839960.0,828.782475,1.0,3.45,2.79,-8.74,-11.5,-27.06,29.25,-2.13,-6.31,0.44,-0.11660615630923403,0.30143782235673355,0.010235439378156741,-152.91671705681662,-5.112479412053579,-22.431032941974188,-0.1225,-0.9722,-0.0446,-0.1945
839993.0,828.801045,1.0,3.39,2.89,-8.8,-11.5,-27.06,29.25,-2.5,-9.31,1.06,-0.15663728260708054,0.3846514349601355,-0.0478772862416168,-153.06392657993817,-5.0321866714644,-22.2091125181558,-0.12300000000000001,-0.9725,-0.0439,-0.1926
840030.0,828.844326,1.0,3.36,2.82,-8.84,-11.5,-26.69,30.06,-2.63,-5.13,-0.63,-0.1571473277496549,0.2821329357579861,-0.05657998433787801,-153.21193002249612,-5.020716482682318,-21.928912393640328,-0.1245,-0.9728,-0.0438,-0.1902
840065.0,828.876158,1.0,3.4,2.72,-8.79,-11.19,-26.25,29.75,0.5,-6.19,-0.44,-0.07819640855922261,0.18224088649337464,-0.0006520541318408848,-153.36074062083046,-4.997776256010228,-21.765523710742034,-0.125,-0.9731,-0.0436,-0.1888
840099.0,828.920305,1.0,3.35,2.67,-8.86,-11.19,-26.25,29.75,-2.19,-7.0,-1.56,-0.1079933645118909,0.10543593995338656,-0.03348316453530309,-153.5103719816942,-5.020716482682318,-21.497196482057948,-0.1259,-0.9734,-0.0438,-0.1865
840134.0,828.928362,1.0,3.22,2.69,-8.8,-11.56,-27.06,29.75,-3.31,-7.75,-0.06,-0.1666722813959376,0.1431133870142652,0.060048596994356274,-153.66083809692267,-4.9518964029981625,-21.25230621784773,-0.1266,-0.9737,-0.0432,-0.1844
840171.0,828.984812,1.0,3.3,2.67,-8.86,-11.5,-26.69,30.5,-3.25,-2.63,-0.69,-0.0942801278746226,0.07517278642342415,-0.01699292458094881,-153.71118144535646,-4.9060173442654875,-21.112413070583106,-0.1279,-0.9738,-0.0428,-0.1832
840204.0,829.0011400000003,1.0,3.25,2.65,-8.78,-11.5,-26.69,30.5,-2.56,-0.81,-0.25,-0.1014742447818715,0.0695107331484507,0.07740176410720245,-153.71118144535646,-4.89454770282183,-21.042478443283557,-0.1285,-0.9738,-0.0427,-0.1826
840239.0,829.0680990000003,1.0,3.39,2.68,-9.06,-10.0,-27.06,29.69,-1.81,2.25,0.25,-0.07511860348732369,-0.002400515452170543,-0.230902063772108,-153.66083809692267,-4.928956774809122,-21.054133663315955,-0.1293,-0.9737,-0.043,-0.1827
840273.0,829.070874,1.0,3.36,2.79,-8.93,-11.19,-26.69,30.19,-2.63,-3.25,0.06,-0.048448243957655235,0.12898078731513102,-0.13314963199263907,-153.66083809692267,-4.9060173442654875,-21.03082344341432,-0.1298,-0.9737,-0.0428,-0.1825
840310.0,829.125235,1.0,3.44,2.83,-8.99,-11.19,-27.06,30.56,-0.81,-3.0,-0.19,0.02179766333717037,0.12972768164031334,-0.2255628959910592,-153.71118144535646,-4.871608567013157,-20.92593832998922,-0.1305,-0.9738,-0.0425,-0.1816
840343.0,829.143273,1.0,3.4,2.71,-8.98,-11.19,-27.06,30.56,-0.44,-0.19,-1.19,-0.008332481901757616,0.01955729934831216,-0.17052635815803366,-153.71118144535646,-4.871608567013157,-20.879328419459103,-0.1306,-0.9738,-0.0425,-0.1812
840380.0,829.182242,1.0,3.25,2.78,-8.94,-10.0,-27.06,29.69,-1.0,-4.25,-0.37,-0.11041258571225554,0.10822909162692436,-0.10246678832386637,-153.76161968319718,-4.917487034889402,-20.762818905741057,-0.1309,-0.9739,-0.0429,-0.1802
840415.0,829.235626,1.0,3.16,2.74,-8.68,-11.88,-27.37,30.06,-1.44,-2.0,-1.31,-0.08820392588739034,0.13464121544803945,0.17287131193783445,-153.8627830260387,-4.768384859798278,-20.65797889865216,-0.1316,-0.9741,-0.0416,-0.1793
840448.0,829.255569,1.0,3.25,2.73,-8.83,-11.88,-27.37,30.06,-0.69,1.31,-1.31,-0.0523920096476127,0.07026263112109851,0.009884296973668327,-153.8627830260387,-4.802792327898413,-20.623036118505983,-0.1319,-0.9741,-0.0419,-0.179
840482.0,829.300992,1.0,3.29,2.72,-8.95,-11.5,-27.75,30.06,-2.0,0.88,-0.75,-0.06509726669389404,0.014281622037900355,-0.10902236152652378,-153.76161968319718,-4.745446786894516,-20.646331089662237,-0.1326,-0.9739,-0.0414,-0.1792
