acc_x,acc_y,acc_z,lin_x,lin_y,lin_z,eul_x,eul_y,eul_z
1.15,3.89,-8.64,0.4111555339407592,0.0377640497225144,0.2707323722381876,-80.25639506580565,-95.13963050405614,-21.403893300909647
1.15,3.89,-8.64,0.4111555339407592,0.0377640497225144,0.2707323722381876,-80.25639506580565,-95.13963050405614,-21.403893300909647
1.15,3.86,-8.7,0.2918690519580216,0.0427813308254714,0.2241095114739036,-80.8421541496524,-94.42869817988996,-21.56718332965744
1.15,3.86,-8.7,0.2918690519580216,0.0427813308254714,0.2241095114739036,-80.8421541496524,-94.42869817988996,-21.56718332965744
1.11,3.97,-8.7,0.3509932751259428,0.0909964391066373,0.1862797696561439,-81.20389126609984,-93.94058643018808,-21.78886220109525
1.11,3.97,-8.7,0.3509932751259428,0.0909964391066373,0.1862797696561439,-81.20389126609984,-93.94058643018808,-21.78886220109525
1.25,4.18,-8.6,0.4976863776398059,-0.0523684288235517,0.1762571826132539,-81.53634553252334,-93.45469190215636,-22.11569761985897
1.25,4.18,-8.6,0.4976863776398059,-0.0523684288235517,0.1762571826132539,-81.53634553252334,-93.45469190215636,-22.11569761985897
1.44,4.04,-8.8,0.2568915525840461,-0.1648760656113013,0.0218647385239183,-81.68773616772422,-93.2542715435576,-22.279183498407725
1.44,4.04,-8.8,0.2568915525840461,-0.1648760656113013,0.0218647385239183,-81.68773616772422,-93.2542715435576,-22.279183498407725
1.31,4.09,-8.76,0.2975966574338213,-0.0230791767656386,0.0551012214169759,-81.71803504011511,-93.12086388400516,-22.524498571325392
1.31,4.09,-8.76,0.2975966574338213,-0.0230791767656386,0.0551012214169759,-81.71803504011511,-93.12086388400516,-22.524498571325392
1.44,3.76,-8.88,-0.0717272699570798,-0.0926612299062563,0.0571951898469311,-81.67258932855316,-93.12086388400516,-22.606293449751373
1.44,3.76,-8.88,-0.0717272699570798,-0.0926612299062563,0.0571951898469311,-81.67258932855316,-93.12086388400516,-22.606293449751373
1.26,3.74,-8.76,-0.018576724526321,0.0735277632329833,0.1989942727510349,-81.64230083997052,-93.15420041095278,-22.64135196781312
1.26,3.74,-8.76,-0.018576724526321,0.0735277632329833,0.1989942727510349,-81.64230083997052,-93.15420041095278,-22.64135196781312
1.44,3.98,-8.96,0.0889975582770303,-0.0613468992454469,-0.1021297428630792,-81.5968810686458,-93.1375308669422,-22.79329707445838
1.44,3.98,-8.96,0.0889975582770303,-0.0613468992454469,-0.1021297428630792,-81.5968810686458,-93.1375308669422,-22.79329707445838
1.44,3.45,-8.84,-0.3456373922830114,-0.0450236598101705,0.2149761281925819,-81.55147683065383,-93.20422442477208,-22.781607550913503
1.44,3.45,-8.84,-0.3456373922830114,-0.0450236598101705,0.2149761281925819,-81.55147683065383,-93.20422442477208,-22.781607550913503
1.33,3.92,-8.6,0.1684375172130199,-0.0159806398153219,0.263763988842463,-81.55147683065383,-93.15420041095278,-22.851748300506443
1.33,3.92,-8.6,0.1684375172130199,-0.0159806398153219,0.263763988842463,-81.55147683065383,-93.15420041095278,-22.851748300506443
1.48,4.09,-8.8,0.2184893409576235,-0.1323022794717641,-0.006262845569072,-81.50608810294752,-93.17087251757091,-22.92189772810272
1.48,4.09,-8.8,0.2184893409576235,-0.1323022794717641,-0.006262845569072,-81.50608810294752,-93.17087251757091,-22.92189772810272
1.3,3.79,-8.85,-0.0382821048940352,0.0607080007912193,0.0921531515222149,-81.47583755660962,-93.2375866008448,-22.816676842803343
1.3,3.79,-8.85,-0.0382821048940352,0.0607080007912193,0.0921531515222149,-81.47583755660962,-93.2375866008448,-22.816676842803343
1.3,3.73,-8.7,-0.0305237092990713,0.0269100610960046,0.2520048390438685,-81.4607148625289,-93.28764914604751,-22.74654042115177
1.3,3.73,-8.7,-0.0305237092990713,0.0269100610960046,0.2520048390438685,-81.4607148625289,-93.28764914604751,-22.74654042115177
1.32,3.67,-8.77,-0.1034795459205614,0.0119645096128357,0.2090800557856926,-81.41535708644898,-93.37113824061916,-22.65303861752037
1.32,3.67,-8.77,-0.1034795459205614,0.0119645096128357,0.2090800557856926,-81.41535708644898,-93.37113824061916,-22.65303861752037
1.26,3.88,-8.76,0.0971241918928062,0.0516094251884182,0.1439638642207334,-81.33979509600317,-93.43797599516576,-22.66472550596455
1.26,3.88,-8.76,0.0971241918928062,0.0516094251884182,0.1439638642207334,-81.33979509600317,-93.43797599516576,-22.66472550596455
1.4,3.94,-8.75,0.1571678028218262,-0.0994647940211894,0.1106969763665599,-81.17370917960935,-93.67223499425867,-22.57123707542117
1.4,3.94,-8.75,0.1571678028218262,-0.0994647940211894,0.1106969763665599,-81.17370917960935,-93.67223499425867,-22.57123707542117
1.33,3.63,-8.74,-0.0828976909730226,-0.021178612539094,0.2501820625660915,-81.00782923439904,-93.90700572648474,-22.40766889888877
1.33,3.63,-8.74,-0.0828976909730226,-0.021178612539094,0.2501820625660915,-81.00782923439904,-93.90700572648474,-22.40766889888877
1.15,3.86,-8.73,0.1834081331003877,0.1230458308101558,0.1948748684109933,-80.79700544480976,-94.175947342697,-22.279183498407725
1.15,3.86,-8.73,0.1834081331003877,0.1230458308101558,0.1948748684109933,-80.79700544480976,-94.175947342697,-22.279183498407725
1.41,3.95,-8.8,0.2387956715813244,-0.1239293022669576,0.0619992543204137,-80.58651122616075,-94.46244378855972,-22.174080183171977
1.41,3.95,-8.8,0.2387956715813244,-0.1239293022669576,0.0619992543204137,-80.58651122616075,-94.46244378855972,-22.174080183171977
1.32,3.63,-8.82,0.0353944981899184,-0.0084245890497505,0.1780272399269247,-80.22642428776203,-95.00384413179768,-21.858883165817787
1.32,3.63,-8.82,0.0353944981899184,-0.0084245890497505,0.1780272399269247,-80.22642428776203,-95.00384413179768,-21.858883165817787
1.47,3.41,-9.11,-0.2254810493020655,-0.0833275324213502,-0.0281512089084063,-79.97193860180572,-95.41173288452472,-21.602179804976902
1.47,3.41,-9.11,-0.2254810493020655,-0.0833275324213502,-0.0281512089084063,-79.97193860180572,-95.41173288452472,-21.602179804976902
1.27,3.72,-8.81,0.236023565162814,0.0163882786625464,0.1624069347817442,-79.55381523993225,-95.90673837953938,-21.46220610254345
1.27,3.72,-8.81,0.236023565162814,0.0163882786625464,0.1624069347817442,-79.55381523993225,-95.90673837953938,-21.46220610254345
1.35,3.46,-8.85,0.0185094928618594,-0.0240884434092572,0.2089587596251529,-79.19643226469245,-96.35256057889303,-21.298944377524897
1.35,3.46,-8.85,0.0185094928618594,-0.0240884434092572,0.2089587596251529,-79.19643226469245,-96.35256057889303,-21.298944377524897
1.26,3.11,-8.92,-0.2332303091063781,0.1209798472696195,0.2799996180730577,-78.73617218118244,-96.97307368097871,-21.03082344341432
1.26,3.11,-8.92,-0.2332303091063781,0.1209798472696195,0.2799996180730577,-78.73617218118244,-96.97307368097871,-21.03082344341432
1.35,3.4,-8.96,0.0306189601253901,0.0346732507893174,0.1287390557434573,-78.3956670621913,-97.31944790610486,-21.100756747738608
1.35,3.4,-8.96,0.0306189601253901,0.0346732507893174,0.1287390557434573,-78.3956670621913,-97.31944790610486,-21.100756747738608
1.26,3.63,-8.65,0.4076634269476492,0.1175489074149691,0.3511228975749407,-77.70240232798936,-97.96340007132606,-21.403893300909647
1.26,3.63,-8.65,0.4076634269476492,0.1175489074149691,0.3511228975749407,-77.70240232798936,-97.96340007132606,-21.403893300909647
1.7,2.78,-9.08,-0.5174331995641144,-0.0198057809850547,0.1735471449990004,-77.23232058732376,-98.50614716044564,-21.403893300909647
1.7,2.78,-9.08,-0.5174331995641144,-0.0198057809850547,0.1735471449990004,-77.23232058732376,-98.50614716044564,-21.403893300909647
1.62,2.9,-8.94,-0.3159574407954504,0.1348982133144884,0.2756493511882194,-76.6030617698578,-98.9989474081356,-21.893896745024183
1.62,2.9,-8.94,-0.3159574407954504,0.1348982133144884,0.2756493511882194,-76.6030617698578,-98.9989474081356,-21.893896745024183
1.77,3.6,-8.87,0.3284769311968896,0.0194093484807365,0.0772344891451464,-76.00560231797398,-99.37018165058248,-22.617979384064764
1.77,3.6,-8.87,0.3284769311968896,0.0194093484807365,0.0772344891451464,-76.00560231797398,-99.37018165058248,-22.617979384064764
2.08,2.97,-8.92,-0.2430333441030458,0.0152367000477753,0.1809343052256213,-75.26579905121056,-100.00990479193828,-23.050527648721737
2.08,2.97,-8.92,-0.2430333441030458,0.0152367000477753,0.1809343052256213,-75.26579905121056,-100.00990479193828,-23.050527648721737
2.19,3.18,-9.07,-0.1031307590971923,0.1039690861686679,-0.049919102666978,-74.54405958152292,-100.42085372385358,-23.858067126010045
2.19,3.18,-9.07,-0.1031307590971923,0.1039690861686679,-0.049919102666978,-74.54405958152292,-100.42085372385358,-23.858067126010045
2.15,3.33,-8.79,0.1439777601943108,0.12672894557837,0.1661774919264491,-74.05524812454561,-100.74370415119088,-24.24470448957822
2.15,3.33,-8.79,0.1439777601943108,0.12672894557837,0.1661774919264491,-74.05524812454561,-100.74370415119088,-24.24470448957822
2.44,3.12,-8.78,-0.0788430327319519,-0.0013737710740959,0.1749221233964135,-73.56800446686195,-101.0856867194038,-24.56125248965988
2.44,3.12,-8.78,-0.0788430327319519,-0.0013737710740959,0.1749221233964135,-73.56800446686195,-101.0856867194038,-24.56125248965988
2.68,3.25,-8.93,-0.0293919680745604,-0.016948723729967,-0.0669840246626822,-72.89699940259716,-101.44701315982276,-25.265378432632104
2.68,3.25,-8.93,-0.0293919680745604,-0.016948723729967,-0.0669840246626822,-72.89699940259716,-101.44701315982276,-25.265378432632104
2.64,3.31,-8.69,0.1170035846498679,0.1315098588920715,0.1417229274249916,-72.12962086079537,-101.7734021529752,-26.170433719349266
2.64,3.31,-8.69,0.1170035846498679,0.1315098588920715,0.1417229274249916,-72.12962086079537,-101.7734021529752,-26.170433719349266
2.96,3.16,-8.63,-0.0719991976787876,0.0128317279243188,0.1516641656089366,-71.52122812984334,-102.04626885327214,-26.806136930452627
2.96,3.16,-8.63,-0.0719991976787876,0.0128317279243188,0.1516641656089366,-71.52122812984334,-102.04626885327214,-26.806136930452627
3.12,2.73,-8.8,-0.4919050681503604,0.1859843862602568,0.0932191327937399,-70.95736285453455,-102.30167093062992,-27.28936124283988
3.12,2.73,-8.8,-0.4919050681503604,0.1859843862602568,0.0932191327937399,-70.95736285453455,-102.30167093062992,-27.28936124283988
3.23,3.48,-8.67,0.1926521425521998,0.0709941837580094,-0.0761656401828396,-70.40949185665009,-102.35649190819592,-28.18641141984425
3.23,3.48,-8.67,0.1926521425521998,0.0709941837580094,-0.0761656401828396,-70.40949185665009,-102.35649190819592,-28.18641141984425
3.54,2.79,-8.66,-0.4734703273809972,0.088727939875552,0.0557908992963511,-69.94734861219692,-102.50284081699964,-28.588291341239625
3.54,2.79,-8.66,-0.4734703273809972,0.088727939875552,0.0557908992963511,-69.94734861219692,-102.50284081699964,-28.588291341239625
3.67,3.43,-8.46,0.1143061984699083,-0.0985358755660208,-0.0311660571448868,-69.54229663061771,-102.48453447446366,-29.28652767093248
3.67,3.43,-8.46,0.1143061984699083,-0.0985358755660208,-0.0311660571448868,-69.54229663061771,-102.48453447446366,-29.28652767093248
3.67,3.01,-8.35,-0.2014482356068584,0.1476372267831271,0.2051333563838096,-68.94352388945018,-102.55778172371149,-30.05706136986712
3.67,3.01,-8.35,-0.2014482356068584,0.1476372267831271,0.2051333563838096,-68.94352388945018,-102.55778172371149,-30.05706136986712
4.12,3.18,-8.61,-0.2271397993420885,0.0482269093985388,-0.2514304170957349,-68.52704538255442,-102.42963728896297,-30.84087559172584
4.12,3.18,-8.61,-0.2271397993420885,0.0482269093985388,-0.2514304170957349,-68.52704538255442,-102.42963728896297,-30.84087559172584
4.14,3.13,-8.29,-0.1942077695448278,0.1483089904204955,0.0290793515409024,-67.97333851203919,-102.19212653307552,-31.959785992705623
4.14,3.13,-8.29,-0.1942077695448278,0.1483089904204955,0.0290793515409024,-67.97333851203919,-102.19212653307552,-31.959785992705623
4.19,3.15,-8.12,-0.1577121042760412,0.1971285452676708,0.1449075469636209,-67.61439507717935,-101.97342600574191,-32.795047946580326
4.19,3.15,-8.12,-0.1577121042760412,0.1971285452676708,0.1449075469636209,-67.61439507717935,-101.97342600574191,-32.795047946580326
4.37,3.31,-8.08,-0.0433165594848206,0.2047552192563781,0.0447035252511369,-67.38010802744758,-101.53756251878842,-33.69196539056284
4.37,3.31,-8.08,-0.0433165594848206,0.2047552192563781,0.0447035252511369,-67.38010802744758,-101.53756251878842,-33.69196539056284
4.53,3.11,-7.92,-0.2305947470458911,0.1946923945111971,0.1719044956208453,-67.173649069206,-101.21199312357184,-34.375043949019776
4.53,3.11,-7.92,-0.2305947470458911,0.1946923945111971,0.1719044956208453,-67.173649069206,-101.21199312357184,-34.375043949019776
4.76,3.26,-7.81,-0.1502032387352495,0.1043217557807052,0.0985165049174234,-66.98117667091634,-100.76167247514276,-35.227664546585345
4.76,3.26,-7.81,-0.1502032387352495,0.1043217557807052,0.0985165049174234,-66.98117667091634,-100.76167247514276,-35.227664546585345
4.74,3.27,-7.82,-0.1151926557009661,0.3591716813372101,0.1024948922434276,-66.80264364391536,-100.11693910211171,-36.27518399341682
4.74,3.27,-7.82,-0.1151926557009661,0.3591716813372101,0.1024948922434276,-66.80264364391536,-100.11693910211171,-36.27518399341682
5.18,3.25,-7.65,-0.2359849323324676,0.09113054183483,0.0161747134749905,-66.80264364391536,-99.52971641733647,-36.98735398071332
5.18,3.25,-7.65,-0.2359849323324676,0.09113054183483,0.0161747134749905,-66.80264364391536,-99.52971641733647,-36.98735398071332
5.25,3.09,-7.42,-0.3434727487470382,0.1391850696827401,0.2134412569752974,-66.91248837447597,-98.64669547249989,-37.95538472991653
5.25,3.09,-7.42,-0.3434727487470382,0.1391850696827401,0.2134412569752974,-66.91248837447597,-98.64669547249989,-37.95538472991653
5.55,3.32,-7.55,-0.2510977918485858,0.2162053943808322,-0.1290233604909421,-67.03614692743177,-97.5452305573509,-39.181563633405815
5.55,3.32,-7.55,-0.2510977918485858,0.2162053943808322,-0.1290233604909421,-67.03614692743177,-97.5452305573509,-39.181563633405815
5.99,3.63,-7.53,-0.1142690962743622,0.0003131687697188,-0.4765811301245169,-67.33879642330523,-96.645110284176,-40.02193352838936
5.99,3.63,-7.53,-0.1142690962743622,0.0003131687697188,-0.4765811301245169,-67.33879642330523,-96.645110284176,-40.02193352838936
6.07,3.29,-7.36,-0.4188438134859969,0.0450310231413568,-0.2760650146604515,-67.86281386047486,-95.51395447808784,-40.87678270719479
6.07,3.29,-7.36,-0.4188438134859969,0.0450310231413568,-0.2760650146604515,-67.86281386047486,-95.51395447808784,-40.87678270719479
6.15,3.44,-7.2,-0.2895200630156632,-0.0685441218092655,-0.2634830595219455,-68.4854543216403,-94.6144322101244,-41.37858245579029
6.15,3.44,-7.2,-0.2895200630156632,-0.0685441218092655,-0.2634830595219455,-68.4854543216403,-94.6144322101244,-41.37858245579029
6.12,3.67,-7.35,-0.1180703220336448,0.0867370955544171,-0.4366080791128013,-69.54229663061771,-93.38784380135635,-41.90575353350423
6.12,3.67,-7.35,-0.1180703220336448,0.0867370955544171,-0.4366080791128013,-69.54229663061771,-93.38784380135635,-41.90575353350423
6.2,3.69,-7.15,-0.1022703707187805,-0.1040641304621856,-0.3499887859381996,-70.39546823502994,-92.52254534707764,-42.151265384526
6.2,3.69,-7.15,-0.1022703707187805,-0.1040641304621856,-0.3499887859381996,-70.39546823502994,-92.52254534707764,-42.151265384526
6.03,3.86,-7.07,0.0903475288717816,-0.0500589836379337,-0.2548971684122154,-71.22495103692498,-91.72982641130142,-42.38468953590336
6.03,3.86,-7.07,0.0903475288717816,-0.0500589836379337,-0.2548971684122154,-71.22495103692498,-91.72982641130142,-42.38468953590336
6.08,4.2,-7.22,0.3237535347462431,-0.0769172605205659,-0.5192430550230558,-72.45600677848147,-90.79574936750706,-42.34782086095775
6.08,4.2,-7.22,0.3237535347462431,-0.0769172605205659,-0.5192430550230558,-72.45600677848147,-90.79574936750706,-42.34782086095775
5.94,4.27,-7.37,0.3788957933358953,-0.0630038879252929,-0.5705301799862124,-73.52508685379959,-90.43729021823673,-41.68496498644351
5.94,4.27,-7.37,0.3788957933358953,-0.0630038879252929,-0.5705301799862124,-73.52508685379959,-90.43729021823673,-41.68496498644351
5.28,4.38,-6.86,0.8217902531742112,-0.2665957786887256,0.1435248600376066,-75.41056702241764,-90.1610712534398,-39.912193788917286
5.28,4.38,-6.86,0.8217902531742112,-0.2665957786887256,0.1435248600376066,-75.41056702241764,-90.1610712534398,-39.912193788917286
5.04,3.95,-7.51,0.2869108657686181,0.058242318127589,-0.0583634306793019,-76.48629178886966,-90.03131672872559,-38.84117149116385
5.04,3.95,-7.51,0.2869108657686181,0.058242318127589,-0.0583634306793019,-76.48629178886966,-90.03131672872559,-38.84117149116385
4.84,4.15,-7.64,0.4775496225427743,0.0644665899528811,-0.1324390134251789,-77.30566907284118,-89.98269667432403,-37.87057079932817
4.84,4.15,-7.64,0.4775496225427743,0.0644665899528811,-0.1324390134251789,-77.30566907284118,-89.98269667432403,-37.87057079932817
4.7,3.42,-7.74,-0.1408655166562389,-0.0408973377156265,0.1281953550690762,-78.21833955489285,-90.09617559473963,-36.43197725116238
4.7,3.42,-7.74,-0.1408655166562389,-0.0408973377156265,0.1281953550690762,-78.21833955489285,-90.09617559473963,-36.43197725116238
4.22,3.7,-7.7,0.2324770258407251,0.0202031230182055,0.281213198137495,-79.37500813467463,-89.9664945721467,-34.97527349807247
4.22,3.7,-7.7,0.2324770258407251,0.0202031230182055,0.281213198137495,-79.37500813467463,-89.9664945721467,-34.97527349807247
4.21,3.94,-8.04,0.3316373033230236,-0.024367212500044,-0.0816624413622584,-80.09163739911392,-89.83696005570141,-34.12323828365854
4.21,3.94,-8.04,0.3316373033230236,-0.024367212500044,-0.0816624413622584,-80.09163739911392,-89.83696005570141,-34.12323828365854
4.29,3.45,-8.52,-0.2719089820937633,-0.0333956653869109,-0.3334658886370807,-80.46637592020761,-89.93409723395683,-33.3927596206584
4.29,3.45,-8.52,-0.2719089820937633,-0.0333956653869109,-0.3334658886370807,-80.46637592020761,-89.93409723395683,-33.3927596206584
3.71,3.52,-8.13,0.0302749740616691,0.0602439353783532,0.202127414561632,-81.15862069013602,-89.90170904203455,-32.23403459047365
3.71,3.52,-8.13,0.0302749740616691,0.0602439353783532,0.202127414561632,-81.15862069013602,-89.90170904203455,-32.23403459047365
3.44,3.92,-8.22,0.4188784794609151,-0.0127966727307178,0.0807681857575719,-82.18855815257656,-89.77224753073929,-30.650725683430657
3.44,3.92,-8.22,0.4188784794609151,-0.0127966727307178,0.0807681857575719,-82.18855815257656,-89.77224753073929,-30.650725683430657
3.37,3.2,-8.65,-0.3320861114158662,-0.0711785826048236,-0.0068128151322337,-82.78291189155357,-89.90170904203455,-29.227312357898
3.37,3.2,-8.65,-0.3320861114158662,-0.0711785826048236,-0.0068128151322337,-82.78291189155357,-89.90170904203455,-29.227312357898
2.82,3.81,-8.2,0.454141464962878,0.067845516826301,0.3463301050044869,-83.30329159943979,-89.85314388081687,-28.25730554929696
2.82,3.81,-8.2,0.454141464962878,0.067845516826301,0.3463301050044869,-83.30329159943979,-89.85314388081687,-28.25730554929696
2.68,3.3,-8.42,-0.0380094954129088,0.0543915941692914,0.3745560207850875,-83.65650764793494,-89.99890106694885,-27.11251495381608
2.68,3.3,-8.42,-0.0380094954129088,0.0543915941692914,0.3745560207850875,-83.65650764793494,-89.99890106694885,-27.11251495381608
2.8,3.72,-8.95,0.1780128662215786,-0.0094967080386179,-0.2804269419091874,-83.77959386115333,-90.09617559473963,-26.582368805630427
2.8,3.72,-8.95,0.1780128662215786,-0.0094967080386179,-0.2804269419091874,-83.77959386115333,-90.09617559473963,-26.582368805630427
2.58,3.6,-8.83,0.2148010480221065,-0.0471758067863592,-0.0694289260223435,-83.9336186033691,-90.46983065734317,-25.34758912480893
2.58,3.6,-8.83,0.2148010480221065,-0.0471758067863592,-0.0694289260223435,-83.9336186033691,-90.46983065734317,-25.34758912480893
2.48,3.16,-8.97,-0.1135338587783178,-0.0608630751255234,-0.0208779571719954,-83.91820775613573,-90.95906154292842,-24.22126399043484
2.48,3.16,-8.97,-0.1135338587783178,-0.0608630751255234,-0.0208779571719954,-83.91820775613573,-90.95906154292842,-24.22126399043484
2.3,2.57,-9.02,-0.5318890376270864,-0.0411626486138028,0.1645185090893282,-83.8565829897682,-91.54895776302855,-22.898513619526447
2.3,2.57,-9.02,-0.5318890376270864,-0.0411626486138028,0.1645185090893282,-83.8565829897682,-91.54895776302855,-22.898513619526447
2.08,3.18,-9.08,0.0692045358445375,0.0415292417179957,-0.0360470924793201,-83.91820775613573,-91.69691933728232,-22.279183498407725
2.08,3.18,-9.08,0.0692045358445375,0.0415292417179957,-0.0360470924793201,-83.91820775613573,-91.69691933728232,-22.279183498407725
1.83,3.31,-9.11,0.3219757662512642,0.0575725898485368,-0.0518548056409144,-84.02612286771037,-92.0759410724168,-20.856024774540764
1.83,3.31,-9.11,0.3219757662512642,0.0575725898485368,-0.0518548056409144,-84.02612286771037,-92.0759410724168,-20.856024774540764
1.55,2.05,-8.64,-0.5727523501297888,0.1253951547932635,0.8116052085286878,-84.11869444886841,-92.43970392561262,-19.54075377357945
1.55,2.05,-8.64,-0.5727523501297888,0.1253951547932635,0.8116052085286878,-84.11869444886841,-92.43970392561262,-19.54075377357945
1.65,2.96,-9.18,0.0707427391144965,0.0614048246778011,0.0215733568474867,-84.24222829795386,-92.25767235358332,-19.6570420373131
1.65,2.96,-9.18,0.0707427391144965,0.0614048246778011,0.0215733568474867,-84.24222829795386,-92.25767235358332,-19.6570420373131
1.62,2.89,-8.87,0.1186424796698627,-0.0069499491784053,0.3388479498817052,-84.33495776110861,-92.25767235358332,-19.37798430858409
1.62,2.89,-8.87,0.1186424796698627,-0.0069499491784053,0.3388479498817052,-84.33495776110861,-92.25767235358332,-19.37798430858409
1.83,2.54,-9.22,-0.3099942781816805,-0.1356447423554916,0.0755450241318484,-84.38134798435583,-92.25767235358332,-19.261744588057013
1.83,2.54,-9.22,-0.3099942781816805,-0.1356447423554916,0.0755450241318484,-84.38134798435583,-92.25767235358332,-19.261744588057013
1.55,2.72,-8.89,-0.0637766504230081,0.0981552981003899,0.3822509169647485,-84.38134798435583,-92.14199055285606,-19.57563811342796
1.55,2.72,-8.89,-0.0637766504230081,0.0981552981003899,0.3822509169647485,-84.38134798435583,-92.14199055285606,-19.57563811342796
1.76,2.71,-8.85,-0.1183206036050925,-0.018231201578694,0.3859351726606484,-84.33495776110861,-92.0099310436702,-20.157316215575328
1.76,2.71,-8.85,-0.1183206036050925,-0.018231201578694,0.3859351726606484,-84.33495776110861,-92.0099310436702,-20.157316215575328
1.74,2.97,-8.78,0.0801176933310183,0.0996920290912917,0.3768810391743411,-84.28858454106421,-91.77920529298514,-20.995859763455265
1.74,2.97,-8.78,0.0801176933310183,0.0996920290912917,0.3768810391743411,-84.28858454106421,-91.77920529298514,-20.995859763455265
1.91,2.98,-8.64,0.0198638294851226,0.132526270244542,0.470690369840213,-84.14956663775601,-91.41760096012828,-22.41935080242252
1.91,2.98,-8.64,0.0198638294851226,0.132526270244542,0.470690369840213,-84.14956663775601,-91.41760096012828,-22.41935080242252
2.53,3.14,-8.78,-0.0262190796548519,-0.1442277968929752,0.146038688987355,-83.76420160317195,-91.18809708858042,-24.080642561887807
2.53,3.14,-8.78,-0.0262190796548519,-0.1442277968929752,0.146038688987355,-83.76420160317195,-91.18809708858042,-24.080642561887807
2.82,3.41,-8.8,0.0103753804066966,0.0142379830713428,-0.0432327217038253,-83.27262296307823,-90.60008571252614,-26.66479763712951
2.82,3.41,-8.8,0.0103753804066966,0.0142379830713428,-0.0432327217038253,-83.27262296307823,-90.60008571252614,-26.66479763712951
3.28,3.57,-8.75,-0.0032493128250423,-0.1237367366607549,-0.1958736146667856,-82.90516622575332,-90.12861881978974,-28.48187662578674
3.28,3.57,-8.75,-0.0032493128250423,-0.1237367366607549,-0.1958736146667856,-82.90516622575332,-90.12861881978974,-28.48187662578674
3.53,3.86,-8.38,0.1975823448870745,-0.095781039100572,-0.0694163834108447,-82.37114871332962,-89.5298988974798,-30.781444422149058
3.53,3.86,-8.38,0.1975823448870745,-0.095781039100572,-0.0694163834108447,-82.37114871332962,-89.5298988974798,-30.781444422149058
3.79,3.89,-8.15,0.1515007759471256,-0.1501727977657407,0.0151641247255742,-81.93032160430613,-89.11102718958544,-32.424928041950515
3.79,3.89,-8.15,0.1515007759471256,-0.1501727977657407,0.0151641247255742,-81.93032160430613,-89.11102718958544,-32.424928041950515
3.92,3.55,-8.21,-0.3078921038697006,0.1403638948328509,0.0466038715535734,-81.18879937131794,-88.66161388971882,-34.50701040671306
3.92,3.55,-8.21,-0.3078921038697006,0.1403638948328509,0.0466038715535734,-81.18879937131794,-88.66161388971882,-34.50701040671306
4.07,4.02,-7.87,0.091303716648927,0.2074449195533729,0.0798401305372689,-80.7067534127589,-87.94292494652382,-36.504367169981776
4.07,4.02,-7.87,0.091303716648927,0.2074449195533729,0.0798401305372689,-80.7067534127589,-87.94292494652382,-36.504367169981776
4.35,3.97,-7.56,0.0440033257047393,0.0600596671497326,0.2237769160178917,-80.2863724526912,-87.49792892560957,-37.87057079932817
4.35,3.97,-7.56,0.0440033257047393,0.0600596671497326,0.2237769160178917,-80.2863724526912,-87.49792892560957,-37.87057079932817
4.4,4.13,-7.23,0.2759601298326481,0.0891922070569193,0.3935904146715892,-79.95698362722979,-87.05458100062674,-38.999166163078655
4.4,4.13,-7.23,0.2759601298326481,0.0891922070569193,0.3935904146715892,-79.95698362722979,-87.05458100062674,-38.999166163078655
4.95,4.0,-7.66,-0.1094391228624839,0.1466701187126093,-0.1504886931519617,-79.55381523993225,-86.48694417859592,-40.36359153375482
4.95,4.0,-7.66,-0.1094391228624839,0.1466701187126093,-0.1504886931519617,-79.55381523993225,-86.48694417859592,-40.36359153375482
5.47,4.42,-7.48,0.2266093873062999,-0.1609259841965422,-0.4564124578239301,-79.50909171234422,-85.8749731823786,-41.280605467484456
5.47,4.42,-7.48,0.2266093873062999,-0.1609259841965422,-0.4564124578239301,-79.50909171234422,-85.8749731823786,-41.280605467484456
5.38,3.98,-7.18,-0.0575297233667446,-0.1338117314597042,-0.0074207533343706,-79.31545721761533,-85.54670767677331,-41.94256744155725
5.38,3.98,-7.18,-0.0575297233667446,-0.1338117314597042,-0.0074207533343706,-79.31545721761533,-85.54670767677331,-41.94256744155725
5.47,4.16,-7.27,0.0076210794795852,0.0471035037968916,-0.1972054157423546,-79.18156133822953,-84.95490252162044,-42.93827474491775
5.47,4.16,-7.27,0.0076210794795852,0.0471035037968916,-0.1972054157423546,-79.18156133822953,-84.95490252162044,-42.93827474491775
5.16,3.61,-6.94,-0.312161848626699,0.1659790681924033,0.4420194184349171,-79.28569137845204,-84.47417954583062,-43.406566594214624
5.16,3.61,-6.94,-0.312161848626699,0.1659790681924033,0.4420194184349171,-79.28569137845204,-84.47417954583062,-43.406566594214624
5.24,3.93,-6.65,0.0416150292903846,0.1519216913199559,0.4739018522653975,-79.58363899911447,-83.42603924278487,-44.43208368482341
5.24,3.93,-6.65,0.0416150292903846,0.1519216913199559,0.4739018522653975,-79.58363899911447,-83.42603924278487,-44.43208368482341
5.92,4.44,-6.87,0.2606029471423831,-0.0322657211521137,-0.2873058661200449,-79.71792602911492,-82.59974558341173,-45.324731779489326
5.92,4.44,-6.87,0.2606029471423831,-0.0322657211521137,-0.2873058661200449,-79.71792602911492,-82.59974558341173,-45.324731779489326
6.08,4.43,-6.79,0.2360433286311508,-0.0110779089121497,-0.324468439093625,-79.76271757028876,-81.83929990977303,-46.220292814904006
6.08,4.43,-6.79,0.2360433286311508,-0.0110779089121497,-0.324468439093625,-79.76271757028876,-81.83929990977303,-46.220292814904006
5.94,4.25,-6.46,0.2099245799655407,0.0011886867758152,0.058130612023687,-79.6731491009361,-81.40024126031591,-46.84396830154976
5.94,4.25,-6.46,0.2099245799655407,0.0011886867758152,0.058130612023687,-79.6731491009361,-81.40024126031591,-46.84396830154976
6.18,4.41,-6.38,0.30793893614863,-0.06583653071289,-0.1052488676654359,-79.43458474445285,-81.00782923439904,-47.59432704723895
6.18,4.41,-6.38,0.30793893614863,-0.06583653071289,-0.1052488676654359,-79.43458474445285,-81.00782923439904,-47.59432704723895
6.3,4.17,-6.23,0.0799640183644481,-0.0321806417588699,0.0145935172144238,-78.72135037210387,-80.63158949863124,-48.82460984436268
6.3,4.17,-6.23,0.0799640183644481,-0.0321806417588699,0.0145935172144238,-78.72135037210387,-80.63158949863124,-48.82460984436268
6.59,4.14,-6.3,-0.1084507173476981,0.1220129311623403,-0.2048958989376803,-77.6288499193909,-80.25639506580565,-50.4026226278441
6.59,4.14,-6.3,-0.1084507173476981,0.1220129311623403,-0.2048958989376803,-77.6288499193909,-80.25639506580565,-50.4026226278441
6.56,3.9,-5.89,-0.192000867154956,-0.001331156258908,0.1682458844301013,-77.12969565730245,-79.97193860180572,-51.23993373594613
6.56,3.9,-5.89,-0.192000867154956,-0.001331156258908,0.1682458844301013,-77.12969565730245,-79.97193860180572,-51.23993373594613
6.68,4.53,-5.76,0.3255666112648343,0.1740638450417848,-0.1021646697513123,-76.41335815769425,-79.44948291717178,-52.55255813835036
6.68,4.53,-5.76,0.3255666112648343,0.1740638450417848,-0.1021646697513123,-76.41335815769425,-79.44948291717178,-52.55255813835036
7.06,4.38,-5.84,0.0299086752776066,0.1263590069406723,-0.3479912478485989,-75.81667229763626,-79.18156133822953,-53.436046525616895
7.06,4.38,-5.84,0.0299086752776066,0.1263590069406723,-0.3479912478485989,-75.81667229763626,-79.18156133822953,-53.436046525616895
7.01,4.19,-5.4,0.0159292291706486,-0.0444133522301712,0.0161457375116906,-75.41056702241764,-78.89931607211645,-54.12986845766676
7.01,4.19,-5.4,0.0159292291706486,-0.0444133522301712,0.0161457375116906,-75.41056702241764,-78.89931607211645,-54.12986845766676
7.1,4.43,-5.41,0.158006247383693,0.0897349415074764,-0.1567822231879709,-74.93336628710402,-78.60283244211628,-54.89039623695746
7.1,4.43,-5.41,0.158006247383693,0.0897349415074764,-0.1567822231879709,-74.93336628710402,-78.60283244211628,-54.89039623695746
7.42,4.44,-5.6,-0.0115929560276372,0.1611205046661483,-0.4940250160533974,-74.515262135817,-78.38088122929612,-55.52401793690186
7.42,4.44,-5.6,-0.0115929560276372,0.1611205046661483,-0.4940250160533974,-74.515262135817,-78.38088122929612,-55.52401793690186
7.28,4.19,-5.25,-0.0737562425747789,0.0119858258732854,-0.0984707138862948,-74.27070555325552,-78.30697537947441,-55.80910067345633
7.28,4.19,-5.25,-0.0737562425747789,0.0119858258732854,-0.0984707138862948,-74.27070555325552,-78.30697537947441,-55.80910067345633
7.13,4.42,-4.87,0.2987253024437192,-0.0752852937940562,0.1115329136405858,-74.04089516831135,-78.18880666556636,-56.1335150213454
7.13,4.42,-4.87,0.2987253024437192,-0.0752852937940562,0.1115329136405858,-74.04089516831135,-78.18880666556636,-56.1335150213454
7.37,4.19,-5.33,-0.1742265472779048,0.1854610294025063,-0.2042015780025732,-73.62524665323141,-78.07073688001653,-56.62756576019291
7.37,4.19,-5.33,-0.1742265472779048,0.1854610294025063,-0.2042015780025732,-73.62524665323141,-78.07073688001653,-56.62756576019291
7.08,4.52,-4.71,0.4165608808686534,-0.0114279406686335,0.1854626286459844,-73.49648178219452,-77.96750667649074,-56.861990212559824
7.08,4.52,-4.71,0.4165608808686534,-0.0114279406686335,0.1854626286459844,-73.49648178219452,-77.96750667649074,-56.861990212559824
7.44,4.39,-5.03,0.0743030972910347,0.0444172351680571,-0.1893044896399481,-73.31067854232553,-77.86435168062559,-57.12276675948825
7.44,4.39,-5.03,0.0743030972910347,0.0444172351680571,-0.1893044896399481,-73.31067854232553,-77.86435168062559,-57.12276675948825
7.43,4.26,-5.2,-0.1113605714577192,0.1794639592305751,-0.2107294732186293,-73.25355342465495,-77.82016535805077,-57.22716779893635
7.43,4.26,-5.2,-0.1113605714577192,0.1794639592305751,-0.2107294732186293,-73.25355342465495,-77.82016535805077,-57.22716779893635
7.64,4.21,-5.51,-0.3094085896183991,0.2041296639681924,-0.5043343082490708,-73.59662288630017,-77.86435168062559,-56.88805338503149
7.64,4.21,-5.51,-0.3094085896183991,0.2041296639681924,-0.5043343082490708,-73.59662288630017,-77.86435168062559,-56.88805338503149
7.36,4.28,-5.24,-0.012497255947596,-0.0133021139816689,-0.1906129690509512,-74.5296601704127,-77.95276564974543,-55.95178287128961
7.36,4.28,-5.24,-0.012497255947596,-0.0133021139816689,-0.1906129690509512,-74.5296601704127,-77.95276564974543,-55.95178287128961
6.96,4.18,-5.28,0.0720827512834299,-0.0792955991892188,0.1225952559934082,-76.1656564719778,-78.07073688001653,-54.32297694444978
6.96,4.18,-5.28,0.0720827512834299,-0.0792955991892188,0.1225952559934082,-76.1656564719778,-78.07073688001653,-54.32297694444978
6.78,4.24,-5.51,0.1380533727720726,-0.0422812525575033,0.0965905994634379,-77.51124498215967,-78.02648613919355,-53.07711975523274
6.78,4.24,-5.51,0.1380533727720726,-0.0422812525575033,0.0965905994634379,-77.51124498215967,-78.02648613919355,-53.07711975523274
6.85,4.04,-6.07,-0.2412756666440597,0.0676566464055199,-0.1946603456938405,-78.46961958186714,-77.98224923808432,-52.19500183844674
6.85,4.04,-6.07,-0.2412756666440597,0.0676566464055199,-0.1946603456938405,-78.46961958186714,-77.98224923808432,-52.19500183844674
6.61,4.41,-5.93,0.2727106763310369,-0.1494739859836467,-0.1033644507729789,-80.31635645484546,-77.79071544905813,-50.541973215859535
6.61,4.41,-5.93,0.2727106763310369,-0.1494739859836467,-0.1033644507729789,-80.31635645484546,-77.79071544905813,-50.541973215859535
5.99,4.08,-5.85,0.1640905592163508,-0.0111973539422729,0.4941879781906895,-81.38512714905085,-77.67297680383594,-49.517699264874096
5.99,4.08,-5.85,0.1640905592163508,-0.0111973539422729,0.4941879781906895,-81.38512714905085,-77.67297680383594,-49.517699264874096
6.25,4.03,-6.49,-0.195155701226598,0.0173878631936688,-0.0617395299330549,-82.38637607932448,-77.29099637299755,-48.91271498969397
6.25,4.03,-6.49,-0.195155701226598,0.0173878631936688,-0.0617395299330549,-82.38637607932448,-77.29099637299755,-48.91271498969397
6.05,4.31,-6.27,0.1827687699211257,-0.0476041676134801,0.0878111074178544,-83.34930824823599,-76.86613864248247,-48.371981330891565
6.05,4.31,-6.27,0.1827687699211257,-0.0476041676134801,0.0878111074178544,-83.34930824823599,-76.86613864248247,-48.371981330891565
5.85,4.3,-6.26,0.2015968653332046,-0.0635672777694491,0.2225267795335188,-84.47417954583062,-76.29674027277146,-47.75718944121001
5.85,4.3,-6.26,0.2015968653332046,-0.0635672777694491,0.2225267795335188,-84.47417954583062,-76.29674027277146,-47.75718944121001
5.7,4.08,-6.53,-0.1144569066002938,0.1020267968101393,0.2278301275280174,-85.04815885199483,-75.88930894202932,-47.60685129535253
5.7,4.08,-6.53,-0.1144569066002938,0.1020267968101393,0.2278301275280174,-85.04815885199483,-75.88930894202932,-47.60685129535253
5.66,4.23,-6.24,0.1292776357457207,-0.0049540577098237,0.3806560073110497,-85.67165837028584,-75.20793134376436,-47.73212702761914
5.66,4.23,-6.24,0.1292776357457207,-0.0049540577098237,0.3806560073110497,-85.67165837028584,-75.20793134376436,-47.73212702761914
5.9,4.07,-6.47,-0.1726550730543842,-0.0589643966109352,0.1525051168070348,-85.8749731823786,-74.71696010988838,-48.09577032776433
5.9,4.07,-6.47,-0.1726550730543842,-0.0589643966109352,0.1525051168070348,-85.8749731823786,-74.71696010988838,-48.09577032776433
5.88,4.32,-6.43,0.0267932436968541,0.0805758910660952,0.0817083730352852,-86.25120861896153,-73.94046239689769,-48.59819468600229
5.88,4.32,-6.43,0.0267932436968541,0.0805758910660952,0.0817083730352852,-86.25120861896153,-73.94046239689769,-48.59819468600229
6.07,4.42,-6.29,0.1478030363521297,-0.0514255414509206,0.0127279216836928,-86.48694417859592,-73.41069853307816,-48.98825821247561
6.07,4.42,-6.29,0.1478030363521297,-0.0514255414509206,0.0127279216836928,-86.48694417859592,-73.41069853307816,-48.98825821247561
6.23,4.62,-6.26,0.2921458474803638,-0.0501781960015934,-0.1561323900979605,-86.70737625621076,-72.78307520859934,-49.46722789019666
6.23,4.62,-6.26,0.2921458474803638,-0.0501781960015934,-0.1561323900979605,-86.70737625621076,-72.78307520859934,-49.46722789019666
6.33,4.36,-6.47,-0.0581216649866629,-0.0355366630393154,-0.2399792365966817,-86.81774250688417,-72.44180194441707,-49.73231720183757
6.33,4.36,-6.47,-0.0581216649866629,-0.0355366630393154,-0.2399792365966817,-86.81774250688417,-72.44180194441707,-49.73231720183757
6.15,4.68,-6.06,0.4102661672792855,0.0203688159000821,-0.0055753736512187,-87.05458100062674,-71.94544116064459,-50.04827088645171
6.15,4.68,-6.06,0.4102661672792855,0.0203688159000821,-0.0055753736512187,-87.05458100062674,-71.94544116064459,-50.04827088645171
6.43,4.61,-6.28,0.207844817502521,-0.05777175347604,-0.2923035574898876,-87.08619458392643,-71.7614760712347,-50.25069469093511
6.43,4.61,-6.28,0.207844817502521,-0.05777175347604,-0.2923035574898876,-87.08619458392643,-71.7614760712347,-50.25069469093511
6.13,4.25,-6.11,0.0092732282618286,-0.0145045550730396,0.1644923770859367,-87.16526483535738,-71.62010973363981,-50.326646830888215
6.13,4.25,-6.11,0.0092732282618286,-0.0145045550730396,0.1644923770859367,-87.16526483535738,-71.62010973363981,-50.326646830888215
6.18,4.61,-6.14,0.283368675452632,0.0951924898804152,-0.0449864419137302,-87.24438704610047,-71.40829576929687,-50.44061941505198
6.18,4.61,-6.14,0.283368675452632,0.0951924898804152,-0.0449864419137302,-87.24438704610047,-71.40829576929687,-50.44061941505198
6.39,4.41,-6.17,0.0849907832075617,-0.0895730624146353,-0.1096927347616141,-87.22855844047754,-71.35185958052234,-50.55464541508696
6.39,4.41,-6.17,0.0849907832075617,-0.0895730624146353,-0.1096927347616141,-87.22855844047754,-71.35185958052234,-50.55464541508696
6.38,4.28,-6.18,-0.0309334894783974,-0.0918474340911523,-0.0526505415231977,-87.18108511627749,-71.30954553159043,-50.65604685467434
6.38,4.28,-6.18,-0.0309334894783974,-0.0918474340911523,-0.0526505415231977,-87.18108511627749,-71.30954553159043,-50.65604685467434
6.28,4.58,-6.2,0.2017426026245541,0.1015076881439069,-0.1333598647603953,-87.19690747668942,-71.22495103692498,-50.75749078075491
6.28,4.58,-6.2,0.2017426026245541,0.1015076881439069,-0.1333598647603953,-87.19690747668942,-71.22495103692498,-50.75749078075491
6.3,4.2,-6.1,-0.059260373964637,-0.0884191202465869,0.0840644247915012,-87.11781645834128,-71.2954433395492,-50.73212580885688
6.3,4.2,-6.1,-0.059260373964637,-0.0884191202465869,0.0840644247915012,-87.11781645834128,-71.2954433395492,-50.73212580885688
6.29,4.29,-6.11,0.0094292896375014,-0.0417631005709715,0.0445566316733252,-87.0703867564452,-71.3236489687373,-50.75749078075491
6.29,4.29,-6.11,0.0094292896375014,-0.0417631005709715,0.0445566316733252,-87.0703867564452,-71.3236489687373,-50.75749078075491
6.22,4.53,-6.14,0.1894099087461495,0.1132789067509003,-0.0351075552212254,-87.05458100062674,-71.2954433395492,-50.83360168709925
6.22,4.53,-6.14,0.1894099087461495,0.1132789067509003,-0.0351075552212254,-87.05458100062674,-71.2954433395492,-50.83360168709925
6.43,4.43,-6.21,0.0644926076852475,-0.0262171028306119,-0.1697748790372326,-86.95978990826461,-71.36596675624855,-50.84628917286221
6.43,4.43,-6.21,0.0644926076852475,-0.0262171028306119,-0.1697748790372326,-86.95978990826461,-71.36596675624855,-50.84628917286221
6.29,4.21,-6.06,-0.0206870734402053,-0.0654284987465141,0.1109245935879403,-86.81774250688417,-71.535350308977,-50.808228717792346
6.29,4.21,-6.06,-0.0206870734402053,-0.0654284987465141,0.1109245935879403,-86.81774250688417,-71.535350308977,-50.808228717792346
6.42,4.34,-6.29,-0.0365342738285474,0.0027125869830433,-0.1740693071796019,-86.78619903924593,-71.57772437161505,-50.7701742654686
6.42,4.34,-6.29,-0.0365342738285474,0.0027125869830433,-0.1740693071796019,-86.78619903924593,-71.57772437161505,-50.7701742654686
6.32,4.26,-6.07,0.0287670721326559,-0.0848855015577068,0.0636080259969009,-86.80196974664999,-71.64837292642449,-50.6687250192297
6.32,4.26,-6.07,0.0287670721326559,-0.0848855015577068,0.0636080259969009,-86.80196974664999,-71.64837292642449,-50.6687250192297
6.29,4.31,-6.02,0.098933221216475,-0.0832189419015545,0.0925423814151376,-86.83351732104923,-71.66250640989891,-50.64336935396991
6.29,4.31,-6.02,0.098933221216475,-0.0832189419015545,0.0925423814151376,-86.83351732104923,-71.66250640989891,-50.64336935396991
6.27,4.31,-6.15,0.0261429923063069,0.0078283716882685,0.0234626226392862,-86.80196974664999,-71.66250640989891,-50.6687250192297
6.27,4.31,-6.15,0.0261429923063069,0.0078283716882685,0.0234626226392862,-86.80196974664999,-71.66250640989891,-50.6687250192297
6.08,4.32,-6.03,0.1109584000195544,0.088846296003791,0.216577290726546,-86.80196974664999,-71.66250640989891,-50.65604685467434
6.08,4.32,-6.03,0.1109584000195544,0.088846296003791,0.216577290726546,-86.80196974664999,-71.66250640989891,-50.65604685467434
6.26,4.14,-6.09,-0.078202940161464,-0.0580815328891426,0.1419818300270989,-86.72313671594557,-71.71905293720884,-50.681403847895496
6.26,4.14,-6.09,-0.078202940161464,-0.0580815328891426,0.1419818300270989,-86.72313671594557,-71.71905293720884,-50.681403847895496
6.27,4.39,-6.17,0.0931405357484512,0.0851820628283799,-0.0238112738555038,-86.67586147437744,-71.6766411521629,-50.7701742654686
6.27,4.39,-6.17,0.0931405357484512,0.0851820628283799,-0.0238112738555038,-86.67586147437744,-71.6766411521629,-50.7701742654686
6.51,4.28,-6.27,-0.0671109864141262,-0.0560396358959613,-0.1935377819724557,-86.61285643063455,-71.69077715376791,-50.84628917286221
6.51,4.28,-6.27,-0.0671109864141262,-0.0560396358959613,-0.1935377819724557,-86.61285643063455,-71.69077715376791,-50.84628917286221
6.47,4.38,-6.12,0.0962934904250247,-0.0644543631287901,-0.1173750502895973,-86.53414601080244,-71.69077715376791,-50.90973662321184
6.47,4.38,-6.12,0.0962934904250247,-0.0644543631287901,-0.1173750502895973,-86.53414601080244,-71.69077715376791,-50.90973662321184
6.28,4.48,-6.04,0.2281091998306686,0.0708297870976726,0.0120928719715838,-86.48694417859592,-71.71905293720884,-50.9605066250118
6.28,4.48,-6.04,0.2281091998306686,0.0708297870976726,0.0120928719715838,-86.48694417859592,-71.71905293720884,-50.9605066250118
6.43,4.48,-6.13,0.176479232913352,0.0205290021366111,-0.1412459403695809,-86.31402695866787,-71.86050760282423,-50.97320080007504
6.43,4.48,-6.13,0.176479232913352,0.0205290021366111,-0.1412459403695809,-86.31402695866787,-71.86050760282423,-50.97320080007504
6.28,4.21,-5.97,0.0485777104212911,-0.0420839583250547,0.1734122708405099,-86.20411602380804,-72.00208892273058,-50.92242811941736
6.28,4.21,-5.97,0.0485777104212911,-0.0420839583250547,0.1734122708405099,-86.20411602380804,-72.00208892273058,-50.92242811941736
6.36,4.13,-6.04,-0.0599356405522653,-0.0901896055571698,0.1125088026560572,-86.12566858375126,-72.10127150439342,-50.89704579606666
6.36,4.13,-6.04,-0.0599356405522653,-0.0901896055571698,0.1125088026560572,-86.12566858375126,-72.10127150439342,-50.89704579606666
6.39,4.34,-6.24,0.0020352230236535,0.0712244743319203,-0.1231144953001468,-86.07862420393977,-72.11544554429472,-50.9605066250118
6.39,4.34,-6.24,0.0020352230236535,0.0712244743319203,-0.1231144953001468,-86.07862420393977,-72.11544554429472,-50.9605066250118
6.5,4.16,-6.26,-0.1637180897716334,-0.0580948394435201,-0.1287926864992616,-86.03159785221855,-72.18633490403623,-50.92242811941736
6.5,4.16,-6.26,-0.1637180897716334,-0.0580948394435201,-0.1287926864992616,-86.03159785221855,-72.18633490403623,-50.92242811941736
6.42,4.21,-6.16,-0.071632040973006,-0.0490792365943333,-0.0360406930595651,-86.01592640293836,-72.20051661196997,-50.92242811941736
6.42,4.21,-6.16,-0.071632040973006,-0.0490792365943333,-0.0360406930595651,-86.01592640293836,-72.20051661196997,-50.92242811941736
6.39,4.22,-6.13,-0.0493461596123095,-0.0508423571126557,-0.0021409556303009,-85.96892404416114,-72.27144436256579,-50.89704579606666
6.39,4.22,-6.13,-0.0493461596123095,-0.0508423571126557,-0.0021409556303009,-85.96892404416114,-72.27144436256579,-50.89704579606666
5.91,4.31,-5.93,0.1652484887124796,0.2146315991464984,0.3941197230964484,-86.0002569525403,-72.2856337588228,-50.84628917286221
5.91,4.31,-5.93,0.1652484887124796,0.2146315991464984,0.3941197230964484,-86.0002569525403,-72.2856337588228,-50.84628917286221
6.24,4.21,-5.92,0.0634235437536444,-0.0676152111453465,0.2306641166917167,-85.8749731823786,-72.3991951776014,-50.85897732637935
6.24,4.21,-5.92,0.0634235437536444,-0.0676152111453465,0.2306641166917167,-85.8749731823786,-72.3991951776014,-50.85897732637935
