acc_x,acc_y,acc_z,lin_x,lin_y,lin_z,eul_x,eul_y,eul_z
0.02,2.47,-9.43,-0.0650504392130323,0.1368510002331913,0.0596894355936115,-66.44612628524789,-111.35968772291412,-13.172643633299913
0.02,2.47,-9.43,-0.0650504392130323,0.1368510002331913,0.0596894355936115,-66.44612628524789,-111.35968772291412,-13.172643633299913
0.04,2.44,-9.47,-0.1042625264098848,0.1304365080710203,0.0287046308056666,-66.44612628524789,-111.35968772291412,-13.138038375794716
0.04,2.44,-9.47,-0.1042625264098848,0.1304365080710203,0.0287046308056666,-66.44612628524789,-111.35968772291412,-13.138038375794716
0.01,2.54,-9.48,-0.0070853439667479,0.1234659110520617,-0.0069531082731781,-66.44612628524789,-111.35968772291412,-13.149573327758748
0.01,2.54,-9.48,-0.0070853439667479,0.1234659110520617,-0.0069531082731781,-66.44612628524789,-111.35968772291412,-13.149573327758748
0.11,2.65,-9.53,0.0373773490704143,-0.0008477448077057,-0.0854732409986294,-66.43242860811324,-111.35968772291412,-13.172643633299913
0.11,2.65,-9.53,0.0373773490704143,-0.0008477448077057,-0.0854732409986294,-66.43242860811324,-111.35968772291412,-13.172643633299913
-0.04,2.43,-9.33,-0.0458946398657336,0.1913400469159356,0.1673200093586491,-66.44612628524789,-111.35968772291412,-13.126503557539667
-0.04,2.43,-9.33,-0.0458946398657336,0.1913400469159356,0.1673200093586491,-66.44612628524789,-111.35968772291412,-13.126503557539667
0.03,2.55,-9.5,-0.0163233375015674,0.1049174500567659,-0.0291075141585501,-66.44612628524789,-111.3393661020306,-13.172643633299913
0.03,2.55,-9.5,-0.0163233375015674,0.1049174500567659,-0.0291075141585501,-66.44612628524789,-111.3393661020306,-13.172643633299913
0.06,2.45,-9.58,-0.1387918506640842,0.1243092805334937,-0.0800978993328467,-66.44612628524789,-111.3393661020306,-13.184178987120148
0.06,2.45,-9.58,-0.1387918506640842,0.1243092805334937,-0.0800978993328467,-66.44612628524789,-111.3393661020306,-13.184178987120148
0.01,2.52,-9.37,-0.0336210387913079,0.126761868194523,0.1045780019924436,-66.47352485739471,-111.25813232752796,-13.299539926123945
0.01,2.52,-9.37,-0.0336210387913079,0.126761868194523,0.1045780019924436,-66.47352485739471,-111.25813232752796,-13.299539926123945
-0.05,2.78,-9.25,0.2078842056993661,0.0421519830636651,0.150128505831173,-66.58316211676657,-111.09591679955122,-13.276466658923828
-0.05,2.78,-9.25,0.2078842056993661,0.0421519830636651,0.150128505831173,-66.58316211676657,-111.09591679955122,-13.276466658923828
0.0,2.64,-9.63,-0.0410827950127732,0.0596409366785253,-0.1784015853763172,-66.65172039063913,-111.0351722213916,-13.161108413553292
0.0,2.64,-9.63,-0.0410827950127732,0.0596409366785253,-0.1784015853763172,-66.65172039063913,-111.0351722213916,-13.161108413553292
0.01,2.61,-9.45,-0.0331570601646237,0.0313240590244685,0.0029456280451078,-66.67915125155818,-111.01493444523936,-13.126503557539667
0.01,2.61,-9.45,-0.0331570601646237,0.0313240590244685,0.0029456280451078,-66.67915125155818,-111.01493444523936,-13.126503557539667
-0.03,2.45,-9.42,-0.15317869049939,0.1054877579288076,0.0749898835705291,-66.72030564497379,-110.99470186962544,-13.034229810442689
-0.03,2.45,-9.42,-0.15317869049939,0.1054877579288076,0.0749898835705291,-66.72030564497379,-110.99470186962544,-13.034229810442689
-0.08,2.56,-9.42,-0.0443826731318041,0.1058555274299586,0.0453373431060395,-66.72030564497379,-110.97447448991244,-13.034229810442689
-0.08,2.56,-9.42,-0.0443826731318041,0.1058555274299586,0.0453373431060395,-66.72030564497379,-110.97447448991244,-13.034229810442689
-0.1,2.63,-9.4,0.0176817677663951,0.0881797570033076,0.0455633962686565,-66.73402593846353,-110.9542523014697,-13.034229810442689
-0.1,2.63,-9.4,0.0176817677663951,0.0881797570033076,0.0455633962686565,-66.73402593846353,-110.9542523014697,-13.034229810442689
-0.01,2.63,-9.44,-0.0312584003469756,0.0001693075390492,0.0071794590093965,-66.78891793624743,-110.8936168375535,-12.999629346780694
-0.01,2.63,-9.44,-0.0312584003469756,0.0001693075390492,0.0071794590093965,-66.78891793624743,-110.8936168375535,-12.999629346780694
-0.17,2.7,-9.37,0.0942961241704918,0.0495217720912255,0.0544986560628384,-66.93996042635567,-110.75231492282506,-12.711338126294772
-0.17,2.7,-9.37,0.0942961241704918,0.0495217720912255,0.0544986560628384,-66.93996042635567,-110.75231492282506,-12.711338126294772
-0.19,2.73,-9.59,0.1005141789045801,0.0323245394326072,-0.1656091233877177,-67.02240272652745,-110.75231492282506,-12.400074265032766
-0.19,2.73,-9.59,0.1005141789045801,0.0323245394326072,-0.1656091233877177,-67.02240272652745,-110.75231492282506,-12.400074265032766
-0.15,2.48,-9.47,-0.0117953217380104,0.0347719976272298,0.0162234628890569,-67.00865961711182,-110.93403529967291,-11.89302513102135
-0.15,2.48,-9.47,-0.0117953217380104,0.0347719976272298,0.0162234628890569,-67.00865961711182,-110.93403529967291,-11.89302513102135
-0.09,2.0,-9.51,-0.3647962677333159,0.1007283008903261,0.0955750084016138,-67.07738608365682,-111.05541520272617,-11.248026360967865
-0.09,2.0,-9.51,-0.3647962677333159,0.1007283008903261,0.0955750084016138,-67.07738608365682,-111.05541520272617,-11.248026360967865
-0.33,2.0,-9.57,-0.2829258853114237,0.2533707332562267,0.031704669464899,-67.2562029587362,-110.91382347990452,-10.856595634361932
-0.33,2.0,-9.57,-0.2829258853114237,0.2533707332562267,0.031704669464899,-67.2562029587362,-110.91382347990452,-10.856595634361932
-0.59,2.03,-9.22,-0.0946665531656174,0.3208047009434838,0.3533160596610507,-67.66956803559746,-110.55089162584848,-10.177646918437086
-0.59,2.03,-9.22,-0.0946665531656174,0.3208047009434838,0.3533160596610507,-67.66956803559746,-110.55089162584848,-10.177646918437086
-0.32,2.3,-9.43,-0.0169330076496123,-0.0366959223398224,0.0950246631917686,-67.87662551738967,-110.3098558920654,-10.120125690641803
-0.32,2.3,-9.43,-0.0169330076496123,-0.0366959223398224,0.0950246631917686,-67.87662551738967,-110.3098558920654,-10.120125690641803
-0.34,2.47,-9.53,0.0930212819623524,-0.054351998487097,-0.0435171509351839,-68.0148037838229,-110.1495692444103,-10.292697102933529
-0.34,2.47,-9.53,0.0930212819623524,-0.054351998487097,-0.0435171509351839,-68.0148037838229,-110.1495692444103,-10.292697102933529
-0.32,2.48,-9.68,0.0484076622397353,-0.0504878259462171,-0.1908650751408096,-68.08393507833873,-110.0695462273055,-10.407757691617306
-0.32,2.48,-9.68,0.0484076622397353,-0.0504878259462171,-0.1908650751408096,-68.08393507833873,-110.0695462273055,-10.407757691617306
-0.47,2.2,-9.44,-0.0955262597127449,0.1807615234737905,0.1044492184588978,-68.15309455975414,-109.96962968750276,-10.430771068314456
-0.47,2.2,-9.44,-0.0955262597127449,0.1807615234737905,0.1044492184588978,-68.15309455975414,-109.96962968750276,-10.430771068314456
-0.45,2.3,-9.44,-0.0295869567677999,0.1392784801059186,0.0811255351205559,-68.20844247958603,-109.90973941260324,-10.545844298925708
-0.45,2.3,-9.44,-0.0295869567677999,0.1392784801059186,0.0811255351205559,-68.20844247958603,-109.90973941260324,-10.545844298925708
-0.35,2.33,-9.62,-0.1013377681273978,0.0695544809472437,-0.0969197014223688,-68.29149832235984,-109.79009253076951,-10.718474180434589
-0.35,2.33,-9.62,-0.1013377681273978,0.0695544809472437,-0.0969197014223688,-68.29149832235984,-109.79009253076951,-10.718474180434589
-0.33,2.48,-9.39,0.0737949962432769,-0.001488212250986,0.0893483126099372,-68.33304155520281,-109.71042658552564,-10.810553401892458
-0.33,2.48,-9.39,0.0737949962432769,-0.001488212250986,0.0893483126099372,-68.33304155520281,-109.71042658552564,-10.810553401892458
-0.35,2.35,-9.45,-0.0586869845204252,0.0786298841289827,0.0630432150784265,-68.37459501300991,-109.65072872045307,-10.891128461986716
-0.35,2.35,-9.45,-0.0586869845204252,0.0786298841289827,0.0630432150784265,-68.37459501300991,-109.65072872045307,-10.891128461986716
-0.41,2.35,-9.45,-0.0543926180878522,0.1572685721453712,0.0616303468996068,-68.43001555142907,-109.57120014176904,-11.052294827398208
-0.41,2.35,-9.45,-0.0543926180878522,0.1572685721453712,0.0616303468996068,-68.43001555142907,-109.57120014176904,-11.052294827398208
-0.28,2.45,-9.45,-0.0210903913896094,0.0251504359859386,0.0402626100302185,-68.4854543216403,-109.49174968741804,-11.2019689418816
-0.28,2.45,-9.45,-0.0210903913896094,0.0251504359859386,0.0402626100302185,-68.4854543216403,-109.49174968741804,-11.2019689418816
-0.38,2.4,-9.33,-0.0029639295611357,0.1660467462304324,0.1668512628277412,-68.55477847008558,-109.39254607388746,-11.38620958683243
-0.38,2.4,-9.33,-0.0029639295611357,0.1660467462304324,0.1668512628277412,-68.55477847008558,-109.39254607388746,-11.38620958683243
-0.48,2.47,-8.94,0.2188618231436193,0.3179388780241548,0.5273227413992441,-68.52704538255442,-109.41237708953594,-11.858462221253813
-0.48,2.47,-8.94,0.2188618231436193,0.3179388780241548,0.5273227413992441,-68.52704538255442,-109.41237708953594,-11.858462221253813
0.13,2.52,-9.56,-0.0357099101651654,0.0538898719685647,-0.0805498404004776,-68.16692984371839,-109.71042658552564,-12.976563032466052
0.13,2.52,-9.56,-0.0357099101651654,0.0538898719685647,-0.0805498404004776,-68.16692984371839,-109.71042658552564,-12.976563032466052
0.57,2.42,-9.56,-0.1818676392145815,0.0575976277987133,-0.0695084978714515,-67.65577312725135,-110.0695462273055,-14.477016351828802
0.57,2.42,-9.56,-0.1818676392145815,0.0575976277987133,-0.0695084978714515,-67.65577312725135,-110.0695462273055,-14.477016351828802
0.82,2.79,-9.48,0.1112279444746077,-0.0782460113918157,-0.1084095513122971,-67.40765461346972,-110.1295559906411,-15.505674829864253
0.82,2.79,-9.48,0.1112279444746077,-0.0782460113918157,-0.1084095513122971,-67.40765461346972,-110.1295559906411,-15.505674829864253
0.88,2.48,-9.58,-0.1493351068056439,0.2331909848833162,-0.1243379161362643,-67.173649069206,-110.1495692444103,-16.466118077182387
0.88,2.48,-9.58,-0.1493351068056439,0.2331909848833162,-0.1243379161362643,-67.173649069206,-110.1495692444103,-16.466118077182387
1.11,2.74,-9.36,0.0591585357949442,0.0518885922536338,-0.0088025031521912,-67.09113465509711,-110.0695462273055,-17.207493384994194
1.11,2.74,-9.36,0.0591585357949442,0.0518885922536338,-0.0088025031521912,-67.09113465509711,-110.0695462273055,-17.207493384994194
1.35,2.76,-9.46,-0.023938816543431,0.0933007999377693,-0.1393251605256633,-66.89875398051586,-109.90973941260324,-18.344143604670897
1.35,2.76,-9.46,-0.023938816543431,0.0933007999377693,-0.1393251605256633,-66.89875398051586,-109.90973941260324,-18.344143604670897
1.46,2.84,-9.4,0.0293264057005412,0.1071077406440934,-0.1203267751225656,-66.80264364391536,-109.79009253076951,-19.05256341690962
1.46,2.84,-9.4,0.0293264057005412,0.1071077406440934,-0.1203267751225656,-66.80264364391536,-109.79009253076951,-19.05256341690962
1.64,2.74,-9.3,-0.0648535964208125,0.1562138876755479,-0.0248601196270268,-66.65172039063913,-109.65072872045307,-19.889680039418103
1.64,2.74,-9.3,-0.0648535964208125,0.1562138876755479,-0.0248601196270268,-66.65172039063913,-109.65072872045307,-19.889680039418103
1.82,2.77,-9.23,-0.0802899702679619,0.1016597539368162,0.0004571192177813,-66.65172039063913,-109.45205367310278,-20.506574164810864
1.82,2.77,-9.23,-0.0802899702679619,0.1016597539368162,0.0004571192177813,-66.65172039063913,-109.45205367310278,-20.506574164810864
1.86,2.86,-9.15,0.0057902398955377,0.20078321129851,0.0433845332013724,-66.59687161580996,-109.15495063272716,-21.403893300909647
1.86,2.86,-9.15,0.0057902398955377,0.20078321129851,0.0433845332013724,-66.59687161580996,-109.15495063272716,-21.403893300909647
1.91,2.91,-9.15,0.0364119147051408,0.2970024644351943,0.0214998371978509,-66.56945369468808,-108.898334692695,-22.150726459273766
1.91,2.91,-9.15,0.0364119147051408,0.2970024644351943,0.0214998371978509,-66.56945369468808,-108.898334692695,-22.150726459273766
2.1,3.02,-8.81,0.1468128221772464,0.2154049256801204,0.2631419074149104,-66.47352485739471,-108.50510319404415,-23.237678334824075
2.1,3.02,-8.81,0.1468128221772464,0.2154049256801204,0.2631419074149104,-66.47352485739471,-108.50510319404415,-23.237678334824075
2.61,3.05,-8.99,-0.0314166638448076,0.0768418655520684,-0.0385421424079552,-66.21341126631584,-108.2309531214748,-24.37364567505576
2.61,3.05,-8.99,-0.0314166638448076,0.0768418655520684,-0.0385421424079552,-66.21341126631584,-108.2309531214748,-24.37364567505576
2.88,3.32,-9.05,0.1128988270038265,0.1403826620485195,-0.2525172897440875,-65.84443673875893,-107.7825204980392,-26.00575632582789
2.88,3.32,-9.05,0.1128988270038265,0.1403826620485195,-0.2525172897440875,-65.84443673875893,-107.7825204980392,-26.00575632582789
3.15,3.36,-8.68,0.1393505668786485,-0.0137223910504162,-0.0185672044944862,-65.57161767194049,-107.47198140386222,-27.053580833430228
3.15,3.36,-8.68,0.1393505668786485,-0.0137223910504162,-0.0185672044944862,-65.57161767194049,-107.47198140386222,-27.053580833430228
3.35,3.25,-8.59,0.0317838200541465,0.1951356016934586,0.0324998126059838,-64.94571342127749,-107.0854130457935,-28.70655945606141
3.35,3.25,-8.59,0.0317838200541465,0.1951356016934586,0.0324998126059838,-64.94571342127749,-107.0854130457935,-28.70655945606141
4.05,3.62,-8.75,0.0917506629389554,-0.0847612933667851,-0.4915924393192981,-64.38967098038597,-106.681406842105,-30.09265778200395
4.05,3.62,-8.75,0.0917506629389554,-0.0847612933667851,-0.4915924393192981,-64.38967098038597,-106.681406842105,-30.09265778200395
4.36,3.5,-8.65,-0.0887981351550616,-0.0016600695737081,-0.4925835702887138,-63.83532215478704,-106.24110823664704,-31.542810907574808
4.36,3.5,-8.65,-0.0887981351550616,-0.0016600695737081,-0.4925835702887138,-63.83532215478704,-106.24110823664704,-31.542810907574808
4.27,3.65,-8.12,0.1820531650289006,-0.0542944279729307,-0.0652145027266239,-63.49812368940196,-105.93613916476912,-32.412994497933816
4.27,3.65,-8.12,0.1820531650289006,-0.0542944279729307,-0.0652145027266239,-63.49812368940196,-105.93613916476912,-32.412994497933816
4.74,3.82,-8.51,0.1059813246321924,0.0764203737197359,-0.6558080231086105,-62.82555919288418,-105.5185544187127,-33.811713840931375
4.74,3.82,-8.51,0.1059813246321924,0.0764203737197359,-0.6558080231086105,-62.82555919288418,-105.5185544187127,-33.811713840931375
4.89,3.67,-8.45,-0.0541442148824794,0.1282596832580819,-0.6223536848035156,-62.47677807164217,-105.34830046023008,-34.411030131340006
4.89,3.67,-8.45,-0.0541442148824794,0.1282596832580819,-0.6223536848035156,-62.47677807164217,-105.34830046023008,-34.411030131340006
4.83,3.77,-8.08,0.12004831643654,0.0096249674307837,-0.3330588598106612,-62.34280299111539,-105.19724163612636,-34.747070547478
4.83,3.77,-8.08,0.12004831643654,0.0096249674307837,-0.3330588598106612,-62.34280299111539,-105.19724163612636,-34.747070547478
4.84,3.62,-8.1,-0.0128358027938543,0.0860103368598541,-0.2994094429342198,-62.27585098329318,-105.15951761656832,-34.85514889719688
4.84,3.62,-8.1,-0.0128358027938543,0.0860103368598541,-0.2994094429342198,-62.27585098329318,-105.15951761656832,-34.85514889719688
4.7,3.78,-8.16,0.1787739449303016,0.1760570929514471,-0.3373651703669846,-62.27585098329318,-105.17837759673444,-34.843138613311
4.7,3.78,-8.16,0.1787739449303016,0.1760570929514471,-0.3373651703669846,-62.27585098329318,-105.17837759673444,-34.843138613311
4.74,3.65,-8.04,0.0699670227086468,0.0900644612736634,-0.2142627832023756,-62.28923949337646,-105.25385814101205,-34.71105152226627
4.74,3.65,-8.04,0.0699670227086468,0.0900644612736634,-0.2142627832023756,-62.28923949337646,-105.25385814101205,-34.71105152226627
4.74,3.66,-8.11,0.063848692449699,0.0884500863316828,-0.2741932150639226,-62.35619623181861,-105.31051129197044,-34.54300944397086
4.74,3.66,-8.11,0.063848692449699,0.0884500863316828,-0.2741932150639226,-62.35619623181861,-105.31051129197044,-34.54300944397086
4.61,3.45,-8.29,-0.1000827591235122,0.2369851246266128,-0.28356910029866,-62.59743692135864,-105.49962088989868,-34.05132504616154
4.61,3.45,-8.29,-0.1000827591235122,0.2369851246266128,-0.28356910029866,-62.59743692135864,-105.49962088989868,-34.05132504616154
4.54,3.59,-8.28,0.041066957123462,0.1098803386721278,-0.295049847857582,-62.93300681618901,-105.61328387022331,-33.488479867763736
4.54,3.59,-8.28,0.041066957123462,0.1098803386721278,-0.295049847857582,-62.93300681618901,-105.61328387022331,-33.488479867763736
4.4,3.44,-8.45,-0.0748272842266227,0.1048549709311244,-0.321504141432003,-63.59247721166836,-105.80305309851605,-32.412994497933816
4.4,3.44,-8.45,-0.0748272842266227,0.1048549709311244,-0.321504141432003,-63.59247721166836,-105.80305309851605,-32.412994497933816
4.04,3.37,-8.49,-0.0333819477301514,0.1136537892788742,-0.1805702569958533,-64.47093657541295,-105.93613916476912,-31.10247401988412
4.04,3.37,-8.49,-0.0333819477301514,0.1136537892788742,-0.1805702569958533,-64.47093657541295,-105.93613916476912,-31.10247401988412
3.71,3.29,-8.64,-0.0235831363954167,0.2439603682441624,-0.1521514928707148,-65.10878208962191,-106.03132620370606,-30.116390374671145
3.71,3.29,-8.64,-0.0235831363954167,0.2439603682441624,-0.1521514928707148,-65.10878208962191,-106.03132620370606,-30.116390374671145
3.46,3.31,-8.65,0.0570642105153889,0.2049209384065007,-0.0779314825353552,-65.74890233219018,-106.08848885002472,-29.09706672256259
3.46,3.31,-8.65,0.0570642105153889,0.2049209384065007,-0.0779314825353552,-65.74890233219018,-106.08848885002472,-29.09706672256259
3.25,3.28,-8.83,0.0476294385124105,0.1562588022551834,-0.1564376049197129,-66.59687161580996,-106.12661834568743,-27.737669605365127
3.25,3.28,-8.83,0.0476294385124105,0.1562588022551834,-0.1564376049197129,-66.59687161580996,-106.12661834568743,-27.737669605365127
3.01,3.13,-8.98,-0.0438810799619683,0.0856813167032266,-0.1677238230923237,-67.60060461724801,-106.08848885002472,-26.029278313836883
3.01,3.13,-8.98,-0.0438810799619683,0.0856813167032266,-0.1677238230923237,-67.60060461724801,-106.08848885002472,-26.029278313836883
2.6,2.95,-8.75,-0.0345781583123787,0.1279126107259163,0.2145989828824905,-68.38844844007662,-105.95516818414836,-24.79585513058625
2.6,2.95,-8.75,-0.0345781583123787,0.1279126107259163,0.2145989828824905,-68.38844844007662,-105.95516818414836,-24.79585513058625
2.43,3.07,-8.98,0.0224926886126633,0.0462189715345311,0.0103467234762835,-69.2356779378902,-105.67017110275856,-23.670706029265663
2.43,3.07,-8.98,0.0224926886126633,0.0462189715345311,0.0103467234762835,-69.2356779378902,-105.67017110275856,-23.670706029265663
2.28,2.92,-9.38,-0.1853135619941873,0.1543562546742427,-0.2755636969211306,-69.83551038215226,-105.4428449688075,-22.86343926833653
2.28,2.92,-9.38,-0.1853135619941873,0.1543562546742427,-0.2755636969211306,-69.83551038215226,-105.4428449688075,-22.86343926833653
2.01,3.04,-9.22,-0.0280577713027795,0.0020325947574437,-0.1074464605973073,-70.78858910682754,-104.97114038563048,-21.648844944741544
2.01,3.04,-9.22,-0.0280577713027795,0.0020325947574437,-0.1074464605973073,-70.78858910682754,-104.97114038563048,-21.648844944741544
1.7,3.1,-9.27,0.0475632927795424,0.0291139260381099,-0.1145288670747515,-71.535350308977,-104.55812296797365,-20.65797889865216
1.7,3.1,-9.27,0.0475632927795424,0.0291139260381099,-0.1145288670747515,-71.535350308977,-104.55812296797365,-20.65797889865216
1.26,3.05,-9.15,0.0667591478331105,0.0773584444301567,0.080285885529685,-72.54126289658385,-103.9421788631584,-19.33148601143644
1.26,3.05,-9.15,0.0667591478331105,0.0773584444301567,0.080285885529685,-72.54126289658385,-103.9421788631584,-19.33148601143644
0.89,3.05,-9.12,0.1346602649696119,0.2201137275113294,0.1525101336007477,-73.11083313213125,-103.55241005030376,-18.506668239532367
0.89,3.05,-9.12,0.1346602649696119,0.2201137275113294,0.1525101336007477,-73.11083313213125,-103.55241005030376,-18.506668239532367
0.78,2.91,-9.02,0.00495460540315,0.2013340554669936,0.2989510118118233,-73.61093410103018,-103.12744256593236,-18.019205613951
0.78,2.91,-9.02,0.00495460540315,0.2013340554669936,0.2989510118118233,-73.61093410103018,-103.12744256593236,-18.019205613951
0.82,3.16,-9.31,0.0967840230304713,0.1268990973872019,-0.0578636459923043,-73.81143181449299,-102.88812004458934,-18.03080801097451
0.82,3.16,-9.31,0.0967840230304713,0.1268990973872019,-0.0578636459923043,-73.81143181449299,-102.88812004458934,-18.03080801097451
0.71,3.17,-9.21,0.1245985338974576,0.175157794383824,0.042895857641783,-74.04089516831135,-102.63108741620243,-17.972797887176398
0.71,3.17,-9.21,0.1245985338974576,0.175157794383824,0.042895857641783,-74.04089516831135,-102.63108741620243,-17.972797887176398
0.8,2.96,-9.3,-0.1276773553481763,0.1689864732183474,0.0165150640146674,-74.17012064859728,-102.46623177403808,-18.07721946422553
0.8,2.96,-9.3,-0.1276773553481763,0.1689864732183474,0.0165150640146674,-74.17012064859728,-102.46623177403808,-18.07721946422553
0.85,2.99,-9.32,-0.1544224917731229,0.1704524764067794,-0.0153711589734104,-74.3282126664446,-102.2103749169286,-18.437010245615284
0.85,2.99,-9.32,-0.1544224917731229,0.1704524764067794,-0.0153711589734104,-74.3282126664446,-102.2103749169286,-18.437010245615284
0.92,3.15,-9.23,-0.0437003749662761,0.0721772283134438,0.0110039914439159,-74.54405958152292,-101.90064026735676,-18.669230437467
0.92,3.15,-9.23,-0.0437003749662761,0.0721772283134438,0.0110039914439159,-74.54405958152292,-101.90064026735676,-18.669230437467
0.9,3.19,-9.16,-0.0401119901473438,0.1166102566057891,0.066193487274285,-74.77463787425259,-101.5194456395094,-19.07580259196793
0.9,3.19,-9.16,-0.0401119901473438,0.1166102566057891,0.066193487274285,-74.77463787425259,-101.5194456395094,-19.07580259196793
0.8,3.49,-8.99,0.2394158472708524,0.1991949708047733,0.1348765630505148,-74.90449405354882,-101.17588829449863,-19.69193249784897
0.8,3.49,-8.99,0.2394158472708524,0.1991949708047733,0.1348765630505148,-74.90449405354882,-101.17588829449863,-19.69193249784897
0.95,3.41,-9.27,-0.0241425747028165,0.2390364639141196,-0.1133186846787044,-75.06336041857055,-100.76167247514276,-20.436707276203283
0.95,3.41,-9.27,-0.0241425747028165,0.2390364639141196,-0.1133186846787044,-75.06336041857055,-100.76167247514276,-20.436707276203283
1.08,3.94,-8.97,0.4711287425960374,0.0520669544481446,-0.0384618195861268,-75.07781120147467,-100.54627658006508,-21.07744476440248
1.08,3.94,-8.97,0.4711287425960374,0.0520669544481446,-0.0384618195861268,-75.07781120147467,-100.54627658006508,-21.07744476440248
1.41,3.73,-9.0,0.1822282336007814,-0.009732035793442,-0.0354889015984749,-74.81791076036653,-100.51042463462828,-22.068995754971112
1.41,3.73,-9.0,0.1822282336007814,-0.009732035793442,-0.0354889015984749,-74.81791076036653,-100.51042463462828,-22.068995754971112
1.42,3.65,-9.1,0.058011521883019,0.1912139983409928,-0.0983473180292815,-74.5296601704127,-100.51042463462828,-22.933590145135867
1.42,3.65,-9.1,0.058011521883019,0.1912139983409928,-0.0983473180292815,-74.5296601704127,-100.51042463462828,-22.933590145135867
1.6,3.51,-9.14,-0.1441050268094673,0.2575246964856312,-0.1096302890977316,-74.2563321899432,-100.45667199365036,-23.91663071897709
1.6,3.51,-9.14,-0.1441050268094673,0.2575246964856312,-0.1096302890977316,-74.2563321899432,-100.45667199365036,-23.91663071897709
1.8,3.65,-9.04,-0.0587884458716851,0.1960248663570301,-0.1050712516495693,-74.05524812454561,-100.33136679814685,-24.819321185763364
1.8,3.65,-9.04,-0.0587884458716851,0.1960248663570301,-0.1050712516495693,-74.05524812454561,-100.33136679814685,-24.819321185763364
1.74,3.72,-8.62,0.1481815896350536,0.2412926161790729,0.2625303397133241,-73.82576315428821,-100.33136679814685,-25.42981308247912
1.74,3.72,-8.62,0.1481815896350536,0.2412926161790729,0.2625303397133241,-73.82576315428821,-100.33136679814685,-25.42981308247912
2.09,3.85,-8.87,0.0906448097326678,0.1857970890580986,-0.0839901693806464,-73.36782485981517,-100.3671515088305,-26.46463761296408
2.09,3.85,-8.87,0.0906448097326678,0.1857970890580986,-0.0839901693806464,-73.36782485981517,-100.3671515088305,-26.46463761296408
2.39,3.86,-9.02,-0.0298351769389537,0.1184030978881822,-0.2907353332745241,-73.02526419838799,-100.4029496292164,-27.20682475697043
2.39,3.86,-9.02,-0.0298351769389537,0.1184030978881822,-0.2907353332745241,-73.02526419838799,-100.4029496292164,-27.20682475697043
2.5,3.95,-8.83,0.0621752349996149,0.1089843851737026,-0.1836281064363288,-72.640787235407,-100.38504889165011,-28.05646742034004
2.5,3.95,-8.83,0.0621752349996149,0.1089843851737026,-0.1836281064363288,-72.640787235407,-100.38504889165011,-28.05646742034004
2.61,3.9,-8.77,0.0074967125876877,0.0814039089343665,-0.1396215226817805,-72.48442031771656,-100.3671515088305,-28.434589251931108
2.61,3.9,-8.77,0.0074967125876877,0.0814039089343665,-0.1396215226817805,-72.48442031771656,-100.3671515088305,-28.434589251931108
2.5,4.0,-8.51,0.2099203466922943,0.1904642599965816,0.0809234557407698,-72.22888386833002,-100.34925747843585,-29.014203146635065
2.5,4.0,-8.51,0.2099203466922943,0.1904642599965816,0.0809234557407698,-72.22888386833002,-100.34925747843585,-29.014203146635065
2.85,3.89,-8.79,-0.0668233889047015,0.159593502887805,-0.217758438832254,-71.80391056917499,-100.42085372385358,-29.701259829199124
2.85,3.89,-8.79,-0.0668233889047015,0.159593502887805,-0.217758438832254,-71.80391056917499,-100.42085372385358,-29.701259829199124
2.95,3.95,-8.62,0.0153529401705461,0.1602875670791139,-0.1222709979266109,-71.36596675624855,-100.45667199365036,-30.44878609284871
2.95,3.95,-8.62,0.0153529401705461,0.1602875670791139,-0.1222709979266109,-71.36596675624855,-100.45667199365036,-30.44878609284871
3.07,3.95,-8.6,-0.0150923819870578,0.1259753557511136,-0.1417821593781472,-71.18267056189946,-100.45667199365036,-30.817102104618424
3.07,3.95,-8.6,-0.0150923819870578,0.1259753557511136,-0.1417821593781472,-71.18267056189946,-100.45667199365036,-30.817102104618424
3.07,4.0,-8.44,0.0682513274320001,0.1559956210746373,-0.0233808810557309,-70.97143532628913,-100.3671515088305,-31.340435037267948
3.07,4.0,-8.44,0.0682513274320001,0.1559956210746373,-0.0233808810557309,-70.97143532628913,-100.3671515088305,-31.340435037267948
3.29,4.02,-8.62,-0.0442282320617913,0.1045417598285121,-0.2569485057006631,-70.80264683442816,-100.33136679814685,-31.6738137680446
3.29,4.02,-8.62,-0.0442282320617913,0.1045417598285121,-0.2569485057006631,-70.80264683442816,-100.33136679814685,-31.6738137680446
3.28,4.07,-8.66,-0.0216133938091427,0.1742233853214767,-0.3071069217979154,-70.73237044324748,-100.25983753174992,-31.959785992705623
3.28,4.07,-8.66,-0.0216133938091427,0.1742233853214767,-0.3071069217979154,-70.73237044324748,-100.25983753174992,-31.959785992705623
3.23,4.08,-8.53,0.0329554619482758,0.1913552994406104,-0.1834699735991058,-70.64807912994407,-100.24196356728784,-32.138622347851936
3.23,4.08,-8.53,0.0329554619482758,0.1913552994406104,-0.1834699735991058,-70.64807912994407,-100.24196356728784,-32.138622347851936
3.13,4.07,-8.33,0.1149926110710911,0.2196543474916861,0.0245628675406361,-70.56383173343356,-100.24196356728784,-32.26982009667936
3.13,4.07,-8.33,0.1149926110710911,0.2196543474916861,0.0245628675406361,-70.56383173343356,-100.24196356728784,-32.26982009667936
3.3,4.05,-8.45,0.0089515285783193,0.1482020537851429,-0.1267761975106029,-70.52172446832354,-100.24196356728784,-32.3533321925502
3.3,4.05,-8.45,0.0089515285783193,0.1482020537851429,-0.1267761975106029,-70.52172446832354,-100.24196356728784,-32.3533321925502
3.32,4.15,-8.52,0.0596577121184389,0.1849631671835712,-0.233147288001895,-70.4375427333033,-100.20622564478924,-32.580097056893266
3.32,4.15,-8.52,0.0596577121184389,0.1849631671835712,-0.233147288001895,-70.4375427333033,-100.20622564478924,-32.580097056893266
3.35,4.13,-8.35,0.0790560594222119,0.1171152495947534,-0.0919324317313705,-70.33938584771147,-100.20622564478924,-32.73532749855365
3.35,4.13,-8.35,0.0790560594222119,0.1171152495947534,-0.0919324317313705,-70.33938584771147,-100.20622564478924,-32.73532749855365
3.36,4.14,-8.38,0.0741556514186716,0.1372294990597793,-0.1245769636712275,-70.26931004748687,-100.2240929390682,-32.818938689500946
3.36,4.14,-8.38,0.0741556514186716,0.1372294990597793,-0.1245769636712275,-70.26931004748687,-100.2240929390682,-32.818938689500946
3.34,4.02,-8.46,-0.0494990009908997,0.2211822190720553,-0.1349911258336664,-70.21327111376787,-100.24196356728784,-32.8547775548023
3.34,4.02,-8.46,-0.0494990009908997,0.2211822190720553,-0.1349911258336664,-70.21327111376787,-100.24196356728784,-32.8547775548023
3.49,4.13,-8.45,-0.0021060988917584,0.0849212472751581,-0.2249143817955268,-70.17125455372687,-100.2240929390682,-32.950364032221074
3.49,4.13,-8.45,-0.0021060988917584,0.0849212472751581,-0.2249143817955268,-70.17125455372687,-100.2240929390682,-32.950364032221074
3.46,4.1,-8.43,-0.0107998260389671,0.1166447705332112,-0.184985369711244,-70.11524930068694,-100.25983753174992,-32.98621503760272
3.46,4.1,-8.43,-0.0107998260389671,0.1166447705332112,-0.184985369711244,-70.11524930068694,-100.25983753174992,-32.98621503760272
3.39,3.98,-8.37,-0.0721389172611447,0.1798326739202689,-0.0600544237682072,-70.08725387641728,-100.27771483475884,-33.01011755272957
3.39,3.98,-8.37,-0.0721389172611447,0.1798326739202689,-0.0600544237682072,-70.08725387641728,-100.27771483475884,-33.01011755272957
3.41,4.12,-8.27,0.0710337203150352,0.1086898296355776,-0.0411183122376517,-70.04526973118621,-100.25983753174992,-33.105742400688804
3.41,4.12,-8.27,0.0710337203150352,0.1086898296355776,-0.0411183122376517,-70.04526973118621,-100.25983753174992,-33.105742400688804
3.52,4.23,-8.35,0.1096858005126251,0.0394614750543622,-0.1929605832753527,-70.0172862891219,-100.25983753174992,-33.14160783025417
3.52,4.23,-8.35,0.1096858005126251,0.0394614750543622,-0.1929605832753527,-70.0172862891219,-100.25983753174992,-33.14160783025417
3.49,4.15,-8.46,0.0186920040168754,0.1270509155809289,-0.2411213286995082,-69.98930763271481,-100.31347946564678,-33.11769717298479
3.49,4.15,-8.46,0.0186920040168754,0.1270509155809289,-0.2411213286995082,-69.98930763271481,-100.31347946564678,-33.11769717298479
3.33,4.0,-8.43,-0.0475818347309015,0.2698644421188732,-0.0968195512170648,-69.98930763271481,-100.33136679814685,-33.05792701658909
3.33,4.0,-8.43,-0.0475818347309015,0.2698644421188732,-0.0968195512170648,-69.98930763271481,-100.33136679814685,-33.05792701658909
3.38,4.13,-8.27,0.0924278493073518,0.1247550867783049,-0.0345944975722112,-69.98930763271481,-100.33136679814685,-33.05792701658909
3.38,4.13,-8.27,0.0924278493073518,0.1247550867783049,-0.0345944975722112,-69.98930763271481,-100.33136679814685,-33.05792701658909
3.51,4.17,-8.4,0.045596221984059,0.0692185533380143,-0.2064479110570278,-69.97532009784457,-100.34925747843585,-33.08183396795116
3.51,4.17,-8.4,0.045596221984059,0.0692185533380143,-0.2064479110570278,-69.97532009784457,-100.34925747843585,-33.08183396795116
3.49,4.21,-8.51,0.0595692220729356,0.1254745554188407,-0.3079437952902513,-69.94734861219692,-100.38504889165011,-33.0459740960127
3.49,4.21,-8.51,0.0595692220729356,0.1254745554188407,-0.3079437952902513,-69.94734861219692,-100.38504889165011,-33.0459740960127
3.54,4.07,-8.41,-0.0508361731973663,0.0551259253733675,-0.1842947409064557,-69.91938190191141,-100.43876117788852,-33.01011755272957
3.54,4.07,-8.41,-0.0508361731973663,0.0551259253733675,-0.1842947409064557,-69.91938190191141,-100.43876117788852,-33.01011755272957
3.39,3.98,-8.36,-0.0652347932039314,0.1587914373797265,-0.0519822429214542,-69.91938190191141,-100.474586173471,-32.914516343671416
3.39,3.98,-8.36,-0.0652347932039314,0.1587914373797265,-0.0519822429214542,-69.91938190191141,-100.474586173471,-32.914516343671416
3.39,4.02,-8.37,-0.0330038999344995,0.14480653352575,-0.0770406978333415,-69.94734861219692,-100.49250371968468,-32.86672457746944
3.39,4.02,-8.37,-0.0330038999344995,0.14480653352575,-0.0770406978333415,-69.94734861219692,-100.49250371968468,-32.86672457746944
3.41,4.21,-8.41,0.1059445654936313,0.0970181187830592,-0.1963327168535169,-69.97532009784457,-100.474586173471,-32.84283089936096
3.41,4.21,-8.41,0.1059445654936313,0.0970181187830592,-0.1963327168535169,-69.97532009784457,-100.474586173471,-32.84283089936096
3.36,4.28,-8.25,0.2222052688725928,0.0364086086516035,-0.0736232366924607,-70.0172862891219,-100.474586173471,-32.795047946580326
3.36,4.28,-8.25,0.2222052688725928,0.0364086086516035,-0.0736232366924607,-70.0172862891219,-100.474586173471,-32.795047946580326
3.22,3.86,-8.4,-0.1503758115240077,0.2714374186546171,0.0223917837087572,-70.07325796303394,-100.51042463462828,-32.651734221557824
3.22,3.86,-8.4,-0.1503758115240077,0.2714374186546171,0.0223917837087572,-70.07325796303394,-100.51042463462828,-32.651734221557824
3.36,4.04,-8.52,-0.0798951351262587,0.1574606012507005,-0.2018675189154226,-70.12924881260771,-100.474586173471,-32.61591400140699
3.36,4.04,-8.52,-0.0798951351262587,0.1574606012507005,-0.2018675189154226,-70.12924881260771,-100.474586173471,-32.61591400140699
3.32,4.02,-8.31,-0.024464073137028,0.0793153239603858,-0.0031415670268248,-70.17125455372687,-100.474586173471,-32.52040941662392
3.32,4.02,-8.31,-0.024464073137028,0.0793153239603858,-0.0031415670268248,-70.17125455372687,-100.474586173471,-32.52040941662392
3.26,4.09,-8.33,0.0461446478838123,0.1155555927238725,-0.0284462159229512,-70.19926439078702,-100.474586173471,-32.48460118565665
3.26,4.09,-8.33,0.0461446478838123,0.1155555927238725,-0.0284462159229512,-70.19926439078702,-100.474586173471,-32.48460118565665
3.31,4.0,-8.58,-0.12130873294486,0.1897062537585148,-0.2194058410870756,-70.21327111376787,-100.51042463462828,-32.424928041950515
3.31,4.0,-8.58,-0.12130873294486,0.1897062537585148,-0.2194058410870756,-70.21327111376787,-100.51042463462828,-32.424928041950515
3.2,4.07,-8.32,0.0486637976477389,0.1524567586513245,0.008604849484513,-70.21327111376787,-100.49250371968468,-32.424928041950515
3.2,4.07,-8.32,0.0486637976477389,0.1524567586513245,0.008604849484513,-70.21327111376787,-100.49250371968468,-32.424928041950515
3.35,4.12,-8.41,0.0160528348885516,0.0518219704811402,-0.1393068061533178,-70.22727904040842,-100.49250371968468,-32.424928041950515
3.35,4.12,-8.41,0.0160528348885516,0.0518219704811402,-0.1393068061533178,-70.22727904040842,-100.49250371968468,-32.424928041950515
3.31,4.08,-8.41,-0.009165644913837,0.0919106448763873,-0.1090985054993094,-70.22727904040842,-100.49250371968468,-32.424928041950515
3.31,4.08,-8.41,-0.009165644913837,0.0919106448763873,-0.1090985054993094,-70.22727904040842,-100.49250371968468,-32.424928041950515
3.24,4.1,-8.31,0.0621623834514609,0.0999052488243084,-0.0091461867258093,-70.24128817122835,-100.49250371968468,-32.401061315113324
3.24,4.1,-8.31,0.0621623834514609,0.0999052488243084,-0.0091461867258093,-70.24128817122835,-100.49250371968468,-32.401061315113324
3.25,4.05,-8.39,-0.009140993861125,0.1310581462560029,-0.0594454893276381,-70.24128817122835,-100.51042463462828,-32.37719603241224
3.25,4.05,-8.39,-0.009140993861125,0.1310581462560029,-0.0594454893276381,-70.24128817122835,-100.51042463462828,-32.37719603241224
3.16,4.09,-8.3,0.0793552416638219,0.152082865110813,0.0304404304500423,-70.26931004748687,-100.49250371968468,-32.34140081327868
3.16,4.09,-8.3,0.0793552416638219,0.152082865110813,0.0304404304500423,-70.26931004748687,-100.49250371968468,-32.34140081327868
3.33,4.13,-8.56,-0.0209056577544578,0.1153624867417217,-0.2633874602146626,-70.28332279396642,-100.474586173471,-32.36526393220739
3.33,4.13,-8.56,-0.0209056577544578,0.1153624867417217,-0.2633874602146626,-70.28332279396642,-100.474586173471,-32.36526393220739
3.28,4.02,-8.35,-0.0305411744678072,0.0772665602382289,-0.0236296051450661,-70.28332279396642,-100.51042463462828,-32.2936788968098
3.28,4.02,-8.35,-0.0305411744678072,0.0772665602382289,-0.0236296051450661,-70.28332279396642,-100.51042463462828,-32.2936788968098
3.18,3.92,-8.36,-0.0851691106916979,0.1832303071704292,0.0430659819706473,-70.2973367467073,-100.51042463462828,-32.25789123557385
3.18,3.92,-8.36,-0.0851691106916979,0.1832303071704292,0.0430659819706473,-70.2973367467073,-100.51042463462828,-32.25789123557385
3.21,4.05,-8.44,-0.0017772761658695,0.169597550462996,-0.0883706423314922,-70.2973367467073,-100.51042463462828,-32.25789123557385
3.21,4.05,-8.44,-0.0017772761658695,0.169597550462996,-0.0883706423314922,-70.2973367467073,-100.51042463462828,-32.25789123557385
3.37,4.14,-8.49,0.0090816584016482,0.0347392481342576,-0.222074281189494,-70.28332279396642,-100.51042463462828,-32.25789123557385
3.37,4.14,-8.49,0.0090816584016482,0.0347392481342576,-0.222074281189494,-70.28332279396642,-100.51042463462828,-32.25789123557385
3.21,4.05,-8.37,0.0173296639519529,0.1343449360488082,-0.0292613009880948,-70.2973367467073,-100.52834892064112,-32.24596273355917
3.21,4.05,-8.37,0.0173296639519529,0.1343449360488082,-0.0292613009880948,-70.2973367467073,-100.52834892064112,-32.24596273355917
3.18,3.99,-8.39,-0.0314996391068794,0.1790240196071917,-0.0112702570167488,-70.28332279396642,-100.52834892064112,-32.23403459047365
3.18,3.99,-8.39,-0.0314996391068794,0.1790240196071917,-0.0112702570167488,-70.28332279396642,-100.52834892064112,-32.23403459047365
3.23,4.05,-8.35,0.0160731398643063,0.1079691202529249,-0.019131613858855,-70.28332279396642,-100.52834892064112,-32.24596273355917
3.23,4.05,-8.35,0.0160731398643063,0.1079691202529249,-0.019131613858855,-70.28332279396642,-100.52834892064112,-32.24596273355917
3.27,4.06,-8.32,0.0216596370074564,0.0562475736312033,-0.0114591392683802,-70.28332279396642,-100.52834892064112,-32.23403459047365
3.27,4.06,-8.32,0.0216596370074564,0.0562475736312033,-0.0114591392683802,-70.28332279396642,-100.52834892064112,-32.23403459047365
3.3,4.04,-8.45,-0.0449564748786394,0.0936110565501808,-0.1232702356040107,-70.28332279396642,-100.52834892064112,-32.24596273355917
3.3,4.04,-8.45,-0.0449564748786394,0.0936110565501808,-0.1232702356040107,-70.28332279396642,-100.52834892064112,-32.24596273355917
3.3,4.18,-8.52,0.0539235569740213,0.1023741219536389,-0.2402107927629533,-70.28332279396642,-100.52834892064112,-32.28174931703743
3.3,4.18,-8.52,0.0539235569740213,0.1023741219536389,-0.2402107927629533,-70.28332279396642,-100.52834892064112,-32.28174931703743
3.17,4.07,-8.27,0.0735112651935178,0.120414813043477,0.0605330108248036,-70.26931004748687,-100.54627658006508,-32.25789123557385
3.17,4.07,-8.27,0.0735112651935178,0.120414813043477,0.0605330108248036,-70.26931004748687,-100.54627658006508,-32.25789123557385
3.17,4.07,-8.34,0.0500212856275027,0.1470222541105528,0.0012799239763321,-70.25529850674774,-100.56420761524464,-32.24596273355917
3.17,4.07,-8.34,0.0500212856275027,0.1470222541105528,0.0012799239763321,-70.25529850674774,-100.56420761524464,-32.24596273355917
3.26,4.01,-8.5,-0.0810160438664133,0.1507441543988501,-0.1396263183289257,-70.24128817122835,-100.56420761524464,-32.24596273355917
3.26,4.01,-8.5,-0.0810160438664133,0.1507441543988501,-0.1396263183289257,-70.24128817122835,-100.56420761524464,-32.24596273355917
3.31,4.14,-8.45,0.0259957641825188,0.0658164520894293,-0.1679774323845766,-70.25529850674774,-100.52834892064112,-32.2936788968098
3.31,4.14,-8.45,0.0259957641825188,0.0658164520894293,-0.1679774323845766,-70.25529850674774,-100.52834892064112,-32.2936788968098
3.25,3.98,-8.34,-0.0594957655882499,0.0968211552613231,0.011468229467562,-70.25529850674774,-100.54627658006508,-32.26982009667936
3.25,3.98,-8.34,-0.0594957655882499,0.0968211552613231,0.011468229467562,-70.25529850674774,-100.54627658006508,-32.26982009667936
