acc_x,acc_y,acc_z,lin_x,lin_y,lin_z,eul_x,eul_y,eul_z
-3.05,1.37,-9.07,-0.339097626992848,0.2832039547609482,0.1500922116690226,-46.61927683962218,-128.10621848828742,-2.532679647359437
-3.05,1.37,-9.07,-0.339097626992848,0.2832039547609482,0.1500922116690226,-46.61927683962218,-128.10621848828742,-2.532679647359437
-3.03,1.92,-9.09,0.0151885366666983,-0.0960708161748124,0.0349592708255777,-46.59432285421078,-128.10621848828742,-2.6473004867786654
-3.03,1.92,-9.09,0.0151885366666983,-0.0960708161748124,0.0349592708255777,-46.59432285421078,-128.10621848828742,-2.6473004867786654
-3.03,1.68,-9.0,-0.1132007229130328,0.0780147606710537,0.1638081318861495,-46.60679955433233,-128.10621848828742,-2.6243761106355543
-3.03,1.68,-9.0,-0.1132007229130328,0.0780147606710537,0.1638081318861495,-46.60679955433233,-128.10621848828742,-2.6243761106355543
-2.98,1.93,-9.22,-0.0622632120763897,-0.1361973494296809,-0.072179565005678,-46.60679955433233,-128.05386288415187,-2.750461504037132
-2.98,1.93,-9.22,-0.0622632120763897,-0.1361973494296809,-0.072179565005678,-46.60679955433233,-128.05386288415187,-2.750461504037132
-3.09,1.85,-9.07,-0.0037337317814143,0.0086615865239746,0.0477867959087614,-46.60679955433233,-128.05386288415187,-2.738999060214957
-3.09,1.85,-9.07,-0.0037337317814143,0.0086615865239746,0.0477867959087614,-46.60679955433233,-128.05386288415187,-2.738999060214957
-3.18,1.78,-8.81,0.1048237834190803,0.1352596233472864,0.2741992758303926,-46.56937120855181,-128.10621848828742,-2.6473004867786654
-3.18,1.78,-8.81,0.1048237834190803,0.1352596233472864,0.2741992758303926,-46.56937120855181,-128.10621848828742,-2.6473004867786654
-3.06,1.64,-8.97,-0.103468710463133,0.1149822821736336,0.1894688485013347,-46.53194812307301,-128.18484420355122,-2.532679647359437
-3.06,1.64,-8.97,-0.103468710463133,0.1149822821736336,0.1894688485013347,-46.53194812307301,-128.18484420355122,-2.532679647359437
-3.11,1.75,-9.01,-0.0027219304508336,0.0697585638293519,0.1159417527217296,-46.46958798664575,-128.23732310544656,-2.521217704700676
-3.11,1.75,-9.01,-0.0027219304508336,0.0697585638293519,0.1159417527217296,-46.46958798664575,-128.23732310544656,-2.521217704700676
-3.08,1.71,-9.08,-0.0651585001000326,0.0684293905501036,0.0676576605239258,-46.43217889831124,-128.31613447366578,-2.509755787270372
-3.08,1.71,-9.08,-0.0651585001000326,0.0684293905501036,0.0676576605239258,-46.43217889831124,-128.31613447366578,-2.509755787270372
-3.06,1.73,-9.05,-0.0408183177842892,0.0451764130741115,0.0981334832176852,-46.39477504755206,-128.39505791682004,-2.4982938949536853
-3.06,1.73,-9.05,-0.0408183177842892,0.0451764130741115,0.0981334832176852,-46.39477504755206,-128.39505791682004,-2.4982938949536853
-3.02,1.76,-9.12,-0.0661022007982123,-0.0093643283079198,0.0399748846700678,-46.35737642818546,-128.4213907260083,-2.509755787270372
-3.02,1.76,-9.12,-0.0661022007982123,-0.0093643283079198,0.0399748846700678,-46.35737642818546,-128.4213907260083,-2.509755787270372
-3.07,1.63,-9.03,-0.0886221394643397,0.1211337745538037,0.1319317754179998,-46.33244691855332,-128.44773606463812,-2.47537018520181
-3.07,1.63,-9.03,-0.0886221394643397,0.1211337745538037,0.1319317754179998,-46.33244691855332,-128.44773606463812,-2.47537018520181
-3.04,1.62,-9.08,-0.1389931757030995,0.1088194667001493,0.0967973120971041,-46.3449113831939,-128.44773606463812,-2.532679647359437
-3.04,1.62,-9.08,-0.1389931757030995,0.1088194667001493,0.0967973120971041,-46.3449113831939,-128.44773606463812,-2.532679647359437
-3.06,1.73,-9.07,-0.0521914851681782,0.0575021322028784,0.0796067928548751,-46.38230826013582,-128.39505791682004,-2.589989743099661
-3.06,1.73,-9.07,-0.0521914851681782,0.0575021322028784,0.0796067928548751,-46.38230826013582,-128.39505791682004,-2.589989743099661
-3.02,1.98,-9.22,0.0311719067959146,-0.1409513300181906,-0.0942772815627144,-46.407242416234105,-128.3424298098244,-2.7160742546883188
-3.02,1.98,-9.22,0.0311719067959146,-0.1409513300181906,-0.0942772815627144,-46.407242416234105,-128.3424298098244,-2.7160742546883188
-3.07,1.84,-9.03,0.0330347734130638,0.0106229067451981,0.0932471020657335,-46.43217889831124,-128.31613447366578,-2.704611892754087
-3.07,1.84,-9.03,0.0330347734130638,0.0106229067451981,0.0932471020657335,-46.43217889831124,-128.31613447366578,-2.704611892754087
-3.12,1.83,-8.94,0.0819317373446123,0.0642307913474324,0.1632034379113935,-46.44464801216442,-128.31613447366578,-2.7275366438036484
-3.12,1.83,-8.94,0.0819317373446123,0.0642307913474324,0.1632034379113935,-46.44464801216442,-128.31613447366578,-2.7275366438036484
-3.0,1.82,-9.13,-0.0685990447686197,-0.0293319013601484,0.0258660942683359,-46.44464801216442,-128.31613447366578,-2.7619239753850606
-3.0,1.82,-9.13,-0.0685990447686197,-0.0293319013601484,0.0258660942683359,-46.44464801216442,-128.31613447366578,-2.7619239753850606
-3.07,1.82,-9.03,0.0124023754061371,0.034871027338813,0.0970243536356338,-46.45711770819951,-128.2898515902458,-2.7733864743736323
-3.07,1.82,-9.03,0.0124023754061371,0.034871027338813,0.0970243536356338,-46.45711770819951,-128.2898515902458,-2.7733864743736323
-2.9,1.75,-9.18,-0.1866314424954658,-0.0528528606871624,0.0236404794184483,-46.46958798664575,-128.31613447366578,-2.7619239753850606
-2.9,1.75,-9.18,-0.1866314424954658,-0.0528528606871624,0.0236404794184483,-46.46958798664575,-128.31613447366578,-2.7619239753850606
-3.08,1.85,-8.96,0.0566733111545515,0.0311159991665656,0.1533438342141728,-46.44464801216442,-128.2898515902458,-2.807774138332147
-3.08,1.85,-8.96,0.0566733111545515,0.0311159991665656,0.1533438342141728,-46.44464801216442,-128.2898515902458,-2.807774138332147
-3.04,1.81,-9.0,-0.014813245768382,0.0264366314172227,0.1362424764119083,-46.45711770819951,-128.2635811405088,-2.8192367490322434
-3.04,1.81,-9.0,-0.014813245768382,0.0264366314172227,0.1362424764119083,-46.45711770819951,-128.2635811405088,-2.8192367490322434
-3.06,1.8,-8.98,-0.0024330779471504,0.0547206047815112,0.1505120693600261,-46.48205884773244,-128.23732310544656,-2.8421620551927376
-3.06,1.8,-8.98,-0.0024330779471504,0.0547206047815112,0.1505120693600261,-46.48205884773244,-128.23732310544656,-2.8421620551927376
-3.08,1.9,-9.09,0.0311030849138273,-0.0021032374975773,0.0228098452089948,-46.494530291689,-128.2110774660985,-2.910938660030132
-3.08,1.9,-9.09,0.0311030849138273,-0.0021032374975773,0.0228098452089948,-46.494530291689,-128.2110774660985,-2.910938660030132
-2.98,1.81,-9.18,-0.1239122960825402,-0.020139488778475,-0.0123693066248353,-46.50700231874489,-128.2110774660985,-2.910938660030132
-2.98,1.81,-9.18,-0.1239122960825402,-0.020139488778475,-0.0123693066248353,-46.50700231874489,-128.2110774660985,-2.910938660030132
-3.02,1.85,-9.0,-0.0143554640131212,0.0054314954456146,0.1349043240886356,-46.53194812307301,-128.18484420355122,-2.956790311078442
-3.02,1.85,-9.0,-0.0143554640131212,0.0054314954456146,0.1349043240886356,-46.53194812307301,-128.18484420355122,-2.956790311078442
-3.1,1.73,-8.93,-0.023014552798956,0.1493693544113945,0.1980622199814324,-46.54442190080458,-128.1586232989387,-2.9338644268256844
-3.1,1.73,-8.93,-0.023014552798956,0.1493693544113945,0.1980622199814324,-46.54442190080458,-128.1586232989387,-2.9338644268256844
-3.05,1.87,-9.13,-0.0337292199503676,0.0035148393860732,0.0007767606793098,-46.56937120855181,-128.10621848828742,-2.9797163137078666
-3.05,1.87,-9.13,-0.0337292199503676,0.0035148393860732,0.0007767606793098,-46.56937120855181,-128.10621848828742,-2.9797163137078666
-3.12,1.84,-8.91,0.062911835979885,0.1003596667226879,0.1892662581402131,-46.60679955433233,-128.0800345447506,-3.0026424356334624
-3.12,1.84,-8.91,0.062911835979885,0.1003596667226879,0.1892662581402131,-46.60679955433233,-128.0800345447506,-3.0026424356334624
-2.96,2.11,-9.03,0.1030799792698228,-0.1934344781093742,0.0749205740165432,-46.64423316662803,-128.05386288415187,-3.117274866889664
-2.96,2.11,-9.03,0.1030799792698228,-0.1934344781093742,0.0749205740165432,-46.64423316662803,-128.05386288415187,-3.117274866889664
-3.09,1.66,-8.9,-0.081496329592213,0.2152932682836331,0.2431408555021139,-46.64423316662803,-128.05386288415187,-3.0714215263829594
-3.09,1.66,-8.9,-0.081496329592213,0.2152932682836331,0.2431408555021139,-46.64423316662803,-128.05386288415187,-3.0714215263829594
-3.11,1.69,-8.85,-0.0355805844731115,0.226106842098074,0.2778352931245944,-46.64423316662803,-128.05386288415187,-3.15166519950434
-3.11,1.69,-8.85,-0.0355805844731115,0.226106842098074,0.2778352931245944,-46.64423316662803,-128.05386288415187,-3.15166519950434
-2.99,1.95,-9.1,-0.0229474734278135,-0.0381602079767354,0.0316503983636646,-46.656712208804855,-128.0277034878583,-3.300693295071686
-2.99,1.95,-9.1,-0.0229474734278135,-0.0381602079767354,0.0316503983636646,-46.656712208804855,-128.0277034878583,-3.300693295071686
-3.01,1.96,-9.2,-0.0446702521034882,-0.0224982269790434,-0.0695435176645755,-46.68167205165904,-128.0015563372832,-3.40386984812725
-3.01,1.96,-9.2,-0.0446702521034882,-0.0224982269790434,-0.0695435176645755,-46.68167205165904,-128.0015563372832,-3.40386984812725
-2.94,1.93,-9.31,-0.1444074220697182,-0.0605950975181609,-0.1442331131014693,-46.70663424071843,-128.0015563372832,-3.40386984812725
-2.94,1.93,-9.31,-0.1444074220697182,-0.0605950975181609,-0.1442331131014693,-46.70663424071843,-128.0015563372832,-3.40386984812725
-3.18,1.88,-8.84,0.1327038496382552,0.184071002388771,0.2285026032237933,-46.7191162156521,-127.97542141388575,-3.369477361207863
-3.18,1.88,-8.84,0.1327038496382552,0.184071002388771,0.2285026032237933,-46.7191162156521,-127.97542141388575,-3.369477361207863
-3.21,2.09,-9.03,0.2335995187429188,0.0527801760125621,0.000746394627205,-46.744081927482135,-127.94929869917114,-3.40386984812725
-3.21,2.09,-9.03,0.2335995187429188,0.0527801760125621,0.000746394627205,-46.744081927482135,-127.94929869917114,-3.40386984812725
-3.1,2.25,-9.26,0.2049522525281863,-0.1528820254520175,-0.2110703824261985,-46.7191162156521,-128.0015563372832,-3.4153340784378665
-3.1,2.25,-9.26,0.2049522525281863,-0.1528820254520175,-0.2110703824261985,-46.7191162156521,-128.0015563372832,-3.4153340784378665
-2.98,1.81,-9.12,-0.0931154585947284,0.0486245165018687,0.0434607071630708,-46.64423316662803,-128.1586232989387,-3.2089830530311807
-2.98,1.81,-9.12,-0.0931154585947284,0.0486245165018687,0.0434607071630708,-46.64423316662803,-128.1586232989387,-3.2089830530311807
-3.07,1.63,-8.96,-0.0738703839332096,0.2287447167499954,0.1990686695643031,-46.50700231874489,-128.3424298098244,-3.025568677774776
-3.07,1.63,-8.96,-0.0738703839332096,0.2287447167499954,0.1990686695643031,-46.50700231874489,-128.3424298098244,-3.025568677774776
-3.0,1.94,-9.23,0.0257725016411469,-0.0621595838573206,-0.0904188572068545,-46.407242416234105,-128.50046440745706,-2.9911793597011727
-3.0,1.94,-9.23,0.0257725016411469,-0.0621595838573206,-0.0904188572068545,-46.407242416234105,-128.50046440745706,-2.9911793597011727
-2.93,1.94,-9.19,0.0394806717850724,-0.1258590298079948,-0.0313986266927539,-46.23275206665912,-128.76486449761614,-2.830699387947472
-2.93,1.94,-9.19,0.0394806717850724,-0.1258590298079948,-0.0313986266927539,-46.23275206665912,-128.76486449761614,-2.830699387947472
-3.15,1.89,-8.89,0.2725269963142153,0.0644750207472798,0.1916475554875933,-45.98367660557063,-129.03054304377298,-2.6473004867786654
-3.15,1.89,-8.89,0.2725269963142153,0.0644750207472798,0.1916475554875933,-45.98367660557063,-129.03054304377298,-2.6473004867786654
-3.17,2.06,-8.68,0.5044244910118545,-0.04615881911458,0.3526389308143187,-45.54834570673154,-129.48518799624307,-2.521217704700676
-3.17,2.06,-8.68,0.5044244910118545,-0.04615881911458,0.3526389308143187,-45.54834570673154,-129.48518799624307,-2.521217704700676
-3.05,1.89,-8.54,0.4008415789470573,-0.005888548042955,0.5521650681634824,-45.10129990098643,-130.02500909601727,-2.47537018520181
-3.05,1.89,-8.54,0.4008415789470573,-0.005888548042955,0.5521650681634824,-45.10129990098643,-130.02500909601727,-2.47537018520181
-3.07,1.62,-8.05,0.464421390414368,0.2533751249543695,1.0561120840670617,-44.37020029186166,-130.92785324394194,-2.521217704700676
-3.07,1.62,-8.05,0.464421390414368,0.2533751249543695,1.0561120840670617,-44.37020029186166,-130.92785324394194,-2.521217704700676
-2.95,1.61,-7.92,0.4835517465067506,0.2244688482438298,1.2196370476038998,-43.70272222782621,-131.73432389141507,-2.750461504037132
-2.95,1.61,-7.92,0.4835517465067506,0.2244688482438298,1.2196370476038998,-43.70272222782621,-131.73432389141507,-2.750461504037132
-2.94,1.9,-7.97,0.7374653040698346,0.1193712151627459,1.1339113645813264,-42.70441132531611,-132.95401941873996,-3.5299782811888885
-2.94,1.9,-7.97,0.7374653040698346,0.1193712151627459,1.1339113645813264,-42.70441132531611,-132.95401941873996,-3.5299782811888885
-2.05,0.83,-9.06,-0.6248083683702145,0.4545334035487658,0.5126727088789966,-41.64818266123672,-134.7671460925717,-4.240855681461491
-2.05,0.83,-9.06,-0.6248083683702145,0.4545334035487658,0.5126727088789966,-41.64818266123672,-134.7671460925717,-4.240855681461491
-1.86,1.01,-8.96,-0.4337886405113373,0.3904562529816136,0.6185777685756673,-40.87678270719479,-135.97435612355386,-5.0551272004985615
-1.86,1.01,-8.96,-0.4337886405113373,0.3904562529816136,0.6185777685756673,-40.87678270719479,-135.97435612355386,-5.0551272004985615
-1.49,2.04,-9.22,0.075350911091201,-0.2577231979223116,0.2506047409270575,-39.86343282424955,-137.339715842895,-6.879625535030392
-1.49,2.04,-9.22,0.075350911091201,-0.2577231979223116,0.2506047409270575,-39.86343282424955,-137.339715842895,-6.879625535030392
-0.96,2.38,-9.52,0.0007958537806391,-0.5777811359203122,-0.0362443063303992,-39.084272157289,-138.3594636167184,-8.073924421552888
-0.96,2.38,-9.52,0.0007958537806391,-0.5777811359203122,-0.0362443063303992,-39.084272157289,-138.3594636167184,-8.073924421552888
-0.59,1.34,-9.54,-0.5166381540612492,0.2970532290401132,0.1733668422762004,-37.88268575548643,-140.0359922172176,-9.06217605835773
-0.59,1.34,-9.54,-0.5166381540612492,0.2970532290401132,0.1733668422762004,-37.88268575548643,-140.0359922172176,-9.06217605835773
-0.06,1.69,-9.52,-0.4690096428096563,0.0034362658430998,0.1490044200965528,-36.842386864351504,-141.08884000838947,-10.327214181692757
-0.06,1.69,-9.52,-0.4690096428096563,0.0034362658430998,0.1490044200965528,-36.842386864351504,-141.08884000838947,-10.327214181692757
0.34,1.84,-9.62,-0.3399936216261632,0.1388386125310803,0.0132477220924958,-35.4802322080149,-142.16981440543415,-12.296340166976414
0.34,1.84,-9.62,-0.3399936216261632,0.1388386125310803,0.0132477220924958,-35.4802322080149,-142.16981440543415,-12.296340166976414
1.07,1.49,-9.53,-0.7731972760449788,0.3651006320561382,0.1394493968890469,-34.44701981345315,-142.73954322436268,-13.78420515869276
1.07,1.49,-9.53,-0.7731972760449788,0.3651006320561382,0.1394493968890469,-34.44701981345315,-142.73954322436268,-13.78420515869276
2.22,2.2,-9.73,-0.8954691393733645,-0.1737314568946333,-0.3722130210507899,-33.26118341298741,-142.63208125401738,-16.234582036054892
2.22,2.2,-9.73,-0.8954691393733645,-0.1737314568946333,-0.3722130210507899,-33.26118341298741,-142.63208125401738,-16.234582036054892
2.5,1.88,-9.88,-0.8915609949384904,0.5172071404225675,-0.5053049924444561,-32.49653690025889,-141.85294621850556,-18.320928845487863
2.5,1.88,-9.88,-0.8915609949384904,0.5172071404225675,-0.5053049924444561,-32.49653690025889,-141.85294621850556,-18.320928845487863
2.73,2.44,-9.5,-0.5964834638800829,0.1573469475864737,-0.3558275234882018,-32.436861947325646,-140.8145368825897,-19.773350749034485
2.73,2.44,-9.5,-0.5964834638800829,0.1573469475864737,-0.3558275234882018,-32.436861947325646,-140.8145368825897,-19.773350749034485
3.03,2.89,-9.31,-0.391811962949562,0.0105613884443556,-0.3941083954705889,-32.54428338361999,-139.2388131216407,-21.7305176882842
3.03,2.89,-9.31,-0.391811962949562,0.0105613884443556,-0.3941083954705889,-32.54428338361999,-139.2388131216407,-21.7305176882842
3.05,3.06,-9.16,-0.1701805370061064,0.0960734711273829,-0.3192330959561182,-32.723384506373804,-137.97429037596618,-23.050527648721737
3.05,3.06,-9.16,-0.1701805370061064,0.0960734711273829,-0.3192330959561182,-32.723384506373804,-137.97429037596618,-23.050527648721737
3.62,3.41,-9.39,-0.1934191740892269,0.0172581628981505,-0.8172330555926219,-33.20139097173225,-136.15815825603806,-24.631622257728548
3.62,3.41,-9.39,-0.1934191740892269,0.0172581628981505,-0.8172330555926219,-33.20139097173225,-136.15815825603806,-24.631622257728548
3.6,3.52,-9.05,-0.0048077806532698,0.0278761802473055,-0.5496089675915332,-33.58422417640036,-134.88648767208014,-25.71182517460623
3.6,3.52,-9.05,-0.0048077806532698,0.0278761802473055,-0.5496089675915332,-33.58422417640036,-134.88648767208014,-25.71182517460623
3.42,3.7,-8.73,0.3472428489082734,0.1135682602175938,-0.266374603074949,-34.09926566702287,-133.27085000109963,-27.077153605664893
3.42,3.7,-8.73,0.3472428489082734,0.1135682602175938,-0.266374603074949,-34.09926566702287,-133.27085000109963,-27.077153605664893
4.06,3.87,-9.03,0.1176110812754208,0.0683640671613043,-0.8226911831534682,-34.351055102879386,-132.09998463629478,-28.04465615754797
4.06,3.87,-9.03,0.1176110812754208,0.0683640671613043,-0.8226911831534682,-34.351055102879386,-132.09998463629478,-28.04465615754797
4.14,3.42,-8.93,-0.0532746505613602,0.5386824034266939,-0.5994964087262407,-34.63902408126335,-130.79006103529238,-29.037876869982465
4.14,3.42,-8.93,-0.0532746505613602,0.5386824034266939,-0.5994964087262407,-34.63902408126335,-130.79006103529238,-29.037876869982465
3.97,3.84,-8.0,0.2923970552706175,-0.0525839233503457,0.0897451999582639,-35.08341956652468,-129.86249210271768,-29.68940484166728
3.97,3.84,-8.0,0.2923970552706175,-0.0525839233503457,0.0897451999582639,-35.08341956652468,-129.86249210271768,-29.68940484166728
4.43,3.76,-8.18,0.0398739110122418,0.1338443916141698,-0.2260662697872622,-35.44414023991489,-128.44773606463812,-30.84087559172584
4.43,3.76,-8.18,0.0398739110122418,0.1338443916141698,-0.2260662697872622,-35.44414023991489,-128.44773606463812,-30.84087559172584
4.89,4.06,-8.18,0.0062121991465498,-0.0509901900614644,-0.5521849445822955,-36.118460981567104,-126.88855686312144,-31.935947193238352
4.89,4.06,-8.18,0.0062121991465498,-0.0509901900614644,-0.5521849445822955,-36.118460981567104,-126.88855686312144,-31.935947193238352
5.02,3.43,-8.18,-0.4148159200965065,0.452026982309304,-0.3669088345327242,-36.612980343917975,-125.79677910995709,-32.67561619029609
5.02,3.43,-8.18,-0.4148159200965065,0.452026982309304,-0.3669088345327242,-36.612980343917975,-125.79677910995709,-32.67561619029609
5.27,4.04,-7.98,-0.1613133238896938,0.0366845001412117,-0.5735008784306732,-37.72522554558885,-124.0127932062898,-33.919519970596944
5.27,4.04,-7.98,-0.1613133238896938,0.0366845001412117,-0.5735008784306732,-37.72522554558885,-124.0127932062898,-33.919519970596944
5.42,3.87,-8.16,-0.3533018269762544,0.3151182644357053,-0.7154590233124978,-38.64682184617822,-122.75621380444773,-34.78309311529889
5.42,3.87,-8.16,-0.3533018269762544,0.3151182644357053,-0.7154590233124978,-38.64682184617822,-122.75621380444773,-34.78309311529889
5.33,4.31,-7.84,-0.0792855140632073,0.0280386848684006,-0.6069722151281542,-40.19271594298347,-121.03358960360973,-35.96180782852424
5.33,4.31,-7.84,-0.0792855140632073,0.0280386848684006,-0.6069722151281542,-40.19271594298347,-121.03358960360973,-35.96180782852424
5.43,4.58,-7.94,-0.0194295741237333,-0.0525189038435782,-0.8470706766644884,-41.47659109099214,-119.85682289966007,-36.66126379400549
5.43,4.58,-7.94,-0.0194295741237333,-0.0525189038435782,-0.8470706766644884,-41.47659109099214,-119.85682289966007,-36.66126379400549
5.22,4.68,-7.8,0.0411472676456163,-0.1375832720543242,-0.6800166651332145,-43.39423340067783,-118.6107135023718,-37.12029440520261
5.22,4.68,-7.8,0.0411472676456163,-0.1375832720543242,-0.6800166651332145,-43.39423340067783,-118.6107135023718,-37.12029440520261
5.08,4.85,-8.05,0.1255192680021097,-0.1000336488319626,-0.8753740676784467,-44.927644585005865,-117.89610796371052,-37.12029440520261
5.08,4.85,-8.05,0.1255192680021097,-0.1000336488319626,-0.8753740676784467,-44.927644585005865,-117.89610796371052,-37.12029440520261
4.79,4.64,-7.78,-0.0122356514228962,-0.2511152874995237,-0.437318537691743,-47.106349860444496,-117.10092120050626,-36.62505057506963
4.79,4.64,-7.78,-0.0122356514228962,-0.2511152874995237,-0.437318537691743,-47.106349860444496,-117.10092120050626,-36.62505057506963
4.42,4.75,-8.0,0.1705596064967004,-0.1081198044442519,-0.4918022880148651,-48.522767881927,-116.55397754456402,-36.263125888125366
4.42,4.75,-8.0,0.1705596064967004,-0.1081198044442519,-0.4918022880148651,-48.522767881927,-116.55397754456402,-36.263125888125366
4.09,4.89,-8.05,0.3446730700938389,-0.178447230512547,-0.4545417953361781,-50.22538255847991,-115.98960027739392,-35.51632781311482
4.09,4.89,-8.05,0.3446730700938389,-0.178447230512547,-0.4545417953361781,-50.22538255847991,-115.98960027739392,-35.51632781311482
3.87,4.79,-8.16,0.308838028126406,-0.1226983498815474,-0.4107941122679701,-51.35433895468569,-115.70907375985723,-34.795101425948374
3.87,4.79,-8.16,0.308838028126406,-0.1226983498815474,-0.4107941122679701,-51.35433895468569,-115.70907375985723,-34.795101425948374
3.52,5.05,-8.09,0.61689488641665,-0.3362952284450613,-0.3347180644397323,-52.79549944688719,-115.45109275023192,-33.644076625825655
3.52,5.05,-8.09,0.61689488641665,-0.3362952284450613,-0.3347180644397323,-52.79549944688719,-115.45109275023192,-33.644076625825655
3.39,4.61,-8.58,0.2229195949507065,-0.0409689971126399,-0.5039866629545546,-53.62856147141808,-115.51550165897758,-32.54428338361999
3.39,4.61,-8.58,0.2229195949507065,-0.0409689971126399,-0.5039866629545546,-53.62856147141808,-115.51550165897758,-32.54428338361999
3.01,4.23,-8.65,0.0569432518662871,0.0390469919360558,-0.2814981352370918,-54.89039623695746,-115.57996801372803,-30.781444422149058
3.01,4.23,-8.65,0.0569432518662871,0.0390469919360558,-0.2814981352370918,-54.89039623695746,-115.57996801372803,-30.781444422149058
2.49,4.47,-8.32,0.4981639271801428,-0.0843419093186885,0.0522602628617026,-55.744276234982536,-115.472556014324,-29.74868303296809
2.49,4.47,-8.32,0.4981639271801428,-0.0843419093186885,0.0522602628617026,-55.744276234982536,-115.472556014324,-29.74868303296809
2.59,4.45,-8.85,0.2377229171747522,-0.2205246167982312,-0.4270178032871428,-56.57550655085348,-115.45109275023192,-28.45823232032684
2.59,4.45,-8.85,0.2377229171747522,-0.2205246167982312,-0.4270178032871428,-56.57550655085348,-115.45109275023192,-28.45823232032684
2.27,3.95,-9.09,-0.1238645852258487,-0.0174893496904946,-0.3603481650029945,-57.35774212215939,-115.5369840524082,-26.87682214392707
2.27,3.95,-9.09,-0.1238645852258487,-0.0174893496904946,-0.3603481650029945,-57.35774212215939,-115.5369840524082,-26.87682214392707
1.87,3.92,-8.89,0.0139802757905682,-0.0463788407942422,-0.087441850949002,-58.02494481779507,-115.472556014324,-25.688318141008548
1.87,3.92,-8.89,0.0139802757905682,-0.0463788407942422,-0.087441850949002,-58.02494481779507,-115.472556014324,-25.688318141008548
1.47,4.05,-8.73,0.2640052870330942,-0.0645506298842257,0.0751324192420987,-58.4972102111192,-115.40818530642284,-24.76065802803315
1.47,4.05,-8.73,0.2640052870330942,-0.0645506298842257,0.0751324192420987,-58.4972102111192,-115.40818530642284,-24.76065802803315
1.25,3.95,-8.88,0.1543903634774002,-0.0646362463126954,0.0091306317451973,-58.891598569681705,-115.42963584973434,-23.62387580431868
1.25,3.95,-8.88,0.1543903634774002,-0.0646362463126954,0.0091306317451973,-58.891598569681705,-115.42963584973434,-23.62387580431868
1.03,3.85,-8.75,0.1454365919477545,-0.1189049867911307,0.1936062675581862,-59.18130413501813,-115.472556014324,-22.55955209306089
1.03,3.85,-8.75,0.1454365919477545,-0.1189049867911307,0.1936062675581862,-59.18130413501813,-115.472556014324,-22.55955209306089
0.91,4.12,-8.77,0.3830712753484664,-0.2882583039797948,0.0862815117075115,-59.22084162921026,-115.66601281547123,-21.84721243198945
0.91,4.12,-8.77,0.3830712753484664,-0.2882583039797948,0.0862815117075115,-59.22084162921026,-115.66601281547123,-21.84721243198945
0.87,3.59,-9.19,-0.1497382225156118,-0.1118066721274684,-0.0961868527804004,-59.154950108935175,-116.05449328856253,-20.84437327920369
0.87,3.59,-9.19,-0.1497382225156118,-0.1118066721274684,-0.0961868527804004,-59.154950108935175,-116.05449328856253,-20.84437327920369
0.53,3.7,-8.97,0.1410543201639338,-0.0600033869704659,0.0902564678135231,-59.07590865675504,-116.27122992614628,-20.23879269230359
0.53,3.7,-8.97,0.1410543201639338,-0.0600033869704659,0.0902564678135231,-59.07590865675504,-116.27122992614628,-20.23879269230359
0.52,3.45,-8.96,-0.0477951864800797,-0.056974735213761,0.191611284545095,-58.838969295629816,-116.6848576958755,-19.633782752905432
0.52,3.45,-8.96,-0.0477951864800797,-0.056974735213761,0.191611284545095,-58.838969295629816,-116.6848576958755,-19.633782752905432
0.55,3.36,-9.26,-0.2076070211448575,-0.0471809048890183,-0.0571410200381485,-58.65487400856189,-116.99119192350858,-19.23849904872923
0.55,3.36,-9.26,-0.2076070211448575,-0.0471809048890183,-0.0571410200381485,-58.65487400856189,-116.99119192350858,-19.23849904872923
0.42,3.48,-9.2,-0.0252719376052713,-0.1012889070361262,-0.0379374411516604,-58.37904205289053,-117.40908152683936,-18.76214012304259
0.42,3.48,-9.2,-0.0252719376052713,-0.1012889070361262,-0.0379374411516604,-58.37904205289053,-117.40908152683936,-18.76214012304259
0.36,3.48,-9.12,0.0378361086721301,-0.139256518578936,0.0396864979225082,-58.15602096155954,-117.74077335444636,-18.37896716762953
0.36,3.48,-9.12,0.0378361086721301,-0.139256518578936,0.0396864979225082,-58.15602096155954,-117.74077335444636,-18.37896716762953
0.28,3.31,-9.25,-0.0812321786842742,-0.0429379669920981,-0.0212977849720381,-57.94633904000565,-118.0517930817869,-17.949595138790567
0.28,3.31,-9.25,-0.0812321786842742,-0.0429379669920981,-0.0212977849720381,-57.94633904000565,-118.0517930817869,-17.949595138790567
0.12,3.59,-9.18,0.2402440576911337,-0.1623744090876626,-0.0468172752294453,-57.6583726523369,-118.47615510912564,-17.450913825320047
0.12,3.59,-9.18,0.2402440576911337,-0.1623744090876626,-0.0468172752294453,-57.6583726523369,-118.47615510912564,-17.450913825320047
0.13,3.43,-9.12,0.1233211703605126,-0.168756594442953,0.0643446721644522,-57.35774212215939,-118.81305169988,-17.137959104392678
0.13,3.43,-9.12,0.1233211703605126,-0.168756594442953,0.0643446721644522,-57.35774212215939,-118.81305169988,-17.137959104392678
0.08,3.2,-9.12,-0.0135485855815526,-0.0638039466503421,0.141426490312261,-56.88805338503149,-119.37830144711693,-16.848301053200124
0.08,3.2,-9.12,-0.0135485855815526,-0.0638039466503421,0.141426490312261,-56.88805338503149,-119.37830144711693,-16.848301053200124
0.11,3.13,-9.3,-0.1080118553922132,-0.061725231895636,-0.005766798874891,-56.53647049567268,-119.81110097439957,-16.59349169701811
0.11,3.13,-9.3,-0.1080118553922132,-0.061725231895636,-0.005766798874891,-56.53647049567268,-119.81110097439957,-16.59349169701811
-0.07,2.83,-9.4,-0.2411917172152101,0.1922114558210508,-0.0055200612962256,-56.08157589248823,-120.40796619724487,-16.17670848781425
-0.07,2.83,-9.4,-0.2411917172152101,0.1922114558210508,-0.0055200612962256,-56.08157589248823,-120.40796619724487,-16.17670848781425
-0.04,2.66,-9.34,-0.3474175785636846,0.1926321272914375,0.1033003778519816,-55.78316856909328,-120.8011763350936,-15.841123321226055
-0.04,2.66,-9.34,-0.3474175785636846,0.1926321272914375,0.1033003778519816,-55.78316856909328,-120.8011763350936,-15.841123321226055
-0.02,3.12,-9.42,-0.0231813219780963,-0.092932219673383,-0.1161533452678096,-55.43338813739566,-121.1734385573545,-15.679165793853407
-0.02,3.12,-9.42,-0.0231813219780963,-0.092932219673383,-0.1161533452678096,-55.43338813739566,-121.1734385573545,-15.679165793853407
-0.14,2.96,-9.42,-0.0728722613796893,0.0349553762465735,-0.0681192507315291,-55.05832168724145,-121.6183055994286,-15.39003407585724
-0.14,2.96,-9.42,-0.0728722613796893,0.0349553762465735,-0.0681192507315291,-55.05832168724145,-121.6183055994286,-15.39003407585724
-0.16,2.95,-9.34,-0.0375649845779544,0.0035780450331712,0.0106163092898956,-54.81293529494486,-121.92447762133864,-15.170359975770204
-0.16,2.95,-9.34,-0.0375649845779544,0.0035780450331712,0.0106163092898956,-54.81293529494486,-121.92447762133864,-15.170359975770204
-0.23,2.86,-9.39,-0.067022766714489,0.0708958251337172,-0.0114497005897504,-54.56782105444786,-122.20841159701892,-14.904513628099544
-0.23,2.86,-9.39,-0.067022766714489,0.0708958251337172,-0.0114497005897504,-54.56782105444786,-122.20841159701892,-14.904513628099544
-0.19,2.82,-9.59,-0.1529039715123018,0.0353385526402403,-0.1899479994292594,-54.27146504851861,-122.58898532309728,-14.592535930080526
-0.19,2.82,-9.59,-0.1529039715123018,0.0353385526402403,-0.1899479994292594,-54.27146504851861,-122.58898532309728,-14.592535930080526
-0.31,2.59,-9.48,-0.220597839555106,0.1994364896362095,-0.0211758877426788,-54.05267163514365,-122.89990924402274,-14.338412369029564
-0.31,2.59,-9.48,-0.220597839555106,0.1994364896362095,-0.0211758877426788,-54.05267163514365,-122.89990924402274,-14.338412369029564
-0.34,2.54,-9.48,-0.2404042082137863,0.1947431561539403,-0.0087400034488869,-53.85979546306142,-123.14014055583444,-14.049721543626418
-0.34,2.54,-9.48,-0.2404042082137863,0.1947431561539403,-0.0087400034488869,-53.85979546306142,-123.14014055583444,-14.049721543626418
-0.31,2.8,-9.52,-0.0762533037012647,0.0010247402957586,-0.1211233849832602,-53.71845771367622,-123.26060567533968,-13.93427040697098
-0.31,2.8,-9.52,-0.0762533037012647,0.0010247402957586,-0.1211233849832602,-53.71845771367622,-123.26060567533968,-13.93427040697098
-0.33,2.84,-9.54,-0.0365741195765926,-0.053655208185352,-0.1523601642890071,-53.538700860812206,-123.502242338284,-13.680327762024126
-0.33,2.84,-9.54,-0.0365741195765926,-0.053655208185352,-0.1523601642890071,-53.538700860812206,-123.502242338284,-13.680327762024126
-0.36,2.85,-9.4,0.0133301513759845,-0.0812889847977877,-0.0221502527274317,-53.41039017666287,-123.6476805433651,-13.576461659580188
-0.36,2.85,-9.4,0.0133301513759845,-0.0812889847977877,-0.0221502527274317,-53.41039017666287,-123.6476805433651,-13.576461659580188
-0.39,2.69,-9.37,-0.0810031222704982,-0.0227958783637478,0.0507277554291665,-53.25651268144825,-123.84213593724544,-13.299539926123945
-0.39,2.69,-9.37,-0.0810031222704982,-0.0227958783637478,0.0507277554291665,-53.25651268144825,-123.84213593724544,-13.299539926123945
-0.48,2.69,-9.41,-0.0396722138522424,0.0172408220028623,0.0080414829959281,-53.11554927222101,-124.0127932062898,-13.114968872872083
-0.48,2.69,-9.41,-0.0396722138522424,0.0172408220028623,0.0080414829959281,-53.11554927222101,-124.0127932062898,-13.114968872872083
-0.45,2.55,-9.41,-0.1504871221732413,0.021260373005685,0.0480639537226164,-52.94906780042738,-124.23291484122736,-12.815113562902274
-0.45,2.55,-9.41,-0.1504871221732413,0.021260373005685,0.0480639537226164,-52.94906780042738,-124.23291484122736,-12.815113562902274
-0.49,2.64,-9.52,-0.0833441511734869,-0.0191309609752687,-0.0843958374631608,-52.85947382737936,-124.38010760157816,-12.642160322280048
-0.49,2.64,-9.52,-0.0833441511734869,-0.0191309609752687,-0.0843958374631608,-52.85947382737936,-124.38010760157816,-12.642160322280048
-0.51,2.4,-9.63,-0.267543010972356,0.1040909808966985,-0.1268582324914735,-52.73154278918168,-124.55228684017096,-12.377021364647929
-0.51,2.4,-9.63,-0.267543010972356,0.1040909808966985,-0.1268582324914735,-52.73154278918168,-124.55228684017096,-12.377021364647929
-0.61,2.64,-9.47,0.0056445013228887,0.0011450506828636,-0.0433533923072211,-52.68039020015169,-124.60157138168796,-12.273289521851868
-0.61,2.64,-9.47,0.0056445013228887,0.0011450506828636,-0.0433533923072211,-52.68039020015169,-124.60157138168796,-12.273289521851868
-0.55,2.67,-9.5,-0.0097968658416184,-0.1094662171910925,-0.076129020534335,-52.578118912593965,-124.74966789127242,-12.019765115233204
-0.55,2.67,-9.5,-0.0097968658416184,-0.1094662171910925,-0.076129020534335,-52.578118912593965,-124.74966789127242,-12.019765115233204
-0.66,2.58,-9.49,-0.0118720943137758,-0.0064065391904386,-0.0499172528336249,-52.488668512026216,-124.84860239500853,-11.835420883076136
-0.66,2.58,-9.49,-0.0118720943137758,-0.0064065391904386,-0.0499172528336249,-52.488668512026216,-124.84860239500853,-11.835420883076136
-0.69,2.49,-9.41,-0.0307496581925103,0.0069419770598413,0.0484070092011155,-52.34817308721272,-125.04696377500797,-11.524409426521869
-0.69,2.49,-9.41,-0.0307496581925103,0.0069419770598413,0.0484070092011155,-52.34817308721272,-125.04696377500797,-11.524409426521869
-0.61,2.71,-9.54,0.059673552968994,-0.202070973998188,-0.1273022038584148,-52.22052340718582,-125.19616916396942,-11.38620958683243
-0.61,2.71,-9.54,0.059673552968994,-0.202070973998188,-0.1273022038584148,-52.22052340718582,-125.19616916396942,-11.38620958683243
-0.6,2.3,-9.56,-0.236397876537358,-0.0263783981627456,-0.0415488314655281,-52.05468291613776,-125.44568125373512,-11.00624507066077
-0.6,2.3,-9.56,-0.236397876537358,-0.0263783981627456,-0.0415488314655281,-52.05468291613776,-125.44568125373512,-11.00624507066077
-0.71,2.44,-9.47,-0.0470499287489867,-0.0588562152120502,0.0019102150727334,-51.93993891277072,-125.57083317422124,-10.879617409371033
-0.71,2.44,-9.47,-0.0470499287489867,-0.0588562152120502,0.0019102150727334,-51.93993891277072,-125.57083317422124,-10.879617409371033
-0.71,2.36,-9.4,-0.0833800935517724,-0.0548951042279306,0.0894624291268773,-51.78703388751428,-125.74649376545209,-10.67243717618693
-0.71,2.36,-9.4,-0.0833800935517724,-0.0548951042279306,0.0894624291268773,-51.78703388751428,-125.74649376545209,-10.67243717618693
-0.89,2.27,-9.31,-0.0141973465213822,0.0996241100777528,0.1831904623886409,-51.68515222063561,-125.8974793863132,-10.476799088278916
-0.89,2.27,-9.31,-0.0141973465213822,0.0996241100777528,0.1831904623886409,-51.68515222063561,-125.8974793863132,-10.476799088278916
-0.69,2.56,-9.7,-0.0139663265178985,-0.2216958240419236,-0.2467253487734649,-51.55786178927636,-126.02359896120804,-10.396251161173767
-0.69,2.56,-9.7,-0.0139663265178985,-0.2216958240419236,-0.2467253487734649,-51.55786178927636,-126.02359896120804,-10.396251161173767
-0.93,2.18,-9.53,-0.0950658590609457,0.1488738598654693,-0.0120565877481908,-51.443358765022325,-126.17530318519164,-10.166142467644526
-0.93,2.18,-9.53,-0.0950658590609457,0.1488738598654693,-0.0120565877481908,-51.443358765022325,-126.17530318519164,-10.166142467644526
-0.95,2.17,-9.41,-0.0433158620162759,0.1067296524886716,0.1037518495823928,-51.27806271629933,-126.40360438507471,-9.844059122531188
-0.95,2.17,-9.41,-0.0433158620162759,0.1067296524886716,0.1037518495823928,-51.27806271629933,-126.40360438507471,-9.844059122531188
-0.89,2.48,-9.71,0.0794216978959748,-0.1214333597985974,-0.2534467258288036,-51.125583264636,-126.55630673438098,-9.798053639345571
-0.89,2.48,-9.71,0.0794216978959748,-0.1214333597985974,-0.2534467258288036,-51.125583264636,-126.55630673438098,-9.798053639345571
-0.9,2.19,-9.64,-0.1012056949597263,0.0079677130291464,-0.119345865547034,-50.92242811941736,-126.81171301116376,-9.51055493545105
-0.9,2.19,-9.64,-0.1012056949597263,0.0079677130291464,-0.119345865547034,-50.92242811941736,-126.81171301116376,-9.51055493545105
-0.95,2.24,-9.42,0.0200548373837498,-0.0314672210150341,0.0775643483316468,-50.75749078075491,-126.99117600895984,-9.349581983346614
-0.95,2.24,-9.42,0.0200548373837498,-0.0314672210150341,0.0775643483316468,-50.75749078075491,-126.99117600895984,-9.349581983346614
-1.02,2.22,-9.45,0.0513309744003022,-0.0057799479000941,0.0460848666038096,-50.49129103156368,-127.30014547607834,-9.119652615329128
-1.02,2.22,-9.45,0.0513309744003022,-0.0057799479000941,0.0460848666038096,-50.49129103156368,-127.30014547607834,-9.119652615329128
-0.9,1.96,-9.64,-0.2349006632788075,0.0476919761693268,-0.0687612397307404,-50.28866780725309,-127.5329807280848,-8.92424161449454
-0.9,1.96,-9.64,-0.2349006632788075,0.0476919761693268,-0.0687612397307404,-50.28866780725309,-127.5329807280848,-8.92424161449454
-0.96,2.02,-9.34,-0.0695096035889241,0.0010370168068796,0.2028607822169945,-50.07356471942519,-127.76677999527551,-8.705871826379285
-0.96,2.02,-9.34,-0.0695096035889241,0.0010370168068796,0.2028607822169945,-50.07356471942519,-127.76677999527551,-8.705871826379285
-1.01,2.02,-9.34,-0.031668505704049,0.0080093339438234,0.1975380245718732,-49.90920133357593,-127.97542141388575,-8.533497036933403
-1.01,2.02,-9.34,-0.031668505704049,0.0080093339438234,0.1975380245718732,-49.90920133357593,-127.97542141388575,-8.533497036933403
-1.1,1.98,-9.49,-0.0327638712019703,0.0677925412359841,0.0503786476801675,-49.70705837910808,-128.18484420355122,-8.303694005010767
-1.1,1.98,-9.49,-0.0327638712019703,0.0677925412359841,0.0503786476801675,-49.70705837910808,-128.18484420355122,-8.303694005010767
-1.16,1.96,-9.44,0.0130242820913917,0.0970215549357271,0.0962835194827072,-49.58080290531658,-128.3424298098244,-8.142851840335263
-1.16,1.96,-9.44,0.0130242820913917,0.0970215549357271,0.0962835194827072,-49.58080290531658,-128.3424298098244,-8.142851840335263
-1.05,2.24,-9.52,0.1327193951273818,-0.1752220450464543,-0.0270768010193744,-49.353704706731605,-128.55324310023371,-8.096899901459961
-1.05,2.24,-9.52,0.1327193951273818,-0.1752220450464543,-0.0270768010193744,-49.353704706731605,-128.55324310023371,-8.096899901459961
-1.18,1.93,-9.48,0.0155216876157558,0.1006866094632101,0.0610191182208002,-49.15201312727976,-128.81789729217328,-7.959051879828772
-1.18,1.93,-9.48,0.0155216876157558,0.1006866094632101,0.0610191182208002,-49.15201312727976,-128.81789729217328,-7.959051879828772
-1.13,2.06,-9.59,0.0812455992782563,-0.0311467685513913,-0.0665981499963699,-48.862365423932296,-129.1371769317901,-7.844187348567063
-1.13,2.06,-9.59,0.0812455992782563,-0.0311467685513913,-0.0665981499963699,-48.862365423932296,-129.1371769317901,-7.844187348567063
-0.98,1.82,-9.59,-0.1579345317589641,-0.0057319315819437,-0.0023215989311768,-48.64849167574625,-129.40467932878911,-7.694875241065197
-0.98,1.82,-9.59,-0.1579345317589641,-0.0057319315819437,-0.0023215989311768,-48.64849167574625,-129.40467932878911,-7.694875241065197
-0.93,1.91,-9.89,-0.1588514341085973,-0.1029376016062593,-0.3071658017662741,-48.35941981081511,-129.75442065073912,-7.568544455864769
-0.93,1.91,-9.89,-0.1588514341085973,-0.1029376016062593,-0.3071658017662741,-48.35941981081511,-129.75442065073912,-7.568544455864769
-1.02,1.97,-9.57,0.0276749235847029,-0.1141327522068793,-0.016404912473936,-48.13341793224112,-129.99788861220236,-7.419256300710717
-1.02,1.97,-9.57,0.0276749235847029,-0.1141327522068793,-0.016404912473936,-48.13341793224112,-129.99788861220236,-7.419256300710717
-1.03,1.83,-9.49,-0.0004952837393343,-0.0297501102444512,0.087132795651085,-47.75718944121001,-130.46082634681812,-7.269980754447582
-1.03,1.83,-9.49,-0.0004952837393343,-0.0297501102444512,0.087132795651085,-47.75718944121001,-130.46082634681812,-7.269980754447582
-1.02,1.79,-9.44,0.0155424198908198,-0.004168173593309,0.1444638571277341,-47.4440830843744,-130.81759051018483,-7.247016388579905
-1.02,1.79,-9.44,0.0155424198908198,-0.004168173593309,0.1444638571277341,-47.4440830843744,-130.81759051018483,-7.247016388579905
-0.96,1.68,-9.58,-0.0740552380205348,0.0402062872434105,0.0335594306771209,-47.05635227559625,-131.2878239276356,-7.189606746883267
-0.96,1.68,-9.58,-0.0740552380205348,0.0402062872434105,0.0335594306771209,-47.05635227559625,-131.2878239276356,-7.189606746883267
-0.9,1.6,-9.53,-0.1355676625359938,0.0363833031732672,0.102465455994011,-46.8189931753183,-131.56643317341502,-7.086273935339353
-0.9,1.6,-9.53,-0.1355676625359938,0.0363833031732672,0.102465455994011,-46.8189931753183,-131.56643317341502,-7.086273935339353
-0.95,1.65,-9.69,-0.0830138188739647,0.0374988903747894,-0.0682070895530753,-46.60679955433233,-131.7904095910964,-7.017388604693049
-0.95,1.65,-9.69,-0.0830138188739647,0.0374988903747894,-0.0682070895530753,-46.60679955433233,-131.7904095910964,-7.017388604693049
-0.95,1.65,-9.83,-0.0909146875663938,0.0220365786222618,-0.2055999423849464,-46.29505700445262,-132.12822120462246,-6.879625535030392
-0.95,1.65,-9.83,-0.0909146875663938,0.0220365786222618,-0.2055999423849464,-46.29505700445262,-132.12822120462246,-6.879625535030392
-1.01,1.61,-9.62,-0.0159170908570745,0.0454701321561216,0.0008211664285937,-45.99612491286469,-132.46829135766265,-6.650042440520529
-1.01,1.61,-9.62,-0.0159170908570745,0.0454701321561216,0.0008211664285937,-45.99612491286469,-132.46829135766265,-6.650042440520529
-0.87,1.74,-9.75,-0.0365300895203502,-0.1500786379420128,-0.1343329471231431,-45.77214298203665,-132.69628364910096,-6.592650878252481
-0.87,1.74,-9.75,-0.0365300895203502,-0.1500786379420128,-0.1343329471231431,-45.77214298203665,-132.69628364910096,-6.592650878252481
-1.01,1.6,-9.62,-0.0087764863312951,0.0012936133695925,0.0023437369412935,-45.44893918092666,-133.04022773049576,-6.386054856968827
-1.01,1.6,-9.62,-0.0087764863312951,0.0012936133695925,0.0023437369412935,-45.44893918092666,-133.04022773049576,-6.386054856968827
-0.92,1.6,-9.71,-0.0846814225931232,-0.0825616134149234,-0.0764928521831027,-45.23782004339508,-133.27085000109963,-6.271288310584378
-0.92,1.6,-9.71,-0.0846814225931232,-0.0825616134149234,-0.0764928521831027,-45.23782004339508,-133.27085000109963,-6.271288310584378
-1.01,1.41,-9.37,-0.0857507337195699,0.0757558936681761,0.2781659728191244,-45.02686284001362,-133.47352940641977,-6.133576755953128
-1.01,1.41,-9.37,-0.0857507337195699,0.0757558936681761,0.2781659728191244,-45.02686284001362,-133.47352940641977,-6.133576755953128
-0.96,1.45,-9.62,-0.1269909024207733,-0.0039363930980014,0.0315613653373088,-44.7912774389752,-133.73534909546763,-5.984399237389443
-0.96,1.45,-9.62,-0.1269909024207733,-0.0039363930980014,0.0315613653373088,-44.7912774389752,-133.73534909546763,-5.984399237389443
-0.91,1.37,-9.79,-0.2374213727917509,0.0022901513582853,-0.1177001473370236,-44.63020241766851,-133.91067619883825,-5.8581800447136345
-0.91,1.37,-9.79,-0.2374213727917509,0.0022901513582853,-0.1177001473370236,-44.63020241766851,-133.91067619883825,-5.8581800447136345
-1.0,1.44,-9.63,-0.0896736251760867,-0.014217424816963,0.018787286119128,-44.43208368482341,-134.14543141113884,-5.720494487173099
-1.0,1.44,-9.63,-0.0896736251760867,-0.014217424816963,0.018787286119128,-44.43208368482341,-134.14543141113884,-5.720494487173099
-1.11,1.37,-9.59,-0.0475625809980215,0.0848249658646191,0.0563862842815972,-44.295958202894106,-134.26323636741046,-5.571344453661866
-1.11,1.37,-9.59,-0.0475625809980215,0.0848249658646191,0.0563862842815972,-44.295958202894106,-134.26323636741046,-5.571344453661866
-1.13,1.33,-9.66,-0.064496014927336,0.098426233832594,-0.0090289138883346,-44.098074864095786,-134.49971207203987,-5.3992599817249625
-1.13,1.33,-9.66,-0.064496014927336,0.098426233832594,-0.0090289138883346,-44.098074864095786,-134.49971207203987,-5.3992599817249625
-1.16,1.13,-9.49,-0.1340683157358326,0.2349062950093215,0.1832698911567068,-43.96211035016289,-134.64810211296725,-5.250129975900072
-1.16,1.13,-9.49,-0.1340683157358326,0.2349062950093215,0.1832698911567068,-43.96211035016289,-134.64810211296725,-5.250129975900072
-1.06,1.23,-9.53,-0.1340176659253191,0.0845084361873851,0.1406116393564271,-43.85091508076586,-134.7671460925717,-5.181303758795194
-1.06,1.23,-9.53,-0.1340176659253191,0.0845084361873851,0.1406116393564271,-43.85091508076586,-134.7671460925717,-5.181303758795194
-0.93,1.29,-9.69,-0.2069578674761414,-0.042922034728725,-0.0107033164506447,-43.80150890567696,-134.8267795347168,-5.181303758795194
-0.93,1.29,-9.69,-0.2069578674761414,-0.042922034728725,-0.0107033164506447,-43.80150890567696,-134.8267795347168,-5.181303758795194
-1.07,1.17,-9.59,-0.1630205814408621,0.1222334464711625,0.0886057896359382,-43.764459893907535,-134.88648767208014,-5.078067932263361
-1.07,1.17,-9.59,-0.1630205814408621,0.1222334464711625,0.0886057896359382,-43.764459893907535,-134.88648767208014,-5.078067932263361
-1.05,1.36,-9.6,-0.0489427618519019,-0.0302375190635485,0.0542764274535105,-43.7274156925049,-134.91636984441135,-5.0665975409818325
-1.05,1.36,-9.6,-0.0489427618519019,-0.0302375190635485,0.0542764274535105,-43.7274156925049,-134.91636984441135,-5.0665975409818325
-1.03,1.2,-9.77,-0.1944896270948468,0.0652009525967158,-0.0883852511111857,-43.7274156925049,-134.91636984441135,-4.997776256010228
-1.03,1.2,-9.77,-0.1944896270948468,0.0652009525967158,-0.0883852511111857,-43.7274156925049,-134.91636984441135,-4.997776256010228
-1.07,1.27,-9.8,-0.1263111489759029,0.0337548461757836,-0.1321983288560169,-43.7274156925049,-134.91636984441135,-4.9518964029981625
-1.07,1.27,-9.8,-0.1263111489759029,0.0337548461757836,-0.1321983288560169,-43.7274156925049,-134.91636984441135,-4.9518964029981625
-1.2,1.25,-9.5,0.0097648864049,0.1228441555774162,0.1507029226577696,-43.70272222782621,-134.97619058332575,-4.89454770282183
-1.2,1.25,-9.5,0.0097648864049,0.1228441555774162,0.1507029226577696,-43.70272222782621,-134.97619058332575,-4.89454770282183
-1.08,1.08,-9.61,-0.1938673252369759,0.1583758016912808,0.0792540192842885,-43.71506869334832,-134.97619058332575,-4.825730880475589
-1.08,1.08,-9.61,-0.1938673252369759,0.1583758016912808,0.0792540192842885,-43.71506869334832,-134.97619058332575,-4.825730880475589
-1.04,1.21,-9.75,-0.1526072515167388,0.0463948693166181,-0.0717485819000867,-43.71506869334832,-134.97619058332575,-4.848669626539135
-1.04,1.21,-9.75,-0.1526072515167388,0.0463948693166181,-0.0717485819000867,-43.71506869334832,-134.97619058332575,-4.848669626539135
-1.04,1.2,-9.62,-0.1296121350693469,0.0496984131933685,0.0574587124024059,-43.7274156925049,-134.97619058332575,-4.825730880475589
-1.04,1.2,-9.62,-0.1296121350693469,0.0496984131933685,0.0574587124024059,-43.7274156925049,-134.97619058332575,-4.825730880475589
-1.01,1.38,-9.64,-0.0381844295837844,-0.0936559695526848,0.0166617207064767,-43.77680902972838,-134.91636984441135,-4.871608567013157
-1.01,1.38,-9.64,-0.0381844295837844,-0.0936559695526848,0.0166617207064767,-43.77680902972838,-134.91636984441135,-4.871608567013157
-0.99,1.26,-9.8,-0.1717918212056644,-0.0257886779677478,-0.1219713803455882,-43.81385964623059,-134.88648767208014,-4.848669626539135
-0.99,1.26,-9.8,-0.1717918212056644,-0.0257886779677478,-0.1219713803455882,-43.81385964623059,-134.88648767208014,-4.848669626539135
-1.13,1.33,-9.75,-0.0276757543299893,0.0183980913137011,-0.0982576503952472,-43.85091508076586,-134.8267795347168,-4.860139072417077
-1.13,1.33,-9.75,-0.0276757543299893,0.0183980913137011,-0.0982576503952472,-43.85091508076586,-134.8267795347168,-4.860139072417077
-1.3,1.34,-9.32,0.1608530365196907,0.1142625707765967,0.3035415419447105,-43.90032983148112,-134.73735728971755,-4.848669626539135
-1.3,1.34,-9.32,0.1608530365196907,0.1142625707765967,0.3035415419447105,-43.90032983148112,-134.73735728971755,-4.848669626539135
-1.24,1.28,-9.59,0.0227597698790399,0.1205408086774482,0.0532376788521631,-43.93739653048951,-134.7075870499225,-4.860139072417077
-1.24,1.28,-9.59,0.0227597698790399,0.1205408086774482,0.0532376788521631,-43.93739653048951,-134.7075870499225,-4.860139072417077
-1.07,1.25,-9.93,-0.1852493253198754,0.0340166380247219,-0.2569887830548669,-43.96211035016289,-134.6778353365212,-4.89454770282183
-1.07,1.25,-9.93,-0.1852493253198754,0.0340166380247219,-0.2569887830548669,-43.96211035016289,-134.6778353365212,-4.89454770282183
-1.21,1.47,-9.44,0.1254933810848247,-0.0289420128072757,0.1774229400954237,-43.97446806674141,-134.61838734283256,-4.986306217889054
-1.21,1.47,-9.44,0.1254933810848247,-0.0289420128072757,0.1774229400954237,-43.97446806674141,-134.61838734283256,-4.986306217889054
-1.09,1.37,-9.61,-0.066862431123355,-0.0387915500148383,0.0387881750686229,-43.98682632143316,-134.588690989807,-4.997776256010228
-1.09,1.37,-9.61,-0.066862431123355,-0.0387915500148383,0.0387881750686229,-43.98682632143316,-134.588690989807,-4.997776256010228
-1.03,1.42,-9.8,-0.1135881628114675,-0.1138790623449599,-0.1478178053840988,-44.0239043163285,-134.5590130176977,-4.997776256010228
-1.03,1.42,-9.8,-0.1135881628114675,-0.1138790623449599,-0.1478178053840988,-44.0239043163285,-134.5590130176977,-4.997776256010228
-1.21,1.09,-9.62,-0.1800210308851275,0.2259347193132397,0.0540531186023116,-44.060987161952966,-134.49971207203987,-4.89454770282183
-1.21,1.09,-9.62,-0.1800210308851275,0.2259347193132397,0.0540531186023116,-44.060987161952966,-134.49971207203987,-4.89454770282183
-1.25,1.36,-9.59,0.0206337872454928,0.0651135290361741,0.0406101436836063,-44.15989850900582,-134.4108976122917,-4.9518964029981625
-1.25,1.36,-9.59,0.0206337872454928,0.0651135290361741,0.0406101436836063,-44.15989850900582,-134.4108976122917,-4.9518964029981625
-1.12,1.52,-9.68,0.0015752650937033,-0.1320125033413802,-0.0548798112159794,-44.295958202894106,-134.2337582296838,-5.020716482682318
-1.12,1.52,-9.68,0.0015752650937033,-0.1320125033413802,-0.0548798112159794,-44.295958202894106,-134.2337582296838,-5.020716482682318
-1.39,1.32,-9.49,0.0745812377784611,0.1873059167660499,0.1270862633166203,-44.33307679780215,-134.1748557862076,-4.997776256010228
-1.39,1.32,-9.49,0.0745812377784611,0.1873059167660499,0.1270862633166203,-44.33307679780215,-134.1748557862076,-4.997776256010228
-1.32,1.48,-9.48,0.1249399652692875,0.0209217176952131,0.1222732886774178,-44.43208368482341,-134.05726525899885,-4.997776256010228
-1.32,1.48,-9.48,0.1249399652692875,0.0209217176952131,0.1222732886774178,-44.43208368482341,-134.05726525899885,-4.997776256010228
-1.14,1.38,-9.66,-0.0993884306747685,-0.0376007884331507,-0.0172142152951835,-44.49398072982355,-133.99857662596108,-4.9518964029981625
-1.14,1.38,-9.66,-0.0993884306747685,-0.0376007884331507,-0.0172142152951835,-44.49398072982355,-133.99857662596108,-4.9518964029981625
-1.12,1.79,-9.77,0.1268047229890293,-0.3187755819346619,-0.1830298092126004,-44.54350821350816,-133.91067619883825,-5.112479412053579
-1.12,1.79,-9.77,0.1268047229890293,-0.3187755819346619,-0.1830298092126004,-44.54350821350816,-133.91067619883825,-5.112479412053579
-1.34,1.35,-9.51,0.0308267366976326,0.1353970462141058,0.1092834836626366,-44.5682752426895,-133.91067619883825,-5.0551272004985615
-1.34,1.35,-9.51,0.0308267366976326,0.1353970462141058,0.1092834836626366,-44.5682752426895,-133.91067619883825,-5.0551272004985615
-1.24,1.62,-9.64,0.1092110460068956,-0.1089657899622309,-0.0456491937947145,-44.54350821350816,-133.91067619883825,-5.169832905126534
-1.24,1.62,-9.64,0.1092110460068956,-0.1089657899622309,-0.0456491937947145,-44.54350821350816,-133.91067619883825,-5.169832905126534
-1.23,1.36,-9.68,-0.0841016931308523,0.0670983096211386,-0.0449145824436687,-44.54350821350816,-133.91067619883825,-5.15836210329675
-1.23,1.36,-9.68,-0.0841016931308523,0.0670983096211386,-0.0449145824436687,-44.54350821350816,-133.91067619883825,-5.15836210329675
-1.21,1.48,-9.63,-0.0093976538354804,-0.024026633532422,-0.0112283046533807,-44.531125521078216,-133.91067619883825,-5.215716631990905
-1.21,1.48,-9.63,-0.0093976538354804,-0.024026633532422,-0.0112283046533807,-44.531125521078216,-133.91067619883825,-5.215716631990905
-1.21,1.44,-9.74,-0.0568774990266054,0.0026279087903153,-0.1131311490072644,-44.531125521078216,-133.91067619883825,-5.192774664418371
-1.21,1.44,-9.74,-0.0568774990266054,0.0026279087903153,-0.1131311490072644,-44.531125521078216,-133.91067619883825,-5.192774664418371
-1.29,1.65,-9.63,0.1475198397375838,-0.0906289425276598,-0.0469546344299853,-44.51874337646561,-133.91067619883825,-5.238658808769412
-1.29,1.65,-9.63,0.1475198397375838,-0.0906289425276598,-0.0469546344299853,-44.51874337646561,-133.91067619883825,-5.238658808769412
-1.19,1.55,-9.68,0.0056234383873299,-0.0955874905589003,-0.068157917554112,-44.49398072982355,-133.93995871664828,-5.192774664418371
-1.19,1.55,-9.68,0.0056234383873299,-0.0955874905589003,-0.068157917554112,-44.49398072982355,-133.93995871664828,-5.192774664418371
