acc_x,acc_y,acc_z,lin_x,lin_y,lin_z,eul_x,eul_y,eul_z
9.13,2.83,1.8,0.0205457393076612,0.0845249616146137,0.0804876836770631,-65.80348711235835,-38.75612925877516,-96.54176184653711
9.13,2.83,1.8,0.0205457393076612,0.0845249616146137,0.0804876836770631,-65.80348711235835,-38.75612925877516,-96.54176184653711
9.07,2.89,1.75,0.0409818521699333,0.1616329059260959,0.1292693992633182,-65.7761926206296,-38.79257320860052,-96.54176184653711
9.07,2.89,1.75,0.0409818521699333,0.1616329059260959,0.1292693992633182,-65.7761926206296,-38.79257320860052,-96.54176184653711
9.11,2.77,1.89,0.0392911925746984,-0.0278315179182953,0.099189899191117,-65.73525876311373,-38.82902123966127,-96.54176184653711
9.11,2.77,1.89,0.0392911925746984,-0.0278315179182953,0.099189899191117,-65.73525876311373,-38.82902123966127,-96.54176184653711
9.14,2.87,1.85,0.0672808415454907,0.06937325374553,0.0501311208082153,-65.74890233219018,-38.8168714421915,-96.55897932515958
9.14,2.87,1.85,0.0672808415454907,0.06937325374553,0.0501311208082153,-65.74890233219018,-38.8168714421915,-96.55897932515958
9.12,2.81,1.76,-0.027866020148861,0.0876359979501564,0.1030607971954822,-65.73525876311373,-38.85332219688672,-96.54176184653711
9.12,2.81,1.76,-0.027866020148861,0.0876359979501564,0.1030607971954822,-65.73525876311373,-38.85332219688672,-96.54176184653711
9.15,2.94,1.8,0.0733355873808938,0.1475465776327875,0.0302011611295007,-65.73525876311373,-38.85332219688672,-96.54176184653711
9.15,2.94,1.8,0.0733355873808938,0.1475465776327875,0.0302011611295007,-65.73525876311373,-38.85332219688672,-96.54176184653711
9.09,2.8,1.89,0.0646392738335382,-0.0214127153608139,0.1094564235110215,-65.73525876311373,-38.93838987087892,-96.4901268036236
9.09,2.8,1.89,0.0646392738335382,-0.0214127153608139,0.1094564235110215,-65.73525876311373,-38.93838987087892,-96.4901268036236
9.05,2.86,1.83,0.0817789318767849,0.061178466735279,0.1412183282375299,-65.7761926206296,-38.95054421712168,-96.45571791729996
9.05,2.86,1.83,0.0817789318767849,0.061178466735279,0.1412183282375299,-65.7761926206296,-38.95054421712168,-96.45571791729996
9.14,2.84,1.73,-0.0293655768609606,0.1083786090420564,0.0811427258266999,-65.7761926206296,-38.96269901927492,-96.43851781128038
9.14,2.84,1.73,-0.0293655768609606,0.1083786090420564,0.0811427258266999,-65.7761926206296,-38.96269901927492,-96.43851781128038
9.19,3.01,1.8,0.1113533803639025,0.1719596326915957,-0.0276893428031623,-65.7761926206296,-38.97485427752672,-96.43851781128038
9.19,3.01,1.8,0.1113533803639025,0.1719596326915957,-0.0276893428031623,-65.7761926206296,-38.97485427752672,-96.43851781128038
9.88,3.82,1.41,0.153817222748217,0.9666853886386716,-0.8346262214585227,-65.7761926206296,-39.02347987528319,-96.36974625847458
9.88,3.82,1.41,0.153817222748217,0.9666853886386716,-0.8346262214585227,-65.7761926206296,-39.02347987528319,-96.36974625847458
10.45,4.94,0.67,0.2591274788054375,2.2350720009842493,-1.550827981495022,-65.80348711235835,-39.24238573337944,-96.04370901836045
10.45,4.94,0.67,0.2591274788054375,2.2350720009842493,-1.550827981495022,-65.80348711235835,-39.24238573337944,-96.04370901836045
10.23,5.81,1.16,1.3675198880877877,2.2835565667574773,-1.711590263256502,-65.91270718206279,-40.59564411041757,-94.8682331378412
10.23,5.81,1.16,1.3675198880877877,2.2835565667574773,-1.711590263256502,-65.91270718206279,-40.59564411041757,-94.8682331378412
9.37,5.3,2.18,1.922494578958421,0.7284617280374692,-0.9828197786619786,-65.28560716576904,-43.75211129257185,-93.35443526255776
9.37,5.3,2.18,1.922494578958421,0.7284617280374692,-0.9828197786619786,-65.28560716576904,-43.75211129257185,-93.35443526255776
8.93,4.5,1.92,1.09421897987114,0.1191925652920917,-0.3160856952786641,-63.57899519003461,-46.494530291689,-93.0209156832062
8.93,4.5,1.92,1.09421897987114,0.1191925652920917,-0.3160856952786641,-63.57899519003461,-46.494530291689,-93.0209156832062
9.52,4.35,1.26,-0.197854143217149,0.1398630491817662,-0.7328847176943913,-59.85450246207203,-50.30132682508742,-93.45469190215636
9.52,4.35,1.26,-0.197854143217149,0.1398630491817662,-0.7328847176943913,-59.85450246207203,-50.30132682508742,-93.45469190215636
11.64,5.93,0.19,-1.0059775649642906,1.4598156495832928,-3.137365891832808,-56.70567847737765,-53.06431134668802,-93.72249978101487
11.64,5.93,0.19,-1.0059775649642906,1.4598156495832928,-3.137365891832808,-56.70567847737765,-53.06431134668802,-93.72249978101487
12.42,8.37,-0.51,0.0386653389137263,2.6849551443911834,-4.936583053308693,-53.88550274467078,-57.50146795059126,-91.5161040700392
12.42,8.37,-0.51,0.0386653389137263,2.6849551443911834,-4.936583053308693,-53.88550274467078,-57.50146795059126,-91.5161040700392
13.03,10.35,0.34,2.134784808274844,0.9502034071951088,-6.672391455961992,-54.735501492602346,-63.48464854041524,-85.48427958340939
13.03,10.35,0.34,2.134784808274844,0.9502034071951088,-6.672391455961992,-54.735501492602346,-63.48464854041524,-85.48427958340939
12.46,8.32,-0.2,1.11899334428235,-1.9839387261703,-5.003003643021285,-55.78316856909328,-73.99784443066719,-74.81791076036653
12.46,8.32,-0.2,1.11899334428235,-1.9839387261703,-5.003003643021285,-55.78316856909328,-73.99784443066719,-74.81791076036653
12.26,6.27,-1.25,-0.3325219529958538,-3.1260247493988955,-3.658133637954285,-56.58852015944324,-81.56660985214896,-66.07666398061995
12.26,6.27,-1.25,-0.3325219529958538,-3.1260247493988955,-3.658133637954285,-56.58852015944324,-81.56660985214896,-66.07666398061995
10.38,3.26,-5.21,-2.3750095760853576,-0.7016610010786555,-1.9994120595128264,-58.02494481779507,-89.61062519853644,-56.00369069764568
10.38,3.26,-5.21,-2.3750095760853576,-0.7016610010786555,-1.9994120595128264,-58.02494481779507,-89.61062519853644,-56.00369069764568
4.76,2.23,-3.48,-0.3776016804594617,-0.7895115615938162,3.563654848229988,-61.7677843434822,-96.7830712993422,-44.91524480207666
4.76,2.23,-3.48,-0.3776016804594617,-0.7895115615938162,3.563654848229988,-61.7677843434822,-96.7830712993422,-44.91524480207666
5.73,3.06,-5.05,-0.0973003318912219,-1.4130860953676838,1.7015454150799254,-63.64641513634406,-100.45667199365036,-38.51327351873995
5.73,3.06,-5.05,-0.0973003318912219,-1.4130860953676838,1.7015454150799254,-63.64641513634406,-100.45667199365036,-38.51327351873995
5.51,3.09,-6.96,-0.1994011594564248,-1.1922590546462863,0.4852468049750485,-64.97288126664843,-103.84922334055192,-32.53234621871178
5.51,3.09,-6.96,-0.1994011594564248,-1.1922590546462863,0.4852468049750485,-64.97288126664843,-103.84922334055192,-32.53234621871178
4.05,2.03,-7.07,-0.5373368781648876,-0.6987758379750281,1.4561241837638583,-66.56945369468808,-105.99323879892164,-26.85325924989716
4.05,2.03,-7.07,-0.5373368781648876,-0.6987758379750281,1.4561241837638583,-66.56945369468808,-105.99323879892164,-26.85325924989716
2.25,1.05,-6.92,-0.7458342241109612,-0.0126829197146129,2.492624401624484,-68.84625287494748,-107.104699496576,-20.459995384570263
2.25,1.05,-6.92,-0.7458342241109612,-0.0126829197146129,2.492624401624484,-68.84625287494748,-107.104699496576,-20.459995384570263
1.56,2.15,-7.27,0.3839228518747687,-0.0839195776441503,2.076542578476261,-70.10125098879591,-106.93127927577495,-17.914792407087575
1.56,2.15,-7.27,0.3839228518747687,-0.0839195776441503,2.076542578476261,-70.10125098879591,-106.93127927577495,-17.914792407087575
1.83,1.75,-7.89,-0.1822335886711767,-0.3664656343530836,1.5304193448044714,-70.9995839667978,-106.604670219113,-16.19985740781584
1.83,1.75,-7.89,-0.1822335886711767,-0.3664656343530836,1.5304193448044714,-70.9995839667978,-106.604670219113,-16.19985740781584
3.43,3.7,-7.72,0.9696781955057744,-2.5551879040001984,0.9984697695317468,-70.76047732673608,-106.81586235047912,-16.30403579859025
3.43,3.7,-7.72,0.9696781955057744,-2.5551879040001984,0.9984697695317468,-70.76047732673608,-106.81586235047912,-16.30403579859025
1.6,2.16,-6.76,0.2068481217948886,-0.7290497623823482,2.5713960100919646,-69.38891628677108,-108.2309531214748,-16.03782888845279
1.6,2.16,-6.76,0.2068481217948886,-0.7290497623823482,2.5713960100919646,-69.38891628677108,-108.2309531214748,-16.03782888845279
0.13,0.24,-6.14,-0.8706292525722615,1.2019370843425838,3.842469255769698,-68.70739234130575,-108.7801674720705,-16.50085429879803
0.13,0.24,-6.14,-0.8706292525722615,1.2019370843425838,3.842469255769698,-68.70739234130575,-108.7801674720705,-16.50085429879803
2.2,0.41,-7.99,-1.80956045020942,-0.0512891900937412,1.7090540360105972,-68.94352388945018,-107.95770664544784,-18.30932175034793
2.2,0.41,-7.99,-1.80956045020942,-0.0512891900937412,1.7090540360105972,-68.94352388945018,-107.95770664544784,-18.30932175034793
2.38,3.77,-6.49,1.3880935265475471,-1.4267244335346831,2.188575850169745,-71.71905293720884,-104.70808777910833,-19.889680039418103
2.38,3.77,-6.49,1.3880935265475471,-1.4267244335346831,2.188575850169745,-71.71905293720884,-104.70808777910833,-19.889680039418103
2.8,1.28,-8.96,-1.3608040125987428,-0.2645929826323562,0.4344462573983225,-72.91124580679356,-103.29349693464754,-20.54151049721856
2.8,1.28,-8.96,-1.3608040125987428,-0.2645929826323562,0.4344462573983225,-72.91124580679356,-103.29349693464754,-20.54151049721856
2.4,2.27,-9.19,-0.3187946588941197,0.2240163990653905,0.0487205772991803,-74.0983151328391,-101.66447905765742,-21.7305176882842
2.4,2.27,-9.19,-0.3187946588941197,0.2240163990653905,0.0487205772991803,-74.0983151328391,-101.66447905765742,-21.7305176882842
1.09,1.79,-7.83,-0.1888961245122306,0.987740272931984,1.7636538289594752,-75.20793134376436,-100.79761933768772,-21.20567161915569
1.09,1.79,-7.83,-0.1888961245122306,0.987740272931984,1.7636538289594752,-75.20793134376436,-100.79761933768772,-21.20567161915569
0.23,1.82,-7.09,0.1857500018199821,1.3493859148425975,2.610953050457983,-76.77839320064767,-99.77840482252957,-19.76171895398025
0.23,1.82,-7.09,0.1857500018199821,1.3493859148425975,2.610953050457983,-76.77839320064767,-99.77840482252957,-19.76171895398025
1.19,1.83,-8.57,-0.3084566977669996,0.7869157180169689,1.0034961266236788,-77.43779108064527,-99.24627980878144,-19.42448582735805
1.19,1.83,-8.57,-0.3084566977669996,0.7869157180169689,1.0034961266236788,-77.43779108064527,-99.24627980878144,-19.42448582735805
1.47,2.16,-9.16,-0.1494449770830378,0.5866595048754458,0.3005679035648985,-77.95276564974543,-98.80505247705544,-19.145524872704485
1.47,2.16,-9.16,-0.1494449770830378,0.5866595048754458,0.3005679035648985,-77.95276564974543,-98.80505247705544,-19.145524872704485
1.42,1.76,-8.99,-0.4195536853512366,0.5662409885184354,0.5634121556064091,-78.15927995925256,-98.84027760077332,-18.471838381894354
1.42,1.76,-8.99,-0.4195536853512366,0.5662409885184354,0.5634121556064091,-78.15927995925256,-98.84027760077332,-18.471838381894354
1.29,1.71,-8.86,-0.3836947713345538,0.5418276120861115,0.7156103916146339,-78.27742390598648,-98.94602892121196,-17.740803669389525
1.29,1.71,-8.86,-0.3836947713345538,0.5418276120861115,0.7156103916146339,-78.27742390598648,-98.94602892121196,-17.740803669389525
1.58,1.79,-9.23,-0.4137387268810283,0.2796944988433327,0.2859362004366659,-78.36609695169302,-98.98130473446211,-17.381357078894993
1.58,1.79,-9.23,-0.4137387268810283,0.2796944988433327,0.2859362004366659,-78.36609695169302,-98.98130473446211,-17.381357078894993
1.86,1.9,-9.47,-0.3944141883770049,0.0464704883736512,-0.0215124906040902,-78.33653305941664,-99.03424230026712,-17.31180678552449
1.86,1.9,-9.47,-0.3944141883770049,0.0464704883736512,-0.0215124906040902,-78.33653305941664,-99.03424230026712,-17.31180678552449
1.8,1.81,-9.44,-0.4337529956786067,0.0942652019599081,0.0376852436688945,-78.4400339000036,-98.98130473446211,-17.126370676427072
1.8,1.81,-9.44,-0.4337529956786067,0.0942652019599081,0.0376852436688945,-78.4400339000036,-98.98130473446211,-17.126370676427072
1.69,1.78,-9.16,-0.394347984699726,0.0895564139260985,0.3321278845744455,-78.7658205194529,-98.71704488690264,-16.917809025605248
1.69,1.78,-9.16,-0.394347984699726,0.0895564139260985,0.3321278845744455,-78.7658205194529,-98.71704488690264,-16.917809025605248
2.05,2.27,-9.73,-0.1334042121773574,-0.1831676596881053,-0.3902589887385819,-79.15182427198795,-98.26066774517868,-17.137959104392678
2.05,2.27,-9.73,-0.1334042121773574,-0.1831676596881053,-0.3902589887385819,-79.15182427198795,-98.26066774517868,-17.137959104392678
1.87,2.59,-9.38,0.2375144498786632,-0.154239830412759,-0.0983586805016507,-79.38989987649909,-98.01579456165284,-17.184314583414665
1.87,2.59,-9.38,0.2375144498786632,-0.154239830412759,-0.0983586805016507,-79.38989987649909,-98.01579456165284,-17.184314583414665
1.78,2.3,-9.44,-0.0388980274658679,-0.0256158986811105,-0.0710942146065942,-79.49418709635786,-97.91103310726488,-17.137959104392678
1.78,2.3,-9.44,-0.0388980274658679,-0.0256158986811105,-0.0710942146065942,-79.49418709635786,-97.91103310726488,-17.137959104392678
1.66,2.29,-9.27,0.0009802666694187,0.0625771675462301,0.1149688694025243,-79.61346922485379,-97.78895026657293,-17.195903895593172
1.66,2.29,-9.27,0.0009802666694187,0.0625771675462301,0.1149688694025243,-79.61346922485379,-97.78895026657293,-17.195903895593172
1.85,2.35,-9.46,-0.0339836722000422,-0.0628181738483291,-0.1146149892570758,-79.73285491812906,-97.597406347569,-17.381357078894993
1.85,2.35,-9.46,-0.0339836722000422,-0.0628181738483291,-0.1146149892570758,-79.73285491812906,-97.597406347569,-17.381357078894993
1.78,2.37,-9.24,0.0278157507179877,-0.0170970985241594,0.102947924336604,-79.80752374562414,-97.47570497846188,-17.566856150665245
1.78,2.37,-9.24,0.0278157507179877,-0.0170970985241594,0.102947924336604,-79.80752374562414,-97.47570497846188,-17.566856150665245
2.03,2.37,-9.59,-0.0822178413786521,-0.1416800136291875,-0.2769538696637159,-79.88223328250281,-97.37150665847632,-17.717608294742977
2.03,2.37,-9.59,-0.0822178413786521,-0.1416800136291875,-0.2769538696637159,-79.88223328250281,-97.37150665847632,-17.717608294742977
2.05,2.19,-9.77,-0.2953422484872647,-0.0752137521859619,-0.4089564845774376,-79.92707858608141,-97.28475700134165,-17.81039419409229
2.05,2.19,-9.77,-0.2953422484872647,-0.0752137521859619,-0.4089564845774376,-79.92707858608141,-97.28475700134165,-17.81039419409229
1.63,2.11,-9.06,-0.1630819533808247,0.1487199785053538,0.3650459707857418,-80.04673804640113,-97.1980818820334,-17.706010881893693
1.63,2.11,-9.06,-0.1630819533808247,0.1487199785053538,0.3650459707857418,-80.04673804640113,-97.1980818820334,-17.706010881893693
1.77,2.45,-9.33,0.0652151390349502,0.0024750226036809,-0.0004923391273283,-80.25639506580565,-97.00765780551971,-17.648026557290144
1.77,2.45,-9.33,0.0652151390349502,0.0024750226036809,-0.0004923391273283,-80.25639506580565,-97.00765780551971,-17.648026557290144
1.75,2.7,-9.31,0.2926709563823111,0.00422885107368,-0.0393098733749095,-80.34634707870403,-96.86939197442554,-17.798795314151782
1.75,2.7,-9.31,0.2926709563823111,0.00422885107368,-0.0393098733749095,-80.34634707870403,-96.86939197442554,-17.798795314151782
1.73,2.29,-9.22,-0.0698331024350031,0.0505551907406605,0.1506690808756499,-80.33135093865913,-96.90394078060578,-17.752401631441728
1.73,2.29,-9.22,-0.0698331024350031,0.0505551907406605,0.1506690808756499,-80.33135093865913,-96.90394078060578,-17.752401631441728
1.75,2.33,-9.28,-0.0541745183191554,0.0466610674927634,0.0801558800025308,-80.31635645484546,-96.90394078060578,-17.81039419409229
1.75,2.33,-9.28,-0.0541745183191554,0.0466610674927634,0.0801558800025308,-80.31635645484546,-96.90394078060578,-17.81039419409229
2.07,2.28,-9.68,-0.2396359498334492,-0.1568762115515927,-0.3473474623690276,-80.33135093865913,-96.86939197442554,-17.856791554733764
2.07,2.28,-9.68,-0.2396359498334492,-0.1568762115515927,-0.3473474623690276,-80.33135093865913,-96.86939197442554,-17.856791554733764
2.03,2.31,-9.49,-0.1724887949047281,-0.1422081918401108,-0.1666706328587377,-80.34634707870403,-96.817590777602,-17.984399539927896
2.03,2.31,-9.49,-0.1724887949047281,-0.1422081918401108,-0.1666706328587377,-80.34634707870403,-96.817590777602,-17.984399539927896
1.82,2.27,-9.24,-0.1354144072433586,0.0171334234707427,0.1203571392554359,-80.39134544428752,-96.73131402375058,-18.06561632088332
1.82,2.27,-9.24,-0.1354144072433586,0.0171334234707427,0.1203571392554359,-80.39134544428752,-96.73131402375058,-18.06561632088332
1.81,2.18,-9.45,-0.2890016440080712,0.1114900627695352,-0.0541333368178342,-80.48138700266415,-96.57619970569807,-18.27450160119409
1.81,2.18,-9.45,-0.2890016440080712,0.1114900627695352,-0.0541333368178342,-80.48138700266415,-96.57619970569807,-18.27450160119409
1.8,2.51,-9.17,0.0731749227630502,0.0491518239057162,0.1308435980051072,-80.55646739590921,-96.43851781128038,-18.471838381894354
1.8,2.51,-9.17,0.0731749227630502,0.0491518239057162,0.1308435980051072,-80.55646739590921,-96.43851781128038,-18.471838381894354
1.89,2.49,-9.22,0.0301534400799577,0.006063658347865,0.071165728424253,-80.55646739590921,-96.40412626430498,-18.599556301853195
1.89,2.49,-9.22,0.0301534400799577,0.006063658347865,0.071165728424253,-80.55646739590921,-96.40412626430498,-18.599556301853195
2.06,2.57,-9.42,0.0334705386594614,-0.0935082591507199,-0.1720791740237341,-80.54144798375755,-96.40412626430498,-18.72729753587516
2.06,2.57,-9.42,0.0334705386594614,-0.0935082591507199,-0.1720791740237341,-80.54144798375755,-96.40412626430498,-18.72729753587516
2.07,2.49,-9.34,-0.0271779481103322,-0.0887226222288803,-0.0782875139877017,-80.46637592020761,-96.43851781128038,-18.83183055191492
2.07,2.49,-9.34,-0.0271779481103322,-0.0887226222288803,-0.0782875139877017,-80.46637592020761,-96.43851781128038,-18.83183055191492
2.03,2.46,-9.26,-0.0271178068296663,-0.0538857101668401,0.0129550407523648,-80.37634433071155,-96.52454726797548,-18.86667840059343
2.03,2.46,-9.26,-0.0271178068296663,-0.0538857101668401,0.0129550407523648,-80.37634433071155,-96.52454726797548,-18.86667840059343
2.09,2.34,-9.42,-0.1745575203513376,-0.0482491378997762,-0.1204493594695481,-80.2414088510799,-96.645110284176,-18.86667840059343
2.09,2.34,-9.42,-0.1745575203513376,-0.0482491378997762,-0.1204493594695481,-80.2414088510799,-96.645110284176,-18.86667840059343
1.98,2.34,-9.39,-0.1543777859949252,0.0545751048110512,-0.069649360444993,-80.18148049823861,-96.67958303327644,-18.901528010085144
1.98,2.34,-9.39,-0.1543777859949252,0.0545751048110512,-0.069649360444993,-80.18148049823861,-96.67958303327644,-18.901528010085144
2.05,2.59,-9.22,0.1035068493030136,-0.0710600652479911,0.0136302002000281,-80.16650253253808,-96.67958303327644,-18.98285063278348
2.05,2.59,-9.22,0.1035068493030136,-0.0710600652479911,0.0136302002000281,-80.16650253253808,-96.67958303327644,-18.98285063278348
2.14,2.58,-9.49,0.0249117037891394,-0.0791563409333666,-0.2576042535800624,-80.13655154254863,-96.71406744218916,-19.017706136871343
2.14,2.58,-9.49,0.0249117037891394,-0.0791563409333666,-0.2576042535800624,-80.13655154254863,-96.71406744218916,-19.017706136871343
2.02,2.5,-9.41,-0.0069085187874229,0.0193347983481855,-0.1370956945529844,-80.01681335104666,-96.83485491073408,-18.959614614971
2.02,2.5,-9.41,-0.0069085187874229,0.0193347983481855,-0.1370956945529844,-80.01681335104666,-96.83485491073408,-18.959614614971
1.93,2.27,-9.2,-0.1665501525939531,0.0827802701076778,0.1379785052416924,-79.92707858608141,-96.92121959185582,-18.959614614971
1.93,2.27,-9.2,-0.1665501525939531,0.0827802701076778,0.1379785052416924,-79.92707858608141,-96.92121959185582,-18.959614614971
2.01,2.32,-9.32,-0.1619938895506186,0.0521956155093414,-0.004360834642366,-79.88223328250281,-96.92121959185582,-19.07580259196793
2.01,2.32,-9.32,-0.1619938895506186,0.0521956155093414,-0.004360834642366,-79.88223328250281,-96.92121959185582,-19.07580259196793
2.07,2.52,-9.34,0.0135851776093966,-0.0185148436210111,-0.0862955999472188,-79.85234457633116,-96.95578604014553,-19.110662839696182
2.07,2.52,-9.34,0.0135851776093966,-0.0185148436210111,-0.0862955999472188,-79.85234457633116,-96.95578604014553,-19.110662839696182
2.14,2.49,-9.32,-0.018430269636277,-0.0802822093553423,-0.0744083993832447,-79.79258672651936,-97.00765780551971,-19.12228331882828
2.14,2.49,-9.32,-0.018430269636277,-0.0802822093553423,-0.0744083993832447,-79.79258672651936,-97.00765780551971,-19.12228331882828
2.09,2.46,-9.31,-0.0345561151580247,-0.0297412320374934,-0.0469646329162944,-79.73285491812906,-97.07686147940808,-19.12228331882828
2.09,2.46,-9.31,-0.0345561151580247,-0.0297412320374934,-0.0469646329162944,-79.73285491812906,-97.07686147940808,-19.12228331882828
2.04,2.43,-9.21,-0.0334089986330675,-0.0157786065389045,0.0655394434779133,-79.61346922485379,-97.1980818820334,-19.06418290551579
2.04,2.43,-9.21,-0.0334089986330675,-0.0157786065389045,0.0655394434779133,-79.61346922485379,-97.1980818820334,-19.06418290551579
2.0,2.4,-9.35,-0.0888659144851002,0.0547934940552308,-0.0509156488938469,-79.52399794108469,-97.30210096200072,-19.05256341690962
2.0,2.4,-9.35,-0.0888659144851002,0.0547934940552308,-0.0509156488938469,-79.52399794108469,-97.30210096200072,-19.05256341690962
1.93,2.33,-9.14,-0.0949474659387804,0.0745373783613942,0.1796655729876235,-79.40479322488903,-97.42359233173356,-19.017706136871343
1.93,2.33,-9.14,-0.0949474659387804,0.0745373783613942,0.1796655729876235,-79.40479322488903,-97.42359233173356,-19.017706136871343
2.13,2.45,-9.47,-0.0871054750855475,-0.0439495011685469,-0.203883506140281,-79.34522946763786,-97.47570497846188,-19.05256341690962
2.13,2.45,-9.47,-0.0871054750855475,-0.0439495011685469,-0.203883506140281,-79.34522946763786,-97.47570497846188,-19.05256341690962
1.97,2.41,-9.25,-0.0502153483591333,0.0489262275224835,0.0472143276340215,-79.30057349706065,-97.5452305573509,-19.00608743835356
1.97,2.41,-9.25,-0.0502153483591333,0.0489262275224835,0.0472143276340215,-79.30057349706065,-97.5452305573509,-19.00608743835356
2.27,2.57,-9.69,-0.0426097982572101,-0.1375348019945801,-0.4711497929193396,-79.27081086102143,-97.5452305573509,-19.05256341690962
2.27,2.57,-9.69,-0.0426097982572101,-0.1375348019945801,-0.4711497929193396,-79.27081086102143,-97.5452305573509,-19.05256341690962
