TIME,ELAPSED_SECONDS,PSTATE,acc_x,acc_y,acc_z,mag_x,mag_y,mag_z,gyr_x,gyr_y,gyr_z,lin_x,lin_y,lin_z,eul_x,eul_y,eul_z,qua_w,qua_x,qua_y,qua_z
265627.0,217.73682,1.0,-3.2,-0.66,-9.31,12.75,20.75,42.25,-2.25,-2.94,3.88,-0.16747918946822926,0.024125778891388228,-0.05859549455754198,-151.64973665583724,19.90029138131016,18.24922835578424,0.07045787380573768,-0.9695517303723703,0.17279120930109407,0.1585822440848358
265662.0,217.754237,1.0,-3.28,-0.98,-9.06,13.5,19.69,41.0,0.94,-1.37,4.38,0.13653754263547047,0.011503369293996535,0.12245539373841652,-151.37191594458605,19.992041527994076,18.391743153574513,0.07386939088896088,-0.9689551678825133,0.1735797815914824,0.15981005958986913
265697.0,217.790591,1.0,-3.13,-0.78,-9.27,13.5,19.69,41.0,-7.25,-1.37,8.06,-0.040399162798792077,0.11913035888336543,-0.007746357659369707,-151.4629867073605,20.250873568528306,18.20318163828278,0.06939770113440366,-0.9691513511638533,0.17580378453146667,0.15818548276928313
265730.0,217.815855,1.0,-3.24,-0.55,-9.36,13.5,20.75,42.25,-1.37,-2.44,7.69,-0.15307555188854338,0.0010482787995427234,-0.11233516868160365,-151.2861045358368,20.569707043601408,18.31940788740031,0.06532541017694041,-0.9687697542089101,0.17854211304254516,0.1591868964001932
265766.0,217.865374,1.0,-3.55,-0.21,-9.1,14.25,20.06,42.69,-9.19,-4.19,3.94,-0.23736269386729641,-0.3707262611025679,0.046382534869296776,-151.01302975968096,20.699456320962778,18.816267314926407,0.06031241009519276,-0.9681761038540957,0.17965608129596633,0.16346601349451717
265801.0,217.883915,1.0,-3.62,-0.13,-8.97,14.25,20.06,42.69,-0.31,-1.0,3.63,-0.22922169093744205,-0.4321900069148381,0.14523865308350636,-150.71500660364305,20.87093483920173,19.169502942525067,0.058048194779806446,-0.9675219426321009,0.18112796423283506,0.16650633075375915
265834.0,217.932383,1.0,-3.89,0.35,-9.28,14.69,20.06,42.25,-2.25,3.44,-4.25,-0.5855781829118263,-0.7179579300106604,-0.21904870893956563,-150.77235828324248,20.776848380665356,19.311606288416815,0.054847316549942716,-0.9676483382880237,0.18032042472956464,0.16772897692720326
265869.0,217.966862,1.0,-3.6,1.16,-9.63,14.25,19.25,42.25,-0.69,2.69,-15.31,-1.4533059180380354,-0.6400709780909337,-0.41688711058953665,-151.1849528838271,20.31881700336912,19.298618097682635,0.051979495692461596,-0.9685504970953318,0.17638743734898718,0.1676172382226847
265906.0,217.991796,1.0,-2.73,1.79,-10.02,13.88,19.25,42.25,17.44,1.37,-36.88,-2.4775391468179735,-0.015050409200150217,-0.4363463028972827,-152.07025342529295,19.21957453788054,19.015814438792074,0.05554307368841209,-0.9704438606169531,0.16693717219205823,0.1651837186184721
265940.0,218.030458,1.0,-2.72,2.05,-9.74,13.88,19.25,42.25,7.69,-19.94,-56.88,-2.8011792672662645,-0.042100143057642425,-0.12411645030947227,-152.91736269397234,17.329421094367056,19.518104627615926,0.05828005132843687,-0.9722013192547996,0.15065196126450853,0.16950521237867305
265977.0,218.06653,1.0,-2.68,2.23,-8.42,13.88,19.69,41.88,6.88,-11.25,-104.19,-2.9543384613076187,-0.33884691999778416,1.1921989425705988,-154.7978965362751,13.826554889674705,19.663890296938995,0.06282916683313063,-0.975912757496886,0.12036689235720753,0.170758884905434
266012.0,218.114375,1.0,-2.56,0.05,-7.63,13.19,20.75,41.75,15.19,0.5,-139.31,-0.9757250668429052,0.010111371344734943,1.8178541987478525,-157.15143202138734,9.195073635590749,19.1753086789749,0.07118173744984807,-0.9801873123666363,0.08015607209328847,0.16655628788991056
266047.0,218.130393,1.0,-2.56,-2.46,-8.0,13.19,20.75,41.75,6.81,7.88,-137.19,1.1386441198233315,0.2961916833697238,1.1336482096684435,-158.74157599070767,4.462489473162986,18.409602538039067,0.08317755571672776,-0.9828414346020727,0.03893272493091454,0.1599639071284018
266080.0,218.181927,1.0,-2.34,-5.1,-8.3,10.5,23.75,41.75,38.75,18.0,-98.5,3.2706731647588883,0.4824847655960902,0.34908659813513054,-158.93209688104957,1.2794490210765184,17.370192619718935,0.10244851562869228,-0.9831467482753062,0.011165067031090603,0.1510036896216797
266117.0,218.219036,1.0,-2.35,-5.74,-8.24,6.38,23.75,40.56,2.38,12.31,-67.69,3.736882418129686,0.1925982398450823,0.1959103972908629,-159.06153517770713,-1.0466565480946093,16.66464589225425,0.10924286451768699,-0.983352625490144,-0.009133674451513685,0.14491441089354964
266153.0,218.243967,1.0,-2.28,-5.55,-8.73,6.38,23.75,40.56,-7.81,14.75,-44.19,3.364576317143193,0.16145010910821855,-0.2366243698650461,-159.29580198034637,-2.6021186022844294,15.946906778383324,0.11195415407991323,-0.9837220464839069,-0.02270581710289045,0.1387142693289166
266186.0,218.281349,1.0,-1.93,-6.14,-9.55,4.88,26.56,39.75,4.63,14.63,-6.31,3.680466589659761,0.6041652250049989,-1.0890441065401095,-159.36291877821634,-2.788288232276025,15.35855578867726,0.11677266180638243,-0.9838271269713882,-0.024330004080292664,0.13362776878826182
266223.0,218.318571,1.0,-2.41,-4.71,-8.36,4.5,26.56,40.19,-12.31,10.88,18.94,2.5587404257810915,-0.16394284806194848,0.2511400619567681,-159.7511690851883,-2.1881823463092163,15.073748057983735,0.11546493645243149,-0.9844283615462163,-0.01909433281973247,0.1311642325012326
266258.0,218.37416,1.0,-2.34,-2.44,-7.7,3.0,25.69,41.5,-15.56,33.75,24.62,0.5680391932784692,-0.3641066845500528,1.424290081864445,-160.7165329520514,-1.295879926408915,14.158320817834744,0.11285276691153352,-0.9858743032679189,-0.011308444676910912,0.12324053811711357
266293.0,218.415477,1.0,-2.5,-2.27,-6.4,3.0,25.69,41.5,-2.63,74.31,26.31,0.7171558492931494,-1.0777444127731346,2.687165856569318,-162.29814088729736,-0.09886486951489197,11.955049258338539,0.11326365282772417,-0.988092003711556,-0.000862758636761928,0.10413833490572928
266328.0,218.446408,1.0,-0.31,-2.31,-6.65,3.0,25.25,42.25,-32.25,257.94,25.37,0.8811761894124078,0.06775686504586786,2.815681717247476,-167.59021733385612,1.6193306628983224,2.7762299267276496,0.10438236224154161,-0.9941417404590097,0.014130855553363318,0.024224806528355906
266364.0,218.451379,1.0,1.5,-1.47,-8.2,-2.19,25.0,41.75,-94.87,267.94,34.75,0.1766743670837992,0.5691874156604969,1.3629711895602465,-168.5992503399587,3.6737497579584892,-6.744244037265185,0.07333740739144044,-0.995054920188343,0.03205402300607553,-0.05882066044510517
266399.0,218.502243,1.0,2.87,1.02,-9.16,-2.19,25.0,41.75,-117.12,220.75,30.87,-1.8016029526860744,0.3696793127996041,0.33033932513497355,-164.07779888340676,5.503845337633973,-14.431017152897144,0.0331893899025909,-0.9903623283746098,0.04801164675102519,-0.12560177033214906
266434.0,218.558375,1.0,3.21,2.05,-9.43,-10.5,22.06,42.25,-34.88,185.25,4.88,-2.5181900731765055,-0.5930300853936639,-0.028924923367380728,-158.1475319674061,5.977534009427229,-20.90945164228361,0.01677881293108349,-0.981872028645158,0.052140171169263096,-0.18145851688831166
266469.0,218.569346,1.0,5.31,0.55,-10.67,-17.87,19.37,41.5,27.31,152.69,-20.87,-1.22659423210187,-0.09625384324458919,-2.0606876031625188,-152.85108998362156,5.107166578051526,-26.554922431584565,0.01887545406146569,-0.9720657407240083,0.04455368286399594,-0.22966689419224795
266506.0,218.603819,1.0,6.2,-1.17,-11.1,-23.5,18.25,38.5,37.69,92.44,-22.87,0.2267889240481354,-0.18534331608538723,-2.957875633140919,-149.35630372527748,4.124459623274268,-30.159389282667856,0.02904936316533382,-0.9644567277525025,0.035984929378555436,-0.26016233326568317
266541.0,218.622794,1.0,6.61,-1.81,-11.49,-23.5,18.25,38.5,6.31,30.69,-8.19,0.7239889886985005,-0.24777741969510636,-3.550099091546663,-148.28984501459095,3.927711599394828,-31.20925542597904,0.03327064426502588,-0.9619558104593425,0.034269038787173585,-0.2689976132501975
266577.0,218.67582,1.0,5.8,-1.15,-10.4,-27.19,19.06,36.0,-9.38,-23.69,6.31,0.18172826585691726,-0.1523966829548109,-2.1543804776976927,-149.42906221869208,4.251178084942377,-30.019947719655864,0.03240229668842232,-0.964624309785289,0.03709001813263959,-0.25898718635386336
266614.0,218.697507,1.0,5.27,-1.55,-9.55,-26.87,19.06,35.19,5.94,-37.5,6.69,0.5188123108201608,0.10957598384836009,-1.1977457984936724,-150.7085624023104,4.4847233154670105,-28.58147608810514,0.038298256207303934,-0.9675077253027937,0.03912660396907623,-0.2468423665271842
266647.0,218.742924,1.0,5.0,-4.14,-9.46,-26.87,19.06,35.19,26.19,-34.25,13.81,2.8362078237578294,0.27877183524797067,-1.3068288182786105,-151.57185475927324,4.781097055225171,-27.37183467998968,0.05073010156898203,-0.9693850698340823,0.041710838545217836,-0.23659934303676064
266682.0,218.782309,1.0,4.81,-4.82,-9.6,-26.87,19.06,36.06,-16.37,-42.19,48.69,3.3644009701832447,0.5086007693646204,-1.4605870778834582,-152.6748765028558,6.592964736995524,-25.75323022903408,0.05312523283129357,-0.9717036675408606,0.05750273440246111,-0.22285225522866406
266719.0,218.815312,1.0,4.46,-4.13,-9.18,-25.37,19.75,36.75,-61.63,-55.75,98.62,2.6952141394860125,0.956560754451258,-0.825457611633654,-153.7057294506862,10.41857263006819,-23.48066651154113,0.04569871148591393,-0.9737891794521205,0.09079398873599755,-0.20347656710270207
266756.0,218.846872,1.0,3.68,-2.69,-8.33,-22.69,20.56,40.19,-88.62,-59.06,147.31,1.415903151344172,0.9736720390051525,0.46777528050230366,-153.23007354462598,16.07030549397959,-20.91323068876634,0.0333351673710252,-0.9728366649031308,0.13978063506100727,-0.18149094770384794
266788.0,218.876867,1.0,3.38,1.59,-6.96,-22.69,20.56,40.19,-81.75,-34.69,143.94,-2.487608743705806,0.11134235953892802,2.3104172383249217,-151.04318628459777,21.426342216752065,-19.16789726147905,0.015224442927242662,-0.968241932691779,0.1858924927286138,-0.16649251413197552
266827.0,218.923685,1.0,4.59,4.35,-10.11,-17.5,19.37,41.5,-82.87,7.06,82.87,-4.954403173665049,-1.0228687821397067,-0.9919762388926898,-148.75503913127574,24.7068780924944,-18.79995734566027,-0.008660682021856294,-0.9630569799290094,0.21394157148949336,-0.16332559501051203
266862.0,218.946312,1.0,4.2,3.57,-9.08,-16.0,18.69,41.75,-22.06,-17.12,45.63,-4.106961966739613,-0.7006454093957615,0.03560812034115912,-147.82051212528572,26.34907627879638,-18.061604722832246,-0.014940186080115481,-0.9608287786594121,0.22791819563430207,-0.15696542625227458
266897.0,218.992483,1.0,3.37,3.51,-8.0,-16.0,18.69,41.75,-20.56,-6.88,21.62,-3.69096030266924,-1.0355576700913296,1.263732912960302,-147.32276826015624,27.151955109947284,-17.645540746747642,-0.022627324216923598,-0.9596159119128815,0.2347345776194626,-0.1533785639266567
266930.0,219.013789,1.0,2.83,4.5,-8.62,-14.38,16.25,43.5,-12.38,7.19,-10.0,-4.12546596500636,-2.0760595223424305,0.7936700582013163,-147.50447423901926,26.806361617854034,-17.686281630151555,-0.030303458641001913,-0.9600607796062909,0.2318019073625148,-0.1537298786809316
266967.0,219.05485,1.0,3.33,2.02,-8.84,-13.56,17.06,43.06,40.56,19.31,-50.25,-2.133423703397466,-0.654126919760152,0.40795215005148044,-148.71619245129986,24.757282577996516,-18.59210227177127,-0.025462731777967585,-0.9629656323384904,0.2143712285283467,-0.1615358059520616
267003.0,219.094879,1.0,3.35,1.08,-8.97,-13.56,17.06,43.06,38.63,15.13,-52.25,-1.2860354038614479,-0.35063845467158017,0.2634343148066467,-149.9491120438002,22.647459106065984,-19.33884021144126,-0.021062801864292248,-0.9658107943784171,0.19635225764593583,-0.1679632660944063
267036.0,219.123911,1.0,3.32,1.29,-8.55,-14.0,17.5,42.69,25.25,18.19,-73.81,-1.4206549019702954,-0.34232153345147553,0.660418228541154,-151.50547167414007,19.866475616546563,-20.060301820862655,-0.021869901469680098,-0.9692426622651794,0.17250054229175857,-0.17416639160257963
267071.0,219.168673,1.0,4.36,0.18,-9.76,-16.56,18.56,43.5,45.0,29.69,-82.5,-0.5305696442261486,0.315840420185701,-0.8666035190354524,-152.53669878875624,16.673460107240725,-21.58135520480741,-0.016512436844835568,-0.9714181406526723,0.14499051706390273,-0.18722148755389303
267108.0,219.195937,1.0,3.67,-0.07,-8.86,-17.75,17.5,41.0,47.31,1.5,-79.69,-0.19311608325728996,0.034834141846033395,0.2183815035013108,-154.00442140702322,13.55562137563413,-22.046844268321834,-0.009804042613161423,-0.9743787435838137,0.11801940717426586,-0.1912102620956911
267143.0,219.239478,1.0,4.05,-2.22,-9.31,-17.75,17.5,41.0,67.06,19.0,-92.81,1.6767501050779046,0.3980473891078957,-0.44210930838195317,-154.83712447751327,9.98168945929089,-23.023163090695235,0.007323584239056765,-0.975987383064476,0.0869965600717907,-0.1995660084997559
267180.0,219.272559,1.0,4.21,-2.87,-9.78,-19.56,18.19,40.19,42.25,10.94,-55.5,2.1436095974698897,0.25395558959759423,-1.0076851368517836,-155.01289457213636,7.863898605461042,-23.56986091460807,0.019572815300433664,-0.9763203561028796,0.06857160929476755,-0.20423858978921483
267214.0,219.306494,1.0,4.75,-2.92,-10.52,-21.06,19.0,38.5,35.06,3.88,-37.69,1.925204875163934,0.31550818489816734,-1.9387040080283384,-155.02241980166573,6.404597903211607,-23.84742271539107,0.03091302263774964,-0.9763383347747955,0.05586156665987666,-0.20660911512051347
267249.0,219.332673,1.0,4.49,-2.35,-10.43,-21.06,19.0,38.5,18.44,-24.44,-13.69,1.2214289393703763,0.195777990825035,-1.72319311794298,-155.79236393555558,5.860294995194765,-23.01723021268817,0.03934237909342688,-0.9777692661866186,0.05111843230345039,-0.19951527557304466
267284.0,219.375671,1.0,4.88,-2.32,-11.07,-22.25,19.69,39.0,36.06,-54.13,9.25,0.72210454075033,0.650257483294181,-2.473310514498717,-157.03578901413695,5.924695509818857,-21.235203034949354,0.054822990452707755,-0.979986923035401,0.051679689950821985,-0.18425330402469317
267319.0,219.42963,1.0,3.63,-0.94,-9.48,-21.5,20.5,39.0,10.44,-87.12,13.56,-0.4144016988417154,0.5089669995269033,-0.3668510603719728,-159.74778279698594,6.083195243404613,-18.152444581275738,0.05666607854514635,-0.9844231664679832,0.05306096286690005,-0.15774827759155416
267356.0,219.448581,1.0,2.82,0.03,-8.93,-18.5,22.25,39.38,40.5,-90.19,2.81,-1.422187997440734,0.33993087195329585,0.556783606249839,-162.14714820682892,5.714305895347925,-15.02986184294939,0.06698708591096582,-0.9878884053364043,0.04984606155476513,-0.130784552109688
267390.0,219.498374,1.0,2.19,0.68,-8.8,-18.5,22.25,39.38,55.44,-93.06,-26.25,-2.2053306621876856,0.23872087037966983,0.9874647192351151,-164.31214926995565,4.28099600713418,-11.8924180501155,0.08061360656486503,-0.9906435040393154,0.0373500482898211,-0.10359473072535959
267427.0,219.552868,1.0,0.48,-2.35,-7.86,-14.75,22.25,39.25,102.44,-100.69,-53.31,0.5198021978689226,-0.6546227703166199,1.6314573598432176,-164.40665121735108,1.826029237974457,-8.367569852972172,0.11325473228441385,-0.9907557161172204,0.015934436834189256,-0.0729559477973985
267464.0,219.562854,1.0,1.16,-4.27,-8.69,-12.88,24.56,38.06,71.94,-33.5,-52.19,1.7350244889036037,-0.050192600368092255,0.21072530637234443,-162.55412988007055,-0.2696523099724442,-7.412753668904748,0.1371691998328471,-0.9884332590719406,-0.002353158150597,-0.06464337262517064
267497.0,219.599424,1.0,0.54,-5.35,-7.99,-12.88,24.56,38.06,38.0,-16.31,-11.38,2.708698291748559,-0.5536572322743106,0.581108431429147,-161.2638859794502,-0.7905079530410861,-6.816586790051288,0.15137372316182743,-0.9866630641935039,-0.006898428556611807,-0.059450865223823736
267532.0,219.629344,1.0,1.2,-5.41,-9.3,-12.06,26.75,38.06,9.63,4.0,1.19,2.2408663493624856,-0.06753217466458217,-0.7844810731989327,-160.57503724287676,-0.7193474257790329,-6.925037935354768,0.1573977184866864,-0.9856667417805891,-0.006277449293482511,-0.060395579252053425
267569.0,219.664301,1.0,1.06,-6.75,-8.8,-13.56,28.25,37.38,4.81,0.69,19.31,3.564230597808753,-0.1096702325485912,-0.7484593166170779,-160.11342823736769,-0.026916542607708597,-6.810656310820189,0.16213494996093147,-0.9849791558465434,-0.0002348911437189529,-0.05939920348916863
267603.0,219.691359,1.0,1.2,-9.53,-8.27,-13.56,28.25,37.38,10.31,18.0,48.81,6.190795215378113,0.22324785364340827,-1.251289003136847,-159.1937913937403,1.7710943617734953,-7.140899256807137,0.16878765297474813,-0.9835616887863925,0.015455098654415722,-0.062275777638806123
267638.0,219.745479,1.0,2.21,-5.96,-9.01,-13.25,28.0,38.56,-99.75,21.87,145.75,2.8670132906404144,1.542433799913351,-0.7283835910321663,-160.58181760482486,7.142163826982253,-7.085849384868028,0.14402420574855168,-0.985676722246549,0.06228679167156087,-0.06179630217951582
267673.0,219.763557,1.0,1.64,0.79,-7.91,-11.0,29.06,38.5,-142.75,-15.38,187.38,-2.6460137259655747,0.48529854242013526,2.1486543949655674,-161.13861023482707,13.797508230373056,-5.34859841486646,0.10121072000640682,-0.9864845219471565,0.12011525150424457,-0.04665838049639914
267710.0,219.803448,1.0,3.17,4.46,-10.65,-7.56,26.75,40.56,-97.31,9.63,126.37,-6.526954894797662,0.4936460941872174,-0.21922519047442357,-159.3400456401498,18.350348029559196,-4.884596256593075,0.07009480019064812,-0.9837913538674913,0.15945345130901567,-0.04261323629396112
267743.0,219.835615,1.0,1.84,3.14,-10.04,-7.56,26.75,40.56,-48.56,3.63,46.13,-4.465228643740967,-0.3194816839131136,0.11095690395167424,-158.55414790363884,20.0189603480229,-4.645742588166144,0.05258518495429754,-0.9825384261676648,0.17381112182637026,-0.040530647129661306
267780.0,219.87433,1.0,1.04,1.21,-9.82,-4.56,23.06,42.25,6.44,-3.0,14.56,-2.3472640763600845,-0.39087327195825394,0.14664640574093468,-158.16590182784066,20.49717987823204,-4.5429200302865995,0.05139578807679487,-0.9819024014761882,0.17791932797658214,-0.03963407215541859
267816.0,219.918566,1.0,0.91,0.15,-9.87,-3.88,22.69,42.75,12.13,-1.56,-6.69,-1.3184720856378573,-0.15488295134495822,-0.017053101721693054,-158.40403480434406,20.22868021362947,-4.5871967076201265,0.05154817618179264,-0.9822938478740036,0.17561312409950147,-0.040020152488811876
267849.0,219.936756,1.0,0.68,-0.43,-9.9,-3.88,22.69,42.75,-5.31,-8.25,-8.19,-0.616023157041411,-0.09873243017377609,-0.10637513752591587,-158.91054254378156,19.923936829666047,-4.2426993886209505,0.04682789269468163,-0.9831123433261819,0.1729944473341276,-0.037016078358445254
267884.0,219.974528,1.0,0.14,-0.7,-9.14,-3.88,22.0,43.19,3.38,-11.13,-9.94,-0.13821964252939925,-0.3361590413700397,0.6460227054680239,-159.38205604666643,19.567969265322425,-3.5317242846538996,0.046884862043539366,-0.9838570271367219,0.16993405042646015,-0.030815229522219763
267919.0,220.002719,1.0,0.65,-1.73,-9.69,-3.06,23.5,42.0,11.38,1.75,-5.44,0.49764736725181546,0.3672360851703087,-0.03860188888614147,-159.30743973265837,19.368462686847504,-3.830531765774072,0.053298387420949354,-0.9837402911554657,0.16821809283099584,-0.03342147064371106
267956.0,220.059982,1.0,0.6,-1.32,-9.68,-4.56,23.06,42.75,-5.25,-0.5,-6.69,0.12323643053136887,0.14120236083648968,0.020451827293495484,-159.45271455026676,19.130799213432287,-4.070145998517452,0.054166100844699264,-0.9839671866414441,0.16617328242222296,-0.0355112565425031
267988.0,220.080623,1.0,0.51,-1.46,-9.65,-4.56,23.06,42.75,-3.13,-4.06,-7.75,0.23722949105916574,0.10681305826513235,0.03697686630940211,-159.62444454614115,18.863447075001442,-3.983597169725716,0.05676784661335991,-0.9842333610993461,0.16387218263075967,-0.034756441846040584
268025.0,220.122677,1.0,0.55,-1.69,-9.51,-4.25,23.75,42.38,-1.63,-1.25,-7.06,0.4052444662400151,0.20604467762723236,0.14269519291385713,-159.72830906265932,18.619947442261108,-4.050145428878158,0.0595805681620082,-0.9843932741277475,0.16177560484484713,-0.03533682819141668
268060.0,220.157881,1.0,0.77,-1.49,-9.81,-4.56,22.69,42.38,-5.69,-3.25,-1.0,0.11780848266384483,0.28888412162851146,-0.14080028264446476,-159.72842536580092,18.567882927473505,-4.252259999915535,0.05972175014230856,-0.9843934527384011,0.16132722443413722,-0.037099453123821284
268093.0,220.188133,1.0,0.55,-1.23,-9.46,-4.56,22.69,42.38,-6.63,-4.56,-3.5,0.0465957300851668,0.010411903808306366,0.25129964377564384,-159.9501242627955,18.41603566365751,-4.434206716704785,0.0565679513630077,-0.9847320797258705,0.16001932357049528,-0.038686097262393304
268130.0,220.233497,1.0,0.75,-1.36,-9.95,-5.0,23.5,43.56,-2.44,2.38,-1.94,0.056319292703980076,0.11672129296008449,-0.2629976739277744,-159.8948383349284,18.339108502312964,-4.862564757460857,0.05722122666641171,-0.984647979902486,0.159356622096635,-0.04242114904967715
268167.0,220.250452,1.0,0.72,-1.18,-9.75,-4.56,22.69,43.56,-3.0,-2.31,-1.75,-0.01065132852189063,0.036070692532752524,-0.040780398552756836,-160.06485379616333,18.25096307850063,-5.024778124836919,0.053719736532001856,-0.9849058725388343,0.15859719081451146,-0.04383541047138811
268199.0,220.300453,1.0,0.55,-1.02,-9.61,-4.56,22.69,43.56,-2.44,-2.63,-3.94,-0.05061081001829292,-0.08377465866827549,0.12752708764506338,-160.38525341583562,18.12197161983896,-4.618255785341341,0.05088572876012165,-0.9853859863659703,0.15748567483585807,-0.0402909754611319
268234.0,220.325708,1.0,0.46,-1.41,-9.58,-4.56,22.69,44.06,3.06,-0.12,-3.94,0.26717255089717135,-0.04319618743509046,0.11630155851255175,-160.37325742654042,17.999596283558738,-4.5097891245354385,0.05505373920384124,-0.9853681493519245,0.15643098532377894,-0.03934517598220324
268269.0,220.368488,1.0,0.78,-1.43,-10.0,-5.0,22.25,43.56,-2.25,1.44,-2.06,0.12372766197143091,0.1629410240921899,-0.3230805832055985,-160.30196522383773,17.924255887522285,-4.840232712614163,0.0566389872469239,-0.9852619211406918,0.15578157674727872,-0.04222643982065895
268306.0,220.399478,1.0,0.42,-1.3,-9.54,-5.0,22.69,43.56,-5.0,-0.19,-2.88,0.14285118168094624,-0.11226291261135057,0.1710394548220595,-160.43656882597108,17.85953993051459,-4.47403700880111,0.05697645408059527,-0.9854621661072572,0.1552236934448882,-0.03903341959041814
268339.0,220.43861,1.0,0.77,-1.33,-10.08,-5.0,22.69,43.56,0.19,1.81,-1.37,0.008136893348005964,0.0950377802212185,-0.38938362152642725,-160.36014312279517,17.792774448645606,-4.9297712017671484,0.05764044347401756,-0.9853486371440778,0.15464809034987445,-0.04300710064121996
268376.0,220.499302,1.0,0.67,-1.48,-9.86,-4.56,22.69,42.69,-2.19,-2.38,-1.19,0.1456369434095178,0.06540643819507141,-0.18501712208513155,-160.28508465634502,17.76007469992452,-4.8884517953690105,0.0605058304436715,-0.9852367125846514,0.1543661578964997,-0.042646851630380636
268410.0,220.505629,1.0,0.56,-1.33,-9.56,-4.25,23.06,42.25,-7.75,-1.69,-1.06,0.05818424277230174,0.012441337396146224,0.13852919981257195,-160.37793170168115,17.760060534093196,-4.4937178814397445,0.060580547222067696,-0.9853751008849047,0.15436603575804725,-0.039205036139302527
268445.0,220.539326,1.0,0.68,-1.08,-9.86,-4.25,23.06,42.25,-0.75,-1.44,0.31,-0.1765470870920118,0.029014653056179895,-0.1339933029229723,-160.5229400602436,17.751222255020725,-4.52101594263063,0.05702069379398026,-0.9855899413510718,0.15428983124755166,-0.03944307240119609
268480.0,220.571572,1.0,0.45,-1.36,-9.65,-3.88,22.69,42.75,0.37,-5.75,-1.25,0.10806187892203128,-0.023308312384106133,0.051529326584541124,-160.5200103165873,17.720303619257322,-4.090835035846936,0.06019914990059822,-0.9855856163422497,0.1540232405136855,-0.035691687998417224
268517.0,220.620127,1.0,0.55,-1.36,-9.5,-4.25,22.25,44.06,-5.5,2.06,2.81,0.07571159845581797,0.04206028880433138,0.19443908440076996,-160.3207315511134,17.824987090372524,-4.33532365111194,0.061409483300951175,-0.9852899206949288,0.15492581072508074,-0.03782381140059167
268550.0,220.641872,1.0,0.76,-0.98,-9.88,-4.25,22.25,44.06,-2.44,3.13,-0.25,-0.3016044977046256,0.06466312584767481,-0.14610104717886507,-160.45329009075672,17.80571830809443,-4.567096523276414,0.057247725923362844,-0.9854869467930555,0.15475968693617753,-0.039844885198997794
268584.0,220.68618,1.0,0.76,-1.29,-10.22,-4.25,22.0,43.69,0.06,-1.63,-1.69,-0.02071361360559683,0.06571264313363195,-0.5222101885563255,-160.47367047728616,17.715889560887142,-4.907089884485269,0.05667385866230575,-0.9855171218731515,0.15398518012306328,-0.042809351100575946
268619.0,220.714102,1.0,0.38,-1.14,-9.35,-3.88,22.25,44.5,-6.0,-3.19,3.75,0.05572660296355359,-0.1557598222709771,0.38119863555658107,-160.5231086041998,17.8746352761009,-4.357562842222777,0.05506193346146846,-0.9855901901430373,0.15535382716412566,-0.038017745366547104
