acc_x,acc_y,acc_z,eul_x,eul_y,eul_z
1.09,3.48,-9.05,-119.08377982565192,-55.58877661222697,-17.161136490218524
1.01,3.26,-8.92,-119.06117764081604,-55.67947118427708,-16.96415115593626
0.87,3.33,-8.65,-119.06117764081604,-55.73131367504011,-16.813549410004512
1.1,3.4,-8.91,-119.0385830310132,-55.770203681703904,-16.744050792597328
0.97,3.56,-8.77,-118.99341650256764,-55.770203681703904,-16.720885966499374
1.11,3.55,-8.85,-118.9708445669936,-55.78316856909328,-16.801965875210325
1.27,3.44,-9.3,-118.8580978383618,-55.88691564523484,-16.871469682269606
1.06,3.12,-9.09,-118.79053985855312,-55.96475865649774,-16.848301053200124
1.23,3.35,-9.07,-118.81305169988,-55.89988753147071,-16.906223928806188
1.21,3.46,-9.12,-118.90317397360045,-55.80910067345633,-16.906223928806188
1.19,3.69,-9.14,-118.9708445669936,-55.70539088046685,-16.813549410004512
1.12,3.56,-9.08,-119.0385830310132,-55.66651249731456,-16.69772182857332
1.01,3.47,-8.92,-119.12900695445512,-55.54991909388129,-16.454539675361616
0.98,3.91,-8.97,-119.19690467351394,-55.4463329445145,-16.38507281218067
0.76,3.43,-8.94,-119.19690467351394,-55.43338813739566,-16.269308165184984
0.84,3.7,-8.82,-119.28754177396172,-55.34279598100365,-16.257732621833743
0.73,3.91,-8.8,-119.37830144711693,-55.20051268392319,-16.257732621833743
1.17,3.82,-9.3,-119.4237274219872,-55.135868994465206,-16.361918539628213
1.23,3.59,-9.38,-119.4237274219872,-55.135868994465206,-16.361918539628213
1.03,3.2,-9.27,-119.4237274219872,-55.17465292180053,-16.234582036054892
1.01,3.41,-9.38,-119.4010105824342,-55.14879620852955,-16.118839093056636
0.94,3.47,-9.07,-119.44645197451608,-55.07124433789578,-15.956826751094518
1.11,3.77,-9.08,-119.56019073883044,-54.8774841925425,-15.806415466969176
0.69,3.94,-8.78,-119.56019073883044,-54.82584356552154,-15.598198868035936
0.56,3.63,-8.72,-119.4919242535424,-54.91622259305462,-15.413160961410524
0.71,3.55,-9.02,-119.4237274219872,-54.94205197415314,-15.401597439742238
0.88,3.64,-9.0,-119.4010105824342,-54.89039623695746,-15.366907820940328
0.58,3.73,-8.72,-119.4010105824342,-54.83875259027354,-15.343782195666376
0.65,3.52,-9.05,-119.31022017941788,-54.89039623695746,-15.459416628401115
0.84,3.88,-8.88,-119.33290625430892,-54.81293529494486,-15.586632804931574
1.0,3.57,-9.39,-119.31022017941788,-54.74840524433751,-15.794846506662765
0.75,3.65,-8.79,-119.37830144711693,-54.61940153639184,-15.841123321226055
0.92,4.31,-8.94,-119.46918424877704,-54.29721951219732,-16.15356023236983
0.81,3.89,-8.72,-119.4919242535424,-54.18134776958782,-16.350341655632345
0.95,4.02,-8.95,-119.53742748975634,-53.962642188164594,-16.720885966499374
0.98,4.31,-9.04,-119.56019073883044,-53.78269118475608,-16.9525653616307
0.87,4.33,-8.73,-119.60574054309872,-53.62856147141808,-16.906223928806188
0.88,4.34,-9.03,-119.65132148129857,-53.60288337963247,-16.848301053200124
0.75,3.96,-8.77,-119.65132148129857,-53.692769431450216,-16.66297690980209
0.74,3.82,-8.94,-119.67412364784865,-53.73130294840485,-16.51243337847321
0.74,4.0,-8.88,-119.71975142044464,-53.718457713676216,-16.38507281218067
1.04,4.02,-9.18,-119.67412364784865,-53.76984303048104,-16.396650200988272
0.85,4.01,-8.69,-119.67412364784865,-53.79554006963272,-16.234582036054892
0.78,3.75,-9.04,-119.69693362458544,-53.79554006963272,-16.118839093056636
0.48,3.91,-8.59,-119.74257704437856,-53.78269118475608,-15.887402736014533
0.75,4.15,-8.67,-119.78825181236216,-53.718457713676216,-15.841123321226055
0.6,4.13,-8.94,-119.76541050535587,-53.76984303048104,-15.7832777083714
0.79,4.01,-8.88,-119.71975142044464,-53.82124003233572,-15.73700413286234
1.12,4.49,-8.92,-119.69693362458544,-53.83409111073488,-15.806415466969176
0.61,3.67,-8.56,-119.53742748975634,-54.039808077971365,-15.73700413286234
0.73,4.25,-8.96,-119.46918424877704,-54.10413323309202,-15.760140597334962
0.48,3.99,-8.6,-119.37830144711693,-54.24571355108697,-15.73700413286234
0.65,3.75,-9.06,-119.31022017941788,-54.40026707594486,-15.748572284340511
0.7,3.83,-8.92,-119.31022017941788,-54.451808715885925,-15.702300646279072
0.96,3.33,-9.27,-119.37830144711693,-54.490472774077006,-15.667598608855752
0.78,3.67,-8.77,-119.46918424877704,-54.38738352787694,-15.656031584502133
1.03,4.03,-9.12,-119.56019073883044,-54.23283891398725,-15.725436142775802
0.77,3.75,-9.1,-119.53742748975634,-54.219965017577714,-15.632898017228824
0.51,3.5,-8.5,-119.56019073883044,-54.20709186156805,-15.459416628401115
0.22,3.76,-8.4,-119.4919242535424,-54.16847683303728,-15.436288478593855
0.37,3.43,-8.55,-119.4919242535424,-54.10413323309202,-15.551935573755918
0.7,4.09,-8.99,-119.53742748975634,-53.92406916451298,-15.806415466969176
0.48,4.3,-8.64,-119.62852711601612,-53.70561320811986,-15.945255673236543
0.74,4.16,-8.94,-119.69693362458544,-53.61572206207956,-16.049401279911372
0.72,4.53,-8.79,-119.71975142044464,-53.47453647164073,-16.257732621833743
1.0,4.52,-8.9,-119.69693362458544,-53.42321798982236,-16.373495591769153
0.88,4.55,-8.98,-119.65132148129857,-53.35908614472047,-16.466118077182387
0.5,4.77,-8.65,-119.65132148129857,-53.32061569458453,-16.419805484293857
0.68,4.35,-8.56,-119.76541050535587,-53.35908614472047,-16.223006993376618
0.96,4.02,-9.03,-119.74257704437856,-53.48736790080604,-16.1419863535435
1.14,3.55,-9.1,-119.76541050535587,-53.61572206207956,-16.03782888845279
1.22,3.25,-9.41,-119.74257704437856,-53.70561320811986,-16.003112701402525
0.69,3.48,-8.77,-119.92546492630352,-53.525866533741606,-15.817984589415364
0.48,4.15,-8.87,-120.06296278033024,-53.32061569458453,-15.713868313956253
0.29,4.12,-8.55,-120.22373946495335,-53.153985232120654,-15.563501157916
0.44,4.5,-8.65,-120.29276401197048,-53.07711975523274,-15.575066901599747
0.39,4.35,-8.53,-120.26974778474064,-53.10273871771936,-15.551935573755918
0.67,4.23,-8.94,-120.17776326239716,-53.21805950342704,-15.609765091037287
0.89,4.12,-9.01,-120.08590691104772,-53.33343845721146,-15.667598608855752
0.87,3.87,-8.84,-120.01709840281568,-53.461705766242936,-15.656031584502133
1.06,3.79,-9.18,-119.97126580924144,-53.57720819427434,-15.73700413286234
1.34,3.73,-9.34,-119.92546492630352,-53.65424247190823,-15.73700413286234
0.98,3.67,-8.99,-119.92546492630352,-53.67992638338189,-15.609765091037287
0.56,3.68,-8.81,-119.99417813762396,-53.64140160793269,-15.39003407585724
0.51,3.91,-9.02,-120.08590691104772,-53.56437169079451,-15.25128597113998
0.43,4.11,-8.66,-120.20074735368748,-53.461705766242936,-15.112560354905924
0.57,3.98,-8.97,-120.36186107562722,-53.32061569458453,-14.93918463283386
0.41,4.25,-8.79,-120.45410373713348,-53.21805950342704,-14.84673166768115
0.55,4.27,-8.89,-120.5695899160874,-53.14117252914141,-14.73117911928188
0.24,4.16,-8.66,-120.61584152012747,-53.153985232120654,-14.58098330322708
0.11,3.64,-8.79,-120.66212588661212,-53.23087651093563,-14.419262116395176
0.48,3.69,-9.09,-120.73161403507063,-53.21805950342704,-14.407711711634985
0.63,3.52,-9.17,-120.82438029207812,-53.153985232120654,-14.477016351828802
0.63,3.93,-8.87,-120.96377821929032,-52.97467248448692,-14.500119080393963
0.66,3.95,-8.81,-121.10347629286508,-52.84667753179352,-14.604088706058509
0.79,3.69,-9.18,-121.196776153626,-52.78270669863224,-14.673408500442047
0.91,4.14,-9.08,-121.2668396082864,-52.65481814526298,-14.754288420181696
0.87,3.92,-9.08,-121.2201221874496,-52.71875358132653,-14.788953503219902
0.95,3.62,-9.29,-120.98704033013556,-52.92346596535568,-14.84673166768115
0.58,3.72,-8.87,-120.91727899971444,-52.97467248448692,-14.742733694368155
0.43,3.67,-8.81,-120.87081305028902,-53.03869667359706,-14.627194705880914
0.65,3.77,-8.92,-120.82438029207812,-53.10273871771936,-14.61564163128423
0.58,3.77,-8.7,-120.777980646449,-53.19242764249977,-14.592535930080526
0.91,3.4,-9.26,-120.70844309282911,-53.32061569458453,-14.592535930080526
0.74,3.49,-8.98,-120.61584152012747,-53.38473671711783,-14.569430825374988
0.84,3.9,-9.01,-120.61584152012747,-53.37191107016693,-14.61564163128423
0.63,4.14,-8.87,-120.5695899160874,-53.29497233017572,-14.661854827129083
0.71,3.88,-9.3,-120.50027377126791,-53.35908614472047,-14.673408500442047
0.55,4.01,-8.91,-120.3388206480064,-53.461705766242936,-14.61564163128423
0.14,3.89,-8.86,-120.29276401197048,-53.500200054022216,-14.500119080393963
0.01,4.12,-8.65,-120.26974778474064,-53.48736790080604,-14.32686299177392
0.11,4.23,-8.63,-120.31578829659291,-53.436046525616895,-14.303764676023915
0.28,4.39,-8.62,-120.40796619724487,-53.34626194049607,-14.269118297459285
0.42,4.39,-8.86,-120.43103091016366,-53.33343845721146,-14.280666944469896
0.54,4.47,-8.58,-120.36186107562722,-53.34626194049607,-14.32686299177392
0.81,3.96,-8.77,-120.22373946495335,-53.538700860812206,-14.407711711634985
0.74,3.75,-8.96,-120.13181910251944,-53.67992638338189,-14.442363367873067
0.45,3.19,-9.06,-120.01709840281568,-53.85979546306142,-14.407711711634985
0.72,3.66,-9.1,-120.08590691104772,-53.82124003233572,-14.442363367873067
0.75,3.48,-9.23,-120.20074735368748,-53.74414891259134,-14.523222401516824
0.77,3.71,-9.31,-120.3388206480064,-53.64140160793269,-14.534774284595128
0.66,3.88,-8.97,-120.54647637591216,-53.47453647164073,-14.46546520944767
0.6,3.76,-9.14,-120.68528037991209,-53.35908614472047,-14.407711711634985
0.52,3.68,-9.31,-120.87081305028902,-53.20524321404206,-14.188281840563285
0.29,4.05,-8.52,-121.05687678616404,-53.03869667359706,-13.968904250085991
0.45,3.69,-8.75,-121.15010938852664,-52.96186978619433,-13.922726077012074
0.61,4.23,-8.93,-121.24347666895368,-52.84667753179352,-13.98044914927855
0.61,4.03,-8.72,-121.2668396082864,-52.83388194622903,-14.026630173419028
0.56,3.57,-9.19,-121.2668396082864,-52.85947382737936,-14.026630173419028
0.49,3.68,-8.92,-121.33697927503368,-52.79549944688719,-14.049721543626418
0.89,3.86,-9.17,-121.40719542947475,-52.73154278918168,-14.118999098561428
0.76,3.63,-9.07,-121.45404882910115,-52.68039020015169,-14.095906005217
0.46,3.77,-8.84,-121.45404882910115,-52.65481814526298,-14.049721543626418
0.39,3.32,-9.17,-121.40719542947475,-52.65481814526298,-13.968904250085991
0.21,4.06,-8.77,-121.45404882910115,-52.51422225376784,-13.945814879054648
0.4,3.9,-8.87,-121.47748834883792,-52.42479644291255,-14.01508470303339
0.54,3.93,-8.98,-121.47748834883792,-52.33540497698414,-14.049721543626418
0.58,3.83,-8.97,-121.47748834883792,-52.23328523623708,-14.072813487232237
0.55,3.89,-8.78,-121.54785831198568,-52.0164286876315,-14.061267443693245
0.56,4.22,-8.86,-121.54785831198568,-51.77429627625306,-14.222925164993963
0.64,4.15,-8.97,-121.54785831198568,-51.62149845664168,-14.211377245158012
0.55,4.01,-8.76,-121.57133213564484,-51.37976979085595,-14.211377245158012
0.3,4.34,-8.51,-121.59481456130888,-51.125583264636,-14.315313760812993
0.29,4.44,-8.46,-121.59481456130888,-50.88435563772038,-14.54632631618216
0.49,4.14,-9.32,-121.5243930799012,-50.74480796197109,-14.84673166768115
0.36,4.26,-9.11,-121.66531355494112,-50.22538255847991,-14.823619947246296
0.26,4.87,-8.63,-121.73589034408552,-49.69442993487328,-14.742733694368155
0.67,5.18,-9.38,-121.87727845049912,-49.11421404634533,-14.812064314477515
0.8,5.59,-9.55,-122.04262905399636,-48.74911561441486,-14.523222401516824
0.57,5.93,-9.1,-122.37462983210789,-48.34685890896744,-13.091899903813276
0.14,5.71,-9.11,-122.7801400993836,-48.28406366468798,-11.466824127666603
-0.49,4.6,-8.57,-123.11607559607694,-48.6862209673472,-8.671395302011161
-0.99,4.44,-8.14,-123.2364939020704,-48.92530395295319,-6.512305468988996
-1.51,4.62,-7.82,-123.09201996316364,-49.37892761089464,-4.263789782102698
-1.44,4.19,-8.59,-122.87593702038136,-50.06091747705543,-2.314906939637541
-1.74,4.12,-8.83,-122.7322966604894,-50.4026226278441,-0.7448503787209418
-2.2,4.16,-8.19,-122.18470178965724,-51.0747783558906,1.8450038134157023
-2.82,3.3,-7.68,-121.66531355494112,-51.68515222063561,3.713416405127687
-2.71,3.47,-8.52,-120.82438029207812,-52.65481814526298,5.4336758888612415
-3.05,2.88,-8.25,-120.01709840281568,-53.538700860812206,6.776309776380446
-3.13,2.66,-8.15,-118.9708445669936,-54.70969624515615,8.61393617408195
-2.84,2.63,-9.34,-118.00727569803878,-55.770203681703904,9.832557602907888
-3.52,3.12,-7.91,-116.29293986048516,-57.33162075280612,12.227189726180756
-3.97,0.91,-7.18,-115.10854164041076,-58.58916597096109,14.061267443693245
-3.86,2.14,-7.79,-113.3984635573788,-60.675981620918215,14.627194705880914
-3.74,0.18,-8.15,-111.7672353937944,-62.40977867122138,15.482545411826456
-4.18,0.32,-6.79,-109.98960304245053,-64.36259051293125,16.19985740781584
-3.5,0.63,-9.32,-109.09565995624818,-65.9536821068983,15.401597439742238
-3.75,0.42,-7.44,-107.80196748253584,-67.26996578520281,15.632898017228824
-3.53,-0.35,-8.51,-106.681406842105,-68.65188033330544,15.436288478593855
-3.12,0.67,-9.39,-105.86006493054606,-69.97532009784457,14.812064314477515
-3.31,0.12,-8.63,-104.07247881840765,-72.08709874052984,14.003539375629764
-2.77,0.31,-10.08,-103.47835920176271,-73.11083313213125,13.299539926123945
-2.87,0.77,-9.18,-102.41134549904314,-74.4576837501471,12.826644816909525
-2.86,-1.19,-8.97,-101.15784107033816,-76.10743471714315,11.731740790019304
-1.98,0.06,-11.16,-100.72573922895168,-77.08573597407309,10.177646918437086
-3.06,-0.27,-7.64,-100.13478976112896,-77.83489260364539,9.614047461503418
-2.31,-0.3,-8.55,-99.7250605850298,-78.7658205194529,7.602997386301143
-0.95,0.19,-11.0,-99.77840482252957,-79.13695813068195,5.571344453661866
-1.14,0.25,-10.72,-99.47650902646944,-79.74778543159233,3.5070491615651807
-1.54,0.78,-7.71,-99.299361288376,-80.06170285521922,2.3034454566839293
0.34,1.7,-13.76,-99.06954993305422,-80.46637592020761,-0.4010712754482724
-0.65,0.23,-9.5,-98.76983998330203,-80.79700544480976,-1.3636717386286217
-0.64,0.42,-9.12,-98.66427811303318,-80.90237600189252,-2.922401528803221
-0.28,1.34,-9.21,-98.61153960499006,-80.90237600189252,-5.112479412053579
0.08,1.37,-9.23,-98.17314373529332,-81.26427589274175,-6.512305468988996
1.01,0.67,-10.91,-97.64960928769192,-81.64230083997052,-7.970538771598189
2.02,1.43,-12.34,-97.40622744619556,-81.65744421958767,-9.729048380447908
0.86,0.99,-7.93,-97.31944790610486,-81.53634553252334,-11.121372822035768
2.22,2.02,-11.63,-97.21541095446707,-81.30958228614423,-12.745928771149693
1.84,1.54,-9.98,-97.16343265081736,-81.24917717727452,-13.322613734970494
1.34,2.04,-8.58,-97.1287952916504,-81.08320374700905,-14.222925164993963
1.54,1.65,-8.44,-96.83485491073408,-81.05304885614035,-15.494110041456644
1.58,1.48,-7.96,-96.74856352587948,-80.93249704821434,-16.223006993376618
2.49,1.76,-9.95,-96.42132059422951,-80.67668282320093,-18.239683153744327
2.64,1.42,-9.05,-96.35256057889303,-80.34634707870403,-19.42448582735805
3.11,2.07,-9.14,-96.23234135298,-80.01681335104666,-20.70457229377833
3.27,2.0,-10.15,-96.02657774273015,-79.44948291717178,-22.73485185773412
2.87,2.2,-7.56,-95.9580810746786,-78.8103048383864,-24.43226565454688
3.73,2.62,-9.77,-95.82122385087229,-78.35131422864524,-25.8058643261674
3.02,2.87,-7.96,-95.99232372540725,-77.67297680383594,-26.900386195717587
3.65,2.93,-8.46,-96.06084314103792,-77.26165547882309,-27.666855466190324
3.61,2.25,-7.56,-95.94096400729772,-76.69070095907627,-29.0497142065708
4.26,3.02,-8.51,-95.68454734856134,-76.04923610928397,-30.78144442214905
4.51,2.55,-8.51,-95.5651029433817,-75.23686238255408,-32.424928041950515
4.53,3.18,-8.12,-95.75286306642673,-74.48647019368201,-33.416687431310486
3.74,2.98,-5.96,-95.76994903311297,-73.46788204137806,-35.10745640434998
4.61,3.25,-7.28,-95.73577991639958,-72.61234523055688,-36.55263549385707
5.03,3.96,-7.16,-95.59921590362794,-71.63424070118842,-38.306987464775865
5.09,2.85,-7.22,-95.59921590362794,-70.91515282684179,-39.38840578330453
5.26,3.76,-6.95,-95.70162205923631,-69.62601872527647,-41.12146009512062
5.86,3.02,-7.94,-95.68454734856134,-68.92962456147485,-42.12670509670736
5.47,3.22,-7.26,-96.06084314103792,-67.72475880644298,-43.24627621237414
6.08,4.22,-7.06,-96.36974625847458,-66.62429384659232,-44.28358642561688
6.27,3.73,-7.45,-96.47292091413236,-65.47622986306104,-45.64778844933024
6.63,3.84,-7.47,-96.610649179952,-64.4302992386677,-46.781534903600594
6.06,4.39,-6.32,-97.02495429303242,-62.93300681618901,-48.070674990989744
6.52,3.96,-6.94,-97.1287952916504,-62.07513651497276,-48.98825821247561
6.46,4.29,-7.19,-97.64960928769192,-60.83537468333018,-49.75757860526172
6.1,4.06,-6.09,-98.41840599370693,-60.05293463473585,-49.66917497940315
5.96,4.26,-6.82,-98.89313900458244,-59.0363995158976,-50.187419272308674
6.38,4.16,-6.77,-99.35247172605573,-58.05115338810375,-50.70676349859697
6.07,4.54,-6.09,-99.77840482252957,-57.22716779893635,-51.02398420663922
6.45,4.41,-6.65,-100.06340703701152,-56.57550655085348,-51.34162455414572
5.96,4.47,-6.13,-100.65391350970894,-55.53696813006854,-51.64695790877244
6.53,5.29,-6.7,-101.48322239715056,-54.54203530433204,-51.608769756507385
6.34,5.08,-6.14,-102.08271174423224,-53.962642188164594,-51.39248622701663
6.57,4.51,-6.63,-102.28340450662311,-53.64140160793269,-51.443358765022325
6.05,4.05,-5.99,-102.86973660263024,-53.12836054260164,-51.20181083863503
6.16,5.08,-5.89,-103.79349620326416,-52.19500183844674,-50.89704579606666
6.1,4.73,-6.03,-104.33365022340344,-51.77429627625306,-50.56731827609278
5.98,4.62,-6.6,-105.36720117412769,-51.02398420663922,-49.92184077154633
6.04,5.13,-6.51,-106.18384425288782,-50.59266598447474,-49.2528385760365
6.17,5.06,-7.19,-107.41388301314085,-50.28866780725309,-47.84492701246389
5.92,4.76,-6.92,-108.6425203865957,-50.25069469093511,-46.13309422581874
5.49,4.6,-7.18,-110.1495692444103,-50.16211368688296,-43.97446806674141
5.0,5.42,-6.89,-111.3190497567916,-49.985047701010245,-42.38468953590336
5.11,4.55,-8.15,-112.71282300150172,-50.21272747501065,-39.948769456648414
3.97,4.85,-6.68,-114.00619273526416,-50.21272747501065,-37.785778398919184
4.3,4.27,-7.87,-115.0018244008949,-50.5039605862624,-35.805224148583044
3.98,5.18,-7.85,-115.57996801372803,-50.782858416372434,-34.42302630295278
3.07,4.16,-7.4,-116.0328557464382,-51.65968866130368,-32.3533321925502
3.21,4.32,-7.9,-116.29293986048516,-52.15672470466425,-31.20953939428692
3.1,4.08,-8.18,-116.37984588512,-52.82108707040818,-30.045196559032803
3.34,3.68,-8.84,-116.55397754456402,-53.33343845721146,-28.978694933911964
2.84,4.14,-7.68,-116.79410996273164,-53.461705766242936,-28.21004157144473
3.01,4.64,-8.25,-116.77224597329428,-53.67992638338189,-27.86752361625033
2.83,4.87,-8.58,-116.3146564167026,-54.65809476610264,-27.312945744821853
2.45,3.65,-8.11,-116.07613737802976,-55.42044409850313,-26.676574330601248
3.28,3.77,-9.57,-115.60146959454929,-55.93880786648987,-26.91216865613784
2.78,3.67,-8.63,-115.10854164041076,-56.57550655085348,-26.888604025029306
2.63,3.69,-7.92,-114.74633713830112,-57.29244480095832,-26.45286606002896
3.01,4.44,-8.55,-114.00619273526416,-57.98563819390608,-26.77079822131657
2.8,2.91,-8.14,-112.73350926918675,-59.286754689259176,-27.27756943376897
2.91,4.32,-7.96,-111.5428205011455,-60.33107392327209,-27.985604401100783
3.09,3.22,-8.74,-110.45037134177934,-61.44759380393023,-28.25730554929696
3.1,3.18,-8.66,-109.71042658552564,-62.423176652141294,-28.068278987313843
3.27,3.1,-8.06,-108.87862832095404,-63.6194442055739,-27.80849455068797
3.48,2.84,-8.97,-107.80196748253584,-64.76922217655454,-28.0210345439132
4.13,3.15,-9.84,-107.2205106449329,-65.29921632957101,-28.31639242391693
3.62,2.57,-8.96,-106.4131295533326,-66.2407734880853,-28.16278249153404
3.69,3.6,-9.27,-106.26020470831196,-66.50092772303125,-28.009224192772628
3.21,4.06,-7.9,-105.70811662886264,-67.20116264131201,-27.77308072525798
3.28,1.75,-8.4,-104.63307361365904,-68.37459501300991,-27.70226118700864
3.61,2.86,-9.14,-103.88639399112432,-69.13823625091533,-27.80849455068797
3.46,3.06,-8.87,-103.36739654993116,-69.63997654209203,-27.855717200127582
3.78,2.66,-9.21,-102.7228019769725,-70.39546823502994,-27.714063693203613
4.01,1.83,-9.43,-102.59442725393292,-70.67617134909206,-27.44268161964677
3.47,1.02,-8.49,-102.8513568589136,-70.53575900749587,-27.14787893324093
3.57,2.83,-8.66,-103.34891599443549,-69.93336466039091,-27.27756943376897
3.37,2.95,-8.38,-103.83064378585505,-69.3053141728393,-27.51346175010752
3.37,3.51,-8.3,-104.3897152607669,-68.52704538255442,-27.87933033417513
3.58,3.84,-9.0,-104.8395159971152,-67.84900332343393,-28.26912231018425
3.02,3.07,-8.04,-105.0276111512958,-67.64197933171232,-28.292756752714663
3.25,3.31,-8.43,-105.23498190512574,-67.2837297114374,-28.576466242296
3.55,2.96,-9.25,-105.23498190512574,-67.10488432031785,-28.943189564308163
3.56,3.13,-8.86,-105.46176616813965,-66.78891793624743,-29.06155185997118
3.74,3.08,-8.91,-105.68914179321384,-66.50092772303125,-29.10890564472929
3.45,3.24,-8.59,-106.03132620370606,-66.03566049429847,-29.262840587223423
3.6,3.35,-8.56,-106.1456894229273,-65.81713593554738,-29.45237314889127
3.61,3.04,-8.6,-106.22201600575642,-65.69433435122963,-29.49976914452507
3.5,3.23,-8.48,-106.6622162163593,-65.21757686713724,-29.464221664430085
3.73,3.07,-8.66,-106.912032231107,-64.86423446267784,-29.630134776789287
3.72,2.58,-8.42,-107.25914966329704,-64.4302992386677,-29.701259829199124
3.76,4.18,-8.34,-107.8408750363796,-63.781328955958536,-29.72497078004789
3.5,3.07,-8.71,-107.95770664544784,-63.6868789211639,-29.64198814057256
3.35,3.81,-8.3,-108.2309531214748,-63.44422897307763,-29.523469077350697
3.05,3.76,-8.2,-108.42668178324712,-63.33648650708331,-29.2983716924918
3.47,2.81,-9.11,-108.60323493215937,-63.14808734462744,-29.32206069578229
3.33,3.44,-8.32,-108.8195376256316,-62.91957249352721,-29.262840587223423
3.59,3.05,-8.53,-108.93776167014931,-62.78528219858725,-29.227312357898
3.46,3.1,-8.57,-109.3132704221292,-62.3829855554336,-29.20362846739611
3.33,3.85,-8.2,-109.49174968741804,-62.182157850572864,-29.1681050221712
3.71,3.2,-9.36,-109.7303356928047,-61.968175291606855,-29.0023667595726
2.96,4.21,-7.9,-110.08954448644468,-61.6609948635758,-28.801196435314267
3.45,3.57,-9.02,-110.08954448644468,-61.62096412364078,-28.86035473550121
2.98,3.7,-8.07,-110.16958750511162,-61.56760277209649,-28.71838798339577
3.25,3.14,-8.6,-110.22967237255024,-61.56760277209649,-28.56464145412097
3.48,3.59,-9.07,-110.34997788662332,-61.40760741658022,-28.63559484770936
2.81,3.53,-7.6,-110.45037134177934,-61.26106146367894,-28.63559484770936
3.78,3.52,-9.29,-110.47046523443146,-61.07470873985765,-28.95502437185985
3.52,3.59,-9.02,-110.57101095130196,-60.82208696099747,-29.1681050221712
2.97,3.45,-8.12,-110.85321906669196,-60.49018686629133,-29.13258444192844
3.49,4.14,-8.9,-111.13643927299914,-60.11912281043993,-29.227312357898
2.83,3.38,-7.96,-111.2987386824523,-59.973537976801865,-29.13258444192844
3.68,3.71,-8.97,-111.60396041024364,-59.51102079023914,-29.32206069578229
3.36,3.46,-8.78,-111.88991732477224,-59.19448243873018,-29.262840587223423
3.09,4.06,-8.11,-112.44441011743348,-58.66801815565057,-29.02603985005446
3.28,3.44,-8.77,-112.6714672903495,-58.4709447283886,-28.87218733809866
2.95,3.78,-8.22,-112.9821839632563,-58.1822461911917,-28.65924846946876
3.31,3.67,-8.75,-113.29417835148298,-57.94633904000565,-28.35184823709937
3.35,3.5,-9.45,-113.81705808343624,-57.553756403368006,-27.832105272694307
2.53,4.38,-7.79,-114.44938861164486,-57.13581405595554,-26.994654003838164
2.39,3.95,-8.16,-114.810125415467,-56.97929979586889,-26.335166138238048
2.39,3.92,-8.44,-114.91656280775707,-56.90108617541996,-26.19396354392425
2.43,3.69,-8.22,-115.0018244008949,-56.88805338503149,-26.029278313836883
2.52,3.49,-8.11,-115.10854164041076,-56.74474561080106,-26.01751718039721
2.94,3.43,-9.08,-115.21541543771308,-56.49744158979394,-26.170433719349266
2.53,3.52,-8.23,-115.51550165897758,-56.10754388870858,-26.158669228245632
2.44,4.44,-8.02,-115.85999031103984,-55.485171978249646,-26.46463761296408
2.99,3.82,-9.24,-115.85999031103984,-55.31691940731037,-26.75901922805568
2.35,3.91,-8.18,-116.3146564167026,-54.81293529494486,-26.59414349441812
2.78,4.28,-8.43,-116.55397754456402,-54.46469598924939,-26.723683975588173
3.18,3.71,-9.61,-116.64120406641231,-54.1942194456681,-26.994654003838164
2.55,3.86,-7.85,-117.03506304367224,-53.75699560652143,-26.888604025029306
2.78,4.61,-8.41,-117.1448610408126,-53.25651268144825,-27.348324709600163
2.85,3.71,-8.96,-117.21082255070309,-53.06431134668802,-27.51346175010752
2.37,4.22,-7.94,-117.80730258048688,-52.43756945380554,-27.348324709600163
3.03,4.06,-9.06,-118.00727569803878,-52.08018919976154,-27.4544775660039
3.04,4.35,-8.86,-118.36422556879909,-51.54513650446032,-27.336531426237315
2.83,4.18,-8.63,-118.70056715200867,-51.16369401723818,-27.195035005738163
2.58,4.38,-8.45,-119.0385830310132,-50.65604685467434,-27.183245547895737
2.25,4.65,-7.53,-119.33290625430892,-50.326646830888215,-26.982869511205863
2.9,4.23,-9.16,-119.33290625430892,-50.20007304637223,-27.11251495381608
2.5,4.09,-7.97,-119.53742748975634,-50.0103350226896,-26.97108530932781
2.77,4.6,-8.38,-119.69693362458544,-49.75757860526172,-26.93573444675805
2.63,4.63,-8.14,-119.62852711601612,-49.73231720183757,-27.053580833430228
2.53,4.84,-8.2,-119.3556000073112,-49.84601386938241,-27.39550079751796
2.83,4.54,-8.41,-118.99341650256764,-50.22538255847991,-27.666855466190324
2.99,4.28,-8.51,-118.52097838323344,-50.59266598447474,-28.25730554929696
3.01,4.34,-8.44,-118.27481372474286,-50.820914868829576,-28.505522169511824
2.8,4.23,-8.18,-117.9627870826262,-51.1001794642751,-28.74204597594341
2.83,4.52,-8.1,-117.82949322355816,-51.252642719818056,-28.90768703373302
2.9,4.25,-8.08,-117.54156821615564,-51.49424218516168,-29.23915478171118
3.05,4.2,-8.14,-117.21082255070309,-51.736087563875465,-29.653841828798463
3.13,4.18,-7.95,-116.6848576958755,-51.91444784867411,-30.57944178497209
3.47,3.76,-8.51,-116.16277934389494,-52.14396705080251,-31.304732073341743
3.48,4.25,-7.92,-115.79527299684044,-52.131210091854,-32.162473260424385
3.81,4.2,-8.55,-115.34387175567552,-52.15672470466425,-33.01011755272957
3.69,4.19,-7.46,-114.91656280775707,-52.131210091854,-33.94348108559176
3.82,3.02,-6.97,-114.59771305348504,-51.91444784867411,-34.93923195845143
4.48,4.81,-7.33,-113.3150238515142,-51.06207881053215,-38.22208366616019
5.11,4.41,-8.01,-111.91038320685792,-50.73212580885688,-40.87678270719479
4.94,5.63,-7.34,-110.57101095130196,-50.17476615256415,-43.39423340067783
4.99,4.31,-7.09,-109.7303356928047,-50.30132682508742,-44.54350821350816
5.57,4.46,-7.03,-108.85892668852873,-50.12416021166318,-46.02102324962843
6.38,4.48,-7.7,-108.3091890496438,-50.03562494735929,-46.868945786012894
5.75,4.19,-6.82,-108.50510319404415,-49.73231720183757,-46.918907837056295
5.56,5.06,-6.52,-108.56396821294662,-49.341094211246,-47.2313854664036
5.64,4.98,-6.73,-108.38749898537714,-49.03863296676083,-47.71959673028522
5.54,4.68,-6.37,-108.38749898537714,-48.82460984436268,-47.88253794953186
5.76,5.37,-6.6,-108.17232459490296,-48.73653543441946,-48.19617622057904
5.38,4.15,-6.27,-108.05519160220844,-49.164614087930325,-47.93269439397731
5.48,4.73,-6.67,-108.05519160220844,-49.32848435315842,-47.74465793118145
5.27,4.26,-6.39,-108.11373745608395,-49.5176992648741,-47.50667419847937
5.96,4.41,-7.1,-107.95770664544784,-49.58080290531658,-47.68200947327645
5.8,4.62,-6.54,-107.95770664544784,-49.47984477339551,-47.78225428161778
5.6,5.02,-6.53,-108.035685474304,-49.31587513221956,-47.79478761247317
5.66,4.77,-6.83,-107.99668693087187,-49.441996043237744,-47.694537953351535
5.58,5.08,-6.43,-108.2309531214748,-49.505080460483725,-47.33145690842096
5.7,4.08,-6.93,-108.2309531214748,-49.75757860526172,-47.106349860444496
5.53,4.67,-6.71,-108.25050517877196,-49.80810916227225,-47.01886031964005
5.6,5.01,-6.71,-108.28962313901592,-49.84601386938241,-46.88143541316104
5.46,4.73,-6.41,-108.34833475115198,-50.08621261381583,-46.56937120855181
5.4,4.4,-6.75,-108.4070880619203,-50.326646830888215,-46.2701332926198
5.32,4.84,-6.56,-108.27006185000631,-50.465953903367264,-46.29505700445262
5.46,4.65,-6.6,-108.07470230594728,-50.7701742654686,-46.2701332926198
5.41,4.6,-6.53,-107.8992703852027,-51.03668173616908,-46.2825948589316
5.64,4.77,-6.83,-107.627107150319,-51.2907737294374,-46.46958798664575
5.62,4.54,-6.5,-107.14328559013715,-51.723352699323634,-46.75656566484064
5.77,4.5,-6.47,-106.1456894229273,-52.412024132935976,-47.519194226240366
5.81,4.25,-6.72,-105.34830046023008,-52.82108707040818,-48.28406366468798
6.19,4.37,-6.72,-104.35233464317456,-53.19242764249977,-49.2528385760365
6.0,4.4,-6.53,-104.05385291977898,-53.51303293157287,-49.341094211246
5.73,3.89,-6.36,-103.96078153770134,-53.79554006963272,-49.17721568249704
6.08,4.49,-6.81,-103.64505914352164,-53.70561320811986,-49.66917497940315
6.15,4.41,-6.64,-103.73780360335893,-53.62856147141808,-49.618672793409424
5.91,4.73,-6.46,-103.9421788631584,-53.692769431450216,-49.26544461496822
5.77,4.0,-6.27,-104.25895173526337,-53.84694292088121,-48.6862209673472
5.93,4.61,-6.53,-104.37102298797171,-53.73130294840485,-48.66106748213056
5.55,3.85,-6.28,-104.25895173526337,-53.84694292088121,-48.69879864666847
6.12,4.71,-6.86,-104.20296893682892,-53.667084063629616,-48.93789354543228
5.65,4.03,-6.29,-104.25895173526337,-53.57720819427434,-48.93789354543228
5.99,4.56,-6.41,-104.20296893682892,-53.38473671711783,-49.24023317275956
6.29,4.35,-6.72,-104.09110859790351,-53.17961278851925,-49.618672793409424
5.87,4.68,-6.27,-104.01661275346248,-53.03869667359706,-49.84601386938241
5.91,4.44,-6.0,-103.84922334055192,-53.10273871771936,-50.02297965952342
6.12,4.4,-6.49,-103.6079880821084,-53.11554927222101,-50.33930781936822
6.34,4.49,-6.49,-103.49686622301572,-53.11554927222101,-50.49129103156368
6.02,4.26,-5.65,-103.34891599443549,-53.28215172783013,-50.5039605862624
6.55,4.3,-6.58,-102.68610514129892,-53.21805950342704,-51.39248622701663
6.21,4.33,-6.28,-102.17388174945586,-53.25651268144825,-52.00367866289412
6.02,4.27,-5.72,-101.35655120840237,-53.38473671711783,-52.89786697704349
6.2,4.5,-5.75,-100.60007982226092,-53.24369423684897,-53.9755013315704
6.5,4.91,-5.89,-99.58295302275091,-52.97467248448692,-55.49811986129514
6.63,4.74,-5.02,-98.92839577736687,-53.02589040849176,-56.26341781734521
6.94,4.81,-5.52,-97.80638154107426,-53.0002800197644,-57.6583726523369
6.96,4.79,-5.23,-97.18075578145827,-53.03869667359706,-58.352791710028974
6.93,4.47,-5.39,-96.19801883290825,-52.94906780042738,-59.59023341780746
6.96,5.43,-4.79,-95.30961142661364,-52.62924891384529,-60.88853462317393
7.46,4.42,-5.41,-94.2938229499655,-52.83388194622903,-61.88799370587642
6.98,5.29,-4.6,-94.02458435289964,-52.68039020015169,-62.30262894881712
6.88,4.81,-4.43,-93.8566544152289,-52.88506854972636,-62.32941069730318
7.08,4.81,-4.73,-93.68898731021125,-53.11554927222101,-62.32941069730318
7.2,5.18,-4.76,-93.5048551721208,-53.12836054260164,-62.51698911767068
7.1,4.53,-4.85,-93.22090422842992,-53.35908614472047,-62.62426048552695
7.04,5.03,-4.34,-93.2709590581106,-53.23087651093563,-62.6779190768701
7.26,4.6,-4.77,-93.22090422842992,-53.461705766242936,-62.5438012405264
7.57,4.85,-5.25,-93.32103704825496,-53.60288337963247,-62.28923949337646
6.89,5.11,-4.32,-93.8566544152289,-53.76984303048104,-61.52759147164257
7.05,4.38,-4.91,-94.26013087807388,-54.039808077971365,-60.79551422894158
6.77,5.13,-4.65,-94.5806381366887,-54.18134776958782,-60.30456759010976
6.89,4.69,-4.84,-94.68205278958663,-54.24571355108697,-60.13236310008998
6.96,4.89,-4.93,-94.6144322101244,-54.31009785710634,-60.11912281043993
6.72,4.51,-5.02,-94.56374514822488,-54.42603640579737,-60.09264488671134
6.7,4.73,-4.86,-94.64823708998428,-54.33585677451873,-60.07940725192446
7.05,4.82,-5.03,-94.68205278958663,-54.27146504851861,-60.09264488671134
6.88,4.94,-4.96,-94.7327966552025,-54.23283891398725,-60.07940725192446
6.93,4.97,-5.17,-94.63133329841952,-54.36161866399844,-60.06617050138386
6.97,4.79,-5.07,-94.52996725950868,-54.56782105444786,-59.99999999999999
6.93,4.85,-5.12,-94.6144322101244,-54.55492780539657,-59.90739833750701
7.05,4.89,-5.33,-94.69896470096,-54.63229852978135,-59.73553808607135
6.77,5.02,-4.71,-94.88517495078123,-54.55492780539657,-59.577029137074135
6.69,4.9,-5.03,-94.90211949213996,-54.59360979768476,-59.53742151899626
6.89,4.89,-5.28,-94.83435769046784,-54.56782105444786,-59.61664459342119
6.86,4.79,-5.01,-94.783564940407,-54.670994009622966,-59.59023341780746
6.67,4.59,-4.82,-94.69896470096,-54.64519627292022,-59.70911119317572
6.97,5.22,-5.09,-94.6144322101244,-54.51625254499015,-59.93385155178053
6.83,4.68,-5.17,-94.52996725950868,-54.61940153639184,-59.94707947928739
7.0,5.09,-4.86,-94.51308235594236,-54.55492780539657,-60.02646555170329
7.28,4.64,-5.18,-94.46244378855972,-54.490472774077006,-60.13236310008998
6.96,5.1,-5.01,-94.46244378855972,-54.38738352787694,-60.21182344932971
6.72,4.79,-5.0,-94.36123915025333,-54.50336228612648,-60.23831733096471
6.75,4.52,-4.94,-94.22644947426409,-54.670994009622966,-60.251565604360856
6.92,4.94,-5.07,-94.09183027952132,-54.58071505177939,-60.49018686629133
7.09,4.79,-4.94,-93.94058643018808,-54.63229852978135,-60.63615363736209
6.83,4.61,-4.84,-93.8566544152289,-54.65809476610264,-60.7025381110459
