TIME,ELAPSED_SECONDS,PSTATE,acc_x,acc_y,acc_z,mag_x,mag_y,mag_z,gyr_x,gyr_y,gyr_z,lin_x,lin_y,lin_z,eul_x,eul_y,eul_z,qua_w,qua_x,qua_y,qua_z
1324998.0,1255.285558,1.0,1.72,2.34,-9.62,-1.37,-25.5,30.75,-0.12,-0.06,0.06,-0.020959925048796263,0.011605104056016335,-0.2421223629855298,-157.6264722380801,-14.673408500442047,-11.720221376139571,-0.1051,-0.981,-0.1277,-0.1021
1325033.0,1255.390678,1.0,1.62,2.36,-9.43,-1.75,-25.06,31.56,-0.31,-0.19,-0.25,-0.06594708425993184,0.09167510883462436,-0.04759510840367653,-157.6264722380801,-14.673408500442047,-11.708702081111404,-0.1051,-0.981,-0.1277,-0.102
1325068.0,1255.394804,1.0,1.7,2.42,-9.65,-1.75,-25.06,31.56,1.0,-1.81,0.06,-0.024164663737358788,0.088729370111438,-0.28594348076132897,-157.6264722380801,-14.673408500442047,-11.697182904814724,-0.105,-0.981,-0.1277,-0.1019
1325103.0,1255.405507,1.0,1.5,2.26,-9.72,-1.37,-25.06,32.38,5.38,-7.31,-0.69,-0.21902179884828746,-0.004074685856575665,-0.2823545519151445,-157.80436691060555,-14.673408500442047,-11.443790822449785,-0.1039,-0.9813,-0.1277,-0.0997
1325137.0,1255.408483,1.0,1.34,2.18,-9.47,-1.06,-25.06,32.38,5.06,-4.06,-1.44,-0.2987180797517276,0.02559977516963308,0.0015996604892052346,-157.98368078519854,-14.708070420797664,-11.259541000283244,-0.1028,-0.9816,-0.128,-0.0981
1325174.0,1255.411409,1.0,1.55,2.3,-9.78,-0.25,-24.69,32.38,8.31,-5.44,-0.25,-0.10342033219116473,0.06129191292133829,-0.3583117577391768,-158.16444882979192,-14.754288420181696,-11.086833319532733,-0.1009,-0.9819,-0.1284,-0.0966
1325207.0,1255.454137,1.0,1.38,1.95,-9.48,-0.25,-24.69,32.38,14.31,-7.06,-0.25,-0.20863346992499987,-0.10210675005423142,0.03304543019974382,-158.5304946671076,-14.765843296845908,-10.718474180434589,-0.0969,-0.9825,-0.1285,-0.0934
1325244.0,1255.520742,1.0,1.19,1.85,-8.98,-0.69,-24.69,32.38,7.94,-17.12,1.94,-0.22503054776214165,-0.03450835133763397,0.5639680068628419,-158.96550158142097,-14.708070420797664,-10.22366575133618,-0.0949,-0.9832,-0.128,-0.0891
1325281.0,1255.539415,1.0,1.51,1.42,-8.21,-0.69,-24.0,32.38,5.25,2.5,4.44,0.1653274360459714,-0.3795254640636363,1.3491546697608072,-159.21811781644797,-14.627194705880914,-10.016593913069027,-0.0934,-0.9836,-0.1273,-0.0873
1325314.0,1255.582518,1.0,1.58,1.33,-7.22,-0.69,-24.0,32.38,-11.88,20.44,5.81,0.3428470453780363,-0.3208329063873596,2.3117702711681516,-159.09143242656367,-14.442363367873067,-10.476799088278916,-0.0939,-0.9834,-0.1257,-0.0913
1325348.0,1255.637328,1.0,1.77,1.47,-7.22,-1.37,-25.06,33.69,-27.25,37.94,7.06,0.34735534936591284,-0.307229328608024,2.2431088716058434,-158.04377345766537,-14.211377245158012,-11.962154211464537,-0.1003,-0.9817,-0.1237,-0.1042
1325385.0,1255.653605,1.0,1.49,1.84,-6.46,-2.19,-24.37,32.38,-48.69,58.5,9.63,0.11768405442235635,0.15052609582465992,2.929092849542397,-156.70033876277134,-13.8765501759761,-13.645704477358525,-0.1095,-0.9794,-0.1208,-0.1188
1325420.0,1255.69851,1.0,1.34,2.77,-6.56,-2.19,-24.37,32.38,-64.31,77.75,14.19,-0.2915215910235115,0.8636362119541343,2.618378465384139,-153.91350924378722,-13.380300633180664,-16.83671699887327,-0.1262,-0.9742,-0.1165,-0.1464
1325455.0,1255.714798,1.0,3.04,3.49,-7.22,-3.25,-25.06,33.25,-61.88,103.87,15.06,0.7395513427374331,0.80446352249477,1.3004168588010945,-151.20776005427302,-12.999629346780695,-19.878046180611587,-0.1382,-0.9686,-0.1132,-0.1726
1325492.0,1255.7525560000001,1.0,3.46,3.21,-6.99,-5.56,-28.5,30.0,-72.0,111.75,10.06,0.4476013204974221,0.24982676491832434,1.388037308741456,-146.83107004149562,-12.596044357776794,-24.479166312304468,-0.1563,-0.9584,-0.1097,-0.212
1325527.0,1255.762503,1.0,3.96,3.71,-6.88,-7.69,-29.19,27.56,-88.5,123.62,12.44,0.39746116283026267,0.36653919759377,1.0609211201027424,-142.91931394004666,-12.296340166976414,-28.257305549296962,-0.17300000000000001,-0.9481,-0.1071,-0.2441
1325561.0,1255.83661,1.0,6.72,3.56,-8.11,-7.69,-29.19,27.56,-76.37,129.81,17.25,1.06599160754214,-1.2443296047021712,-1.1896860137598306,-137.5924585129037,-11.754779974813852,-33.51241368583526,-0.1927,-0.9323,-0.1024,-0.2883
1325596.0,1255.840647,1.0,5.85,4.29,-7.42,-12.56,-31.06,24.37,-98.69,96.75,21.62,0.15988729031335294,-0.3974790273729292,-0.5615439833895355,-134.05726525899885,-10.637910557080565,-36.69748080490138,-0.2113,-0.9207,-0.0927,-0.3148
1325635.0,1255.877766,1.0,6.46,4.91,-7.42,-15.19,-32.56,22.75,-93.69,106.25,22.5,-0.2919589406940367,-0.4422965819641105,-1.1758466974969632,-129.00391708769308,-9.418568108565768,-41.109221581061185,-0.235,-0.9026,-0.0821,-0.3511
1325670.0,1255.9407039999999,1.0,8.26,7.0,-8.99,-15.19,-32.56,22.75,-93.19,71.62,17.37,-0.8502960399149616,-0.18550031600151629,-4.239356061413625,-125.5457815403515,-8.544988083393589,-43.887975339090566,-0.2534,-0.8892,-0.0745,-0.3737
1325703.0,1255.9486359999999,1.0,7.08,6.29,-7.75,-17.75,-34.06,18.69,-68.75,46.69,15.0,-1.3921276910250555,-0.29831715013355353,-2.347607993387236,-122.42220131273352,-7.338875609975954,-46.19537604537457,-0.2718,-0.8764,-0.064,-0.3923
1325740.0,1255.9905130000002,1.0,7.23,7.3,-7.51,-19.19,-35.56,14.25,-69.12,46.81,6.56,-1.7735796996488236,0.18855321131686767,-2.7942175390028487,-119.53742748975634,-6.4319632645356775,-48.120868117186305,-0.2903,-0.8640000000000001,-0.0561,-0.4077
1325776.0,1256.0548119999999,1.0,7.33,6.86,-7.19,-18.75,-36.38,12.38,-25.12,17.62,2.69,-1.6212528891720577,-0.2264503681237371,-2.43282953550836,-118.31950504112476,-6.225383461526625,-48.925303952953186,-0.2972,-0.8586,-0.0543,-0.4141
1325809.0,1256.072398,1.0,7.27,7.06,-7.17,-18.75,-36.38,12.38,-10.0,5.69,0.69,-1.7613841451385468,-0.10778412602480048,-2.481202069236172,-117.82949322355816,-6.064724315991072,-49.21502427217554,-0.3005,-0.8564,-0.0529,-0.4164
1325846.0,1256.111857,1.0,7.53,6.6,-7.2,-19.37,-36.38,10.69,16.69,-20.5,-0.75,-1.4580053150619503,-0.5259339007070096,-2.428484410105112,-118.29715573552454,-6.190955481383822,-48.90012665540839,-0.2979,-0.8585,-0.054000000000000006,-0.4139
1325883.0,1256.1349050000001,1.0,6.78,6.57,-6.52,-20.19,-35.56,9.06,25.62,-36.69,-7.63,-1.161559639135265,0.14219601661227754,-1.6071249889154389,-119.78825181236216,-6.282764679968377,-47.606851295352534,-0.2929,-0.8651,-0.0548,-0.4036
1325918.0,1256.181769,1.0,6.16,6.51,-6.34,-20.19,-35.56,9.06,37.25,-44.69,-11.31,-1.1583956669176296,0.4939109082028219,-1.0991040543341022,-121.2668396082864,-6.569694717687418,-46.29505700445262,-0.2874,-0.8715,-0.0573,-0.3931
1325950.0,1256.239912,1.0,5.84,6.3,-6.26,-19.06,-35.19,10.69,52.75,-49.19,-11.19,-0.8465980522005094,0.6993437909310054,-0.7658326791107353,-123.86648635871313,-7.189606746883267,-44.24647435383947,-0.275,-0.8824,-0.0627,-0.3766
1325987.0,1256.24708,1.0,5.88,6.24,-6.12,-19.19,-36.38,12.69,60.19,-58.25,-17.25,-0.32316443394717703,0.8851420206418918,-0.6851795998327006,-126.04885559306123,-7.809729533725751,-42.446147551916006,-0.2645,-0.8912,-0.0681,-0.36200000000000004
1326022.0,1256.268852,1.0,4.75,5.95,-5.45,-16.75,-36.0,16.0,57.81,-54.25,-22.12,-0.17954787089549973,1.4826787458384498,0.5634402599423929,-128.89754271482937,-9.073671186517632,-40.08291658507028,-0.2497,-0.9022,-0.0791,-0.3427
1326057.0,1256.313261,1.0,4.95,5.75,-6.25,-16.75,-36.0,16.0,63.69,-43.69,-29.69,-0.1917443787658004,1.0773730136257451,0.03782194937270411,-130.79006103529238,-10.085614182042523,-38.452587715507434,-0.2391,-0.9092,-0.0879,-0.3293
1326094.0,1256.325775,1.0,4.88,5.06,-6.32,-16.37,-35.19,18.0,64.56,-38.5,-33.25,0.15288792357124126,0.6670760790137167,0.37839274918032295,-133.15540493778332,-11.731740790019305,-36.43197725116238,-0.2233,-0.9176,-0.1022,-0.3126
1326131.0,1256.3654800000004,1.0,4.29,5.08,-5.84,-13.38,-33.69,20.75,55.81,-31.12,-39.44,0.2978681539413965,1.1347673894120829,1.0351234775072111,-134.52935339042858,-13.288003224878931,-35.059384322363556,-0.2127,-0.9223,-0.1157,-0.3012
1326163.0,1256.430184,1.0,4.68,4.43,-6.44,-13.38,-33.69,20.75,50.06,-10.44,-44.81,0.4829875699795016,0.3099136565750777,0.7142588660510434,-135.57859793518082,-15.343782195666375,-33.823690775726206,-0.2012,-0.9258,-0.1335,-0.2909
1326198.0,1256.448716,1.0,4.7,3.95,-6.62,-11.88,-33.69,22.56,47.94,-10.56,-43.88,0.5637618215126954,-0.1264758601218494,0.7964848258530175,-136.12747373883852,-17.601642377536205,-32.86672457746944,-0.1904,-0.9276,-0.153,-0.2829
1326235.0,1256.493937,1.0,4.66,3.69,-6.53,-10.75,-33.38,23.25,34.44,-2.75,-40.5,0.6676218964184761,-0.3034487551589464,1.0069454676639786,-136.25033456727624,-19.029325032716933,-32.305608836158264,-0.1843,-0.9279999999999999,-0.1653,-0.2782
1326272.0,1256.555609,1.0,4.56,4.06,-6.85,-10.06,-31.87,24.87,24.0,4.25,-41.38,0.5933366695111479,-0.051463978764541014,0.6499582908998693,-135.94379329724794,-20.832722001771078,-31.924028325694472,-0.1799,-0.927,-0.1808,-0.275
1326307.0,1256.573132,1.0,4.27,3.84,-6.55,-10.06,-31.87,24.87,23.19,10.56,-37.69,0.5413186521446556,-0.07099631415604102,1.1128054166055763,-135.54829362030736,-22.139049946746336,-31.79294414962257,-0.1769,-0.9257,-0.192,-0.2739
1326344.0,1256.609962,1.0,4.94,3.2,-6.95,-9.25,-33.0,25.69,16.19,25.12,-32.94,0.6243356775090925,-1.024526945433221,0.7785466831415491,-134.588690989807,-23.76437852052494,-32.18632560419117,-0.1722,-0.9225,-0.2059,-0.2772
1326379.0,1256.616669,1.0,4.7,3.58,-7.11,-7.88,-32.56,25.25,1.75,20.56,-29.12,0.3989806590750387,-0.6581359267575508,0.5943662692633573,-133.73534909546765,-24.76065802803315,-32.60397465615993,-0.1718,-0.9196,-0.2144,-0.2807
1326413.0,1256.676635,1.0,4.48,4.14,-7.03,-7.88,-32.56,25.25,-2.69,28.12,-23.69,0.3405986978210705,-0.14046321850618335,0.5063724443950317,-132.49673400768697,-25.8058643261674,-33.32098517464778,-0.174,-0.9153,-0.2233,-0.2867
1326448.0,1256.693335,1.0,5.21,3.66,-7.5,-7.88,-33.0,26.06,-5.75,36.69,-18.56,0.29803542768449,-1.0254801608003206,0.026605760649653483,-131.3990875860209,-26.48818157203767,-34.19516537453249,-0.1741,-0.9114,-0.2291,-0.294
1326485.0,1256.7321,1.0,4.85,4.45,-7.34,-7.19,-31.75,24.87,-15.44,31.31,-18.56,0.16687151519907273,-0.2316743466218853,-0.048251364018442544,-129.86249210271768,-27.20682475697043,-35.44414023991489,-0.17800000000000002,-0.9058,-0.2352,-0.3044
1326520.0,1256.791268,1.0,4.83,4.2,-7.07,-7.19,-31.75,24.87,-9.81,36.94,-13.31,0.09217540471648106,-0.4101593223506923,0.2789496990326068,-128.76486449761614,-27.725866499273085,-36.37166381418113,-0.1794,-0.9017,-0.2396,-0.3121
1326553.0,1256.850899,1.0,5.0,4.58,-7.17,-7.19,-32.88,24.5,-15.69,44.5,-12.31,-0.007752343261990702,-0.23600423200162,-0.058923571954711214,-127.09397976921673,-28.24548909512887,-37.979621244835975,-0.1816,-0.8953,-0.244,-0.3254
1326589.0,1256.862041,1.0,5.56,4.05,-7.28,-8.25,-32.5,24.5,-11.75,41.0,-7.81,-0.09468716248981146,-1.0051275329584968,-0.15805034590847278,-125.84710760989958,-28.61194247203445,-39.21805551339583,-0.1827,-0.8904,-0.2471,-0.3356
1326626.0,1256.874,1.0,5.8,3.97,-6.62,-7.19,-33.38,24.5,-38.19,59.5,-5.06,0.13666996765123124,-1.1286458782448157,0.21849168875673894,-123.86648635871313,-28.990530688715445,-41.24387223496928,-0.1859,-0.8824,-0.2503,-0.3522
1326659.0,1256.916377,1.0,6.17,4.74,-7.34,-7.19,-33.38,24.5,-47.44,45.19,-0.25,-0.3793712194065772,-0.9341812992376376,-0.8420815102804937,-121.71235608620218,-28.74204597594341,-43.49291375439449,-0.1956,-0.8734,-0.2482,-0.3705
1326696.0,1256.9831140000001,1.0,5.86,4.88,-6.64,-8.69,-34.5,22.87,-38.06,31.5,9.94,-0.2581941226765645,-0.5726228018491629,-0.2853784839975422,-120.63897960324066,-28.292756752714663,-44.74170597311218,-0.2013,-0.8688,-0.2444,-0.3806
1326733.0,1257.001599,1.0,6.02,5.21,-6.34,-10.19,-35.56,20.06,-36.75,20.37,14.5,-0.13088083574064924,-0.38761296097175,-0.3625548066366751,-119.69693362458544,-27.301153346475182,-46.045923884135675,-0.209,-0.8647,-0.23600000000000002,-0.3911
1326768.0,1257.038012,1.0,6.27,5.29,-6.26,-10.19,-35.56,20.06,-46.38,38.75,14.0,-0.181510164792456,-0.4847368027042456,-0.4994978881384746,-118.58826863083307,-26.65302123047702,-47.36899357064292,-0.215,-0.8598,-0.2305,-0.4017
1326800.0,1257.0449019999999,1.0,6.43,5.47,-6.26,-11.25,-36.0,18.75,-39.06,18.06,21.87,-0.3663415558557849,-0.4503753382327789,-0.6869840663835287,-117.60790637777723,-25.371080328389592,-48.76169642019097,-0.2228,-0.8554,-0.2196,-0.4128
1326837.0,1257.1004039999998,1.0,6.6,5.32,-5.82,-11.69,-36.0,18.37,-33.5,4.31,28.81,-0.09535003988922558,-0.5553880677339293,-0.4606404149104453,-117.32089688772969,-24.33847679675364,-49.40415306764388,-0.2267,-0.8541,-0.2108,-0.4179
1326874.0,1257.16093,1.0,6.1,5.61,-5.43,-13.19,-36.0,16.69,-36.81,-1.75,27.87,-0.17127363793373268,0.0528047740989761,-0.09965491135727512,-117.254831475668,-22.69978760508081,-49.896562544320794,-0.2333,-0.8538,-0.1968,-0.4218
1326909.0,1257.17955,1.0,6.23,5.9,-5.62,-13.19,-36.0,16.69,-34.63,1.12,30.19,-0.3594432365114945,0.18651809401345745,-0.442413935810519,-117.03506304367224,-21.543853477197022,-50.4026226278441,-0.2379,-0.8528,-0.1869,-0.4258
1326946.0,1257.2189640000001,1.0,6.7,5.03,-5.42,-13.5,-36.69,16.37,-18.69,-7.38,33.19,-0.12696535708424572,-0.6390095663047249,-0.15040009389184306,-117.166841303543,-20.05257586733213,-50.75749078075491,-0.2402,-0.8534,-0.1741,-0.4286
1326983.0,1257.226037,1.0,6.29,5.53,-4.91,-15.0,-35.56,15.06,-37.25,3.19,29.81,-0.06614880633674253,0.15069493846588156,0.09964143036635598,-116.9473481900315,-18.460228812044047,-51.31619778683095,-0.2454,-0.8524,-0.1604,-0.433
1327015.0,1257.246758,1.0,7.04,5.91,-5.56,-15.0,-35.56,15.06,-33.5,2.63,29.44,-0.3191641395241464,-0.0789390987268428,-0.9309103779785116,-116.4886280777146,-17.31180678552449,-51.927193035567214,-0.2504,-0.8503,-0.1505,-0.4378
1327050.0,1257.284267,1.0,6.37,6.04,-5.27,-15.75,-35.56,13.88,-28.06,-12.0,29.62,-0.5717493583084197,0.4741693975367034,-0.4050915778952025,-116.57577410041328,-15.725436142775802,-52.08018919976154,-0.2546,-0.8507,-0.1368,-0.439
1327087.0,1257.346044,1.0,6.65,5.68,-5.15,-16.87,-36.38,12.69,-19.12,-14.69,29.44,-0.347855049281748,0.14024508377487255,-0.3356736085803451,-116.88163381383896,-14.604088706058507,-51.9909293300881,-0.2563,-0.8521,-0.1271,-0.4383
1327122.0,1257.3631480000001,1.0,6.73,5.88,-5.33,-16.87,-36.38,12.69,-17.25,-24.25,29.06,-0.4457365392463289,0.29873153518741624,-0.5850908747266832,-117.51946956763666,-13.138038375794716,-51.59604173997076,-0.2578,-0.855,-0.1144,-0.4352
1327157.0,1257.441765,1.0,6.42,5.62,-5.15,-18.37,-37.06,13.56,-7.94,-26.87,28.62,-0.4346236723412546,0.35720631214248755,-0.1435663752355758,-118.25247900079262,-12.088902226339815,-51.1001794642751,-0.2574,-0.8583,-0.1053,-0.4313
1327194.0,1257.452644,1.0,6.19,5.75,-4.98,-18.75,-36.0,13.56,-10.94,-21.44,21.06,-0.3885878757564292,0.6691480965919898,0.030135268888383138,-118.99341650256764,-11.052294827398207,-50.42795316020507,-0.2588,-0.8616,-0.0963,-0.426
1327228.0,1257.499467,1.0,6.3,5.35,-4.97,-19.87,-35.56,12.69,-2.19,-24.19,20.31,-0.21900280959885726,0.32599984352451905,0.17030412246894322,-119.62852711601612,-10.396251161173769,-49.79547555361781,-0.2596,-0.8644,-0.0906,-0.42100000000000004
1327263.0,1257.505431,1.0,6.42,5.48,-5.33,-19.87,-35.56,12.69,-4.25,-20.62,17.37,-0.3716127832690103,0.3391705938778484,-0.16343361286702596,-120.36186107562722,-9.464560757916416,-49.227628404888755,-0.2589,-0.8676,-0.0825,-0.4165
1327298.0,1257.566482,1.0,6.36,5.48,-5.52,-19.87,-34.88,12.25,-1.5,-23.87,14.88,-0.4770506806980891,0.32549032233719233,-0.2241465136428875,-121.01031078825766,-8.855279263547427,-48.598194686002294,-0.2593,-0.8704,-0.0772,-0.4115
1327335.0,1257.584087,1.0,6.35,5.12,-5.3,-19.19,-34.5,14.0,5.38,-22.37,13.5,-0.17112822860657806,0.181500853016332,0.08221312325858499,-121.92447762133864,-8.361141590530956,-47.80732155074712,-0.2574,-0.8743,-0.0729,-0.4052
1327370.0,1257.630943,1.0,6.29,5.14,-5.45,-19.19,-34.5,14.0,-1.56,-17.56,10.25,-0.2610478956689116,0.21574775466770826,0.030581930345277893,-122.46980875996977,-7.936078336486531,-47.343968530185975,-0.2561,-0.8766,-0.0692,-0.4015
1327405.0,1257.653799,1.0,6.14,5.05,-5.51,-20.25,-34.5,14.38,-0.56,-17.37,7.06,-0.31520009181139363,0.19262191905832127,0.14095055824099312,-123.06797364519969,-7.522608280519941,-46.731598777829646,-0.2562,-0.8791,-0.0656,-0.3966
1327439.0,1257.736306,1.0,5.85,5.13,-5.35,-20.56,-34.88,14.25,-0.44,-12.31,4.19,-0.3564130531697921,0.43691444268150015,0.38094177699062826,-123.42965193046732,-7.247016388579905,-46.36984205375654,-0.2562,-0.8806,-0.0632,-0.3937
1327476.0,1257.740432,1.0,6.39,4.94,-5.73,-20.25,-34.5,14.25,3.19,-6.25,3.19,-0.2062232827718182,-0.021305542755610585,-0.09413875804805373,-123.7205290097115,-7.097755072388746,-46.10818553492847,-0.2554,-0.8818,-0.0619,-0.3916
1327509.0,1257.762461,1.0,6.21,4.94,-5.67,-20.25,-34.5,14.25,4.63,-15.94,4.81,-0.2111650770800303,0.10801717693181524,0.05676068782268472,-124.28193934639008,-6.879625535030392,-45.635356121986106,-0.2537,-0.8841,-0.06,-0.3878
1327548.0,1257.803253,1.0,6.28,4.66,-5.73,-20.69,-34.5,15.88,4.69,-12.19,2.88,-0.1177955466590042,-0.14346052887293093,0.11374314571511945,-124.72495975966049,-6.776309776380446,-45.26264916304815,-0.2523,-0.8859,-0.0591,-0.3848
1327583.0,1257.820471,1.0,6.05,4.91,-5.67,-20.25,-34.06,15.06,-1.19,-6.06,1.63,-0.2211136595620309,0.1751907407435933,0.17441677224265106,-124.94770072590693,-6.6500424405205285,-45.002054941253824,-0.2523,-0.8868,-0.057999999999999996,-0.3827
1327618.0,1257.8619130000004,1.0,6.27,4.8,-5.78,-20.25,-34.06,15.06,2.25,-2.69,-0.63,-0.12119826638018485,-0.029912139324990594,0.02167599675668796,-125.02213252137535,-6.638563994932457,-44.91524480207666,-0.2524,-0.8871,-0.0579,-0.382
1327650.0,1257.917665,1.0,6.34,4.89,-5.93,-20.25,-34.06,14.25,0.94,-1.37,-0.31,-0.1706269461607078,-0.0277752463551626,-0.15541379124997334,-125.1463924412778,-6.546738821065048,-44.803671685885895,-0.2525,-0.8876,-0.0571,-0.3811
1327687.0,1257.97262,1.0,6.38,4.64,-5.83,-19.87,-33.69,15.88,1.63,-1.63,-1.12,-0.03802888758776868,-0.21174266352731275,-0.0003178722911698628,-125.19616916396942,-6.604129057804274,-44.75409801174842,-0.2521,-0.8878,-0.0576,-0.3807
1327722.0,1257.979627,1.0,6.12,4.74,-5.82,-19.87,-33.69,15.88,-0.94,-0.88,-1.37,-0.20983410029096408,-0.0445572486045438,0.12427506912937858,-125.27091255577452,-6.615607303690656,-44.679754048391246,-0.2521,-0.8881,-0.0577,-0.3801
1327755.0,1258.033692,1.0,6.3,4.85,-6.05,-19.5,-34.5,15.5,-0.19,1.75,-0.19,-0.25901867265095524,-0.09906862056094212,-0.180246151239297,-125.22107317255428,-6.638563994932457,-44.70453316546126,-0.2522,-0.8879,-0.0579,-0.3803
1327790.0,1258.043002,1.0,6.58,5.0,-6.06,-19.87,-34.5,16.0,-0.31,0.63,-1.19,-0.08639490279235315,-0.057077713616570325,-0.4407534787052185,-125.19616916396942,-6.684478178549483,-44.74170597311218,-0.2521,-0.8878,-0.0583,-0.3806
1327826.0,1258.100614,1.0,6.27,4.79,-5.9,-20.25,-34.06,15.5,1.12,-1.94,-1.31,-0.15099537033147906,-0.08251088172515697,-0.04410592797504087,-125.29584795913513,-6.718914520918895,-44.617815884427785,-0.252,-0.8882,-0.0586,-0.3796
1327861.0,1258.119534,1.0,6.27,4.65,-5.89,-20.25,-34.06,15.5,1.63,-1.12,-1.5,-0.11171919215478583,-0.1923970239188919,0.03024973163478784,-125.42068267085124,-6.764830589593756,-44.51874337646561,-0.2515,-0.8887,-0.059000000000000004,-0.3788
1327896.0,1258.169474,1.0,6.38,4.79,-6.06,-19.5,-34.06,16.25,-0.19,-0.81,-1.56,-0.16260432361488664,-0.17455452967094898,-0.20909712890222032,-125.42068267085124,-6.833706733841952,-44.51874337646561,-0.2514,-0.8887,-0.0596,-0.3788
1327931.0,1258.1885140000004,1.0,6.28,4.81,-5.83,-20.69,-33.38,15.5,-0.19,-1.31,-1.44,-0.061277682999490435,-0.04129360970502517,-0.019739972078442136,-125.47069041747116,-6.764830589593756,-44.419705914934724,-0.252,-0.8889,-0.059000000000000004,-0.37799999999999995
1327966.0,1258.192261,1.0,6.38,4.8,-5.94,-20.69,-33.38,15.5,0.06,-0.94,-0.94,-0.05888870783526212,-0.12669263232346628,-0.14365055309911054,-125.49571017669872,-6.8107477456860686,-44.38257587959071,-0.252,-0.889,-0.0594,-0.3777
1328001.0,1258.233993,1.0,6.25,4.83,-6.05,-20.25,-34.06,15.88,0.12,-0.44,-0.5,-0.2254769465205255,-0.10505695156903673,-0.1398078209287572,-125.52074054609028,-6.78778903124712,-44.345450751183655,-0.252,-0.8891,-0.0592,-0.3774
1328037.0,1258.296214,1.0,6.39,4.83,-6.04,-20.25,-33.0,16.25,-0.31,0.69,-1.06,-0.11750429594107155,-0.14156751601109452,-0.22374138712173766,-125.5457815403515,-6.8107477456860686,-44.345450751183655,-0.2519,-0.8892,-0.0594,-0.3774
1328070.0,1258.355549,1.0,6.02,4.72,-5.79,-20.25,-33.0,16.25,1.12,-2.0,-1.0,-0.1864429295970637,-0.028023708374627976,0.21460362262190447,-125.57083317422124,-6.833706733841952,-44.295958202894106,-0.2519,-0.8893,-0.0596,-0.377
1328105.0,1258.3728130000004,1.0,6.21,4.73,-6.0,-21.0,-33.69,14.25,-0.56,1.94,-1.06,-0.1936497755976182,-0.15976041997834806,-0.03580784205446008,-125.64605206137207,-6.604129057804274,-44.196999190211535,-0.2527,-0.8896,-0.0576,-0.3762
1328140.0,1258.4203109999999,1.0,6.33,4.65,-6.0,-19.87,-33.69,15.06,0.44,0.69,-0.88,-0.10026653997184737,-0.2670478529118614,-0.07312894819602178,-125.64605206137207,-6.592650878252481,-44.18463175478608,-0.2529,-0.8896,-0.0575,-0.3761
1328177.0,1258.439527,1.0,6.12,4.81,-5.82,-20.25,-34.06,15.06,-1.06,1.31,-0.31,-0.13153909427583985,0.0069799116122055685,0.08834002616653436,-125.67114640173416,-6.48935022815341,-44.11043851170447,-0.2532,-0.8897,-0.0566,-0.3755
1328209.0,1258.483796,1.0,6.29,4.87,-5.98,-20.25,-34.06,15.06,-0.56,0.19,-0.25,-0.1318508493473014,-0.057890551794469676,-0.1442627238429406,-125.64605206137207,-6.48935022815341,-44.13516742855202,-0.2533,-0.8896,-0.0566,-0.3757
1328246.0,1258.491557,1.0,6.25,4.8,-6.12,-19.87,-33.38,15.75,-0.19,-0.81,0.19,-0.2470412872673815,-0.16250279395278522,-0.16678789494589807,-125.696251455902,-6.4778727055513645,-44.11043851170447,-0.2533,-0.8898,-0.0565,-0.3755
1328281.0,1258.557436,1.0,6.13,4.85,-5.84,-19.87,-34.06,14.19,-1.75,-0.56,0.06,-0.1369918335078905,0.02924022541432025,0.05035058645339418,-125.74649376545209,-6.294241112432486,-44.0239043163285,-0.254,-0.89,-0.0549,-0.3748
1328316.0,1258.576796,1.0,6.14,4.84,-5.89,-19.87,-34.06,14.19,-0.81,-0.06,-1.81,-0.15853534684647,-0.01114920301993516,0.01930908231085127,-125.74649376545209,-6.340147475413157,-43.99918511445215,-0.2543,-0.89,-0.0553,-0.3746
1328351.0,1258.5802720000004,1.0,6.23,4.85,-5.97,-19.5,-34.06,16.25,1.37,2.88,-0.12,-0.1568999735088406,-0.06220839092799003,-0.09020871953374154,-125.696251455902,-6.4319632645356775,-44.06098716195297,-0.254,-0.8898,-0.0561,-0.3751
