acc_x,acc_y,acc_z,lin_x,lin_y,lin_z,eul_x,eul_y,eul_z
8.28,1.13,4.81,0.1792129699285155,0.0449079567943709,0.1662523947751015,-60.99489802105828,4.240855681461491,-114.72508670230464
8.28,1.13,4.81,0.1792129699285155,0.0449079567943709,0.1662523947751015,-60.99489802105828,4.240855681461491,-114.72508670230464
8.39,1.18,4.69,0.0097442960023677,0.0573587460723654,0.1227863587179527,-60.99489802105828,4.321125783265932,-114.76759373176696
8.39,1.18,4.69,0.0097442960023677,0.0573587460723654,0.1227863587179527,-60.99489802105828,4.321125783265932,-114.76759373176696
8.51,1.17,4.56,-0.155964503861036,0.0134052605044721,0.0825513079604043,-60.98159941844144,4.389930414609093,-114.85268180222258
8.51,1.17,4.56,-0.155964503861036,0.0134052605044721,0.0825513079604043,-60.98159941844144,4.389930414609093,-114.85268180222258
8.59,1.14,4.64,-0.1242129683269927,-0.0080789127827802,-0.0219717685730298,-60.92841409128425,4.412865642375664,-114.9378688809502
8.59,1.14,4.64,-0.1242129683269927,-0.0080789127827802,-0.0219717685730298,-60.92841409128425,4.412865642375664,-114.9378688809502
8.48,1.11,4.67,-0.0547380170318667,0.0062574980141394,0.0625048556987302,-60.86195284242213,4.447268815934101,-115.0018244008949
8.48,1.11,4.67,-0.0547380170318667,0.0062574980141394,0.0625048556987302,-60.86195284242213,4.447268815934101,-115.0018244008949
8.32,1.22,4.66,-0.0439066492102809,0.1525489572587328,0.1940956557169766,-60.79551422894158,4.481672390551605,-115.06583600138664
8.32,1.22,4.66,-0.0439066492102809,0.1525489572587328,0.1940956557169766,-60.79551422894158,4.481672390551605,-115.06583600138664
8.42,1.1,4.86,0.0914544670850342,0.0565123092133959,0.0232741797957309,-60.62287944183471,4.424333322525307,-115.27961518989136
8.42,1.1,4.86,0.0914544670850342,0.0565123092133959,0.0232741797957309,-60.62287944183471,4.424333322525307,-115.27961518989136
8.42,1.09,4.78,-0.0020482260351718,0.0197295136201198,0.0633186112468475,-60.45039656824655,4.355527902560735,-115.49402564842946
8.42,1.09,4.78,-0.0020482260351718,0.0197295136201198,0.0633186112468475,-60.45039656824655,4.355527902560735,-115.49402564842946
8.49,1.09,4.58,-0.2407468451796816,-0.0524199007037569,0.10181135576968,-60.21182344932971,4.321125783265932,-115.75216046951115
8.49,1.09,4.58,-0.2407468451796816,-0.0524199007037569,0.10181135576968,-60.21182344932971,4.321125783265932,-115.75216046951115
8.5,1.1,4.77,-0.1047242604075697,0.0020388964806826,-0.001608187475659,-60.13236310008998,4.321125783265932,-115.85999031103984
8.5,1.1,4.77,-0.1047242604075697,0.0020388964806826,-0.001608187475659,-60.13236310008998,4.321125783265932,-115.85999031103984
8.42,1.04,4.78,-0.0466376446466718,-0.0288061999546909,0.0689195080965596,-60.10588340609849,4.298191253728037,-115.90316761296934
8.42,1.04,4.78,-0.0466376446466718,-0.0288061999546909,0.0689195080965596,-60.10588340609849,4.298191253728037,-115.90316761296934
8.7,0.93,4.41,-0.4332581012884407,-0.2723043201521246,0.0219099536372713,-60.18533311886693,4.332593112917143,-115.85999031103984
8.7,0.93,4.41,-0.4332581012884407,-0.2723043201521246,0.0219099536372713,-60.18533311886693,4.332593112917143,-115.85999031103984
8.49,0.96,4.66,-0.0826967488594894,-0.0835269589101163,0.0750784673613331,-60.58306224717521,4.516076369343336,-115.51550165897758
8.49,0.96,4.66,-0.0826967488594894,-0.0835269589101163,0.0750784673613331,-60.58306224717521,4.516076369343336,-115.51550165897758
8.27,1.11,4.91,0.2100167730595712,0.2073663484562526,0.1295640671087579,-60.83537468333018,4.699571210920838,-115.27961518989136
8.27,1.11,4.91,0.2100167730595712,0.2073663484562526,0.1295640671087579,-60.83537468333018,4.699571210920838,-115.27961518989136
8.27,1.02,4.85,0.1949118174910537,0.1389930678298224,0.1682637081720166,-60.90182687258211,4.860139072417077,-115.21541543771308
8.27,1.02,4.85,0.1949118174910537,0.1389930678298224,0.1682637081720166,-60.90182687258211,4.860139072417077,-115.21541543771308
8.51,0.74,4.57,-0.0670141610318225,-0.2294813926586356,0.1218450255751335,-60.84866331035058,4.917487034889402,-115.3224465772307
8.51,0.74,4.57,-0.0670141610318225,-0.2294813926586356,0.1218450255751335,-60.84866331035058,4.917487034889402,-115.3224465772307
8.66,0.45,4.51,-0.1110353094923081,-0.5017511867311042,0.045803883670743,-60.782229218492176,5.146891353190199,-115.45109275023192
8.66,0.45,4.51,-0.1110353094923081,-0.5017511867311042,0.045803883670743,-60.782229218492176,5.146891353190199,-115.45109275023192
9.34,-0.54,4.08,-0.4654152730140231,-1.6293691815936502,-0.2582466558886303,-60.76894511127794,5.445147966752272,-115.5369840524082
9.34,-0.54,4.08,-0.4654152730140231,-1.6293691815936502,-0.2582466558886303,-60.76894511127794,5.445147966752272,-115.5369840524082
10.35,0.77,3.69,-1.6534714797041763,-0.4776747375546663,-1.073118329836209,-60.98159941844144,6.810747745686069,-115.27961518989136
10.35,0.77,3.69,-1.6534714797041763,-0.4776747375546663,-1.073118329836209,-60.98159941844144,6.810747745686069,-115.27961518989136
10.94,0.8,3.55,-1.8399571704575053,-0.3831283239338637,-1.568492649579463,-62.06176307865436,8.41859128124216,-113.8590465676662
10.94,0.8,3.55,-1.8399571704575053,-0.3831283239338637,-1.568492649579463,-62.06176307865436,8.41859128124216,-113.8590465676662
11.14,0.09,3.35,-1.5248311834676809,-1.0563205282170465,-1.677655673552577,-63.47117437163232,9.499056247386587,-111.95133120994127
11.14,0.09,3.35,-1.5248311834676809,-1.0563205282170465,-1.677655673552577,-63.47117437163232,9.499056247386587,-111.95133120994127
11.74,0.22,2.76,-1.7287903031054668,-1.2212396406272,-2.0682587503041194,-65.62614795647175,11.34014667578332,-108.50510319404415
11.74,0.22,2.76,-1.7287903031054668,-1.2212396406272,-2.0682587503041194,-65.62614795647175,11.34014667578332,-108.50510319404415
11.43,2.48,2.56,-2.294210643966593,0.7753901584369374,-1.9187185495727408,-67.68336405721995,13.322613734970494,-104.87710290187228
11.43,2.48,2.56,-2.294210643966593,0.7753901584369374,-1.9187185495727408,-67.68336405721995,13.322613734970494,-104.87710290187228
10.8,3.88,3.23,-1.5872488639718365,2.289936757537252,-1.7849042827655293,-70.9010852783508,15.02008899858815,-99.42333079065403
10.8,3.88,3.23,-1.5872488639718365,2.289936757537252,-1.7849042827655293,-70.9010852783508,15.02008899858815,-99.42333079065403
10.84,3.91,2.83,-1.3666644432951536,1.9180207906400424,-1.82331236219642,-73.33924904872958,15.043205913037664,-95.75286306642673
10.84,3.91,2.83,-1.3666644432951536,1.9180207906400424,-1.82331236219642,-73.33924904872958,15.043205913037664,-95.75286306642673
10.38,4.0,2.86,-0.4790945479335534,1.9413449854847624,-1.5037720991735544,-77.0271439519232,13.85346307502466,-91.35198041570484
10.38,4.0,2.86,-0.4790945479335534,1.9413449854847624,-1.5037720991735544,-77.0271439519232,13.85346307502466,-91.35198041570484
10.89,3.61,2.25,0.1477624537851686,0.8847038866987587,-1.850200573380084,-80.67668282320093,11.432274343860266,-87.5137931126768
10.89,3.61,2.25,0.1477624537851686,0.8847038866987587,-1.850200573380084,-80.67668282320093,11.432274343860266,-87.5137931126768
9.97,4.27,2.5,0.6727261517610138,1.6000046807350312,-1.1874950120672343,-83.53353964844825,9.62554711472919,-84.304040393457
9.97,4.27,2.5,0.6727261517610138,1.6000046807350312,-1.1874950120672343,-83.53353964844825,9.62554711472919,-84.304040393457
8.56,4.96,2.99,1.4657560803681355,2.549587576126786,-0.1012489853815008,-87.22855844047754,6.546738821065048,-80.39134544428752
8.56,4.96,2.99,1.4657560803681355,2.549587576126786,-0.1012489853815008,-87.22855844047754,6.546738821065048,-80.39134544428752
8.05,4.78,3.22,2.261959145280065,2.399769278250473,0.4715577007107701,-89.48149018225166,3.3924056518954067,-78.32175344327142
8.05,4.78,3.22,2.261959145280065,2.399769278250473,0.4715577007107701,-89.48149018225166,3.3924056518954067,-78.32175344327142
8.65,5.52,3.14,2.5940970185889043,2.2006514450621726,-0.3707904383171865,-90.91004306520378,-1.0657168616283692,-77.14435187287417
8.65,5.52,3.14,2.5940970185889043,2.2006514450621726,-0.3707904383171865,-90.91004306520378,-1.0657168616283692,-77.14435187287417
9.25,7.12,1.74,1.2180305866013807,2.124372192781338,-1.7383898126918942,-90.94271968197992,-4.779853967883568,-77.11504093610934
9.25,7.12,1.74,1.2180305866013807,2.124372192781338,-1.7383898126918942,-90.94271968197992,-4.779853967883568,-77.11504093610934
9.61,6.63,0.31,0.7736803581869984,0.4784479749528319,-1.8371297230374968,-91.84507796689996,-10.64941932234672,-76.38419493533601
9.61,6.63,0.31,0.7736803581869984,0.4784479749528319,-1.8371297230374968,-91.84507796689996,-10.64941932234672,-76.38419493533601
10.11,7.74,-0.51,0.8610526124110397,0.3270991022860414,-2.9028501701854434,-94.20961276881576,-15.945255673236543,-73.33924904872958
10.11,7.74,-0.51,0.8610526124110397,0.3270991022860414,-2.9028501701854434,-94.20961276881576,-15.945255673236543,-73.33924904872958
8.18,8.03,1.46,3.0968150051789687,1.622671685181906,-1.2070493524340955,-96.3181978572216,-20.14567756040377,-69.93336466039091
8.18,8.03,1.46,3.0968150051789687,1.622671685181906,-1.2070493524340955,-96.3181978572216,-20.14567756040377,-69.93336466039091
8.84,8.46,-0.51,2.380534034840198,0.3218828526572617,-2.201961457538824,-97.52784465140512,-26.582368805630427,-66.63800657923225
8.84,8.46,-0.51,2.380534034840198,0.3218828526572617,-2.201961457538824,-97.52784465140512,-26.582368805630427,-66.63800657923225
8.68,7.59,-2.45,1.3172604273367017,-0.9081401545470288,-1.8720959269508888,-99.14020348928253,-31.614261757826505,-63.40381821677742
8.68,7.59,-2.45,1.3172604273367017,-0.9081401545470288,-1.8720959269508888,-99.14020348928253,-31.614261757826505,-63.40381821677742
7.42,6.08,-2.49,1.876508009838044,-1.4641083773096109,0.1859429392634837,-102.28340450662311,-38.24633966792924,-57.540683062151366
7.42,6.08,-2.49,1.876508009838044,-1.4641083773096109,0.1859429392634837,-102.28340450662311,-38.24633966792924,-57.540683062151366
6.72,3.94,-3.9,0.420733885559332,-2.576227282064015,1.4953302498826204,-104.16566658300285,-43.01216531236248,-53.21805950342704
6.72,3.94,-3.9,0.420733885559332,-2.576227282064015,1.4953302498826204,-104.16566658300285,-43.01216531236248,-53.21805950342704
6.7,4.33,-5.18,0.3586187061818289,-2.4419664515290864,0.6208189285518131,-105.93613916476912,-48.2463939213804,-47.92015436839679
6.7,4.33,-5.18,0.3586187061818289,-2.4419664515290864,0.6208189285518131,-105.93613916476912,-48.2463939213804,-47.92015436839679
6.37,3.46,-6.29,-0.0806957052454941,-2.7664956704373136,0.6168409754007094,-108.05519160220844,-52.6036825036909,-41.84440708007335
6.37,3.46,-6.29,-0.0806957052454941,-2.7664956704373136,0.6168409754007094,-108.05519160220844,-52.6036825036909,-41.84440708007335
4.95,2.82,-5.82,0.1178035410358389,-2.1503307393544744,1.9523836410644515,-110.1495692444103,-55.135868994465206,-36.40785062374676
4.95,2.82,-5.82,0.1178035410358389,-2.1503307393544744,1.9523836410644515,-110.1495692444103,-55.135868994465206,-36.40785062374676
4.2,2.01,-6.25,-0.0310543006585346,-2.119746031411122,2.306762507995374,-112.50626800349724,-57.93324098050171,-29.19178700040293
4.2,2.01,-6.25,-0.0310543006585346,-2.119746031411122,2.306762507995374,-112.50626800349724,-57.93324098050171,-29.19178700040293
2.95,1.5,-6.89,-0.6467339890666572,-1.4397431152791118,2.3277814418962848,-113.48199585621887,-59.695899058507344,-24.40881688456287
2.95,1.5,-6.89,-0.6467339890666572,-1.4397431152791118,2.3277814418962848,-113.48199585621887,-59.695899058507344,-24.40881688456287
2.92,2.15,-7.64,0.3212216793548233,-1.3615952966292573,1.466303791304011,-114.44938861164486,-61.34098184227653,-18.634392500869453
2.92,2.15,-7.64,0.3212216793548233,-1.3615952966292573,1.466303791304011,-114.44938861164486,-61.34098184227653,-18.634392500869453
2.91,1.42,-9.22,-0.0830796297353544,-1.872660697700845,0.2160744340389211,-115.30102772408485,-62.15539687050149,-14.01508470303339
2.91,1.42,-9.22,-0.0830796297353544,-1.872660697700845,0.2160744340389211,-115.30102772408485,-62.15539687050149,-14.01508470303339
1.69,0.64,-8.96,-0.20079959706687,-1.519458395234362,0.7956441900490551,-116.18445627109944,-62.85241532591269,-7.315910364212048
1.69,0.64,-8.96,-0.20079959706687,-1.519458395234362,0.7956441900490551,-116.18445627109944,-62.85241532591269,-7.315910364212048
0.56,-0.77,-9.11,-1.1320247922947653,-1.425684733487131,0.8297606216946338,-116.4668582991344,-63.22880649321045,-1.8220825674649568
0.56,-0.77,-9.11,-1.1320247922947653,-1.425684733487131,0.8297606216946338,-116.4668582991344,-63.22880649321045,-1.8220825674649568
0.46,-0.74,-9.88,-0.5544597355874101,-1.6337721246532066,0.0395131090621809,-117.0570088918249,-62.6779190768701,2.154448233767236
0.46,-0.74,-9.88,-0.5544597355874101,-1.6337721246532066,0.0395131090621809,-117.0570088918249,-62.6779190768701,2.154448233767236
-0.92,-0.78,-8.73,-0.3779471500481344,-0.7878553919603971,1.037149453610292,-117.63003319551184,-61.48758848560482,8.292204739238791
-0.92,-0.78,-8.73,-0.3779471500481344,-0.7878553919603971,1.037149453610292,-117.63003319551184,-61.48758848560482,8.292204739238791
-1.79,-1.28,-8.01,-0.7708856462161582,-0.5073487114210082,1.5512921879195734,-117.3429325945059,-60.88853462317393,12.538402281482076
-1.79,-1.28,-8.01,-0.7708856462161582,-0.5073487114210082,1.5512921879195734,-117.3429325945059,-60.88853462317393,12.538402281482076
-2.16,-1.27,-7.79,-0.4157797237952836,-0.5382920251144946,1.651898690672482,-117.10092120050626,-59.73553808607135,17.230672895970507
-2.16,-1.27,-7.79,-0.4157797237952836,-0.5382920251144946,1.651898690672482,-117.10092120050626,-59.73553808607135,17.230672895970507
-2.87,-1.22,-7.26,-0.4906685418072018,-0.0702777014076433,1.920763529427041,-116.96926663704076,-58.73375160745704,20.23879269230359
-2.87,-1.22,-7.26,-0.4906685418072018,-0.0702777014076433,1.920763529427041,-116.96926663704076,-58.73375160745704,20.23879269230359
-3.22,-1.7,-7.25,-0.7498921674014771,-0.3169150274923244,1.7345916130320609,-116.79410996273164,-57.5799055437906,23.155792207151627
-3.22,-1.7,-7.25,-0.7498921674014771,-0.3169150274923244,1.7345916130320609,-116.79410996273164,-57.5799055437906,23.155792207151627
-3.38,-0.98,-7.4,-0.0042742981309139,-0.094695448035204,1.6130052369841597,-116.72853831267862,-56.62756576019291,25.065778823031927
-3.38,-0.98,-7.4,-0.0042742981309139,-0.094695448035204,1.6130052369841597,-116.72853831267862,-56.62756576019291,25.065778823031927
-3.68,-1.22,-7.65,-0.1190009176886651,-0.2016465762905218,1.2335246982293828,-116.77224597329428,-55.89988753147071,26.35870385587789
-3.68,-1.22,-7.65,-0.1190009176886651,-0.2016465762905218,1.2335246982293828,-116.77224597329428,-55.89988753147071,26.35870385587789
-3.81,-1.53,-8.37,0.0120848158412144,-0.6424352506138575,0.5060569594463598,-116.83785829536993,-54.96788438262905,27.89113735405041
-3.81,-1.53,-8.37,0.0120848158412144,-0.6424352506138575,0.5060569594463598,-116.83785829536993,-54.96788438262905,27.89113735405041
-4.28,-1.77,-8.56,-0.1246158499242543,-0.6311170292242128,0.095261727184889,-116.66302751124852,-54.27146504851861,29.36944254732168
-4.28,-1.77,-8.56,-0.1246158499242543,-0.6311170292242128,0.095261727184889,-116.66302751124852,-54.27146504851861,29.36944254732168
-5.17,-1.43,-7.59,-0.3436919096667026,0.2842744527597352,0.5231719929846417,-115.96798233708935,-53.525866533741606,31.697637029521523
-5.17,-1.43,-7.59,-0.3436919096667026,0.2842744527597352,0.5231719929846417,-115.96798233708935,-53.525866533741606,31.697637029521523
-5.56,-1.61,-7.16,-0.658713552486142,0.4718336526560352,0.6352395599426828,-115.55847283517146,-53.01308485730727,33.11769717298479
-5.56,-1.61,-7.16,-0.658713552486142,0.4718336526560352,0.6352395599426828,-115.55847283517146,-53.01308485730727,33.11769717298479
-5.35,-1.26,-7.83,0.1127489321678204,0.1756378231232916,0.2423706736009894,-115.472556014324,-52.42479644291255,34.087279935508434
-5.35,-1.26,-7.83,0.1127489321678204,0.1756378231232916,0.2423706736009894,-115.472556014324,-52.42479644291255,34.087279935508434
-5.31,-0.81,-7.85,0.591844542578092,0.3231152993160751,0.3187621138175132,-115.23680905302648,-52.09294338177222,34.89118212049759
-5.31,-0.81,-7.85,0.591844542578092,0.3231152993160751,0.3187621138175132,-115.23680905302648,-52.09294338177222,34.89118212049759
-5.53,-1.6,-7.53,-0.0442919889948673,0.0206552170328081,0.3282845511623034,-114.5341088647508,-51.837991208733065,36.34754136011127
-5.53,-1.6,-7.53,-0.0442919889948673,0.0206552170328081,0.3282845511623034,-114.5341088647508,-51.837991208733065,36.34754136011127
-5.7,-1.9,-7.21,-0.2922650664269965,0.0284871052119963,0.42593203090067,-113.98515404910734,-51.55786178927636,37.616257937648726
-5.7,-1.9,-7.21,-0.2922650664269965,0.0284871052119963,0.42593203090067,-113.98515404910734,-51.55786178927636,37.616257937648726
-5.56,-1.81,-7.71,0.1688200527102024,-0.2229029567681372,0.1342348899219079,-113.75411958451244,-51.46879911376182,38.14932632838656
-5.56,-1.81,-7.71,0.1688200527102024,-0.2229029567681372,0.1342348899219079,-113.75411958451244,-51.46879911376182,38.14932632838656
-5.9,-1.79,-7.18,-0.0837738925256285,0.1867292159879648,0.3449052277696882,-113.1900371366138,-51.48152030899618,38.97485427752672
-5.9,-1.79,-7.18,-0.0837738925256285,0.1867292159879648,0.3449052277696882,-113.1900371366138,-51.48152030899618,38.97485427752672
-5.95,-2.26,-7.06,-0.4053122075805666,-0.0278318319583326,0.3098796330006994,-112.79560178360884,-51.443358765022325,39.61974059674283
-5.95,-2.26,-7.06,-0.4053122075805666,-0.0278318319583326,0.3098796330006994,-112.79560178360884,-51.443358765022325,39.61974059674283
-6.14,-2.28,-6.9,-0.4851265523696106,0.1552520039655653,0.3067263664411133,-112.44441011743348,-51.50696474252449,40.1073131219034
-6.14,-2.28,-6.9,-0.4851265523696106,0.1552520039655653,0.3067263664411133,-112.44441011743348,-51.50696474252449,40.1073131219034
-5.67,-2.43,-7.34,-0.1587298659433706,-0.3848767908751818,0.2277108789123598,-112.42380191368638,-51.57058775662223,40.13171155486349
-5.67,-2.43,-7.34,-0.1587298659433706,-0.3848767908751818,0.2277108789123598,-112.42380191368638,-51.57058775662223,40.13171155486349
-5.51,-2.28,-7.57,0.1675201916892886,-0.4703489473623956,0.1830275607575142,-112.21802358107666,-51.736087563875465,40.22932427895751
-5.51,-2.28,-7.57,0.1675201916892886,-0.4703489473623956,0.1830275607575142,-112.21802358107666,-51.736087563875465,40.22932427895751
-5.72,-2.78,-7.16,-0.4523772531257882,-0.4753780974635986,0.2525006142458572,-112.05379617607242,-51.71061852077841,40.52234562197142
-5.72,-2.78,-7.16,-0.4523772531257882,-0.4753780974635986,0.2525006142458572,-112.05379617607242,-51.71061852077841,40.52234562197142
-5.63,-2.54,-7.36,-0.1131545178650545,-0.4638824836492868,0.2102908416290478,-111.95133120994127,-51.77429627625306,40.607862210384674
-5.63,-2.54,-7.36,-0.1131545178650545,-0.4638824836492868,0.2102908416290478,-111.95133120994127,-51.77429627625306,40.607862210384674
-5.7,-2.48,-7.27,-0.1394944412442867,-0.3447249680578237,0.2486687279290258,-111.91038320685794,-51.78703388751428,40.6200807923672
-5.7,-2.48,-7.27,-0.1394944412442867,-0.3447249680578237,0.2486687279290258,-111.91038320685794,-51.78703388751428,40.6200807923672
-5.8,-2.37,-7.27,-0.0974806829349035,-0.1955056344958204,0.2117516126623346,-111.9308545002648,-51.837991208733065,40.57120935574602
-5.8,-2.37,-7.27,-0.0974806829349035,-0.1955056344958204,0.2117516126623346,-111.9308545002648,-51.837991208733065,40.57120935574602
-5.6,-2.35,-7.85,0.2963351516435875,-0.5236628451671499,-0.1000630120182552,-111.95133120994127,-51.876216427159775,40.48570286910027
-5.6,-2.35,-7.85,0.2963351516435875,-0.5236628451671499,-0.1000630120182552,-111.95133120994127,-51.876216427159775,40.48570286910027
-5.81,-2.54,-7.35,-0.1686840041966278,-0.2977328170390712,0.1054593062559501,-111.86945684906637,-51.9017033518216,40.59564411041757
-5.81,-2.54,-7.35,-0.1686840041966278,-0.2977328170390712,0.1054593062559501,-111.86945684906637,-51.9017033518216,40.59564411041757
-5.7,-2.57,-7.59,-0.0077179461249845,-0.4618121023440254,-0.0162655557520814,-111.82855209706509,-51.95268548055449,40.607862210384674
-5.7,-2.57,-7.59,-0.0077179461249845,-0.4618121023440254,-0.0162655557520814,-111.82855209706509,-51.95268548055449,40.607862210384674
-5.78,-2.44,-7.58,0.0830468518022469,-0.3248243391814685,-0.02727049841166,-111.7059670825154,-51.96543273918856,40.75451706328899
-5.78,-2.44,-7.58,0.0830468518022469,-0.3248243391814685,-0.02727049841166,-111.7059670825154,-51.96543273918856,40.75451706328899
-5.86,-2.31,-7.32,0.0243333141488163,-0.0983447714551599,0.1501580802731492,-111.6243510494048,-51.9909293300881,40.84009791641019
-5.86,-2.31,-7.32,0.0243333141488163,-0.0983447714551599,0.1501580802731492,-111.6243510494048,-51.9909293300881,40.84009791641019
-5.82,-2.28,-7.44,0.1564828083012849,-0.1591778109741426,0.0919922316995833,-111.46137512854489,-52.05468291613776,41.0113310955595
-5.82,-2.28,-7.44,0.1564828083012849,-0.1591778109741426,0.0919922316995833,-111.46137512854489,-52.05468291613776,41.0113310955595
-5.95,-2.62,-7.21,-0.2155434713944291,-0.2018458154917721,0.10284665910795,-111.1972622086614,-52.09294338177222,41.34183738204944
-5.95,-2.62,-7.21,-0.2155434713944291,-0.2018458154917721,0.10284665910795,-111.1972622086614,-52.09294338177222,41.34183738204944
-6.12,-2.51,-6.9,-0.2771982710202143,0.0704073079187219,0.2524517641701056,-110.75231492282506,-52.16948305371096,41.881213444145885
-6.12,-2.51,-6.9,-0.2771982710202143,0.0704073079187219,0.2524517641701056,-110.75231492282506,-52.16948305371096,41.881213444145885
-5.9,-2.67,-7.16,-0.1262714386936576,-0.2826756115801229,0.1573676421047736,-110.5307773959204,-52.23328523623708,42.151265384526
-5.9,-2.67,-7.16,-0.1262714386936576,-0.2826756115801229,0.1573676421047736,-110.5307773959204,-52.23328523623708,42.151265384526
-5.94,-2.74,-6.92,-0.2712227375066081,-0.1897790818111833,0.2899267127142781,-110.3098558920654,-52.29710483920904,42.396980116115046
-5.94,-2.74,-6.92,-0.2712227375066081,-0.1897790818111833,0.2899267127142781,-110.3098558920654,-52.29710483920904,42.396980116115046
-5.89,-2.82,-7.16,-0.1577451731797866,-0.3464244230701965,0.1234064019364353,-110.2096390648013,-52.37371140576522,42.45844069063149
-5.89,-2.82,-7.16,-0.1577451731797866,-0.3464244230701965,0.1234064019364353,-110.2096390648013,-52.37371140576522,42.45844069063149
-5.96,-2.57,-6.97,-0.0882285826830738,-0.0682043668497447,0.2832596435386847,-110.08954448644468,-52.47589269472505,42.50761837071936
-5.96,-2.57,-6.97,-0.0882285826830738,-0.0682043668497447,0.2832596435386847,-110.08954448644468,-52.47589269472505,42.50761837071936
-5.87,-2.8,-7.21,-0.0820337423250927,-0.3498564272962359,0.1034613001240831,-110.0695462273055,-52.488668512026216,42.54450701803225
-5.87,-2.8,-7.21,-0.0820337423250927,-0.3498564272962359,0.1034613001240831,-110.0695462273055,-52.488668512026216,42.54450701803225
-6.04,-2.83,-7.1,-0.1991951213427161,-0.1950131870398781,0.0689505201169922,-109.96962968750276,-52.527000178757774,42.64289936464318
-6.04,-2.83,-7.1,-0.1991951213427161,-0.1950131870398781,0.0689505201169922,-109.96962968750276,-52.527000178757774,42.64289936464318
-5.96,-2.59,-7.26,0.0884550728964159,-0.1600361137504433,0.0647885689194627,-109.96962968750276,-52.578118912593965,42.56910201801789
-5.96,-2.59,-7.26,0.0884550728964159,-0.1600361137504433,0.0647885689194627,-109.96962968750276,-52.578118912593965,42.56910201801789
-5.86,-2.64,-7.39,0.1634037937886145,-0.3184875756330434,0.0192517315967517,-109.90973941260324,-52.6036825036909,42.61829818967321
-5.86,-2.64,-7.39,0.1634037937886145,-0.3184875756330434,0.0192517315967517,-109.90973941260324,-52.6036825036909,42.61829818967321
-6.19,-2.71,-7.01,-0.2035925221648789,-0.0018952929795004,0.0722344298292316,-109.81002132963994,-52.61646535624809,42.72901972322527
-6.19,-2.71,-7.01,-0.2035925221648789,-0.0018952929795004,0.0722344298292316,-109.81002132963994,-52.61646535624809,42.72901972322527
-5.93,-2.66,-7.3,0.0844417660871755,-0.2596484650167361,0.0364937953759128,-109.75024971660667,-52.70596508072085,42.70441132531611
-5.93,-2.66,-7.3,0.0844417660871755,-0.2596484650167361,0.0364937953759128,-109.75024971660667,-52.70596508072085,42.70441132531611
-6.04,-2.72,-7.03,-0.1310064121442942,-0.1274486358278914,0.1491402710272815,-109.65072872045307,-52.71875358132653,42.8397831220635
-6.04,-2.72,-7.03,-0.1310064121442942,-0.1274486358278914,0.1491402710272815,-109.65072872045307,-52.71875358132653,42.8397831220635
-6.06,-2.64,-7.08,-0.0293994238555912,-0.0963220349122999,0.1211217366853301,-109.5116049915234,-52.769914659011285,42.97521768410124
-6.06,-2.64,-7.08,-0.0293994238555912,-0.0963220349122999,0.1211217366853301,-109.5116049915234,-52.769914659011285,42.97521768410124
-5.99,-2.66,-7.18,0.0448960618042856,-0.1968692972807936,0.0872196245395837,-109.43221295455638,-52.821087070408176,43.024482231439535
-5.99,-2.66,-7.18,0.0448960618042856,-0.1968692972807936,0.0872196245395837,-109.43221295455638,-52.821087070408176,43.024482231439535
-6.02,-2.56,-6.92,-0.0270230681502496,-0.0208184004040477,0.2840854111934554,-109.3132704221292,-52.88506854972636,43.08607465863793
-6.02,-2.56,-6.92,-0.0270230681502496,-0.0208184004040477,0.2840854111934554,-109.3132704221292,-52.88506854972636,43.08607465863793
-5.91,-2.9,-7.19,-0.0848407683296634,-0.3899735218854608,0.0662740988215713,-109.253864399006,-52.96186978619433,43.08607465863793
-5.91,-2.9,-7.19,-0.0848407683296634,-0.3899735218854608,0.0662740988215713,-109.253864399006,-52.96186978619433,43.08607465863793
-6.05,-2.87,-7.14,-0.1178255271603392,-0.2624842050937639,0.0221612965865372,-109.11541872598389,-53.038696673597066,43.20929875568471
-6.05,-2.87,-7.14,-0.1178255271603392,-0.2624842050937639,0.0221612965865372,-109.11541872598389,-53.038696673597066,43.20929875568471
-6.13,-2.85,-6.95,-0.2182038701039357,-0.1270221884573474,0.114480354625897,-109.01667267342908,-53.038696673597066,43.32024532286975
-6.13,-2.85,-6.95,-0.2182038701039357,-0.1270221884573474,0.114480354625897,-109.01667267342908,-53.038696673597066,43.32024532286975
-6.14,-2.8,-6.93,-0.1826594816754612,-0.084856659401461,0.1358726340842047,-108.9180458077566,-53.11554927222101,43.39423340067783
-6.14,-2.8,-6.93,-0.1826594816754612,-0.084856659401461,0.1358726340842047,-108.9180458077566,-53.11554927222101,43.39423340067783
-6.14,-2.8,-7.06,-0.1041966452081446,-0.1369999604601426,0.0417345333939866,-108.85892668852873,-53.153985232120654,43.41890031609472
-6.14,-2.8,-7.06,-0.1041966452081446,-0.1369999604601426,0.0417345333939866,-108.85892668852873,-53.153985232120654,43.41890031609472
-6.06,-2.73,-7.19,0.0579371148333683,-0.2134798946411762,0.0176934863919857,-108.70148376565116,-53.25651268144825,43.49291375439449
-6.06,-2.73,-7.19,0.0579371148333683,-0.2134798946411762,0.0176934863919857,-108.70148376565116,-53.25651268144825,43.49291375439449
-6.05,-2.74,-7.07,0.0071321332875064,-0.1870134795686128,0.1081977992035003,-108.58359923261342,-53.29497233017572,43.62865462912293
-6.05,-2.74,-7.07,0.0071321332875064,-0.1870134795686128,0.1081977992035003,-108.58359923261342,-53.29497233017572,43.62865462912293
-6.12,-2.84,-6.97,-0.1011053158895719,-0.1686679763037382,0.1080816093111725,-108.34833475115198,-53.34626194049607,43.90032983148112
-6.12,-2.84,-6.97,-0.1011053158895719,-0.1686679763037382,0.1080816093111725,-108.34833475115198,-53.34626194049607,43.90032983148112
