acc_x,acc_y,acc_z,lin_x,lin_y,lin_z,eul_x,eul_y,eul_z
-5.01,-2.43,-7.91,-0.1331334763025106,-0.001846419494573,0.1342473993933293,-116.18445627109944,-51.91444784867411,34.435022863600715
-5.01,-2.43,-7.91,-0.1331334763025106,-0.001846419494573,0.1342473993933293,-116.18445627109944,-51.91444784867411,34.435022863600715
-4.88,-2.47,-8.2,0.0312911656648188,-0.1916939376148441,-0.0481749247377809,-116.22782989578606,-51.91444784867411,34.375043949019776
-4.88,-2.47,-8.2,0.0312911656648188,-0.1916939376148441,-0.0481749247377809,-116.22782989578606,-51.91444784867411,34.375043949019776
-4.99,-2.6,-8.07,-0.1771689981185102,-0.1550896788455402,-0.028468623464656,-116.22782989578606,-51.927193035567214,34.387038954542724
-4.99,-2.6,-8.07,-0.1771689981185102,-0.1550896788455402,-0.028468623464656,-116.22782989578606,-51.927193035567214,34.387038954542724
-5.0,-2.29,-8.07,0.040936581305463,0.0270698369785158,0.0410680193786205,-116.18445627109944,-51.95268548055449,34.375043949019776
-5.0,-2.29,-8.07,0.040936581305463,0.0270698369785158,0.0410680193786205,-116.18445627109944,-51.95268548055449,34.375043949019776
-5.03,-2.37,-8.04,-0.0416122873452115,0.0108586796424858,0.0312957605558725,-116.22782989578606,-51.9017033518216,34.39903434859307
-5.03,-2.37,-8.04,-0.0416122873452115,0.0108586796424858,0.0312957605558725,-116.22782989578606,-51.9017033518216,34.39903434859307
-4.94,-2.37,-8.06,0.0025505298086822,-0.0542388488765444,0.0608226035153745,-116.24952660685352,-51.9017033518216,34.351055102879386
-4.94,-2.37,-8.06,0.0025505298086822,-0.0542388488765444,0.0608226035153745,-116.24952660685352,-51.9017033518216,34.351055102879386
-5.08,-2.45,-7.9,-0.1915003018777019,0.0440080009140433,0.1019969443654833,-116.24952660685352,-51.88895954474002,34.387038954542724
-5.08,-2.45,-7.9,-0.1915003018777019,0.0440080009140433,0.1019969443654833,-116.24952660685352,-51.88895954474002,34.387038954542724
-5.0,-2.32,-7.95,-0.0448740188869013,0.0561122409245296,0.1329879354637704,-116.22782989578606,-51.95268548055449,34.315074743396394
-5.0,-2.32,-7.95,-0.0448740188869013,0.0561122409245296,0.1329879354637704,-116.22782989578606,-51.95268548055449,34.315074743396394
-4.96,-2.37,-8.16,0.0281254644838065,-0.0374752445062562,-0.0321458899601534,-116.3146564167026,-51.93993891277072,34.19516537453249
-4.96,-2.37,-8.16,0.0281254644838065,-0.0374752445062562,-0.0321458899601534,-116.3146564167026,-51.93993891277072,34.19516537453249
-4.86,-2.62,-8.12,-0.1336815987405278,-0.2337392617519522,-0.0089444897735972,-116.3581094221592,-51.95268548055449,34.14721243955784
-4.86,-2.62,-8.12,-0.1336815987405278,-0.2337392617519522,-0.0089444897735972,-116.3581094221592,-51.95268548055449,34.14721243955784
-4.93,-2.5,-8.03,-0.1231354288827847,-0.0799390577873655,0.0591248057163813,-116.3581094221592,-51.93993891277072,34.111251783016854
-4.93,-2.5,-8.03,-0.1231354288827847,-0.0799390577873655,0.0591248057163813,-116.3581094221592,-51.93993891277072,34.111251783016854
-4.96,-2.37,-8.23,0.0461480834175806,-0.0295774257014236,-0.0902381740820832,-116.40158899740273,-51.95268548055449,34.039340850884635
-4.96,-2.37,-8.23,0.0461480834175806,-0.0295774257014236,-0.0902381740820832,-116.40158899740273,-51.95268548055449,34.039340850884635
-4.91,-2.51,-8.2,-0.053130371638156,-0.1390349969122593,-0.0739393768156979,-116.44509519750316,-51.927193035567214,34.015373611081245
-4.91,-2.51,-8.2,-0.053130371638156,-0.1390349969122593,-0.0739393768156979,-116.44509519750316,-51.927193035567214,34.015373611081245
-4.96,-2.43,-8.03,-0.1024613404394412,-0.0139818929861721,0.061050676182921,-116.4886280777146,-51.876216427159775,34.015373611081245
-4.96,-2.43,-8.03,-0.1024613404394412,-0.0139818929861721,0.061050676182921,-116.4886280777146,-51.876216427159775,34.015373611081245
-4.99,-2.35,-7.99,-0.0833203564768381,0.0670941242342786,0.0983413884709119,-116.53218769347627,-51.86347399881144,33.9794256257345
-4.99,-2.35,-7.99,-0.0833203564768381,0.0670941242342786,0.0983413884709119,-116.53218769347627,-51.86347399881144,33.9794256257345
-4.92,-2.47,-8.19,-0.0583200102127945,-0.1007916111269262,-0.0609657113831314,-116.66302751124852,-51.77429627625306,33.871602322817786
-4.92,-2.47,-8.19,-0.0583200102127945,-0.1007916111269262,-0.0609657113831314,-116.66302751124852,-51.77429627625306,33.871602322817786
-4.89,-2.22,-8.01,0.0357870497385544,0.0845379930606293,0.1634050785640486,-116.77224597329428,-51.736087563875465,33.763809904650955
-4.89,-2.22,-8.01,0.0357870497385544,0.0845379930606293,0.1634050785640486,-116.77224597329428,-51.736087563875465,33.763809904650955
-4.99,-2.51,-7.96,-0.2558157092323563,0.0090085923348255,0.0857304360814659,-116.88163381383896,-51.67242009850218,33.69196539056284
-4.99,-2.51,-7.96,-0.2558157092323563,0.0090085923348255,0.0857304360814659,-116.88163381383896,-51.67242009850218,33.69196539056284
-4.75,-2.5,-8.09,-0.1067822976781954,-0.1717219093915407,0.099966265235718,-117.07896160834984,-51.608769756507385,33.46454755353707
-4.75,-2.5,-8.09,-0.1067822976781954,-0.1717219093915407,0.099966265235718,-117.07896160834984,-51.608769756507385,33.46454755353707
-4.64,-2.5,-7.92,-0.2137234330787742,-0.1595174471603575,0.2969246370778684,-117.4973779425748,-51.50696474252449,32.92646520492445
-4.64,-2.5,-7.92,-0.2137234330787742,-0.1595174471603575,0.2969246370778684,-117.4973779425748,-51.50696474252449,32.92646520492445
-4.31,-2.24,-8.26,0.2280281937242973,-0.2954203891283801,0.2315766354479542,-117.85169099664296,-51.41792113681584,32.472665833224625
-4.31,-2.24,-8.26,0.2280281937242973,-0.2954203891283801,0.2315766354479542,-117.85169099664296,-51.41792113681584,32.472665833224625
-4.55,-2.32,-7.77,-0.2371912635838135,-0.0279593789935237,0.5114491642135109,-118.18551847027427,-51.3034854195264,32.09092481112806
-4.55,-2.32,-7.77,-0.2371912635838135,-0.0279593789935237,0.5114491642135109,-118.18551847027427,-51.3034854195264,32.09092481112806
-4.69,-2.26,-7.47,-0.51902644457611,0.2410014733121721,0.7194540716790954,-118.79053985855312,-51.18910455675295,31.26903222594612
-4.69,-2.26,-7.47,-0.51902644457611,0.2410014733121721,0.7194540716790954,-118.79053985855312,-51.18910455675295,31.26903222594612
-4.19,-2.06,-8.02,-0.1320229280046834,0.0003534516394014,0.5274975698718567,-119.92546492630352,-51.0747783558906,29.476070502113327
-4.19,-2.06,-8.02,-0.1320229280046834,0.0003534516394014,0.5274975698718567,-119.92546492630352,-51.0747783558906,29.476070502113327
-3.91,-2.12,-8.35,-0.0828149333124282,-0.2175460777316044,0.3488058803877472,-120.8011763350936,-50.92242811941736,28.16278249153404
-3.91,-2.12,-8.35,-0.0828149333124282,-0.2175460777316044,0.3488058803877472,-120.8011763350936,-50.92242811941736,28.16278249153404
-4.02,-2.35,-8.15,-0.5231120297211229,-0.1684456606577016,0.4363042292310997,-121.40719542947475,-50.782858416372434,27.26577791911556
-4.02,-2.35,-8.15,-0.5231120297211229,-0.1684456606577016,0.4363042292310997,-121.40719542947475,-50.782858416372434,27.26577791911556
-3.99,-2.18,-7.96,-0.7058223429672233,0.0781392861746823,0.6671856244403251,-122.51745226375392,-50.56731827609278,25.523799625853453
-3.99,-2.18,-7.96,-0.7058223429672233,0.0781392861746823,0.6671856244403251,-122.51745226375392,-50.56731827609278,25.523799625853453
-3.35,-1.31,-8.78,0.3246907441171426,0.1091370667087026,0.3245792862078449,-123.502242338284,-50.49129103156368,23.694122645249475
-3.35,-1.31,-8.78,0.3246907441171426,0.1091370667087026,0.3245792862078449,-123.502242338284,-50.49129103156368,23.694122645249475
-3.26,-1.29,-8.85,0.1042589708669101,0.1786641375166685,0.2897487609958258,-124.57692406667049,-50.35196946524382,21.660511797125544
-3.26,-1.29,-8.85,0.1042589708669101,0.1786641375166685,0.2897487609958258,-124.57692406667049,-50.35196946524382,21.660511797125544
-2.94,-1.53,-8.94,-0.061758585564588,-0.120909609467533,0.2730427738002827,-125.22107317255428,-50.27600944578726,20.308637900960072
-2.94,-1.53,-8.94,-0.061758585564588,-0.120909609467533,0.2730427738002827,-125.22107317255428,-50.27600944578726,20.308637900960072
-2.77,-1.76,-9.29,-0.2969635742386132,-0.2551466678902786,-0.0382122546707037,-126.2513038466384,-50.0103350226896,18.390575402245243
-2.77,-1.76,-9.29,-0.2969635742386132,-0.2551466678902786,-0.0382122546707037,-126.2513038466384,-50.0103350226896,18.390575402245243
-2.19,-1.55,-10.21,0.2159024210900583,-0.5393720986012206,-0.7339934283594847,-127.01685959928788,-49.84601386938241,16.813549410004512
-2.19,-1.55,-10.21,0.2159024210900583,-0.5393720986012206,-0.7339934283594847,-127.01685959928788,-49.84601386938241,16.813549410004512
-2.2,-1.65,-10.04,-0.1834558412537176,-0.4428271113322248,-0.5921166626277863,-127.97542141388575,-49.45461164689416,15.112560354905924
-2.2,-1.65,-10.04,-0.1834558412537176,-0.4428271113322248,-0.5921166626277863,-127.97542141388575,-49.45461164689416,15.112560354905924
-1.56,-1.26,-10.55,0.4061858274170198,-0.6201086025385555,-0.9066211341897484,-128.76486449761614,-49.07642066173354,13.79574779269871
-1.56,-1.26,-10.55,0.4061858274170198,-0.6201086025385555,-0.9066211341897484,-128.76486449761614,-49.07642066173354,13.79574779269871
-1.36,-1.16,-10.95,0.4645388872591781,-0.6835411701407703,-1.2574665526645925,-129.72743673627951,-48.45992930219389,12.561458728935325
-1.36,-1.16,-10.95,0.4645388872591781,-0.6835411701407703,-1.2574665526645925,-129.72743673627951,-48.45992930219389,12.561458728935325
-1.25,-1.1,-10.42,0.3369803515055912,-0.7100544448883136,-0.7162377656275307,-130.6800872399157,-47.68200947327645,11.916067673936476
-1.25,-1.1,-10.42,0.3369803515055912,-0.7100544448883136,-0.7162377656275307,-130.6800872399157,-47.68200947327645,11.916067673936476
-0.99,-1.29,-10.64,0.2729088708630183,-1.028355905737192,-0.904176526432952,-131.59437695002578,-46.94389240735087,11.155913338134187
-0.99,-1.29,-10.64,0.2729088708630183,-1.028355905737192,-0.904176526432952,-131.59437695002578,-46.94389240735087,11.155913338134187
-0.93,-0.74,-10.76,0.593438894423931,-0.7490300066310824,-0.9765259851980144,-132.55366749345723,-46.09573205363145,10.534336497867196
-0.93,-0.74,-10.76,0.593438894423931,-0.7490300066310824,-0.9765259851980144,-132.55366749345723,-46.09573205363145,10.534336497867196
-1.51,-0.26,-10.16,0.3135774422547109,-0.1798357664565694,-0.4618761008974434,-133.64792062272215,-44.989651826175965,10.361732200036483
-1.51,-0.26,-10.16,0.3135774422547109,-0.1798357664565694,-0.4618761008974434,-133.64792062272215,-44.989651826175965,10.361732200036483
-1.87,-0.49,-9.72,-0.254362437661104,-0.2844347147115846,-0.0963695719979327,-134.8267795347168,-43.6780308968355,10.407757691617306
-1.87,-0.49,-9.72,-0.254362437661104,-0.2844347147115846,-0.0963695719979327,-134.8267795347168,-43.6780308968355,10.407757691617306
-1.83,0.73,-10.08,0.5027214353034944,0.3140004877685633,-0.4469773997140862,-135.7608376875957,-42.66750260124336,10.05110359058591
-1.83,0.73,-10.08,0.5027214353034944,0.3140004877685633,-0.4469773997140862,-135.7608376875957,-42.66750260124336,10.05110359058591
-1.92,1.45,-10.19,0.7497112916259592,0.5848597596893002,-0.6202801350255882,-136.68295663578678,-41.47659109099214,9.798053639345571
-1.92,1.45,-10.19,0.7497112916259592,0.5848597596893002,-0.6202801350255882,-136.68295663578678,-41.47659109099214,9.798053639345571
-2.19,1.62,-9.97,0.5778817073638504,0.7438803325722222,-0.4857790030636853,-137.27675296577294,-40.64451940316256,9.947577287046574
-2.19,1.62,-9.97,0.5778817073638504,0.7438803325722222,-0.4857790030636853,-137.27675296577294,-40.64451940316256,9.947577287046574
-2.47,1.95,-9.71,0.5519177226209342,0.9920880388296894,-0.3372470889233696,-137.78296246704429,-39.68064610609173,10.52282880334764
-2.47,1.95,-9.71,0.5519177226209342,0.9920880388296894,-0.3372470889233696,-137.78296246704429,-39.68064610609173,10.52282880334764
-2.64,2.28,-9.63,0.6565082475461714,1.1307146687384442,-0.3518627483703831,-137.78296246704429,-39.19372713365675,11.2019689418816
-2.64,2.28,-9.63,0.6565082475461714,1.1307146687384442,-0.3518627483703831,-137.78296246704429,-39.19372713365675,11.2019689418816
-2.92,2.09,-9.57,0.4214565307590881,0.9817317435308436,-0.35887886850578,-137.75115489107054,-38.67110921893018,12.215665087929844
-2.92,2.09,-9.57,0.4214565307590881,0.9817317435308436,-0.35887886850578,-137.75115489107054,-38.67110921893018,12.215665087929844
-3.07,1.75,-9.78,0.4396872013238167,0.6342072225900355,-0.563511829200479,-137.4343266309111,-38.28272700926836,14.188281840563285
-3.07,1.75,-9.78,0.4396872013238167,0.6342072225900355,-0.563511829200479,-137.4343266309111,-38.28272700926836,14.188281840563285
-3.4,1.27,-9.14,0.1329200439947367,0.5508002104339607,-0.011264818844701,-136.90081703525604,-38.07658496090942,16.327188391573927
-3.4,1.27,-9.14,0.1329200439947367,0.5508002104339607,-0.011264818844701,-136.90081703525604,-38.07658496090942,16.327188391573927
-3.59,0.67,-9.15,0.0522248359092084,0.1690160905927356,-0.0436396468903392,-136.15815825603806,-37.88268575548643,18.820214993044136
-3.59,0.67,-9.15,0.0522248359092084,0.1690160905927356,-0.0436396468903392,-136.15815825603806,-37.88268575548643,18.820214993044136
-3.51,0.96,-9.75,0.7334042453615812,0.1683593983666899,-0.5730404253386681,-135.57859793518082,-37.81000260574194,20.39013361769746
-3.51,0.96,-9.75,0.7334042453615812,0.1683593983666899,-0.5730404253386681,-135.57859793518082,-37.81000260574194,20.39013361769746
-3.79,0.62,-9.39,0.7558657499459013,0.1648031683666246,-0.3087890356402738,-134.35177886278402,-37.72522554558885,23.28447580744025
-3.79,0.62,-9.39,0.7558657499459013,0.1648031683666246,-0.3087890356402738,-134.35177886278402,-37.72522554558885,23.28447580744025
-4.1,0.44,-9.07,0.8509027803480125,0.2566864344323953,-0.1169872632606043,-132.72485553305756,-37.83422856646789,26.22926038886817
-4.1,0.44,-9.07,0.8509027803480125,0.2566864344323953,-0.1169872632606043,-132.72485553305756,-37.83422856646789,26.22926038886817
-4.51,-0.54,-8.55,0.5759196032553257,-0.1499002604942536,0.1433148344119832,-130.02500909601727,-37.88268575548643,30.781444422149058
-4.51,-0.54,-8.55,0.5759196032553257,-0.1499002604942536,0.1433148344119832,-130.02500909601727,-37.88268575548643,30.781444422149058
-5.47,-1.24,-6.98,-0.6688019688630147,0.2339408902139337,0.8804595703524836,-127.94929869917114,-37.94326713356112,33.931500337029355
-5.47,-1.24,-6.98,-0.6688019688630147,0.2339408902139337,0.8804595703524836,-127.94929869917114,-37.94326713356112,33.931500337029355
-5.5,-1.17,-6.85,-0.2623694785056273,0.3735164588635442,0.9560541041460516,-125.87228808096124,-38.28272700926836,36.56470362370221
-5.5,-1.17,-6.85,-0.2623694785056273,0.3735164588635442,0.9560541041460516,-125.87228808096124,-38.28272700926836,36.56470362370221
-5.61,-1.22,-6.36,-0.3537774894241625,0.6508310845410902,1.2707633801243716,-124.60157138168796,-38.74398218156732,37.94326713356112
-5.61,-1.22,-6.36,-0.3537774894241625,0.6508310845410902,1.2707633801243716,-124.60157138168796,-38.74398218156732,37.94326713356112
-5.23,-2.52,-6.8,-0.4895710176124052,-0.5475222141960716,0.8957667865538834,-123.86648635871312,-38.987009992065246,38.707543665525726
-5.23,-2.52,-6.8,-0.4895710176124052,-0.5475222141960716,0.8957667865538834,-123.86648635871312,-38.987009992065246,38.707543665525726
-5.49,-3.1,-5.63,-1.5068039600108365,-0.4713972822167682,1.50277581812475,-123.0439366303148,-39.36406449001272,39.46144077446525
-5.49,-3.1,-5.63,-1.5068039600108365,-0.4713972822167682,1.50277581812475,-123.0439366303148,-39.36406449001272,39.46144077446525
-5.06,-3.04,-6.08,-0.982536250854268,-0.7172624677629724,1.4202468932983068,-123.14014055583444,-39.48578948035391,39.21805551339583
-5.06,-3.04,-6.08,-0.982536250854268,-0.7172624677629724,1.4202468932983068,-123.14014055583444,-39.48578948035391,39.21805551339583
-5.06,-3.46,-6.24,-1.2706642038302134,-0.9936514255113812,1.2095069090840571,-123.96398525409832,-39.46144077446525,38.14932632838656
-5.06,-3.46,-6.24,-1.2706642038302134,-0.9936514255113812,1.2095069090840571,-123.96398525409832,-39.46144077446525,38.14932632838656
-5.14,-3.25,-6.42,-1.2664529774084314,-0.8051153661900241,1.091927623289541,-124.9229107357918,-39.32755601712488,36.97527104810168
-5.14,-3.25,-6.42,-1.2664529774084314,-0.8051153661900241,1.091927623289541,-124.9229107357918,-39.32755601712488,36.97527104810168
-4.96,-2.43,-7.09,-0.6739426768858481,-0.4198255224353013,0.8543236096708409,-126.6838681332996,-39.15723801119543,34.71105152226627
-4.96,-2.43,-7.09,-0.6739426768858481,-0.4198255224353013,0.8543236096708409,-126.6838681332996,-39.15723801119543,34.71105152226627
-4.42,-1.52,-7.87,0.1212693045800064,-0.1603703576070079,0.6555148188234199,-128.92411693093345,-38.88977704125324,31.757201337874307
-4.42,-1.52,-7.87,0.1212693045800064,-0.1603703576070079,0.6555148188234199,-128.92411693093345,-38.88977704125324,31.757201337874307
-4.44,-1.54,-8.29,-0.0833212473502566,-0.2070863961218501,0.2798733785880536,-130.65262969629032,-38.58611130749907,29.49976914452507
-4.44,-1.54,-8.29,-0.0833212473502566,-0.2070863961218501,0.2798733785880536,-130.65262969629032,-38.58611130749907,29.49976914452507
-4.21,-1.01,-8.4,-0.0322315829614296,0.0211820170773761,0.356638759413439,-132.49673400768697,-38.306987464775865,26.87682214392707
-4.21,-1.01,-8.4,-0.0322315829614296,0.0211820170773761,0.356638759413439,-132.49673400768697,-38.306987464775865,26.87682214392707
-3.99,-0.87,-8.26,-0.1276071444134758,0.0049391950662577,0.5931657502144301,-133.58972143720712,-38.05234138049009,25.335843929176026
-3.99,-0.87,-8.26,-0.1276071444134758,0.0049391950662577,0.5931657502144301,-133.58972143720712,-38.05234138049009,25.335843929176026
-3.92,-0.83,-8.55,-0.3215413452473367,-0.0497089861011573,0.3699164454273499,-135.12607315636853,-37.65257654707046,23.155792207151627
-3.92,-0.83,-8.55,-0.3215413452473367,-0.0497089861011573,0.3699164454273499,-135.12607315636853,-37.65257654707046,23.155792207151627
-3.28,-0.51,-8.88,0.1182352002220821,-0.2091415769829152,0.3295628822087106,-136.37352437272858,-37.32584976988496,21.25230621784773
-3.28,-0.51,-8.88,0.1182352002220821,-0.2091415769829152,0.3295628822087106,-136.37352437272858,-37.32584976988496,21.25230621784773
-2.82,0.55,-9.05,0.7032944266438264,0.3295645002859693,0.3433438023963866,-137.8466463321347,-37.011521124582174,18.704070115126303
-2.82,0.55,-9.05,0.7032944266438264,0.3295645002859693,0.3433438023963866,-137.8466463321347,-37.011521124582174,18.704070115126303
-2.71,0.72,-9.02,0.4904747239697117,0.4807804447535514,0.3858652816716289,-139.2059212883253,-36.64919229993541,16.350341655632345
-2.71,0.72,-9.02,0.4904747239697117,0.4807804447535514,0.3858652816716289,-139.2059212883253,-36.64919229993541,16.350341655632345
-2.67,-0.02,-9.08,-0.1714290718376878,-0.0468167201832806,0.3438744944709704,-140.1367137765361,-36.38372566673132,14.68496232374226
-2.67,-0.02,-9.08,-0.1714290718376878,-0.0468167201832806,0.3438744944709704,-140.1367137765361,-36.38372566673132,14.68496232374226
-1.93,-0.29,-9.48,-0.0347369287103747,-0.6294974602794446,0.1483931027495675,-141.29579335128196,-36.04615086901799,12.434654560583263
-1.93,-0.29,-9.48,-0.0347369287103747,-0.6294974602794446,0.1483931027495675,-141.29579335128196,-36.04615086901799,12.434654560583263
-1.63,-0.36,-9.62,-0.0383404525167488,-0.8475766258591301,0.0798291487147171,-142.1344807161217,-35.60056506187857,11.121372822035768
-1.63,-0.36,-9.62,-0.0383404525167488,-0.8475766258591301,0.0798291487147171,-142.1344807161217,-35.60056506187857,11.121372822035768
-1.79,-0.17,-9.69,-0.3744188159894189,-0.6221681898762583,-0.0219723497364672,-143.13615512462272,-34.97527349807247,9.292096140833058
-1.79,-0.17,-9.69,-0.3744188159894189,-0.6221681898762583,-0.0219723497364672,-143.13615512462272,-34.97527349807247,9.292096140833058
-1.31,0.53,-9.99,0.1677470276002143,-0.4067331279358247,-0.2732075931096816,-143.94200484154302,-34.375043949019776,7.8212153932673
-1.31,0.53,-9.99,0.1677470276002143,-0.4067331279358247,-0.2732075931096816,-143.94200484154302,-34.375043949019776,7.8212153932673
-1.28,0.43,-10.01,-0.212867461824294,-0.5444076919155783,-0.2770848095177367,-145.10802458844395,-33.380796277367786,5.9958740675037845
-1.28,0.43,-10.01,-0.212867461824294,-0.5444076919155783,-0.2770848095177367,-145.10802458844395,-33.380796277367786,5.9958740675037845
-1.06,0.51,-9.83,-0.3417302663157172,-0.6030908802600733,-0.069184233887837,-146.35265556905202,-32.21017938044361,4.149120969117045
-1.06,0.51,-9.83,-0.3417302663157172,-0.6030908802600733,-0.069184233887837,-146.35265556905202,-32.21017938044361,4.149120969117045
-0.99,1.82,-9.77,0.092789128812237,0.3441231400834683,-0.1742502320448729,-147.15377378773437,-31.221437269957963,2.6473004867786654
-0.99,1.82,-9.77,0.092789128812237,0.3441231400834683,-0.1742502320448729,-147.15377378773437,-31.221437269957963,2.6473004867786654
-0.86,2.98,-9.42,0.3339168544743803,1.1529568804422947,-0.0379215989137247,-147.89138385145154,-29.96215210560615,0.4698267083113723
-0.86,2.98,-9.42,0.3339168544743803,1.1529568804422947,-0.0379215989137247,-147.89138385145154,-29.96215210560615,0.4698267083113723
-0.5,4.1,-9.22,0.8214686944947158,1.9036737908786625,-0.0812019043261766,-148.1827256280383,-29.203628467396108,-1.4553519237055776
-0.5,4.1,-9.22,0.8214686944947158,1.9036737908786625,-0.0812019043261766,-148.1827256280383,-29.203628467396108,-1.4553519237055776
-0.07,4.68,-9.15,0.9894225283533702,2.1782588115289903,-0.1886504762429784,-148.1827256280383,-28.61194247203445,-4.045922594423996
-0.07,4.68,-9.15,0.9894225283533702,2.1782588115289903,-0.1886504762429784,-148.1827256280383,-28.61194247203445,-4.045922594423996
0.03,4.69,-8.98,0.757264106218114,2.2071013898764,-0.0519835020751902,-147.72605283657722,-28.552816976564145,-6.099150260471113
0.03,4.69,-8.98,0.757264106218114,2.2071013898764,-0.0519835020751902,-147.72605283657722,-28.552816976564145,-6.099150260471113
0.22,4.22,-9.28,0.226611706873182,1.7764530944586772,-0.2316796188905954,-146.9114591288739,-28.81302746748213,-8.820799294692952
0.22,4.22,-9.28,0.226611706873182,1.7764530944586772,-0.2316796188905954,-146.9114591288739,-28.81302746748213,-8.820799294692952
1.01,4.1,-10.24,0.3831287694469577,1.208315656257937,-1.1970260049023604,-146.15525518443252,-29.19178700040293,-10.465291924669184
1.01,4.1,-10.24,0.3831287694469577,1.208315656257937,-1.1970260049023604,-146.15525518443252,-29.19178700040293,-10.465291924669184
1.24,4.27,-10.33,0.4126031252176529,1.3307862118566502,-1.3530169627454782,-144.99354106549774,-30.05706136986712,-11.973676148985312
1.24,4.27,-10.33,0.4126031252176529,1.3307862118566502,-1.3530169627454782,-144.99354106549774,-30.05706136986712,-11.973676148985312
1.31,4.36,-10.22,0.4487451029263848,1.4892721101841797,-1.2728263601186125,-144.20208645663692,-30.84087559172584,-12.803582439206052
1.31,4.36,-10.22,0.4487451029263848,1.4892721101841797,-1.2728263601186125,-144.20208645663692,-30.84087559172584,-12.803582439206052
1.6,3.1,-10.13,0.0684289443875764,0.5235950545111538,-0.8941941582176831,-143.20870960086745,-32.12669742786024,-13.541842119876778
1.6,3.1,-10.13,0.0684289443875764,0.5235950545111538,-0.8941941582176831,-143.20870960086745,-32.12669742786024,-13.541842119876778
1.58,2.2,-10.19,-0.450704275459508,0.0245291411587613,-0.727521252515146,-142.1344807161217,-33.476513522752754,-14.199829470388696
1.58,2.2,-10.19,-0.450704275459508,0.0245291411587613,-0.727521252515146,-142.1344807161217,-33.476513522752754,-14.199829470388696
2.48,2.23,-10.71,0.0739415949345318,-0.3774171644789069,-1.4040363716944313,-141.15770665873933,-34.53100937438062,-14.777398324484167
2.48,2.23,-10.71,0.0739415949345318,-0.3774171644789069,-1.4040363716944313,-141.15770665873933,-34.53100937438062,-14.777398324484167
2.22,2.09,-10.61,-0.1639090294184979,-0.2106995598271877,-1.229533195542004,-140.06953899210683,-35.805224148583044,-14.962299399917931
2.22,2.09,-10.61,-0.1639090294184979,-0.2106995598271877,-1.229533195542004,-140.06953899210683,-35.805224148583044,-14.962299399917931
2.35,1.4,-10.64,-0.3520102688049766,-0.7711911467228831,-1.1465893832086105,-139.5691405181039,-36.73370161256758,-14.54632631618216
2.35,1.4,-10.64,-0.3520102688049766,-0.7711911467228831,-1.1465893832086105,-139.5691405181039,-36.73370161256758,-14.54632631618216
2.45,1.21,-10.73,-0.2471374927649335,-0.9545085317931216,-1.2218284318782595,-138.9763854221543,-37.77366695276425,-13.772662665221276
2.45,1.21,-10.73,-0.2471374927649335,-0.9545085317931216,-1.2218284318782595,-138.9763854221543,-37.77366695276425,-13.772662665221276
2.76,1.02,-10.95,-0.0556138344662854,-1.330032148061081,-1.453386482469316,-138.61814821881748,-38.44045190034536,-13.091899903813276
2.76,1.02,-10.95,-0.0556138344662854,-1.330032148061081,-1.453386482469316,-138.61814821881748,-38.44045190034536,-13.091899903813276
2.75,1.24,-10.97,0.3372887777694001,-1.2759282532697729,-1.4937589913993268,-138.585728177911,-38.999166163078655,-11.570479767497384
2.75,1.24,-10.97,0.3372887777694001,-1.2759282532697729,-1.4937589913993268,-138.585728177911,-38.999166163078655,-11.570479767497384
2.18,1.39,-10.82,0.2650504722147177,-0.9337622110108188,-1.275531029944737,-138.61814821881748,-39.31538744994931,-10.189151472083807
2.18,1.39,-10.82,0.2650504722147177,-0.9337622110108188,-1.275531029944737,-138.61814821881748,-39.31538744994931,-10.189151472083807
1.71,2.05,-10.5,0.7402550072371971,-0.3771492531745433,-0.9954970534838647,-138.7806141249359,-39.58320288872564,-7.936078336486531
1.71,2.05,-10.5,0.7402550072371971,-0.3771492531745433,-0.9954970534838647,-138.7806141249359,-39.58320288872564,-7.936078336486531
1.31,2.36,-10.45,0.9739412538627814,-0.1000067934506774,-0.9418213831915594,-138.84577222800962,-39.76593345094053,-5.8581800447136345
1.31,2.36,-10.45,0.9739412538627814,-0.1000067934506774,-0.9418213831915594,-138.84577222800962,-39.76593345094053,-5.8581800447136345
0.65,1.44,-10.17,0.4436649515599814,-0.5595802773751501,-0.4605322485008045,-138.91102916961097,-40.0341291935956,-2.7733864743736323
0.65,1.44,-10.17,0.4436649515599814,-0.5595802773751501,-0.4605322485008045,-138.91102916961097,-40.0341291935956,-2.7733864743736323
-0.12,1.29,-9.89,0.3209784000120397,-0.3862866068155011,-0.1551949859511801,-138.91102916961097,-40.08291658507028,0.5958787923837214
-0.12,1.29,-9.89,0.3209784000120397,-0.3862866068155011,-0.1551949859511801,-138.91102916961097,-40.08291658507028,0.5958787923837214
-1.15,0.78,-8.97,-0.4010398563406732,-0.1243183023804773,0.7393730111063928,-138.74807199122864,-40.09511461656773,3.025568677774776
-1.15,0.78,-8.97,-0.4010398563406732,-0.1243183023804773,0.7393730111063928,-138.74807199122864,-40.09511461656773,3.025568677774776
-1.16,0.97,-9.32,0.0746058155122507,-0.177438800388705,0.3667427205608469,-138.5533323833026,-40.009738335861776,5.3992599817249625
-1.16,0.97,-9.32,0.0746058155122507,-0.177438800388705,0.3667427205608469,-138.5533323833026,-40.009738335861776,5.3992599817249625
-1.43,1.51,-9.48,0.4901104317172579,0.2430829228560748,0.1166498732023892,-138.3272359651665,-39.912193788917286,7.155161830094744
-1.43,1.51,-9.48,0.4901104317172579,0.2430829228560748,0.1166498732023892,-138.3272359651665,-39.912193788917286,7.155161830094744
-2.16,1.09,-8.34,-0.0100417940061881,0.4487058020982113,1.1344033322940756,-137.78296246704429,-39.814679382357845,9.993587967554063
-2.16,1.09,-8.34,-0.0100417940061881,0.4487058020982113,1.1344033322940756,-137.78296246704429,-39.814679382357845,9.993587967554063
-3.04,0.98,-7.7,-0.6145506791957166,0.9601566855851376,1.5487794148051568,-137.4343266309111,-39.74156329781962,11.512892133606984
-3.04,0.98,-7.7,-0.6145506791957166,0.9601566855851376,1.5487794148051568,-137.4343266309111,-39.74156329781962,11.512892133606984
-2.82,0.8,-8.29,-0.3501853880584305,0.5295948188517468,1.0366215210362224,-137.1824741414482,-39.72937892373464,12.434654560583263
-2.82,0.8,-8.29,-0.3501853880584305,0.5295948188517468,1.0366215210362224,-137.1824741414482,-39.72937892373464,12.434654560583263
-2.91,0.57,-8.23,-0.4890629966741369,0.411541230692494,1.0821241561088684,-137.02578084639396,-39.71719501771099,12.999629346780694
-2.91,0.57,-8.23,-0.4890629966741369,0.411541230692494,1.0821241561088684,-137.02578084639396,-39.71719501771099,12.999629346780694
-2.9,0.59,-8.26,-0.3412391839586561,0.3556502758583157,1.0463549878093072,-136.65191882638644,-39.79030547860814,13.8765501759761
-2.9,0.59,-8.26,-0.3412391839586561,0.3556502758583157,1.0463549878093072,-136.65191882638644,-39.79030547860814,13.8765501759761
-3.18,0.39,-8.32,-0.6021239800105233,0.3422502240855481,0.9180499135516448,-136.43524351543036,-39.86343282424955,14.315313760812993
-3.18,0.39,-8.32,-0.6021239800105233,0.3422502240855481,0.9180499135516448,-136.43524351543036,-39.86343282424955,14.315313760812993
-2.94,0.37,-8.78,-0.3320892668566194,0.0767363122285199,0.5463731004022261,-136.28110106832045,-39.98534936807032,14.442363367873067
-2.94,0.37,-8.78,-0.3320892668566194,0.0767363122285199,0.5463731004022261,-136.28110106832045,-39.98534936807032,14.442363367873067
-2.72,0.43,-9.18,-0.0925180658963924,-0.0687779836603292,0.2232054211209408,-136.34269592729157,-40.0463253316736,14.176734355559056
-2.72,0.43,-9.18,-0.0925180658963924,-0.0687779836603292,0.2232054211209408,-136.34269592729157,-40.0463253316736,14.176734355559056
-2.76,0.45,-9.39,-0.0828000888751765,-0.0577980467021891,0.0096094503707568,-136.311888173766,-40.13171155486349,14.072813487232237
-2.76,0.45,-9.39,-0.0828000888751765,-0.0577980467021891,0.0096094503707568,-136.311888173766,-40.13171155486349,14.072813487232237
-2.66,0.5,-9.78,0.086787643061398,-0.1728608055896103,-0.3391169521284976,-136.28110106832045,-40.18051411535947,14.049721543626418
-2.66,0.5,-9.78,0.086787643061398,-0.1728608055896103,-0.3391169521284976,-136.28110106832045,-40.18051411535947,14.049721543626418
-2.34,0.87,-9.93,0.5770555875086294,-0.1423531916920837,-0.4150985010021735,-136.21958862710648,-40.22932427895751,14.003539375629764
-2.34,0.87,-9.93,0.5770555875086294,-0.1423531916920837,-0.4150985010021735,-136.21958862710648,-40.22932427895751,14.003539375629764
-2.55,0.47,-9.46,0.1121262046124866,-0.2031157598540353,0.0004697190578752,-136.12747373883852,-40.302553807332,14.176734355559056
-2.55,0.47,-9.46,0.1121262046124866,-0.2031157598540353,0.0004697190578752,-136.12747373883852,-40.302553807332,14.176734355559056
-2.69,0.56,-9.32,0.0524230101305884,-0.0315526850845924,0.0902537413003354,-136.00493912570792,-40.35138303303221,14.24602144035678
-2.69,0.56,-9.32,0.0524230101305884,-0.0315526850845924,0.0902537413003354,-136.00493912570792,-40.35138303303221,14.24602144035678
-2.58,0.19,-9.33,-0.0851156675743939,-0.364614936341021,0.1318781023617692,-136.03554234590246,-40.32696746513329,14.349961892702815
-2.58,0.19,-9.33,-0.0851156675743939,-0.364614936341021,0.1318781023617692,-136.03554234590246,-40.32696746513329,14.349961892702815
-2.81,0.48,-9.22,-0.0778627287765973,0.0118178010257807,0.1563288791747226,-136.06616582647524,-40.27814205807221,14.39616145402999
-2.81,0.48,-9.22,-0.0778627287765973,0.0118178010257807,0.1563288791747226,-136.06616582647524,-40.27814205807221,14.39616145402999
-2.7,0.58,-9.43,0.1040087420513021,-0.0268906288782084,-0.0188148274600976,-136.12747373883852,-40.22932427895751,14.38461134345722
-2.7,0.58,-9.43,0.1040087420513021,-0.0268906288782084,-0.0188148274600976,-136.12747373883852,-40.22932427895751,14.38461134345722
-2.73,0.45,-9.36,-0.0057373170371848,-0.0880373454835838,0.0466696460754363,-136.18886320443548,-40.13171155486349,14.442363367873067
-2.73,0.45,-9.36,-0.0057373170371848,-0.0880373454835838,0.0466696460754363,-136.18886320443548,-40.13171155486349,14.442363367873067
-2.81,0.77,-9.15,0.0938317917435454,0.2267813475803093,0.2071049162344227,-136.21958862710648,-40.05852194281655,14.419262116395176
-2.81,0.77,-9.15,0.0938317917435454,0.2267813475803093,0.2071049162344227,-136.21958862710648,-40.05852194281655,14.419262116395176
-2.76,0.86,-9.36,0.2061808271796161,0.2124819547294726,0.0148605371174408,-136.311888173766,-40.009738335861776,14.315313760812993
-2.76,0.86,-9.36,0.2061808271796161,0.2124819547294726,0.0148605371174408,-136.311888173766,-40.009738335861776,14.315313760812993
-2.79,0.72,-9.4,0.0961775689742927,0.1128207890194699,-0.0239410984432293,-136.311888173766,-39.98534936807032,14.303764676023915
-2.79,0.72,-9.4,0.0961775689742927,0.1128207890194699,-0.0239410984432293,-136.311888173766,-39.98534936807032,14.303764676023915
-2.93,0.68,-9.07,-0.0946420261387334,0.24018513787551,0.2543961305494981,-136.28110106832045,-40.02193352838936,14.292215737283833
-2.93,0.68,-9.07,-0.0946420261387334,0.24018513787551,0.2543961305494981,-136.28110106832045,-40.02193352838936,14.292215737283833
-2.83,0.71,-9.17,-0.0040709908573016,0.1861748998283059,0.1854638811419207,-136.25033456727624,-40.11951210127083,14.153639819523336
-2.83,0.71,-9.17,-0.0040709908573016,0.1861748998283059,0.1854638811419207,-136.25033456727624,-40.11951210127083,14.153639819523336
-2.71,0.67,-9.44,0.0866306343020197,0.0334857490632277,-0.0370268454582127,-136.311888173766,-40.11951210127083,14.026630173419028
-2.71,0.67,-9.44,0.0866306343020197,0.0334857490632277,-0.0370268454582127,-136.311888173766,-40.11951210127083,14.026630173419028
-2.54,0.73,-9.59,0.2586872907493548,-0.0703421378211416,-0.1372291660624842,-136.311888173766,-40.13171155486349,13.945814879054648
-2.54,0.73,-9.59,0.2586872907493548,-0.0703421378211416,-0.1372291660624842,-136.311888173766,-40.13171155486349,13.945814879054648
-2.64,0.64,-9.4,0.0974439627649427,-0.0298089565783854,0.0225396111997788,-136.25033456727624,-40.15611188549902,13.957359493385503
-2.64,0.64,-9.4,0.0974439627649427,-0.0298089565783854,0.0225396111997788,-136.25033456727624,-40.15611188549902,13.957359493385503
-2.6,0.79,-9.51,0.2370090633842914,0.0286615177951244,-0.0810800337980204,-136.21958862710648,-40.21712102458852,13.922726077012074
-2.6,0.79,-9.51,0.2370090633842914,0.0286615177951244,-0.0810800337980204,-136.21958862710648,-40.21712102458852,13.922726077012074
-2.61,0.52,-9.49,0.0558472667486523,-0.1569423790440552,-0.0480367110251993,-136.18886320443548,-40.253732215798784,13.945814879054648
-2.61,0.52,-9.49,0.0558472667486523,-0.1569423790440552,-0.0480367110251993,-136.18886320443548,-40.253732215798784,13.945814879054648
-2.88,0.63,-9.04,-0.1322506407069952,0.1849089152947931,0.3007981990787839,-136.12747373883852,-40.29034769423164,14.049721543626418
-2.88,0.63,-9.04,-0.1322506407069952,0.1849089152947931,0.3007981990787839,-136.12747373883852,-40.29034769423164,14.049721543626418
-2.72,0.56,-9.23,-0.0264392798180403,0.0052757349053125,0.1679689112252536,-136.12747373883852,-40.29034769423164,14.026630173419028
-2.72,0.56,-9.23,-0.0264392798180403,0.0052757349053125,0.1679689112252536,-136.12747373883852,-40.29034769423164,14.026630173419028
-2.65,0.46,-9.41,-0.0139756957336273,-0.1316033598133026,0.0207067528922042,-136.15815825603806,-40.302553807332,13.957359493385503
-2.65,0.46,-9.41,-0.0139756957336273,-0.1316033598133026,0.0207067528922042,-136.15815825603806,-40.302553807332,13.957359493385503
-2.65,0.52,-9.36,0.0074061876177339,-0.0732560847259194,0.065136837537219,-136.15815825603806,-40.32696746513329,13.899637842978937
-2.65,0.52,-9.36,0.0074061876177339,-0.0732560847259194,0.065136837537219,-136.15815825603806,-40.32696746513329,13.899637842978937
-2.7,0.65,-9.27,0.0286482069189797,0.0594734175975129,0.129819827219265,-136.15815825603806,-40.31476039756773,13.865006554805133
-2.7,0.65,-9.27,0.0286482069189797,0.0594734175975129,0.129819827219265,-136.15815825603806,-40.31476039756773,13.865006554805133
-2.55,0.83,-9.51,0.279274207961768,0.0477181164240159,-0.0701525645009386,-136.18886320443548,-40.31476039756773,13.761120312162008
-2.55,0.83,-9.51,0.279274207961768,0.0477181164240159,-0.0701525645009386,-136.18886320443548,-40.31476039756773,13.761120312162008
-2.69,0.56,-9.3,-0.0348761001110158,-0.0104133210510599,0.1093114362297456,-136.18886320443548,-40.32696746513329,13.749578099392744
-2.69,0.56,-9.3,-0.0348761001110158,-0.0104133210510599,0.1093114362297456,-136.18886320443548,-40.32696746513329,13.749578099392744
-2.66,0.6,-9.36,0.0144617802416865,-0.0088497684030678,0.0575519628218206,-136.21958862710648,-40.33917501022326,13.691869135619404
-2.66,0.6,-9.36,0.0144617802416865,-0.0088497684030678,0.0575519628218206,-136.21958862710648,-40.33917501022326,13.691869135619404
-2.66,0.52,-9.39,-0.0577683514146825,-0.0756437776219925,0.0337772986658677,-136.21958862710648,-40.38800996971994,13.553381828311744
-2.66,0.52,-9.39,-0.0577683514146825,-0.0756437776219925,0.0337772986658677,-136.21958862710648,-40.38800996971994,13.553381828311744
-2.69,0.58,-9.37,-0.0463431839865396,-0.0090998421057734,0.0410384214980368,-136.21958862710648,-40.36359153375482,13.541842119876778
-2.69,0.58,-9.37,-0.0463431839865396,-0.0090998421057734,0.0410384214980368,-136.21958862710648,-40.36359153375482,13.541842119876778
-2.53,0.7,-9.4,0.1313727168434396,-0.0330437309131791,0.0479334183425255,-136.25033456727624,-40.36359153375482,13.426452603767608
-2.53,0.7,-9.4,0.1313727168434396,-0.0330437309131791,0.0479334183425255,-136.25033456727624,-40.36359153375482,13.426452603767608
-2.63,0.76,-9.36,0.0763796941794506,0.0777322913692213,0.0551258199963644,-136.25033456727624,-40.33917501022326,13.357225465957494
-2.63,0.76,-9.36,0.0763796941794506,0.0777322913692213,0.0551258199963644,-136.25033456727624,-40.33917501022326,13.357225465957494
-2.63,0.74,-9.55,0.0803199965144325,0.0244636847538211,-0.1261215279416454,-136.311888173766,-40.32696746513329,13.276466658923828
-2.63,0.74,-9.55,0.0803199965144325,0.0244636847538211,-0.1261215279416454,-136.311888173766,-40.32696746513329,13.276466658923828
