,TIME,ELAPSED_SECONDS,PSTATE,acc_x,acc_y,acc_z,mag_x,mag_y,mag_z,gyr_x,gyr_y,gyr_z,lin_x,lin_y,lin_z,eul_x,eul_y,eul_z,qua_w,qua_x,qua_y,qua_z
0,839206.0,548.072946,1.0,-3.53,-0.37,-9.35,31.06,-17.25,17.69,2.31,-1.75,-1.31,-0.16404141219413007,-0.14831093900350836,-0.1919196117223283,-122.97188128580086,-52.45034316588912,18.959614614971002,-0.0743,-0.8787,-0.4419,0.1647
1,839206.0,548.072946,1.0,-3.53,-0.37,-9.35,31.06,-17.25,17.69,2.31,-1.75,-1.31,-0.16404141219413007,-0.14831093900350836,-0.1919196117223283,-122.97188128580086,-52.45034316588912,18.959614614971002,-0.0743,-0.8787,-0.4419,0.1647
2,839243.0,548.132954,1.0,-3.55,-0.18,-9.26,30.37,-16.87,18.06,-1.81,-1.5,0.5,-0.04525267484010187,-0.004111563987954314,-0.11204120854467092,-122.94788136502078,-52.463117579437494,18.971232525472264,-0.0748,-0.8786,-0.442,0.1648
3,839243.0,548.132954,1.0,-3.55,-0.18,-9.26,30.37,-16.87,18.06,-1.81,-1.5,0.5,-0.04525267484010187,-0.004111563987954314,-0.11204120854467092,-122.94788136502078,-52.463117579437494,18.971232525472264,-0.0748,-0.8786,-0.442,0.1648
4,839278.0,548.17428,1.0,-3.67,-0.28,-9.03,31.06,-17.25,17.69,0.06,-1.63,1.06,-0.2380392739916097,0.07487977713700023,0.05852554844453727,-122.94788136502078,-52.412024132935976,19.040944126019852,-0.0753,-0.8786,-0.4416,0.1654
5,839278.0,548.17428,1.0,-3.67,-0.28,-9.03,31.06,-17.25,17.69,0.06,-1.63,1.06,-0.2380392739916097,0.07487977713700023,0.05852554844453727,-122.94788136502078,-52.412024132935976,19.040944126019852,-0.0753,-0.8786,-0.4416,0.1654
6,839313.0,548.180866,1.0,-3.58,0.14,-9.15,31.06,-17.25,17.69,-3.44,-1.44,2.19,0.1625904954856207,0.2105877135290276,-0.01616615147552558,-122.9958904624243,-52.360941896715254,19.017706136871343,-0.0762,-0.8788,-0.4412,0.1652
7,839313.0,548.180866,1.0,-3.58,0.14,-9.15,31.06,-17.25,17.69,-3.44,-1.44,2.19,0.1625904954856207,0.2105877135290276,-0.01616615147552558,-122.9958904624243,-52.360941896715254,19.017706136871343,-0.0762,-0.8788,-0.4412,0.1652
8,839350.0,548.196236,1.0,-3.57,0.0,-9.12,30.75,-16.5,16.37,1.69,-0.88,-0.19,0.05161132711039751,0.1235243915218941,0.013725105178581387,-122.9958904624243,-52.33540497698414,19.040944126019852,-0.0763,-0.8788,-0.441,0.1654
9,839350.0,548.196236,1.0,-3.57,0.0,-9.12,30.75,-16.5,16.37,1.69,-0.88,-0.19,0.05161132711039751,0.1235243915218941,0.013725105178581387,-122.9958904624243,-52.33540497698414,19.040944126019852,-0.0763,-0.8788,-0.441,0.1654
10,839385.0,548.1989530000001,1.0,-3.51,-0.09,-9.11,30.37,-16.87,16.06,1.12,0.44,-0.44,0.016578725055258814,0.030493912674321555,0.04350013598759972,-122.9958904624243,-52.322637565756146,19.06418290551579,-0.076,-0.8788,-0.4409,0.1656
11,839385.0,548.1989530000001,1.0,-3.51,-0.09,-9.11,30.37,-16.87,16.06,1.12,0.44,-0.44,0.016578725055258814,0.030493912674321555,0.04350013598759972,-122.9958904624243,-52.322637565756146,19.06418290551579,-0.076,-0.8788,-0.4409,0.1656
12,839421.0,548.287962,1.0,-3.6,-0.16,-9.13,30.37,-16.87,16.06,0.88,0.63,-0.12,-0.0827601586369171,0.05572298316818969,-0.008264452265455802,-123.01990890666336,-52.322637565756146,19.06418290551579,-0.0757,-0.8789,-0.4409,0.1656
13,839421.0,548.287962,1.0,-3.6,-0.16,-9.13,30.37,-16.87,16.06,0.88,0.63,-0.12,-0.0827601586369171,0.05572298316818969,-0.008264452265455802,-123.01990890666336,-52.322637565756146,19.06418290551579,-0.0757,-0.8789,-0.4409,0.1656
14,839454.0,548.338313,1.0,-3.59,-0.27,-9.3,30.75,-16.87,16.06,1.12,1.12,0.75,-0.12576105894886702,-0.0575318373596132,-0.16490325131155714,-123.04393663031479,-52.309870853255504,19.05256341690962,-0.0753,-0.879,-0.4408,0.1655
15,839454.0,548.338313,1.0,-3.59,-0.27,-9.3,30.75,-16.87,16.06,1.12,1.12,0.75,-0.12576105894886702,-0.0575318373596132,-0.16490325131155714,-123.04393663031479,-52.309870853255504,19.05256341690962,-0.0753,-0.879,-0.4408,0.1655
16,839491.0,548.3549059999999,1.0,-3.61,-0.1,-9.2,30.75,-16.06,17.25,-2.94,-0.19,1.44,-0.03532526277854159,0.07724685701587597,-0.07641051023116853,-123.06797364519969,-52.28433952334372,19.017706136871343,-0.076,-0.8791,-0.4406,0.1652
17,839491.0,548.3549059999999,1.0,-3.61,-0.1,-9.2,30.75,-16.06,17.25,-2.94,-0.19,1.44,-0.03532526277854159,0.07724685701587597,-0.07641051023116853,-123.06797364519969,-52.28433952334372,19.017706136871343,-0.076,-0.8791,-0.4406,0.1652
18,839526.0,548.3584,1.0,-3.62,-0.02,-9.17,30.75,-16.06,17.25,-2.44,-0.37,1.0,0.007911271756457616,0.133706738366419,-0.05112662152549419,-123.09201996316364,-52.258810985064926,18.994468937034103,-0.0765,-0.8792,-0.4404,0.165
19,839526.0,548.3584,1.0,-3.62,-0.02,-9.17,30.75,-16.06,17.25,-2.44,-0.37,1.0,0.007911271756457616,0.133706738366419,-0.05112662152549419,-123.09201996316364,-52.258810985064926,18.994468937034103,-0.0765,-0.8792,-0.4404,0.165
20,839559.0,548.397105,1.0,-3.51,0.2,-9.42,30.0,-16.87,17.25,-1.0,-0.12,0.44,0.2807626308711106,0.10056383832550564,-0.2436017013021896,-123.11607559607694,-52.23328523623708,18.92476206303288,-0.0775,-0.8793,-0.4402,0.1644
21,839559.0,548.397105,1.0,-3.51,0.2,-9.42,30.0,-16.87,17.25,-1.0,-0.12,0.44,0.2807626308711106,0.10056383832550564,-0.2436017013021896,-123.11607559607694,-52.23328523623708,18.92476206303288,-0.0775,-0.8793,-0.4402,0.1644
22,839593.0,548.409115,1.0,-3.43,0.04,-9.31,31.87,-17.56,17.25,1.44,-0.69,-1.0,0.1766873292784727,-0.02185410035222024,-0.11357701282436672,-123.11607559607694,-52.23328523623708,18.93637938388069,-0.0773,-0.8793,-0.4402,0.1645
23,839593.0,548.409115,1.0,-3.43,0.04,-9.31,31.87,-17.56,17.25,1.44,-0.69,-1.0,0.1766873292784727,-0.02185410035222024,-0.11357701282436672,-123.11607559607694,-52.23328523623708,18.93637938388069,-0.0773,-0.8793,-0.4402,0.1645
24,839630.0,548.417518,1.0,-3.59,0.07,-9.17,30.75,-16.5,17.69,1.81,-1.25,-1.25,0.08902045659752145,0.14822407888331154,-0.03977092238323543,-123.04393663031479,-52.28433952334372,18.994468937034103,-0.0775,-0.879,-0.4406,0.165
25,839630.0,548.417518,1.0,-3.59,0.07,-9.17,30.75,-16.5,17.69,1.81,-1.25,-1.25,0.08902045659752145,0.14822407888331154,-0.03977092238323543,-123.04393663031479,-52.28433952334372,18.994468937034103,-0.0775,-0.879,-0.4406,0.165
26,839663.0,548.4598490000001,1.0,-3.54,-0.29,-9.33,30.75,-16.5,17.69,2.56,-0.19,-1.19,-0.12145324085088688,-0.13936283594898202,-0.17485425087537187,-123.04393663031479,-52.297104839209034,19.040944126019852,-0.0767,-0.879,-0.4407,0.1654
27,839663.0,548.4598490000001,1.0,-3.54,-0.29,-9.33,30.75,-16.5,17.69,2.56,-0.19,-1.19,-0.12145324085088688,-0.13936283594898202,-0.17485425087537187,-123.04393663031479,-52.297104839209034,19.040944126019852,-0.0767,-0.879,-0.4407,0.1654
28,839700.0,548.477591,1.0,-3.6,-0.08,-9.31,31.87,-16.87,16.06,-2.5,-2.94,0.69,0.010829581211558859,0.028284183867325337,-0.17541304954610834,-123.04393663031479,-52.258810985064926,19.075802591967932,-0.077,-0.879,-0.4404,0.1657
29,839700.0,548.477591,1.0,-3.6,-0.08,-9.31,31.87,-16.87,16.06,-2.5,-2.94,0.69,0.010829581211558859,0.028284183867325337,-0.17541304954610834,-123.04393663031479,-52.258810985064926,19.075802591967932,-0.077,-0.879,-0.4404,0.1657
30,839735.0,548.5188519999999,1.0,-3.71,0.19,-9.03,30.75,-16.5,16.37,-2.25,-2.94,0.25,0.10473446615406462,0.3317024578315162,0.048571081940979255,-122.9958904624243,-52.27157490538662,19.13390399645449,-0.0779,-0.8788,-0.4405,0.1662
31,839735.0,548.5188519999999,1.0,-3.71,0.19,-9.03,30.75,-16.5,16.37,-2.25,-2.94,0.25,0.10473446615406462,0.3317024578315162,0.048571081940979255,-122.9958904624243,-52.27157490538662,19.13390399645449,-0.0779,-0.8788,-0.4405,0.1662
32,839768.0,548.575038,1.0,-3.65,0.0,-9.02,30.75,-16.5,16.37,3.31,-0.69,-0.31,-0.001978816254578297,0.17415494061233527,0.07769496151068901,-122.9958904624243,-52.24604776210595,19.215254308568724,-0.0776,-0.8788,-0.4403,0.1669
33,839768.0,548.575038,1.0,-3.65,0.0,-9.02,30.75,-16.5,16.37,3.31,-0.69,-0.31,-0.001978816254578297,0.17415494061233527,0.07769496151068901,-122.9958904624243,-52.24604776210595,19.215254308568724,-0.0776,-0.8788,-0.4403,0.1669
34,839804.0,548.66929,1.0,-3.54,-0.08,-9.01,30.75,-17.25,17.25,1.63,-0.88,-2.06,0.003138277739363815,0.05178724089689368,0.12597811046190266,-122.92389068833596,-52.297104839209034,19.250121718432275,-0.0772,-0.8785,-0.4407,0.1672
35,839804.0,548.66929,1.0,-3.54,-0.08,-9.01,30.75,-17.25,17.25,1.63,-0.88,-2.06,0.003138277739363815,0.05178724089689368,0.12597811046190266,-122.92389068833596,-52.297104839209034,19.250121718432275,-0.0772,-0.8785,-0.4407,0.1672
36,839839.0,548.739077,1.0,-3.51,-0.17,-8.69,31.06,-16.87,16.37,2.31,1.63,-1.94,-0.11675515621025145,0.08061980119131562,0.4340853199802233,-122.89990924402274,-52.360941896715254,19.250121718432275,-0.0764,-0.8784,-0.4412,0.1672
37,839839.0,548.739077,1.0,-3.51,-0.17,-8.69,31.06,-16.87,16.37,2.31,1.63,-1.94,-0.11675515621025145,0.08061980119131562,0.4340853199802233,-122.89990924402274,-52.360941896715254,19.250121718432275,-0.0764,-0.8784,-0.4412,0.1672
38,839874.0,548.776507,1.0,-3.6,-0.32,-8.2,31.06,-16.87,16.37,0.56,5.38,0.44,-0.4041077540143372,0.21558848853398416,0.8572020546372716,-122.92389068833596,-52.37371140576522,19.157145947707967,-0.0756,-0.8785,-0.4413,0.1664
39,839874.0,548.776507,1.0,-3.6,-0.32,-8.2,31.06,-16.87,16.37,0.56,5.38,0.44,-0.4041077540143372,0.21558848853398416,0.8572020546372716,-122.92389068833596,-52.37371140576522,19.157145947707967,-0.0756,-0.8785,-0.4413,0.1664
40,839909.0,548.782981,1.0,-3.53,-0.22,-7.99,32.25,-16.5,16.87,-0.44,11.5,0.25,-0.3772692991890279,0.32392721510361444,1.082996004385279,-123.09201996316364,-52.39925252360182,18.773754707559725,-0.0746,-0.8792,-0.4415,0.1631
41,839909.0,548.782981,1.0,-3.53,-0.22,-7.99,32.25,-16.5,16.87,-0.44,11.5,0.25,-0.3772692991890279,0.32392721510361444,1.082996004385279,-123.09201996316364,-52.39925252360182,18.773754707559725,-0.0746,-0.8792,-0.4415,0.1631
42,839944.0,548.798859,1.0,-3.26,0.16,-6.82,30.37,-17.25,17.56,-3.94,17.94,-3.38,-0.22620056534782165,0.7124248459128286,2.2828953427053844,-123.16421485435569,-52.539778806860255,18.30932175034793,-0.0737,-0.8795,-0.4426,0.1591
43,839944.0,548.798859,1.0,-3.26,0.16,-6.82,30.37,-17.25,17.56,-3.94,17.94,-3.38,-0.22620056534782165,0.7124248459128286,2.2828953427053844,-123.16421485435569,-52.539778806860255,18.30932175034793,-0.0737,-0.8795,-0.4426,0.1591
44,839981.0,548.8016200000001,1.0,-3.05,-0.2,-6.33,30.37,-17.25,18.37,15.88,40.06,-11.94,-0.5512180708904116,0.6208222713552727,2.8265254777788424,-123.26060567533968,-52.92346596535568,17.381357078894993,-0.0663,-0.8799,-0.4456,0.1511
45,839981.0,548.8016200000001,1.0,-3.05,-0.2,-6.33,30.37,-17.25,18.37,15.88,40.06,-11.94,-0.5512180708904116,0.6208222713552727,2.8265254777788424,-123.26060567533968,-52.92346596535568,17.381357078894993,-0.0663,-0.8799,-0.4456,0.1511
46,840015.0,548.8395830000001,1.0,-3.08,-2.38,-6.18,30.37,-17.25,18.37,17.81,63.5,-1.94,-2.4121534458965344,-0.42114633039407023,2.925708820056294,-123.62341692773377,-53.14117252914141,16.2114321173387,-0.0559,-0.8814,-0.4473,0.141
47,840015.0,548.8395830000001,1.0,-3.08,-2.38,-6.18,30.37,-17.25,18.37,17.81,63.5,-1.94,-2.4121534458965344,-0.42114633039407023,2.925708820056294,-123.62341692773377,-53.14117252914141,16.2114321173387,-0.0559,-0.8814,-0.4473,0.141
48,840052.0,548.8464280000001,1.0,-2.41,-2.69,-7.16,29.56,-15.75,17.56,-26.0,82.12,15.0,-2.3601433367105984,-1.0717534673620892,2.21778526702591,-124.74966789127242,-53.000280019764396,13.414914406298776,-0.0471,-0.8859999999999999,-0.4462,0.1168
49,840052.0,548.8464280000001,1.0,-2.41,-2.69,-7.16,29.56,-15.75,17.56,-26.0,82.12,15.0,-2.3601433367105984,-1.0717534673620892,2.21778526702591,-124.74966789127242,-53.000280019764396,13.414914406298776,-0.0471,-0.8859999999999999,-0.4462,0.1168
50,840087.0,548.863576,1.0,-1.42,-1.44,-7.76,28.06,-15.0,21.75,-51.19,93.12,23.0,-1.0508473432526304,-1.0413643194286195,1.9250968399052295,-125.821937957947,-52.68039020015169,10.48830635783265,-0.0474,-0.8903,-0.4437,0.0914
51,840087.0,548.863576,1.0,-1.42,-1.44,-7.76,28.06,-15.0,21.75,-51.19,93.12,23.0,-1.0508473432526304,-1.0413643194286195,1.9250968399052295,-125.821937957947,-52.68039020015169,10.48830635783265,-0.0474,-0.8903,-0.4437,0.0914
52,840122.0,548.9750650000001,1.0,-0.31,-0.1,-8.73,28.06,-15.0,21.75,-73.75,99.25,26.25,0.12906433459979316,-1.045292239154608,1.134297001401665,-127.09397976921673,-52.1184538275471,5.904077101832591,-0.0532,-0.8953,-0.4393,0.0515
53,840122.0,548.9750650000001,1.0,-0.31,-0.1,-8.73,28.06,-15.0,21.75,-73.75,99.25,26.25,0.12906433459979316,-1.045292239154608,1.134297001401665,-127.09397976921673,-52.1184538275471,5.904077101832591,-0.0532,-0.8953,-0.4393,0.0515
54,840157.0,549.094734,1.0,-0.04,0.91,-8.81,26.56,-17.56,21.75,-81.0,101.0,30.0,0.34094968643714,-0.46978383380207794,0.968728498831492,-128.05386288415187,-51.34162455414572,0.9854995558041141,-0.0629,-0.899,-0.4332,0.0086
55,840157.0,549.094734,1.0,-0.04,0.91,-8.81,26.56,-17.56,21.75,-81.0,101.0,30.0,0.34094968643714,-0.46978383380207794,0.968728498831492,-128.05386288415187,-51.34162455414572,0.9854995558041141,-0.0629,-0.899,-0.4332,0.0086
56,840194.0,549.14597,1.0,0.36,0.76,-8.33,24.0,-20.19,22.56,-63.44,115.81,37.44,-0.028760781192921636,-0.6159524805006273,1.457046694499175,-128.73836728652063,-50.52930167815198,-2.8306993879474716,-0.0659,-0.9016,-0.4268,-0.0247
57,840194.0,549.14597,1.0,0.36,0.76,-8.33,24.0,-20.19,22.56,-63.44,115.81,37.44,-0.028760781192921636,-0.6159524805006273,1.457046694499175,-128.73836728652063,-50.52930167815198,-2.8306993879474716,-0.0659,-0.9016,-0.4268,-0.0247
58,840228.0,549.202023,1.0,1.34,0.52,-8.79,24.0,-20.19,22.56,-65.44,115.62,45.31,-0.3710073787816511,-1.259385492787325,0.9972004311877464,-129.51205087236005,-49.03863296676083,-8.085412120809869,-0.0686,-0.9045,-0.415,-0.0705
59,840228.0,549.202023,1.0,1.34,0.52,-8.79,24.0,-20.19,22.56,-65.44,115.62,45.31,-0.3710073787816511,-1.259385492787325,0.9972004311877464,-129.51205087236005,-49.03863296676083,-8.085412120809869,-0.0686,-0.9045,-0.415,-0.0705
60,840263.0,549.209812,1.0,2.33,0.89,-8.85,20.25,-23.19,24.19,-79.31,109.75,52.44,-0.04658865726216122,-1.578560456645978,0.7485333976522366,-129.88954402446632,-47.619376147320615,-12.019765115233204,-0.0734,-0.9059,-0.4037,-0.1047
61,840263.0,549.209812,1.0,2.33,0.89,-8.85,20.25,-23.19,24.19,-79.31,109.75,52.44,-0.04658865726216122,-1.578560456645978,0.7485333976522366,-129.88954402446632,-47.619376147320615,-12.019765115233204,-0.0734,-0.9059,-0.4037,-0.1047
62,840300.0,549.22606,1.0,2.97,1.06,-8.91,17.69,-26.87,25.87,-70.37,103.06,68.06,-0.2812557353857963,-1.6982531675400514,0.5131344439656296,-130.3242488651211,-45.23782004339508,-17.09160645080068,-0.0807,-0.9075,-0.3846,-0.1486
63,840300.0,549.22606,1.0,2.97,1.06,-8.91,17.69,-26.87,25.87,-70.37,103.06,68.06,-0.2812557353857963,-1.6982531675400514,0.5131344439656296,-130.3242488651211,-45.23782004339508,-17.09160645080068,-0.0807,-0.9075,-0.3846,-0.1486
64,840335.0,549.228841,1.0,4.1,1.38,-8.95,13.69,-30.25,24.25,-84.87,101.19,82.62,0.09840362467710796,-2.070136413477166,0.08442021685630863,-130.73504536519698,-42.86440291129757,-20.890980569305803,-0.0858,-0.909,-0.3654,-0.1813
65,840335.0,549.228841,1.0,4.1,1.38,-8.95,13.69,-30.25,24.25,-84.87,101.19,82.62,0.09840362467710796,-2.070136413477166,0.08442021685630863,-130.73504536519698,-42.86440291129757,-20.890980569305803,-0.0858,-0.909,-0.3654,-0.1813
66,840370.0,549.231552,1.0,4.69,2.09,-8.56,13.69,-30.25,24.25,-110.19,91.37,90.62,0.2739968615873172,-1.7397171248781589,-0.018629133197491043,-130.95545525843715,-39.084272157289,-25.99399574998519,-0.0992,-0.9098,-0.3345,-0.2249
67,840370.0,549.231552,1.0,4.69,2.09,-8.56,13.69,-30.25,24.25,-110.19,91.37,90.62,0.2739968615873172,-1.7397171248781589,-0.018629133197491043,-130.95545525843715,-39.084272157289,-25.99399574998519,-0.0992,-0.9098,-0.3345,-0.2249
68,840404.0,549.270547,1.0,5.89,3.72,-9.03,10.38,-35.06,22.75,-111.25,85.44,97.06,1.017539460701011,-1.1422390656467445,-1.495177434659707,-130.76254599505174,-35.865440443720345,-29.772396589189743,-0.1128,-0.9091,-0.3079,-0.2569
69,840404.0,549.270547,1.0,5.89,3.72,-9.03,10.38,-35.06,22.75,-111.25,85.44,97.06,1.017539460701011,-1.1422390656467445,-1.495177434659707,-130.76254599505174,-35.865440443720345,-29.772396589189743,-0.1128,-0.9091,-0.3079,-0.2569
70,840441.0,549.28688,1.0,6.55,4.38,-8.33,7.38,-41.0,19.69,-90.94,69.25,110.37,1.3024715146856196,-0.6503623128416567,-1.5668453649029033,-130.70755912152916,-31.221437269957963,-34.07529458830543,-0.1248,-0.9089,-0.2691,-0.293
71,840441.0,549.28688,1.0,6.55,4.38,-8.33,7.38,-41.0,19.69,-90.94,69.25,110.37,1.3024715146856196,-0.6503623128416567,-1.5668453649029033,-130.70755912152916,-31.221437269957963,-34.07529458830543,-0.1248,-0.9089,-0.2691,-0.293
72,840478.0,549.2897820000001,1.0,6.51,5.11,-7.92,7.38,-41.0,19.69,-115.37,61.06,100.37,1.122443350629826,0.1807939842560624,-1.5918601859797317,-130.18802216268048,-27.65505415801313,-37.1323824635344,-0.13699999999999998,-0.907,-0.239,-0.3184
73,840478.0,549.2897820000001,1.0,6.51,5.11,-7.92,7.38,-41.0,19.69,-115.37,61.06,100.37,1.122443350629826,0.1807939842560624,-1.5918601859797317,-130.18802216268048,-27.65505415801313,-37.1323824635344,-0.13699999999999998,-0.907,-0.239,-0.3184
74,840511.0,549.3205780000001,1.0,6.26,5.21,-7.1,5.69,-47.38,14.06,-112.37,56.06,93.81,0.6248805069097843,0.5510177596077175,-0.9658893376251392,-128.81789729217328,-23.06222273541725,-40.827870624577365,-0.1581,-0.9019,-0.1999,-0.3488
75,840511.0,549.3205780000001,1.0,6.26,5.21,-7.1,5.69,-47.38,14.06,-112.37,56.06,93.81,0.6248805069097843,0.5510177596077175,-0.9658893376251392,-128.81789729217328,-23.06222273541725,-40.827870624577365,-0.1581,-0.9019,-0.1999,-0.3488
76,840546.0,549.344911,1.0,7.13,5.81,-6.28,4.25,-49.25,4.88,-106.56,59.56,100.69,1.0153550039366652,0.9793392253083076,-1.2405826352690392,-126.9655039569828,-18.42540124877966,-44.48160022735979,-0.1742,-0.8948,-0.1601,-0.3785
77,840546.0,549.344911,1.0,7.13,5.81,-6.28,4.25,-49.25,4.88,-106.56,59.56,100.69,1.0153550039366652,0.9793392253083076,-1.2405826352690392,-126.9655039569828,-18.42540124877966,-44.48160022735979,-0.1742,-0.8948,-0.1601,-0.3785
78,840583.0,549.3520490000001,1.0,6.6,4.06,-4.85,5.06,-46.0,-2.25,-67.25,51.88,100.56,0.9934384755203842,0.12186118612239215,0.7201583862542122,-125.74649376545209,-15.22816347918777,-46.88143541316104,-0.1793,-0.89,-0.1325,-0.3978
79,840583.0,549.3520490000001,1.0,6.6,4.06,-4.85,5.06,-46.0,-2.25,-67.25,51.88,100.56,0.9934384755203842,0.12186118612239215,0.7201583862542122,-125.74649376545209,-15.22816347918777,-46.88143541316104,-0.1793,-0.89,-0.1325,-0.3978
80,840617.0,549.388869,1.0,6.69,3.34,-4.22,5.06,-46.0,-2.25,-68.56,54.81,106.69,0.9221099132354358,-0.12228962218863006,1.2711442413341487,-123.86648635871313,-10.868106466869214,-50.035624947359274,-0.183,-0.8824,-0.0947,-0.4229
81,840617.0,549.388869,1.0,6.69,3.34,-4.22,5.06,-46.0,-2.25,-68.56,54.81,106.69,0.9221099132354358,-0.12228962218863006,1.2711442413341487,-123.86648635871313,-10.868106466869214,-50.035624947359274,-0.183,-0.8824,-0.0947,-0.4229
82,840654.0,549.4468360000001,1.0,8.35,4.17,-3.44,3.25,-38.25,-4.38,-86.37,64.37,111.25,2.0291251968301425,0.5793444946775415,0.08594987644532638,-121.92447762133864,-7.304427851725569,-52.578118912593965,-0.1883,-0.8743,-0.0637,-0.4429
83,840654.0,549.4468360000001,1.0,8.35,4.17,-3.44,3.25,-38.25,-4.38,-86.37,64.37,111.25,2.0291251968301425,0.5793444946775415,0.08594987644532638,-121.92447762133864,-7.304427851725569,-52.578118912593965,-0.1883,-0.8743,-0.0637,-0.4429
84,840691.0,549.4633759999999,1.0,11.61,3.79,-5.15,-0.88,-34.0,-3.88,-136.56,109.12,44.13,1.4679837540506857,-1.3525508022828503,-3.296568307922952,-116.64120406641233,-3.6560909909367436,-56.99233821526014,-0.2169,-0.851,-0.0319,-0.4771
85,840691.0,549.4633759999999,1.0,11.61,3.79,-5.15,-0.88,-34.0,-3.88,-136.56,109.12,44.13,1.4679837540506857,-1.3525508022828503,-3.296568307922952,-116.64120406641233,-3.6560909909367436,-56.99233821526014,-0.2169,-0.851,-0.0319,-0.4771
86,840726.0,549.507697,1.0,9.57,4.99,-0.79,-0.88,-34.0,-3.88,-285.06,23.06,60.31,2.8590218449144977,1.3604976900067465,-0.5414967000515585,-111.1769826604611,0.4583674584234223,-59.313125954036636,-0.2733,-0.825,0.004,-0.4948
87,840726.0,549.507697,1.0,9.57,4.99,-0.79,-0.88,-34.0,-3.88,-285.06,23.06,60.31,2.8590218449144977,1.3604976900067465,-0.5414967000515585,-111.1769826604611,0.4583674584234223,-59.313125954036636,-0.2733,-0.825,0.004,-0.4948
88,840759.0,549.524715,1.0,9.64,9.72,-1.3,-5.25,-30.5,-5.0,-166.06,25.5,115.87,-0.4493472330175528,5.037571420660068,-2.9808032744377364,-106.62384790830879,7.269980754447582,-61.048101525799574,-0.3079,-0.8019,0.0634,-0.5079
89,840759.0,549.524715,1.0,9.64,9.72,-1.3,-5.25,-30.5,-5.0,-166.06,25.5,115.87,-0.4493472330175528,5.037571420660068,-2.9808032744377364,-106.62384790830879,7.269980754447582,-61.048101525799574,-0.3079,-0.8019,0.0634,-0.5079
90,840796.0,549.564521,1.0,9.86,5.51,-1.19,-8.69,-29.25,-9.75,-25.44,49.25,74.19,0.94054538781398,1.8756404809184688,-1.3554800458201886,-104.72685126814748,9.407070184120801,-63.04051613304179,-0.3047,-0.7919,0.08199999999999999,-0.5228
91,840796.0,549.564521,1.0,9.86,5.51,-1.19,-8.69,-29.25,-9.75,-25.44,49.25,74.19,0.94054538781398,1.8756404809184688,-1.3554800458201886,-104.72685126814748,9.407070184120801,-63.04051613304179,-0.3047,-0.7919,0.08199999999999999,-0.5228
92,840830.0,549.656605,1.0,9.93,4.53,-1.53,-13.38,-27.56,-10.5,-68.44,48.19,71.5,0.4381712954773118,0.9559180658725591,-1.1642627499565048,-101.53756251878842,12.019765115233204,-65.66705665174257,-0.3083,-0.7746,0.1047,-0.5422
93,840830.0,549.656605,1.0,9.93,4.53,-1.53,-13.38,-27.56,-10.5,-68.44,48.19,71.5,0.4381712954773118,0.9559180658725591,-1.1642627499565048,-101.53756251878842,12.019765115233204,-65.66705665174257,-0.3083,-0.7746,0.1047,-0.5422
94,840865.0,549.755152,1.0,9.31,3.92,-0.85,-13.38,-27.56,-10.5,-53.0,47.06,70.75,0.5486984593704263,1.0503852381385448,-0.26115119252387586,-99.19322722858459,14.153639819523336,-67.42142956285187,-0.3114,-0.7615,0.1232,-0.555
95,840865.0,549.755152,1.0,9.31,3.92,-0.85,-13.38,-27.56,-10.5,-53.0,47.06,70.75,0.5486984593704263,1.0503852381385448,-0.26115119252387586,-99.19322722858459,14.153639819523336,-67.42142956285187,-0.3114,-0.7615,0.1232,-0.555
96,840902.0,549.804578,1.0,9.32,2.7,0.14,-16.06,-27.37,-11.06,-54.31,57.88,71.5,1.3446806434878549,0.8012169987323592,0.22949565813146044,-95.90673837953938,16.69772182857332,-70.0172862891219,-0.3135,-0.7426,0.1452,-0.5737
97,840902.0,549.804578,1.0,9.32,2.7,0.14,-16.06,-27.37,-11.06,-54.31,57.88,71.5,1.3446806434878549,0.8012169987323592,0.22949565813146044,-95.90673837953938,16.69772182857332,-70.0172862891219,-0.3135,-0.7426,0.1452,-0.5737
98,840937.0,549.8200820000001,1.0,9.62,2.71,1.15,-17.87,-25.56,-12.25,-64.0,67.0,75.81,1.6428287899048508,1.4616302146263456,-0.010465191478152391,-93.00426658495235,18.76214012304259,-72.20051661196997,-0.3163,-0.7254,0.163,-0.5892
99,840937.0,549.8200820000001,1.0,9.62,2.71,1.15,-17.87,-25.56,-12.25,-64.0,67.0,75.81,1.6428287899048508,1.4616302146263456,-0.010465191478152391,-93.00426658495235,18.76214012304259,-72.20051661196997,-0.3163,-0.7254,0.163,-0.5892
100,840972.0,549.823013,1.0,10.05,3.14,2.07,-17.87,-25.56,-12.25,-58.25,85.06,81.19,1.2853814695973131,2.3524918786811697,-0.583757905292023,-88.58154277869775,21.473869337236096,-75.5554765131697,-0.3199,-0.6983,0.1863,-0.6126
101,840972.0,549.823013,1.0,10.05,3.14,2.07,-17.87,-25.56,-12.25,-58.25,85.06,81.19,1.2853814695973131,2.3524918786811697,-0.583757905292023,-88.58154277869775,21.473869337236096,-75.5554765131697,-0.3199,-0.6983,0.1863,-0.6126
102,841007.0,549.8610620000001,1.0,10.72,3.53,1.95,-19.75,-23.87,-15.56,-39.69,104.5,86.06,-0.007695676295444431,2.3913867069587287,-1.3943772026429535,-83.61038082086074,23.565343649892732,-79.92707858608141,-0.3185,-0.6666,0.2042,-0.6423
103,841007.0,549.8610620000001,1.0,10.72,3.53,1.95,-19.75,-23.87,-15.56,-39.69,104.5,86.06,-0.007695676295444431,2.3913867069587287,-1.3943772026429535,-83.61038082086074,23.565343649892732,-79.92707858608141,-0.3185,-0.6666,0.2042,-0.6423
104,841043.0,549.877278,1.0,11.08,4.14,1.88,-22.25,-22.75,-16.37,-8.63,114.25,83.75,-1.2730622701794845,2.630710955751861,-1.8079559908863287,-79.86728811365495,24.51434453810049,-83.65650764793494,-0.3134,-0.6419,0.2123,-0.6669
105,841043.0,549.877278,1.0,11.08,4.14,1.88,-22.25,-22.75,-16.37,-8.63,114.25,83.75,-1.2730622701794845,2.630710955751861,-1.8079559908863287,-79.86728811365495,24.51434453810049,-83.65650764793494,-0.3134,-0.6419,0.2123,-0.6669
106,841080.0,549.880085,1.0,11.22,4.21,1.75,-23.0,-20.75,-17.5,25.81,114.12,71.5,-2.364044333848136,2.4213957512125424,-1.8218983618382223,-75.51198876789933,24.38536915234885,-88.88610446361312,-0.3002,-0.6123,0.2112,-0.7002
107,841080.0,549.880085,1.0,11.22,4.21,1.75,-23.0,-20.75,-17.5,25.81,114.12,71.5,-2.364044333848136,2.4213957512125424,-1.8218983618382223,-75.51198876789933,24.38536915234885,-88.88610446361312,-0.3002,-0.6123,0.2112,-0.7002
108,841115.0,549.915079,1.0,11.64,2.69,1.35,-23.0,-20.75,-17.5,65.31,107.94,55.63,-2.2764640744140223,0.8388325981584219,-1.9688445199838276,-72.86851051764684,23.16748949044666,-92.90442546813145,-0.2858,-0.5939,0.2008,-0.7248
109,841115.0,549.915079,1.0,11.64,2.69,1.35,-23.0,-20.75,-17.5,65.31,107.94,55.63,-2.2764640744140223,0.8388325981584219,-1.9688445199838276,-72.86851051764684,23.16748949044666,-92.90442546813145,-0.2858,-0.5939,0.2008,-0.7248
110,841152.0,549.939712,1.0,11.29,2.92,1.23,-24.56,-20.37,-19.87,38.63,81.0,25.94,-3.0834588723196203,0.8182216153569943,-1.4772409411105194,-69.93336466039091,21.648844944741544,-97.09416978917605,-0.2731,-0.5731,0.1878,-0.7495
111,841152.0,549.939712,1.0,11.29,2.92,1.23,-24.56,-20.37,-19.87,38.63,81.0,25.94,-3.0834588723196203,0.8182216153569943,-1.4772409411105194,-69.93336466039091,21.648844944741544,-97.09416978917605,-0.2731,-0.5731,0.1878,-0.7495
112,841189.0,549.981761,1.0,10.97,2.88,1.34,-22.56,-20.75,-19.0,38.81,59.06,-0.56,-3.1753894106839162,0.7384708663406858,-1.138781141352199,-68.44387353354183,20.401776712875193,-99.19322722858459,-0.2691,-0.5624,0.1771,-0.7615
113,841189.0,549.981761,1.0,10.97,2.88,1.34,-22.56,-20.75,-19.0,38.81,59.06,-0.56,-3.1753894106839162,0.7384708663406858,-1.138781141352199,-68.44387353354183,20.401776712875193,-99.19322722858459,-0.2691,-0.5624,0.1771,-0.7615
114,841222.0,550.110655,1.0,10.17,1.89,2.07,-22.56,-20.75,-19.0,48.5,39.94,-20.12,-1.9412311342206057,0.2488867655835392,-0.559428190977048,-67.55923990117556,18.251289114029838,-100.85156520381315,-0.2673,-0.556,0.1586,-0.7708
115,841222.0,550.110655,1.0,10.17,1.89,2.07,-22.56,-20.75,-19.0,48.5,39.94,-20.12,-1.9412311342206057,0.2488867655835392,-0.559428190977048,-67.55923990117556,18.251289114029838,-100.85156520381315,-0.2673,-0.556,0.1586,-0.7708
116,841256.0,550.228452,1.0,10.24,1.23,2.07,-22.37,-21.25,-18.0,54.0,39.75,-6.5,-1.6837175031304064,-0.5503704121003951,-0.5624188000001613,-66.8575573210871,16.014684599323402,-102.53946443897644,-0.2618,-0.5509,0.1393,-0.7801
117,841256.0,550.228452,1.0,10.24,1.23,2.07,-22.37,-21.25,-18.0,54.0,39.75,-6.5,-1.6837175031304064,-0.5503704121003951,-0.5624188000001613,-66.8575573210871,16.014684599323402,-102.53946443897644,-0.2618,-0.5509,0.1393,-0.7801
118,841293.0,550.27733,1.0,10.9,1.66,2.15,-21.0,-22.06,-17.19,50.69,35.38,19.75,-2.175540609193444,-0.3931823178326181,-1.2070020156891612,-66.26813997300863,14.742733694368155,-103.99799847995277,-0.2529,-0.5466,0.1283,-0.7879999999999999
119,841293.0,550.27733,1.0,10.9,1.66,2.15,-21.0,-22.06,-17.19,50.69,35.38,19.75,-2.175540609193444,-0.3931823178326181,-1.2070020156891612,-66.26813997300863,14.742733694368155,-103.99799847995277,-0.2529,-0.5466,0.1283,-0.7879999999999999
120,841330.0,550.34032,1.0,11.31,2.45,1.84,-21.0,-22.06,-17.19,40.5,26.69,12.69,-3.1067155879134285,-0.0057769098266078345,-1.4916899171351117,-65.65341937322533,13.461068017168213,-105.49962088989868,-0.2424,-0.5421,0.1172,-0.7959999999999999
121,841330.0,550.34032,1.0,11.31,2.45,1.84,-21.0,-22.06,-17.19,40.5,26.69,12.69,-3.1067155879134285,-0.0057769098266078345,-1.4916899171351117,-65.65341937322533,13.461068017168213,-105.49962088989868,-0.2424,-0.5421,0.1172,-0.7959999999999999
122,841365.0,550.353886,1.0,10.87,1.76,1.78,-19.75,-22.5,-17.19,39.44,-5.63,-17.5,-2.6200238811198746,-0.5889948298461077,-1.019774153559478,-65.8990509847622,12.296340166976414,-105.72709561294405,-0.2389,-0.5439,0.1071,-0.7972
123,841365.0,550.353886,1.0,10.87,1.76,1.78,-19.75,-22.5,-17.19,39.44,-5.63,-17.5,-2.6200238811198746,-0.5889948298461077,-1.019774153559478,-65.8990509847622,12.296340166976414,-105.72709561294405,-0.2389,-0.5439,0.1071,-0.7972
124,841400.0,550.361969,1.0,9.77,1.06,2.78,-20.5,-22.56,-16.87,30.44,-32.13,-30.5,-0.8340591842444697,-0.587901055062622,-0.3552207739585889,-67.40765461346972,10.971708923508501,-104.55812296797363,-0.2396,-0.5549,0.0956,-0.7909999999999999
125,841400.0,550.361969,1.0,9.77,1.06,2.78,-20.5,-22.56,-16.87,30.44,-32.13,-30.5,-0.8340591842444697,-0.587901055062622,-0.3552207739585889,-67.40765461346972,10.971708923508501,-104.55812296797363,-0.2396,-0.5549,0.0956,-0.7909999999999999
126,841435.0,550.3656940000001,1.0,8.8,0.91,3.59,-18.87,-23.0,-16.25,14.63,-38.19,-28.75,0.4202395260106554,-0.1695672228602243,0.26983471932533304,-68.7212732151212,10.327214181692757,-103.27503144100895,-0.242,-0.5644,0.09,-0.7841
127,841435.0,550.3656940000001,1.0,8.8,0.91,3.59,-18.87,-23.0,-16.25,14.63,-38.19,-28.75,0.4202395260106554,-0.1695672228602243,0.26983471932533304,-68.7212732151212,10.327214181692757,-103.27503144100895,-0.242,-0.5644,0.09,-0.7841
128,841469.0,550.4115419999999,1.0,8.39,1.2,3.85,-18.87,-23.0,-16.25,5.06,-33.13,-22.44,0.8569103864394656,0.2738929831323389,0.5413768133420351,-70.14324952507593,9.91307033213892,-101.75523946512085,-0.2458,-0.5746,0.0864,-0.7758
129,841469.0,550.4115419999999,1.0,8.39,1.2,3.85,-18.87,-23.0,-16.25,5.06,-33.13,-22.44,0.8569103864394656,0.2738929831323389,0.5413768133420351,-70.14324952507593,9.91307033213892,-101.75523946512085,-0.2458,-0.5746,0.0864,-0.7758
130,841506.0,550.428659,1.0,8.19,1.4,3.98,-18.5,-23.75,-15.06,8.75,-20.44,-14.75,1.0511071909132554,0.5403141586226781,0.6699255167290783,-70.91515282684179,9.660046657878476,-100.95954923279673,-0.2476,-0.5801,0.0842,-0.7714
131,841506.0,550.428659,1.0,8.19,1.4,3.98,-18.5,-23.75,-15.06,8.75,-20.44,-14.75,1.0511071909132554,0.5403141586226781,0.6699255167290783,-70.91515282684179,9.660046657878476,-100.95954923279673,-0.2476,-0.5801,0.0842,-0.7714
132,841541.0,550.431558,1.0,8.25,1.11,4.03,-18.87,-23.75,-16.25,14.81,-5.44,-8.0,1.2586815636078763,0.22846983729874826,0.6470090542599111,-71.05589605083351,9.142643881088318,-100.92354086053491,-0.2476,-0.5811,0.0797,-0.7712
133,841541.0,550.431558,1.0,8.25,1.11,4.03,-18.87,-23.75,-16.25,14.81,-5.44,-8.0,1.2586815636078763,0.22846983729874826,0.6470090542599111,-71.05589605083351,9.142643881088318,-100.92354086053491,-0.2476,-0.5811,0.0797,-0.7712
134,841576.0,550.4709019999999,1.0,8.38,0.97,3.7,-18.87,-23.75,-16.25,11.19,3.63,-2.63,1.0375168558598866,-0.10278612274315048,0.6541479493704561,-71.1544897805901,8.774827247055486,-100.94154333267471,-0.2466,-0.5818,0.0765,-0.7713
135,841576.0,550.4709019999999,1.0,8.38,0.97,3.7,-18.87,-23.75,-16.25,11.19,3.63,-2.63,1.0375168558598866,-0.10278612274315048,0.6541479493704561,-71.1544897805901,8.774827247055486,-100.94154333267471,-0.2466,-0.5818,0.0765,-0.7713
136,841611.0,550.477824,1.0,8.57,0.97,3.39,-19.19,-23.75,-14.25,5.5,10.5,0.75,0.6919878093427567,-0.3212152758681284,0.5710734820846195,-70.8870189593387,8.499024412896564,-101.30231586461944,-0.2455,-0.5799,0.0741,-0.7733
137,841611.0,550.477824,1.0,8.57,0.97,3.39,-19.19,-23.75,-14.25,5.5,10.5,0.75,0.6919878093427567,-0.3212152758681284,0.5710734820846195,-70.8870189593387,8.499024412896564,-101.30231586461944,-0.2455,-0.5799,0.0741,-0.7733
138,841646.0,550.495159,1.0,8.97,1.58,3.01,-18.87,-23.06,-14.69,-10.0,13.81,1.63,-0.07191530769840929,-0.0778091872409934,0.21466512100339408,-70.45156998938438,8.579461739762628,-101.66447905765742,-0.2464,-0.5768,0.0748,-0.7753
139,841646.0,550.495159,1.0,8.97,1.58,3.01,-18.87,-23.06,-14.69,-10.0,13.81,1.63,-0.07191530769840929,-0.0778091872409934,0.21466512100339408,-70.45156998938438,8.579461739762628,-101.66447905765742,-0.2464,-0.5768,0.0748,-0.7753
140,841682.0,550.498653,1.0,9.1,1.86,2.98,-17.69,-23.75,-15.06,-12.63,12.19,1.81,-0.35868235783301294,0.09676560716926674,0.059240939975458325,-69.82153596259464,8.843785851491393,-102.08271174423224,-0.2487,-0.5723,0.0771,-0.7776
141,841682.0,550.498653,1.0,9.1,1.86,2.98,-17.69,-23.75,-15.06,-12.63,12.19,1.81,-0.35868235783301294,0.09676560716926674,0.059240939975458325,-69.82153596259464,8.843785851491393,-102.08271174423224,-0.2487,-0.5723,0.0771,-0.7776
142,841717.0,550.540784,1.0,9.21,2.17,3.01,-17.69,-23.75,-15.06,-8.0,10.13,5.19,-0.5766662340944727,0.3446198318456931,-0.10000398739422778,-69.41679304080012,9.06217605835773,-102.3747728112858,-0.2496,-0.5694,0.079,-0.7792
143,841717.0,550.540784,1.0,9.21,2.17,3.01,-17.69,-23.75,-15.06,-8.0,10.13,5.19,-0.5766662340944727,0.3446198318456931,-0.10000398739422778,-69.41679304080012,9.06217605835773,-102.3747728112858,-0.2496,-0.5694,0.079,-0.7792
144,841754.0,550.5563070000001,1.0,9.21,2.1,3.03,-17.37,-22.25,-15.06,-3.0,7.44,5.81,-0.5852506094298822,0.29931735933087456,-0.0919807559462562,-69.11040625696496,9.154139652218912,-102.70445172212514,-0.2489,-0.5672,0.0798,-0.7809999999999999
145,841754.0,550.5563070000001,1.0,9.21,2.1,3.03,-17.37,-22.25,-15.06,-3.0,7.44,5.81,-0.5852506094298822,0.29931735933087456,-0.0919807559462562,-69.11040625696496,9.154139652218912,-102.70445172212514,-0.2489,-0.5672,0.0798,-0.7809999999999999
146,841787.0,550.606547,1.0,9.14,2.3,3.13,-18.87,-23.06,-15.5,-7.44,6.44,3.38,-0.585325181686018,0.5108330474586275,-0.09400371727081236,-69.04085162488089,9.119652615329127,-102.70445172212514,-0.2502,-0.5667,0.0795,-0.7809999999999999
147,841787.0,550.606547,1.0,9.14,2.3,3.13,-18.87,-23.06,-15.5,-7.44,6.44,3.38,-0.585325181686018,0.5108330474586275,-0.09400371727081236,-69.04085162488089,9.119652615329127,-102.70445172212514,-0.2502,-0.5667,0.0795,-0.7809999999999999
148,841822.0,550.6714559999999,1.0,9.13,2.35,3.0,-18.87,-23.06,-15.5,-0.56,5.38,1.88,-0.6875270955225027,0.4451335528212969,-0.05279027889388743,-69.0964930055083,8.855279263547427,-102.55778172371149,-0.2525,-0.5671,0.0772,-0.7802
149,841822.0,550.6714559999999,1.0,9.13,2.35,3.0,-18.87,-23.06,-15.5,-0.56,5.38,1.88,-0.6875270955225027,0.4451335528212969,-0.05279027889388743,-69.0964930055083,8.855279263547427,-102.55778172371149,-0.2525,-0.5671,0.0772,-0.7802
150,841857.0,550.684024,1.0,9.2,2.19,2.87,-18.87,-22.69,-15.0,3.56,4.63,0.63,-0.7070545746681416,0.19615198356745836,-0.04903862270837678,-69.19391021689427,8.579461739762628,-102.46623177403809,-0.253,-0.5678,0.0748,-0.7797
151,841857.0,550.684024,1.0,9.2,2.19,2.87,-18.87,-22.69,-15.0,3.56,4.63,0.63,-0.7070545746681416,0.19615198356745836,-0.04903862270837678,-69.19391021689427,8.579461739762628,-102.46623177403809,-0.253,-0.5678,0.0748,-0.7797
152,841891.0,550.696745,1.0,9.25,2.11,3.08,-18.06,-23.37,-16.19,2.81,1.94,-1.25,-0.4597674459022692,0.1634903540386775,-0.15642607116520854,-69.37497967027187,8.303694005010767,-102.31994097048526,-0.2534,-0.5691,0.0724,-0.7789
153,841891.0,550.696745,1.0,9.25,2.11,3.08,-18.06,-23.37,-16.19,2.81,1.94,-1.25,-0.4597674459022692,0.1634903540386775,-0.15642607116520854,-69.37497967027187,8.303694005010767,-102.31994097048526,-0.2534,-0.5691,0.0724,-0.7789
154,841926.0,550.699836,1.0,9.11,2.06,3.27,-18.06,-23.37,-16.19,3.13,-2.88,-2.44,-0.20831564859499016,0.226321805485872,-0.0844562592064051,-69.54229663061771,8.177316654862214,-102.1556405634774,-0.2538,-0.5703,0.0713,-0.778
155,841926.0,550.699836,1.0,9.11,2.06,3.27,-18.06,-23.37,-16.19,3.13,-2.88,-2.44,-0.20831564859499016,0.226321805485872,-0.0844562592064051,-69.54229663061771,8.177316654862214,-102.1556405634774,-0.2538,-0.5703,0.0713,-0.778
156,841959.0,550.738621,1.0,8.91,1.87,3.37,-18.5,-23.06,-15.38,3.69,-3.81,-2.88,0.0496443933568719,0.15244664599886526,0.10014725934556877,-69.73771440110959,8.016487142063689,-101.99163135724292,-0.2538,-0.5717,0.0699,-0.7771
157,841959.0,550.738621,1.0,8.91,1.87,3.37,-18.5,-23.06,-15.38,3.69,-3.81,-2.88,0.0496443933568719,0.15244664599886526,0.10014725934556877,-69.73771440110959,8.016487142063689,-101.99163135724292,-0.2538,-0.5717,0.0699,-0.7771
158,841996.0,550.793538,1.0,8.86,1.83,3.31,-18.06,-24.19,-15.75,2.88,0.0,-2.06,0.03924389861042926,0.09732565329186738,0.17370716649200268,-69.77961983723269,7.9245916846795215,-101.95522422355891,-0.254,-0.5720000000000001,0.0691,-0.7769
159,841996.0,550.793538,1.0,8.86,1.83,3.31,-18.06,-24.19,-15.75,2.88,0.0,-2.06,0.03924389861042926,0.09732565329186738,0.17370716649200268,-69.77961983723269,7.9245916846795215,-101.95522422355891,-0.254,-0.5720000000000001,0.0691,-0.7769
160,842031.0,550.881391,1.0,8.94,1.69,3.31,-18.06,-24.19,-15.75,5.19,1.0,-0.69,0.09544087421051352,-0.06397858830231729,0.12560678246560286,-69.80756273226297,7.7523014124211596,-101.99163135724292,-0.2534,-0.5722,0.0676,-0.7771
161,842031.0,550.881391,1.0,8.94,1.69,3.31,-18.06,-24.19,-15.75,5.19,1.0,-0.69,0.09544087421051352,-0.06397858830231729,0.12560678246560286,-69.80756273226297,7.7523014124211596,-101.99163135724292,-0.2534,-0.5722,0.0676,-0.7771
162,842063.0,550.927962,1.0,8.91,1.62,3.26,-18.5,-23.37,-15.75,2.19,0.5,0.25,0.09433848482601603,-0.13568650853790964,0.1830961127044368,-69.82153596259464,7.683390239501281,-102.00984028062227,-0.2527,-0.5723,0.067,-0.7772
163,842063.0,550.927962,1.0,8.91,1.62,3.26,-18.5,-23.37,-15.75,2.19,0.5,0.25,0.09433848482601603,-0.13568650853790964,0.1830961127044368,-69.82153596259464,7.683390239501281,-102.00984028062227,-0.2527,-0.5723,0.067,-0.7772
164,842098.0,550.9853860000001,1.0,8.95,1.79,3.29,-17.37,-24.56,-15.38,-3.19,0.56,1.0,0.023699338217395227,0.018997251984515184,0.10459983285568164,-69.79359069064598,7.775272426130343,-102.0280527784433,-0.2529,-0.5721,0.0678,-0.7773
165,842098.0,550.9853860000001,1.0,8.95,1.79,3.29,-17.37,-24.56,-15.38,-3.19,0.56,1.0,0.023699338217395227,0.018997251984515184,0.10459983285568164,-69.79359069064598,7.775272426130343,-102.0280527784433,-0.2529,-0.5721,0.0678,-0.7773
166,842135.0,551.046432,1.0,8.89,2.03,3.44,-18.06,-23.75,-15.0,-3.56,-1.19,0.06,0.04847175794698469,0.3110561690218889,0.06562877281878697,-69.77961983723269,7.878645873813733,-101.99163135724292,-0.2535,-0.5720000000000001,0.0687,-0.7771
167,842135.0,551.046432,1.0,8.89,2.03,3.44,-18.06,-23.75,-15.0,-3.56,-1.19,0.06,0.04847175794698469,0.3110561690218889,0.06562877281878697,-69.77961983723269,7.878645873813733,-101.99163135724292,-0.2535,-0.5720000000000001,0.0687,-0.7771
168,842168.0,551.0627400000001,1.0,8.81,2.05,3.37,-18.06,-23.75,-15.0,-2.44,-0.12,-0.31,-0.007902083759518924,0.3261690424370406,0.15941975952019938,-69.75168169297477,7.94756506816392,-101.97342600574191,-0.2542,-0.5718,0.0693,-0.777
169,842168.0,551.0627400000001,1.0,8.81,2.05,3.37,-18.06,-23.75,-15.0,-2.44,-0.12,-0.31,-0.007902083759518924,0.3261690424370406,0.15941975952019938,-69.75168169297477,7.94756506816392,-101.97342600574191,-0.2542,-0.5718,0.0693,-0.777
170,842205.0,551.065886,1.0,8.93,2.1,3.2,-18.06,-23.75,-15.0,-0.75,3.19,-0.12,-0.21463112285981187,0.2507442783197028,0.0965541823476368,-69.65393554150937,7.913105112625811,-102.0280527784433,-0.2546,-0.5711,0.069,-0.7773
171,842205.0,551.065886,1.0,8.93,2.1,3.2,-18.06,-23.75,-15.0,-0.75,3.19,-0.12,-0.21463112285981187,0.2507442783197028,0.0965541823476368,-69.65393554150937,7.913105112625811,-102.0280527784433,-0.2546,-0.5711,0.069,-0.7773
172,842242.0,551.069114,1.0,9.02,1.92,3.23,-17.37,-23.37,-15.0,3.44,3.31,-0.56,-0.13093771428113168,0.05638474757988876,0.03631857904916558,-69.58415236536644,7.763786880218299,-102.13740297255077,-0.2546,-0.5706,0.0677,-0.7779
173,842242.0,551.069114,1.0,9.02,1.92,3.23,-17.37,-23.37,-15.0,3.44,3.31,-0.56,-0.13093771428113168,0.05638474757988876,0.03631857904916558,-69.58415236536644,7.763786880218299,-102.13740297255077,-0.2546,-0.5706,0.0677,-0.7779
174,842274.0,551.1097490000001,1.0,9.09,1.88,3.12,-17.37,-23.37,-15.0,1.37,1.63,-0.5,-0.22207277979913298,-0.0505432740359778,0.016602550782913283,-69.57019927388535,7.683390239501281,-102.17388174945586,-0.2542,-0.5705,0.067,-0.7781
175,842274.0,551.1097490000001,1.0,9.09,1.88,3.12,-17.37,-23.37,-15.0,1.37,1.63,-0.5,-0.22207277979913298,-0.0505432740359778,0.016602550782913283,-69.57019927388535,7.683390239501281,-102.17388174945586,-0.2542,-0.5705,0.067,-0.7781
176,842309.0,551.164615,1.0,9.06,1.99,3.15,-17.69,-24.19,-15.5,-1.5,-1.06,-0.94,-0.2354170596270047,0.06389469906296519,0.013453572098216071,-69.59810663742078,7.694875241065197,-102.11916897408959,-0.2546,-0.5707,0.0671,-0.7778
177,842309.0,551.164615,1.0,9.06,1.99,3.15,-17.69,-24.19,-15.5,-1.5,-1.06,-0.94,-0.2354170596270047,0.06389469906296519,0.013453572098216071,-69.59810663742078,7.694875241065197,-102.11916897408959,-0.2546,-0.5707,0.0671,-0.7778
178,842344.0,551.1711740000001,1.0,8.86,1.97,3.55,-18.5,-23.37,-15.88,-1.06,-2.38,-1.63,0.17280511845914084,0.2662896841001312,0.06589909490155499,-69.66789572403633,7.694875241065197,-102.0280527784433,-0.2551,-0.5712,0.0671,-0.7773
179,842344.0,551.1711740000001,1.0,8.86,1.97,3.55,-18.5,-23.37,-15.88,-1.06,-2.38,-1.63,0.17280511845914084,0.2662896841001312,0.06589909490155499,-69.66789572403633,7.694875241065197,-102.0280527784433,-0.2551,-0.5712,0.0671,-0.7773
180,842381.0,551.1880110000001,1.0,8.87,2.02,3.42,-18.5,-23.37,-15.88,-2.13,0.75,-1.94,0.038821473749510234,0.2472256328156094,0.09114320006131572,-69.66789572403633,7.694875241065197,-101.99163135724292,-0.2558,-0.5712,0.0671,-0.7771
181,842381.0,551.1880110000001,1.0,8.87,2.02,3.42,-18.5,-23.37,-15.88,-2.13,0.75,-1.94,0.038821473749510234,0.2472256328156094,0.09114320006131572,-69.66789572403633,7.694875241065197,-101.99163135724292,-0.2558,-0.5712,0.0671,-0.7771
182,842414.0,551.1910730000001,1.0,8.95,1.93,3.19,-17.69,-24.19,-15.75,1.75,2.19,-1.44,-0.13949198112808778,0.03287313980786799,0.112169026586308,-69.58415236536644,7.6259663887868285,-102.0280527784433,-0.2565,-0.5706,0.0665,-0.7773
183,842414.0,551.1910730000001,1.0,8.95,1.93,3.19,-17.69,-24.19,-15.75,1.75,2.19,-1.44,-0.13949198112808778,0.03287313980786799,0.112169026586308,-69.58415236536644,7.6259663887868285,-102.0280527784433,-0.2565,-0.5706,0.0665,-0.7773
184,842448.0,551.2271139999999,1.0,8.96,1.85,3.17,-18.87,-23.75,-15.75,1.88,1.5,-0.88,-0.12183436773951195,-0.059459780716704436,0.1249858392622052,-69.55624736247115,7.522608280519941,-102.06448850767781,-0.2563,-0.5704,0.0656,-0.7775
185,842448.0,551.2271139999999,1.0,8.96,1.85,3.17,-18.87,-23.75,-15.75,1.88,1.5,-0.88,-0.12183436773951195,-0.059459780716704436,0.1249858392622052,-69.55624736247115,7.522608280519941,-102.06448850767781,-0.2563,-0.5704,0.0656,-0.7775
186,842483.0,551.292062,1.0,9.01,1.98,3.31,-18.5,-23.37,-15.0,-1.12,-0.06,-0.12,-0.07507108890091392,0.09063084889999096,0.006509675451637165,-69.55624736247115,7.5340922105741654,-102.06448850767781,-0.2565,-0.5704,0.0657,-0.7775
187,842483.0,551.292062,1.0,9.01,1.98,3.31,-18.5,-23.37,-15.0,-1.12,-0.06,-0.12,-0.07507108890091392,0.09063084889999096,0.006509675451637165,-69.55624736247115,7.5340922105741654,-102.06448850767781,-0.2565,-0.5704,0.0657,-0.7775
188,842518.0,551.310062,1.0,8.97,2.11,3.35,-18.5,-23.37,-15.0,-2.0,-0.63,-0.06,-0.0927391108882796,0.23027543999541197,0.004921954443616983,-69.55624736247115,7.568544455864769,-102.0280527784433,-0.257,-0.5704,0.066,-0.7773
189,842518.0,551.310062,1.0,8.97,2.11,3.35,-18.5,-23.37,-15.0,-2.0,-0.63,-0.06,-0.0927391108882796,0.23027543999541197,0.004921954443616983,-69.55624736247115,7.568544455864769,-102.0280527784433,-0.257,-0.5704,0.066,-0.7773
190,842555.0,551.348618,1.0,8.9,2.08,3.36,-18.5,-24.19,-15.75,-1.69,-0.88,-1.5,-0.05306276939705612,0.22770788762267904,0.07159306845520598,-69.55624736247115,7.5915129998336095,-101.99163135724292,-0.2576,-0.5704,0.0662,-0.7771
191,842555.0,551.348618,1.0,8.9,2.08,3.36,-18.5,-24.19,-15.75,-1.69,-0.88,-1.5,-0.05306276939705612,0.22770788762267904,0.07159306845520598,-69.55624736247115,7.5915129998336095,-101.99163135724292,-0.2576,-0.5704,0.0662,-0.7771
192,842590.0,551.368025,1.0,8.91,2.04,3.44,-18.06,-23.75,-14.56,-0.63,0.94,-1.88,0.03231700127952447,0.20865929965469046,0.04249530498948317,-69.52834707781919,7.557060298129735,-101.97342600574191,-0.2583,-0.5702,0.0659,-0.777
193,842590.0,551.368025,1.0,8.91,2.04,3.44,-18.06,-23.75,-14.56,-0.63,0.94,-1.88,0.03231700127952447,0.20865929965469046,0.04249530498948317,-69.52834707781919,7.557060298129735,-101.97342600574191,-0.2583,-0.5702,0.0659,-0.777
