,TIME,ELAPSED_SECONDS,PSTATE,acc_x,acc_y,acc_z,mag_x,mag_y,mag_z,gyr_x,gyr_y,gyr_z,lin_x,lin_y,lin_z,eul_x,eul_y,eul_z,qua_w,qua_x,qua_y,qua_z
0,614012.0,363.301582,1.0,2.98,7.69,5.3,12.75,-27.75,-18.19,1.44,-1.37,0.12,-0.13058046630858056,-0.06001429652493595,0.004311145112803061,-46.319983034035175,-30.54380438300529,-91.79566979807731,-0.5103,-0.3933,-0.2634,-0.7181
1,614012.0,363.301582,1.0,2.98,7.69,5.3,12.75,-27.75,-18.19,1.44,-1.37,0.12,-0.13058046630858056,-0.06001429652493595,0.004311145112803061,-46.319983034035175,-30.54380438300529,-91.79566979807731,-0.5103,-0.3933,-0.2634,-0.7181
2,614045.0,363.420329,1.0,2.84,7.51,5.34,12.75,-27.75,-18.19,0.5,-0.31,-0.25,0.02658509102069884,0.014415022804667997,0.16401626019358773,-46.35737642818546,-30.54380438300529,-91.77920529298514,-0.5102,-0.3936,-0.2634,-0.718
3,614045.0,363.420329,1.0,2.84,7.51,5.34,12.75,-27.75,-18.19,0.5,-0.31,-0.25,0.02658509102069884,0.014415022804667997,0.16401626019358773,-46.35737642818546,-30.54380438300529,-91.77920529298514,-0.5102,-0.3936,-0.2634,-0.718
4,614082.0,363.42379500000004,1.0,2.9,7.61,5.34,12.75,-27.75,-16.06,-0.81,0.56,0.94,-0.04090133052250256,-0.007098261102709279,0.06827350820986132,-46.33244691855332,-30.52004779633356,-91.77920529298514,-0.5102,-0.3934,-0.2632,-0.718
5,614082.0,363.42379500000004,1.0,2.9,7.61,5.34,12.75,-27.75,-16.06,-0.81,0.56,0.94,-0.04090133052250256,-0.007098261102709279,0.06827350820986132,-46.33244691855332,-30.52004779633356,-91.77920529298514,-0.5102,-0.3934,-0.2632,-0.718
6,614117.0,363.473257,1.0,2.86,7.59,5.38,13.56,-27.37,-17.37,0.56,-0.44,0.44,0.009498314753980884,0.025895852638035958,0.07364742182131145,-46.33244691855332,-30.52004779633356,-91.79566979807731,-0.5101,-0.3934,-0.2632,-0.7181
7,614117.0,363.473257,1.0,2.86,7.59,5.38,13.56,-27.37,-17.37,0.56,-0.44,0.44,0.009498314753980884,0.025895852638035958,0.07364742182131145,-46.33244691855332,-30.52004779633356,-91.79566979807731,-0.5101,-0.3934,-0.2632,-0.7181
8,614154.0,363.491808,1.0,2.92,7.53,5.29,13.56,-27.37,-17.37,1.19,0.06,-0.19,-0.03868516888246831,-0.0543642918153382,0.1522754484568516,-46.35737642818546,-30.54380438300529,-91.77920529298514,-0.5101,-0.3936,-0.2634,-0.718
9,614154.0,363.491808,1.0,2.92,7.53,5.29,13.56,-27.37,-17.37,1.19,0.06,-0.19,-0.03868516888246831,-0.0543642918153382,0.1522754484568516,-46.35737642818546,-30.54380438300529,-91.77920529298514,-0.5101,-0.3936,-0.2634,-0.718
10,614189.0,363.540493,1.0,2.82,7.55,5.25,12.75,-28.19,-16.87,0.5,-0.44,0.31,-0.06753665061270152,0.048255157723877666,0.1884115832951476,-46.35737642818546,-30.52004779633356,-91.77920529298514,-0.5101,-0.3936,-0.2632,-0.718
11,614189.0,363.540493,1.0,2.82,7.55,5.25,12.75,-28.19,-16.87,0.5,-0.44,0.31,-0.06753665061270152,0.048255157723877666,0.1884115832951476,-46.35737642818546,-30.52004779633356,-91.77920529298514,-0.5101,-0.3936,-0.2632,-0.718
12,614223.0,363.629204,1.0,2.92,7.56,5.3,13.56,-28.87,-16.87,-0.06,1.0,0.06,-0.05162174234090555,-0.04258772517159759,0.12339014180233045,-46.33244691855332,-30.52004779633356,-91.79566979807731,-0.5101,-0.3934,-0.2632,-0.7181
13,614223.0,363.629204,1.0,2.92,7.56,5.3,13.56,-28.87,-16.87,-0.06,1.0,0.06,-0.05162174234090555,-0.04258772517159759,0.12339014180233045,-46.33244691855332,-30.52004779633356,-91.79566979807731,-0.5101,-0.3934,-0.2632,-0.7181
14,614258.0,363.74419,1.0,2.96,7.7,5.31,13.56,-28.87,-16.87,0.5,0.75,-0.19,-0.13028163879257648,-0.03244859009302381,-0.0030224605663828896,-46.30751972941107,-30.496292553249216,-91.81213674447598,-0.5103,-0.3932,-0.263,-0.7182
15,614258.0,363.74419,1.0,2.96,7.7,5.31,13.56,-28.87,-16.87,0.5,0.75,-0.19,-0.13028163879257648,-0.03244859009302381,-0.0030224605663828896,-46.30751972941107,-30.496292553249216,-91.81213674447598,-0.5103,-0.3932,-0.263,-0.7182
16,614293.0,363.773482,1.0,2.92,7.63,5.25,13.19,-28.87,-16.87,0.69,-0.44,-0.81,-0.13349256595280568,-0.021051127212318832,0.09647304049620152,-46.319983034035175,-30.50817000692102,-91.79566979807731,-0.5103,-0.3933,-0.2631,-0.7181
17,614293.0,363.773482,1.0,2.92,7.63,5.25,13.19,-28.87,-16.87,0.69,-0.44,-0.81,-0.13349256595280568,-0.021051127212318832,0.09647304049620152,-46.319983034035175,-30.50817000692102,-91.79566979807731,-0.5103,-0.3933,-0.2631,-0.7181
18,614328.0,363.813631,1.0,2.83,7.54,5.41,12.75,-28.87,-16.06,-0.81,-0.19,0.44,0.06246798286606081,0.03663708341425132,0.10493079795980087,-46.319983034035175,-30.50817000692102,-91.79566979807731,-0.5103,-0.3933,-0.2631,-0.7181
19,614328.0,363.813631,1.0,2.83,7.54,5.41,12.75,-28.87,-16.06,-0.81,-0.19,0.44,0.06246798286606081,0.03663708341425132,0.10493079795980087,-46.319983034035175,-30.50817000692102,-91.79566979807731,-0.5103,-0.3933,-0.2631,-0.7181
20,614365.0,363.831213,1.0,2.91,7.64,5.33,13.56,-28.5,-17.0,-0.5,0.63,0.37,-0.07318680631966258,-0.008346776847245605,0.047491531018312834,-46.29505700445262,-30.50817000692102,-91.79566979807731,-0.5103,-0.3931,-0.2631,-0.7181
21,614365.0,363.831213,1.0,2.91,7.64,5.33,13.56,-28.5,-17.0,-0.5,0.63,0.37,-0.07318680631966258,-0.008346776847245605,0.047491531018312834,-46.29505700445262,-30.50817000692102,-91.79566979807731,-0.5103,-0.3931,-0.2631,-0.7181
22,614400.0,363.834225,1.0,2.93,7.56,5.24,13.56,-28.5,-17.0,0.31,0.12,-0.25,-0.10927096198294817,-0.057354304344441775,0.15362610379832553,-46.29505700445262,-30.52004779633356,-91.81213674447598,-0.5103,-0.3931,-0.2632,-0.7182
23,614400.0,363.834225,1.0,2.93,7.56,5.24,13.56,-28.5,-17.0,0.31,0.12,-0.25,-0.10927096198294817,-0.057354304344441775,0.15362610379832553,-46.29505700445262,-30.52004779633356,-91.81213674447598,-0.5103,-0.3931,-0.2632,-0.7182
24,614434.0,363.837379,1.0,2.94,7.56,5.24,13.19,-27.37,-18.19,-0.06,0.56,-0.5,-0.11448515596576316,-0.06946069819288114,0.15072599654647156,-46.407242416234105,-30.318170931025325,-91.46684165640444,-0.5134,-0.39399999999999996,-0.2615,-0.7161
25,614434.0,363.837379,1.0,2.94,7.56,5.24,13.19,-27.37,-18.19,-0.06,0.56,-0.5,-0.11448515596576316,-0.06946069819288114,0.15072599654647156,-46.407242416234105,-30.318170931025325,-91.46684165640444,-0.5134,-0.39399999999999996,-0.2615,-0.7161
26,614471.0,363.883708,1.0,2.88,7.67,5.32,13.56,-28.87,-16.06,0.69,0.25,-0.56,-0.09493726030755134,0.027389932921387583,0.03854185624054018,-46.41971036641082,-30.318170931025325,-91.46684165640444,-0.5134,-0.3941,-0.2615,-0.7161
27,614471.0,363.883708,1.0,2.88,7.67,5.32,13.56,-28.87,-16.06,0.69,0.25,-0.56,-0.09493726030755134,0.027389932921387583,0.03854185624054018,-46.41971036641082,-30.318170931025325,-91.46684165640444,-0.5134,-0.3941,-0.2615,-0.7161
28,614506.0,363.902737,1.0,2.94,7.66,5.28,13.56,-28.87,-16.06,0.06,-0.12,-0.12,-0.13269737935772374,-0.03365696999196599,0.050684716447451095,-46.41971036641082,-30.318170931025325,-91.46684165640444,-0.5134,-0.3941,-0.2615,-0.7161
29,614506.0,363.902737,1.0,2.94,7.66,5.28,13.56,-28.87,-16.06,0.06,-0.12,-0.12,-0.13269737935772374,-0.03365696999196599,0.050684716447451095,-46.41971036641082,-30.318170931025325,-91.46684165640444,-0.5134,-0.3941,-0.2615,-0.7161
30,614541.0,363.905919,1.0,2.83,7.53,5.29,13.19,-28.87,-17.37,-0.37,-1.12,-0.37,-0.033430017602340545,0.02719616059905228,0.17897931583283722,-46.494530291688996,-30.24694330618832,-91.30279024652515,-0.5145,-0.3947,-0.2609,-0.7151
31,614541.0,363.905919,1.0,2.83,7.53,5.29,13.19,-28.87,-17.37,-0.37,-1.12,-0.37,-0.033430017602340545,0.02719616059905228,0.17897931583283722,-46.494530291688996,-30.24694330618832,-91.30279024652515,-0.5145,-0.3947,-0.2609,-0.7151
32,614576.0,363.94649100000004,1.0,2.9,7.6,5.3,13.56,-28.5,-15.69,-1.12,0.44,-0.5,-0.08036572291063293,-0.013100940914320349,0.09823253287755483,-46.46958798664575,-30.21133398212997,-91.31918456864187,-0.5146,-0.3945,-0.2606,-0.7152
33,614576.0,363.94649100000004,1.0,2.9,7.6,5.3,13.56,-28.5,-15.69,-1.12,0.44,-0.5,-0.08036572291063293,-0.013100940914320349,0.09823253287755483,-46.46958798664575,-30.21133398212997,-91.31918456864187,-0.5146,-0.3945,-0.2606,-0.7152
34,614610.0,363.95367000000005,1.0,2.91,7.61,5.45,13.56,-28.5,-15.69,0.5,0.06,0.06,0.040138189056543316,-0.016251742365625432,0.004567323004804891,-46.50700231874489,-30.187596092266823,-91.2372369350846,-0.5153,-0.3948,-0.2604,-0.7147
35,614610.0,363.95367000000005,1.0,2.91,7.61,5.45,13.56,-28.5,-15.69,0.5,0.06,0.06,0.040138189056543316,-0.016251742365625432,0.004567323004804891,-46.50700231874489,-30.187596092266823,-91.2372369350846,-0.5153,-0.3948,-0.2604,-0.7147
36,614645.0,363.972296,1.0,2.89,7.69,5.29,12.75,-28.5,-16.87,-1.44,0.44,0.5,-0.13369005185545202,0.026409954423590957,0.03660754951175882,-46.50700231874489,-30.17572764472251,-91.25362166916472,-0.5152,-0.3948,-0.2603,-0.7148
37,614645.0,363.972296,1.0,2.89,7.69,5.29,12.75,-28.5,-16.87,-1.44,0.44,0.5,-0.13369005185545202,0.026409954423590957,0.03660754951175882,-46.50700231874489,-30.17572764472251,-91.25362166916472,-0.5152,-0.3948,-0.2603,-0.7148
38,614680.0,363.975385,1.0,2.91,7.59,5.19,13.56,-27.75,-15.69,-0.44,-0.31,-0.44,-0.1707038012211508,-0.02804168101911753,0.16391315425054032,-46.50700231874489,-30.14012428977767,-91.2372369350846,-0.5155,-0.3948,-0.26,-0.7147
39,614680.0,363.975385,1.0,2.91,7.59,5.19,13.56,-27.75,-15.69,-0.44,-0.31,-0.44,-0.1707038012211508,-0.02804168101911753,0.16391315425054032,-46.50700231874489,-30.14012428977767,-91.2372369350846,-0.5155,-0.3948,-0.26,-0.7147
40,614715.0,364.01432,1.0,2.79,7.45,5.45,13.56,-27.75,-15.69,2.06,-0.37,1.0,0.14558660477533714,0.04819527496680909,0.16478390696692635,-46.54442190080458,-30.15199174363297,-91.2044746461752,-0.5155,-0.3951,-0.2601,-0.7145
41,614715.0,364.01432,1.0,2.79,7.45,5.45,13.56,-27.75,-15.69,2.06,-0.37,1.0,0.14558660477533714,0.04819527496680909,0.16478390696692635,-46.54442190080458,-30.15199174363297,-91.2044746461752,-0.5155,-0.3951,-0.2601,-0.7145
42,614750.0,364.038154,1.0,2.82,7.58,5.27,13.56,-27.75,-15.69,-1.25,0.63,0.19,-0.07891377272637823,0.057033029304004675,0.15407418573972187,-46.53194812307301,-30.16385952856291,-91.2372369350846,-0.5153,-0.395,-0.2602,-0.7147
43,614750.0,364.038154,1.0,2.82,7.58,5.27,13.56,-27.75,-15.69,-1.25,0.63,0.19,-0.07891377272637823,0.057033029304004675,0.15407418573972187,-46.53194812307301,-30.16385952856291,-91.2372369350846,-0.5153,-0.395,-0.2602,-0.7147
44,614787.0,364.09839900000003,1.0,3.08,7.67,5.18,13.19,-28.87,-16.87,0.12,0.06,0.06,-0.2438040986018133,-0.1639591239671696,0.056707591597122686,-46.53194812307301,-30.15199174363297,-91.2044746461752,-0.5157,-0.395,-0.2601,-0.7145
45,614787.0,364.09839900000003,1.0,3.08,7.67,5.18,13.19,-28.87,-16.87,0.12,0.06,0.06,-0.2438040986018133,-0.1639591239671696,0.056707591597122686,-46.53194812307301,-30.15199174363297,-91.2044746461752,-0.5157,-0.395,-0.2601,-0.7145
46,614821.0,364.138913,1.0,2.79,7.59,5.4,13.19,-28.5,-16.06,1.06,-1.88,-0.5,0.03244474300500588,0.09505932093688596,0.08337323420985854,-46.58184673902731,-30.128257166842047,-91.15534914020606,-0.5158,-0.3954,-0.2599,-0.7142
47,614821.0,364.138913,1.0,2.79,7.59,5.4,13.19,-28.5,-16.06,1.06,-1.88,-0.5,0.03244474300500588,0.09505932093688596,0.08337323420985854,-46.58184673902731,-30.128257166842047,-91.15534914020606,-0.5158,-0.3954,-0.2599,-0.7142
48,614856.0,364.155326,1.0,2.86,7.45,5.43,13.19,-28.5,-16.06,0.31,0.63,-0.56,0.12120259330181635,-0.01763029697800533,0.1551216700407796,-46.58184673902731,-30.128257166842047,-91.13897874666814,-0.5159,-0.3954,-0.2599,-0.7141
49,614856.0,364.155326,1.0,2.86,7.45,5.43,13.19,-28.5,-16.06,0.31,0.63,-0.56,0.12120259330181635,-0.01763029697800533,0.1551216700407796,-46.58184673902731,-30.128257166842047,-91.13897874666814,-0.5159,-0.3954,-0.2599,-0.7141
50,614889.0,364.158351,1.0,3.02,7.59,5.15,12.75,-28.19,-16.5,-0.69,0.81,0.12,-0.2188456965979806,-0.13320605347753744,0.15339341434987475,-46.556896262554226,-30.09265778200395,-91.13897874666814,-0.5163,-0.3952,-0.2596,-0.7141
51,614889.0,364.158351,1.0,3.02,7.59,5.15,12.75,-28.19,-16.5,-0.69,0.81,0.12,-0.2188456965979806,-0.13320605347753744,0.15339341434987475,-46.556896262554226,-30.09265778200395,-91.13897874666814,-0.5163,-0.3952,-0.2596,-0.7141
52,614926.0,364.19858,1.0,2.83,7.65,5.37,12.38,-28.19,-16.06,0.31,-0.56,0.06,-0.039805406103474265,0.07462021807421948,0.0413467608425222,-46.556896262554226,-30.080791981197944,-91.13897874666814,-0.5164,-0.3952,-0.2595,-0.7141
53,614926.0,364.19858,1.0,2.83,7.65,5.37,12.38,-28.19,-16.06,0.31,-0.56,0.06,-0.039805406103474265,0.07462021807421948,0.0413467608425222,-46.556896262554226,-30.080791981197944,-91.13897874666814,-0.5164,-0.3952,-0.2595,-0.7141
54,614961.0,364.216793,1.0,2.86,7.52,5.36,12.38,-28.19,-16.06,0.63,0.12,-0.81,0.016874525069295432,0.0015169937100063535,0.1392143033359794,-46.569371208551814,-30.057061369867114,-91.07352101138805,-0.5168,-0.3953,-0.2593,-0.7137
55,614961.0,364.216793,1.0,2.86,7.52,5.36,12.38,-28.19,-16.06,0.63,0.12,-0.81,0.016874525069295432,0.0015169937100063535,0.1392143033359794,-46.569371208551814,-30.057061369867114,-91.07352101138805,-0.5168,-0.3953,-0.2593,-0.7137
56,614995.0,364.220163,1.0,2.9,7.68,5.27,13.19,-28.5,-16.5,0.06,0.63,1.0,-0.151819843141499,0.014194014563027938,0.052571403577934106,-46.556896262554226,-30.057061369867114,-91.10624511400431,-0.5167,-0.3952,-0.2593,-0.7139
57,614995.0,364.220163,1.0,2.9,7.68,5.27,13.19,-28.5,-16.5,0.06,0.63,1.0,-0.151819843141499,0.014194014563027938,0.052571403577934106,-46.556896262554226,-30.057061369867114,-91.10624511400431,-0.5167,-0.3952,-0.2593,-0.7139
58,615030.0,364.26050499999997,1.0,2.93,7.58,5.32,13.56,-28.19,-16.06,0.37,-0.25,-0.63,-0.061995120854450476,-0.046528608890675116,0.09389077856632257,-46.556896262554226,-30.045196559032803,-91.07352101138805,-0.5169,-0.3952,-0.2592,-0.7137
59,615030.0,364.26050499999997,1.0,2.93,7.58,5.32,13.56,-28.19,-16.06,0.37,-0.25,-0.63,-0.061995120854450476,-0.046528608890675116,0.09389077856632257,-46.556896262554226,-30.045196559032803,-91.07352101138805,-0.5169,-0.3952,-0.2592,-0.7137
60,615065.0,364.267899,1.0,2.89,7.59,5.39,12.75,-29.25,-16.87,-0.06,0.25,0.12,-0.003452625559516198,-0.0035761761485870736,0.05922596642369804,-46.556896262554226,-30.045196559032803,-91.07352101138805,-0.517,-0.3952,-0.2592,-0.7137
61,615065.0,364.267899,1.0,2.89,7.59,5.39,12.75,-29.25,-16.87,-0.06,0.25,0.12,-0.003452625559516198,-0.0035761761485870736,0.05922596642369804,-46.556896262554226,-30.045196559032803,-91.07352101138805,-0.517,-0.3952,-0.2592,-0.7137
62,615102.0,364.28711,1.0,2.82,7.59,5.32,12.75,-29.25,-16.87,-0.06,0.31,-0.12,-0.05199084766867679,0.06109386683758356,0.11869539176645814,-46.556896262554226,-30.033332077879628,-91.07352101138805,-0.517,-0.3952,-0.2591,-0.7137
63,615102.0,364.28711,1.0,2.82,7.59,5.32,12.75,-29.25,-16.87,-0.06,0.31,-0.12,-0.05199084766867679,0.06109386683758356,0.11869539176645814,-46.556896262554226,-30.033332077879628,-91.07352101138805,-0.517,-0.3952,-0.2591,-0.7137
64,615137.0,364.290078,1.0,2.94,7.55,5.22,13.19,-28.5,-16.5,0.44,0.25,0.5,-0.1298612449500478,-0.06954116545266897,0.16959650407254934,-46.569371208551814,-30.045196559032803,-91.07352101138805,-0.517,-0.3953,-0.2592,-0.7137
65,615137.0,364.290078,1.0,2.94,7.55,5.22,13.19,-28.5,-16.5,0.44,0.25,0.5,-0.1298612449500478,-0.06954116545266897,0.16959650407254934,-46.569371208551814,-30.045196559032803,-91.07352101138805,-0.517,-0.3953,-0.2592,-0.7137
66,615174.0,364.293098,1.0,2.83,7.59,5.4,12.75,-29.25,-16.87,-0.44,-0.06,-0.12,0.006825661221006696,0.05359027291985363,0.07145192841474213,-46.54442190080458,-29.99774061096053,-91.05716253041412,-0.5175,-0.3951,-0.2588,-0.7136
67,615174.0,364.293098,1.0,2.83,7.59,5.4,12.75,-29.25,-16.87,-0.44,-0.06,-0.12,0.006825661221006696,0.05359027291985363,0.07145192841474213,-46.54442190080458,-29.99774061096053,-91.05716253041412,-0.5175,-0.3951,-0.2588,-0.7136
68,615208.0,364.333507,1.0,2.88,7.68,5.34,12.75,-29.25,-16.87,-0.88,0.5,-0.44,-0.1021744844442476,0.03558333198407393,0.019888829867490188,-46.53194812307301,-29.97401461191905,-91.05716253041412,-0.5175,-0.395,-0.2586,-0.7136
69,615208.0,364.333507,1.0,2.88,7.68,5.34,12.75,-29.25,-16.87,-0.88,0.5,-0.44,-0.1021744844442476,0.03558333198407393,0.019888829867490188,-46.53194812307301,-29.97401461191905,-91.05716253041412,-0.5175,-0.395,-0.2586,-0.7136
70,615241.0,364.395386,1.0,2.95,7.47,5.21,13.56,-28.5,-16.87,-0.56,0.63,0.19,-0.10549918958915527,-0.10922033429431187,0.2345843483460861,-46.54442190080458,-29.985877446985693,-91.0081013523764,-0.5178,-0.3951,-0.2587,-0.7133
71,615241.0,364.395386,1.0,2.95,7.47,5.21,13.56,-28.5,-16.87,-0.56,0.63,0.19,-0.10549918958915527,-0.10922033429431187,0.2345843483460861,-46.54442190080458,-29.985877446985693,-91.0081013523764,-0.5178,-0.3951,-0.2587,-0.7133
72,615276.0,364.48553599999997,1.0,2.92,7.56,5.4,13.56,-28.19,-16.06,0.31,-0.56,-0.31,0.004567208711270032,-0.04338237976261938,0.06816463985642507,-46.53194812307301,-29.96215210560615,-91.0081013523764,-0.518,-0.395,-0.2585,-0.7133
73,615276.0,364.48553599999997,1.0,2.92,7.56,5.4,13.56,-28.19,-16.06,0.31,-0.56,-0.31,0.004567208711270032,-0.04338237976261938,0.06816463985642507,-46.53194812307301,-29.96215210560615,-91.0081013523764,-0.518,-0.395,-0.2585,-0.7133
74,615313.0,364.588418,1.0,2.82,7.64,5.41,13.56,-28.5,-17.37,2.31,0.81,-0.25,-0.011982233337999526,0.07461474594867212,0.029923090355277182,-46.59432285421078,-29.902844499943303,-90.84471821404394,-0.5193,-0.3955,-0.258,-0.7123
75,615313.0,364.588418,1.0,2.82,7.64,5.41,13.56,-28.5,-17.37,2.31,0.81,-0.25,-0.011982233337999526,0.07461474594867212,0.029923090355277182,-46.59432285421078,-29.902844499943303,-90.84471821404394,-0.5193,-0.3955,-0.258,-0.7123
76,615348.0,364.638612,1.0,2.85,7.58,5.26,13.56,-28.5,-17.37,-0.75,0.12,-0.5,-0.1074745096578784,0.01957604953615899,0.1508452169662018,-46.59432285421078,-29.9147053648035,-90.84471821404394,-0.5192,-0.3955,-0.2581,-0.7123
77,615348.0,364.638612,1.0,2.85,7.58,5.26,13.56,-28.5,-17.37,-0.75,0.12,-0.5,-0.1074745096578784,0.01957604953615899,0.1508452169662018,-46.59432285421078,-29.9147053648035,-90.84471821404394,-0.5192,-0.3955,-0.2581,-0.7123
78,615383.0,364.647698,1.0,2.81,7.61,5.39,13.56,-28.5,-15.69,-0.63,0.44,0.25,-0.0116763947356191,0.07224072783069024,0.06729966545260346,-46.58184673902731,-29.9147053648035,-90.86104588243143,-0.5192,-0.3954,-0.2581,-0.7124
79,615383.0,364.647698,1.0,2.81,7.61,5.39,13.56,-28.5,-15.69,-0.63,0.44,0.25,-0.0116763947356191,0.07224072783069024,0.06729966545260346,-46.58184673902731,-29.9147053648035,-90.86104588243143,-0.5192,-0.3954,-0.2581,-0.7124
80,615417.0,364.661333,1.0,2.93,7.6,5.44,13.19,-28.87,-17.37,0.75,1.44,1.31,0.021095493474869054,-0.043942766351982236,0.011951229060672476,-46.60679955433233,-29.9147053648035,-90.81206995793598,-0.5195,-0.3956,-0.2581,-0.7121
81,615417.0,364.661333,1.0,2.93,7.6,5.44,13.19,-28.87,-17.37,0.75,1.44,1.31,0.021095493474869054,-0.043942766351982236,0.011951229060672476,-46.60679955433233,-29.9147053648035,-90.81206995793598,-0.5195,-0.3956,-0.2581,-0.7121
82,615452.0,364.664578,1.0,2.9,7.72,5.28,13.19,-28.87,-17.37,-2.38,0.44,0.69,-0.1854259210880722,0.02005137417882885,0.01624576063469263,-46.54442190080458,-29.86726387171145,-90.87737591284895,-0.5194,-0.3951,-0.2577,-0.7125
83,615452.0,364.664578,1.0,2.9,7.72,5.28,13.19,-28.87,-17.37,-2.38,0.44,0.69,-0.1854259210880722,0.02005137417882885,0.01624576063469263,-46.54442190080458,-29.86726387171145,-90.87737591284895,-0.5194,-0.3951,-0.2577,-0.7125
84,615487.0,364.709733,1.0,2.87,7.62,5.19,13.19,-28.5,-16.5,-0.12,0.5,0.44,-0.20359778132416076,0.012286089854935513,0.15285297523114671,-46.54442190080458,-29.85540431723644,-90.87737591284895,-0.5195,-0.3951,-0.2576,-0.7125
85,615487.0,364.709733,1.0,2.87,7.62,5.19,13.19,-28.5,-16.5,-0.12,0.5,0.44,-0.20359778132416076,0.012286089854935513,0.15285297523114671,-46.54442190080458,-29.85540431723644,-90.87737591284895,-0.5195,-0.3951,-0.2576,-0.7125
86,615524.0,364.729509,1.0,2.9,7.44,5.35,13.56,-28.5,-16.5,1.25,0.12,0.56,0.028176268682020836,-0.06863773823990371,0.1951675462485252,-46.569371208551814,-29.89098396291072,-90.87737591284895,-0.5193,-0.3953,-0.2579,-0.7125
87,615524.0,364.729509,1.0,2.9,7.44,5.35,13.56,-28.5,-16.5,1.25,0.12,0.56,0.028176268682020836,-0.06863773823990371,0.1951675462485252,-46.569371208551814,-29.89098396291072,-90.87737591284895,-0.5193,-0.3953,-0.2579,-0.7125
88,615557.0,364.7326,1.0,2.84,7.5,5.4,13.56,-28.5,-16.5,-1.63,0.5,-0.12,0.04270055016554308,0.009172984697302766,0.13847062023219614,-46.54442190080458,-29.879123753551497,-90.87737591284895,-0.5193,-0.3951,-0.2578,-0.7125
89,615557.0,364.7326,1.0,2.84,7.5,5.4,13.56,-28.5,-16.5,-1.63,0.5,-0.12,0.04270055016554308,0.009172984697302766,0.13847062023219614,-46.54442190080458,-29.879123753551497,-90.87737591284895,-0.5193,-0.3951,-0.2578,-0.7125
90,615591.0,364.773009,1.0,2.96,7.87,5.19,12.38,-28.87,-16.06,-3.63,1.0,-0.19,-0.3676581935519709,0.007657588130916881,-0.06752686767145555,-46.45711770819951,-29.8198276164604,-90.94271968197992,-0.5196,-0.3944,-0.2573,-0.7129
91,615591.0,364.773009,1.0,2.96,7.87,5.19,12.38,-28.87,-16.06,-3.63,1.0,-0.19,-0.3676581935519709,0.007657588130916881,-0.06752686767145555,-46.45711770819951,-29.8198276164604,-90.94271968197992,-0.5196,-0.3944,-0.2573,-0.7129
92,615626.0,364.780846,1.0,2.87,7.6,5.36,13.19,-28.5,-16.5,0.5,-0.06,0.0,-0.06668839231021018,0.008793491417134813,0.07412846995241472,-46.45711770819951,-29.83168618976498,-90.926380189859,-0.5197,-0.3944,-0.2574,-0.7128
93,615626.0,364.780846,1.0,2.87,7.6,5.36,13.19,-28.5,-16.5,0.5,-0.06,0.0,-0.06668839231021018,0.008793491417134813,0.07412846995241472,-46.45711770819951,-29.83168618976498,-90.926380189859,-0.5197,-0.3944,-0.2574,-0.7128
94,615663.0,364.797773,1.0,2.83,7.44,5.46,13.19,-28.5,-16.87,-0.31,0.0,1.0,0.11345299340677185,-0.0002071182304721475,0.15464355701680255,-46.494530291688996,-29.83168618976498,-90.89370830665364,-0.5198,-0.3947,-0.2574,-0.7126
95,615663.0,364.797773,1.0,2.83,7.44,5.46,13.19,-28.5,-16.87,-0.31,0.0,1.0,0.11345299340677185,-0.0002071182304721475,0.15464355701680255,-46.494530291688996,-29.83168618976498,-90.89370830665364,-0.5198,-0.3947,-0.2574,-0.7126
96,615698.0,364.84288399999997,1.0,3.02,7.8,5.18,13.19,-28.5,-16.87,-2.63,0.69,0.19,-0.3504671417509069,-0.07342940663816623,-0.025164731004325702,-46.45711770819951,-29.796111449943446,-90.926380189859,-0.52,-0.3944,-0.2571,-0.7128
97,615698.0,364.84288399999997,1.0,3.02,7.8,5.18,13.19,-28.5,-16.87,-2.63,0.69,0.19,-0.3504671417509069,-0.07342940663816623,-0.025164731004325702,-46.45711770819951,-29.796111449943446,-90.926380189859,-0.52,-0.3944,-0.2571,-0.7128
98,615735.0,364.899514,1.0,3.67,8.71,4.69,13.56,-27.37,-16.06,3.38,-8.0,4.25,-1.3384784073277447,-0.3890915048622761,-0.6521349845936406,-46.569371208551814,-29.677550179192284,-90.89370830665364,-0.52,-0.3953,-0.2561,-0.7126
99,615735.0,364.899514,1.0,3.67,8.71,4.69,13.56,-27.37,-16.06,3.38,-8.0,4.25,-1.3384784073277447,-0.3890915048622761,-0.6521349845936406,-46.569371208551814,-29.677550179192284,-90.89370830665364,-0.52,-0.3953,-0.2561,-0.7126
100,615770.0,364.916584,1.0,4.61,11.71,3.56,12.75,-28.5,-16.87,49.31,-39.5,-0.31,-3.8329374321777374,-0.2754888284988759,-2.6946497942767174,-47.56928036162765,-29.74868303296809,-90.32347191708826,-0.5183,-0.4033,-0.2567,-0.7091
101,615770.0,364.916584,1.0,4.61,11.71,3.56,12.75,-28.5,-16.87,49.31,-39.5,-0.31,-3.8329374321777374,-0.2754888284988759,-2.6946497942767174,-47.56928036162765,-29.74868303296809,-90.32347191708826,-0.5183,-0.4033,-0.2567,-0.7091
102,615802.0,364.96084,1.0,5.24,12.97,3.25,12.75,-28.5,-16.87,86.37,-68.31,-10.69,-4.074068409349499,-0.4120457746653523,-3.958275894298192,-50.605340832368576,-30.686372188368548,-87.99070189101793,-0.5146,-0.4274,-0.2646,-0.6946
103,615802.0,364.96084,1.0,5.24,12.97,3.25,12.75,-28.5,-16.87,86.37,-68.31,-10.69,-4.074068409349499,-0.4120457746653523,-3.958275894298192,-50.605340832368576,-30.686372188368548,-87.99070189101793,-0.5146,-0.4274,-0.2646,-0.6946
104,615839.0,364.978071,1.0,2.09,13.95,3.81,12.75,-28.19,-15.25,157.25,-49.06,32.44,-2.6972005829304453,3.11268848089402,-4.2120153942645135,-54.33585677451873,-32.377196032412236,-85.70291578094474,-0.5013,-0.4566,-0.2788,-0.6801
105,615839.0,364.978071,1.0,2.09,13.95,3.81,12.75,-28.19,-15.25,157.25,-49.06,32.44,-2.6972005829304453,3.11268848089402,-4.2120153942645135,-54.33585677451873,-32.377196032412236,-85.70291578094474,-0.5013,-0.4566,-0.2788,-0.6801
106,615876.0,365.020795,1.0,7.76,14.22,-1.59,11.69,-29.69,-14.06,274.25,-18.62,33.44,-6.091847352334455,-1.5859808756821714,-5.2042846976737644,-60.55652194040018,-37.446822845384496,-83.36465078667902,-0.4478,-0.5042,-0.321,-0.665
107,615876.0,365.020795,1.0,7.76,14.22,-1.59,11.69,-29.69,-14.06,274.25,-18.62,33.44,-6.091847352334455,-1.5859808756821714,-5.2042846976737644,-60.55652194040018,-37.446822845384496,-83.36465078667902,-0.4478,-0.5042,-0.321,-0.665
108,615911.0,365.082916,1.0,9.14,12.56,-1.55,11.69,-29.69,-14.06,233.31,-75.44,11.94,-3.9020157246616467,-3.3472042216287283,-4.933302414550194,-65.8990509847622,-41.53786260419432,-78.98838423592355,-0.4171,-0.5439,-0.3546,-0.636
109,615911.0,365.082916,1.0,9.14,12.56,-1.55,11.69,-29.69,-14.06,233.31,-75.44,11.94,-3.9020157246616467,-3.3472042216287283,-4.933302414550194,-65.8990509847622,-41.53786260419432,-78.98838423592355,-0.4171,-0.5439,-0.3546,-0.636
110,615946.0,365.090364,1.0,1.45,20.7,0.69,9.75,-31.19,-8.38,252.44,-37.06,54.94,0.34500371322906354,7.505803189230356,-9.548258703540755,-72.21469959987994,-44.320703388770774,-74.44329258880299,-0.3803,-0.5893,-0.3772,-0.6049
111,615946.0,365.090364,1.0,1.45,20.7,0.69,9.75,-31.19,-8.38,252.44,-37.06,54.94,0.34500371322906354,7.505803189230356,-9.548258703540755,-72.21469959987994,-44.320703388770774,-74.44329258880299,-0.3803,-0.5893,-0.3772,-0.6049
112,615981.0,365.108552,1.0,7.88,11.15,-3.49,7.88,-31.19,-3.06,383.25,31.81,114.75,-1.0473232637019263,-1.233475459323694,-4.192587560401458,-79.55381523993225,-50.846289172862214,-69.5004515073649,-0.2853,-0.6398,-0.4293,-0.57
113,615981.0,365.108552,1.0,7.88,11.15,-3.49,7.88,-31.19,-3.06,383.25,31.81,114.75,-1.0473232637019263,-1.233475459323694,-4.192587560401458,-79.55381523993225,-50.846289172862214,-69.5004515073649,-0.2853,-0.6398,-0.4293,-0.57
114,616017.0,365.154199,1.0,2.76,16.54,-2.28,7.56,-31.19,5.06,238.0,-86.62,38.56,3.3989039898655773,5.806247278845754,-5.721471077727727,-84.72206500892995,-52.78270669863224,-64.49803318236535,-0.2524,-0.6738,-0.4445,-0.5336
115,616017.0,365.154199,1.0,2.76,16.54,-2.28,7.56,-31.19,5.06,238.0,-86.62,38.56,3.3989039898655773,5.806247278845754,-5.721471077727727,-84.72206500892995,-52.78270669863224,-64.49803318236535,-0.2524,-0.6738,-0.4445,-0.5336
116,616050.0,365.218953,1.0,2.97,-1.34,-10.62,7.56,-31.19,5.06,220.75,1564.56,1688.06,-10.483268314177971,2.9163795415685487,7.571316507549153,-80.00185346292129,-33.56028583882476,-90.16107125343979,0.0441,-0.6428,-0.2887,-0.7081
117,616050.0,365.218953,1.0,2.97,-1.34,-10.62,7.56,-31.19,5.06,220.75,1564.56,1688.06,-10.483268314177971,2.9163795415685487,7.571316507549153,-80.00185346292129,-33.56028583882476,-90.16107125343979,0.0441,-0.6428,-0.2887,-0.7081
118,616087.0,365.23757,1.0,-5.14,-6.28,4.01,11.25,-28.19,8.0,866.94,-966.69,401.75,-3.0218601894623123,-5.84578467188288,16.022216150023826,-103.33043920857978,-33.991407904492696,-61.2077995443589,0.2,-0.7844,-0.2923,-0.5091
119,616087.0,365.23757,1.0,-5.14,-6.28,4.01,11.25,-28.19,8.0,866.94,-966.69,401.75,-3.0218601894623123,-5.84578467188288,16.022216150023826,-103.33043920857978,-33.991407904492696,-61.2077995443589,0.2,-0.7844,-0.2923,-0.5091
120,616124.0,365.283928,1.0,7.51,-2.3,-2.63,-15.25,-26.56,21.25,-577.63,-117.12,-385.63,-2.7456271538685844,-4.4854302740864815,3.4074745227804537,-95.4287628527733,-48.27150646713053,-64.41675547774169,0.0367,-0.7398,-0.4089,-0.5329999999999999
121,616124.0,365.283928,1.0,7.51,-2.3,-2.63,-15.25,-26.56,21.25,-577.63,-117.12,-385.63,-2.7456271538685844,-4.4854302740864815,3.4074745227804537,-95.4287628527733,-48.27150646713053,-64.41675547774169,0.0367,-0.7398,-0.4089,-0.5329999999999999
122,616161.0,365.30709,1.0,6.31,5.14,-12.17,-15.25,-26.56,21.25,329.56,-377.25,-51.75,-5.254849186467514,3.031800452278546,-3.5177391434108665,-97.00765780551973,-53.525866533741606,-57.907047347217045,-0.0433,-0.7490000000000001,-0.4503,-0.4841
123,616161.0,365.30709,1.0,6.31,5.14,-12.17,-15.25,-26.56,21.25,329.56,-377.25,-51.75,-5.254849186467514,3.031800452278546,-3.5177391434108665,-97.00765780551973,-53.525866533741606,-57.907047347217045,-0.0433,-0.7490000000000001,-0.4503,-0.4841
124,616196.0,365.351314,1.0,2.56,-3.75,0.35,0.5,-32.88,23.69,166.25,55.31,451.81,-1.9890704158360333,-3.78858774999682,8.248188662199187,-103.21965750009808,-47.381506989805345,-52.71875358132653,0.1648,-0.7838,-0.4018,-0.444
125,616196.0,365.351314,1.0,2.56,-3.75,0.35,0.5,-32.88,23.69,166.25,55.31,451.81,-1.9890704158360333,-3.78858774999682,8.248188662199187,-103.21965750009808,-47.381506989805345,-52.71875358132653,0.1648,-0.7838,-0.4018,-0.444
126,616230.0,365.406472,1.0,4.18,9.4,-7.52,1.25,-36.0,35.69,-52.25,-203.06,-121.69,4.454489469680769,7.767202104593937,0.7396276094411931,-107.47198140386222,-48.058128241744505,-48.171071061668,0.1326,-0.8063,-0.4072,-0.4081
127,616230.0,365.406472,1.0,4.18,9.4,-7.52,1.25,-36.0,35.69,-52.25,-203.06,-121.69,4.454489469680769,7.767202104593937,0.7396276094411931,-107.47198140386222,-48.058128241744505,-48.171071061668,0.1326,-0.8063,-0.4072,-0.4081
128,616267.0,365.51356699999997,1.0,12.63,0.12,-8.74,-10.0,-31.0,38.5,212.31,146.75,179.44,-0.3471607361302784,-0.7110153997558895,-5.532608017407478,-102.9984985112295,-50.503960586262394,-48.57304992918911,0.1906,-0.7826,-0.4266,-0.4113
129,616267.0,365.51356699999997,1.0,12.63,0.12,-8.74,-10.0,-31.0,38.5,212.31,146.75,179.44,-0.3471607361302784,-0.7110153997558895,-5.532608017407478,-102.9984985112295,-50.503960586262394,-48.57304992918911,0.1906,-0.7826,-0.4266,-0.4113
130,616302.0,365.57229700000005,1.0,5.93,0.27,-6.48,-10.0,-31.0,38.5,234.88,-95.31,279.56,0.7144722889012058,2.283943705054812,1.350804063576323,-107.87980072820757,-45.12611671542185,-40.71784682431407,0.2797,-0.8084,-0.3837,-0.3479
131,616302.0,365.57229700000005,1.0,5.93,0.27,-6.48,-10.0,-31.0,38.5,234.88,-95.31,279.56,0.7144722889012058,2.283943705054812,1.350804063576323,-107.87980072820757,-45.12611671542185,-40.71784682431407,0.2797,-0.8084,-0.3837,-0.3479
132,616337.0,365.58903399999997,1.0,2.4,-8.53,-1.55,-17.37,-20.0,40.0,249.31,94.87,156.19,-6.0855622647881535,-3.7127643964083386,4.3198738556553895,-106.03132620370606,-43.70272222782621,-36.80615463747225,0.3519,-0.7988,-0.3722,-0.3157
133,616337.0,365.58903399999997,1.0,2.4,-8.53,-1.55,-17.37,-20.0,40.0,249.31,94.87,156.19,-6.0855622647881535,-3.7127643964083386,4.3198738556553895,-106.03132620370606,-43.70272222782621,-36.80615463747225,0.3519,-0.7988,-0.3722,-0.3157
134,616374.0,365.592511,1.0,3.42,-2.18,-1.51,-20.19,-3.56,39.69,49.94,10.0,72.75,-0.02822936578905438,-0.7576869918449172,5.545897305311401,-105.76506603938064,-39.656282501806686,-35.37196719600466,0.3959,-0.7974,-0.3392,-0.3038
135,616374.0,365.592511,1.0,3.42,-2.18,-1.51,-20.19,-3.56,39.69,49.94,10.0,72.75,-0.02822936578905438,-0.7576869918449172,5.545897305311401,-105.76506603938064,-39.656282501806686,-35.37196719600466,0.3959,-0.7974,-0.3392,-0.3038
136,616411.0,365.633777,1.0,0.07,-3.09,1.42,-20.19,-3.56,39.69,164.25,82.31,79.12,-2.1152873540204857,-2.501441272549953,8.891362629878092,-103.12744256593236,-38.86547335701747,-34.23113412634732,0.4348,-0.7833,-0.3327,-0.2943
137,616411.0,365.633777,1.0,0.07,-3.09,1.42,-20.19,-3.56,39.69,164.25,82.31,79.12,-2.1152873540204857,-2.501441272549953,8.891362629878092,-103.12744256593236,-38.86547335701747,-34.23113412634732,0.4348,-0.7833,-0.3327,-0.2943
138,616443.0,365.651427,1.0,0.92,-3.82,1.71,-23.75,4.88,36.56,115.56,182.13,32.31,-2.0523659637363125,-2.9911747183668167,7.525517001882635,-97.89358356014313,-35.287783624982225,-36.10640826375515,0.4934,-0.7541,-0.3031,-0.3099
139,616443.0,365.651427,1.0,0.92,-3.82,1.71,-23.75,4.88,36.56,115.56,182.13,32.31,-2.0523659637363125,-2.9911747183668167,7.525517001882635,-97.89358356014313,-35.287783624982225,-36.10640826375515,0.4934,-0.7541,-0.3031,-0.3099
140,616480.0,365.654479,1.0,6.14,-1.39,2.17,-26.19,12.75,31.0,61.31,218.13,-40.56,2.9671208000601452,-2.626569471480349,4.455208421384208,-91.48326004604112,-32.73532749855365,-42.01620886419129,0.5283,-0.7162,-0.2818,-0.3585
141,616480.0,365.654479,1.0,6.14,-1.39,2.17,-26.19,12.75,31.0,61.31,218.13,-40.56,2.9671208000601452,-2.626569471480349,4.455208421384208,-91.48326004604112,-32.73532749855365,-42.01620886419129,0.5283,-0.7162,-0.2818,-0.3585
142,616517.0,365.71045499999997,1.0,7.67,-3.1,3.39,-31.69,17.06,26.37,139.94,203.81,-13.63,2.498003001015534,-3.4730121970454206,1.956225343582288,-85.62478707023612,-31.388043844509305,-45.8343416064403,0.5598,-0.6796,-0.2705,-0.3894
143,616517.0,365.71045499999997,1.0,7.67,-3.1,3.39,-31.69,17.06,26.37,139.94,203.81,-13.63,2.498003001015534,-3.4730121970454206,1.956225343582288,-85.62478707023612,-31.388043844509305,-45.8343416064403,0.5598,-0.6796,-0.2705,-0.3894
144,616550.0,365.713758,1.0,11.48,-1.5,2.11,-31.69,17.06,26.37,75.37,210.56,12.25,5.3302926454237225,0.07046020016597221,-0.6850379325652067,-78.82513609744035,-27.702261187008638,-50.30132682508742,0.5991,-0.6349,-0.2394,-0.425
145,616550.0,365.713758,1.0,11.48,-1.5,2.11,-31.69,17.06,26.37,75.37,210.56,12.25,5.3302926454237225,0.07046020016597221,-0.6850379325652067,-78.82513609744035,-27.702261187008638,-50.30132682508742,0.5991,-0.6349,-0.2394,-0.425
146,616587.0,365.758286,1.0,10.23,-1.78,3.5,-38.25,18.75,19.0,91.94,124.62,-3.75,4.5620931785908345,-0.8051035720410546,-0.12362764305418315,-74.76021635401274,-26.464637612964076,-52.6036825036909,0.6186,-0.6071,-0.2289,-0.4431
147,616587.0,365.758286,1.0,10.23,-1.78,3.5,-38.25,18.75,19.0,91.94,124.62,-3.75,4.5620931785908345,-0.8051035720410546,-0.12362764305418315,-74.76021635401274,-26.464637612964076,-52.6036825036909,0.6186,-0.6071,-0.2289,-0.4431
148,616624.0,365.884646,1.0,10.03,-0.68,2.9,-43.56,21.69,12.0,77.5,129.25,-27.81,4.901961501264118,0.8024038699239293,0.5979464283969058,-69.4865054886989,-24.737194611496925,-55.73131367504011,0.6409,-0.5699,-0.2142,-0.4674
149,616624.0,365.884646,1.0,10.03,-0.68,2.9,-43.56,21.69,12.0,77.5,129.25,-27.81,4.901961501264118,0.8024038699239293,0.5979464283969058,-69.4865054886989,-24.737194611496925,-55.73131367504011,0.6409,-0.5699,-0.2142,-0.4674
150,616658.0,365.944004,1.0,9.58,-0.26,4.4,-43.56,21.69,12.0,80.5,143.44,12.5,5.2545385220228775,-0.024476465227665445,0.6637168916792557,-65.39450949953873,-23.37808257553645,-57.436125785536824,0.6605,-0.5402,-0.2026,-0.4805
151,616658.0,365.944004,1.0,9.58,-0.26,4.4,-43.56,21.69,12.0,80.5,143.44,12.5,5.2545385220228775,-0.024476465227665445,0.6637168916792557,-65.39450949953873,-23.37808257553645,-57.436125785536824,0.6605,-0.5402,-0.2026,-0.4805
152,616693.0,366.01847999999995,1.0,9.77,-0.19,4.54,-46.19,23.25,7.5,118.81,124.12,-83.44,4.863338754579957,1.0440937249478612,0.2484909486070421,-58.352791710028974,-22.244146955349766,-61.261061463678935,0.6824,-0.4875,-0.1929,-0.5095
153,616693.0,366.01847999999995,1.0,9.77,-0.19,4.54,-46.19,23.25,7.5,118.81,124.12,-83.44,4.863338754579957,1.0440937249478612,0.2484909486070421,-58.352791710028974,-22.244146955349766,-61.261061463678935,0.6824,-0.4875,-0.1929,-0.5095
154,616728.0,366.12804900000003,1.0,10.39,0.09,5.26,-48.56,25.69,0.5,71.0,41.38,-159.56,4.653447200549624,1.133982746247738,-0.8087780310738939,-54.29721951219732,-24.20954412674289,-64.9185496744115,0.6779999999999999,-0.4563,-0.2097,-0.5367
155,616728.0,366.12804900000003,1.0,10.39,0.09,5.26,-48.56,25.69,0.5,71.0,41.38,-159.56,4.653447200549624,1.133982746247738,-0.8087780310738939,-54.29721951219732,-24.20954412674289,-64.9185496744115,0.6779999999999999,-0.4563,-0.2097,-0.5367
156,616765.0,366.185131,1.0,11.84,0.4,6.37,-52.88,20.25,-4.56,92.87,30.19,-129.0,4.192902617455752,1.1807294744560335,-2.9192270050902,-50.035624947359274,-28.009224192772628,-69.36104422677951,0.6624,-0.4229,-0.242,-0.569
157,616765.0,366.185131,1.0,11.84,0.4,6.37,-52.88,20.25,-4.56,92.87,30.19,-129.0,4.192902617455752,1.1807294744560335,-2.9192270050902,-50.035624947359274,-28.009224192772628,-69.36104422677951,0.6624,-0.4229,-0.242,-0.569
158,616800.0,366.18935600000003,1.0,14.66,1.09,4.59,-52.88,20.25,-4.56,72.56,-4.38,-163.81,3.550631156645525,4.260225601397631,-4.560510339282578,-46.23275206665912,-32.10284865965952,-73.36782485981517,0.6423,-0.3926,-0.2765,-0.5974
159,616800.0,366.18935600000003,1.0,14.66,1.09,4.59,-52.88,20.25,-4.56,72.56,-4.38,-163.81,3.550631156645525,4.260225601397631,-4.560510339282578,-46.23275206665912,-32.10284865965952,-73.36782485981517,0.6423,-0.3926,-0.2765,-0.5974
160,616837.0,366.208139,1.0,13.51,1.43,5.63,-55.19,14.19,-6.69,103.25,-109.44,-107.19,2.7844357872258727,2.0846262046367605,-4.4819171406813085,-44.89044689976561,-36.98735398071332,-73.9834968931097,0.6258,-0.3818,-0.3172,-0.6017
161,616837.0,366.208139,1.0,13.51,1.43,5.63,-55.19,14.19,-6.69,103.25,-109.44,-107.19,2.7844357872258727,2.0846262046367605,-4.4819171406813085,-44.89044689976561,-36.98735398071332,-73.9834968931097,0.6258,-0.3818,-0.3172,-0.6017
162,616873.0,366.211266,1.0,11.27,1.06,5.55,-55.56,6.38,-4.25,121.69,-116.69,-88.75,1.1269042555900342,-0.04721035948366792,-2.7498964193260718,-43.41890031609472,-44.39495201253494,-72.32820965004784,0.61,-0.3699,-0.3778,-0.5901
163,616873.0,366.211266,1.0,11.27,1.06,5.55,-55.56,6.38,-4.25,121.69,-116.69,-88.75,1.1269042555900342,-0.04721035948366792,-2.7498964193260718,-43.41890031609472,-44.39495201253494,-72.32820965004784,0.61,-0.3699,-0.3778,-0.5901
164,616908.0,366.25487799999996,1.0,12.17,1.9,4.87,-55.56,6.38,-4.25,102.19,-125.81,-49.5,1.2972556959949122,0.08871217082044103,-3.374588857177168,-42.802857328099094,-49.47984477339551,-70.54979476235701,0.5986,-0.3649,-0.4185,-0.5775
165,616908.0,366.25487799999996,1.0,12.17,1.9,4.87,-55.56,6.38,-4.25,102.19,-125.81,-49.5,1.2972556959949122,0.08871217082044103,-3.374588857177168,-42.802857328099094,-49.47984477339551,-70.54979476235701,0.5986,-0.3649,-0.4185,-0.5775
166,616943.0,366.262203,1.0,11.11,2.24,4.41,-55.0,2.25,0.37,122.5,-160.69,-47.81,0.8321428356126024,-1.2245682063251,-2.264214551025182,-42.55680426104336,-57.0836297204198,-66.76146977168455,0.5807,-0.3629,-0.4778,-0.5502
167,616943.0,366.262203,1.0,11.11,2.24,4.41,-55.0,2.25,0.37,122.5,-160.69,-47.81,0.8321428356126024,-1.2245682063251,-2.264214551025182,-42.55680426104336,-57.0836297204198,-66.76146977168455,0.5807,-0.3629,-0.4778,-0.5502
168,616978.0,366.28086099999996,1.0,8.75,0.91,4.99,-53.0,-1.0,5.25,160.06,-181.06,-91.19,-1.314430811873302,-3.1036533558989685,0.2709115657089658,-41.48884440066444,-64.41675547774169,-63.605960216714145,0.5591,-0.3542,-0.5329999999999999,-0.527
169,616978.0,366.28086099999996,1.0,8.75,0.91,4.99,-53.0,-1.0,5.25,160.06,-181.06,-91.19,-1.314430811873302,-3.1036533558989685,0.2709115657089658,-41.48884440066444,-64.41675547774169,-63.605960216714145,0.5591,-0.3542,-0.5329999999999999,-0.527
170,617015.0,366.28418999999997,1.0,7.89,-0.44,3.94,-48.88,-4.75,11.0,123.5,-114.06,1.31,-2.9555845665198426,-2.625369712454086,1.9110022277726648,-40.33917501022326,-72.08709874052984,-58.60230588655673,0.5435,-0.3448,-0.5884,-0.4894
171,617015.0,366.28418999999997,1.0,7.89,-0.44,3.94,-48.88,-4.75,11.0,123.5,-114.06,1.31,-2.9555845665198426,-2.625369712454086,1.9110022277726648,-40.33917501022326,-72.08709874052984,-58.60230588655673,0.5435,-0.3448,-0.5884,-0.4894
172,617050.0,366.324667,1.0,7.0,-0.53,2.43,-48.88,-4.75,11.0,105.25,-118.44,49.25,-2.539192987810193,-1.6438803680722365,3.021669800609419,-40.87678270719479,-75.72955562090883,-54.58071505177939,0.5394,-0.3492,-0.6138,-0.4585
173,617050.0,366.324667,1.0,7.0,-0.53,2.43,-48.88,-4.75,11.0,105.25,-118.44,49.25,-2.539192987810193,-1.6438803680722365,3.021669800609419,-40.87678270719479,-75.72955562090883,-54.58071505177939,0.5394,-0.3492,-0.6138,-0.4585
174,617086.0,366.33201,1.0,7.34,-0.1,1.49,-46.25,-4.25,16.25,47.25,-115.19,45.63,-1.885706721457952,-1.4880168516562882,2.711890242979668,-42.790549766583936,-79.44948291717178,-49.59342555885964,0.5316,-0.3648,-0.6391,-0.4194
175,617086.0,366.33201,1.0,7.34,-0.1,1.49,-46.25,-4.25,16.25,47.25,-115.19,45.63,-1.885706721457952,-1.4880168516562882,2.711890242979668,-42.790549766583936,-79.44948291717178,-49.59342555885964,0.5316,-0.3648,-0.6391,-0.4194
176,617121.0,366.35033300000003,1.0,6.85,2.59,0.61,-44.06,1.37,20.37,41.38,-108.37,-9.44,0.8401003088500936,-2.0997805170670123,2.814665070724496,-43.8262109221212,-82.12775101851454,-47.39402100857085,0.5173,-0.3732,-0.6569,-0.4019
177,617121.0,366.35033300000003,1.0,6.85,2.59,0.61,-44.06,1.37,20.37,41.38,-108.37,-9.44,0.8401003088500936,-2.0997805170670123,2.814665070724496,-43.8262109221212,-82.12775101851454,-47.39402100857085,0.5173,-0.3732,-0.6569,-0.4019
178,617156.0,366.3537,1.0,5.5,-2.46,1.71,-44.06,1.37,20.37,148.31,-53.56,45.13,-3.9870905084043455,-1.0400728310003702,5.089971318554034,-43.03679967235915,-86.25120861896153,-42.396980116115046,0.5172,-0.3668,-0.6836,-0.3616
179,617156.0,366.3537,1.0,5.5,-2.46,1.71,-44.06,1.37,20.37,148.31,-53.56,45.13,-3.9870905084043455,-1.0400728310003702,5.089971318554034,-43.03679967235915,-86.25120861896153,-42.396980116115046,0.5172,-0.3668,-0.6836,-0.3616
180,617191.0,366.396684,1.0,5.59,-3.33,1.7,-38.69,-0.06,22.87,71.56,-28.62,2.81,-4.7642629874791655,-0.5382058996988837,5.090811517220355,-41.96711256530092,-88.46953482425532,-39.10859227464813,0.5225,-0.3581,-0.6976,-0.3347
181,617191.0,366.396684,1.0,5.59,-3.33,1.7,-38.69,-0.06,22.87,71.56,-28.62,2.81,-4.7642629874791655,-0.5382058996988837,5.090811517220355,-41.96711256530092,-88.46953482425532,-39.10859227464813,0.5225,-0.3581,-0.6976,-0.3347
182,617226.0,366.405737,1.0,8.11,-2.7,0.67,-39.38,4.88,23.75,33.31,-1.44,11.75,-4.2068555993075005,-0.3353686548657191,2.343346855151287,-41.378582455790294,-89.030647823847,-38.209956332458226,0.5258,-0.3533,-0.7011,-0.3273
183,617226.0,366.405737,1.0,8.11,-2.7,0.67,-39.38,4.88,23.75,33.31,-1.44,11.75,-4.2068555993075005,-0.3353686548657191,2.343346855151287,-41.378582455790294,-89.030647823847,-38.209956332458226,0.5258,-0.3533,-0.7011,-0.3273
184,617263.0,366.419018,1.0,8.68,-1.57,0.03,-39.38,4.88,23.75,7.56,-25.12,-1.94,-3.0611710161586174,-0.5679324611732643,1.5534757785639766,-41.48884440066444,-89.49762416816229,-37.65257654707046,0.5242,-0.3542,-0.7040000000000001,-0.3227
185,617263.0,366.419018,1.0,8.68,-1.57,0.03,-39.38,4.88,23.75,7.56,-25.12,-1.94,-3.0611710161586174,-0.5679324611732643,1.5534757785639766,-41.48884440066444,-89.49762416816229,-37.65257654707046,0.5242,-0.3542,-0.7040000000000001,-0.3227
186,617295.0,366.459243,1.0,9.11,0.33,-1.49,-38.38,5.25,24.19,-33.81,-28.44,0.31,-0.9019593088706228,-0.5569371994175458,0.6307364018318804,-42.11442571308733,-90.19353290614056,-37.59204770944774,0.5152,-0.3593,-0.7083,-0.3222
187,617295.0,366.459243,1.0,9.11,0.33,-1.49,-38.38,5.25,24.19,-33.81,-28.44,0.31,-0.9019593088706228,-0.5569371994175458,0.6307364018318804,-42.11442571308733,-90.19353290614056,-37.59204770944774,0.5152,-0.3593,-0.7083,-0.3222
188,617330.0,366.46587200000005,1.0,9.81,2.3,-2.84,-37.25,5.75,26.69,-53.94,-35.19,-11.94,1.0545162543490736,-0.6579202278028489,-0.5879080205779541,-43.35723698802017,-90.37223725523552,-38.82902123966127,0.4998,-0.3694,-0.7094,-0.3324
189,617330.0,366.46587200000005,1.0,9.81,2.3,-2.84,-37.25,5.75,26.69,-53.94,-35.19,-11.94,1.0545162543490736,-0.6579202278028489,-0.5879080205779541,-43.35723698802017,-90.37223725523552,-38.82902123966127,0.4998,-0.3694,-0.7094,-0.3324
190,617367.0,366.560988,1.0,9.74,2.06,-2.9,-36.19,5.38,26.25,-17.0,-26.0,-12.94,0.7320671204202884,-0.5336548236522332,-0.5229429377876365,-43.71506869334832,-90.87737591284895,-39.23022039326242,0.491,-0.3723,-0.7125,-0.3357
191,617367.0,366.560988,1.0,9.74,2.06,-2.9,-36.19,5.38,26.25,-17.0,-26.0,-12.94,0.7320671204202884,-0.5336548236522332,-0.5229429377876365,-43.71506869334832,-90.87737591284895,-39.23022039326242,0.491,-0.3723,-0.7125,-0.3357
192,617402.0,366.70403,1.0,10.12,1.56,-3.54,-36.19,5.38,26.25,-11.69,-26.12,3.19,0.3876955401053963,0.045398754068816334,-1.0205024936758598,-44.33307679780215,-91.31918456864187,-39.20589109359036,0.4833,-0.3773,-0.7152,-0.3355
193,617402.0,366.70403,1.0,10.12,1.56,-3.54,-36.19,5.38,26.25,-11.69,-26.12,3.19,0.3876955401053963,0.045398754068816334,-1.0205024936758598,-44.33307679780215,-91.31918456864187,-39.20589109359036,0.4833,-0.3773,-0.7152,-0.3355
194,617437.0,366.76430600000003,1.0,10.48,1.4,-3.68,-35.38,2.75,27.56,1.44,-24.06,20.37,0.2564338981043945,0.002922440597833198,-1.3856256003970877,-44.977249267005995,-91.48326004604112,-38.598252513901095,0.4811,-0.3825,-0.7162,-0.3305
195,617437.0,366.76430600000003,1.0,10.48,1.4,-3.68,-35.38,2.75,27.56,1.44,-24.06,20.37,0.2564338981043945,0.002922440597833198,-1.3856256003970877,-44.977249267005995,-91.48326004604112,-38.598252513901095,0.4811,-0.3825,-0.7162,-0.3305
196,617474.0,366.781544,1.0,11.04,1.77,-3.87,-35.0,3.5,28.37,-14.25,-48.13,16.19,0.4649450825404515,-0.4861332852098639,-2.006008485676817,-46.29505700445262,-92.0759410724168,-37.81000260574194,0.4715,-0.3931,-0.7198,-0.324
197,617474.0,366.781544,1.0,11.04,1.77,-3.87,-35.0,3.5,28.37,-14.25,-48.13,16.19,0.4649450825404515,-0.4861332852098639,-2.006008485676817,-46.29505700445262,-92.0759410724168,-37.81000260574194,0.4715,-0.3931,-0.7198,-0.324
198,617508.0,366.785063,1.0,7.94,-0.59,-3.07,-35.0,3.5,28.37,37.75,-50.81,94.87,-1.0079621949208406,0.4222636010297605,1.3436537418857526,-48.02049166769566,-92.39002905922057,-35.540393572715686,0.4695,-0.4069,-0.7217,-0.3052
199,617508.0,366.785063,1.0,7.94,-0.59,-3.07,-35.0,3.5,28.37,37.75,-50.81,94.87,-1.0079621949208406,0.4222636010297605,1.3436537418857526,-48.02049166769566,-92.39002905922057,-35.540393572715686,0.4695,-0.4069,-0.7217,-0.3052
200,617543.0,366.788121,1.0,8.55,-0.78,-2.74,-33.5,3.88,29.69,19.87,-15.19,168.13,-0.7128032388960217,-0.5221818215059111,0.8379411917094703,-52.51422225376784,-89.77224753073929,-31.507090202315183,0.4821,-0.4424,-0.7057,-0.2715
201,617543.0,366.788121,1.0,8.55,-0.78,-2.74,-33.5,3.88,29.69,19.87,-15.19,168.13,-0.7128032388960217,-0.5221818215059111,0.8379411917094703,-52.51422225376784,-89.77224753073929,-31.507090202315183,0.4821,-0.4424,-0.7057,-0.2715
202,617578.0,366.829844,1.0,10.68,-2.08,-4.02,-30.75,7.25,30.5,28.81,-30.94,174.63,-0.864676417085807,-0.2837506414207769,-1.757130535241446,-56.45841982476564,-87.30772231970468,-28.446410631571,0.4893,-0.473,-0.6903,-0.2457
203,617578.0,366.829844,1.0,10.68,-2.08,-4.02,-30.75,7.25,30.5,28.81,-30.94,174.63,-0.864676417085807,-0.2837506414207769,-1.757130535241446,-56.45841982476564,-87.30772231970468,-28.446410631571,0.4893,-0.473,-0.6903,-0.2457
204,617615.0,366.847979,1.0,7.57,-3.31,-2.94,-27.0,12.75,30.87,25.44,-23.06,311.5,-0.9663285059436644,-0.23239814681224316,1.093625248516796,-63.713859708187826,-81.55147683065383,-21.683846183764324,0.5095,-0.5278,-0.6531,-0.1881
205,617615.0,366.847979,1.0,7.57,-3.31,-2.94,-27.0,12.75,30.87,25.44,-23.06,311.5,-0.9663285059436644,-0.23239814681224316,1.093625248516796,-63.713859708187826,-81.55147683065383,-21.683846183764324,0.5095,-0.5278,-0.6531,-0.1881
206,617650.0,366.851193,1.0,7.75,-1.99,-3.81,-27.0,12.75,30.87,-4.94,3.5,266.25,1.9174473223194464,-0.8284546563037005,1.1941150277297172,-71.94544116064459,-73.96915070870061,-16.014684599323402,0.5231,-0.5874,-0.6016,-0.1393
207,617650.0,366.851193,1.0,7.75,-1.99,-3.81,-27.0,12.75,30.87,-4.94,3.5,266.25,1.9174473223194464,-0.8284546563037005,1.1941150277297172,-71.94544116064459,-73.96915070870061,-16.014684599323402,0.5231,-0.5874,-0.6016,-0.1393
208,617687.0,366.89128,1.0,9.2,-3.15,-4.91,-22.19,19.69,30.37,-9.19,-57.06,138.94,2.478521819648293,-0.9943396380267892,-0.7545439795543949,-75.84572265044491,-70.87295386927123,-12.826644816909525,0.5233,-0.6146,-0.5798,-0.1117
209,617687.0,366.89128,1.0,9.2,-3.15,-4.91,-22.19,19.69,30.37,-9.19,-57.06,138.94,2.478521819648293,-0.9943396380267892,-0.7545439795543949,-75.84572265044491,-70.87295386927123,-12.826644816909525,0.5233,-0.6146,-0.5798,-0.1117
210,617723.0,367.031036,1.0,7.84,-3.93,-4.63,-17.0,23.37,31.25,-28.69,-110.25,43.13,1.349263646872615,-1.037789728462246,0.03680455133878269,-78.7658205194529,-71.39418485009088,-9.717547848465047,0.4998,-0.6345,-0.5835,-0.0847
211,617723.0,367.031036,1.0,7.84,-3.93,-4.63,-17.0,23.37,31.25,-28.69,-110.25,43.13,1.349263646872615,-1.037789728462246,0.03680455133878269,-78.7658205194529,-71.39418485009088,-9.717547848465047,0.4998,-0.6345,-0.5835,-0.0847
212,617756.0,367.082459,1.0,4.58,-6.61,-4.4,-17.0,23.37,31.25,-25.62,-161.19,64.87,-1.9746493246061647,0.8032973049555436,0.8912715175863877,-80.4963997494357,-72.85426803573273,-6.776309776380446,0.4759,-0.6461,-0.5938,-0.0591
213,617756.0,367.082459,1.0,4.58,-6.61,-4.4,-17.0,23.37,31.25,-25.62,-161.19,64.87,-1.9746493246061647,0.8032973049555436,0.8912715175863877,-80.4963997494357,-72.85426803573273,-6.776309776380446,0.4759,-0.6461,-0.5938,-0.0591
214,617791.0,367.089265,1.0,3.05,-4.68,-3.13,-12.06,23.75,32.56,-69.19,-146.69,110.87,-1.4368778141883303,-0.09767589093258566,3.567448002354478,-85.35951757320912,-72.78307520859934,-2.532679647359437,0.4337,-0.6779,-0.5933,-0.0221
215,617791.0,367.089265,1.0,3.05,-4.68,-3.13,-12.06,23.75,32.56,-69.19,-146.69,110.87,-1.4368778141883303,-0.09767589093258566,3.567448002354478,-85.35951757320912,-72.78307520859934,-2.532679647359437,0.4337,-0.6779,-0.5933,-0.0221
216,617828.0,367.10646099999997,1.0,4.26,-5.23,-5.57,-5.0,23.56,34.5,-81.94,-58.88,40.75,-0.42030598200720093,0.07289441089829607,1.0691772940999282,-87.815613588484,-72.11544554429472,-1.6845565907051554,0.415,-0.6935,-0.5886,-0.0147
217,617828.0,367.10646099999997,1.0,4.26,-5.23,-5.57,-5.0,23.56,34.5,-81.94,-58.88,40.75,-0.42030598200720093,0.07289441089829607,1.0691772940999282,-87.815613588484,-72.11544554429472,-1.6845565907051554,0.415,-0.6935,-0.5886,-0.0147
218,617865.0,367.110887,1.0,2.42,-6.73,-3.95,-0.25,21.5,35.56,-46.63,-61.0,21.37,-3.2597116284382888,0.1730052915906497,2.3169137383879943,-90.03131672872559,-72.88275430640832,-1.2261530793833222,0.3832,-0.7073,-0.594,-0.0107
219,617865.0,367.110887,1.0,2.42,-6.73,-3.95,-0.25,21.5,35.56,-46.63,-61.0,21.37,-3.2597116284382888,0.1730052915906497,2.3169137383879943,-90.03131672872559,-72.88275430640832,-1.2261530793833222,0.3832,-0.7073,-0.594,-0.0107
220,617900.0,367.15673,1.0,3.4,-6.21,-5.09,-0.25,21.5,35.56,-90.44,-35.19,75.62,-2.153442136121096,-0.4536006144507518,1.3692846855817518,-92.72162065181284,-71.95960119494845,-0.8823637238721431,0.3621,-0.7237,-0.5875,-0.0077
221,617900.0,367.15673,1.0,3.4,-6.21,-5.09,-0.25,21.5,35.56,-90.44,-35.19,75.62,-2.153442136121096,-0.4536006144507518,1.3692846855817518,-92.72162065181284,-71.95960119494845,-0.8823637238721431,0.3621,-0.7237,-0.5875,-0.0077
222,617936.0,367.177053,1.0,3.85,-2.15,-5.31,3.19,17.75,36.75,-111.44,-20.44,137.81,1.420117885963529,-0.8667472160765376,3.1079102339402636,-98.92839577736687,-68.2776528480455,-1.4668120111410634,0.3275,-0.76,-0.5612,-0.0128
223,617936.0,367.177053,1.0,3.85,-2.15,-5.31,3.19,17.75,36.75,-111.44,-20.44,137.81,1.420117885963529,-0.8667472160765376,3.1079102339402636,-98.92839577736687,-68.2776528480455,-1.4668120111410634,0.3275,-0.76,-0.5612,-0.0128
224,617971.0,367.181516,1.0,7.19,-4.85,-8.27,6.19,14.88,38.06,-52.56,22.62,144.31,1.634881459699249,-2.9202418744643963,-1.70034135340582,-103.83064378585505,-64.13256877996223,-1.432431792389882,0.3137,-0.7871,-0.5309,-0.0125
225,617971.0,367.181516,1.0,7.19,-4.85,-8.27,6.19,14.88,38.06,-52.56,22.62,144.31,1.634881459699249,-2.9202418744643963,-1.70034135340582,-103.83064378585505,-64.13256877996223,-1.432431792389882,0.3137,-0.7871,-0.5309,-0.0125
226,618006.0,367.234325,1.0,5.73,-2.46,-8.07,6.19,14.88,38.06,-69.19,-30.5,170.38,3.5014780106409003,-1.338728317474573,0.3220910628121487,-109.29346359122705,-58.56288867530428,0.2635608181333149,0.3093,-0.8156,-0.4891,0.0023
227,618006.0,367.234325,1.0,5.73,-2.46,-8.07,6.19,14.88,38.06,-69.19,-30.5,170.38,3.5014780106409003,-1.338728317474573,0.3220910628121487,-109.29346359122705,-58.56288867530428,0.2635608181333149,0.3093,-0.8156,-0.4891,0.0023
228,618041.0,367.254747,1.0,6.46,-2.68,-8.9,7.75,11.19,39.38,-20.81,-31.69,148.5,4.462235158407436,-1.938423177454618,-0.4136715691180353,-115.25820896831397,-53.461705766242936,2.337829975144579,0.2897,-0.8446,-0.4498,0.0204
229,618041.0,367.254747,1.0,6.46,-2.68,-8.9,7.75,11.19,39.38,-20.81,-31.69,148.5,4.462235158407436,-1.938423177454618,-0.4136715691180353,-115.25820896831397,-53.461705766242936,2.337829975144579,0.2897,-0.8446,-0.4498,0.0204
230,618078.0,367.257924,1.0,3.86,-4.15,-9.05,10.38,8.0,39.5,-9.94,-48.38,143.38,2.3044271412189157,-0.8853191806088669,-0.5823069014054401,-118.8580978383618,-50.111510359679706,4.6766337060034,0.2789,-0.861,-0.4235,0.0408
231,618078.0,367.257924,1.0,3.86,-4.15,-9.05,10.38,8.0,39.5,-9.94,-48.38,143.38,2.3044271412189157,-0.8853191806088669,-0.5823069014054401,-118.8580978383618,-50.111510359679706,4.6766337060034,0.2789,-0.861,-0.4235,0.0408
232,618113.0,367.29795099999996,1.0,2.46,-1.62,-11.88,10.38,8.0,39.5,-44.38,-68.69,170.31,4.517935389172218,2.1088259388905097,-1.371521271667289,-124.47843555677237,-44.7912774389752,8.1313637329408,0.2584,-0.8849,-0.381,0.0709
233,618113.0,367.29795099999996,1.0,2.46,-1.62,-11.88,10.38,8.0,39.5,-44.38,-68.69,170.31,4.517935389172218,2.1088259388905097,-1.371521271667289,-124.47843555677237,-44.7912774389752,8.1313637329408,0.2584,-0.8849,-0.381,0.0709
234,618147.0,367.304628,1.0,0.0,-6.45,-8.34,15.0,6.06,38.69,91.87,-63.5,130.69,-0.5160283562759561,-0.6983500597427823,-0.7006865763915844,-126.12469119973764,-41.31734313597096,12.561458728935325,0.2624,-0.8915,-0.3528,0.1094
235,618147.0,367.304628,1.0,0.0,-6.45,-8.34,15.0,6.06,38.69,91.87,-63.5,130.69,-0.5160283562759561,-0.6983500597427823,-0.7006865763915844,-126.12469119973764,-41.31734313597096,12.561458728935325,0.2624,-0.8915,-0.3528,0.1094
236,618184.0,367.32246200000003,1.0,0.95,-3.86,-11.4,19.5,4.69,37.56,-72.12,21.87,75.75,2.797079767722189,1.198824957139862,-1.8767255180229423,-129.40467932878911,-38.23421144458892,12.642160322280047,0.2513,-0.9041,-0.3275,0.1101
237,618184.0,367.32246200000003,1.0,0.95,-3.86,-11.4,19.5,4.69,37.56,-72.12,21.87,75.75,2.797079767722189,1.198824957139862,-1.8767255180229423,-129.40467932878911,-38.23421144458892,12.642160322280047,0.2513,-0.9041,-0.3275,0.1101
238,618219.0,367.360189,1.0,-0.74,-6.03,-10.12,20.56,3.38,38.06,21.56,17.12,49.94,-0.11284693585754313,0.2778782301439149,-1.993051235975415,-130.87269286132405,-36.63712122701613,12.457708722341449,0.2495,-0.9095,-0.3143,0.1085
239,618219.0,367.360189,1.0,-0.74,-6.03,-10.12,20.56,3.38,38.06,21.56,17.12,49.94,-0.11284693585754313,0.2778782301439149,-1.993051235975415,-130.87269286132405,-36.63712122701613,12.457708722341449,0.2495,-0.9095,-0.3143,0.1085
240,618254.0,367.418422,1.0,0.16,-5.17,-10.3,20.56,3.38,38.06,-28.62,20.0,34.19,1.023603150108046,0.2706295337954705,-1.6704357035454134,-132.5251927099627,-35.131494837214326,11.962154211464537,0.2451,-0.9154,-0.3018,0.1042
241,618254.0,367.418422,1.0,0.16,-5.17,-10.3,20.56,3.38,38.06,-28.62,20.0,34.19,1.023603150108046,0.2706295337954705,-1.6704357035454134,-132.5251927099627,-35.131494837214326,11.962154211464537,0.2451,-0.9154,-0.3018,0.1042
242,618289.0,367.42528500000003,1.0,-0.44,-5.55,-10.26,19.75,1.88,38.88,15.06,3.75,41.0,0.3574398231748888,0.2711595923165935,-1.857929257234419,-133.56064768554154,-34.039340850884635,11.927589126675839,0.2429,-0.919,-0.2927,0.1039
243,618289.0,367.42528500000003,1.0,-0.44,-5.55,-10.26,19.75,1.88,38.88,15.06,3.75,41.0,0.3574398231748888,0.2711595923165935,-1.857929257234419,-133.56064768554154,-34.039340850884635,11.927589126675839,0.2429,-0.919,-0.2927,0.1039
244,618326.0,367.494378,1.0,-1.35,-6.24,-8.5,19.75,0.5,39.38,2.88,-2.88,22.25,-1.1118589505195209,-0.3477108373152471,-0.7599467486113145,-133.91067619883825,-32.818938689500946,12.526874248925028,0.2479,-0.9202,-0.2825,0.1091
245,618326.0,367.494378,1.0,-1.35,-6.24,-8.5,19.75,0.5,39.38,2.88,-2.88,22.25,-1.1118589505195209,-0.3477108373152471,-0.7599467486113145,-133.91067619883825,-32.818938689500946,12.526874248925028,0.2479,-0.9202,-0.2825,0.1091
246,618360.0,367.559851,1.0,-1.27,-5.62,-8.56,19.75,0.5,39.38,-26.31,-3.31,19.12,-0.7591078813606761,-0.0745452319177149,-0.483592865591385,-134.73735728971755,-32.401061315113324,12.549930441445206,0.2415,-0.9229999999999999,-0.27899999999999997,0.1093
247,618360.0,367.559851,1.0,-1.27,-5.62,-8.56,19.75,0.5,39.38,-26.31,-3.31,19.12,-0.7591078813606761,-0.0745452319177149,-0.483592865591385,-134.73735728971755,-32.401061315113324,12.549930441445206,0.2415,-0.9229999999999999,-0.27899999999999997,0.1093
248,618395.0,367.660798,1.0,-1.56,-5.03,-8.58,19.37,0.19,40.25,-25.25,-3.81,19.94,-0.7280341822701751,0.3378477857593203,-0.2286240422523491,-135.8217429117077,-31.721461697138416,12.665219075015518,0.2336,-0.9266,-0.2733,0.1103
249,618395.0,367.660798,1.0,-1.56,-5.03,-8.58,19.37,0.19,40.25,-25.25,-3.81,19.94,-0.7280341822701751,0.3378477857593203,-0.2286240422523491,-135.8217429117077,-31.721461697138416,12.665219075015518,0.2336,-0.9266,-0.2733,0.1103
250,618430.0,367.71482000000003,1.0,-0.81,-4.3,-8.82,20.87,-0.5,40.25,-22.62,-1.44,14.06,0.2793810676395725,0.4364907730129697,-0.025436351538983715,-136.5279785234642,-31.340435037267948,12.653689634339962,0.2282,-0.9289,-0.2701,0.1102
251,618430.0,367.71482000000003,1.0,-0.81,-4.3,-8.82,20.87,-0.5,40.25,-22.62,-1.44,14.06,0.2793810676395725,0.4364907730129697,-0.025436351538983715,-136.5279785234642,-31.340435037267948,12.653689634339962,0.2282,-0.9289,-0.2701,0.1102
252,618467.0,367.734913,1.0,-1.51,-4.07,-8.09,20.5,-1.69,39.88,4.81,-13.44,7.0,-0.4012420056603391,0.6593110497519648,0.658020933709869,-136.77619735313192,-31.138159380012002,12.965030073382625,0.2253,-0.9297,-0.2684,0.1129
253,618467.0,367.734913,1.0,-1.51,-4.07,-8.09,20.5,-1.69,39.88,4.81,-13.44,7.0,-0.4012420056603391,0.6593110497519648,0.658020933709869,-136.77619735313192,-31.138159380012002,12.965030073382625,0.2253,-0.9297,-0.2684,0.1129
254,618502.0,367.73804900000005,1.0,-0.86,-4.86,-8.52,20.5,-1.69,39.88,3.44,-1.37,7.06,-0.012247473403679487,-0.14042875658779466,-0.038639724722091984,-136.8073201749142,-30.876538373720194,13.253393932396618,0.2263,-0.9298,-0.2662,0.1154
255,618502.0,367.73804900000005,1.0,-0.86,-4.86,-8.52,20.5,-1.69,39.88,3.44,-1.37,7.06,-0.012247473403679487,-0.14042875658779466,-0.038639724722091984,-136.8073201749142,-30.876538373720194,13.253393932396618,0.2263,-0.9298,-0.2662,0.1154
256,618536.0,367.761444,1.0,-0.79,-4.51,-8.44,21.25,-1.19,39.0,-16.62,-1.88,-3.88,0.15770096063537908,0.02509022206670952,0.20600935013859,-136.43524351543036,-31.56662645811723,13.368762981498053,0.2239,-0.9286,-0.272,0.1164
257,618536.0,367.761444,1.0,-0.79,-4.51,-8.44,21.25,-1.19,39.0,-16.62,-1.88,-3.88,0.15770096063537908,0.02509022206670952,0.20600935013859,-136.43524351543036,-31.56662645811723,13.368762981498053,0.2239,-0.9286,-0.272,0.1164
258,618573.0,367.790843,1.0,-0.78,-4.21,-8.51,21.25,-1.56,39.75,-14.69,-1.81,-4.0,0.26546379263583764,0.19357777641271667,0.2859012574231574,-136.25033456727624,-32.31753913524463,13.299539926123945,0.2187,-0.9279999999999999,-0.2783,0.1158
259,618573.0,367.790843,1.0,-0.78,-4.21,-8.51,21.25,-1.56,39.75,-14.69,-1.81,-4.0,0.26546379263583764,0.19357777641271667,0.2859012574231574,-136.25033456727624,-32.31753913524463,13.299539926123945,0.2187,-0.9279999999999999,-0.2783,0.1158
260,618606.0,367.810163,1.0,-0.73,-4.6,-8.48,21.25,-1.56,39.75,2.06,-2.13,0.44,0.1368189479215386,-0.1319330416712181,0.13363732307224474,-136.21958862710648,-32.2936788968098,13.414914406298776,0.2193,-0.9279,-0.2781,0.1168
261,618606.0,367.810163,1.0,-0.73,-4.6,-8.48,21.25,-1.56,39.75,2.06,-2.13,0.44,0.1368189479215386,-0.1319330416712181,0.13363732307224474,-136.21958862710648,-32.2936788968098,13.414914406298776,0.2193,-0.9279,-0.2781,0.1168
262,618641.0,367.81324,1.0,-0.79,-4.51,-8.58,20.87,-2.25,40.19,-3.81,-1.25,-4.25,0.1509438887479272,-0.00975974711801708,0.08257057365912779,-135.88272800413355,-32.818938689500946,13.4841456448157,0.218,-0.9268,-0.2825,0.1174
263,618641.0,367.81324,1.0,-0.79,-4.51,-8.58,20.87,-2.25,40.19,-3.81,-1.25,-4.25,0.1509438887479272,-0.00975974711801708,0.08257057365912779,-135.88272800413355,-32.818938689500946,13.4841456448157,0.218,-0.9268,-0.2825,0.1174
264,618678.0,367.858306,1.0,-0.82,-4.51,-8.37,20.5,-1.56,39.75,-8.75,-0.31,-5.63,0.03593129414885399,-0.07820302909725417,0.2640092109761998,-135.57859793518082,-33.332946647245606,13.51876311679545,0.2165,-0.9258,-0.2868,0.1177
265,618678.0,367.858306,1.0,-0.82,-4.51,-8.37,20.5,-1.56,39.75,-8.75,-0.31,-5.63,0.03593129414885399,-0.07820302909725417,0.2640092109761998,-135.57859793518082,-33.332946647245606,13.51876311679545,0.2165,-0.9258,-0.2868,0.1177
266,618711.0,367.866559,1.0,-0.56,-4.41,-8.61,20.5,-1.56,39.75,-0.75,4.31,-2.75,0.345237286501509,-0.08308286785122032,0.1232772170757226,-135.57859793518082,-33.4525819599508,13.380300633180664,0.2156,-0.9258,-0.2878,0.1165
267,618711.0,367.866559,1.0,-0.56,-4.41,-8.61,20.5,-1.56,39.75,-0.75,4.31,-2.75,0.345237286501509,-0.08308286785122032,0.1232772170757226,-135.57859793518082,-33.4525819599508,13.380300633180664,0.2156,-0.9258,-0.2878,0.1165
268,618745.0,367.88640899999996,1.0,-0.61,-4.97,-8.59,19.37,-1.56,40.38,-2.88,-1.44,-6.13,0.02514952617667376,-0.4436375109498125,-0.12630793106018068,-135.336709981557,-33.644076625825655,13.357225465957494,0.2169,-0.925,-0.2894,0.1163
269,618745.0,367.88640899999996,1.0,-0.61,-4.97,-8.59,19.37,-1.56,40.38,-2.88,-1.44,-6.13,0.02514952617667376,-0.4436375109498125,-0.12630793106018068,-135.336709981557,-33.644076625825655,13.357225465957494,0.2169,-0.925,-0.2894,0.1163
270,618780.0,367.93465699999996,1.0,-0.83,-4.51,-8.54,20.5,-1.56,40.0,-0.69,-0.81,-5.25,0.02859699284511685,-0.010442675575689007,0.11337020611562745,-135.03608676528202,-34.19516537453249,13.368762981498053,0.2151,-0.924,-0.294,0.1164
271,618780.0,367.93465699999996,1.0,-0.83,-4.51,-8.54,20.5,-1.56,40.0,-0.69,-0.81,-5.25,0.02859699284511685,-0.010442675575689007,0.11337020611562745,-135.03608676528202,-34.19516537453249,13.368762981498053,0.2151,-0.924,-0.294,0.1164
272,618817.0,367.94007400000004,1.0,-0.59,-5.3,-8.4,19.75,-2.25,39.0,8.19,3.81,0.19,-0.1892306077996377,-0.7190879220779713,-0.1153056710052578,-134.7075870499225,-34.315074743396394,13.44952940908047,0.2182,-0.9229,-0.295,0.1171
273,618817.0,367.94007400000004,1.0,-0.59,-5.3,-8.4,19.75,-2.25,39.0,8.19,3.81,0.19,-0.1892306077996377,-0.7190879220779713,-0.1153056710052578,-134.7075870499225,-34.315074743396394,13.44952940908047,0.2182,-0.9229,-0.295,0.1171
274,618850.0,368.0665,1.0,-0.51,-4.61,-8.8,19.75,-2.25,39.0,-7.44,0.0,-2.19,0.3273564032619393,-0.13936560996701308,-0.1344573332904897,-134.73735728971755,-34.36304933185503,13.334150842815474,0.2173,-0.9229999999999999,-0.2954,0.1161
275,618850.0,368.0665,1.0,-0.51,-4.61,-8.8,19.75,-2.25,39.0,-7.44,0.0,-2.19,0.3273564032619393,-0.13936560996701308,-0.1344573332904897,-134.73735728971755,-34.36304933185503,13.334150842815474,0.2173,-0.9229999999999999,-0.2954,0.1161
276,618887.0,368.124837,1.0,-0.7,-4.86,-8.63,20.06,-1.88,40.25,4.75,-2.88,1.37,0.011995919976868885,-0.2639068192393861,-0.11890838674393578,-134.588690989807,-34.50701040671306,13.47260676237266,0.2175,-0.9225,-0.2966,0.1173
277,618887.0,368.124837,1.0,-0.7,-4.86,-8.63,20.06,-1.88,40.25,4.75,-2.88,1.37,0.011995919976868885,-0.2639068192393861,-0.11890838674393578,-134.588690989807,-34.50701040671306,13.47260676237266,0.2175,-0.9225,-0.2966,0.1173
278,618921.0,368.17879,1.0,-0.69,-4.77,-8.46,20.87,-2.25,39.88,-2.63,-1.12,-1.25,0.01493717874274836,-0.2553690381209943,0.07345096088339352,-134.3222466489682,-34.795101425948374,13.588001782657653,0.2176,-0.9216,-0.299,0.1183
279,618921.0,368.17879,1.0,-0.69,-4.77,-8.46,20.87,-2.25,39.88,-2.63,-1.12,-1.25,0.01493717874274836,-0.2553690381209943,0.07345096088339352,-134.3222466489682,-34.795101425948374,13.588001782657653,0.2176,-0.9216,-0.299,0.1183
280,618954.0,368.18723,1.0,-0.71,-4.64,-8.57,20.87,-2.25,39.88,-3.31,-0.88,-0.5,0.09465336857521743,-0.12971589194198918,0.03665437424892737,-134.3222466489682,-34.843138613311,13.588001782657653,0.2166,-0.9216,-0.2994,0.1183
281,618954.0,368.18723,1.0,-0.71,-4.64,-8.57,20.87,-2.25,39.88,-3.31,-0.88,-0.5,0.09465336857521743,-0.12971589194198918,0.03665437424892737,-134.3222466489682,-34.843138613311,13.588001782657653,0.2166,-0.9216,-0.2994,0.1183
282,618989.0,368.190127,1.0,-0.75,-4.66,-8.52,20.06,-1.19,39.5,3.44,-2.25,-0.19,0.05249776715867893,-0.12485103491480265,0.06754551326591418,-134.0866361818657,-35.059384322363556,13.714952301602876,0.2172,-0.9208,-0.3012,0.1194
283,618989.0,368.190127,1.0,-0.75,-4.66,-8.52,20.06,-1.19,39.5,3.44,-2.25,-0.19,0.05249776715867893,-0.12485103491480265,0.06754551326591418,-134.0866361818657,-35.059384322363556,13.714952301602876,0.2172,-0.9208,-0.3012,0.1194
284,619026.0,368.233542,1.0,-0.67,-4.9,-8.51,20.5,-1.88,38.69,1.81,-1.25,-2.5,-0.00512847975310271,-0.32935910510233324,-0.030549615672219588,-133.73534909546765,-35.408051904136364,13.78420515869276,0.2179,-0.9196,-0.3041,0.12
285,619026.0,368.233542,1.0,-0.67,-4.9,-8.51,20.5,-1.88,38.69,1.81,-1.25,-2.5,-0.00512847975310271,-0.32935910510233324,-0.030549615672219588,-133.73534909546765,-35.408051904136364,13.78420515869276,0.2179,-0.9196,-0.3041,0.12
286,619059.0,368.255053,1.0,-0.68,-4.8,-8.51,20.5,-1.88,38.69,-2.75,1.94,-1.69,0.01372865520795119,-0.2593188470405323,0.016089992544053192,-133.7645266360233,-35.4802322080149,13.680327762024126,0.2171,-0.9197,-0.3047,0.1191
287,619059.0,368.255053,1.0,-0.68,-4.8,-8.51,20.5,-1.88,38.69,-2.75,1.94,-1.69,0.01372865520795119,-0.2593188470405323,0.016089992544053192,-133.7645266360233,-35.4802322080149,13.680327762024126,0.2171,-0.9197,-0.3047,0.1191
288,619094.0,368.29952099999997,1.0,-0.71,-4.85,-8.66,19.75,-1.88,39.75,1.63,-1.81,1.63,0.025676963245228168,-0.21275622907400216,-0.14203209767247138,-133.6770461216721,-35.504295540348124,13.703410648771609,0.2179,-0.9194,-0.3049,0.1193
289,619094.0,368.29952099999997,1.0,-0.71,-4.85,-8.66,19.75,-1.88,39.75,1.63,-1.81,1.63,0.025676963245228168,-0.21275622907400216,-0.14203209767247138,-133.6770461216721,-35.504295540348124,13.703410648771609,0.2179,-0.9194,-0.3049,0.1193
290,619128.0,368.31912400000004,1.0,-0.58,-4.89,-8.55,20.06,-1.56,39.38,-1.69,1.81,-1.25,0.06252364216800976,-0.3491151030188302,-0.053634450208029705,-133.58972143720712,-35.612600576556765,13.680327762024126,0.2181,-0.9191,-0.3058,0.1191
291,619128.0,368.31912400000004,1.0,-0.58,-4.89,-8.55,20.06,-1.56,39.38,-1.69,1.81,-1.25,0.06252364216800976,-0.3491151030188302,-0.053634450208029705,-133.58972143720712,-35.612600576556765,13.680327762024126,0.2181,-0.9191,-0.3058,0.1191
292,619163.0,368.322492,1.0,-0.58,-4.88,-8.58,20.06,-1.56,39.38,-3.81,1.44,-2.5,0.05669698984838613,-0.3305222825100413,-0.07539131098967111,-133.58972143720712,-35.696860557625506,13.576461659580188,0.2178,-0.9191,-0.3065,0.1182
293,619163.0,368.322492,1.0,-0.58,-4.88,-8.58,20.06,-1.56,39.38,-3.81,1.44,-2.5,0.05669698984838613,-0.3305222825100413,-0.07539131098967111,-133.58972143720712,-35.696860557625506,13.576461659580188,0.2178,-0.9191,-0.3065,0.1182
294,619196.0,368.36720299999996,1.0,-0.84,-4.63,-8.55,20.5,-1.19,38.56,-5.56,1.5,-0.56,-0.05646576226134947,-0.01644321551358097,0.04747271713666201,-133.41553604515124,-36.03410062770514,13.530302549412001,0.2163,-0.9185,-0.3093,0.1178
295,619196.0,368.36720299999996,1.0,-0.84,-4.63,-8.55,20.5,-1.19,38.56,-5.56,1.5,-0.56,-0.05646576226134947,-0.01644321551358097,0.04747271713666201,-133.41553604515124,-36.03410062770514,13.530302549412001,0.2163,-0.9185,-0.3093,0.1178
296,619233.0,368.38366,1.0,-0.43,-4.52,-8.73,19.0,-2.69,39.25,2.44,0.81,0.69,0.3844422150891256,-0.12339098334650432,-0.025195139569996527,-133.41553604515124,-35.997952375875286,13.507223821905177,0.2168,-0.9185,-0.309,0.1176
297,619233.0,368.38366,1.0,-0.43,-4.52,-8.73,19.0,-2.69,39.25,2.44,0.81,0.69,0.3844422150891256,-0.12339098334650432,-0.025195139569996527,-133.41553604515124,-35.997952375875286,13.507223821905177,0.2168,-0.9185,-0.309,0.1176
298,619268.0,368.433766,1.0,-0.91,-4.73,-8.4,20.06,-1.88,39.19,-1.31,-1.5,0.12,-0.2056180606836423,-0.08650904871943378,0.12619353361318275,-133.32867360141205,-36.09435595913239,13.588001782657653,0.2167,-0.9182,-0.3098,0.1183
299,619268.0,368.433766,1.0,-0.91,-4.73,-8.4,20.06,-1.88,39.19,-1.31,-1.5,0.12,-0.2056180606836423,-0.08650904871943378,0.12619353361318275,-133.32867360141205,-36.09435595913239,13.588001782657653,0.2167,-0.9182,-0.3098,0.1183
