TIME,ELAPSED_SECONDS,PSTATE,acc_x,acc_y,acc_z,mag_x,mag_y,mag_z,gyr_x,gyr_y,gyr_z,lin_x,lin_y,lin_z,eul_x,eul_y,eul_z,qua_w,qua_x,qua_y,qua_z
813727.0,587.766565,1.0,-3.48,-0.07,-9.1,23.69,28.69,0.0,2.69,-1.12,-0.37,-0.013401508004628249,0.15321740807215878,0.06490247579024455,-64.70138684078718,-111.4817285033188,10.879617409371033,-0.1469,-0.5351,-0.8265,0.0948
813762.0,587.774778,1.0,-3.26,0.04,-9.4,23.25,30.56,0.0,-0.37,2.38,0.25,-0.03444961167742061,-0.16855272603910598,-0.14119414849770706,-64.70138684078718,-111.4817285033188,10.868106466869214,-0.1465,-0.5351,-0.8265,0.0947
813797.0,587.829338,1.0,-3.35,-0.03,-9.18,23.25,29.87,-0.37,2.5,0.56,-0.12,-0.019240992582285232,0.006531805722831074,0.034475875491244416,-64.7285179210035,-111.4817285033188,10.914150898036931,-0.1459,-0.5353,-0.8265,0.0951
813832.0,587.8328349999998,1.0,-3.24,0.13,-9.31,23.25,29.87,-0.37,0.12,2.06,1.06,0.07667298917854047,-0.19187466352554366,-0.04971369896258437,-64.7285179210035,-111.4817285033188,10.937173775974523,-0.1454,-0.5353,-0.8265,0.0953
813864.0,587.872127,1.0,-3.28,-0.04,-9.27,24.37,30.19,1.19,2.5,-0.12,-1.06,-0.04514073392356327,-0.07213923073317963,-0.026236567307185155,-64.7285179210035,-111.52245118481588,10.960197096754332,-0.1448,-0.5353,-0.8267,0.0955
813901.0,587.879291,1.0,-3.37,-0.13,-9.22,22.56,30.19,0.0,3.19,0.19,-0.94,-0.0757600843015499,0.05971821738788807,-0.010319702720829936,-64.74208498773758,-111.52245118481588,10.983220861331361,-0.1443,-0.5354,-0.8267,0.0957
813936.0,587.891236,1.0,-3.3,0.0,-9.24,22.56,30.19,0.0,0.0,1.63,-0.44,0.02350682215454275,-0.06070698093281735,-0.0047394067954638075,-64.71495187215974,-111.5428205011455,11.017757342406151,-0.1439,-0.5352,-0.8268,0.096
813969.0,587.942589,1.0,-3.36,-0.15,-9.2,23.25,30.56,1.19,1.5,-0.75,-1.12,-0.07332405237031048,0.06511453912988896,0.011626586034218178,-64.71495187215974,-111.56319514094507,11.052294827398207,-0.1434,-0.5352,-0.8269,0.0963
814004.0,587.958675,1.0,-3.13,0.01,-9.34,22.87,30.19,-1.19,-0.63,2.31,-0.19,-0.032300628136300025,-0.2303362613427804,-0.04111633943619708,-64.71495187215974,-111.58357510903522,11.00624507066077,-0.14300000000000002,-0.5352,-0.8270000000000001,0.0959
814039.0,587.96157,1.0,-3.28,-0.09,-9.13,22.56,30.56,1.56,1.19,-1.0,-1.19,-0.03318441741490336,0.002130791105853236,0.10498549053719763,-64.68782282646684,-111.60396041024364,11.029269725697887,-0.1429,-0.535,-0.8271,0.0961
814073.0,588.007759,1.0,-3.31,-0.03,-9.3,22.56,30.56,1.56,-0.5,-0.06,-0.31,0.01064154745860213,-0.04998989866702819,-0.06474239254012026,-64.67425982878002,-111.60396041024364,11.029269725697887,-0.1429,-0.5349,-0.8271,0.0961
814110.0,588.01065,1.0,-3.27,-0.05,-9.41,23.25,29.5,1.19,-0.63,0.44,-0.44,-0.03670696107572224,-0.11206110534840574,-0.1547552677158297,-64.67425982878002,-111.60396041024364,11.04078222065542,-0.1429,-0.5349,-0.8271,0.0962
814145.0,588.091817,1.0,-3.29,-0.05,-9.2,22.87,31.0,-0.37,-0.37,-0.44,0.63,-0.0009379320330785148,-0.0293832560744568,0.035993126250623675,-64.67425982878002,-111.60396041024364,11.04078222065542,-0.1429,-0.5349,-0.8271,0.0962
814180.0,588.103779,1.0,-3.28,-0.15,-9.2,22.87,31.0,-0.37,-0.63,0.31,0.56,-0.1003260983791152,0.002493659225963785,0.0388033357833848,-64.67425982878002,-111.60396041024364,11.029269725697887,-0.1431,-0.5349,-0.8271,0.0961
814215.0,588.145991,1.0,-3.35,0.0,-9.32,22.87,29.87,-0.37,-2.88,0.5,1.37,0.03184761864854585,-0.02707541342547781,-0.09704388920993699,-64.70138684078718,-111.58357510903522,10.937173775974523,-0.1435,-0.5351,-0.8270000000000001,0.0953
814249.0,588.161141,1.0,-3.19,0.11,-9.44,24.37,30.56,1.19,-3.75,2.69,1.06,0.04400594253826473,-0.2267188965417387,-0.15570223323147836,-64.7285179210035,-111.60396041024364,10.810553401892458,-0.1434,-0.5353,-0.8271,0.0942
814284.0,588.199571,1.0,-3.31,-0.19,-9.14,24.37,30.56,1.19,2.5,-0.75,-0.06,-0.1413844844962025,0.09715025701343616,0.08541693751734059,-64.7285179210035,-111.60396041024364,10.787532942523713,-0.1432,-0.5353,-0.8271,0.094
814319.0,588.266847,1.0,-3.18,0.05,-9.45,24.06,29.87,1.56,-1.37,-0.75,0.44,-0.029506234089280825,-0.20384747659719624,-0.16204979427782895,-64.7285179210035,-111.60396041024364,10.718474180434589,-0.1437,-0.5353,-0.8271,0.0934
814354.0,588.269638,1.0,-3.37,0.07,-9.08,24.06,29.5,0.75,-0.31,-1.0,0.25,0.10975259077501788,0.05900507791823495,0.12198827283585525,-64.74208498773758,-111.58357510903522,10.741493332748478,-0.14400000000000002,-0.5354,-0.8270000000000001,0.0936
814389.0,588.321479,1.0,-3.32,0.09,-9.23,23.25,30.19,0.75,2.81,0.56,-0.88,0.09769335949400047,-0.03910422211116493,-0.0021382466349475493,-64.74208498773758,-111.58357510903522,10.776022876638457,-0.1436,-0.5354,-0.8270000000000001,0.0939
814424.0,588.375292,1.0,-3.36,-0.07,-9.33,23.25,30.19,0.75,5.44,-1.81,-1.63,-0.02980733284999315,0.01888906299534621,-0.11011130227038812,-64.71495187215974,-111.60396041024364,10.879617409371033,-0.1432,-0.5352,-0.8271,0.0948
814460.0,588.413098,1.0,-3.4,0.02,-9.36,22.87,29.87,-0.37,3.56,-14.5,0.75,0.059078679307618336,-0.057470557506318125,-0.15142244624536438,-64.68782282646684,-111.50208718714256,11.178940913568928,-0.1451,-0.535,-0.8266,0.0974
814493.0,588.428382,1.0,-3.5,0.09,-9.09,23.25,29.06,0.37,2.81,-15.69,0.56,0.17822390693638618,0.007836983211376825,0.06732893430499409,-64.67425982878002,-111.31904975679159,11.501374957383893,-0.14800000000000002,-0.5349,-0.8257,0.1002
814528.0,588.470903,1.0,-3.61,0.05,-9.11,23.25,29.06,0.37,6.25,-16.69,-2.06,0.1660594078332721,-0.001317343998747278,0.008735806781379194,-64.60646007520779,-111.15670835013724,12.00824269100582,-0.1517,-0.5344,-0.8249,0.1046
814563.0,588.528602,1.0,-3.81,0.05,-9.0,24.06,30.19,0.0,4.5,-12.0,-3.75,0.2488480338146113,0.12506090138739656,0.03725726416371344,-64.49803318236535,-111.07566339389359,12.365495103087909,-0.1543,-0.5336,-0.8245,0.1077
814598.0,588.535575,1.0,-3.59,0.17,-9.08,24.37,29.87,0.0,1.44,5.31,-9.88,0.29100118647728224,-0.15287877902774072,0.046765452097201184,-64.25430887597265,-111.31904975679159,12.492290914481535,-0.1537,-0.5318,-0.8257,0.1088
814632.0,588.552816,1.0,-3.5,0.29,-9.16,24.37,29.87,0.0,9.94,7.44,-15.0,0.3954534505814983,-0.2895057752921527,0.008716392626675784,-63.95686484639014,-111.68555504305651,12.492290914481535,-0.1517,-0.5296,-0.8275,0.1088
814665.0,588.5847980000002,1.0,-3.43,0.3,-9.37,24.06,30.19,0.0,8.88,7.69,-19.69,0.4473244944598535,-0.4036895330724968,-0.15772331484243374,-63.376882602273,-112.38260211278737,12.607573156584115,-0.1473,-0.5253,-0.8309,0.1098
814702.0,588.591438,1.0,-3.36,-0.63,-9.08,24.37,31.37,0.37,16.69,7.88,-20.81,-0.25242109793551004,0.015649967993428326,0.10773569643906278,-62.89270673851754,-112.91993898771477,13.045763563399612,-0.1424,-0.5217,-0.8335,0.1136
814739.0,588.646276,1.0,-3.35,-0.43,-9.07,23.25,31.69,0.0,8.19,8.0,-20.75,0.04310522281679608,-0.0680372529186265,0.12854001550503116,-62.182157850572864,-113.69123402259356,13.288003224878931,-0.1377,-0.5164,-0.8372,0.1157
814772.0,588.704222,1.0,-3.33,-0.58,-9.02,23.25,31.69,0.0,9.69,10.38,-23.56,0.0072327072550374405,0.0059888779627376145,0.17412116166857672,-61.62096412364078,-114.34362489902875,13.495684664619233,-0.1336,-0.5122,-0.8403,0.1175
814807.0,588.723099,1.0,-3.34,-0.51,-8.85,23.25,32.88,1.19,8.31,13.13,-24.69,0.2262755295164233,0.06799073702796121,0.3365720359903861,-60.80880014298898,-115.27961518989136,13.657245433015795,-0.1276,-0.5061,-0.8447,0.1189
814843.0,588.814736,1.0,-3.24,-0.58,-8.98,22.19,33.88,1.56,13.19,19.75,-28.19,0.2307872779687388,0.010308486129498973,0.24521543360561004,-60.17208928443668,-116.0328557464382,13.772662665221276,-0.1217,-0.5013,-0.8482,0.1199
814876.0,588.855543,1.0,-2.95,-0.74,-9.25,22.19,33.88,1.56,21.12,17.69,-28.75,0.14622287967968473,-0.21100589071860248,0.07285858125980305,-59.286754689259176,-117.07896160834984,14.176734355559056,-0.1122,-0.4946,-0.853,0.1234
814913.0,588.861734,1.0,-2.69,-1.54,-9.5,22.87,34.56,0.37,20.87,16.81,-27.81,-0.5136887309303864,-0.1023934742336825,-0.17249522712990206,-58.628588254962324,-117.80730258048688,14.580983303227079,-0.1047,-0.4896,-0.8563,0.1269
814950.0,588.877198,1.0,-2.71,-1.71,-9.23,21.37,36.06,1.19,6.25,12.94,-23.75,-0.4736755535459735,0.11927190943635048,0.04844803029306455,-57.802305908948476,-118.72304914641389,14.823619947246295,-0.0977,-0.4833,-0.8604,0.129
814985.0,588.879861,1.0,-2.69,-1.26,-9.28,21.37,36.06,1.19,3.13,11.75,-23.37,-0.02396356976466929,-0.09735142057708136,0.06334211980675519,-57.21411483330135,-119.37830144711693,14.788953503219902,-0.0939,-0.4788,-0.8633,0.1287
815020.0,588.914442,1.0,-2.72,-1.03,-9.14,20.75,38.0,2.38,1.56,13.88,-25.87,0.2955781903615467,-0.09335101805180768,0.22005419539806856,-56.36739676228097,-120.36186107562722,14.7196246947995,-0.0887,-0.4723,-0.8676,0.1281
815054.0,588.974893,1.0,-2.51,-1.37,-9.09,20.75,37.5,1.19,10.38,17.81,-27.31,0.007858576669726669,-0.024944302856235608,0.2775148858079586,-55.67947118427708,-121.12678863705332,14.754288420181696,-0.0833,-0.467,-0.8709,0.1284
815089.0,588.991633,1.0,-2.41,-1.26,-9.09,20.06,37.88,2.69,0.88,19.37,-32.69,0.1810488765385173,-0.08181991251554943,0.3206431053039953,-54.64519627292022,-122.32709422851921,14.627194705880914,-0.076,-0.45899999999999996,-0.8759999999999999,0.1273
815124.0,589.027728,1.0,-2.36,-1.2,-9.06,20.06,37.88,2.69,3.63,25.75,-32.44,0.3109683289752853,-0.06356573167008794,0.3730685965174612,-53.82124003233572,-123.30885743015295,14.419262116395176,-0.0697,-0.4526,-0.8801,0.1255
815161.0,589.07965,1.0,-1.63,-1.98,-9.46,19.75,39.56,2.69,12.75,38.25,-32.75,-0.5210446307289034,-0.1677518648762928,0.020472410940053358,-52.769914659011285,-124.57692406667047,14.292215737283833,-0.0571,-0.4444,-0.8853,0.1244
815196.0,589.145396,1.0,-1.41,-2.26,-9.42,19.06,39.88,4.25,3.5,39.19,-31.56,-0.6936636575796935,-0.014444017263557153,0.0418805659314998,-52.00367866289412,-125.57083317422124,13.991994191085649,-0.0462,-0.4384,-0.8893,0.1218
815230.0,589.222516,1.0,-1.41,-1.85,-9.04,19.06,39.88,4.25,-3.81,41.13,-25.81,-0.22079629411281754,0.0462751953555306,0.4749134197701004,-51.138286174965344,-126.73497195223707,13.288003224878931,-0.0348,-0.4316,-0.8939,0.1157
815265.0,589.2329589999998,1.0,-0.72,-2.67,-9.7,18.0,41.0,4.69,12.38,69.31,-25.94,-0.9245996631722432,0.17405520430245724,-0.2358656334813336,-50.45328632935345,-127.76677999527551,12.526874248925028,-0.0134,-0.4262,-0.8979,0.1091
815302.0,589.235955,1.0,-0.55,-2.42,-9.74,15.75,41.25,5.75,-10.0,67.69,-23.69,-0.5973440833931086,0.18532872420223492,-0.225066369097604,-49.985047701010245,-128.5268474503853,11.570479767497385,0.0034,-0.4225,-0.9008,0.1008
815337.0,589.2750980000002,1.0,-0.47,-1.7,-9.48,15.75,41.25,5.75,-14.44,69.19,-19.0,0.03945450847384421,0.02460212621578828,0.16408093998560958,-49.60604885480682,-129.1371769317901,10.361732200036483,0.0175,-0.4195,-0.9031,0.0903
815372.0,589.327654,1.0,0.42,-1.78,-10.03,14.5,41.19,6.56,-1.56,78.62,-17.69,-0.22869516050553865,-0.2388481874477761,-0.3833622702043016,-49.21502427217554,-129.64656611878056,8.832292528579133,0.0403,-0.4164,-0.905,0.077
815407.0,589.34078,1.0,0.6,-1.85,-9.84,11.06,41.56,8.19,-2.31,78.25,-18.56,-0.07712391553794434,0.11204336217131704,-0.2227865837092491,-48.74911561441486,-129.97078188553854,7.47667331573405,0.0646,-0.4127,-0.9062,0.0652
815443.0,589.349548,1.0,1.35,-1.9,-10.11,8.56,42.25,10.19,-5.13,89.0,-18.0,-0.2664424728397796,-0.06434315289593684,-0.5649201977734499,-48.39710622669993,-130.0792914251156,6.259812004164343,0.0847,-0.4099,-0.9066,0.0546
815476.0,589.461552,1.0,1.82,-1.7,-10.47,8.56,42.25,10.19,-9.13,63.63,-12.13,-0.06934198167347871,-0.13745910586979893,-0.9543721021885788,-48.0581282417445,-129.99788861220236,4.837200229263812,0.1047,-0.4072,-0.9063,0.0422
815513.0,589.471395,1.0,1.75,-1.18,-9.97,5.69,40.75,11.88,-7.63,21.37,-3.69,0.3050650437189116,-0.2981216120370244,-0.3753860843761103,-47.995403677336114,-129.9436888935972,4.275256896440698,0.1102,-0.4067,-0.9061,0.0373
815548.0,589.474033,1.0,1.73,-1.44,-9.62,4.19,42.06,12.38,-2.13,31.94,-6.25,0.1623753881690938,0.045578763946054535,-0.07173330950941192,-47.81985609667796,-129.88954402446632,3.6904861286986015,0.1188,-0.4053,-0.9059,0.0322
815583.0,589.527067,1.0,2.11,-1.32,-9.81,4.19,42.06,12.38,-5.06,37.63,-9.06,0.16123160118303173,-0.14068405066199086,-0.31188805491036753,-47.619376147320615,-129.80842917390058,3.082884815106741,0.1271,-0.4037,-0.9056,0.0269
815618.0,589.530214,1.0,2.18,-1.08,-9.78,2.75,40.88,13.25,-8.69,28.44,-9.25,0.3802427596718351,-0.16028774282880442,-0.2629539288154703,-47.31894588531802,-129.80842917390058,2.314906939637541,0.1354,-0.4013,-0.9056,0.0202
815652.0,589.586497,1.0,2.28,-1.23,-9.39,1.69,41.75,13.25,-2.75,20.5,-10.38,0.14949734914278673,-0.05486989231063444,0.06714078045936134,-47.05635227559625,-129.9436888935972,1.8793858210517669,0.1396,-0.3992,-0.9061,0.0164
815689.0,589.5899440000002,1.0,2.4,-1.26,-9.37,1.69,41.75,13.25,-6.0,30.06,-11.25,0.14308722203145294,0.04745821878046075,0.05361079345717279,-46.68167205165904,-129.97078188553854,1.2261530793833222,0.1476,-0.3962,-0.9062,0.0107
815722.0,589.660043,1.0,2.65,-1.36,-9.3,1.06,42.5,13.38,-3.94,36.19,-10.63,-0.008850713965364684,0.0776161457925083,0.04161045073166925,-46.39477504755206,-129.88954402446632,0.687553479519944,0.1552,-0.3939,-0.9059,0.006
815759.0,589.707899,1.0,3.01,-1.13,-9.11,-0.06,41.38,15.06,-10.63,47.38,-10.63,0.02275123715882191,-0.0939235936495636,0.14643464319952493,-46.02102324962843,-129.64656611878056,-0.3666936147093117,0.1678,-0.3909,-0.905,-0.0032
815794.0,589.725753,1.0,3.24,-1.27,-9.21,-1.19,40.69,16.25,-9.94,46.31,-9.13,-0.05722338529357196,0.08472926502341893,-0.038356167383753366,-45.7223943424676,-129.3510733053071,-1.2605325708995527,0.1786,-0.3885,-0.9039,-0.011000000000000001
815828.0,589.780321,1.0,3.65,-1.21,-9.28,-1.19,40.69,16.25,-10.94,43.81,-7.31,-0.10740854315062412,0.04061151313309863,-0.2378417297919686,-45.49863792387894,-128.87098138309108,-2.360753104216733,0.1904,-0.3867,-0.9021,-0.0206
815863.0,589.783411,1.0,4.01,-1.24,-9.37,-3.0,40.75,14.25,-14.75,47.88,-5.69,-0.2104064700808951,0.06220973359163895,-0.4581665627250509,-45.37440798509372,-128.39505791682004,-3.3121572228147254,0.1998,-0.3857,-0.9003,-0.0289
815900.0,589.834172,1.0,4.21,-1.0,-9.27,-6.06,39.25,15.56,-18.25,40.5,-3.06,-0.07802115189645814,0.04389578387101578,-0.4231586912715546,-45.31231413333559,-127.66274936627121,-4.66516502390792,0.2108,-0.3852,-0.8975,-0.0407
815935.0,589.837843,1.0,4.13,-0.59,-9.09,-6.06,39.25,15.56,-21.19,42.31,-2.31,0.2704486562407645,-0.02033600143359093,-0.1913269939414892,-45.33714998751986,-127.09397976921673,-5.6516548202737225,0.2179,-0.3854,-0.8953,-0.0493
815970.0,589.881438,1.0,4.65,-0.55,-9.19,-7.06,39.38,16.87,-14.0,44.06,0.06,0.15859006928076158,-0.08375793248095288,-0.5059119415677724,-45.349568757649266,-126.20062569892963,-6.856665996646211,0.2291,-0.3855,-0.8918,-0.0598
816005.0,589.930708,1.0,4.76,-0.53,-8.75,-8.56,38.56,17.75,-18.75,39.94,-1.06,0.03984979352279594,-0.0997065331711322,-0.1677908665949399,-45.361988090099786,-125.5457815403515,-7.717845476549469,0.2368,-0.3856,-0.8892,-0.0673
816041.0,589.980917,1.0,4.89,-0.46,-8.91,-10.38,38.19,17.0,-16.06,29.0,1.44,0.15378652921157515,0.06576208824525588,-0.3660499882618513,-45.461363019954995,-124.72495975966049,-8.901253805563371,0.2448,-0.3864,-0.8859,-0.0776
816074.0,590.043172,1.0,4.84,-0.42,-8.61,-10.38,38.19,17.0,-16.12,21.0,3.94,0.12355781713207305,0.08951930239318195,-0.07822833816504904,-45.635356121986106,-124.23291484122736,-9.53355259965066,0.2479,-0.3878,-0.8839,-0.0831
816111.0,590.047123,1.0,5.21,-0.43,-8.79,-12.0,37.19,18.69,-18.31,26.31,4.56,0.02557197518495713,0.1094603168958379,-0.4198090407975652,-45.87166763185487,-123.42965193046732,-10.48830635783265,0.2535,-0.3897,-0.8806,-0.0914
816148.0,590.064261,1.0,5.2,-0.33,-8.65,-13.0,36.75,17.19,-21.81,18.06,4.88,0.06521976814769015,0.12598199773311558,-0.2904423992053253,-46.10818553492847,-122.87593702038136,-11.213483126166134,0.2562,-0.3916,-0.8783,-0.0977
816181.0,590.1165030000002,1.0,5.29,0.14,-8.76,-13.0,36.75,17.19,-19.12,14.44,5.25,0.3931134658071896,-0.04886017014637889,-0.42000020848832703,-46.494530291688996,-122.18470178965723,-12.169567773976445,0.2581,-0.3947,-0.8754,-0.106
816216.0,590.206125,1.0,5.23,0.08,-8.72,-13.06,36.56,19.25,-16.44,8.81,5.25,0.3587369056511849,0.0940982552002253,-0.3550503179040909,-46.744081927482135,-121.78298489723478,-12.676748644427741,0.2589,-0.3967,-0.8737,-0.1104
816252.0,590.247859,1.0,5.49,0.19,-8.68,-13.5,35.75,18.19,-15.13,10.38,5.0,0.2624628283971375,-0.06301706679462005,-0.4620277197944205,-47.06885078095891,-121.3135909011287,-13.322613734970494,0.2593,-0.3993,-0.8717,-0.11599999999999999
816285.0,590.266598,1.0,5.44,0.02,-8.57,-13.5,35.75,18.19,-9.94,3.0,7.19,0.11610321572813932,0.07891689812836855,-0.3431870512283286,-47.30643546064212,-121.01031078825766,-13.634163660769715,0.2596,-0.4012,-0.8704,-0.1187
816320.0,590.269479,1.0,5.44,0.02,-8.57,-13.88,35.75,19.0,-12.56,1.5,8.44,0.09525021264257773,0.10950477291676552,-0.34312024871499425,-47.71959673028522,-120.61584152012749,-13.957359493385505,0.2588,-0.4045,-0.8687,-0.1215
816355.0,590.272408,1.0,5.39,-0.02,-8.41,-13.88,34.69,17.87,-10.88,1.06,9.0,0.015361324872933681,0.12278005238434544,-0.1816075601770865,-48.0581282417445,-120.31578829659293,-14.222925164993965,0.258,-0.4072,-0.8674,-0.1238
816390.0,590.346299,1.0,5.32,-0.18,-8.34,-13.5,34.38,19.87,-12.75,0.81,10.88,-0.1132480441588254,0.2555590523015041,-0.0833583140147578,-48.58562199629408,-119.85682289966007,-14.500119080393965,0.257,-0.4114,-0.8654,-0.1262
816424.0,590.351963,1.0,5.37,0.1,-8.41,-13.5,34.38,19.87,-22.12,5.88,12.44,0.07834536348335741,0.11906916983540405,-0.17105938326103853,-49.07642066173354,-119.35560000731121,-14.916070477056891,0.2562,-0.4153,-0.8632,-0.1298
816461.0,590.3666820000002,1.0,5.51,0.27,-8.34,-13.88,34.0,20.25,-24.19,3.88,13.5,0.07990844679651253,-0.02953282006446578,-0.19241707911641195,-49.78284259139971,-118.58826863083307,-15.621331474060085,0.2552,-0.4209,-0.8598,-0.1359
816496.0,590.406374,1.0,5.58,0.31,-8.46,-14.19,33.19,19.56,-16.81,0.12,13.0,0.08240159230251798,-0.010645408900738396,-0.3322452382819012,-50.28866780725309,-118.1186232350635,-16.026256661631813,0.2538,-0.4249,-0.8577,-0.1394
816529.0,590.461466,1.0,5.59,0.29,-8.62,-14.19,33.19,19.56,-18.94,-3.81,15.63,0.0671416851687574,0.08285178997544151,-0.4707634671623762,-51.04937993737921,-117.4973779425748,-16.419805484293857,0.2512,-0.4309,-0.8549,-0.1428
816566.0,590.517304,1.0,5.38,0.33,-8.61,-15.38,32.5,20.0,-19.19,-12.44,16.5,0.138392406503544,0.1762836207770173,-0.348898809732928,-51.697885027971715,-117.10092120050626,-16.651395613206027,0.2473,-0.436,-0.8531,-0.1448
816601.0,590.5332530000002,1.0,5.32,0.33,-8.55,-13.75,31.69,19.56,-16.81,-17.87,20.25,0.06270047908600185,0.12590549086141745,-0.2677738771898692,-52.69317728708804,-116.57577410041328,-16.801965875210325,0.24100000000000002,-0.4438,-0.8507,-0.1461
816635.0,590.588604,1.0,5.44,0.6,-8.63,-13.75,31.69,19.56,-20.06,-21.06,20.56,0.1773886059390083,-0.13783303099421507,-0.4100048017465117,-53.500200054022216,-116.18445627109944,-16.848301053200124,0.2354,-0.4501,-0.8489,-0.1465
816670.0,590.646399,1.0,5.22,0.61,-8.85,-13.38,31.69,20.06,-13.25,-28.44,19.37,0.2259734958575544,-0.02268408008942491,-0.4837057475764848,-54.56782105444786,-115.81683895855758,-16.744050792597328,0.2259,-0.4584,-0.8472,-0.1456
816705.0,590.686495,1.0,4.82,0.69,-8.72,-12.25,30.87,20.5,-13.31,-39.19,19.06,0.34049107994003497,0.014583523105141659,-0.17487058282379842,-55.38161658816516,-115.66601281547123,-16.466118077182387,0.2168,-0.4647,-0.8465,-0.1432
816742.0,590.700813,1.0,4.82,0.78,-8.84,-11.5,30.5,20.87,-11.63,-37.25,19.44,0.31060840575851845,-0.1857479024843679,-0.2856946302132801,-56.45841982476564,-115.45109275023191,-16.003112701402525,0.205,-0.473,-0.8455,-0.1392
816777.0,590.704038,1.0,4.63,0.61,-9.13,-11.5,30.5,20.87,-7.13,-34.81,15.56,0.1873685325715172,-0.035770315885175215,-0.4466184309689023,-57.344681030456115,-115.3224465772307,-15.517239777173634,0.19399999999999998,-0.4798,-0.8449,-0.135
816814.0,590.740429,1.0,4.38,0.61,-9.19,-9.19,30.06,19.69,-5.19,-41.69,16.19,0.22445935087013927,-0.0027583723517833336,-0.3895360708398652,-58.0118417792849,-115.27961518989136,-14.985414779298193,0.1853,-0.4849,-0.8447,-0.1304
816848.0,590.794021,1.0,4.05,0.45,-9.11,-8.0,29.25,20.5,-2.19,-40.44,15.63,0.13773345159175832,0.11580802446448513,-0.17156216440010574,-58.64173070844467,-115.23680905302649,-14.407711711634985,0.1767,-0.4897,-0.8445,-0.1254
816883.0,590.809311,1.0,3.82,0.61,-9.27,-8.0,29.25,20.5,-4.5,-36.81,13.31,0.2879452052356076,0.04952089407430571,-0.2338696698095237,-59.43183945325738,-115.1726470817956,-13.726494094235369,0.1652,-0.4957,-0.8442,-0.1195
816916.0,590.846021,1.0,3.74,0.65,-9.47,-6.75,30.0,18.5,-2.63,-40.44,12.88,0.30131208137897525,-0.008841119560866972,-0.3913955413878192,-59.973537976801865,-115.1512723286105,-13.195714475135588,0.1567,-0.4998,-0.8441,-0.1149
816953.0,590.921562,1.0,3.33,0.28,-9.53,-5.0,29.19,18.87,2.94,-48.56,11.69,0.051849828173694656,0.2332710809544426,-0.28944311556250746,-60.63615363736209,-115.21541543771308,-12.215665087929844,0.1443,-0.5048,-0.8444,-0.1064
816988.0,590.9615650000002,1.0,2.89,0.41,-9.17,-5.0,29.19,18.87,0.56,-52.56,12.56,0.2249628853777672,0.17294010626487166,0.18747210270297648,-61.19448635278197,-115.25820896831397,-11.294085603048902,0.1336,-0.509,-0.8446,-0.0984
817022.0,590.977358,1.0,2.91,0.19,-9.62,-1.88,30.25,19.69,0.56,-24.87,8.31,-0.0010096751239925816,0.17568517082806734,-0.24410786701217724,-61.71438217106357,-115.21541543771308,-10.51132121524803,0.1245,-0.5129,-0.8444,-0.0916
817057.0,591.0192959999998,1.0,2.93,0.3,-9.69,-0.75,28.75,18.5,-0.81,-36.0,9.44,0.004653736461562641,-0.08034905557907858,-0.3207643971699152,-62.19553975386646,-115.1726470817956,-9.821056182581472,0.1151,-0.5165,-0.8442,-0.0856
817094.0,591.072584,1.0,2.62,0.3,-9.65,0.37,30.25,17.69,2.06,-42.88,11.06,0.059304688491616686,-0.027534378774330737,-0.1969805815393073,-62.61084822614068,-115.12990385023735,-9.108157120464725,0.1064,-0.5196,-0.8440000000000001,-0.0794
817127.0,591.08733,1.0,2.44,0.3,-9.78,0.37,30.25,17.69,0.94,-47.06,10.13,0.06691175440923741,-0.05364264849267747,-0.2772304675275965,-63.01363300906978,-115.10854164041076,-8.361141590530956,0.0972,-0.5226,-0.8439,-0.0729
817164.0,591.0900889999998,1.0,2.08,0.22,-9.78,2.25,29.19,19.37,3.94,-32.81,6.63,0.058923387792466815,0.042057831222022564,-0.19424791834733127,-63.44422897307763,-115.06583600138664,-7.442222882076424,0.0865,-0.5258,-0.8437,-0.0649
817199.0,591.1299690000002,1.0,1.95,0.01,-9.82,3.75,29.87,18.56,-0.31,-39.19,8.06,-0.13164749521819533,0.08344823716911959,-0.20387972268282084,-63.74084444335865,-115.0231553616165,-6.8107477456860686,0.0793,-0.528,-0.8435,-0.0594
817231.0,591.146198,1.0,1.61,0.18,-9.65,3.75,29.87,18.56,-1.25,-45.5,9.75,0.027374205325632228,0.011649071415211263,0.02165562330166715,-64.22724850843996,-114.87396927454428,-5.915551513947968,0.0664,-0.5316,-0.8428,-0.0516
817266.0,591.204492,1.0,1.31,0.27,-9.76,4.19,29.19,17.06,4.19,-39.25,6.38,0.1613435113224477,0.0637260062621953,-0.04304579568221989,-64.5115830018242,-114.810125415467,-5.2271876941715805,0.0576,-0.5337,-0.8425,-0.0456
817303.0,591.20768,1.0,1.1,0.12,-9.55,7.56,29.56,15.88,3.19,-23.5,2.69,0.04954266284852907,0.0975547577183202,0.19338163831340802,-64.71495187215974,-114.76759373176695,-4.4587366294239885,0.0499,-0.5352,-0.8423,-0.0389
817338.0,591.245785,1.0,1.03,0.07,-9.83,7.56,29.56,15.88,4.0,-25.75,3.0,0.011830594215270662,0.09890001042863088,-0.0769110396748065,-64.82350878733949,-114.76759373176695,-4.000057708800217,0.0453,-0.536,-0.8423,-0.0349
817371.0,591.332985,1.0,0.82,0.03,-9.76,7.19,29.87,16.25,1.37,-20.37,2.25,0.009641704873221288,0.1381313749731544,0.013196739746231144,-64.97288126664843,-114.72508670230465,-3.380941489627292,0.0387,-0.5371,-0.8421,-0.0295
817405.0,591.342802,1.0,0.8,0.01,-9.82,8.69,29.87,16.5,0.06,-10.31,-0.44,-0.02327602987122997,0.10702827036198667,-0.04527890635010756,-65.01364072680407,-114.72508670230465,-3.15166519950434,0.0359,-0.5374,-0.8421,-0.0275
817440.0,591.3454830000002,1.0,0.76,0.13,-9.79,9.5,30.0,14.75,-1.5,-3.38,-2.44,0.0797974146010991,0.06497115518128542,-0.013126531144557418,-64.94571342127749,-114.810125415467,-3.094348134689141,0.0343,-0.5369,-0.8425,-0.027000000000000003
817475.0,591.458259,1.0,0.84,-0.04,-10.0,9.5,30.0,14.75,0.69,2.75,-2.75,-0.0912098523446648,0.08688622087930672,-0.2278570405803517,-64.86423446267784,-114.8952629410071,-3.082884815106741,0.0349,-0.5363,-0.8429,-0.0269
817510.0,591.561483,1.0,0.74,0.02,-9.87,9.19,29.69,15.25,-2.44,1.12,-2.13,0.0017987440277371371,0.15113782548559612,-0.08991779506043862,-64.7556530727814,-114.98049967133859,-3.1287382797377283,0.0352,-0.5355,-0.8433,-0.0273
817545.0,591.607394,1.0,0.84,0.13,-9.82,10.69,29.69,16.06,2.88,7.75,-4.75,0.07018028556178549,0.032937911077977056,-0.04976363892223645,-64.6200179960006,-115.10854164041076,-3.1975194185389717,0.0364,-0.5345,-0.8439,-0.0279
817580.0,591.622496,1.0,0.87,0.21,-10.02,10.69,29.69,16.06,-0.81,9.63,-6.19,0.1614481729276922,0.04426049712900326,-0.25184767588839385,-64.38967098038597,-115.30102772408483,-3.380941489627292,0.039,-0.5328,-0.8448,-0.0295
817614.0,591.6252969999998,1.0,0.73,0.19,-9.95,10.25,30.0,15.69,7.0,2.13,-7.88,0.2238487611075039,0.17532700380818414,-0.1678500964402332,-64.15961512656168,-115.51550165897758,-3.32362118371626,0.0401,-0.5311,-0.8458,-0.028999999999999998
817651.0,591.628024,1.0,0.89,0.13,-9.88,9.56,29.25,16.06,8.75,5.06,-8.81,0.15255990666264999,0.05034747871297189,-0.11290596820070853,-63.79482577106735,-115.88157571501448,-3.140201723904295,0.0425,-0.5284,-0.8475,-0.0274
817684.0,591.667472,1.0,1.02,-0.07,-10.03,9.56,29.25,16.06,13.38,1.56,-10.56,-0.02709319781847808,0.025210123599493844,-0.27525609003575546,-63.484648540415236,-116.18445627109944,-2.922401528803221,0.0444,-0.5261,-0.8489,-0.0255
817719.0,591.682747,1.0,0.93,-0.13,-10.11,9.19,30.0,15.69,12.25,-5.38,-10.63,0.01855383077860893,0.0818896947223072,-0.3465194476779878,-63.05395914548726,-116.61938735433752,-2.4639083675369537,0.0453,-0.5229,-0.8509,-0.0215
817754.0,591.686409,1.0,0.93,-0.09,-9.75,9.56,30.75,16.06,7.94,-0.56,-12.0,0.06409753156650369,0.0015987458445231024,0.012192947643354657,-62.71817306273571,-116.96926663704076,-2.200293133435064,0.0458,-0.5204,-0.8525,-0.0192
817790.0,591.689134,1.0,0.86,-0.14,-9.68,9.56,30.75,16.06,7.44,2.63,-13.44,0.0823156468920113,0.07762694455353619,0.08817284605473398,-62.32941069730318,-117.3429325945059,-2.0627594617091103,0.0473,-0.5175,-0.8542,-0.018000000000000002
817823.0,591.7640240000002,1.0,0.82,-0.27,-9.7,9.5,31.5,15.25,6.19,9.25,-13.69,0.03656063459555319,0.1977067154465076,0.07038401274054529,-61.754432405476855,-117.87389590745228,-2.0054546535892377,0.0501,-0.5132,-0.8566,-0.0175
817858.0,591.808893,1.0,1.13,-0.51,-9.97,9.06,31.5,16.56,9.31,11.56,-14.44,-0.2491193382217001,0.09899954755960323,-0.236558583162406,-61.30101752415778,-118.29715573552454,-2.0054546535892377,0.0533,-0.5098,-0.8585,-0.0175
817893.0,591.826578,1.0,1.09,-0.47,-9.84,8.69,32.25,16.56,4.0,8.56,-12.44,-0.15375453280831447,0.1469746609358624,-0.1024043440170761,-60.80880014298898,-118.72304914641389,-2.0398374773549266,0.0566,-0.5061,-0.8604,-0.0178
817928.0,591.882406,1.0,1.32,-0.52,-10.15,8.69,32.25,16.56,1.5,8.56,-9.13,-0.2421723344568448,0.03738638012586035,-0.43909325361536666,-60.50345208908529,-118.99341650256764,-2.085681528609333,0.0593,-0.5038,-0.8616,-0.0182
817965.0,591.8875400000003,1.0,1.2,-0.32,-9.83,8.69,33.0,15.38,3.44,3.13,-9.63,-0.01297184127629257,0.03427017654432557,-0.10142535732008362,-60.14560427540305,-119.33290625430892,-2.0971425933011094,0.0609,-0.5011,-0.8631,-0.0183
817997.0,591.9437929999998,1.0,1.22,-0.17,-9.84,8.06,33.0,16.19,5.06,3.44,-11.25,0.1204924136292329,-0.0412666402343912,-0.1093309722821445,-59.80162063871753,-119.62852711601612,-2.1200647857418087,0.0619,-0.4985,-0.8644,-0.0185
818032.0,591.948077,1.0,1.29,-0.59,-10.06,8.06,33.0,16.19,7.63,1.88,-10.06,-0.2074321842972585,0.12096521912565808,-0.3500295413008647,-59.39226049534915,-120.01709840281569,-1.9023072532875973,0.0638,-0.4954,-0.8661,-0.0166
818067.0,592.001409,1.0,1.28,-0.48,-9.98,7.25,33.69,16.19,3.81,1.31,-9.0,-0.10337440861245266,0.06520240138473576,-0.2658006639892623,-59.128599522356026,-120.26974778474064,-1.8450038134157023,0.0643,-0.4934,-0.8672,-0.0161
818104.0,592.033715,1.0,1.32,-0.64,-9.89,8.06,33.25,15.38,5.0,-0.06,-4.63,-0.2414698974635621,0.09253264574804826,-0.18821017901650627,-58.891598569681705,-120.50027377126793,-1.6845565907051554,0.0652,-0.4916,-0.8682,-0.0147
818137.0,592.195171,1.0,1.3,-0.63,-9.88,8.06,33.25,15.38,-0.37,0.06,-3.06,-0.2088769820961872,0.09744076837067757,-0.17574328533041414,-58.79950628412525,-120.61584152012749,-1.6043342375287626,0.0657,-0.4909,-0.8687,-0.013999999999999999
818169.0,592.201041,1.0,1.42,-0.38,-10.07,8.06,32.88,16.19,-1.56,0.37,-2.06,-0.0428196643984169,-0.11200938724958637,-0.3693669208540893,-58.70745568211353,-120.68528037991207,-1.638715147453804,0.0656,-0.4902,-0.8690000000000001,-0.0143
818206.0,592.2597360000002,1.0,1.23,-0.45,-9.84,7.69,33.69,16.06,0.19,-2.81,-0.81,-0.029902703274839737,0.051445162354118334,-0.11995360967472204,-58.66801815565057,-120.73161403507065,-1.5699534720315549,0.0652,-0.4899,-0.8692,-0.0137
818241.0,592.276646,1.0,1.17,-0.43,-9.78,7.69,33.69,16.06,-0.12,-2.25,-0.44,0.006069529113114751,0.07678546690883438,-0.05216672174140236,-58.66801815565057,-120.75479321636242,-1.5355728478655368,0.0647,-0.4899,-0.8693,-0.0134
818274.0,592.279658,1.0,1.2,-0.47,-9.94,8.5,32.88,15.25,0.0,-0.88,0.0,-0.03252551359772718,0.07853009114871698,-0.21618767781107984,-58.66801815565057,-120.75479321636242,-1.5126525087430307,0.0643,-0.4899,-0.8693,-0.0132
818309.0,592.292771,1.0,1.18,-0.42,-9.84,8.06,33.69,16.5,-1.31,-2.25,0.56,0.0008986370600884418,0.057818884113330075,-0.1125765912767278,-58.66801815565057,-120.75479321636242,-1.5241126706819226,0.0638,-0.4899,-0.8693,-0.0133
818345.0,592.320195,1.0,1.19,-0.37,-9.84,7.25,33.69,16.06,0.0,-2.75,-0.37,0.02857031862315894,0.008542276520902338,-0.11190386467229096,-58.68116315004747,-120.75479321636242,-1.4782721132478738,0.063,-0.49,-0.8693,-0.0129
818378.0,592.335673,1.0,1.12,-0.43,-9.91,7.25,33.69,16.06,2.19,-2.31,0.06,0.0214970195737558,0.09001268693705372,-0.17527544524050676,-58.68116315004747,-120.777980646449,-1.3980517025844337,0.0627,-0.49,-0.8694,-0.0122
818415.0,592.338384,1.0,1.18,-0.5,-9.79,7.69,33.25,15.25,1.0,-0.63,-0.31,-0.07054696694710863,0.055615797217453855,-0.06646652967564037,-58.65487400856189,-120.80117633509359,-1.3178319771025526,0.0629,-0.4898,-0.8695,-0.0115
818450.0,592.408941,1.0,1.13,-0.38,-9.81,7.69,33.69,15.75,-0.44,-1.69,-0.5,0.047300858390968564,0.03491385111492032,-0.07535099432275237,-58.66801815565057,-120.777980646449,-1.3407518310456548,0.0623,-0.4899,-0.8694,-0.0117
818483.0,592.499476,1.0,1.06,-0.53,-9.84,7.69,33.69,15.75,-1.25,-0.31,-0.94,-0.03793637879366202,0.16364264431718045,-0.103036267290447,-58.65487400856189,-120.80117633509359,-1.2719924264668117,0.0622,-0.4898,-0.8695,-0.0111
818518.0,592.510774,1.0,1.17,-0.25,-10.04,8.5,34.38,15.25,-0.63,-1.31,0.19,0.15293340570501324,-0.05639080253299681,-0.30306965243394396,-58.65487400856189,-120.82438029207813,-1.3178319771025526,0.0618,-0.4898,-0.8696,-0.0115
818554.0,592.56064,1.0,1.05,-0.4,-9.79,8.75,33.69,15.69,1.06,-3.19,0.44,0.05768423029753944,0.08760477878528014,-0.04705985630838505,-58.628588254962324,-120.87081305028902,-1.2490727279396536,0.0612,-0.4896,-0.8698,-0.0109
818587.0,592.577421,1.0,1.01,-0.45,-9.71,8.75,33.69,15.69,2.31,-7.5,0.19,0.01921628877041103,0.10508496312863104,0.034480952916839065,-58.628588254962324,-120.87081305028902,-1.0886361860699356,0.0599,-0.4896,-0.8698,-0.0095
818622.0,592.580221,1.0,1.11,-0.45,-10.03,8.5,33.25,15.69,1.94,-2.94,0.88,-0.003154571215262844,0.01770599595875033,-0.2945962867899379,-58.64173070844467,-120.87081305028902,-0.9625804159917916,0.0592,-0.4897,-0.8698,-0.0084
818657.0,592.582946,1.0,1.12,-0.52,-9.94,8.5,33.25,15.69,0.06,-0.44,0.31,-0.0751000323491853,0.02840720097300769,-0.20943471490103072,-58.64173070844467,-120.87081305028902,-0.9052827329224428,0.059000000000000004,-0.4897,-0.8698,-0.0079
818692.0,592.616578,1.0,1.05,-0.33,-9.87,8.5,33.25,15.69,-1.44,-2.06,0.81,0.10125110802369294,-0.017587843658358214,-0.1239964482872118,-58.65487400856189,-120.87081305028902,-0.93966131468631,0.0583,-0.4898,-0.8698,-0.0082
818724.0,592.70485,1.0,1.1,-0.49,-10.07,8.75,34.38,14.88,-0.5,-2.19,-0.06,-0.03815795641720186,0.025869085602060082,-0.3349906345705307,-58.64173070844467,-120.89404187117351,-0.8709042326408071,0.0582,-0.4897,-0.8699,-0.0076
818759.0,592.71037,1.0,0.93,-0.42,-9.79,8.5,33.69,16.06,0.81,-3.44,0.44,0.07200062488385926,0.09723531097873322,-0.03564450912312367,-58.64173070844467,-120.89404187117351,-0.8136069048374162,0.0573,-0.4897,-0.8699,-0.0071
818796.0,592.812086,1.0,0.98,-0.44,-9.89,8.5,34.06,15.25,-0.06,-3.94,0.19,0.02771833677538888,0.05448086962754349,-0.1413328874325579,-58.64173070844467,-120.91727899971443,-0.7563097804494618,0.0564,-0.4897,-0.87,-0.0066
818829.0,592.868988,1.0,0.95,-0.42,-9.9,8.5,34.06,15.25,-0.5,-4.81,0.31,0.04954156094671379,0.05001954647353793,-0.14744180582084174,-58.65487400856189,-120.94052444578816,-0.687553479519944,0.0554,-0.4898,-0.8701,-0.006
818866.0,592.942605,1.0,1.05,-0.45,-10.08,8.75,34.06,15.25,0.88,-2.25,-0.75,-0.017573173693584868,-0.02532283379755429,-0.33782879083271844,-58.64173070844467,-120.94052444578816,-0.6187974261216272,0.0547,-0.4897,-0.8701,-0.0054
818900.0,592.949346,1.0,0.83,-0.56,-9.79,9.19,34.38,15.38,2.31,-3.63,0.25,-0.026917201175388664,0.181636825857022,-0.032703816576242765,-58.628588254962324,-120.96377821929032,-0.5271230305187238,0.0541,-0.4896,-0.8702,-0.0046
818933.0,592.955729,1.0,0.85,-0.42,-9.81,9.19,34.38,15.38,-2.19,-2.88,0.31,0.0627369020238275,0.07418562611239837,-0.04858011268649776,-58.64173070844467,-120.98704033013556,-0.4927452222969898,0.0527,-0.4897,-0.8703,-0.0043
818968.0,592.958384,1.0,0.82,-0.48,-9.91,10.25,33.69,14.06,0.25,-1.69,-1.37,0.029748511174464483,0.1314280076627916,-0.1478837261413073,-58.61544664777843,-121.01031078825766,-0.4812859628976946,0.0523,-0.4895,-0.8704,-0.0042
819005.0,592.9610849999998,1.0,0.94,-0.46,-9.93,9.19,34.06,16.19,0.63,0.25,-1.44,-0.015146353151582432,0.01920705028912006,-0.17831377946386873,-58.58916597096109,-121.03358960360971,-0.4812859628976946,0.0522,-0.4893,-0.8705,-0.0042
819040.0,592.963904,1.0,1.02,-0.38,-10.02,9.19,34.06,16.19,-1.5,1.0,-0.12,0.017467971458196074,-0.08164089579617753,-0.2719525635554607,-58.56288867530428,-121.05687678616405,-0.5042044866238587,0.0522,-0.4891,-0.8706,-0.0044
819073.0,593.006921,1.0,0.82,-0.47,-9.94,8.75,34.06,15.75,-0.81,-1.37,-0.56,0.030991668795166988,0.12518459614521246,-0.177350617655895,-58.56288867530428,-121.08017234591215,-0.4927452222969898,0.0518,-0.4891,-0.8707,-0.0043
819107.0,593.06566,1.0,0.91,-0.41,-9.94,8.75,34.38,15.38,-0.94,-2.75,-0.69,0.025978334388482127,0.014232394877943337,-0.18329106914942805,-58.54975129457163,-121.08017234591215,-0.5042044866238587,0.0513,-0.489,-0.8707,-0.0044
819144.0,593.079499,1.0,0.86,-0.47,-9.88,8.75,34.06,15.75,0.69,-2.25,-0.44,-0.01087977748866828,0.0676407462625894,-0.12160293593423965,-58.52347906562028,-121.12678863705332,-0.43544897228424,0.0506,-0.4888,-0.8709,-0.0038
819177.0,593.12753,1.0,0.85,-0.48,-9.84,8.75,34.06,15.75,0.19,-2.56,-1.06,-0.028025793095129432,0.07342727031805027,-0.08133882437146944,-58.510344216731006,-121.15010938852664,-0.43544897228424,0.05,-0.4887,-0.871,-0.0038
819212.0,593.187521,1.0,0.97,-0.39,-9.89,9.19,33.69,15.38,-1.88,-1.88,-0.44,-0.018833578890191414,-0.08038855330307157,-0.13811158471403573,-58.4972102111192,-121.1734385573545,-0.4239897358038088,0.0494,-0.4886,-0.8711,-0.0037
819249.0,593.191139,1.0,0.79,-0.46,-9.76,9.56,33.25,15.38,1.25,-2.63,-0.81,-0.0034338316570130807,0.09145014399738463,0.004358172066952547,-58.484077048449976,-121.196776153626,-0.3896120513439707,0.0488,-0.4885,-0.8712,-0.0034
819281.0,593.1938150000002,1.0,0.72,-0.49,-9.84,9.56,33.25,15.38,0.19,-2.5,-0.25,0.010007698047410573,0.15772712630058075,-0.07055213418803953,-58.457813250600395,-121.22012218744959,-0.3323159869732291,0.0483,-0.4883,-0.8713,-0.0029
819318.0,593.270081,1.0,0.82,-0.45,-10.0,9.56,34.06,14.56,-1.37,-0.25,0.75,-0.001985477573830476,0.06064987626588245,-0.2368164160531645,-58.457813250600395,-121.22012218744959,-0.3552344019497601,0.048,-0.4883,-0.8713,-0.0031
819353.0,593.279982,1.0,0.8,-0.38,-9.8,9.19,33.69,15.0,-1.75,-2.38,0.31,0.03534124805942011,0.0277997901513542,-0.033186287655050606,-58.4972102111192,-121.196776153626,-0.3896120513439707,0.0472,-0.4886,-0.8712,-0.0034
819388.0,593.319181,1.0,0.83,-0.48,-9.94,9.19,33.69,15.0,1.94,-2.0,-0.75,-0.05117892400253293,0.05213153743408317,-0.17921816558994585,-58.4972102111192,-121.196776153626,-0.3323159869732291,0.0471,-0.4886,-0.8712,-0.0029
819421.0,593.33729,1.0,0.85,-0.41,-10.13,9.56,33.69,15.88,-1.56,-2.25,0.94,-0.0008241450451489349,-0.004442623003111823,-0.3672125695399373,-58.52347906562028,-121.196776153626,-0.3093975852894872,0.0462,-0.4888,-0.8712,-0.0027
819458.0,593.379377,1.0,0.74,-0.52,-9.83,10.0,33.69,15.88,2.0,-5.38,-0.5,-0.06773329645144717,0.10732746192663642,-0.06405377513519639,-58.54975129457163,-121.196776153626,-0.20626491763025406,0.0453,-0.489,-0.8712,-0.0018
819492.0,593.3986259999998,1.0,0.69,-0.41,-9.87,10.0,33.69,15.88,-2.13,-2.69,0.31,0.04137762018396124,0.08224414628381954,-0.09550248281654916,-58.54975129457163,-121.196776153626,-0.1833465726697912,0.0444,-0.489,-0.8712,-0.0016
819525.0,593.451751,1.0,0.73,-0.48,-9.97,9.56,34.38,14.56,1.63,-1.06,-0.44,-0.03369738287101918,0.08115145423619591,-0.2011708880786358,-58.54975129457163,-121.196776153626,-0.14896906869365514,0.0441,-0.489,-0.8712,-0.0013
819560.0,593.5229320000002,1.0,0.72,-0.49,-9.98,10.25,33.69,15.75,-0.81,-0.12,-0.12,-0.038794051540525086,0.09163754638831176,-0.2107846806783336,-58.54975129457163,-121.196776153626,-0.13750990383378794,0.0439,-0.489,-0.8712,-0.0012
819597.0,593.526483,1.0,0.75,-0.42,-9.88,10.69,32.88,13.88,-1.37,-0.12,0.63,-0.005506101065642709,0.02294278938225067,-0.11064516104398514,-58.57602690065555,-121.15010938852664,-0.13750990383378794,0.0437,-0.4892,-0.871,-0.0012
819630.0,593.59682,1.0,0.71,-0.41,-9.89,10.69,32.88,13.88,-1.31,-1.31,0.44,0.01462362297949921,0.05340236262793982,-0.1171211751791592,-58.60230588655673,-121.15010938852664,-0.1718874029970642,0.0433,-0.4894,-0.871,-0.0015
819666.0,593.657172,1.0,0.66,-0.41,-9.95,10.0,34.06,15.0,-0.06,-1.06,-0.06,0.04317064814659095,0.09766545493842564,-0.17306932240833284,-58.61544664777843,-121.15010938852664,-0.1718874029970642,0.0432,-0.4895,-0.871,-0.0015
819703.0,593.6601870000002,1.0,0.72,-0.39,-9.89,10.0,33.69,14.19,-1.0,-0.44,0.31,0.02393828222954534,0.030863586107668182,-0.117113116766566,-58.58916597096109,-121.1734385573545,-0.16042823504321638,0.0431,-0.4893,-0.8711,-0.0014
