TIME,ELAPSED_SECONDS,PSTATE,acc_x,acc_y,acc_z,mag_x,mag_y,mag_z,gyr_x,gyr_y,gyr_z,lin_x,lin_y,lin_z,eul_x,eul_y,eul_z,qua_w,qua_x,qua_y,qua_z
752699.0,642.930481,1.0,-4.32,1.06,-8.42,24.19,-20.75,27.06,-2.44,-4.94,1.19,-0.1943558442535641,0.3271710633834335,0.291525991292124,-141.08884000838947,-28.74204597594341,22.804986838376163,-0.10099999999999999,-0.9429,-0.2482,0.1977
752734.0,642.9440179999998,1.0,-4.18,0.98,-9.06,24.56,-22.0,27.06,0.37,0.44,1.56,0.08541459964620593,0.01674226935747497,-0.21875892146469766,-141.1232586742633,-28.71838798339577,22.816676842803346,-0.1008,-0.943,-0.248,0.1978
752771.0,642.947403,1.0,-4.14,1.07,-8.83,24.06,-21.56,25.69,-1.69,-3.0,1.12,0.09323210633425344,0.13012377900395322,-0.002925708280468342,-141.08884000838947,-28.671075748006672,22.86343926833653,-0.1013,-0.9429,-0.2476,0.1982
752805.0,642.9882650000002,1.0,-4.11,1.08,-8.87,24.06,-21.56,25.69,1.88,0.12,-1.44,0.13980424993365706,0.10914743935046124,-0.027166228107160958,-141.08884000838947,-28.671075748006672,22.898513619526447,-0.1015,-0.9429,-0.2476,0.1985
752838.0,643.004114,1.0,-4.22,1.12,-8.71,24.06,-21.19,27.5,-0.25,0.12,-1.0,0.023417560869136628,0.2449940393502386,0.0667152189798621,-141.05445058328866,-28.70655945606141,22.898513619526447,-0.1011,-0.9428,-0.2479,0.1985
752875.0,643.006733,1.0,-4.21,0.66,-8.67,23.37,-20.75,26.06,1.06,1.31,-1.63,-0.2122421568034309,-0.13343441745809242,0.14923064889418214,-141.02009032147248,-28.74204597594341,22.898513619526447,-0.1007,-0.9427,-0.2482,0.1985
752910.0,643.009541,1.0,-4.16,1.0,-8.75,24.06,-21.56,27.25,-1.5,-0.25,0.63,0.023622811831236632,0.11213638967459012,0.06729851271544263,-141.05445058328866,-28.74204597594341,22.88682192770989,-0.1008,-0.9428,-0.2482,0.1984
752945.0,643.047217,1.0,-4.11,1.0,-8.83,24.06,-21.56,27.25,-1.44,-0.88,2.69,0.09237047697849483,0.06047382684882002,0.01640942015473179,-141.08884000838947,-28.671075748006672,22.921897728102717,-0.10099999999999999,-0.9429,-0.2476,0.1987
752982.0,643.063303,1.0,-4.21,1.03,-8.66,24.06,-21.19,26.06,-0.75,-3.31,2.0,-0.020951940261127008,0.16141023715634234,0.12397951342758695,-141.08884000838947,-28.588291341239625,22.99205586322248,-0.1016,-0.9429,-0.2469,0.1993
753016.0,643.10432,1.0,-4.2,0.98,-8.6,24.5,-21.19,27.0,0.56,1.56,-0.88,-0.06088946990450132,0.12511828948335318,0.18682474763228807,-141.05445058328866,-28.60011675110229,22.98036223475966,-0.102,-0.9428,-0.247,0.1992
753049.0,643.1160769999998,1.0,-4.22,1.26,-8.7,24.5,-21.19,27.0,-0.31,-0.94,-0.19,0.09718928375279934,0.34418354944163393,0.062005731099398886,-141.05445058328866,-28.588291341239625,22.98036223475966,-0.102,-0.9428,-0.2469,0.1992
753086.0,643.125284,1.0,-4.18,1.23,-8.87,24.5,-22.0,25.75,-3.13,1.31,-0.12,0.1655517127629443,0.2518684880487596,-0.07117136379926947,-141.05445058328866,-28.61194247203445,22.95697570537593,-0.1021,-0.9428,-0.2471,0.19899999999999998
753121.0,643.1737019999998,1.0,-4.18,0.5,-9.0,24.06,-21.56,27.87,5.81,2.38,-1.81,-0.1592048926483013,-0.38486647577364586,-0.12053145285873156,-141.08884000838947,-28.6474215027532,22.93359014513587,-0.1008,-0.9429,-0.2474,0.1988
753156.0,643.214419,1.0,-4.23,0.7,-8.96,24.06,-21.56,27.87,0.12,1.75,0.25,-0.11267943228862227,-0.1800579192416914,-0.12407920239281722,-141.08884000838947,-28.6474215027532,22.921897728102717,-0.1008,-0.9429,-0.2474,0.1987
753188.0,643.2713980000002,1.0,-4.03,1.05,-9.24,24.06,-21.19,27.37,-1.44,0.44,1.56,0.307607739465995,-0.05530163075114486,-0.3236668365188322,-141.15770665873933,-28.61194247203445,22.898513619526447,-0.1013,-0.9431,-0.2471,0.1985
753225.0,643.288362,1.0,-4.21,0.83,-8.83,24.06,-21.56,27.0,3.38,-1.12,-1.25,-0.07423977732421969,-0.04375073891110332,-0.010400184668895921,-141.08884000838947,-28.63559484770936,22.921897728102717,-0.10099999999999999,-0.9429,-0.2473,0.1987
753262.0,643.330193,1.0,-4.23,1.05,-8.7,24.06,-21.56,27.0,-2.13,0.37,0.06,-0.023068021918407792,0.18995261009881986,0.07788924272564834,-141.08884000838947,-28.6474215027532,22.91020555294516,-0.1011,-0.9429,-0.2474,0.1986
753295.0,643.386403,1.0,-4.22,0.74,-8.95,24.87,-20.5,27.69,4.06,-0.44,-0.44,-0.08226527396419442,-0.14212074880198386,-0.11461675971670182,-141.08884000838947,-28.65924846946876,22.945282804181343,-0.1005,-0.9429,-0.2475,0.1989
753332.0,643.393857,1.0,-4.19,0.95,-8.92,25.25,-21.56,26.56,-0.31,-1.31,-0.63,0.045119293747498616,0.03640100153293613,-0.0939378217618536,-141.08884000838947,-28.671075748006672,22.98036223475966,-0.1003,-0.9429,-0.2476,0.1992
753367.0,643.445229,1.0,-4.09,0.7,-9.02,23.0,-21.19,26.56,0.31,-0.44,-0.63,0.034260574995419985,-0.2476282732628757,-0.11887298124798028,-141.02009032147248,-28.69473124115229,22.99205586322248,-0.1002,-0.9427,-0.2478,0.1993
753403.0,643.46375,1.0,-4.17,0.74,-8.86,23.0,-21.19,26.56,3.63,-2.88,2.06,-0.04632077327488328,-0.13493099707393524,-0.012502102498048728,-141.02009032147248,-28.6474215027532,23.08561363949995,-0.1,-0.9427,-0.2474,0.2001
753438.0,643.54378,1.0,-4.18,1.15,-8.95,25.25,-21.56,26.19,-2.06,-1.12,1.25,0.1856999842037204,0.1878597404746012,-0.13455838901265338,-141.05445058328866,-28.576466242296,23.12070182440919,-0.1002,-0.9428,-0.2468,0.2004
753475.0,643.556651,1.0,-4.15,1.07,-8.66,22.69,-21.19,27.06,-0.12,-0.37,-0.88,0.07774271202463677,0.18733512003454994,0.14632590484001007,-141.02009032147248,-28.588291341239625,23.144095168471857,-0.1003,-0.9427,-0.2469,0.2006
753508.0,643.559858,1.0,-4.28,0.7,-8.46,22.69,-21.19,27.06,5.88,-0.88,-0.44,-0.2633723093579325,-0.0022236083321386935,0.30345947879979285,-141.02009032147248,-28.588291341239625,23.21428107252436,-0.0993,-0.9427,-0.2469,0.2012
753543.0,643.638571,1.0,-4.25,0.79,-8.96,25.25,-21.19,27.06,3.94,3.25,0.94,-0.02847542365574698,-0.06024792587370936,-0.14140304256443592,-141.08884000838947,-28.552816976564145,23.190884791431426,-0.0982,-0.9429,-0.2466,0.201
753577.0,643.741037,1.0,-4.04,0.92,-9.16,24.87,-21.19,27.0,0.81,1.19,0.69,0.2624051268155204,-0.08946808093141179,-0.2430633795902555,-141.19218403998903,-28.51734540609927,23.144095168471857,-0.098,-0.9432,-0.2463,0.2006
753614.0,643.843253,1.0,-4.16,1.0,-8.52,23.37,-20.75,26.19,4.56,-3.88,1.75,0.02269111955143266,0.2242854343799212,0.2753761524485352,-141.19218403998903,-28.422768181257144,23.296175790566195,-0.0968,-0.9432,-0.2455,0.2019
753647.0,643.846899,1.0,-4.09,0.6,-7.91,23.37,-20.75,26.19,8.38,-0.19,1.63,-0.309484557812143,0.041059812071973234,0.8870797524875975,-141.26122730722247,-28.328210720644154,23.37808257553645,-0.0953,-0.9434,-0.2447,0.2026
753684.0,643.900667,1.0,-3.92,0.49,-7.37,24.5,-22.0,28.06,10.88,7.94,-0.25,-0.4129577932902625,0.07144922296797984,1.4551375100675266,-141.5038163967487,-28.21004157144473,23.296175790566195,-0.0923,-0.9441,-0.2437,0.2019
753719.0,643.955019,1.0,-3.37,0.45,-7.01,23.75,-21.56,26.06,3.94,15.69,1.0,-0.14291281207268516,-0.0465228433551485,2.017111403061693,-141.78287468010964,-28.18641141984425,23.003749734381753,-0.0895,-0.9449,-0.2435,0.1994
753754.0,643.9579209999997,1.0,-3.05,0.18,-6.88,23.75,-21.56,26.06,4.88,22.44,6.56,-0.14810968620349202,-0.3164513345340258,2.2868613012582357,-142.45363711540872,-28.068278987313843,22.267504416511226,-0.0865,-0.9468,-0.2425,0.1931
753788.0,643.996034,1.0,-3.14,0.74,-6.35,24.06,-20.75,27.69,3.69,27.56,11.25,-0.2021030854233208,0.3848964098457311,2.6974510931926887,-143.13615512462272,-27.80849455068797,21.555518290408006,-0.0847,-0.9487,-0.2403,0.187
753825.0,644.01211,1.0,-2.17,0.38,-6.53,23.37,-20.5,26.56,1.69,44.88,7.88,0.3140374920699062,-0.29918566913890976,2.9287092915498043,-144.27673180622273,-27.57245336826063,20.14567756040377,-0.0812,-0.9518,-0.2383,0.1749
753860.0,644.0149349999998,1.0,-2.39,0.06,-5.92,23.37,-20.5,26.56,0.5,52.38,6.69,-0.3474264544283916,-0.2706031057327539,3.4373353729831253,-145.2612378633091,-27.48986718541275,18.72729753587516,-0.0786,-0.9544,-0.2376,0.1627
753893.0,644.01783,1.0,-2.21,0.85,-6.07,23.0,-20.06,29.06,-6.0,70.75,10.69,-0.04643481969359993,0.41002292166902776,3.3042485196832088,-146.79094642726758,-27.3719121623715,16.234582036054892,-0.076,-0.9583,-0.2366,0.1412
753930.0,644.067564,1.0,-0.94,0.25,-8.28,21.19,-20.75,28.69,2.69,76.81,11.44,0.8926322999619716,-0.932775588823658,1.570289318366436,-148.5189029496625,-27.14787893324093,13.380300633180664,-0.0696,-0.9625,-0.2347,0.1165
753965.0,644.149006,1.0,-1.2,-0.16,-8.0,18.56,-20.06,29.75,0.94,84.12,12.06,0.12829535194420166,-0.9603734202882024,1.7737910322181405,-149.81204156148604,-26.994654003838164,11.052294827398207,-0.0638,-0.9655,-0.2334,0.0963
753999.0,644.155822,1.0,-0.65,-1.18,-9.38,18.56,-20.06,29.75,11.44,95.62,18.19,-0.13203180588768254,-2.0328880948304797,0.5519628850225029,-151.6255402012684,-26.52349964582953,7.6259663887868285,-0.054000000000000006,-0.9695,-0.2294,0.0665
754036.0,644.200054,1.0,0.28,0.55,-11.36,16.25,-20.06,31.37,-7.88,102.62,26.81,1.1573850075420342,-0.9248735437472522,-1.4732245060569422,-153.01476916887475,-25.93519704664329,4.745446786894516,-0.0491,-0.9724,-0.2244,0.0414
754073.0,644.276773,1.0,0.5,0.28,-11.61,13.25,-19.69,31.37,8.69,92.5,24.12,0.5925202802815683,-0.9295879737096214,-1.7650951543226403,-154.3228637180319,-25.183180957237052,1.1459346897143057,-0.0406,-0.975,-0.218,0.01
754108.0,644.392511,1.0,0.3,-0.92,-11.95,13.25,-19.69,31.37,13.81,85.25,31.19,-0.5180322713890286,-1.6455759309636804,-2.057692477408194,-155.214797761141,-24.49089212710032,-1.2261530793833222,-0.0317,-0.9767,-0.2121,-0.0107
754141.0,644.442498,1.0,0.63,-1.67,-13.71,11.25,-19.37,32.88,12.0,82.56,38.81,-1.2091835456889275,-2.172952195965993,-3.7935725682847465,-156.19500732541925,-23.284475807440252,-4.298191253728037,-0.0223,-0.9785,-0.2018,-0.0375
754178.0,644.520522,1.0,0.59,-0.76,-14.15,8.38,-18.87,33.38,6.19,63.06,48.0,-1.3396675609594757,-1.0996852187302617,-4.269719675659237,-156.87120131517742,-22.185757394813148,-6.225383461526625,-0.0169,-0.9797,-0.1924,-0.0543
754214.0,644.523775,1.0,0.88,-0.14,-14.97,5.25,-19.19,32.56,4.81,48.0,57.0,-1.3732969579922256,-0.3716560356784807,-5.122208873213086,-158.16444882979192,-20.192233442293944,-8.142851840335263,-0.0105,-0.9819,-0.1753,-0.071
754247.0,644.563024,1.0,1.38,0.78,-16.08,5.25,-19.19,32.56,12.25,27.56,56.25,-0.991643287927533,0.5265767243875552,-6.312238315973947,-159.3455716366145,-18.541499822002773,-9.06217605835773,-0.0058,-0.9838,-0.1611,-0.079
754284.0,644.5778849999998,1.0,1.41,0.47,-15.69,2.88,-18.06,34.0,13.75,-1.44,46.0,-1.0592596503942755,0.4271457704677057,-5.9121481564691605,-160.59764077497127,-16.940979741891212,-9.372576979838527,0.0003,-0.9857,-0.1473,-0.0817
754319.0,644.580393,1.0,1.31,1.39,-15.69,1.75,-18.87,34.38,9.06,-16.94,51.31,-0.7865111860296535,1.4319918302092975,-5.914517245229094,-161.86255690793462,-15.725436142775802,-8.970218312913039,0.0036,-0.9875,-0.1368,-0.0782
754354.0,644.614474,1.0,1.16,1.41,-16.03,1.75,-18.87,34.38,18.31,-44.94,41.44,-0.61336256483473,1.6177826961316666,-6.233959885916322,-163.94405112777469,-14.049721543626418,-7.602997386301143,0.0085,-0.9902,-0.1223,-0.0663
754388.0,644.631143,1.0,0.91,2.84,-15.11,2.75,-18.5,34.0,11.69,-63.19,37.69,0.04562415995646885,3.0505831319408934,-5.289629706972376,-165.31507383873742,-13.380300633180664,-5.8581800447136345,0.0106,-0.9918,-0.1165,-0.0511
754425.0,644.671767,1.0,1.17,1.36,-14.28,3.56,-18.75,34.75,37.88,-83.37,16.12,0.8182387247703714,1.6503080078336905,-4.467237657837515,-166.53078742603913,-13.034229810442689,-2.7733864743736323,0.018000000000000002,-0.9931,-0.1135,-0.0242
754460.0,644.690416,1.0,0.88,2.04,-12.93,3.56,-18.75,34.75,19.44,-99.69,22.0,1.3728801437742315,2.3552249143335544,-3.026471822601584,-167.23302195249303,-12.526874248925028,0.04583662483277591,0.0217,-0.9938,-0.1091,0.0004
754495.0,644.693679,1.0,0.5,2.53,-11.32,7.0,-18.75,33.5,19.62,-104.5,7.94,1.8719468844470697,2.8040183264519465,-1.3031022963714438,-167.02852064224476,-12.00824269100582,4.11472114096103,0.0232,-0.9936,-0.1046,0.0359
754530.0,644.734376,1.0,-0.27,0.7,-9.17,8.5,-17.87,33.88,29.5,-100.62,-2.5,1.2194158839906497,1.1371587187436936,0.7583520965124926,-165.04848521846108,-12.134996086138985,8.073924421552888,0.0293,-0.9915,-0.1057,0.0704
754567.0,644.74222,1.0,-1.0,-0.1,-7.28,10.25,-17.75,33.5,23.5,-92.87,-4.44,0.4279472848438627,0.4460882498609836,2.483654274565586,-163.22171672296716,-12.296340166976414,10.810553401892458,0.0328,-0.9893,-0.1071,0.0942
754599.0,644.754741,1.0,-1.21,0.06,-6.47,10.25,-17.75,33.5,15.81,-76.19,-2.75,0.4642567279656376,0.6130186994247337,3.2692748566650063,-160.80272323312002,-12.457708722341447,13.93427040697098,0.0357,-0.986,-0.1085,0.1213
754636.0,644.792357,1.0,-1.21,-0.33,-6.64,12.5,-16.37,33.5,12.0,-61.88,-1.69,0.6512594954514485,0.24828430909528004,3.0852799036995884,-159.2817477883131,-12.561458728935325,15.82955387412607,0.038,-0.9837,-0.1094,0.1377
754673.0,644.84777,1.0,-1.56,0.04,-5.84,12.88,-17.87,33.75,13.5,-54.31,-0.88,0.4090963658100517,0.6554407200661381,3.8113320246161932,-157.44996317553057,-12.630631138714767,18.03080801097451,0.0403,-0.9807,-0.11,0.1567
754708.0,644.920076,1.0,-1.86,-1.21,-6.24,12.88,-17.87,33.75,12.69,-38.94,-3.56,0.15314957003436708,-0.43729990950123415,3.2000915919975035,-156.25063177900063,-12.757459245108164,19.296614397760404,0.0441,-0.9786,-0.1111,0.1676
754741.0,644.928699,1.0,-2.31,-0.73,-6.28,14.75,-16.06,33.06,10.0,-31.87,-5.56,0.003998106319382404,0.13888926017920822,3.0770070831319187,-155.05511767406654,-12.965030073382625,20.599742008899195,0.0452,-0.9764,-0.1129,0.1788
754778.0,644.971672,1.0,-2.73,-1.39,-5.45,15.5,-18.06,33.69,8.5,-17.25,-5.75,-0.7385596809877136,-0.4174937748882093,3.612481085161712,-154.37448496866145,-13.045763563399612,21.25230621784773,0.0476,-0.9751,-0.1136,0.1844
754812.0,645.078552,1.0,-2.46,-1.02,-6.7,15.5,-18.06,33.69,-1.19,-5.88,-1.12,0.08078812746852346,-0.061540342180674175,2.5975109345675387,-154.0662728728033,-13.126503557539667,21.543853477197022,0.0476,-0.9745,-0.1143,0.1869
754847.0,645.174616,1.0,-2.76,-1.08,-7.18,16.37,-17.0,34.06,-8.81,-1.56,1.88,-0.014532817560814225,-0.045927480673979885,2.0391485057141647,-154.0662728728033,-13.126503557539667,21.625511921173292,0.0462,-0.9745,-0.1143,0.1876
754882.0,645.279402,1.0,-3.06,-1.06,-7.28,17.06,-16.69,33.5,-5.5,2.19,-1.94,-0.2652819680257123,0.014877100139780719,1.8432961745485723,-154.16860854190614,-13.230321745568984,21.50886039245491,0.0436,-0.9747,-0.1152,0.1866
754919.0,645.290656,1.0,-3.47,-1.62,-7.48,16.25,-17.75,33.19,4.25,14.19,-7.69,-0.7279543294017153,-0.4029482760224159,1.444627805509251,-154.3228637180319,-13.437990937987554,21.170698001897183,0.0439,-0.975,-0.11699999999999999,0.1837
754952.0,645.2936070000002,1.0,-3.33,-1.76,-9.08,16.25,-17.75,33.19,-7.88,16.31,-1.19,-0.14956402771169455,-0.5078791888670473,-0.009285479165010102,-154.84376268843482,-13.51876311679545,20.55315637010219,0.043,-0.976,-0.1177,0.1784
754989.0,645.296381,1.0,-3.4,-0.93,-9.5,15.5,-17.06,33.38,-12.06,1.69,1.44,0.07758391599163911,0.27543449729388525,-0.322171085085861,-155.0021140741398,-13.541842119876778,20.378490735265764,0.04,-0.9763,-0.1179,0.1769
755025.0,645.299313,1.0,-3.72,-1.83,-9.01,15.56,-18.19,32.19,-1.0,3.69,-0.19,-0.6011141474015075,-0.5353609596591062,-0.07866488748166489,-155.05511767406654,-13.611082444309169,20.27371434520358,0.0398,-0.9764,-0.1185,0.17600000000000002
755058.0,645.302184,1.0,-3.5,-0.86,-9.13,15.56,-18.19,32.19,-4.0,6.19,0.56,-0.18140594838424912,0.34129357475190786,-0.0013625702266466533,-155.214797761141,-13.622622983127284,20.087487431641744,0.0389,-0.9767,-0.1186,0.1744
755093.0,645.30536,1.0,-3.49,-1.18,-9.84,16.37,-18.06,31.69,-2.25,4.5,-4.06,-0.035344298547716146,0.05139603726721775,-0.7002148619801609,-155.32181611488016,-13.738036026791262,19.8664125287693,0.0384,-0.9769,-0.1196,0.1725
755128.0,645.346825,1.0,-3.45,-1.59,-9.54,14.88,-17.37,33.06,0.81,-0.88,-0.12,-0.193376487413518,-0.35928310561052224,-0.4537457615746181,-155.48320588867858,-13.507223821905177,19.84314584545369,0.0391,-0.9772,-0.1176,0.1723
755165.0,645.3642570000002,1.0,-3.39,-1.54,-9.56,16.0,-17.75,33.88,-4.69,-2.69,3.5,-0.10803139767873304,-0.3561009340864472,-0.4460970144278065,-155.5372354443148,-13.334150842815475,19.92458285893285,0.0379,-0.9773,-0.1161,0.17300000000000001
755200.0,645.405008,1.0,-3.42,-1.74,-9.3,16.0,-17.75,33.88,-1.37,-3.81,0.88,-0.25953582241009154,-0.5625918474292321,-0.23477079439419235,-155.48320588867858,-13.334150842815475,19.982758376303032,0.0374,-0.9772,-0.1161,0.1735
755236.0,645.468291,1.0,-3.42,-0.94,-9.02,15.56,-18.56,33.75,-5.44,-3.19,3.31,-0.17746722678082805,0.15254707092767572,0.11719001635952607,-155.6456486519571,-13.06883146764636,20.064212846329454,0.0352,-0.9775,-0.1138,0.1742
755271.0,645.481255,1.0,-3.57,-0.99,-8.77,15.25,-17.75,32.56,-1.81,-0.63,1.81,-0.4053979692690807,0.11514780172820473,0.2955883626080045,-155.70003388404493,-12.88430304585338,20.11076285425295,0.0347,-0.9776,-0.1122,0.1746
755306.0,645.495597,1.0,-3.5,-1.26,-8.93,15.25,-17.75,32.56,-2.88,-2.44,2.44,-0.3289027334067412,-0.17333261712722647,0.13999190137059792,-155.6456486519571,-12.838176201349,20.192233442293944,0.0341,-0.9775,-0.1118,0.1753
755341.0,645.499278,1.0,-3.43,-0.49,-9.07,16.0,-18.87,33.69,-5.81,0.0,4.44,-0.05743911504529783,0.531066180377476,0.11208608716090572,-155.80916562137492,-12.607573156584115,20.21551264575777,0.0328,-0.9778,-0.1098,0.1755
755378.0,645.543735,1.0,-3.32,-0.71,-9.14,15.25,-18.87,34.19,-1.63,-1.81,0.75,0.027260540527005224,0.293963137269287,0.06093594012439851,-155.91878451766874,-12.307865676783145,20.23879269230359,0.0333,-0.978,-0.1072,0.1757
755412.0,645.6565820000002,1.0,-3.4,-0.94,-9.08,15.25,-18.87,34.19,0.75,-3.5,0.37,-0.1009753089355656,0.08274024415554583,0.06637495054772735,-155.8639137604186,-12.307865676783145,20.308637900960072,0.0332,-0.9779,-0.1072,0.1763
