TIME,ELAPSED_SECONDS,PSTATE,acc_x,acc_y,acc_z,mag_x,mag_y,mag_z,gyr_x,gyr_y,gyr_z,lin_x,lin_y,lin_z,eul_x,eul_y,eul_z,qua_w,qua_x,qua_y,qua_z
2862020.0,1837.4777149999998,1.0,4.46,3.7,-7.74,-18.0,-26.5,24.56,0.44,0.44,0.06,0.04414633021221552,-0.08866829993701164,0.13817602350737698,-142.77543036661098,3.919795697049856,-26.982869511205863,-0.2151,-0.9477,0.0342,-0.2333
2862055.0,1837.525661,1.0,4.41,3.68,-7.76,-18.0,-26.5,24.56,1.19,-0.63,0.0,-0.003216361999055645,-0.10428494672665024,0.15277956867030795,-142.81135091208287,3.908329853329541,-26.97108530932781,-0.2146,-0.9478,0.0341,-0.2332
2862092.0,1837.5861940000002,1.0,4.42,3.66,-7.84,-17.69,-26.75,25.87,1.12,0.88,-0.37,-0.02507003302494541,-0.14878093719720087,0.09197884106873566,-142.84730495776557,3.908329853329541,-26.97108530932781,-0.2142,-0.9479,0.0341,-0.2332
2862129.0,1837.5997719999998,1.0,4.5,3.8,-7.72,-16.5,-27.19,25.0,0.12,-0.25,-1.31,0.07631351469868168,0.028087816785444808,0.09676908816475027,-142.88329260111254,3.862466868736162,-26.97108530932781,-0.214,-0.948,0.0337,-0.2332
2862161.0,1837.657893,1.0,4.09,3.82,-7.65,-16.5,-27.19,25.0,2.81,-1.5,-0.63,-0.25073480695556105,0.10118646249906148,0.3319524662320781,-142.95536907296346,3.82807003686826,-26.912168656137837,-0.2134,-0.9482,0.0334,-0.2327
2862196.0,1837.671393,1.0,4.16,4.82,-7.49,-17.69,-26.75,25.0,5.88,2.25,0.44,-0.2889697835259569,1.109253916245739,0.04324115813014552,-143.09992952909138,3.7707427489739196,-26.982869511205863,-0.2114,-0.9486,0.0329,-0.2333
2862233.0,1837.7109050000001,1.0,4.61,2.61,-7.9,-17.25,-26.75,25.0,84.44,22.44,21.37,0.19625145719200326,-0.8166251619185559,0.3320097054837205,-143.86802831777294,3.564372225995784,-27.57245336826063,-0.1961,-0.9507,0.0311,-0.2383
2862268.0,1837.7266300000001,1.0,4.57,2.53,-8.05,-17.25,-26.75,25.0,35.13,9.81,9.19,0.0033737717982043336,-0.6524879862963107,0.2325940128332817,-144.50157885257724,3.851001219583861,-28.15096848573949,-0.1807,-0.9524,0.0336,-0.2432
2862303.0,1837.773727,1.0,4.44,3.04,-7.9,-18.75,-26.06,24.56,29.62,12.94,9.5,-0.1774367589148994,-0.020400441561523097,0.2498042850912423,-144.61452078820068,3.8395356089996175,-28.505522169511824,-0.1752,-0.9527,0.0335,-0.2462
2862338.0,1837.79227,1.0,4.99,2.54,-7.99,-19.56,-25.69,26.69,25.19,5.5,12.31,0.2632047941801983,-0.3419175112789448,0.05956758258906625,-144.87941908090357,4.137654318321577,-28.90768703373302,-0.1656,-0.9534,0.0361,-0.2496
2862374.0,1837.8363510000001,1.0,4.93,2.05,-8.08,-18.75,-24.19,27.87,24.31,3.63,10.13,0.22185550068111148,-0.7093562708357393,0.15049166358879518,-145.18454955392758,4.240855681461491,-29.014203146635065,-0.1592,-0.9542,0.037000000000000005,-0.2505
2862407.0,1837.897538,1.0,4.92,2.63,-7.96,-18.75,-24.19,27.87,0.12,6.81,2.38,0.13239001995286898,-0.08060760757991893,0.08755151833941532,-145.06982302382067,4.309658496908005,-29.2983716924918,-0.157,-0.9539,0.0376,-0.2529
2862444.0,1837.9158670000002,1.0,5.0,1.52,-8.32,-20.69,-23.56,27.87,4.38,4.75,12.56,0.16016796003665365,-1.2118703097580148,0.057879996717295164,-144.9174197897038,4.71104003397371,-29.511618949559608,-0.1559,-0.9535,0.0411,-0.2547
2862481.0,1837.961445,1.0,4.98,2.03,-8.03,-20.69,-23.19,26.69,-48.75,-1.75,4.25,0.1910485015699136,-0.7491554970769181,0.173142512524457,-144.27673180622273,5.617235753841245,-29.487919662093987,-0.1641,-0.9518,0.049,-0.2545
2862514.0,1837.981531,1.0,5.14,2.63,-8.12,-20.69,-23.19,26.69,-60.06,-12.5,2.06,0.22490889811884696,-0.4479484933491593,-0.144212180477286,-143.53692935464713,6.11062569758793,-29.17994585204534,-0.1776,-0.9498,0.0533,-0.2519
2862548.0,1838.0290760000007,1.0,4.36,2.8,-7.68,-21.0,-23.19,27.5,-60.44,-22.19,5.06,-0.15751558327934376,-0.4419248517532069,0.5539805869912797,-142.6678687639012,7.212570385921347,-28.24548909512887,-0.19699999999999998,-0.9474,0.0629,-0.244
2862583.0,1838.047389,1.0,4.82,4.35,-7.83,-19.87,-24.69,25.0,-65.56,-27.25,-3.75,-0.06344571722475642,0.6411867154817471,-0.3446383042919994,-141.85294621850556,8.004999928704901,-27.4544775660039,-0.2134,-0.9451,0.0698,-0.2373
2862622.0,1838.0875620000002,1.0,4.3,3.82,-7.58,-19.19,-25.75,26.25,-28.44,-53.44,9.25,-0.0472833339993132,0.10514354656154068,0.2921605696131841,-141.9934624116977,8.866772764864926,-25.735333308776628,-0.2247,-0.9455,0.0773,-0.2227
2862655.0,1838.159278,1.0,3.66,4.69,-7.41,-19.19,-25.75,26.25,-41.88,-62.5,3.69,-0.4542502821330162,0.8030205313640124,0.34892222281218466,-142.45363711540872,9.91307033213892,-23.40148673707778,-0.2346,-0.9468,0.0864,-0.2028
2862694.0,1838.178311,1.0,3.37,4.31,-7.45,-17.69,-26.56,25.0,-1.37,-28.56,6.38,-0.47782736597466996,0.42374207538541664,0.5856075609981168,-142.84730495776557,10.338720083250598,-22.279183498407725,-0.2366,-0.9479,0.0901,-0.1932
2862729.0,1838.218223,1.0,4.41,4.41,-8.16,-15.75,-26.75,24.69,6.81,-14.25,0.56,0.30249722600107776,0.3208897548606417,-0.4543112217124747,-143.42720670361226,10.419264327291232,-21.71884947041321,-0.23399999999999999,-0.9495,0.0908,-0.1884
2862764.0,1838.2246519999999,1.0,3.13,3.18,-7.61,-15.75,-26.75,24.69,31.12,-21.37,9.38,-0.29603581576546656,-0.4477684052750277,1.0013523757841352,-144.388983618951,10.62640189942489,-21.12406961438943,-0.2264,-0.9521,0.0926,-0.1833
2862798.0,1838.2891809999999,1.0,3.47,3.27,-7.94,-16.19,-26.75,26.25,7.63,2.06,3.06,-0.11851315227958795,-0.4152513217801328,0.5551138587693654,-144.72781275910324,10.660928195342473,-21.147383365420364,-0.2224,-0.953,0.0929,-0.1835
2862833.0,1838.3080699999998,1.0,4.31,3.66,-8.15,-15.88,-25.69,25.87,3.06,13.69,0.25,0.42742508823538666,-0.1042666335460527,-0.10297341681438256,-144.50157885257724,10.580368342525214,-21.50886039245491,-0.2227,-0.9524,0.0922,-0.1866
2862870.0,1838.3567260000002,1.0,3.81,3.54,-7.95,-16.25,-25.69,25.87,2.44,7.56,-0.12,0.010419543794076336,-0.1635347047673712,0.3080528491864225,-144.3515283507124,10.499813733449363,-21.85888316581779,-0.2221,-0.9520000000000001,0.0915,-0.1896
2862903.0,1838.375232,1.0,3.88,3.36,-8.02,-16.25,-25.69,25.87,-2.13,17.0,2.69,0.033675652357615354,-0.3667931996786269,0.2919913776894845,-144.05324557319378,10.453784866884499,-22.267504416511226,-0.2225,-0.9512,0.0911,-0.1931
2862940.0,1838.417395,1.0,4.25,3.95,-7.75,-17.0,-25.69,26.69,-6.81,26.0,-2.0,0.17901016276670298,0.2197639506123854,0.12950376944021258,-143.2814024718206,10.315708384533187,-23.097309457161245,-0.226,-0.9491,0.0899,-0.2002
2862974.0,1838.437959,1.0,4.19,3.46,-7.82,-16.56,-26.5,25.5,4.81,36.13,0.56,0.0846028814749884,-0.2781150241287538,0.2884782014979326,-142.73954322436268,10.05110359058591,-24.04549296367276,-0.2259,-0.9476,0.0876,-0.2083
2863009.0,1838.4859969999998,1.0,4.02,3.32,-7.28,-16.56,-26.5,25.5,-10.13,49.88,2.31,-0.09740367143818132,-0.2633680105536911,0.8566583901822948,-141.3650146581067,9.752049739225924,-25.817620461905193,-0.2289,-0.9437,0.085,-0.2234
2863044.0,1838.505639,1.0,5.53,4.15,-7.92,-17.37,-26.5,25.87,-16.81,52.5,-3.31,0.5175501922083753,0.08868220128892501,-0.6935441537154254,-139.9355135446495,9.349581983346614,-27.407295558849807,-0.2339,-0.9395,0.0815,-0.2369
2863081.0,1838.566668,1.0,4.5,4.39,-7.17,-19.25,-26.5,24.56,19.0,32.13,7.94,-0.3201334543869995,0.6085536920361596,0.2956996281764024,-139.2059212883253,9.165635515674056,-28.588291341239625,-0.2325,-0.9373,0.0799,-0.2469
2863116.0,1838.570087,1.0,4.79,3.3,-6.46,-19.25,-26.5,24.56,34.75,150.13,14.5,0.0756581465233182,0.011593992345930726,1.1141335965523669,-137.46590815068691,8.522006076442151,-31.769115255908964,-0.2261,-0.9319,0.0743,-0.2737
2863151.0,1838.6076870000002,1.0,6.84,3.18,-7.53,-20.37,-26.5,23.75,-1.69,96.19,1.06,0.4103092716944481,-0.7440231961871315,-0.8177076645883421,-133.58972143720712,7.5340922105741654,-36.92694357562125,-0.2249,-0.9191,0.0657,-0.3167
2863185.0,1838.6654079999998,1.0,6.2,3.28,-6.9,-23.37,-25.69,22.56,4.19,49.31,8.56,-0.13207229075245894,-0.4195761650055589,-0.02263851706849884,-131.7904095910964,7.442222882076424,-39.07211278567739,-0.2254,-0.9128,0.0649,-0.3344
2863222.0,1838.6810239999998,1.0,5.79,4.03,-5.9,-26.0,-26.06,21.69,7.0,61.63,13.88,-0.3007598286587336,0.7119979483651058,0.6427205782405192,-130.57034285366944,7.683390239501281,-40.510130890629796,-0.2245,-0.9084,0.067,-0.3462
2863257.0,1838.722682,1.0,7.1,2.95,-6.44,-26.0,-26.06,21.69,24.62,79.19,15.31,0.14395704665067385,-0.5199894352976386,-0.20808850661605927,-128.4213907260083,7.247016388579905,-43.591628016640854,-0.2177,-0.9004,0.0632,-0.3713
2863294.0,1838.779538,1.0,6.86,3.49,-6.06,-27.37,-25.69,21.0,-7.5,43.69,9.13,-0.1850794539381595,0.09872711381726984,0.012810173214630185,-127.068261462492,7.247016388579905,-45.10129990098643,-0.2181,-0.8952,0.0632,-0.3835
2863331.0,1838.7994210000002,1.0,7.22,3.29,-5.89,-29.69,-24.69,19.37,4.81,27.06,13.88,0.015324682520267948,-0.03004221061784085,-0.07482067089139299,-125.92268154117136,7.648935698119245,-46.29505700445262,-0.2181,-0.8907,0.0667,-0.3931
2863364.0,1838.8602829999998,1.0,6.75,3.5,-5.54,-29.69,-24.69,19.37,2.94,83.62,-9.69,-0.3666191558843999,0.2378929363905691,0.40914515321465217,-124.47843555677237,7.097755072388746,-47.92015436839679,-0.2197,-0.8849,0.0619,-0.4061
2863398.0,1838.9009429999999,1.0,7.45,3.21,-5.59,-29.87,-25.06,19.0,14.19,61.81,7.56,-0.2717902564939137,-0.163630150962087,-0.0398750332374167,-122.3033398527211,6.4778727055513645,-50.554645415086966,-0.2177,-0.8759,0.0565,-0.4270000000000001
2863435.0,1838.908375,1.0,7.77,3.4,-5.1,-31.06,-25.37,16.87,-0.81,18.5,0.0,0.09611371914523324,0.16184844117119668,-0.08817022247410478,-121.54785831198568,6.4778727055513645,-51.34162455414572,-0.2181,-0.8727,0.0565,-0.4332
2863470.0,1838.9679609999998,1.0,7.05,3.4,-4.97,-31.06,-24.69,16.19,9.0,6.0,5.63,-0.3055338418613473,0.3147330942946265,0.5453870110317478,-121.3603761475579,6.4778727055513645,-51.68515222063561,-0.2158,-0.8719,0.0565,-0.4359
2863505.0,1838.986461,1.0,7.2,3.76,-5.04,-31.06,-24.69,16.19,25.0,18.06,17.69,-0.4541079856183452,0.6726923772233815,0.281920560114413,-121.10347629286508,6.48935022815341,-52.258810985064926,-0.2108,-0.8708,0.0566,-0.4404
2863540.0,1839.0337690000001,1.0,8.34,3.23,-4.8,-31.37,-25.06,17.0,22.87,9.44,5.31,0.44305227483444576,0.3730028245072967,-0.3271091038406677,-121.01031078825766,6.351624225020216,-53.089928878816565,-0.1991,-0.8704,0.0554,-0.4469
2863575.0,1839.0402829999998,1.0,7.3,1.73,-4.81,-32.88,-24.25,15.38,83.69,21.81,14.06,0.17400725501653486,-0.812734461932574,0.9337595932842272,-121.1734385573545,5.754915093896803,-53.525866533741606,-0.1893,-0.8711,0.0502,-0.4503
2863609.0,1839.097923,1.0,7.99,1.32,-5.2,-32.88,-24.25,15.38,26.25,19.0,13.0,0.2088919168651857,-1.1831421276544347,0.2578784102698428,-120.94052444578816,5.491036825631306,-54.593609797684756,-0.1743,-0.8701,0.0479,-0.4586
2863646.0,1839.117393,1.0,8.48,4.23,-4.83,-33.25,-22.75,16.19,17.5,-0.75,-8.38,0.09192600403294557,1.5944501742751762,-0.7091228318719587,-120.96377821929032,5.181303758795194,-54.58071505177939,-0.1747,-0.8702,0.0452,-0.4585
2863683.0,1839.164307,1.0,7.74,0.43,-5.0,-35.06,-22.37,17.06,65.94,7.5,32.63,0.4098872375321441,-1.6984528995650292,0.7490702901400095,-121.73589034408552,4.733977821845079,-54.670994009622966,-0.1562,-0.8735,0.0413,-0.4592
2863718.0,1839.1840789999999,1.0,7.89,2.37,-4.92,-35.06,-22.37,17.06,-8.06,-1.37,-13.75,0.1211978625003972,0.1664566612283267,0.21326669388437305,-121.6418052604753,4.825730880475589,-54.774215005307816,-0.1558,-0.8731,0.0421,-0.46
2863751.0,1839.233145,1.0,8.3,2.78,-5.02,-34.06,-22.37,18.25,21.69,-3.56,10.63,0.2030460358526112,0.5076959157574765,-0.2690543011616633,-121.75943327756428,4.6192907619204595,-54.74840524433751,-0.1542,-0.8736,0.0403,-0.4598
2863788.0,1839.2518329999998,1.0,7.75,1.29,-5.14,-33.56,-22.37,17.87,6.0,-31.5,10.31,0.1974198680429136,-0.799030111081497,0.4541756601642035,-122.46980875996977,4.837200229263812,-54.18134776958782,-0.1495,-0.8766,0.0422,-0.4554
2863824.0,1839.2966390000001,1.0,7.63,2.85,-5.2,-33.19,-22.06,17.87,-20.81,-28.19,-5.94,-0.08600223570516523,0.6553580850538903,0.1659804487806369,-123.33299743586115,5.307486603594608,-53.06431134668802,-0.1537,-0.8802,0.0463,-0.4467
2863857.0,1839.3536510000001,1.0,7.82,2.72,-5.51,-33.19,-22.06,17.87,1.56,-28.31,3.56,-0.002095405674111893,0.4619912526308117,-0.12800951564358876,-124.35555059912924,5.571344453661866,-51.93993891277072,-0.1539,-0.8844,0.0486,-0.4379
2863894.0,1839.371281,1.0,7.31,2.38,-5.72,-32.75,-21.69,17.87,6.44,-37.38,5.88,-0.2521266587696964,0.1718841617378606,0.2292919100630204,-125.29584795913513,5.9614497572311125,-50.98589564550729,-0.1522,-0.8882,0.052000000000000005,-0.4304
2863931.0,1839.4201480000002,1.0,6.76,1.8,-5.66,-32.5,-21.69,19.06,10.31,-40.81,4.75,-0.2054521527646569,-0.22310510686124066,0.8132516698793566,-126.78612125881504,6.294241112432486,-49.555559524438046,-0.14800000000000002,-0.8941,0.0549,-0.4191
2863966.0,1839.432934,1.0,8.28,2.57,-5.77,-32.5,-21.69,19.06,-9.31,2.69,-2.44,0.5291516992454424,0.4180428076384191,-0.585724064195702,-126.81171301116377,6.340147475413157,-49.492462296741046,-0.1492,-0.8942,0.0553,-0.4186
2863998.0,1839.4852399999997,1.0,7.08,1.93,-5.94,-32.5,-21.25,20.25,14.5,-5.13,1.25,-0.1981616240216792,-0.16776484707523764,0.3690927457709723,-127.04255474483057,6.351624225020216,-49.32848435315842,-0.1469,-0.8951,0.0554,-0.4173
2864035.0,1839.502682,1.0,8.02,2.27,-5.87,-32.5,-22.06,21.56,-8.13,4.25,-3.38,0.3570516997023592,0.14179902466930194,-0.3807248885737256,-126.88855686312144,6.317194167065648,-49.492462296741046,-0.1473,-0.8945,0.0551,-0.4186
2864070.0,1839.546238,1.0,6.92,2.45,-6.01,-32.5,-22.06,21.56,9.38,-11.56,0.06,-0.4362568342313514,0.3222069359488993,0.3348569984076999,-127.24853393391231,6.3975318623814825,-49.126813106735106,-0.1465,-0.8959,0.0558,-0.4157
2864105.0,1839.5675390000001,1.0,7.32,1.79,-5.84,-32.5,-21.69,20.69,7.69,6.75,0.44,0.09758964701476776,-0.21935293102325384,0.2759385600052369,-127.40350962041992,6.225383461526625,-49.126813106735106,-0.1434,-0.8965,0.0543,-0.4157
2864142.0,1839.609959,1.0,7.58,2.52,-6.04,-31.25,-20.56,21.06,9.81,-9.0,-0.56,-0.05673954429897951,0.411817435939305,-0.1991276820979362,-127.30014547607834,6.2024314124588535,-49.24023317275956,-0.1431,-0.8961,0.0541,-0.4166
2864177.0,1839.6786559999998,1.0,6.75,1.67,-5.84,-31.69,-21.25,20.69,26.62,-9.94,-2.38,-0.20033445321283888,-0.2458849893185692,0.7316069323951009,-127.87100362286014,6.007348957796251,-48.862365423932296,-0.1384,-0.8983,0.0524,-0.4136
2864209.0,1839.6965239999997,1.0,7.89,2.08,-6.1,-31.69,-21.25,20.69,5.38,9.13,-0.94,0.2412805466164165,0.08235375165479109,-0.377823553277695,-127.84492955883974,5.7663887448030415,-49.063824131557034,-0.1353,-0.8982,0.0503,-0.4152
2864246.0,1839.7570280000002,1.0,6.86,1.95,-6.09,-31.0,-20.19,21.06,14.56,-8.06,-3.5,-0.36819547161934185,0.011291815654536852,0.4357106346226836,-128.0800345447506,5.640181741583799,-48.925303952953186,-0.1334,-0.8991,0.0492,-0.4141
2864283.0,1839.760321,1.0,7.16,1.11,-6.06,-32.5,-20.56,21.56,-4.56,9.88,-2.25,0.0017304099732953215,-0.7503818778089733,0.3908003812381757,-128.10621848828742,5.525454047712893,-49.013444327725786,-0.1304,-0.8992,0.0482,-0.4148
2864318.0,1839.8010000000002,1.0,7.76,2.79,-6.14,-32.5,-20.56,21.56,6.56,-3.38,-7.19,0.0027995062471799924,0.8032606250126373,-0.44303606987887534,-128.05386288415187,5.330429626451235,-49.07642066173354,-0.131,-0.899,0.0465,-0.4153
2864351.0,1839.820595,1.0,7.11,1.83,-5.99,-33.19,-20.87,22.37,30.31,-7.69,-9.5,-0.062148478210498535,0.040021210033061035,0.331649426416714,-128.6854111372357,4.871608567013157,-48.774277851992856,-0.1237,-0.9014,0.0425,-0.4129
2864388.0,1839.865515,1.0,7.36,1.8,-5.94,-32.06,-20.56,21.87,-13.81,5.13,-6.13,0.108669594227397,0.04384258599626757,0.17963235449089687,-128.5268474503853,4.940426564140192,-48.975666100652674,-0.1223,-0.9008,0.0431,-0.4145
2864424.0,1839.8836010000002,1.0,7.55,2.27,-6.18,-32.06,-20.19,22.37,7.13,-3.0,-5.75,-0.02024627966123503,0.3946670847068986,-0.20292681325283546,-128.5268474503853,4.745446786894516,-48.96307461903554,-0.1236,-0.9008,0.0414,-0.4144
2864457.0,1839.9270649999999,1.0,7.3,0.99,-6.13,-32.06,-20.19,22.37,10.69,4.94,1.5,0.0762812514554225,-0.7868842354259067,0.255629406853183,-128.60607229870925,4.481672390551605,-48.98825821247561,-0.1205,-0.9011,0.0391,-0.4146
2864494.0,1839.992206,1.0,7.47,2.32,-6.3,-32.5,-20.19,23.19,-2.56,3.5,-5.13,-0.20211441930404966,0.3990613760779436,-0.2269535291231293,-128.31613447366578,4.573417240623146,-49.17721568249704,-0.1236,-0.9,0.0399,-0.4161
2864529.0,1840.011108,1.0,7.21,1.83,-6.03,-32.5,-19.75,22.37,11.38,-9.19,-2.75,-0.056355374562705125,0.022935318254928786,0.2311501152454465,-128.5268474503853,4.573417240623146,-49.000850954751044,-0.1226,-0.9008,0.0399,-0.4147
2864564.0,1840.068712,1.0,7.36,1.27,-6.02,-32.5,-19.75,22.37,2.06,7.44,0.63,0.16488696560003113,-0.50244569529201,0.2283797693238068,-128.6854111372357,4.412865642375664,-48.90012665540839,-0.121,-0.9014,0.0385,-0.4139
2864599.0,1840.071832,1.0,7.65,1.85,-6.16,-32.06,-19.75,22.75,-2.31,4.0,-1.37,0.11457662994792253,-0.017155495605041815,-0.18720700742412968,-128.39505791682004,4.516076369343336,-49.1016156188802,-0.12300000000000001,-0.9003,0.0394,-0.4155
2864635.0,1840.115466,1.0,6.73,2.11,-6.14,-32.06,-20.56,21.56,1.44,-1.19,-4.88,-0.5081120400903878,0.2632148808511706,0.4729936917136453,-128.44773606463812,4.6536963885673295,-49.03863296676083,-0.1238,-0.9005,0.0406,-0.415
2864670.0,1840.136816,1.0,7.54,1.66,-6.06,-32.06,-20.56,21.56,9.44,1.25,0.37,0.15711829760377305,-0.17466718635626022,-0.0053633109657198474,-128.44773606463812,4.49314033842009,-49.063824131557034,-0.1231,-0.9005,0.0392,-0.4152
2864703.0,1840.180041,1.0,7.44,1.93,-6.0,-31.69,-21.25,21.87,2.31,3.06,0.31,0.08601342681730566,0.11896560868636795,0.05693467726585232,-128.44773606463812,4.642227799866185,-49.063824131557034,-0.1229,-0.9005,0.0405,-0.4152
2864738.0,1840.2426030000001,1.0,7.14,1.86,-6.19,-32.06,-20.56,22.69,1.12,-2.31,-1.25,-0.2337057471131957,0.018001533783804424,0.17854750944934672,-128.47409395200597,4.6536963885673295,-49.03863296676083,-0.1226,-0.9006,0.0406,-0.415
2864775.0,1840.2623600000002,1.0,7.14,2.12,-6.07,-30.56,-20.19,23.56,7.0,-7.81,-4.0,-0.1562289136946266,0.2959277989364353,0.2042065992637898,-128.6854111372357,4.344060485976967,-48.887538949850274,-0.1218,-0.9014,0.0379,-0.4138
2864809.0,1840.307211,1.0,7.39,2.11,-6.14,-30.56,-20.19,23.56,9.88,-5.94,1.31,0.009545510475565594,0.31881099580029826,-0.0250369575971856,-129.0838339340417,4.240855681461491,-48.61076799855758,-0.1184,-0.9029,0.037000000000000005,-0.4116
2864846.0,1840.331172,1.0,6.86,2.19,-6.3,-31.0,-20.56,22.75,15.25,-18.12,-2.63,-0.40463917474335503,0.426815081302386,0.2567915704401216,-129.56581673326838,4.068855279934243,-48.25894988610853,-0.1151,-0.9047,0.0355,-0.4088
2864881.0,1840.3688789999999,1.0,7.24,0.28,-6.2,-31.69,-19.75,22.75,35.75,-11.0,3.06,0.2966328776280958,-1.2865729574262912,0.3624592479487987,-130.29697555501406,3.862466868736162,-47.76972155794277,-0.1071,-0.9074,0.0337,-0.4049
2864916.0,1840.3766309999999,1.0,7.64,2.1,-6.38,-31.69,-19.75,22.75,-8.63,-14.06,-5.19,0.18541791454669213,0.4161169368595485,-0.3558529836071269,-130.3788376016962,4.022990071019942,-47.619376147320615,-0.109,-0.9077,0.0351,-0.4037
2864951.0,1840.4400899999998,1.0,7.09,1.63,-6.43,-32.06,-19.75,24.06,15.25,-22.69,1.63,-0.0031129087672212012,0.02689235604566631,0.0974189742706546,-131.31561745343842,4.045922594423996,-46.75656566484064,-0.106,-0.9111,0.0353,-0.3968
2864986.0,1840.458523,1.0,6.93,2.16,-6.36,-30.56,-19.75,24.37,1.19,-5.19,-4.5,-0.10686007101737996,0.5700848287500115,0.1731831155782082,-131.53850453910292,3.908329853329541,-46.58184673902731,-0.1052,-0.9119,0.0341,-0.3954
2865022.0,1840.507162,1.0,6.66,2.36,-6.4,-30.56,-19.75,24.37,18.12,-17.25,-6.81,-0.2414882044814115,0.8123525638558118,0.3110211762151707,-132.2130251212284,3.6560909909367436,-45.98367660557063,-0.1019,-0.9143,0.0319,-0.3906
2865057.0,1840.5896239999997,1.0,7.17,-0.42,-6.66,-31.0,-20.19,24.0,42.31,-1.81,9.94,0.34409122396645564,-1.8412961494772648,0.1924870244982113,-132.81066902216784,3.243374149708243,-45.69752343772229,-0.0931,-0.9164,0.0283,-0.3883
2865094.0,1840.71977,1.0,7.88,1.56,-6.88,-29.5,-19.75,25.19,-3.69,-9.5,-2.44,0.4290616824650296,0.04388167290771827,-0.7610545980393991,-132.75344370342964,3.438262641755622,-45.7223943424676,-0.0939,-0.9162,0.03,-0.3885
2865129.0,1840.729656,1.0,6.14,1.35,-6.54,-31.0,-18.69,25.25,6.13,-31.19,-4.75,-0.3948224112470722,-0.04717569532458965,0.7437812644754853,-133.50255170239728,3.5873017007906127,-44.940044922743645,-0.0938,-0.9188,0.0313,-0.3822
2865162.0,1840.7380699999999,1.0,6.63,1.45,-6.73,-31.0,-18.69,25.25,-1.25,-5.25,-3.94,-0.1158986252780976,0.0023086139573096354,0.24951328553576424,-133.93995871664828,3.438262641755622,-44.48160022735979,-0.0938,-0.9203,0.03,-0.3785
2865199.0,1840.7412199999999,1.0,6.88,1.57,-6.88,-30.19,-19.06,26.06,-2.69,3.44,2.63,-0.07884728139913587,0.08737301530327979,-0.048290337841359936,-133.82293398949477,3.610231319265168,-44.593044465749166,-0.0943,-0.9199,0.0315,-0.3794
2865235.0,1840.7860280000002,1.0,6.64,1.14,-6.64,-30.19,-19.06,25.19,3.31,2.25,-2.56,-0.033140800492172204,-0.273184026395124,0.3513302182546294,-133.79372158966166,3.724881599063971,-44.617815884427785,-0.0941,-0.9198,0.0325,-0.3796
2865268.0,1840.8035550000002,1.0,7.01,1.68,-6.74,-30.19,-19.06,25.19,-1.5,3.19,-1.31,0.07638546837337024,0.2130823282887696,-0.05939587368173349,-133.6770461216721,3.701951248377608,-44.69214333160206,-0.095,-0.9194,0.0323,-0.3802
2865303.0,1840.806858,1.0,6.69,1.72,-6.76,-29.5,-20.19,26.06,7.88,-1.25,-3.5,-0.16480464268386466,0.2615126348334331,0.146600798698163,-133.73534909546765,3.610231319265168,-44.679754048391246,-0.0942,-0.9196,0.0315,-0.3801
2865338.0,1840.844941,1.0,6.65,1.29,-6.65,-29.75,-19.06,26.06,12.38,1.0,-3.25,-0.05607169469442641,-0.11703781333327835,0.31495583534718463,-133.82293398949477,3.4267983429423063,-44.6673653156106,-0.0924,-0.9199,0.0299,-0.38
2865375.0,1840.9130030000001,1.0,7.03,1.66,-6.97,-29.06,-19.37,25.19,6.5,3.88,-2.38,-0.06934476526430854,0.19904504212646448,-0.2289353030471161,-133.7645266360233,3.300693295071686,-44.76649060212525,-0.0908,-0.9197,0.0288,-0.3808
2865408.0,1840.9774300000001,1.0,6.64,1.44,-6.78,-29.06,-19.37,25.19,14.75,-9.06,-7.81,-0.13975782158148575,0.04448034074425866,0.2092498702464205,-134.0866361818657,3.014105541619682,-44.51874337646561,-0.0889,-0.9208,0.0263,-0.3788
2865444.0,1840.9949940000001,1.0,7.11,0.1,-6.81,-29.5,-20.19,26.06,-1.56,4.63,5.81,0.3212413652830988,-1.2130343745677403,0.041223660543636235,-134.2337582296838,2.8421620551927376,-44.543508213508154,-0.0841,-0.9213,0.0248,-0.379
2865481.0,1841.0375149999998,1.0,7.34,1.57,-6.9,-29.75,-18.69,26.5,-6.31,0.37,-2.0,0.2464377310161635,0.16178313436132594,-0.38469901090958736,-134.05726525899885,3.082884815106741,-44.593044465749166,-0.0878,-0.9207,0.0269,-0.3794
2865514.0,1841.044764,1.0,5.99,1.37,-6.66,-29.75,-18.69,26.5,-3.75,-2.31,-6.06,-0.4962304509388589,0.017093582167258647,0.7586633096356916,-134.20429804752106,2.968253297538604,-44.43208368482341,-0.0884,-0.9212,0.0259,-0.3781
2865549.0,1841.063089,1.0,7.0,1.62,-6.99,-29.75,-19.06,27.25,-0.37,5.69,1.88,-0.06670691903998148,0.1724613385970747,-0.21584007351175136,-133.99857662596108,3.0026424356334624,-44.617815884427785,-0.08900000000000001,-0.9205,0.0262,-0.3796
2865586.0,1841.0661559999999,1.0,7.01,1.18,-6.78,-29.75,-19.06,26.87,2.75,1.81,2.0,0.12354613482923388,-0.20118531752141933,-0.013999714788861084,-133.93995871664828,3.048495041051397,-44.69214333160206,-0.08800000000000001,-0.9203,0.0266,-0.3802
2865623.0,1841.112898,1.0,6.78,1.29,-6.78,-29.75,-19.06,26.87,-0.88,1.94,-3.81,-0.055221787757098184,-0.10213165346670504,0.132590889186325,-133.91067619883825,2.956790311078442,-44.71692355018706,-0.0884,-0.9202,0.0258,-0.3804
2865655.0,1841.1326829999998,1.0,6.93,1.59,-6.82,-29.5,-19.06,26.87,0.5,1.12,-0.44,-0.01906913832886704,0.16415017235986595,-0.044141394039243664,-133.85216386873807,2.9338644268256844,-44.76649060212525,-0.0893,-0.92,0.0256,-0.3808
2865690.0,1841.1807210000002,1.0,6.87,1.15,-6.76,-29.06,-19.75,26.87,1.88,-1.12,1.37,0.034669173967684035,-0.2460402961520575,0.10328655112075323,-133.88141126071122,2.9453273542124467,-44.74170597311218,-0.0888,-0.9201,0.0257,-0.3806
2865727.0,1841.1997149999997,1.0,6.75,1.27,-6.76,-30.56,-19.75,26.5,8.0,3.94,-0.06,-0.07169518802551338,-0.1271523716248829,0.17069171478497402,-133.82293398949477,3.014105541619682,-44.77888374446125,-0.0891,-0.9199,0.0263,-0.3809
2865762.0,1841.259734,1.0,6.75,1.34,-6.87,-30.56,-19.75,26.5,-1.63,4.13,-0.56,-0.18153633574483266,-0.08184784924692379,0.08474969767340035,-133.6770461216721,3.014105541619682,-44.927644585005865,-0.0892,-0.9194,0.0263,-0.3821
2865799.0,1841.3029,1.0,7.03,1.4,-6.83,-29.75,-19.75,26.06,0.63,-0.5,-0.69,0.030420180908794538,-0.03136736080953617,-0.09425352954059107,-133.64792062272215,3.082884815106741,-44.96484726352389,-0.09,-0.9193,0.0269,-0.3824
2865833.0,1841.3247199999998,1.0,6.71,1.31,-6.56,-29.75,-18.69,26.87,-4.5,-1.0,-1.63,0.009386147733779273,-0.08061581233589232,0.33209391588544435,-133.64792062272215,3.082884815106741,-44.927644585005865,-0.091,-0.9193,0.0269,-0.3821
2865868.0,1841.416359,1.0,6.82,1.4,-6.77,-29.75,-18.69,26.87,3.63,0.56,0.94,-0.0734686093173425,-0.02543762642535463,0.0958696353430568,-133.64792062272215,3.048495041051397,-44.952445815509726,-0.0904,-0.9193,0.0266,-0.3823
2865903.0,1841.4233609999999,1.0,6.84,1.54,-6.8,-30.56,-19.06,26.5,0.12,3.19,-0.63,-0.11183862860540178,0.10655324896581396,0.04072257213701569,-133.53159111803808,3.1287382797377283,-45.02686284001362,-0.0906,-0.9189,0.0273,-0.3829
2865938.0,1841.4356480000001,1.0,7.03,1.3,-6.74,-29.5,-20.19,27.25,3.19,0.94,0.25,0.08175430476138715,-0.10842173867812056,-0.0178123751244037,-133.50255170239728,3.0370318442136965,-45.10129990098643,-0.0895,-0.9188,0.0265,-0.3835
2865973.0,1841.4392269999998,1.0,6.63,1.42,-6.57,-29.5,-20.19,27.25,-3.81,-1.12,-0.94,-0.0874839546768407,0.04472721855536388,0.3658584000548775,-133.53159111803808,3.048495041051397,-45.051672965046905,-0.0898,-0.9189,0.0266,-0.3831
2866006.0,1841.484931,1.0,6.96,1.52,-6.86,-29.75,-19.06,26.06,-2.13,-0.25,0.06,-0.07457227094043994,0.07222604655740172,-0.08277983061235261,-133.50255170239728,3.1172748668896637,-45.07648531811653,-0.0906,-0.9188,0.0272,-0.3833
2866040.0,1841.562438,1.0,6.98,1.35,-6.7,-30.56,-19.37,26.06,2.88,-0.69,0.88,0.07361361124966018,-0.06023481252455865,0.038136663591082254,-133.50255170239728,3.243374149708243,-45.051672965046905,-0.0908,-0.9188,0.0283,-0.3831
2866075.0,1841.5670989999999,1.0,6.81,1.32,-6.82,-29.75,-19.06,25.69,-0.81,-1.25,-0.44,-0.11958861840905058,-0.1085507018662687,0.08014932876826641,-133.53159111803808,3.335085177891311,-45.002054941253824,-0.0911,-0.9189,0.0291,-0.3827
2866112.0,1841.6072960000001,1.0,6.69,1.53,-6.78,-29.75,-19.06,25.69,-0.19,4.0,-1.56,-0.2159724808225965,0.09520744298696716,0.16249677484190705,-133.444524198005,3.300693295071686,-45.08889233071614,-0.0916,-0.9186,0.0288,-0.3834
2866149.0,1841.614595,1.0,7.25,1.38,-6.8,-31.0,-19.37,24.87,2.56,0.81,1.88,0.16651029880526233,-0.059573143396354,-0.22707440128677805,-133.32867360141205,3.610231319265168,-45.1509357631892,-0.0924,-0.9182,0.0315,-0.3839
2866184.0,1841.6813280000001,1.0,6.79,1.07,-6.65,-29.75,-19.75,26.87,2.63,-1.0,0.44,-0.004037881393618582,-0.31713800479456666,0.2478369365789561,-133.3865649159552,3.5873017007906127,-45.10129990098643,-0.0917,-0.9184,0.0313,-0.3835
2866219.0,1841.700247,1.0,6.92,1.8,-6.69,-29.75,-19.75,26.87,-5.31,1.19,-2.06,-0.03614366135773769,0.3650905024932971,0.021564279336494963,-133.3576107786115,3.5987664920103746,-45.11370802914807,-0.0931,-0.9183,0.0314,-0.3836
