,TIME,ELAPSED_SECONDS,PSTATE,acc_x,acc_y,acc_z,mag_x,mag_y,mag_z,gyr_x,gyr_y,gyr_z,lin_x,lin_y,lin_z,eul_x,eul_y,eul_z,qua_w,qua_x,qua_y,qua_z
0,1443309.0,1217.0097039999998,1.0,1.01,1.66,9.65,18.56,-13.06,-38.0,-12.13,1.37,14.56,-0.20699453845321825,0.02738398404644093,-0.034823638559842614,-9.614047461503418,-3.564372225995784,-107.54950844448109,-0.5841,-0.0838,-0.0311,-0.8067
1,1443309.0,1217.0097039999998,1.0,1.01,1.66,9.65,18.56,-13.06,-38.0,-12.13,1.37,14.56,-0.20699453845321825,0.02738398404644093,-0.034823638559842614,-9.614047461503418,-3.564372225995784,-107.54950844448109,-0.5841,-0.0838,-0.0311,-0.8067
2,1443344.0,1217.0547199999999,1.0,1.24,1.1,9.47,18.56,-13.06,-38.0,-1.56,4.44,12.13,0.18772467911883006,-0.3761766291576725,0.20187251228455594,-9.476059158737444,-3.495584654482353,-107.9382233400721,-0.5816,-0.0826,-0.0305,-0.8087
3,1443344.0,1217.0547199999999,1.0,1.24,1.1,9.47,18.56,-13.06,-38.0,-1.56,4.44,12.13,0.18772467911883006,-0.3761766291576725,0.20187251228455594,-9.476059158737444,-3.495584654482353,-107.9382233400721,-0.5816,-0.0826,-0.0305,-0.8087
4,1443381.0,1217.062645,1.0,1.31,0.35,9.64,18.56,-13.88,-38.88,-25.37,-2.94,15.5,0.8280355254049967,-0.6538985113218284,0.12910000500857954,-9.269102460835224,-3.1860558160551733,-108.60323493215937,-0.5773,-0.0808,-0.0278,-0.8121
5,1443381.0,1217.062645,1.0,1.31,0.35,9.64,18.56,-13.88,-38.88,-25.37,-2.94,15.5,0.8280355254049967,-0.6538985113218284,0.12910000500857954,-9.269102460835224,-3.1860558160551733,-108.60323493215937,-0.5773,-0.0808,-0.0278,-0.8121
6,1443416.0,1217.1248679999999,1.0,0.92,1.53,9.82,19.25,-13.88,-38.5,-30.81,-4.13,6.75,-0.27121534152944593,0.19897520751650788,-0.16864704346255446,-8.832292528579133,-2.2919839967771853,-108.83922979141936,-0.5764,-0.077,-0.02,-0.8133
7,1443416.0,1217.1248679999999,1.0,0.92,1.53,9.82,19.25,-13.88,-38.5,-30.81,-4.13,6.75,-0.27121534152944593,0.19897520751650788,-0.16864704346255446,-8.832292528579133,-2.2919839967771853,-108.83922979141936,-0.5764,-0.077,-0.02,-0.8133
8,1443448.0,1217.183209,1.0,1.15,1.93,9.9,19.25,-13.88,-38.5,-11.88,-0.69,14.31,-0.8334470696129996,0.19195209037800032,-0.30897753254354754,-8.453062112264227,-1.6043342375287626,-109.31327042212921,-0.5735,-0.0737,-0.013999999999999999,-0.8157
9,1443448.0,1217.183209,1.0,1.15,1.93,9.9,19.25,-13.88,-38.5,-11.88,-0.69,14.31,-0.8334470696129996,0.19195209037800032,-0.30897753254354754,-8.453062112264227,-1.6043342375287626,-109.31327042212921,-0.5735,-0.0737,-0.013999999999999999,-0.8157
10,1443485.0,1217.190104,1.0,2.96,1.68,9.09,19.25,-13.88,-38.5,8.44,-17.56,16.81,-1.2999391084334326,-1.581483267129269,0.3187013813493156,-8.72885661442212,-1.4668120111410634,-109.7303356928047,-0.5703,-0.0761,-0.0128,-0.8178
11,1443485.0,1217.190104,1.0,2.96,1.68,9.09,19.25,-13.88,-38.5,8.44,-17.56,16.81,-1.2999391084334326,-1.581483267129269,0.3187013813493156,-8.72885661442212,-1.4668120111410634,-109.7303356928047,-0.5703,-0.0761,-0.0128,-0.8178
12,1443522.0,1217.207825,1.0,3.44,0.51,9.62,18.56,-12.69,-38.5,18.56,-54.63,24.87,-0.11185314430236247,-2.1420774257821504,-0.19520448684713546,-10.603384906468607,-1.0313379546174166,-110.37004645806756,-0.5633,-0.0924,-0.009000000000000001,-0.821
13,1443522.0,1217.207825,1.0,3.44,0.51,9.62,18.56,-12.69,-38.5,18.56,-54.63,24.87,-0.11185314430236247,-2.1420774257821504,-0.19520448684713546,-10.603384906468607,-1.0313379546174166,-110.37004645806756,-0.5633,-0.0924,-0.009000000000000001,-0.821
14,1443557.0,1217.2532820000001,1.0,4.84,1.44,9.48,18.56,-12.69,-38.5,-11.75,-73.62,-8.19,-1.364633982290262,-2.7996013352438527,-0.4729222896470482,-12.123472436717575,0.05729578190040675,-110.22967237255024,-0.5621,-0.1056,0.0005,-0.8203
15,1443557.0,1217.2532820000001,1.0,4.84,1.44,9.48,18.56,-12.69,-38.5,-11.75,-73.62,-8.19,-1.364633982290262,-2.7996013352438527,-0.4729222896470482,-12.123472436717575,0.05729578190040675,-110.22967237255024,-0.5621,-0.1056,0.0005,-0.8203
16,1443592.0,1217.322689,1.0,6.57,2.3,9.61,16.69,-13.38,-38.5,12.69,-140.5,-50.94,-2.2755140689293043,-3.397364265553815,-1.3327822911557252,-15.748572284340513,2.532679647359437,-107.84087503637959,-0.5724,-0.13699999999999998,0.0221,-0.8082
17,1443592.0,1217.322689,1.0,6.57,2.3,9.61,16.69,-13.38,-38.5,12.69,-140.5,-50.94,-2.2755140689293043,-3.397364265553815,-1.3327822911557252,-15.748572284340513,2.532679647359437,-107.84087503637959,-0.5724,-0.13699999999999998,0.0221,-0.8082
18,1443627.0,1217.338695,1.0,8.05,2.38,9.47,12.88,-13.06,-40.56,36.13,-215.38,-72.44,-1.7087123800673332,-3.5822549420145315,-2.2098200113060287,-22.88682192770989,5.628708719478254,-103.16431731106186,-0.5868,-0.1984,0.0491,-0.7835
19,1443627.0,1217.338695,1.0,8.05,2.38,9.47,12.88,-13.06,-40.56,36.13,-215.38,-72.44,-1.7087123800673332,-3.5822549420145315,-2.2098200113060287,-22.88682192770989,5.628708719478254,-103.16431731106186,-0.5868,-0.1984,0.0491,-0.7835
20,1443663.0,1217.359526,1.0,7.49,2.86,10.16,7.69,-13.19,-41.38,27.25,-272.81,-108.75,-0.8043967665967814,-1.3517422277722733,-3.039790705173784,-29.9147053648035,9.027691221695424,-97.64960928769192,-0.6005,-0.2581,0.0787,-0.7527
21,1443663.0,1217.359526,1.0,7.49,2.86,10.16,7.69,-13.19,-41.38,27.25,-272.81,-108.75,-0.8043967665967814,-1.3517422277722733,-3.039790705173784,-29.9147053648035,9.027691221695424,-97.64960928769192,-0.6005,-0.2581,0.0787,-0.7527
22,1443698.0,1217.425135,1.0,9.33,4.19,9.72,7.69,-13.19,-41.38,26.69,-272.19,-116.12,-0.9130865322729256,-0.8819649574909347,-4.2458163599789405,-39.10859227464813,13.299539926123945,-89.32027391021383,-0.6168,-0.3347,0.1158,-0.7029
23,1443698.0,1217.425135,1.0,9.33,4.19,9.72,7.69,-13.19,-41.38,26.69,-272.19,-116.12,-0.9130865322729256,-0.8819649574909347,-4.2458163599789405,-39.10859227464813,13.299539926123945,-89.32027391021383,-0.6168,-0.3347,0.1158,-0.7029
24,1443735.0,1217.4590660000001,1.0,10.41,3.76,7.21,-2.06,-13.19,-42.56,79.31,-268.88,-82.06,-0.13930767805007038,-1.827476804456444,-3.2750441525174754,-46.64423316662803,15.7832777083714,-83.53353964844825,-0.6169,-0.3959,0.1373,-0.6661
25,1443735.0,1217.4590660000001,1.0,10.41,3.76,7.21,-2.06,-13.19,-42.56,79.31,-268.88,-82.06,-0.13930767805007038,-1.827476804456444,-3.2750441525174754,-46.64423316662803,15.7832777083714,-83.53353964844825,-0.6169,-0.3959,0.1373,-0.6661
26,1443772.0,1217.465667,1.0,9.47,3.94,6.53,-11.25,-14.56,-40.25,45.81,-285.63,-82.19,0.6949851063954475,0.3661643966740653,-2.3271177304494706,-56.51045043124189,19.691932497848974,-75.16454533036487,-0.6121,-0.4734,0.171,-0.6099
27,1443772.0,1217.465667,1.0,9.47,3.94,6.53,-11.25,-14.56,-40.25,45.81,-285.63,-82.19,0.6949851063954475,0.3661643966740653,-2.3271177304494706,-56.51045043124189,19.691932497848974,-75.16454533036487,-0.6121,-0.4734,0.171,-0.6099
28,1443807.0,1217.510781,1.0,9.64,5.34,5.02,-11.25,-14.56,-40.25,50.19,-253.56,-83.44,-0.2444061421119499,0.6490349383719125,-2.2832060490384087,-63.09429398938783,22.489447184752866,-68.98522882076507,-0.6063,-0.5232,0.195,-0.5663
29,1443807.0,1217.510781,1.0,9.64,5.34,5.02,-11.25,-14.56,-40.25,50.19,-253.56,-83.44,-0.2444061421119499,0.6490349383719125,-2.2832060490384087,-63.09429398938783,22.489447184752866,-68.98522882076507,-0.6063,-0.5232,0.195,-0.5663
30,1443842.0,1217.5252,1.0,8.56,6.06,3.84,-21.37,-16.37,-35.5,36.31,-252.94,-111.31,-0.5085450966672487,1.7048464603906917,-1.2195769354094548,-71.56359842931408,25.183180957237052,-60.304567590109755,-0.5986,-0.5847,0.218,-0.5023
31,1443842.0,1217.5252,1.0,8.56,6.06,3.84,-21.37,-16.37,-35.5,36.31,-252.94,-111.31,-0.5085450966672487,1.7048464603906917,-1.2195769354094548,-71.56359842931408,25.183180957237052,-60.304567590109755,-0.5986,-0.5847,0.218,-0.5023
32,1443876.0,1217.565517,1.0,7.77,8.18,2.69,-27.25,-19.0,-27.5,56.5,-218.19,-104.06,-1.9399760985259809,2.5313289501131973,-1.3445950642727222,-79.46438269954628,26.935734446758048,-52.04193081398262,-0.5872,-0.6392,0.2329,-0.4387
33,1443876.0,1217.565517,1.0,7.77,8.18,2.69,-27.25,-19.0,-27.5,56.5,-218.19,-104.06,-1.9399760985259809,2.5313289501131973,-1.3445950642727222,-79.46438269954628,26.935734446758048,-52.04193081398262,-0.5872,-0.6392,0.2329,-0.4387
34,1443913.0,1217.631369,1.0,7.06,9.77,2.38,-33.5,-23.25,-20.37,112.5,-177.69,-96.94,-2.852325178464149,3.6915151196774274,-1.5598735317353043,-85.6404088628468,27.112514953816074,-46.98137369898728,-0.5695,-0.6797,0.2344,-0.3986
35,1443913.0,1217.631369,1.0,7.06,9.77,2.38,-33.5,-23.25,-20.37,112.5,-177.69,-96.94,-2.852325178464149,3.6915151196774274,-1.5598735317353043,-85.6404088628468,27.112514953816074,-46.98137369898728,-0.5695,-0.6797,0.2344,-0.3986
36,1443948.0,1217.652325,1.0,6.35,7.77,0.36,-33.5,-23.25,-20.37,181.06,-137.63,-71.19,-1.3388477188158932,2.65204498331134,0.21503156553782787,-94.68205278958663,25.62955536451614,-42.45844069063149,-0.5281,-0.7354,0.2218,-0.3621
37,1443948.0,1217.652325,1.0,6.35,7.77,0.36,-33.5,-23.25,-20.37,181.06,-137.63,-71.19,-1.3388477188158932,2.65204498331134,0.21503156553782787,-94.68205278958663,25.62955536451614,-42.45844069063149,-0.5281,-0.7354,0.2218,-0.3621
38,1443985.0,1217.699756,1.0,7.16,7.35,-1.15,-33.56,-24.75,-13.88,164.81,-116.75,-64.56,-0.3566994038807736,1.9820138053020784,-0.32029360658057016,-101.03160716122223,24.26814601866472,-39.814679382357845,-0.4942,-0.7718,0.2102,-0.3405
39,1443985.0,1217.699756,1.0,7.16,7.35,-1.15,-33.56,-24.75,-13.88,164.81,-116.75,-64.56,-0.3566994038807736,1.9820138053020784,-0.32029360658057016,-101.03160716122223,24.26814601866472,-39.814679382357845,-0.4942,-0.7718,0.2102,-0.3405
40,1444022.0,1217.72184,1.0,5.9,6.61,-1.56,-33.0,-28.5,-6.19,156.06,-126.06,-71.25,-0.0885016269016693,2.3262715154430973,1.116636864309477,-109.27366158489086,22.267504416511226,-35.88952982832807,-0.4503,-0.8155,0.1931,-0.3081
41,1444022.0,1217.72184,1.0,5.9,6.61,-1.56,-33.0,-28.5,-6.19,156.06,-126.06,-71.25,-0.0885016269016693,2.3262715154430973,1.116636864309477,-109.27366158489086,22.267504416511226,-35.88952982832807,-0.4503,-0.8155,0.1931,-0.3081
42,1444057.0,1217.766683,1.0,5.25,6.06,-2.28,-33.0,-28.5,-6.19,158.44,-111.0,-69.87,0.058066232055225424,2.0782007667048092,1.7343386899746935,-115.3438717556755,20.69292362085707,-32.830884610981734,-0.4171,-0.845,0.1796,-0.2826
43,1444057.0,1217.766683,1.0,5.25,6.06,-2.28,-33.0,-28.5,-6.19,158.44,-111.0,-69.87,0.058066232055225424,2.0782007667048092,1.7343386899746935,-115.3438717556755,20.69292362085707,-32.830884610981734,-0.4171,-0.845,0.1796,-0.2826
44,1444091.0,1217.774492,1.0,4.88,4.62,-3.13,-31.87,-30.69,1.56,148.06,-97.56,-73.12,0.8368709794409295,1.2498272069859286,2.547636367525726,-123.04393663031479,18.20486640453508,-29.274683969227155,-0.3722,-0.879,0.1582,-0.2527
45,1444091.0,1217.774492,1.0,4.88,4.62,-3.13,-31.87,-30.69,1.56,148.06,-97.56,-73.12,0.8368709794409295,1.2498272069859286,2.547636367525726,-123.04393663031479,18.20486640453508,-29.274683969227155,-0.3722,-0.879,0.1582,-0.2527
46,1444128.0,1217.814981,1.0,4.91,4.74,-4.31,-29.69,-31.5,7.75,128.44,-100.5,-81.25,1.0684759317427563,1.1269115945094688,1.885776977318308,-130.0792914251156,15.563501157916,-25.394572616004382,-0.33399999999999996,-0.9066,0.1354,-0.2198
47,1444128.0,1217.814981,1.0,4.91,4.74,-4.31,-29.69,-31.5,7.75,128.44,-100.5,-81.25,1.0684759317427563,1.1269115945094688,1.885776977318308,-130.0792914251156,15.563501157916,-25.394572616004382,-0.33399999999999996,-0.9066,0.1354,-0.2198
48,1444163.0,1217.8774779999999,1.0,3.0,3.68,-4.12,-25.56,-32.19,15.19,132.94,-87.69,-67.94,0.23995383759220135,0.6948577678918788,3.56354221315016,-135.24632190274463,13.680327762024126,-22.606293449751373,-0.3036,-0.9247,0.1191,-0.196
49,1444163.0,1217.8774779999999,1.0,3.0,3.68,-4.12,-25.56,-32.19,15.19,132.94,-87.69,-67.94,0.23995383759220135,0.6948577678918788,3.56354221315016,-135.24632190274463,13.680327762024126,-22.606293449751373,-0.3036,-0.9247,0.1191,-0.196
50,1444198.0,1217.938538,1.0,3.94,3.22,-5.36,-25.56,-32.19,15.19,141.81,-65.5,-54.81,1.2495679825263997,0.28082435072665834,2.527823340360147,-141.67799864882886,11.38620958683243,-19.994394103683586,-0.2604,-0.9446,0.0992,-0.1736
51,1444198.0,1217.938538,1.0,3.94,3.22,-5.36,-25.56,-32.19,15.19,141.81,-65.5,-54.81,1.2495679825263997,0.28082435072665834,2.527823340360147,-141.67799864882886,11.38620958683243,-19.994394103683586,-0.2604,-0.9446,0.0992,-0.1736
52,1444235.0,1217.9573619999999,1.0,2.67,0.24,-5.85,-21.87,-30.87,19.0,145.56,-70.56,-40.81,0.9073008920647466,-2.2017849307602257,3.8285275347157945,-146.59103083752737,10.005090889774307,-18.088822794467358,-0.2241,-0.9578,0.0872,-0.1572
53,1444235.0,1217.9573619999999,1.0,2.67,0.24,-5.85,-21.87,-30.87,19.0,145.56,-70.56,-40.81,0.9073008920647466,-2.2017849307602257,3.8285275347157945,-146.59103083752737,10.005090889774307,-18.088822794467358,-0.2241,-0.9578,0.0872,-0.1572
54,1444272.0,1217.960499,1.0,2.05,1.3,-6.9,-18.5,-27.87,23.56,30.5,-46.13,-69.19,0.06255652521074903,-1.461701212370434,2.6399201846024374,-150.7504119288671,7.890132207309978,-15.806415466969176,-0.2003,-0.9676,0.0688,-0.1375
55,1444272.0,1217.960499,1.0,2.05,1.3,-6.9,-18.5,-27.87,23.56,30.5,-46.13,-69.19,0.06255652521074903,-1.461701212370434,2.6399201846024374,-150.7504119288671,7.890132207309978,-15.806415466969176,-0.2003,-0.9676,0.0688,-0.1375
56,1444306.0,1218.044058,1.0,1.22,1.84,-6.74,-18.5,-27.87,23.56,36.0,-45.38,-69.0,-0.5720106153050643,-0.8953985053006774,2.7943276049097934,-152.57624392499284,5.9958740675037845,-14.130545861300053,-0.1957,-0.9715,0.0523,-0.12300000000000001
57,1444306.0,1218.044058,1.0,1.22,1.84,-6.74,-18.5,-27.87,23.56,36.0,-45.38,-69.0,-0.5720106153050643,-0.8953985053006774,2.7943276049097934,-152.57624392499284,5.9958740675037845,-14.130545861300053,-0.1957,-0.9715,0.0523,-0.12300000000000001
58,1444341.0,1218.050233,1.0,0.94,1.39,-6.57,-16.19,-27.69,26.19,44.31,2.31,-42.06,-0.619820095858646,-1.051880883643436,3.1365698164193487,-154.9492208405226,4.068855279934243,-13.103434321670449,-0.1809,-0.9762,0.0355,-0.1141
59,1444341.0,1218.050233,1.0,0.94,1.39,-6.57,-16.19,-27.69,26.19,44.31,2.31,-42.06,-0.619820095858646,-1.051880883643436,3.1365698164193487,-154.9492208405226,4.068855279934243,-13.103434321670449,-0.1809,-0.9762,0.0355,-0.1141
60,1444376.0,1218.1111119999998,1.0,3.08,0.91,-8.72,-13.19,-27.25,27.56,55.06,38.94,-24.62,0.8632324422913595,-1.9988267461145084,0.7726906581835369,-156.02889725740351,2.544141615361497,-14.188281840563285,-0.1652,-0.9782,0.0222,-0.1235
61,1444376.0,1218.1111119999998,1.0,3.08,0.91,-8.72,-13.19,-27.25,27.56,55.06,38.94,-24.62,0.8632324422913595,-1.9988267461145084,0.7726906581835369,-156.02889725740351,2.544141615361497,-14.188281840563285,-0.1652,-0.9782,0.0222,-0.1235
62,1444413.0,1218.129775,1.0,2.97,0.41,-9.06,-12.75,-26.5,28.06,25.06,-6.31,-25.75,0.6910845814099489,-2.468567717729728,0.6141979047035502,-156.814109146573,1.7189378496716434,-14.24602144035678,-0.1575,-0.9796,0.015,-0.124
63,1444413.0,1218.129775,1.0,2.97,0.41,-9.06,-12.75,-26.5,28.06,25.06,-6.31,-25.75,0.6910845814099489,-2.468567717729728,0.6141979047035502,-156.814109146573,1.7189378496716434,-14.24602144035678,-0.1575,-0.9796,0.015,-0.124
64,1444448.0,1218.171987,1.0,1.74,0.57,-9.07,-12.75,-26.5,28.06,4.38,-9.5,-20.62,-0.4449386114624565,-2.2893942998962493,0.8524273440888539,-157.27480743211564,0.9052827329224428,-13.738036026791262,-0.1561,-0.9804,0.0079,-0.1196
65,1444448.0,1218.171987,1.0,1.74,0.57,-9.07,-12.75,-26.5,28.06,4.38,-9.5,-20.62,-0.4449386114624565,-2.2893942998962493,0.8524273440888539,-157.27480743211564,0.9052827329224428,-13.738036026791262,-0.1561,-0.9804,0.0079,-0.1196
66,1444485.0,1218.239591,1.0,1.88,1.46,-9.35,-12.38,-26.5,29.0,-12.38,10.63,-15.75,-0.4226778816393771,-1.6037925824057686,0.30203571213997016,-156.98580474112185,0.4010712754482724,-13.749578099392743,-0.1595,-0.9799,0.0035,-0.1197
67,1444485.0,1218.239591,1.0,1.88,1.46,-9.35,-12.38,-26.5,29.0,-12.38,10.63,-15.75,-0.4226778816393771,-1.6037925824057686,0.30203571213997016,-156.98580474112185,0.4010712754482724,-13.749578099392743,-0.1595,-0.9799,0.0035,-0.1197
68,1444521.0,1218.245995,1.0,2.31,2.01,-9.28,-11.56,-26.87,29.25,14.63,-6.5,-3.44,-0.009405578424782658,-1.0699947109016563,0.09327659763679108,-157.04331809093284,0.1718874029970642,-13.738036026791262,-0.1591,-0.98,0.0015,-0.1196
69,1444521.0,1218.245995,1.0,2.31,2.01,-9.28,-11.56,-26.87,29.25,14.63,-6.5,-3.44,-0.009405578424782658,-1.0699947109016563,0.09327659763679108,-157.04331809093284,0.1718874029970642,-13.738036026791262,-0.1591,-0.98,0.0015,-0.1196
70,1444556.0,1218.306759,1.0,1.86,1.33,-9.56,-11.56,-26.87,29.25,6.69,-5.88,-2.75,-0.453268632027826,-1.7080588088223232,0.13715246120181845,-157.50864759230302,0.06875493954099557,-13.553381828311744,-0.155,-0.9808,0.0006,-0.11800000000000001
71,1444556.0,1218.306759,1.0,1.86,1.33,-9.56,-11.56,-26.87,29.25,6.69,-5.88,-2.75,-0.453268632027826,-1.7080588088223232,0.13715246120181845,-157.50864759230302,0.06875493954099557,-13.553381828311744,-0.155,-0.9808,0.0006,-0.11800000000000001
72,1444589.0,1218.313649,1.0,1.84,2.47,-9.24,-11.25,-27.25,29.37,-12.69,0.94,-0.44,-0.4113156449250403,-0.6070907451333709,0.09447412291595114,-157.21671751944734,0.05729578190040675,-13.368762981498053,-0.1592,-0.9803,0.0005,-0.1164
73,1444589.0,1218.313649,1.0,1.84,2.47,-9.24,-11.25,-27.25,29.37,-12.69,0.94,-0.44,-0.4113156449250403,-0.6070907451333709,0.09447412291595114,-157.21671751944734,0.05729578190040675,-13.368762981498053,-0.1592,-0.9803,0.0005,-0.1164
74,1444626.0,1218.384096,1.0,1.82,2.32,-9.58,-10.06,-27.69,28.19,3.88,-15.81,1.69,-0.4761438995948016,-0.8654148001449908,-0.16809532058681853,-157.27480743211564,0.4927452222969898,-13.184178987120148,-0.16,-0.9804,0.0043,-0.1148
75,1444626.0,1218.384096,1.0,1.82,2.32,-9.58,-10.06,-27.69,28.19,3.88,-15.81,1.69,-0.4761438995948016,-0.8654148001449908,-0.16809532058681853,-157.27480743211564,0.4927452222969898,-13.184178987120148,-0.16,-0.9804,0.0043,-0.1148
76,1444663.0,1218.435828,1.0,0.93,2.0,-9.18,-11.25,-27.19,29.0,-8.06,-13.19,-0.12,-1.1088873039526357,-1.018622761938076,0.4862381734767585,-157.74491268375093,1.1573944243672372,-12.353968967121856,-0.16,-0.9812,0.0101,-0.1076
77,1444663.0,1218.435828,1.0,0.93,2.0,-9.18,-11.25,-27.19,29.0,-8.06,-13.19,-0.12,-1.1088873039526357,-1.018622761938076,0.4862381734767585,-157.74491268375093,1.1573944243672372,-12.353968967121856,-0.16,-0.9812,0.0101,-0.1076
78,1444696.0,1218.443078,1.0,0.56,2.47,-8.93,-11.25,-27.19,29.0,-13.31,-0.88,-4.44,-1.41877729790065,-0.5664224642648588,0.6510158564281898,-157.44996317553057,1.0886361860699356,-12.204140573704526,-0.1642,-0.9807,0.0095,-0.1063
79,1444696.0,1218.443078,1.0,0.56,2.47,-8.93,-11.25,-27.19,29.0,-13.31,-0.88,-4.44,-1.41877729790065,-0.5664224642648588,0.6510158564281898,-157.44996317553057,1.0886361860699356,-12.204140573704526,-0.1642,-0.9807,0.0095,-0.1063
80,1444732.0,1218.461256,1.0,1.31,2.83,-9.19,-10.5,-27.19,28.56,-5.44,3.75,-9.38,-0.7749871198891299,-0.3748702886976016,0.1402149161307804,-157.10097394877238,1.294912175882028,-12.273289521851867,-0.1669,-0.9801,0.0113,-0.1069
81,1444732.0,1218.461256,1.0,1.31,2.83,-9.19,-10.5,-27.19,28.56,-5.44,3.75,-9.38,-0.7749871198891299,-0.3748702886976016,0.1402149161307804,-157.10097394877238,1.294912175882028,-12.273289521851867,-0.1669,-0.9801,0.0113,-0.1069
82,1444769.0,1218.479966,1.0,1.99,2.54,-9.36,-10.06,-27.56,27.0,12.06,7.56,-4.56,-0.1420122560414441,-0.6773884307520861,-0.0696993980831433,-157.21671751944734,1.4782721132478738,-12.330917071488784,-0.1652,-0.9803,0.0129,-0.1074
83,1444769.0,1218.479966,1.0,1.99,2.54,-9.36,-10.06,-27.56,27.0,12.06,7.56,-4.56,-0.1420122560414441,-0.6773884307520861,-0.0696993980831433,-157.21671751944734,1.4782721132478738,-12.330917071488784,-0.1652,-0.9803,0.0129,-0.1074
84,1444802.0,1218.513222,1.0,2.18,2.0,-9.65,-10.06,-27.56,27.0,3.94,2.69,-1.31,0.0009903922158400883,-1.2174887178916944,-0.21296178094888416,-157.50864759230302,1.306372069959298,-12.423127669242316,-0.1617,-0.9808,0.0114,-0.1082
85,1444802.0,1218.513222,1.0,2.18,2.0,-9.65,-10.06,-27.56,27.0,3.94,2.69,-1.31,0.0009903922158400883,-1.2174887178916944,-0.21296178094888416,-157.50864759230302,1.306372069959298,-12.423127669242316,-0.1617,-0.9808,0.0114,-0.1082
86,1444837.0,1218.582893,1.0,1.35,1.78,-9.29,-10.5,-26.37,28.25,-2.0,-5.56,0.44,-0.692743395983414,-1.318295647158628,0.36857799487077614,-157.50864759230302,1.7647797695524667,-12.238714488577818,-0.1628,-0.9808,0.0154,-0.1066
87,1444837.0,1218.582893,1.0,1.35,1.78,-9.29,-10.5,-26.37,28.25,-2.0,-5.56,0.44,-0.692743395983414,-1.318295647158628,0.36857799487077614,-157.50864759230302,1.7647797695524667,-12.238714488577818,-0.1628,-0.9808,0.0154,-0.1066
88,1444874.0,1218.6033929999999,1.0,1.97,2.38,-9.86,-10.06,-27.87,27.0,-12.69,6.38,0.06,-0.2763204537216607,-1.0046323305680676,-0.4733918718618338,-157.04331809093284,2.18883187578443,-12.400074265032766,-0.1663,-0.98,0.0191,-0.10800000000000001
89,1444874.0,1218.6033929999999,1.0,1.97,2.38,-9.86,-10.06,-27.87,27.0,-12.69,6.38,0.06,-0.2763204537216607,-1.0046323305680676,-0.4733918718618338,-157.04331809093284,2.18883187578443,-12.400074265032766,-0.1663,-0.98,0.0191,-0.10800000000000001
90,1444909.0,1218.6067269999999,1.0,1.13,2.3,-9.24,-10.06,-27.87,27.0,-6.31,-8.38,-1.37,-0.938162051656198,-0.9190462999831828,0.30824456206887874,-156.87120131517742,2.223215714892369,-12.250239375241625,-0.1685,-0.9797,0.0194,-0.1067
91,1444909.0,1218.6067269999999,1.0,1.13,2.3,-9.24,-10.06,-27.87,27.0,-6.31,-8.38,-1.37,-0.938162051656198,-0.9190462999831828,0.30824456206887874,-156.87120131517742,2.223215714892369,-12.250239375241625,-0.1685,-0.9797,0.0194,-0.1067
92,1444943.0,1218.656684,1.0,1.02,2.65,-9.02,-10.5,-27.56,27.87,-13.81,4.38,-5.06,-1.0032014695412987,-0.5806664641971722,0.4215707105711193,-156.58711361479934,2.4868320276357756,-12.07737906844118,-0.1719,-0.9792,0.0217,-0.1052
93,1444943.0,1218.656684,1.0,1.02,2.65,-9.02,-10.5,-27.56,27.87,-13.81,4.38,-5.06,-1.0032014695412987,-0.5806664641971722,0.4215707105711193,-156.58711361479934,2.4868320276357756,-12.07737906844118,-0.1719,-0.9792,0.0217,-0.1052
94,1444978.0,1218.676864,1.0,2.24,2.94,-9.24,-10.06,-27.87,27.37,0.94,10.56,2.13,0.06756616558561176,-0.3912137699253313,-0.13725198058533114,-156.36226771891504,2.7963115557322795,-12.353968967121856,-0.1729,-0.9788,0.0244,-0.1076
95,1444978.0,1218.676864,1.0,2.24,2.94,-9.24,-10.06,-27.87,27.37,0.94,10.56,2.13,0.06756616558561176,-0.3912137699253313,-0.13725198058533114,-156.36226771891504,2.7963115557322795,-12.353968967121856,-0.1729,-0.9788,0.0244,-0.1076
96,1445015.0,1218.7291189999999,1.0,2.26,2.25,-9.56,-9.38,-27.56,27.75,6.0,1.75,4.69,0.06461435507940982,-1.10395004336858,-0.2103764693103507,-156.41828103776766,3.082884815106741,-12.423127669242316,-0.1709,-0.9789,0.0269,-0.1082
97,1445015.0,1218.7291189999999,1.0,2.26,2.25,-9.56,-9.38,-27.56,27.75,6.0,1.75,4.69,0.06461435507940982,-1.10395004336858,-0.2103764693103507,-156.41828103776766,3.082884815106741,-12.423127669242316,-0.1709,-0.9789,0.0269,-0.1082
98,1445048.0,1218.749836,1.0,1.67,2.1,-9.42,-9.38,-27.56,27.75,-7.81,-7.88,0.0,-0.4335473730358291,-1.2395245896388354,0.10041924511814493,-156.36226771891504,3.1860558160551733,-12.215665087929844,-0.1727,-0.9788,0.0278,-0.1064
99,1445048.0,1218.749836,1.0,1.67,2.1,-9.42,-9.38,-27.56,27.75,-7.81,-7.88,0.0,-0.4335473730358291,-1.2395245896388354,0.10041924511814493,-156.36226771891504,3.1860558160551733,-12.215665087929844,-0.1727,-0.9788,0.0278,-0.1064
100,1445085.0,1218.846468,1.0,1.14,2.44,-9.26,-10.88,-26.75,27.37,-18.75,-3.94,-5.63,-0.9092545940459136,-0.964637351418899,0.25450202881289563,-155.97377873337675,3.5758369454907797,-11.950632395319571,-0.1774,-0.9781,0.0312,-0.1041
101,1445085.0,1218.846468,1.0,1.14,2.44,-9.26,-10.88,-26.75,27.37,-18.75,-3.94,-5.63,-0.9092545940459136,-0.964637351418899,0.25450202881289563,-155.97377873337675,3.5758369454907797,-11.950632395319571,-0.1774,-0.9781,0.0312,-0.1041
102,1445122.0,1218.859848,1.0,0.71,2.5,-9.11,-9.75,-27.87,28.19,-16.69,-0.12,-5.56,-1.281504797342921,-0.9783792243159901,0.4714092667455034,-155.48320588867858,3.621696182670093,-11.812380025110386,-0.1833,-0.9772,0.0316,-0.1029
103,1445122.0,1218.859848,1.0,0.71,2.5,-9.11,-9.75,-27.87,28.19,-16.69,-0.12,-5.56,-1.281504797342921,-0.9783792243159901,0.4714092667455034,-155.48320588867858,3.621696182670093,-11.812380025110386,-0.1833,-0.9772,0.0316,-0.1029
104,1445154.0,1218.863682,1.0,1.44,3.52,-9.21,-9.75,-27.87,28.19,-18.44,8.25,-5.31,-0.7028723764662353,-0.14908552448173218,-0.1317524837390618,-154.89643727544527,3.4726557451993814,-11.927589126675839,-0.1882,-0.9761,0.0303,-0.1039
105,1445154.0,1218.863682,1.0,1.44,3.52,-9.21,-9.75,-27.87,28.19,-18.44,8.25,-5.31,-0.7028723764662353,-0.14908552448173218,-0.1317524837390618,-154.89643727544527,3.4726557451993814,-11.927589126675839,-0.1882,-0.9761,0.0303,-0.1039
106,1445189.0,1218.914425,1.0,2.09,3.41,-9.57,-10.5,-28.25,27.37,-0.12,11.75,-1.94,-0.19047451804960536,-0.4125458159610098,-0.5555228130593726,-154.52996593229264,3.6560909909367436,-12.261764386292771,-0.1901,-0.9754,0.0319,-0.1068
107,1445189.0,1218.914425,1.0,2.09,3.41,-9.57,-10.5,-28.25,27.37,-0.12,11.75,-1.94,-0.19047451804960536,-0.4125458159610098,-0.5555228130593726,-154.52996593229264,3.6560909909367436,-12.261764386292771,-0.1901,-0.9754,0.0319,-0.1068
108,1445226.0,1218.9354720000001,1.0,2.17,2.49,-9.47,-10.06,-29.37,26.56,11.25,2.19,0.12,-0.02616043609633877,-1.1721540740913479,-0.15403624433951002,-154.68638599830706,3.851001219583861,-12.400074265032766,-0.1876,-0.9757,0.0336,-0.10800000000000001
109,1445226.0,1218.9354720000001,1.0,2.17,2.49,-9.47,-10.06,-29.37,26.56,11.25,2.19,0.12,-0.02616043609633877,-1.1721540740913479,-0.15403624433951002,-154.68638599830706,3.851001219583861,-12.400074265032766,-0.1876,-0.9757,0.0336,-0.10800000000000001
110,1445261.0,1218.985906,1.0,1.85,2.45,-9.3,-10.88,-27.87,27.06,-3.38,-3.63,-1.0,-0.2747591514258315,-1.1559714726649957,0.08537244182420167,-154.68638599830706,4.194987989089829,-12.227189726180756,-0.188,-0.9757,0.0366,-0.1065
111,1445261.0,1218.985906,1.0,1.85,2.45,-9.3,-10.88,-27.87,27.06,-3.38,-3.63,-1.0,-0.2747591514258315,-1.1559714726649957,0.08537244182420167,-154.68638599830706,4.194987989089829,-12.227189726180756,-0.188,-0.9757,0.0366,-0.1065
112,1445296.0,1219.005464,1.0,1.49,2.45,-9.37,-10.88,-27.87,27.06,-8.69,-3.19,1.94,-0.6197013414190574,-1.2277822145187436,0.10469034840616233,-154.52996593229264,4.2867240536107065,-12.111948910357555,-0.1898,-0.9754,0.0374,-0.1055
113,1445296.0,1219.005464,1.0,1.49,2.45,-9.37,-10.88,-27.87,27.06,-8.69,-3.19,1.94,-0.6197013414190574,-1.2277822145187436,0.10469034840616233,-154.52996593229264,4.2867240536107065,-12.111948910357555,-0.1898,-0.9754,0.0374,-0.1055
114,1445332.0,1219.049967,1.0,1.17,2.73,-9.25,-11.25,-28.69,27.0,-17.62,-1.94,-0.69,-0.9093382788310528,-1.019001888484434,0.18796822722480397,-154.0662728728033,4.791323123878448,-11.89302513102135,-0.1942,-0.9745,0.0418,-0.1036
115,1445332.0,1219.049967,1.0,1.17,2.73,-9.25,-11.25,-28.69,27.0,-17.62,-1.94,-0.69,-0.9093382788310528,-1.019001888484434,0.18796822722480397,-154.0662728728033,4.791323123878448,-11.89302513102135,-0.1942,-0.9745,0.0418,-0.1036
116,1445367.0,1219.0580439999999,1.0,0.98,3.4,-8.96,-10.5,-28.69,27.37,-13.69,3.56,-4.06,-1.1140441743524785,-0.3817346121434848,0.24552118257038916,-153.66083809692267,4.986306217889054,-11.823900394126868,-0.1985,-0.9737,0.0435,-0.10300000000000001
117,1445367.0,1219.0580439999999,1.0,0.98,3.4,-8.96,-10.5,-28.69,27.37,-13.69,3.56,-4.06,-1.1140441743524785,-0.3817346121434848,0.24552118257038916,-153.66083809692267,4.986306217889054,-11.823900394126868,-0.1985,-0.9737,0.0435,-0.10300000000000001
118,1445402.0,1219.128371,1.0,1.94,3.51,-9.34,-10.5,-28.69,27.37,9.06,7.69,1.69,-0.31494264501532226,-0.4015750608172879,-0.34514041356155895,-153.5103719816942,4.89454770282183,-12.146519858742266,-0.1989,-0.9734,0.0427,-0.1058
119,1445402.0,1219.128371,1.0,1.94,3.51,-9.34,-10.5,-28.69,27.37,9.06,7.69,1.69,-0.31494264501532226,-0.4015750608172879,-0.34514041356155895,-153.5103719816942,4.89454770282183,-12.146519858742266,-0.1989,-0.9734,0.0427,-0.1058
120,1445437.0,1219.158129,1.0,2.0,2.48,-9.37,-10.06,-28.69,27.37,13.19,0.63,2.38,-0.15423067485442926,-1.284261752862367,-0.0052909216051038035,-153.76161968319718,5.101008867683621,-12.238714488577818,-0.1954,-0.9739,0.0445,-0.1066
121,1445437.0,1219.158129,1.0,2.0,2.48,-9.37,-10.06,-28.69,27.37,13.19,0.63,2.38,-0.15423067485442926,-1.284261752862367,-0.0052909216051038035,-153.76161968319718,5.101008867683621,-12.238714488577818,-0.1954,-0.9739,0.0445,-0.1066
122,1445474.0,1219.215354,1.0,1.79,2.89,-8.92,-10.06,-28.25,27.37,-11.19,-4.81,-2.25,-0.3071690056007301,-0.7632574892229116,0.2963563553671822,-153.66083809692267,5.261601195679236,-12.111948910357555,-0.1967,-0.9737,0.0459,-0.1055
123,1445474.0,1219.215354,1.0,1.79,2.89,-8.92,-10.06,-28.25,27.37,-11.19,-4.81,-2.25,-0.3071690056007301,-0.7632574892229116,0.2963563553671822,-153.66083809692267,5.261601195679236,-12.111948910357555,-0.1967,-0.9737,0.0459,-0.1055
124,1445509.0,1219.224092,1.0,1.03,2.71,-8.9,-10.06,-28.25,27.37,-5.25,-5.44,3.56,-0.9906586569405704,-0.9844838901018454,0.5511442388025802,-153.56043390061225,5.364844561963229,-11.927589126675839,-0.1982,-0.9735,0.0468,-0.1039
125,1445509.0,1219.224092,1.0,1.03,2.71,-8.9,-10.06,-28.25,27.37,-5.25,-5.44,3.56,-0.9906586569405704,-0.9844838901018454,0.5511442388025802,-153.56043390061225,5.364844561963229,-11.927589126675839,-0.1982,-0.9735,0.0468,-0.1039
126,1445543.0,1219.250115,1.0,0.91,2.86,-9.1,-10.88,-29.06,28.56,-11.44,5.19,2.44,-1.1663240662603775,-0.9916662065107128,0.3475810020844801,-153.21193002249612,5.7319679651977244,-11.916067673936475,-0.2012,-0.9728,0.05,-0.1038
127,1445543.0,1219.250115,1.0,0.91,2.86,-9.1,-10.88,-29.06,28.56,-11.44,5.19,2.44,-1.1663240662603775,-0.9916662065107128,0.3475810020844801,-153.21193002249612,5.7319679651977244,-11.916067673936475,-0.2012,-0.9728,0.05,-0.1038
128,1445578.0,1219.304622,1.0,1.5,3.61,-9.43,-10.5,-28.69,27.37,-12.0,7.13,-0.63,-0.7952737860550955,-0.4930589905440734,-0.3585569549545937,-152.62462859250314,5.915551513947968,-12.123472436717575,-0.2053,-0.9716,0.0516,-0.1056
129,1445578.0,1219.304622,1.0,1.5,3.61,-9.43,-10.5,-28.69,27.37,-12.0,7.13,-0.63,-0.7952737860550955,-0.4930589905440734,-0.3585569549545937,-152.62462859250314,5.915551513947968,-12.123472436717575,-0.2053,-0.9716,0.0516,-0.1056
130,1445615.0,1219.3249119999998,1.0,1.83,2.81,-9.25,-10.06,-29.06,27.0,10.63,10.88,-0.94,-0.36247232796221657,-1.107233284099867,0.0367908267036352,-152.67309729035,5.904077101832591,-12.330917071488784,-0.2041,-0.9717,0.0515,-0.1074
131,1445615.0,1219.3249119999998,1.0,1.83,2.81,-9.25,-10.06,-29.06,27.0,10.63,10.88,-0.94,-0.36247232796221657,-1.107233284099867,0.0367908267036352,-152.67309729035,5.904077101832591,-12.330917071488784,-0.2041,-0.9717,0.0515,-0.1074
132,1445648.0,1219.380398,1.0,2.58,2.84,-9.39,-10.06,-29.06,27.0,2.06,9.56,-1.0,0.27033712455280257,-1.0808572092799908,-0.2756496152780539,-152.62462859250314,5.7663887448030415,-12.711338126294773,-0.203,-0.9716,0.0503,-0.1107
133,1445648.0,1219.380398,1.0,2.58,2.84,-9.39,-10.06,-29.06,27.0,2.06,9.56,-1.0,0.27033712455280257,-1.0808572092799908,-0.2756496152780539,-152.62462859250314,5.7663887448030415,-12.711338126294773,-0.203,-0.9716,0.0503,-0.1107
134,1445685.0,1219.454913,1.0,1.98,2.65,-9.24,-10.5,-29.37,26.56,-4.0,-4.0,-0.44,-0.2433448233993835,-1.2342353962499828,0.07330801055113234,-152.57624392499284,5.904077101832591,-12.630631138714767,-0.2036,-0.9715,0.0515,-0.11
135,1445685.0,1219.454913,1.0,1.98,2.65,-9.24,-10.5,-29.37,26.56,-4.0,-4.0,-0.44,-0.2433448233993835,-1.2342353962499828,0.07330801055113234,-152.57624392499284,5.904077101832591,-12.630631138714767,-0.2036,-0.9715,0.0515,-0.11
136,1445722.0,1219.4749470000002,1.0,1.35,3.09,-8.94,-10.5,-29.75,27.06,-18.44,-6.56,-2.63,-0.8114542798572046,-0.8405046004417759,0.3235442867677776,-152.1444912618588,5.984399237389443,-12.342442956629045,-0.2086,-0.9706,0.0522,-0.1075
137,1445722.0,1219.4749470000002,1.0,1.35,3.09,-8.94,-10.5,-29.75,27.06,-18.44,-6.56,-2.63,-0.8114542798572046,-0.8405046004417759,0.3235442867677776,-152.1444912618588,5.984399237389443,-12.342442956629045,-0.2086,-0.9706,0.0522,-0.1075
138,1445754.0,1219.47854,1.0,1.09,3.45,-8.97,-10.5,-29.75,27.06,-12.13,-1.69,0.5,-1.1001142832040682,-0.6107896478084411,0.2166455907194429,-151.86026450485573,6.04177399090254,-12.215665087929844,-0.2122,-0.97,0.0527,-0.1064
139,1445754.0,1219.47854,1.0,1.09,3.45,-8.97,-10.5,-29.75,27.06,-12.13,-1.69,0.5,-1.1001142832040682,-0.6107896478084411,0.2166455907194429,-151.86026450485573,6.04177399090254,-12.215665087929844,-0.2122,-0.97,0.0527,-0.1064
