,TIME,ELAPSED_SECONDS,PSTATE,acc_x,acc_y,acc_z,mag_x,mag_y,mag_z,gyr_x,gyr_y,gyr_z,lin_x,lin_y,lin_z,eul_x,eul_y,eul_z,qua_w,qua_x,qua_y,qua_z
0,1150222.0,923.403088,1.0,-0.08,1.43,9.9,24.37,-9.69,-36.56,3.63,-10.56,-1.69,0.13053835691637605,0.14889765269482635,-0.1944544003347719,-6.294241112432486,-6.271288310584378,-95.44579560430292,-0.6683,-0.0549,-0.0547,-0.7399
1,1150222.0,923.403088,1.0,-0.08,1.43,9.9,24.37,-9.69,-36.56,3.63,-10.56,-1.69,0.13053835691637605,0.14889765269482635,-0.1944544003347719,-6.294241112432486,-6.271288310584378,-95.44579560430292,-0.6683,-0.0549,-0.0547,-0.7399
2,1150255.0,923.4525039999999,1.0,0.2,1.33,9.53,24.37,-9.69,-36.56,2.88,-3.0,-0.69,0.17134306978805472,-0.10501120251949768,0.1843106690586378,-6.546738821065048,-6.236859579751598,-95.36065966207356,-0.6686,-0.0571,-0.0544,-0.7394
3,1150255.0,923.4525039999999,1.0,0.2,1.33,9.53,24.37,-9.69,-36.56,2.88,-3.0,-0.69,0.17134306978805472,-0.10501120251949768,0.1843106690586378,-6.546738821065048,-6.236859579751598,-95.36065966207356,-0.6686,-0.0571,-0.0544,-0.7394
4,1150289.0,923.455597,1.0,0.49,1.55,9.33,23.56,-9.25,-35.75,0.44,-16.12,-1.12,-0.09815217219559412,-0.3223966783994641,0.3420883866525397,-6.776309776380446,-6.04177399090254,-95.30961142661364,-0.6689,-0.0591,-0.0527,-0.7391
5,1150289.0,923.455597,1.0,0.49,1.55,9.33,23.56,-9.25,-35.75,0.44,-16.12,-1.12,-0.09815217219559412,-0.3223966783994641,0.3420883866525397,-6.776309776380446,-6.04177399090254,-95.30961142661364,-0.6689,-0.0591,-0.0527,-0.7391
6,1150326.0,923.4858449999999,1.0,0.86,1.9,9.44,22.5,-9.25,-37.5,6.31,-32.31,-2.94,-0.4235943736319751,-0.4832553833205751,0.16039518058334856,-7.6374510050387485,-5.3992599817249625,-95.1226475867278,-0.6699,-0.0666,-0.0471,-0.738
7,1150326.0,923.4858449999999,1.0,0.86,1.9,9.44,22.5,-9.25,-37.5,6.31,-32.31,-2.94,-0.4235943736319751,-0.4832553833205751,0.16039518058334856,-7.6374510050387485,-5.3992599817249625,-95.1226475867278,-0.6699,-0.0666,-0.0471,-0.738
8,1150363.0,923.5279960000001,1.0,1.82,2.13,9.43,22.5,-9.25,-37.5,18.0,-44.5,-11.13,-0.6411494952443973,-1.2292941739375522,0.06745274567400372,-8.809306149715164,-4.89454770282183,-94.7327966552025,-0.6716,-0.0768,-0.0427,-0.7357
9,1150363.0,923.5279960000001,1.0,1.82,2.13,9.43,22.5,-9.25,-37.5,18.0,-44.5,-11.13,-0.6411494952443973,-1.2292941739375522,0.06745274567400372,-8.809306149715164,-4.89454770282183,-94.7327966552025,-0.6716,-0.0768,-0.0427,-0.7357
10,1150396.0,923.5890300000001,1.0,3.87,2.83,9.0,22.19,-9.25,-37.0,36.81,-129.38,-4.88,-1.2906368588121515,-2.6851848281607253,0.05422266434191947,-12.146519858742266,-3.4267983429423063,-94.00777948611471,-0.6729999999999999,-0.1058,-0.0299,-0.7314
11,1150396.0,923.5890300000001,1.0,3.87,2.83,9.0,22.19,-9.25,-37.0,36.81,-129.38,-4.88,-1.2906368588121515,-2.6851848281607253,0.05422266434191947,-12.146519858742266,-3.4267983429423063,-94.00777948611471,-0.6729999999999999,-0.1058,-0.0299,-0.7314
12,1150431.0,923.645777,1.0,4.77,3.55,9.88,21.06,-9.25,-38.56,64.62,-171.56,-23.31,-1.2551409957457338,-2.319047720236078,-1.4190543766556711,-18.320928845487863,-0.7906880314747026,-91.96044935664196,-0.6763,-0.1592,-0.0069,-0.7191
13,1150431.0,923.645777,1.0,4.77,3.55,9.88,21.06,-9.25,-38.56,64.62,-171.56,-23.31,-1.2551409957457338,-2.319047720236078,-1.4190543766556711,-18.320928845487863,-0.7906880314747026,-91.96044935664196,-0.6763,-0.1592,-0.0069,-0.7191
14,1150470.0,923.6621880000001,1.0,6.87,4.89,10.79,14.69,-10.75,-41.5,57.31,-206.5,-80.25,-1.6818089253577475,-2.9986064806489265,-3.449027195556525,-23.62387580431868,1.638715147453804,-88.69365764034536,-0.685,-0.2047,0.0143,-0.6990000000000001
15,1150470.0,923.6621880000001,1.0,6.87,4.89,10.79,14.69,-10.75,-41.5,57.31,-206.5,-80.25,-1.6818089253577475,-2.9986064806489265,-3.449027195556525,-23.62387580431868,1.638715147453804,-88.69365764034536,-0.685,-0.2047,0.0143,-0.6990000000000001
16,1150502.0,923.7130480000001,1.0,6.61,4.04,9.96,14.69,-10.75,-41.5,86.81,-179.88,-112.56,0.1205734746724707,-1.797714054636521,-2.6821043900489805,-31.06679175207397,3.5987664920103746,-82.50825884494826,-0.7018,-0.2678,0.0314,-0.6594
17,1150502.0,923.7130480000001,1.0,6.61,4.04,9.96,14.69,-10.75,-41.5,86.81,-179.88,-112.56,0.1205734746724707,-1.797714054636521,-2.6821043900489805,-31.06679175207397,3.5987664920103746,-82.50825884494826,-0.7018,-0.2678,0.0314,-0.6594
18,1150539.0,923.7318220000001,1.0,7.19,5.45,9.61,8.0,-12.69,-41.69,65.44,-197.88,-107.31,-0.3728540914183005,-1.4816659102207832,-3.2859565379282767,-36.41991372856602,5.364844561963229,-77.40842008878053,-0.7136,-0.3125,0.0468,-0.6253
19,1150539.0,923.7318220000001,1.0,7.19,5.45,9.61,8.0,-12.69,-41.69,65.44,-197.88,-107.31,-0.3728540914183005,-1.4816659102207832,-3.2859565379282767,-36.41991372856602,5.364844561963229,-77.40842008878053,-0.7136,-0.3125,0.0468,-0.6253
20,1150578.0,923.7711009999999,1.0,7.84,4.85,8.64,1.25,-14.88,-42.06,95.5,-204.31,-75.62,1.163113363519813,-0.9498685939161672,-2.738572873982486,-44.617815884427785,7.522608280519941,-71.39418485009088,-0.715,-0.3796,0.0656,-0.5835
21,1150578.0,923.7711009999999,1.0,7.84,4.85,8.64,1.25,-14.88,-42.06,95.5,-204.31,-75.62,1.163113363519813,-0.9498685939161672,-2.738572873982486,-44.617815884427785,7.522608280519941,-71.39418485009088,-0.715,-0.3796,0.0656,-0.5835
22,1150613.0,923.8062039999999,1.0,6.84,6.2,7.85,1.25,-14.88,-42.06,90.25,-259.88,-71.75,0.03040269595653045,0.5947751028026418,-2.2967965444006757,-51.03668173616908,10.292697102933527,-66.2407734880853,-0.7126,-0.4308,0.0897,-0.5464
23,1150613.0,923.8062039999999,1.0,6.84,6.2,7.85,1.25,-14.88,-42.06,90.25,-259.88,-71.75,0.03040269595653045,0.5947751028026418,-2.2967965444006757,-51.03668173616908,10.292697102933527,-66.2407734880853,-0.7126,-0.4308,0.0897,-0.5464
24,1150648.0,923.842127,1.0,6.18,6.86,6.59,-7.0,-17.37,-40.19,114.62,-209.5,-52.56,-0.4886526392386968,1.7652609379318231,-1.3882225950399825,-59.814839778401826,13.611082444309169,-60.01323233461206,-0.6981,-0.4986,0.1185,-0.5001
25,1150648.0,923.842127,1.0,6.18,6.86,6.59,-7.0,-17.37,-40.19,114.62,-209.5,-52.56,-0.4886526392386968,1.7652609379318231,-1.3882225950399825,-59.814839778401826,13.611082444309169,-60.01323233461206,-0.6981,-0.4986,0.1185,-0.5001
26,1150683.0,923.8611789999999,1.0,5.19,7.88,5.57,-14.38,-20.69,-35.5,97.56,-189.31,-61.5,-1.4530410606360098,2.7588214526087103,-0.6973004886843306,-67.64197933171232,15.598198868035936,-54.36161866399844,-0.6805,-0.5566,0.1357,-0.4568
27,1150683.0,923.8611789999999,1.0,5.19,7.88,5.57,-14.38,-20.69,-35.5,97.56,-189.31,-61.5,-1.4530410606360098,2.7588214526087103,-0.6973004886843306,-67.64197933171232,15.598198868035936,-54.36161866399844,-0.6805,-0.5566,0.1357,-0.4568
28,1150720.0,923.909614,1.0,4.83,9.65,6.31,-20.75,-23.56,-29.87,119.37,-138.56,-39.75,-2.246741210257764,4.636569346309819,-1.5829012919074064,-73.29639527690128,16.38507281218067,-51.03668173616908,-0.6616,-0.5969,0.1425,-0.4308
29,1150720.0,923.909614,1.0,4.83,9.65,6.31,-20.75,-23.56,-29.87,119.37,-138.56,-39.75,-2.246741210257764,4.636569346309819,-1.5829012919074064,-73.29639527690128,16.38507281218067,-51.03668173616908,-0.6616,-0.5969,0.1425,-0.4308
30,1150754.0,923.948687,1.0,6.83,9.04,2.73,-20.75,-23.56,-29.87,170.81,-95.12,-37.38,-0.9222585666814797,1.7806001773000446,-1.6738683743932778,-80.8271028985237,15.470980940849387,-48.14596836117922,-0.6287,-0.6483,0.1346,-0.4079
31,1150754.0,923.948687,1.0,6.83,9.04,2.73,-20.75,-23.56,-29.87,170.81,-95.12,-37.38,-0.9222585666814797,1.7806001773000446,-1.6738683743932778,-80.8271028985237,15.470980940849387,-48.14596836117922,-0.6287,-0.6483,0.1346,-0.4079
32,1150791.0,923.975542,1.0,4.33,7.8,2.82,-24.25,-27.25,-24.5,202.56,-109.94,-9.75,-1.0614950271387105,3.394296264135661,1.1525595695368145,-87.35524570014307,14.557878496401068,-46.54442190080458,-0.5925,-0.6906,0.1267,-0.3951
33,1150791.0,923.975542,1.0,4.33,7.8,2.82,-24.25,-27.25,-24.5,202.56,-109.94,-9.75,-1.0614950271387105,3.394296264135661,1.1525595695368145,-87.35524570014307,14.557878496401068,-46.54442190080458,-0.5925,-0.6906,0.1267,-0.3951
34,1150828.0,923.9938779999999,1.0,4.72,8.3,1.68,-25.37,-31.37,-18.87,130.63,-59.75,-25.31,-0.9428073205464564,3.2245554749644225,0.7124674449156227,-93.705742238603,13.311076762780564,-44.30833052387342,-0.5585,-0.7296,0.1159,-0.3771
35,1150828.0,923.9938779999999,1.0,4.72,8.3,1.68,-25.37,-31.37,-18.87,130.63,-59.75,-25.31,-0.9428073205464564,3.2245554749644225,0.7124674449156227,-93.705742238603,13.311076762780564,-44.30833052387342,-0.5585,-0.7296,0.1159,-0.3771
36,1150863.0,924.0379029999999,1.0,4.78,8.56,-0.45,-25.37,-31.37,-18.87,205.75,-47.13,8.19,-1.5760633924085234,2.1724547867815818,0.3662599454260072,-98.66427811303318,12.204140573704526,-43.69037629572606,-0.5243,-0.7585,0.1063,-0.3721
37,1150863.0,924.0379029999999,1.0,4.78,8.56,-0.45,-25.37,-31.37,-18.87,205.75,-47.13,8.19,-1.5760633924085234,2.1724547867815818,0.3662599454260072,-98.66427811303318,12.204140573704526,-43.69037629572606,-0.5243,-0.7585,0.1063,-0.3721
38,1150898.0,924.0967390000001,1.0,4.85,6.21,-1.12,-26.25,-34.75,-13.75,217.19,-31.19,14.81,-0.14862870079274515,1.5722306343449564,2.0062012730530725,-106.29841038740038,10.074110549810433,-43.65334169783373,-0.4623,-0.8002,0.0878,-0.3718
39,1150898.0,924.0967390000001,1.0,4.85,6.21,-1.12,-26.25,-34.75,-13.75,217.19,-31.19,14.81,-0.14862870079274515,1.5722306343449564,2.0062012730530725,-106.29841038740038,10.074110549810433,-43.65334169783373,-0.4623,-0.8002,0.0878,-0.3718
40,1150932.0,924.116399,1.0,5.78,5.21,-2.88,-25.37,-35.88,-4.38,191.69,-30.31,13.69,0.3322545058949197,0.2916023435846862,1.5210314342845557,-112.6714672903495,8.165828301178744,-43.55460618777381,-0.4056,-0.8323,0.0712,-0.371
41,1150932.0,924.116399,1.0,5.78,5.21,-2.88,-25.37,-35.88,-4.38,191.69,-30.31,13.69,0.3322545058949197,0.2916023435846862,1.5210314342845557,-112.6714672903495,8.165828301178744,-43.55460618777381,-0.4056,-0.8323,0.0712,-0.371
42,1150969.0,924.164384,1.0,6.48,3.93,-4.57,-26.56,-36.0,-0.75,181.13,-42.44,13.56,0.5712217861069218,-1.2470000967380763,1.0637159141331711,-117.27684633570152,6.937025592767178,-43.03679967235915,-0.3641,-0.8539,0.0605,-0.3668
43,1150969.0,924.164384,1.0,6.48,3.93,-4.57,-26.56,-36.0,-0.75,181.13,-42.44,13.56,0.5712217861069218,-1.2470000967380763,1.0637159141331711,-117.27684633570152,6.937025592767178,-43.03679967235915,-0.3641,-0.8539,0.0605,-0.3668
44,1151004.0,924.224484,1.0,5.94,3.06,-5.04,-26.56,-36.0,-0.75,160.06,-64.81,0.37,0.523457167535216,-1.3349090140698308,1.5608746866706866,-123.28472684734406,5.536926565771378,-41.280605467484456,-0.3146,-0.88,0.0483,-0.3525
45,1151004.0,924.224484,1.0,5.94,3.06,-5.04,-26.56,-36.0,-0.75,160.06,-64.81,0.37,0.523457167535216,-1.3349090140698308,1.5608746866706866,-123.28472684734406,5.536926565771378,-41.280605467484456,-0.3146,-0.88,0.0483,-0.3525
46,1151041.0,924.228681,1.0,6.07,2.74,-5.9,-26.19,-34.06,7.19,109.06,-68.87,-33.69,0.5241900351931617,-1.6809800351242687,1.0852951208245258,-127.22274573469288,4.229388694927676,-39.40057712393039,-0.2875,-0.8958,0.0369,-0.3371
47,1151041.0,924.228681,1.0,6.07,2.74,-5.9,-26.19,-34.06,7.19,109.06,-68.87,-33.69,0.5241900351931617,-1.6809800351242687,1.0852951208245258,-127.22274573469288,4.229388694927676,-39.40057712393039,-0.2875,-0.8958,0.0369,-0.3371
48,1151078.0,924.247092,1.0,5.75,2.96,-6.86,-25.5,-33.69,12.56,96.12,-115.44,-30.81,0.3200226250199346,-1.4965331941163909,0.5038722471789008,-132.49673400768697,2.78484900111774,-35.55242705989692,-0.2615,-0.9153,0.0243,-0.3053
49,1151078.0,924.247092,1.0,5.75,2.96,-6.86,-25.5,-33.69,12.56,96.12,-115.44,-30.81,0.3200226250199346,-1.4965331941163909,0.5038722471789008,-132.49673400768697,2.78484900111774,-35.55242705989692,-0.2615,-0.9153,0.0243,-0.3053
50,1151113.0,924.293449,1.0,4.37,2.15,-5.84,-25.5,-33.69,12.56,97.12,-123.75,-31.19,0.4182085706022573,-1.2010018136597589,2.309470781449812,-137.11973135242658,2.085681528609333,-31.864439303449732,-0.2404,-0.9308,0.0182,-0.2745
51,1151113.0,924.293449,1.0,4.37,2.15,-5.84,-25.5,-33.69,12.56,97.12,-123.75,-31.19,0.4182085706022573,-1.2010018136597589,2.309470781449812,-137.11973135242658,2.085681528609333,-31.864439303449732,-0.2404,-0.9308,0.0182,-0.2745
52,1151145.0,924.311276,1.0,4.89,2.46,-7.42,-22.5,-32.19,16.56,50.63,-79.62,-47.69,0.6454073931473745,-1.3714240374819808,0.7114454719925423,-141.64310130769366,0.9511208605830096,-28.032845198788678,-0.2219,-0.9445,0.0083,-0.2422
53,1151145.0,924.311276,1.0,4.89,2.46,-7.42,-22.5,-32.19,16.56,50.63,-79.62,-47.69,0.6454073931473745,-1.3714240374819808,0.7114454719925423,-141.64310130769366,0.9511208605830096,-28.032845198788678,-0.2219,-0.9445,0.0083,-0.2422
54,1151182.0,924.3519349999999,1.0,3.67,2.99,-7.13,-19.5,-31.5,21.69,40.19,-116.81,-43.25,0.1407437673950309,-0.5145643485078333,1.2649104392791184,-144.7656551188059,0.1718874029970642,-24.76065802803315,-0.2135,-0.9531,0.0015,-0.2144
55,1151182.0,924.3519349999999,1.0,3.67,2.99,-7.13,-19.5,-31.5,21.69,40.19,-116.81,-43.25,0.1407437673950309,-0.5145643485078333,1.2649104392791184,-144.7656551188059,0.1718874029970642,-24.76065802803315,-0.2135,-0.9531,0.0015,-0.2144
56,1151219.0,924.4174939999999,1.0,2.78,2.81,-6.75,-15.38,-32.0,23.0,39.56,-87.81,-35.75,0.1222287458903238,-0.2807558087309492,1.9904337600574324,-148.73080219796103,-0.6531754234266163,-20.355205608113067,-0.2032,-0.963,-0.0057,-0.1767
57,1151219.0,924.4174939999999,1.0,2.78,2.81,-6.75,-15.38,-32.0,23.0,39.56,-87.81,-35.75,0.1222287458903238,-0.2807558087309492,1.9904337600574324,-148.73080219796103,-0.6531754234266163,-20.355205608113067,-0.2032,-0.963,-0.0057,-0.1767
58,1151254.0,924.4204980000001,1.0,3.16,2.58,-8.31,-15.38,-32.0,23.0,48.19,-69.75,-33.75,0.4560206215505745,-0.9257742201775254,0.6070256986507676,-151.71920090048613,-1.638715147453804,-17.381357078894993,-0.1912,-0.9697,-0.0143,-0.1511
59,1151254.0,924.4204980000001,1.0,3.16,2.58,-8.31,-15.38,-32.0,23.0,48.19,-69.75,-33.75,0.4560206215505745,-0.9257742201775254,0.6070256986507676,-151.71920090048613,-1.638715147453804,-17.381357078894993,-0.1912,-0.9697,-0.0143,-0.1511
60,1151291.0,924.4666210000001,1.0,2.23,2.01,-8.32,-12.0,-30.37,25.69,43.0,-73.81,-36.5,-0.05918201514225301,-1.2018111896854478,1.0437995874098966,-154.0662728728033,-2.452446574526375,-15.124119969217904,-0.1805,-0.9745,-0.0214,-0.1316
61,1151291.0,924.4666210000001,1.0,2.23,2.01,-8.32,-12.0,-30.37,25.69,43.0,-73.81,-36.5,-0.05918201514225301,-1.2018111896854478,1.0437995874098966,-154.0662728728033,-2.452446574526375,-15.124119969217904,-0.1805,-0.9745,-0.0214,-0.1316
62,1151328.0,924.526311,1.0,1.68,2.34,-8.6,-10.5,-30.37,27.37,20.06,-81.87,-34.56,-0.1254484509601614,-0.8526344233139759,0.7780688697042901,-156.36226771891504,-3.335085177891311,-11.789339646395064,-0.1747,-0.9788,-0.0291,-0.1027
63,1151328.0,924.526311,1.0,1.68,2.34,-8.6,-10.5,-30.37,27.37,20.06,-81.87,-34.56,-0.1254484509601614,-0.8526344233139759,0.7780688697042901,-156.36226771891504,-3.335085177891311,-11.789339646395064,-0.1747,-0.9788,-0.0291,-0.1027
64,1151363.0,924.563535,1.0,1.97,2.84,-8.33,-10.5,-30.37,27.37,18.12,-60.13,-24.19,0.5768856990486737,-0.2675416625385454,0.8104827967384214,-157.6856148741907,-3.793673550039814,-9.614047461503418,-0.1711,-0.9811,-0.0331,-0.0838
65,1151363.0,924.563535,1.0,1.97,2.84,-8.33,-10.5,-30.37,27.37,18.12,-60.13,-24.19,0.5768856990486737,-0.2675416625385454,0.8104827967384214,-157.6856148741907,-3.793673550039814,-9.614047461503418,-0.1711,-0.9811,-0.0331,-0.0838
66,1151395.0,924.614661,1.0,1.91,1.97,-9.78,-7.19,-29.19,28.69,34.19,-36.69,-24.12,0.5535957192969382,-1.414128450249745,-0.2368141685909517,-159.15467994543428,-4.516076369343336,-7.844187348567063,-0.163,-0.9835,-0.0394,-0.0684
67,1151395.0,924.614661,1.0,1.91,1.97,-9.78,-7.19,-29.19,28.69,34.19,-36.69,-24.12,0.5535957192969382,-1.414128450249745,-0.2368141685909517,-159.15467994543428,-4.516076369343336,-7.844187348567063,-0.163,-0.9835,-0.0394,-0.0684
68,1151432.0,924.6327449999999,1.0,0.59,1.47,-8.71,-4.38,-28.5,29.0,8.88,-40.19,-24.19,-0.4136559927145089,-1.365912919330294,1.069586957049122,-159.8633643903993,-4.997776256010228,-6.523783187455053,-0.1596,-0.9846,-0.0436,-0.0569
69,1151432.0,924.6327449999999,1.0,0.59,1.47,-8.71,-4.38,-28.5,29.0,8.88,-40.19,-24.19,-0.4136559927145089,-1.365912919330294,1.069586957049122,-159.8633643903993,-4.997776256010228,-6.523783187455053,-0.1596,-0.9846,-0.0436,-0.0569
70,1151469.0,924.6509279999999,1.0,-0.11,1.42,-8.24,-2.19,-28.06,29.56,0.19,-8.75,-15.81,-0.9235667315688624,-1.2065529572066012,1.5836727743356107,-159.8633643903993,-5.686074397008276,-5.6516548202737225,-0.1602,-0.9846,-0.0496,-0.0493
71,1151469.0,924.6509279999999,1.0,-0.11,1.42,-8.24,-2.19,-28.06,29.56,0.19,-8.75,-15.81,-0.9235667315688624,-1.2065529572066012,1.5836727743356107,-159.8633643903993,-5.686074397008276,-5.6516548202737225,-0.1602,-0.9846,-0.0496,-0.0493
72,1151502.0,924.6918,1.0,0.44,1.8,-8.79,-2.19,-28.06,29.56,8.63,-11.0,-10.06,-0.34444057882952633,-1.065102709829503,0.8934790207598162,-159.9948843845241,-5.97292446733722,-5.250129975900072,-0.1591,-0.9848,-0.0521,-0.0458
73,1151502.0,924.6918,1.0,0.44,1.8,-8.79,-2.19,-28.06,29.56,8.63,-11.0,-10.06,-0.34444057882952633,-1.065102709829503,0.8934790207598162,-159.9948843845241,-5.97292446733722,-5.250129975900072,-0.1591,-0.9848,-0.0521,-0.0458
74,1151539.0,924.705456,1.0,0.71,1.46,-9.63,-1.75,-27.75,30.0,6.69,2.31,-9.31,-0.17804203040796573,-1.6111660432644328,0.1762271112354643,-160.32749140960402,-6.271288310584378,-5.15836210329675,-0.1556,-0.9853,-0.0547,-0.045
75,1151539.0,924.705456,1.0,0.71,1.46,-9.63,-1.75,-27.75,30.0,6.69,2.31,-9.31,-0.17804203040796573,-1.6111660432644328,0.1762271112354643,-160.32749140960402,-6.271288310584378,-5.15836210329675,-0.1556,-0.9853,-0.0547,-0.045
76,1151574.0,924.760117,1.0,0.79,2.32,-9.8,-0.25,-27.75,28.75,-18.37,-4.94,-6.25,-0.02292114196341454,-0.9122626988553116,-0.25385452957148397,-159.9948843845241,-6.454917855397503,-5.078067932263361,-0.1581,-0.9848,-0.0563,-0.0443
77,1151574.0,924.760117,1.0,0.79,2.32,-9.8,-0.25,-27.75,28.75,-18.37,-4.94,-6.25,-0.02292114196341454,-0.9122626988553116,-0.25385452957148397,-159.9948843845241,-6.454917855397503,-5.078067932263361,-0.1581,-0.9848,-0.0563,-0.0443
78,1151608.0,924.77863,1.0,0.39,2.95,-9.93,-0.25,-27.75,28.75,6.31,-21.75,-2.0,-0.24612186378530446,-0.3608150364402836,-0.5504121576606096,-159.9290177639615,-6.48935022815341,-4.3669953627837845,-0.1603,-0.9847,-0.0566,-0.0381
79,1151608.0,924.77863,1.0,0.39,2.95,-9.93,-0.25,-27.75,28.75,6.31,-21.75,-2.0,-0.24612186378530446,-0.3608150364402836,-0.5504121576606096,-159.9290177639615,-6.48935022815341,-4.3669953627837845,-0.1603,-0.9847,-0.0566,-0.0381
80,1151643.0,924.8230189999999,1.0,-0.1,2.83,-9.69,-0.56,-27.75,29.69,-7.38,-12.19,-8.75,-0.6254955592274775,-0.3722698006179823,-0.2623703347165112,-159.8633643903993,-6.650042440520529,-3.82807003686826,-0.1617,-0.9846,-0.057999999999999996,-0.0334
81,1151643.0,924.8230189999999,1.0,-0.1,2.83,-9.69,-0.56,-27.75,29.69,-7.38,-12.19,-8.75,-0.6254955592274775,-0.3722698006179823,-0.2623703347165112,-159.8633643903993,-6.650042440520529,-3.82807003686826,-0.1617,-0.9846,-0.057999999999999996,-0.0334
82,1151680.0,924.88784,1.0,-0.23,2.5,-9.33,0.19,-27.75,29.19,5.56,-4.94,-7.5,-0.7177357903598561,-0.5487316153811921,0.187110044808918,-159.8633643903993,-6.856665996646211,-3.610231319265168,-0.1614,-0.9846,-0.0598,-0.0315
83,1151680.0,924.88784,1.0,-0.23,2.5,-9.33,0.19,-27.75,29.19,5.56,-4.94,-7.5,-0.7177357903598561,-0.5487316153811921,0.187110044808918,-159.8633643903993,-6.856665996646211,-3.610231319265168,-0.1614,-0.9846,-0.0598,-0.0315
84,1151715.0,924.8946119999999,1.0,-0.05,2.16,-9.26,0.19,-27.75,29.19,7.06,-3.31,-9.31,-0.535458630895802,-0.8442290219897135,0.35063279331993336,-159.9290177639615,-7.109236280779951,-3.4267983429423063,-0.16,-0.9847,-0.062,-0.0299
85,1151715.0,924.8946119999999,1.0,-0.05,2.16,-9.26,0.19,-27.75,29.19,7.06,-3.31,-9.31,-0.535458630895802,-0.8442290219897135,0.35063279331993336,-159.9290177639615,-7.109236280779951,-3.4267983429423063,-0.16,-0.9847,-0.062,-0.0299
86,1151748.0,924.9506640000001,1.0,0.23,2.18,-9.49,0.88,-29.0,29.69,5.75,-2.88,-9.31,-0.23663491781960744,-0.8954386499031797,0.11089868615494504,-160.06096636558732,-7.442222882076424,-3.243374149708243,-0.1579,-0.9849,-0.0649,-0.0283
87,1151748.0,924.9506640000001,1.0,0.23,2.18,-9.49,0.88,-29.0,29.69,5.75,-2.88,-9.31,-0.23663491781960744,-0.8954386499031797,0.11089868615494504,-160.06096636558732,-7.442222882076424,-3.243374149708243,-0.1579,-0.9849,-0.0649,-0.0283
88,1151782.0,924.968092,1.0,0.18,2.16,-9.5,1.25,-27.75,29.69,1.69,-5.88,-6.44,-0.2487742543246592,-0.8680758092938146,0.10445665211705267,-160.26052613773837,-7.671905315233598,-3.0370318442136965,-0.1556,-0.9852,-0.0669,-0.0265
89,1151782.0,924.968092,1.0,0.18,2.16,-9.5,1.25,-27.75,29.69,1.69,-5.88,-6.44,-0.2487742543246592,-0.8680758092938146,0.10445665211705267,-160.26052613773837,-7.671905315233598,-3.0370318442136965,-0.1556,-0.9852,-0.0669,-0.0265
90,1151819.0,925.0158560000001,1.0,0.06,2.17,-9.65,1.25,-27.75,29.69,3.25,-11.5,-1.12,-0.2925483175132915,-0.7912574162805943,-0.04846680210341958,-160.80272323312002,-7.7523014124211596,-2.589989743099661,-0.1505,-0.986,-0.0676,-0.0226
91,1151819.0,925.0158560000001,1.0,0.06,2.17,-9.65,1.25,-27.75,29.69,3.25,-11.5,-1.12,-0.2925483175132915,-0.7912574162805943,-0.04846680210341958,-160.80272323312002,-7.7523014124211596,-2.589989743099661,-0.1505,-0.986,-0.0676,-0.0226
92,1151852.0,925.039133,1.0,-0.56,2.15,-9.18,1.25,-27.75,29.69,-3.19,-6.44,-0.06,-0.8275847110166487,-0.5799097698202229,0.4158402263458374,-160.94065918134044,-7.717845476549469,-2.280522559802512,-0.15,-0.9862,-0.0673,-0.0199
93,1151852.0,925.039133,1.0,-0.56,2.15,-9.18,1.25,-27.75,29.69,-3.19,-6.44,-0.06,-0.8275847110166487,-0.5799097698202229,0.4158402263458374,-160.94065918134044,-7.717845476549469,-2.280522559802512,-0.15,-0.9862,-0.0673,-0.0199
94,1151889.0,925.0833779999999,1.0,-0.39,2.41,-9.45,0.5,-27.5,29.69,-9.19,9.88,1.25,-0.6796139622715405,-0.4866586908169202,0.08224831244420727,-160.66576217664587,-7.557060298129735,-2.4639083675369537,-0.1526,-0.9858,-0.0659,-0.0215
95,1151889.0,925.0833779999999,1.0,-0.39,2.41,-9.45,0.5,-27.5,29.69,-9.19,9.88,1.25,-0.6796139622715405,-0.4866586908169202,0.08224831244420727,-160.66576217664587,-7.557060298129735,-2.4639083675369537,-0.1526,-0.9858,-0.0659,-0.0215
96,1151926.0,925.1502830000001,1.0,-0.08,2.55,-9.54,1.69,-28.56,29.69,-0.19,3.06,0.69,-0.3955031780725101,-0.4370244761938085,-0.05099103847071973,-160.59764077497127,-7.5455762164051485,-2.658762714530565,-0.1534,-0.9857,-0.0658,-0.0232
97,1151926.0,925.1502830000001,1.0,-0.08,2.55,-9.54,1.69,-28.56,29.69,-0.19,3.06,0.69,-0.3955031780725101,-0.4370244761938085,-0.05099103847071973,-160.59764077497127,-7.5455762164051485,-2.658762714530565,-0.1534,-0.9857,-0.0658,-0.0232
98,1151959.0,925.1578210000001,1.0,-0.02,2.28,-9.48,1.69,-28.56,29.69,-2.56,5.88,-2.75,-0.3684326636161409,-0.6364302532158291,0.08407760864325907,-160.80272323312002,-7.648935698119245,-2.704611892754087,-0.1511,-0.986,-0.0667,-0.0236
99,1151959.0,925.1578210000001,1.0,-0.02,2.28,-9.48,1.69,-28.56,29.69,-2.56,5.88,-2.75,-0.3684326636161409,-0.6364302532158291,0.08407760864325907,-160.80272323312002,-7.648935698119245,-2.704611892754087,-0.1511,-0.986,-0.0667,-0.0236
100,1151993.0,925.1769099999999,1.0,0.25,2.65,-9.66,1.25,-29.0,28.87,-1.75,0.0,-3.19,-0.07463059173724447,-0.393212364242062,-0.20536349936086215,-160.66576217664587,-7.729330710703709,-2.7504615040371316,-0.1519,-0.9858,-0.0674,-0.024
101,1151993.0,925.1769099999999,1.0,0.25,2.65,-9.66,1.25,-29.0,28.87,-1.75,0.0,-3.19,-0.07463059173724447,-0.393212364242062,-0.20536349936086215,-160.66576217664587,-7.729330710703709,-2.7504615040371316,-0.1519,-0.9858,-0.0674,-0.024
102,1152030.0,925.229528,1.0,0.21,2.27,-9.73,1.25,-28.19,30.19,1.63,-5.19,0.5,-0.1458396865717281,-0.7303975653596739,-0.15904868008948905,-160.8715680310398,-7.7523014124211596,-2.6473004867786654,-0.15,-0.9861,-0.0676,-0.0231
103,1152030.0,925.229528,1.0,0.21,2.27,-9.73,1.25,-28.19,30.19,1.63,-5.19,0.5,-0.1458396865717281,-0.7303975653596739,-0.15904868008948905,-160.8715680310398,-7.7523014124211596,-2.6473004867786654,-0.15,-0.9861,-0.0676,-0.0231
104,1152065.0,925.2493910000001,1.0,-0.21,2.58,-9.48,1.25,-28.19,30.19,-8.88,-5.19,2.19,-0.478308727406836,-0.3352222314950377,-0.003026183075458988,-160.80272323312002,-7.671905315233598,-2.4639083675369537,-0.1514,-0.986,-0.0669,-0.0215
105,1152065.0,925.2493910000001,1.0,-0.21,2.58,-9.48,1.25,-28.19,30.19,-8.88,-5.19,2.19,-0.478308727406836,-0.3352222314950377,-0.003026183075458988,-160.80272323312002,-7.671905315233598,-2.4639083675369537,-0.1514,-0.986,-0.0669,-0.0215
106,1152098.0,925.296499,1.0,-0.17,2.55,-9.92,2.38,-27.06,30.06,0.25,-6.69,1.5,-0.4488219886633005,-0.5318056796544429,-0.4136015400346018,-160.59764077497127,-7.729330710703709,-2.337829975144579,-0.1529,-0.9857,-0.0674,-0.0204
107,1152098.0,925.296499,1.0,-0.17,2.55,-9.92,2.38,-27.06,30.06,0.25,-6.69,1.5,-0.4488219886633005,-0.5318056796544429,-0.4136015400346018,-160.59764077497127,-7.729330710703709,-2.337829975144579,-0.1529,-0.9857,-0.0674,-0.0204
108,1152133.0,925.319566,1.0,-0.52,2.47,-9.33,0.5,-27.75,30.56,-4.63,1.63,0.19,-0.7587046479112468,-0.3929669059207137,0.17907791415774632,-160.66576217664587,-7.522608280519941,-2.24613838532295,-0.1533,-0.9858,-0.0656,-0.0196
109,1152133.0,925.319566,1.0,-0.52,2.47,-9.33,0.5,-27.75,30.56,-4.63,1.63,0.19,-0.7587046479112468,-0.3929669059207137,0.17907791415774632,-160.66576217664587,-7.522608280519941,-2.24613838532295,-0.1533,-0.9858,-0.0656,-0.0196
110,1152169.0,925.3666929999999,1.0,-0.14,2.52,-9.54,0.5,-27.5,30.06,4.75,3.63,-1.19,-0.4141520832770799,-0.4607620664860559,-0.04209491343971905,-160.66576217664587,-7.407773121999347,-2.383676327772471,-0.1534,-0.9858,-0.0646,-0.0208
111,1152169.0,925.3666929999999,1.0,-0.14,2.52,-9.54,0.5,-27.5,30.06,4.75,3.63,-1.19,-0.4141520832770799,-0.4607620664860559,-0.04209491343971905,-160.66576217664587,-7.407773121999347,-2.383676327772471,-0.1534,-0.9858,-0.0646,-0.0208
112,1152204.0,925.437185,1.0,-0.02,2.4,-9.4,0.5,-27.5,30.06,-0.88,2.81,-4.06,-0.30824916464941965,-0.5358628983051043,0.12479927781299692,-160.66576217664587,-7.522608280519941,-2.440984806055245,-0.1528,-0.9858,-0.0656,-0.0213
113,1152204.0,925.437185,1.0,-0.02,2.4,-9.4,0.5,-27.5,30.06,-0.88,2.81,-4.06,-0.30824916464941965,-0.5358628983051043,0.12479927781299692,-160.66576217664587,-7.522608280519941,-2.440984806055245,-0.1528,-0.9858,-0.0656,-0.0213
114,1152241.0,925.4587310000001,1.0,-0.01,2.37,-9.45,1.69,-28.19,30.06,3.31,5.44,0.06,-0.3194615477826616,-0.5633949005911271,0.0855373833559483,-160.73412214644492,-7.648935698119245,-2.544141615361497,-0.152,-0.9859,-0.0667,-0.0222
115,1152241.0,925.4587310000001,1.0,-0.01,2.37,-9.45,1.69,-28.19,30.06,3.31,5.44,0.06,-0.3194615477826616,-0.5633949005911271,0.0855373833559483,-160.73412214644492,-7.648935698119245,-2.544141615361497,-0.152,-0.9859,-0.0667,-0.0222
116,1152274.0,925.4619,1.0,0.31,2.41,-9.82,2.0,-27.75,29.69,-1.88,3.81,3.69,-0.03024079892886175,-0.6277549854685128,-0.28996374780176204,-161.00999937311443,-7.6259663887868285,-2.6129139620146145,-0.1495,-0.9863,-0.0665,-0.0228
117,1152274.0,925.4619,1.0,0.31,2.41,-9.82,2.0,-27.75,29.69,-1.88,3.81,3.69,-0.03024079892886175,-0.6277549854685128,-0.28996374780176204,-161.00999937311443,-7.6259663887868285,-2.6129139620146145,-0.1495,-0.9863,-0.0665,-0.0228
118,1152309.0,925.511727,1.0,-0.11,2.63,-9.67,2.0,-27.75,29.69,-6.13,-5.0,2.56,-0.3917413521617129,-0.3683156385097868,-0.200786350206565,-160.80272323312002,-7.465189762811248,-2.47537018520181,-0.1519,-0.986,-0.0651,-0.0216
119,1152309.0,925.511727,1.0,-0.11,2.63,-9.67,2.0,-27.75,29.69,-6.13,-5.0,2.56,-0.3917413521617129,-0.3683156385097868,-0.200786350206565,-160.80272323312002,-7.465189762811248,-2.47537018520181,-0.1519,-0.986,-0.0651,-0.0216
120,1152344.0,925.5306119999999,1.0,-0.4,2.56,-9.57,0.5,-27.5,28.75,-6.38,0.31,1.31,-0.6767361561183876,-0.3894536602181264,-0.07711719786260396,-160.80272323312002,-7.269980754447582,-2.4180613422720283,-0.153,-0.986,-0.0634,-0.0211
121,1152344.0,925.5306119999999,1.0,-0.4,2.56,-9.57,0.5,-27.5,28.75,-6.38,0.31,1.31,-0.6767361561183876,-0.3894536602181264,-0.07711719786260396,-160.80272323312002,-7.269980754447582,-2.4180613422720283,-0.153,-0.986,-0.0634,-0.0211
122,1152380.0,925.5843160000001,1.0,0.04,2.94,-9.69,1.69,-27.75,29.69,2.25,1.31,-2.44,-0.2197282633424064,-0.1518343925897947,-0.3160949739443417,-160.59764077497127,-7.315910364212048,-2.509755787270372,-0.1544,-0.9857,-0.0638,-0.0219
123,1152380.0,925.5843160000001,1.0,0.04,2.94,-9.69,1.69,-27.75,29.69,2.25,1.31,-2.44,-0.2197282633424064,-0.1518343925897947,-0.3160949739443417,-160.59764077497127,-7.315910364212048,-2.509755787270372,-0.1544,-0.9857,-0.0638,-0.0219
124,1152415.0,925.6046240000001,1.0,0.01,2.32,-9.41,1.69,-27.75,29.69,1.25,4.06,-2.69,-0.31045889426443224,-0.6249476955336013,0.14002413298624994,-160.66576217664587,-7.407773121999347,-2.555603608821701,-0.1532,-0.9858,-0.0646,-0.0223
125,1152415.0,925.6046240000001,1.0,0.01,2.32,-9.41,1.69,-27.75,29.69,1.25,4.06,-2.69,-0.31045889426443224,-0.6249476955336013,0.14002413298624994,-160.66576217664587,-7.407773121999347,-2.555603608821701,-0.1532,-0.9858,-0.0646,-0.0223
126,1152448.0,925.651425,1.0,0.05,2.39,-9.33,2.0,-29.0,28.37,-1.19,5.0,-1.56,-0.2741403889322692,-0.5409918468472735,0.1943831045792912,-160.59764077497127,-7.557060298129735,-2.670224968889185,-0.1533,-0.9857,-0.0659,-0.0233
127,1152448.0,925.651425,1.0,0.05,2.39,-9.33,2.0,-29.0,28.37,-1.19,5.0,-1.56,-0.2741403889322692,-0.5409918468472735,0.1943831045792912,-160.59764077497127,-7.557060298129735,-2.670224968889185,-0.1533,-0.9857,-0.0659,-0.0233
128,1152483.0,925.7203099999999,1.0,0.36,2.48,-9.67,1.69,-27.75,30.69,-5.31,-0.31,0.63,0.010632401228216806,-0.5854002467021493,-0.1656162170243558,-160.66576217664587,-7.568544455864769,-2.738999060214957,-0.1526,-0.9858,-0.066,-0.0239
129,1152483.0,925.7203099999999,1.0,0.36,2.48,-9.67,1.69,-27.75,30.69,-5.31,-0.31,0.63,0.010632401228216806,-0.5854002467021493,-0.1656162170243558,-160.66576217664587,-7.568544455864769,-2.738999060214957,-0.1526,-0.9858,-0.066,-0.0239
130,1152520.0,925.728372,1.0,-0.17,2.56,-9.33,1.25,-28.56,29.69,-11.13,-1.88,2.94,-0.4664587979307721,-0.3942466107282121,0.1496118515943401,-160.39468315225946,-7.453706284964303,-2.6129139620146145,-0.1555,-0.9854,-0.065,-0.0228
131,1152520.0,925.728372,1.0,-0.17,2.56,-9.33,1.25,-28.56,29.69,-11.13,-1.88,2.94,-0.4664587979307721,-0.3942466107282121,0.1496118515943401,-160.39468315225946,-7.453706284964303,-2.6129139620146145,-0.1555,-0.9854,-0.065,-0.0228
132,1152552.0,925.747701,1.0,-0.53,2.92,-9.42,1.25,-28.56,29.69,-10.19,-4.19,3.44,-0.7785664511021038,-0.0930626926611473,-0.03859624458184818,-160.12726585571855,-7.338875609975954,-2.532679647359437,-0.1584,-0.985,-0.064,-0.0221
133,1152552.0,925.747701,1.0,-0.53,2.92,-9.42,1.25,-28.56,29.69,-10.19,-4.19,3.44,-0.7785664511021038,-0.0930626926611473,-0.03859624458184818,-160.12726585571855,-7.338875609975954,-2.532679647359437,-0.1584,-0.985,-0.064,-0.0221
134,1152591.0,925.799235,1.0,0.04,3.0,-9.83,1.69,-27.75,30.06,1.31,5.94,2.44,-0.2647485986644865,-0.2429456922797879,-0.4647367403631471,-160.06096636558732,-7.247016388579905,-2.704611892754087,-0.1596,-0.9849,-0.0632,-0.0236
135,1152591.0,925.799235,1.0,0.04,3.0,-9.83,1.69,-27.75,30.06,1.31,5.94,2.44,-0.2647485986644865,-0.2429456922797879,-0.4647367403631471,-160.06096636558732,-7.247016388579905,-2.704611892754087,-0.1596,-0.9849,-0.0632,-0.0236
136,1152626.0,925.8173519999999,1.0,0.15,2.69,-9.53,1.25,-28.56,28.75,7.44,2.56,-1.06,-0.1875988315772157,-0.4227912706297772,-0.08605206869033921,-160.19378503937315,-7.247016388579905,-2.807774138332147,-0.158,-0.9851,-0.0632,-0.0245
137,1152626.0,925.8173519999999,1.0,0.15,2.69,-9.53,1.25,-28.56,28.75,7.44,2.56,-1.06,-0.1875988315772157,-0.4227912706297772,-0.08605206869033921,-160.19378503937315,-7.247016388579905,-2.807774138332147,-0.158,-0.9851,-0.0632,-0.0245
138,1152659.0,925.8217890000001,1.0,0.02,2.45,-9.37,1.25,-28.56,28.75,2.81,1.25,-3.31,-0.33517680940659994,-0.554488496348947,0.14331729260279147,-160.32749140960402,-7.384806987935718,-2.8421620551927376,-0.1566,-0.9853,-0.0644,-0.0248
139,1152659.0,925.8217890000001,1.0,0.02,2.45,-9.37,1.25,-28.56,28.75,2.81,1.25,-3.31,-0.33517680940659994,-0.554488496348947,0.14331729260279147,-160.32749140960402,-7.384806987935718,-2.8421620551927376,-0.1566,-0.9853,-0.0644,-0.0248
140,1152694.0,925.8675199999999,1.0,0.12,2.52,-9.34,0.88,-28.56,28.87,-1.19,1.0,-0.94,-0.23111933000126603,-0.4927176124761243,0.1472393963629628,-160.26052613773837,-7.407773121999347,-2.87655022805785,-0.1566,-0.9852,-0.0646,-0.0251
141,1152694.0,925.8675199999999,1.0,0.12,2.52,-9.34,0.88,-28.56,28.87,-1.19,1.0,-0.94,-0.23111933000126603,-0.4927176124761243,0.1472393963629628,-160.26052613773837,-7.407773121999347,-2.87655022805785,-0.1566,-0.9852,-0.0646,-0.0251
142,1152731.0,925.9297970000001,1.0,0.03,2.52,-9.17,0.88,-29.69,28.37,-2.38,0.94,1.94,-0.2977451326455887,-0.4139671381430423,0.31032549814542604,-160.39468315225946,-7.315910364212048,-2.807774138332147,-0.1558,-0.9854,-0.0638,-0.0245
143,1152731.0,925.9297970000001,1.0,0.03,2.52,-9.17,0.88,-29.69,28.37,-2.38,0.94,1.94,-0.2977451326455887,-0.4139671381430423,0.31032549814542604,-160.39468315225946,-7.315910364212048,-2.807774138332147,-0.1558,-0.9854,-0.0638,-0.0245
144,1152765.0,925.9373130000001,1.0,-0.43,2.75,-9.09,0.88,-29.69,28.37,-13.0,4.31,3.0,-0.7314518764982257,-0.13802071743469013,0.3292332404644114,-160.26052613773837,-7.258498535026432,-2.8536247508829486,-0.1572,-0.9852,-0.0633,-0.0249
145,1152765.0,925.9373130000001,1.0,-0.43,2.75,-9.09,0.88,-29.69,28.37,-13.0,4.31,3.0,-0.7314518764982257,-0.13802071743469013,0.3292332404644114,-160.26052613773837,-7.258498535026432,-2.8536247508829486,-0.1572,-0.9852,-0.0633,-0.0249
