,TIME,ELAPSED_SECONDS,PSTATE,acc_x,acc_y,acc_z,mag_x,mag_y,mag_z,gyr_x,gyr_y,gyr_z,lin_x,lin_y,lin_z,eul_x,eul_y,eul_z,qua_w,qua_x,qua_y,qua_z
0,2018177.0,1980.207033,1.0,-1.97,5.85,-7.72,20.87,-28.69,7.56,1.75,-0.12,-0.56,0.07001477540455063,-0.24358002792487546,-0.07452233435492239,-122.04262905399635,-40.36359153375482,-0.9740399810272836,-0.3401,-0.8748,-0.345,-0.0085
1,2018177.0,1980.207033,1.0,-1.97,5.85,-7.72,20.87,-28.69,7.56,1.75,-0.12,-0.56,0.07001477540455063,-0.24358002792487546,-0.07452233435492239,-122.04262905399635,-40.36359153375482,-0.9740399810272836,-0.3401,-0.8748,-0.345,-0.0085
2,2018211.0,1980.2099210000001,1.0,-2.23,5.72,-7.42,20.87,-29.0,8.5,-1.0,-0.56,-1.94,-0.12963754180995807,0.017982665299580702,0.17697862806304346,-121.99534211175566,-40.4124303196771,-0.9740399810272836,-0.3403,-0.8746,-0.3454,-0.0085
3,2018211.0,1980.2099210000001,1.0,-2.23,5.72,-7.42,20.87,-29.0,8.5,-1.0,-0.56,-1.94,-0.12963754180995807,0.017982665299580702,0.17697862806304346,-121.99534211175566,-40.4124303196771,-0.9740399810272836,-0.3403,-0.8746,-0.3454,-0.0085
4,2018246.0,1980.2723850000002,1.0,-2.35,5.8,-7.21,20.87,-29.0,8.5,-3.5,1.06,-0.69,-0.12882326758260804,0.2450798689278715,0.2635928156604024,-121.90087366081207,-40.43685258518578,-1.0084187350403075,-0.341,-0.8742,-0.3456,-0.0088
5,2018246.0,1980.2723850000002,1.0,-2.35,5.8,-7.21,20.87,-29.0,8.5,-3.5,1.06,-0.69,-0.12882326758260804,0.2450798689278715,0.2635928156604024,-121.90087366081207,-40.43685258518578,-1.0084187350403075,-0.341,-0.8742,-0.3456,-0.0088
6,2018279.0,1980.2950420000002,1.0,-2.21,5.88,-7.33,19.69,-29.0,8.75,0.12,1.81,0.31,-0.012263838774742977,0.13208204093707376,0.15419933021046894,-121.87727845049913,-40.461276767806375,-1.0657168616283692,-0.3411,-0.8741,-0.3458,-0.0093
7,2018279.0,1980.2950420000002,1.0,-2.21,5.88,-7.33,19.69,-29.0,8.75,0.12,1.81,0.31,-0.012263838774742977,0.13208204093707376,0.15419933021046894,-121.87727845049913,-40.461276767806375,-1.0657168616283692,-0.3411,-0.8741,-0.3458,-0.0093
8,2018316.0,1980.299111,1.0,-2.07,5.91,-7.35,20.06,-29.0,8.06,-0.5,3.44,0.94,0.09734871675288448,0.0585786655245184,0.15146529087651395,-121.87727845049913,-40.47348957852153,-1.1459346897143057,-0.3409,-0.8741,-0.3459,-0.01
9,2018316.0,1980.299111,1.0,-2.07,5.91,-7.35,20.06,-29.0,8.06,-0.5,3.44,0.94,0.09734871675288448,0.0585786655245184,0.15146529087651395,-121.87727845049913,-40.47348957852153,-1.1459346897143057,-0.3409,-0.8741,-0.3459,-0.01
10,2018351.0,1980.3404670000002,1.0,-1.95,5.92,-7.65,20.06,-29.0,8.06,2.88,2.69,0.81,0.11191759444226468,-0.1681162716746405,-0.05897777380397961,-121.92447762133864,-40.48570286910027,-1.2261530793833222,-0.3402,-0.8743,-0.34600000000000003,-0.0107
11,2018351.0,1980.3404670000002,1.0,-1.95,5.92,-7.65,20.06,-29.0,8.06,2.88,2.69,0.81,0.11191759444226468,-0.1681162716746405,-0.05897777380397961,-121.92447762133864,-40.48570286910027,-1.2261530793833222,-0.3402,-0.8743,-0.34600000000000003,-0.0107
12,2018383.0,1980.4076309999998,1.0,-1.86,5.87,-7.92,20.06,-29.0,8.5,-0.06,1.69,0.88,0.07911482588462497,-0.3912872085829466,-0.2174976028999396,-121.97171183603344,-40.510130890629796,-1.283452294756085,-0.3395,-0.8745,-0.3462,-0.0112
13,2018383.0,1980.4076309999998,1.0,-1.86,5.87,-7.92,20.06,-29.0,8.5,-0.06,1.69,0.88,0.07911482588462497,-0.3912872085829466,-0.2174976028999396,-121.97171183603344,-40.510130890629796,-1.283452294756085,-0.3395,-0.8745,-0.3462,-0.0112
14,2018420.0,1980.416127,1.0,-1.92,6.06,-7.74,20.06,-28.69,7.56,-0.37,-2.06,-0.81,0.19685184488787,-0.1538997277315608,-0.20610008301757252,-121.97171183603344,-40.510130890629796,-1.2490727279396536,-0.3397,-0.8745,-0.3462,-0.0109
15,2018420.0,1980.416127,1.0,-1.92,6.06,-7.74,20.06,-28.69,7.56,-0.37,-2.06,-0.81,0.19685184488787,-0.1538997277315608,-0.20610008301757252,-121.97171183603344,-40.510130890629796,-1.2490727279396536,-0.3397,-0.8745,-0.3462,-0.0109
16,2018455.0,1980.4589030000002,1.0,-2.3,5.69,-7.4,21.19,-28.69,8.0,-1.75,-2.06,-1.88,-0.21208557107636886,0.07641327143051146,0.19544400270233986,-121.94809034282369,-40.53456083395825,-1.1573944243672372,-0.3397,-0.8744,-0.3464,-0.0101
17,2018455.0,1980.4589030000002,1.0,-2.3,5.69,-7.4,21.19,-28.69,8.0,-1.75,-2.06,-1.88,-0.21208557107636886,0.07641327143051146,0.19544400270233986,-121.94809034282369,-40.53456083395825,-1.1573944243672372,-0.3397,-0.8744,-0.3464,-0.0101
18,2018490.0,1980.4813420000003,1.0,-2.26,5.77,-7.34,21.19,-28.69,8.0,-0.63,-1.75,0.06,-0.11728317262797848,0.11308406753100053,0.20198672370087856,-121.87727845049913,-40.52234562197142,-1.1115555540621913,-0.3404,-0.8741,-0.3463,-0.0097
19,2018490.0,1980.4813420000003,1.0,-2.26,5.77,-7.34,21.19,-28.69,8.0,-0.63,-1.75,0.06,-0.11728317262797848,0.11308406753100053,0.20198672370087856,-121.87727845049913,-40.52234562197142,-1.1115555540621913,-0.3404,-0.8741,-0.3463,-0.0097
20,2018525.0,1980.5233620000001,1.0,-2.08,5.87,-7.36,20.06,-29.0,8.0,-0.19,0.69,1.25,0.07235649401003565,0.04302572616743428,0.1658090966004231,-121.90087366081207,-40.497916639737895,-1.1115555540621913,-0.3405,-0.8742,-0.3461,-0.0097
21,2018525.0,1980.5233620000001,1.0,-2.08,5.87,-7.36,20.06,-29.0,8.0,-0.19,0.69,1.25,0.07235649401003565,0.04302572616743428,0.1658090966004231,-121.90087366081207,-40.497916639737895,-1.1115555540621913,-0.3405,-0.8742,-0.3461,-0.0097
22,2018560.0,1980.5774149999997,1.0,-1.81,5.85,-7.4,20.5,-28.69,8.0,5.25,-0.25,-0.63,0.2697250854364206,-0.13768882668555182,0.2062911439315336,-121.99534211175566,-40.497916639737895,-1.0657168616283692,-0.3394,-0.8746,-0.3461,-0.0093
23,2018560.0,1980.5774149999997,1.0,-1.81,5.85,-7.4,20.5,-28.69,8.0,5.25,-0.25,-0.63,0.2697250854364206,-0.13768882668555182,0.2062911439315336,-121.99534211175566,-40.497916639737895,-1.0657168616283692,-0.3394,-0.8746,-0.3461,-0.0093
24,2018594.0,1980.593566,1.0,-1.87,5.11,-7.2,20.5,-28.69,8.0,5.0,-1.5,-0.12,-0.14784617740380546,-0.35733288393277096,0.7900289744778881,-122.11362560713808,-40.497916639737895,-0.9740399810272836,-0.3381,-0.8751,-0.3461,-0.0085
25,2018594.0,1980.593566,1.0,-1.87,5.11,-7.2,20.5,-28.69,8.0,5.0,-1.5,-0.12,-0.14784617740380546,-0.35733288393277096,0.7900289744778881,-122.11362560713808,-40.497916639737895,-0.9740399810272836,-0.3381,-0.8751,-0.3461,-0.0085
26,2018627.0,1980.635231,1.0,-1.97,4.65,-7.04,20.5,-29.0,7.56,3.06,0.5,1.94,-0.4523176891831974,-0.4323445199483991,1.1652677654195536,-122.25585789752888,-40.43685258518578,-0.93966131468631,-0.3372,-0.8757,-0.3456,-0.0082
27,2018627.0,1980.635231,1.0,-1.97,4.65,-7.04,20.5,-29.0,7.56,3.06,0.5,1.94,-0.4523176891831974,-0.4323445199483991,1.1652677654195536,-122.25585789752888,-40.43685258518578,-0.93966131468631,-0.3372,-0.8757,-0.3456,-0.0082
28,2018664.0,1980.707752,1.0,-1.67,3.73,-6.24,21.19,-29.37,7.56,4.31,0.12,4.63,-0.5817843937148792,-0.6293655703691954,2.396870927850569,-122.35085755126808,-40.351383033032214,-0.9740399810272836,-0.3367,-0.8761,-0.3449,-0.0085
29,2018664.0,1980.707752,1.0,-1.67,3.73,-6.24,21.19,-29.37,7.56,4.31,0.12,4.63,-0.5817843937148792,-0.6293655703691954,2.396870927850569,-122.35085755126808,-40.351383033032214,-0.9740399810272836,-0.3367,-0.8761,-0.3449,-0.0085
30,2018699.0,1980.710265,1.0,-1.61,2.52,-5.75,21.19,-29.37,7.56,6.31,2.56,8.63,-1.1414030177969938,-1.0070450017199173,3.5068040085907777,-122.63671936413529,-40.16831276292925,-1.0313379546174166,-0.3352,-0.8773,-0.3434,-0.009000000000000001
31,2018699.0,1980.710265,1.0,-1.61,2.52,-5.75,21.19,-29.37,7.56,6.31,2.56,8.63,-1.1414030177969938,-1.0070450017199173,3.5068040085907777,-122.63671936413529,-40.16831276292925,-1.0313379546174166,-0.3352,-0.8773,-0.3434,-0.009000000000000001
32,2018734.0,1980.743287,1.0,-1.62,1.87,-5.27,20.06,-29.0,7.25,-8.25,20.75,28.75,-1.47339701906649,-1.041624918091593,4.271460865542472,-123.21239151549196,-39.54666937259589,-1.6043342375287626,-0.3339,-0.8797,-0.3383,-0.013999999999999999
33,2018734.0,1980.743287,1.0,-1.62,1.87,-5.27,20.06,-29.0,7.25,-8.25,20.75,28.75,-1.47339701906649,-1.041624918091593,4.271460865542472,-123.21239151549196,-39.54666937259589,-1.6043342375287626,-0.3339,-0.8797,-0.3383,-0.013999999999999999
34,2018768.0,1980.759403,1.0,-0.89,1.9,-4.73,20.5,-29.0,8.5,-22.31,25.69,40.38,-0.9145646368010396,-1.1249664095421248,4.8394554092360265,-123.6719537539127,-38.52541202617238,-3.2777655386010047,-0.3364,-0.8816,-0.3299,-0.0286
35,2018768.0,1980.759403,1.0,-0.89,1.9,-4.73,20.5,-29.0,8.5,-22.31,25.69,40.38,-0.9145646368010396,-1.1249664095421248,4.8394554092360265,-123.6719537539127,-38.52541202617238,-3.2777655386010047,-0.3364,-0.8816,-0.3299,-0.0286
36,2018805.0,1980.803093,1.0,-1.4,3.35,-2.85,19.69,-29.75,8.06,-42.0,47.63,55.25,-0.15899675679731756,1.0853217692026569,5.323147274605184,-123.86648635871313,-37.483123203499495,-5.15836210329675,-0.3408,-0.8824,-0.3213,-0.045
37,2018805.0,1980.803093,1.0,-1.4,3.35,-2.85,19.69,-29.75,8.06,-42.0,47.63,55.25,-0.15899675679731756,1.0853217692026569,5.323147274605184,-123.86648635871313,-37.483123203499495,-5.15836210329675,-0.3408,-0.8824,-0.3213,-0.045
38,2018840.0,1980.86758,1.0,-1.28,2.36,-3.34,19.69,-29.75,8.06,-5.31,67.25,64.37,-0.9705375854922588,0.2913742267438628,5.642906749613844,-124.72495975966049,-36.118460981567104,-8.372631359788455,-0.3372,-0.8859,-0.31,-0.073
39,2018840.0,1980.86758,1.0,-1.28,2.36,-3.34,19.69,-29.75,8.06,-5.31,67.25,64.37,-0.9705375854922588,0.2913742267438628,5.642906749613844,-124.72495975966049,-36.118460981567104,-8.372631359788455,-0.3372,-0.8859,-0.31,-0.073
40,2018875.0,1980.8857899999998,1.0,0.1,0.26,-4.54,17.06,-31.19,8.06,-20.25,88.69,80.19,-1.5111179185320258,-2.315963765495538,6.195274296309898,-125.3457502614118,-34.92721890485463,-11.466824127666605,-0.3327,-0.8884,-0.3001,-0.0999
41,2018875.0,1980.8857899999998,1.0,0.1,0.26,-4.54,17.06,-31.19,8.06,-20.25,88.69,80.19,-1.5111179185320258,-2.315963765495538,6.195274296309898,-125.3457502614118,-34.92721890485463,-11.466824127666605,-0.3327,-0.8884,-0.3001,-0.0999
42,2018912.0,1980.946841,1.0,0.86,0.52,-4.35,15.56,-31.56,9.25,-74.44,96.31,131.75,-1.034227874585012,-2.418601007507458,6.199262874958485,-125.62096841990898,-31.888273849894752,-16.813549410004512,-0.3345,-0.8895,-0.2747,-0.1462
43,2018912.0,1980.946841,1.0,0.86,0.52,-4.35,15.56,-31.56,9.25,-74.44,96.31,131.75,-1.034227874585012,-2.418601007507458,6.199262874958485,-125.62096841990898,-31.888273849894752,-16.813549410004512,-0.3345,-0.8895,-0.2747,-0.1462
44,2018947.0,1980.9503579999998,1.0,2.97,1.85,-4.45,15.56,-31.56,9.25,-44.19,106.25,165.38,0.7833876753550761,-2.699227337295804,4.892753833850701,-125.92268154117136,-28.45823232032684,-21.403893300909647,-0.3342,-0.8907,-0.2458,-0.1857
45,2018947.0,1980.9503579999998,1.0,2.97,1.85,-4.45,15.56,-31.56,9.25,-44.19,106.25,165.38,0.7833876753550761,-2.699227337295804,4.892753833850701,-125.92268154117136,-28.45823232032684,-21.403893300909647,-0.3342,-0.8907,-0.2458,-0.1857
46,2018981.0,1981.0036489999998,1.0,3.99,0.48,-4.74,12.19,-33.5,8.75,-62.06,124.81,166.56,0.5611910006669895,-4.063736957259054,5.138758976960012,-125.29584795913513,-23.63558298502357,-28.446410631571,-0.3299,-0.8882,-0.2048,-0.2457
47,2018981.0,1981.0036489999998,1.0,3.99,0.48,-4.74,12.19,-33.5,8.75,-62.06,124.81,166.56,0.5611910006669895,-4.063736957259054,5.138758976960012,-125.29584795913513,-23.63558298502357,-28.446410631571,-0.3299,-0.8882,-0.2048,-0.2457
48,2019016.0,1981.011264,1.0,7.0,0.06,-1.5,6.19,-36.06,8.0,-79.37,136.69,213.0,4.438791622736718,-4.102695343315786,5.970164648814973,-123.6476805433651,-19.343110284151184,-34.411030131340006,-0.3275,-0.8815,-0.168,-0.2958
49,2019016.0,1981.011264,1.0,7.0,0.06,-1.5,6.19,-36.06,8.0,-79.37,136.69,213.0,4.438791622736718,-4.102695343315786,5.970164648814973,-123.6476805433651,-19.343110284151184,-34.411030131340006,-0.3275,-0.8815,-0.168,-0.2958
50,2019053.0,1981.0494190000002,1.0,10.44,3.18,-3.94,1.0,-38.69,7.19,-66.94,148.0,238.31,4.464018132726177,-3.675733080751076,-0.25273012154646324,-120.61584152012749,-11.754779974813852,-43.08607465863793,-0.3164,-0.8687,-0.1024,-0.3672
51,2019053.0,1981.0494190000002,1.0,10.44,3.18,-3.94,1.0,-38.69,7.19,-66.94,148.0,238.31,4.464018132726177,-3.675733080751076,-0.25273012154646324,-120.61584152012749,-11.754779974813852,-43.08607465863793,-0.3164,-0.8687,-0.1024,-0.3672
52,2019088.0,1981.1133550000002,1.0,12.74,0.65,-2.54,1.0,-38.69,7.19,-118.62,154.19,204.94,5.766924962116534,-5.132652262775416,-0.6614041281913323,-114.72508670230465,-4.89454770282183,-51.787033887514276,-0.3136,-0.8421,-0.0427,-0.4367
53,2019088.0,1981.1133550000002,1.0,12.74,0.65,-2.54,1.0,-38.69,7.19,-118.62,154.19,204.94,5.766924962116534,-5.132652262775416,-0.6614041281913323,-114.72508670230465,-4.89454770282183,-51.787033887514276,-0.3136,-0.8421,-0.0427,-0.4367
54,2019125.0,1981.127764,1.0,15.12,4.75,1.51,-4.38,-40.88,2.19,-190.25,118.56,242.0,7.584782222502249,0.25236390875328674,-4.188505986796741,-108.70148376565115,2.0398374773549266,-57.802305908948476,-0.3251,-0.8126,0.0178,-0.4833
55,2019125.0,1981.127764,1.0,15.12,4.75,1.51,-4.38,-40.88,2.19,-190.25,118.56,242.0,7.584782222502249,0.25236390875328674,-4.188505986796741,-108.70148376565115,2.0398374773549266,-57.802305908948476,-0.3251,-0.8126,0.0178,-0.4833
56,2019162.0,1981.176948,1.0,16.58,4.59,1.99,-4.75,-39.25,-6.06,-107.94,113.87,231.25,5.992403333083942,1.3123233982754283,-6.388828060001293,-101.15784107033815,10.64941932234672,-64.98646672733051,-0.3257,-0.7725,0.0928,-0.5372
57,2019162.0,1981.176948,1.0,16.58,4.59,1.99,-4.75,-39.25,-6.06,-107.94,113.87,231.25,5.992403333083942,1.3123233982754283,-6.388828060001293,-101.15784107033815,10.64941932234672,-64.98646672733051,-0.3257,-0.7725,0.0928,-0.5372
58,2019196.0,1981.197034,1.0,17.54,4.67,1.63,-4.75,-39.25,-6.06,-140.75,106.44,215.63,3.818176740631775,1.8870044248410243,-7.9127783394789315,-95.54805066002704,16.686140017359815,-69.83551038215226,-0.3207,-0.7405,0.1451,-0.5724
59,2019196.0,1981.197034,1.0,17.54,4.67,1.63,-4.75,-39.25,-6.06,-140.75,106.44,215.63,3.818176740631775,1.8870044248410243,-7.9127783394789315,-95.54805066002704,16.686140017359815,-69.83551038215226,-0.3207,-0.7405,0.1451,-0.5724
60,2019231.0,1981.2397469999999,1.0,15.11,2.76,3.56,-10.56,-31.25,-8.38,-177.19,132.5,140.5,3.1929104488424698,2.5536572789029326,-5.421201370681901,-87.0703867564452,23.647290415990852,-75.20793134376436,-0.3336,-0.6888,0.2049,-0.6102
61,2019231.0,1981.2397469999999,1.0,15.11,2.76,3.56,-10.56,-31.25,-8.38,-177.19,132.5,140.5,3.1929104488424698,2.5536572789029326,-5.421201370681901,-87.0703867564452,23.647290415990852,-75.20793134376436,-0.3336,-0.6888,0.2049,-0.6102
62,2019268.0,1981.317741,1.0,14.14,0.85,7.09,-20.37,-25.25,-11.38,-230.0,140.5,124.31,4.927477338307488,4.081371294627168,-4.684470572124836,-79.68807312130106,28.65924846946876,-78.48441476201302,-0.3579,-0.6407,0.2475,-0.6326
63,2019268.0,1981.317741,1.0,14.14,0.85,7.09,-20.37,-25.25,-11.38,-230.0,140.5,124.31,4.927477338307488,4.081371294627168,-4.684470572124836,-79.68807312130106,28.65924846946876,-78.48441476201302,-0.3579,-0.6407,0.2475,-0.6326
64,2019305.0,1981.3213010000002,1.0,14.41,1.81,9.92,-24.56,-19.56,-18.0,-234.56,130.44,146.56,2.6778615258710783,7.106907356246116,-6.056878153534896,-69.27745617086707,36.311360803930285,-81.76349634670957,-0.3893,-0.5684,0.3116,-0.6545
65,2019305.0,1981.3213010000002,1.0,14.41,1.81,9.92,-24.56,-19.56,-18.0,-234.56,130.44,146.56,2.6778615258710783,7.106907356246116,-6.056878153534896,-69.27745617086707,36.311360803930285,-81.76349634670957,-0.3893,-0.5684,0.3116,-0.6545
66,2019340.0,1981.3675879999998,1.0,15.0,3.19,10.13,-24.56,-19.56,-18.0,-204.25,136.38,157.63,-1.9692564115362041,7.550397623264391,-6.833858553413473,-58.970568079244025,43.18464974314042,-85.03261129904976,-0.4069,-0.4922,0.368,-0.6758
67,2019340.0,1981.3675879999998,1.0,15.0,3.19,10.13,-24.56,-19.56,-18.0,-204.25,136.38,157.63,-1.9692564115362041,7.550397623264391,-6.833858553413473,-58.970568079244025,43.18464974314042,-85.03261129904976,-0.4069,-0.4922,0.368,-0.6758
68,2019377.0,1981.3820230000001,1.0,16.59,4.35,5.97,-26.0,-11.5,-23.19,-104.06,122.44,175.81,-6.9626294808873,3.4370405842412914,-6.609806460946662,-52.207762274679794,46.98137369898728,-88.03849807642652,-0.4058,-0.44,0.3986,-0.6949
69,2019377.0,1981.3820230000001,1.0,16.59,4.35,5.97,-26.0,-11.5,-23.19,-104.06,122.44,175.81,-6.9626294808873,3.4370405842412914,-6.609806460946662,-52.207762274679794,46.98137369898728,-88.03849807642652,-0.4058,-0.44,0.3986,-0.6949
70,2019414.0,1981.4337059999998,1.0,15.38,5.39,3.26,-25.06,-4.5,-29.06,-57.81,63.63,138.06,-10.159465804551983,1.2253215379693456,-3.2894540655122833,-45.57320299258629,50.073564719425185,-92.27420824035877,-0.3886,-0.3873,0.4232,-0.721
71,2019414.0,1981.4337059999998,1.0,15.38,5.39,3.26,-25.06,-4.5,-29.06,-57.81,63.63,138.06,-10.159465804551983,1.2253215379693456,-3.2894540655122833,-45.57320299258629,50.073564719425185,-92.27420824035877,-0.3886,-0.3873,0.4232,-0.721
72,2019450.0,1981.456066,1.0,12.76,5.54,5.04,-25.06,-4.5,-29.06,-52.75,42.63,68.12,-9.532462363570877,3.3725999575298764,-0.9946707902355244,-42.60599837478333,51.965432739188564,-93.43797599516577,-0.3821,-0.3633,0.4381,-0.728
73,2019450.0,1981.456066,1.0,12.76,5.54,5.04,-25.06,-4.5,-29.06,-52.75,42.63,68.12,-9.532462363570877,3.3725999575298764,-0.9946707902355244,-42.60599837478333,51.965432739188564,-93.43797599516577,-0.3821,-0.3633,0.4381,-0.728
74,2019485.0,1981.502639,1.0,15.24,4.02,5.11,-25.37,0.56,-31.87,-128.31,205.06,-80.81,-9.75631383702703,1.1419120953238535,-3.5365309206046516,-38.634678836735524,52.016428687631496,-93.67223499425869,-0.4077,-0.3308,0.4385,-0.7294
75,2019485.0,1981.502639,1.0,15.24,4.02,5.11,-25.37,0.56,-31.87,-128.31,205.06,-80.81,-9.75631383702703,1.1419120953238535,-3.5365309206046516,-38.634678836735524,52.016428687631496,-93.67223499425869,-0.4077,-0.3308,0.4385,-0.7294
76,2019520.0,1981.550599,1.0,11.76,8.97,6.49,-23.37,2.19,-33.56,-331.5,201.56,-151.69,-13.407374165115874,1.1143929111272357,0.8691421574181177,-29.464221664430085,55.96475865649774,-85.95326058406742,-0.5004,-0.2543,0.4692,-0.6817
77,2019520.0,1981.550599,1.0,11.76,8.97,6.49,-23.37,2.19,-33.56,-331.5,201.56,-151.69,-13.407374165115874,1.1143929111272357,0.8691421574181177,-29.464221664430085,55.96475865649774,-85.95326058406742,-0.5004,-0.2543,0.4692,-0.6817
78,2019557.0,1981.5706989999999,1.0,10.99,1.07,3.58,-16.19,9.06,-36.75,259.06,-1.88,-16.94,-5.100373042722415,-1.882990036055952,-0.4491748497712056,-31.26903222594612,51.01128734852718,-89.17537067204425,-0.4991,-0.2695,0.4306,-0.7020000000000001
79,2019557.0,1981.5706989999999,1.0,10.99,1.07,3.58,-16.19,9.06,-36.75,259.06,-1.88,-16.94,-5.100373042722415,-1.882990036055952,-0.4491748497712056,-31.26903222594612,51.01128734852718,-89.17537067204425,-0.4991,-0.2695,0.4306,-0.7020000000000001
80,2019592.0,1981.628811,1.0,8.36,-2.5,4.92,-16.19,9.06,-36.75,191.38,-71.81,-7.13,-0.1102518631926932,0.01824962075688563,-0.21001169329906053,-37.313754836919216,45.946335125324666,-92.39002905922057,-0.4737,-0.3199,0.3903,-0.7217
81,2019592.0,1981.628811,1.0,8.36,-2.5,4.92,-16.19,9.06,-36.75,191.38,-71.81,-7.13,-0.1102518631926932,0.01824962075688563,-0.21001169329906053,-37.313754836919216,45.946335125324666,-92.39002905922057,-0.4737,-0.3199,0.3903,-0.7217
82,2019627.0,1981.645684,1.0,7.29,-3.93,5.11,-17.06,3.38,-36.25,129.56,-31.94,-29.87,2.0536874578252293,0.14901190132175302,0.2955373795524938,-40.53456083395825,43.25860308220909,-93.571775871417,-0.4615,-0.3464,0.3686,-0.7288
83,2019627.0,1981.645684,1.0,7.29,-3.93,5.11,-17.06,3.38,-36.25,129.56,-31.94,-29.87,2.0536874578252293,0.14901190132175302,0.2955373795524938,-40.53456083395825,43.25860308220909,-93.571775871417,-0.4615,-0.3464,0.3686,-0.7288
84,2019663.0,1981.6860370000002,1.0,6.7,-4.01,5.88,-17.75,-0.25,-34.5,4.81,6.81,-47.25,2.8770345140741145,0.8519331876657119,0.5038879236820168,-42.59369907468167,40.97463022944533,-93.53831032521614,-0.4634,-0.3632,0.35,-0.7286
85,2019663.0,1981.6860370000002,1.0,6.7,-4.01,5.88,-17.75,-0.25,-34.5,4.81,6.81,-47.25,2.8770345140741145,0.8519331876657119,0.5038879236820168,-42.59369907468167,40.97463022944533,-93.53831032521614,-0.4634,-0.3632,0.35,-0.7286
86,2019698.0,1981.7025629999998,1.0,7.33,-3.2,4.77,-17.75,-0.25,-34.5,-8.38,38.31,-44.88,1.8133397997979352,-0.18354982186138533,0.6742949787930694,-42.163546289132256,40.510130890629796,-92.67181786365627,-0.4769,-0.3597,0.3462,-0.7234
87,2019698.0,1981.7025629999998,1.0,7.33,-3.2,4.77,-17.75,-0.25,-34.5,-8.38,38.31,-44.88,1.8133397997979352,-0.18354982186138533,0.6742949787930694,-42.163546289132256,40.510130890629796,-92.67181786365627,-0.4769,-0.3597,0.3462,-0.7234
88,2019733.0,1981.747194,1.0,8.16,-4.33,3.64,-17.75,-3.69,-33.19,11.81,30.69,-19.94,2.5494619578158817,-2.114832174431248,0.4465309516310061,-41.7585431287547,38.93838987087892,-92.95433457722172,-0.486,-0.3564,0.3333,-0.7251
89,2019733.0,1981.747194,1.0,8.16,-4.33,3.64,-17.75,-3.69,-33.19,11.81,30.69,-19.94,2.5494619578158817,-2.114832174431248,0.4465309516310061,-41.7585431287547,38.93838987087892,-92.95433457722172,-0.486,-0.3564,0.3333,-0.7251
90,2019768.0,1981.76452,1.0,8.47,-1.85,4.99,-17.75,-3.69,-34.5,-47.44,17.5,7.38,0.2312941883096553,-0.4390353064853672,-0.1842083714370375,-40.400219905352074,39.5953816587114,-92.754835123964,-0.4919,-0.3453,0.3387,-0.7239
91,2019768.0,1981.76452,1.0,8.47,-1.85,4.99,-17.75,-3.69,-34.5,-47.44,17.5,7.38,0.2312941883096553,-0.4390353064853672,-0.1842083714370375,-40.400219905352074,39.5953816587114,-92.754835123964,-0.4919,-0.3453,0.3387,-0.7239
92,2019805.0,1981.811125,1.0,8.56,0.67,5.98,-16.69,-2.88,-34.06,-39.44,12.69,10.25,-2.2331701912327673,1.0420256039186446,-0.3624224030153016,-39.19372713365675,40.68118093937297,-92.4562672082187,-0.4952,-0.3354,0.3476,-0.7221
93,2019805.0,1981.811125,1.0,8.56,0.67,5.98,-16.69,-2.88,-34.06,-39.44,12.69,10.25,-2.2331701912327673,1.0420256039186446,-0.3624224030153016,-39.19372713365675,40.68118093937297,-92.4562672082187,-0.4952,-0.3354,0.3476,-0.7221
94,2019840.0,1981.868331,1.0,8.79,0.34,5.37,-16.69,-2.88,-34.06,-5.75,15.25,0.94,-2.14255257304442,0.2463793959732488,-0.271314361168411,-38.53755098296754,40.69340241756593,-92.605449400739,-0.4975,-0.33,0.3477,-0.723
95,2019840.0,1981.868331,1.0,8.79,0.34,5.37,-16.69,-2.88,-34.06,-5.75,15.25,0.94,-2.14255257304442,0.2463793959732488,-0.271314361168411,-38.53755098296754,40.69340241756593,-92.605449400739,-0.4975,-0.33,0.3477,-0.723
96,2019876.0,1981.914193,1.0,8.46,-1.15,4.73,-15.88,-0.69,-34.88,18.37,-0.69,-9.06,-0.6596533122341093,-0.5671736003573253,0.08501579505707113,-38.707543665525726,40.204918245995174,-92.72162065181284,-0.4984,-0.3314,0.3437,-0.7237
97,2019876.0,1981.914193,1.0,8.46,-1.15,4.73,-15.88,-0.69,-34.88,18.37,-0.69,-9.06,-0.6596533122341093,-0.5671736003573253,0.08501579505707113,-38.707543665525726,40.204918245995174,-92.72162065181284,-0.4984,-0.3314,0.3437,-0.7237
98,2019913.0,1981.9319059999998,1.0,8.1,-1.66,5.51,-15.56,-2.25,-34.06,15.88,-9.69,-6.0,0.1437779054056283,0.13678349855228555,-0.12744876075534786,-39.40057712393039,39.79030547860814,-92.67181786365627,-0.4972,-0.3371,0.3403,-0.7234
99,2019913.0,1981.9319059999998,1.0,8.1,-1.66,5.51,-15.56,-2.25,-34.06,15.88,-9.69,-6.0,0.1437779054056283,0.13678349855228555,-0.12744876075534786,-39.40057712393039,39.79030547860814,-92.67181786365627,-0.4972,-0.3371,0.3403,-0.7234
100,2019946.0,1981.949547,1.0,8.15,-1.11,5.22,-15.56,-2.25,-34.06,-2.5,-1.0,-4.81,-0.4146161274736846,0.03705178424196332,0.07373056993569982,-39.522316021456795,39.814679382357845,-92.53912114130169,-0.4977,-0.3381,0.3405,-0.7226
101,2019946.0,1981.949547,1.0,8.15,-1.11,5.22,-15.56,-2.25,-34.06,-2.5,-1.0,-4.81,-0.4146161274736846,0.03705178424196332,0.07373056993569982,-39.522316021456795,39.814679382357845,-92.53912114130169,-0.4977,-0.3381,0.3405,-0.7226
102,2019981.0,1981.997584,1.0,8.26,-1.56,4.88,-15.75,-1.88,-35.25,4.38,-1.0,-8.19,-0.02283879843375369,-0.4259926740360431,0.0961603815021892,-39.71719501771099,39.644101400128214,-92.42314314089434,-0.4985,-0.3397,0.3391,-0.7219
103,2019981.0,1981.997584,1.0,8.26,-1.56,4.88,-15.75,-1.88,-35.25,4.38,-1.0,-8.19,-0.02283879843375369,-0.4259926740360431,0.0961603815021892,-39.71719501771099,39.644101400128214,-92.42314314089434,-0.4985,-0.3397,0.3391,-0.7219
104,2020016.0,1982.0181100000002,1.0,8.19,-0.93,5.2,-16.19,-1.88,-34.88,-7.38,-7.06,-4.44,-0.5394317919774565,0.07090229368394474,0.07602894034742214,-39.83905516372589,39.74156329781962,-92.25767235358332,-0.4987,-0.3407,0.3399,-0.7209
105,2020016.0,1982.0181100000002,1.0,8.19,-0.93,5.2,-16.19,-1.88,-34.88,-7.38,-7.06,-4.44,-0.5394317919774565,0.07090229368394474,0.07602894034742214,-39.83905516372589,39.74156329781962,-92.25767235358332,-0.4987,-0.3407,0.3399,-0.7209
106,2020052.0,1982.0669489999998,1.0,8.04,-0.75,5.33,-15.06,-2.69,-35.25,-5.31,-5.56,-3.81,-0.6350615971869473,0.3456810500682235,0.15832364879265093,-40.0341291935956,39.912193788917286,-92.04293113236928,-0.4984,-0.3423,0.3413,-0.7196
107,2020052.0,1982.0669489999998,1.0,8.04,-0.75,5.33,-15.06,-2.69,-35.25,-5.31,-5.56,-3.81,-0.6350615971869473,0.3456810500682235,0.15832364879265093,-40.0341291935956,39.912193788917286,-92.04293113236928,-0.4984,-0.3423,0.3413,-0.7196
108,2020087.0,1982.084677,1.0,7.84,-0.97,5.2,-15.06,-2.69,-35.25,0.31,-4.75,-3.5,-0.35232849460882165,0.2821910226203246,0.3598128118909987,-40.21712102458852,39.85124375899717,-91.84507796689995,-0.4995,-0.3438,0.3408,-0.7184
109,2020087.0,1982.084677,1.0,7.84,-0.97,5.2,-15.06,-2.69,-35.25,0.31,-4.75,-3.5,-0.35232849460882165,0.2821910226203246,0.3598128118909987,-40.21712102458852,39.85124375899717,-91.84507796689995,-0.4995,-0.3438,0.3408,-0.7184
110,2020124.0,1982.1229059999998,1.0,7.93,-0.92,5.51,-16.19,-1.88,-34.0,5.38,0.25,4.13,-0.35999837951110103,0.5193231862361738,0.1271818020571569,-40.4124303196771,39.72937892373464,-92.00993104367019,-0.4977,-0.3454,0.3398,-0.7194
111,2020124.0,1982.1229059999998,1.0,7.93,-0.92,5.51,-16.19,-1.88,-34.0,5.38,0.25,4.13,-0.35999837951110103,0.5193231862361738,0.1271818020571569,-40.4124303196771,39.72937892373464,-92.00993104367019,-0.4977,-0.3454,0.3398,-0.7194
112,2020159.0,1982.178466,1.0,8.18,-1.04,5.18,-16.56,-1.88,-34.5,1.88,1.31,3.38,-0.3623180356391127,0.0794756909958072,0.07583249808417314,-40.44906443675953,39.5953816587114,-92.17503011644877,-0.4968,-0.3457,0.3387,-0.7204
113,2020159.0,1982.178466,1.0,8.18,-1.04,5.18,-16.56,-1.88,-34.5,1.88,1.31,3.38,-0.3623180356391127,0.0794756909958072,0.07583249808417314,-40.44906443675953,39.5953816587114,-92.17503011644877,-0.4968,-0.3457,0.3387,-0.7204
114,2020192.0,1982.245155,1.0,8.39,-1.1,4.85,-16.56,-1.88,-34.5,1.12,-2.94,3.44,-0.4288925588612713,-0.30768638303658696,0.0677599060186882,-40.461276767806375,39.5953816587114,-92.32383080569313,-0.4955,-0.3458,0.3387,-0.7213
115,2020192.0,1982.245155,1.0,8.39,-1.1,4.85,-16.56,-1.88,-34.5,1.12,-2.94,3.44,-0.4288925588612713,-0.30768638303658696,0.0677599060186882,-40.461276767806375,39.5953816587114,-92.32383080569313,-0.4955,-0.3458,0.3387,-0.7213
116,2020227.0,1982.288488,1.0,8.18,-0.97,5.09,-15.75,-3.0,-34.5,-0.06,-4.19,2.56,-0.4554903166701516,0.05283343288621034,0.13446631689155808,-40.63229985656115,39.58320288872564,-92.4562672082187,-0.4933,-0.3472,0.3386,-0.7221
117,2020227.0,1982.288488,1.0,8.18,-0.97,5.09,-15.75,-3.0,-34.5,-0.06,-4.19,2.56,-0.4554903166701516,0.05283343288621034,0.13446631689155808,-40.63229985656115,39.58320288872564,-92.4562672082187,-0.4933,-0.3472,0.3386,-0.7221
118,2020263.0,1982.3055579999998,1.0,8.25,-1.02,5.28,-16.56,-2.69,-35.25,0.12,0.44,1.5,-0.3783677872389666,0.17286196419730324,-0.032468688120081524,-40.815643818297026,39.48578948035391,-92.55569944229441,-0.49200000000000005,-0.3487,0.3378,-0.7227
119,2020263.0,1982.3055579999998,1.0,8.25,-1.02,5.28,-16.56,-2.69,-35.25,0.12,0.44,1.5,-0.3783677872389666,0.17286196419730324,-0.032468688120081524,-40.815643818297026,39.48578948035391,-92.55569944229441,-0.49200000000000005,-0.3487,0.3378,-0.7227
120,2020298.0,1982.3095809999998,1.0,8.47,-0.89,5.15,-16.56,-2.69,-35.25,-3.88,2.94,-1.44,-0.5748575047333777,-0.013179012709867209,-0.12938870578590844,-40.79119166160576,39.449267117403366,-92.48940127300301,-0.4929,-0.3485,0.3375,-0.7223
121,2020298.0,1982.3095809999998,1.0,8.47,-0.89,5.15,-16.56,-2.69,-35.25,-3.88,2.94,-1.44,-0.5748575047333777,-0.013179012709867209,-0.12938870578590844,-40.79119166160576,39.449267117403366,-92.48940127300301,-0.4929,-0.3485,0.3375,-0.7223
122,2020331.0,1982.350729,1.0,8.63,-1.2,4.54,-15.75,-3.38,-34.75,-0.56,1.5,-7.06,-0.3905427064760634,-0.6931745745733139,0.014025969456220366,-40.96239758351413,39.266717795122325,-92.43970392561262,-0.4933,-0.3499,0.336,-0.722
123,2020331.0,1982.350729,1.0,8.63,-1.2,4.54,-15.75,-3.38,-34.75,-0.56,1.5,-7.06,-0.3905427064760634,-0.6931745745733139,0.014025969456220366,-40.96239758351413,39.266717795122325,-92.43970392561262,-0.4933,-0.3499,0.336,-0.722
124,2020368.0,1982.3678690000002,1.0,8.15,-1.28,5.11,-15.75,-2.25,-33.56,-9.38,-8.75,-11.94,-0.04618117591905047,0.024128554152804016,0.10251247460057478,-41.158178579890034,39.42492119409256,-91.99343468996643,-0.4952,-0.3515,0.3373,-0.7193
125,2020368.0,1982.3678690000002,1.0,8.15,-1.28,5.11,-15.75,-2.25,-33.56,-9.38,-8.75,-11.94,-0.04618117591905047,0.024128554152804016,0.10251247460057478,-41.158178579890034,39.42492119409256,-91.99343468996643,-0.4952,-0.3515,0.3373,-0.7193
126,2020403.0,1982.406282,1.0,7.95,-1.06,5.19,-16.19,-3.0,-33.19,-11.81,1.37,-10.5,-0.15705654492412102,0.2625377053454283,0.2584246573005249,-41.24387223496928,39.51014004319908,-91.61469420099053,-0.4975,-0.3522,0.33799999999999997,-0.7170000000000001
127,2020403.0,1982.406282,1.0,7.95,-1.06,5.19,-16.19,-3.0,-33.19,-11.81,1.37,-10.5,-0.15705654492412102,0.2625377053454283,0.2584246573005249,-41.24387223496928,39.51014004319908,-91.61469420099053,-0.4975,-0.3522,0.33799999999999997,-0.7170000000000001
128,2020438.0,1982.4671739999999,1.0,7.72,-0.99,5.28,-16.19,-3.0,-33.19,-9.94,1.37,-9.56,-0.14112051577904894,0.4661004217946332,0.4141138463922261,-41.145938594336435,39.644101400128214,-91.27000879817415,-0.5005,-0.3514,0.3391,-0.7149
129,2020438.0,1982.4671739999999,1.0,7.72,-0.99,5.28,-16.19,-3.0,-33.19,-9.94,1.37,-9.56,-0.14112051577904894,0.4661004217946332,0.4141138463922261,-41.145938594336435,39.644101400128214,-91.27000879817415,-0.5005,-0.3514,0.3391,-0.7149
130,2020474.0,1982.5357010000002,1.0,8.14,-0.83,5.07,-16.19,-2.25,-34.0,-13.69,-2.13,-4.19,-0.4265494088211959,0.13545004002653438,0.19139603099371527,-41.04803635831072,39.802492195876724,-90.926380189859,-0.5032,-0.3506,0.3404,-0.7128
131,2020474.0,1982.5357010000002,1.0,8.14,-0.83,5.07,-16.19,-2.25,-34.0,-13.69,-2.13,-4.19,-0.4265494088211959,0.13545004002653438,0.19139603099371527,-41.04803635831072,39.802492195876724,-90.926380189859,-0.5032,-0.3506,0.3404,-0.7128
132,2020509.0,1982.5532870000002,1.0,8.19,-0.6,5.11,-15.5,-1.88,-32.75,-12.81,0.06,-1.56,-0.6693912403861846,0.2181069103667224,0.16027530569413528,-40.90124166576177,40.05852194281655,-90.6652693687788,-0.5048,-0.3494,0.3425,-0.7112
133,2020509.0,1982.5532870000002,1.0,8.19,-0.6,5.11,-15.5,-1.88,-32.75,-12.81,0.06,-1.56,-0.6693912403861846,0.2181069103667224,0.16027530569413528,-40.90124166576177,40.05852194281655,-90.6652693687788,-0.5048,-0.3494,0.3425,-0.7112
134,2020544.0,1982.5854010000003,1.0,8.2,-0.57,5.15,-15.5,-1.88,-32.75,1.56,-1.0,4.5,-0.7294466940806394,0.2667829209889068,0.1379306228764996,-40.73006975326216,40.302553807332,-90.60008571252614,-0.5051,-0.348,0.3445,-0.7108
135,2020544.0,1982.5854010000003,1.0,8.2,-0.57,5.15,-15.5,-1.88,-32.75,1.56,-1.0,4.5,-0.7294466940806394,0.2667829209889068,0.1379306228764996,-40.73006975326216,40.302553807332,-90.60008571252614,-0.5051,-0.348,0.3445,-0.7108
136,2020579.0,1982.6032030000001,1.0,8.45,-1.01,4.67,-16.56,-1.88,-34.88,2.0,-4.19,8.69,-0.4711395336240818,-0.3379328565634949,0.11668978726892297,-40.80341749737214,40.38800996971994,-90.82839290633041,-0.502,-0.3486,0.3452,-0.7122
137,2020579.0,1982.6032030000001,1.0,8.45,-1.01,4.67,-16.56,-1.88,-34.88,2.0,-4.19,8.69,-0.4711395336240818,-0.3379328565634949,0.11668978726892297,-40.80341749737214,40.38800996971994,-90.82839290633041,-0.502,-0.3486,0.3452,-0.7122
138,2020616.0,1982.620005,1.0,8.34,-0.99,5.03,-15.75,-1.5,-35.56,3.5,-9.38,5.88,-0.4160734324867359,0.06912714118225849,0.02612320758587039,-40.97463022944533,40.5589927006499,-90.84471821404394,-0.5001,-0.35,0.3466,-0.7123
139,2020616.0,1982.620005,1.0,8.34,-0.99,5.03,-15.75,-1.5,-35.56,3.5,-9.38,5.88,-0.4160734324867359,0.06912714118225849,0.02612320758587039,-40.97463022944533,40.5589927006499,-90.84471821404394,-0.5001,-0.35,0.3466,-0.7123
140,2020648.0,1982.6619489999998,1.0,8.31,-1.3,5.0,-15.75,-1.5,-35.56,2.13,-6.0,2.25,-0.11040638415873216,0.011357864711970976,0.02228586995832416,-41.17041905633896,40.6200807923672,-90.84471821404394,-0.4985,-0.3516,0.3471,-0.7123
141,2020648.0,1982.6619489999998,1.0,8.31,-1.3,5.0,-15.75,-1.5,-35.56,2.13,-6.0,2.25,-0.11040638415873216,0.011357864711970976,0.02228586995832416,-41.17041905633896,40.6200807923672,-90.84471821404394,-0.4985,-0.3516,0.3471,-0.7123
142,2020683.0,1982.678888,1.0,8.38,-1.45,4.86,-15.5,-1.5,-36.06,-5.5,-5.63,1.81,-0.010759480658018905,-0.13778009537073932,0.01239653794912243,-41.26836056402613,40.827870624577365,-90.71418173754832,-0.4979,-0.3524,0.3488,-0.7115
143,2020683.0,1982.678888,1.0,8.38,-1.45,4.86,-15.5,-1.5,-36.06,-5.5,-5.63,1.81,-0.010759480658018905,-0.13778009537073932,0.01239653794912243,-41.26836056402613,40.827870624577365,-90.71418173754832,-0.4979,-0.3524,0.3488,-0.7115
