,TIME,ELAPSED_SECONDS,PSTATE,acc_x,acc_y,acc_z,mag_x,mag_y,mag_z,gyr_x,gyr_y,gyr_z,lin_x,lin_y,lin_z,eul_x,eul_y,eul_z,qua_w,qua_x,qua_y,qua_z
0,2222403.0,2184.7982260000003,1.0,-2.33,5.34,-8.02,23.0,-25.56,12.75,-3.13,0.12,2.88,0.1826550473331149,0.048970365954921664,-0.10441144855040284,-117.98502779819529,-49.24023317275956,-0.5844194845105756,-0.3028,-0.8571,-0.4166,-0.0051
1,2222403.0,2184.7982260000003,1.0,-2.33,5.34,-8.02,23.0,-25.56,12.75,-3.13,0.12,2.88,0.1826550473331149,0.048970365954921664,-0.10441144855040284,-117.98502779819529,-49.24023317275956,-0.5844194845105756,-0.3028,-0.8571,-0.4166,-0.0051
2,2222440.0,2184.8066120000003,1.0,-2.28,5.25,-8.0,23.75,-25.56,12.0,1.88,0.63,-0.25,0.1581654846409466,-0.014867640230915137,-0.028778950114086044,-118.00727569803878,-49.24023317275956,-0.5844194845105756,-0.3026,-0.8572,-0.4166,-0.0051
3,2222440.0,2184.8066120000003,1.0,-2.28,5.25,-8.0,23.75,-25.56,12.0,1.88,0.63,-0.25,0.1581654846409466,-0.014867640230915137,-0.028778950114086044,-118.00727569803878,-49.24023317275956,-0.5844194845105756,-0.3026,-0.8572,-0.4166,-0.0051
4,2222475.0,2184.870237,1.0,-2.34,5.22,-8.02,23.75,-25.56,12.0,1.5,1.81,-2.06,0.09756932760456882,0.014791328973213782,-0.04396731278288968,-117.98502779819529,-49.31587513221956,-0.60733810621587,-0.302,-0.8571,-0.4172,-0.0053
5,2222475.0,2184.870237,1.0,-2.34,5.22,-8.02,23.75,-25.56,12.0,1.5,1.81,-2.06,0.09756932760456882,0.014791328973213782,-0.04396731278288968,-117.98502779819529,-49.31587513221956,-0.60733810621587,-0.302,-0.8571,-0.4172,-0.0053
6,2222510.0,2184.889874,1.0,-2.29,4.77,-8.39,23.75,-25.56,11.19,6.13,5.31,-1.94,-0.2755439197404646,-0.3930310821166701,-0.10085736142973012,-117.98502779819529,-49.45461164689416,-0.6531754234266163,-0.3005,-0.8571,-0.4183,-0.0057
7,2222510.0,2184.889874,1.0,-2.29,4.77,-8.39,23.75,-25.56,11.19,6.13,5.31,-1.94,-0.2755439197404646,-0.3930310821166701,-0.10085736142973012,-117.98502779819529,-49.45461164689416,-0.6531754234266163,-0.3005,-0.8571,-0.4183,-0.0057
8,2222544.0,2184.936043,1.0,-2.22,5.15,-8.17,23.75,-25.56,12.0,-1.81,0.69,0.44,0.091213265335558,-0.14874607308549193,-0.10139495074424333,-117.98502779819529,-49.47984477339551,-0.7104722177704716,-0.3005,-0.8571,-0.4185,-0.0062
9,2222544.0,2184.936043,1.0,-2.22,5.15,-8.17,23.75,-25.56,12.0,-1.81,0.69,0.44,0.091213265335558,-0.14874607308549193,-0.10139495074424333,-117.98502779819529,-49.47984477339551,-0.7104722177704716,-0.3005,-0.8571,-0.4185,-0.0062
10,2222579.0,2184.9532600000002,1.0,-2.19,5.14,-8.38,23.75,-25.56,12.0,-0.19,-0.63,-0.25,0.05261437071488858,-0.27971936597870783,-0.2610751057173175,-118.00727569803878,-49.45461164689416,-0.687553479519944,-0.3003,-0.8572,-0.4183,-0.006
11,2222579.0,2184.9532600000002,1.0,-2.19,5.14,-8.38,23.75,-25.56,12.0,-0.19,-0.63,-0.25,0.05261437071488858,-0.27971936597870783,-0.2610751057173175,-118.00727569803878,-49.45461164689416,-0.687553479519944,-0.3003,-0.8572,-0.4183,-0.006
12,2222614.0,2184.995364,1.0,-2.43,5.07,-8.04,23.0,-25.56,13.19,-3.13,-3.69,-0.63,-0.06769438343664824,0.012437627204901158,-0.003888353010022883,-117.9627870826262,-49.41676675386262,-0.6417160846123932,-0.3013,-0.857,-0.418,-0.0056
13,2222614.0,2184.995364,1.0,-2.43,5.07,-8.04,23.0,-25.56,13.19,-3.13,-3.69,-0.63,-0.06769438343664824,0.012437627204901158,-0.003888353010022883,-117.9627870826262,-49.41676675386262,-0.6417160846123932,-0.3013,-0.857,-0.418,-0.0056
14,2222651.0,2185.049334,1.0,-2.38,5.1,-7.91,23.37,-26.0,12.0,-2.44,-2.31,1.12,0.01854116388608453,0.0440841381122894,0.09891015933633264,-117.94055354353924,-49.378927610894635,-0.60733810621587,-0.3019,-0.8569,-0.4177,-0.0053
15,2222651.0,2185.049334,1.0,-2.38,5.1,-7.91,23.37,-26.0,12.0,-2.44,-2.31,1.12,0.01854116388608453,0.0440841381122894,0.09891015933633264,-117.94055354353924,-49.378927610894635,-0.60733810621587,-0.3019,-0.8569,-0.4177,-0.0053
16,2222686.0,2185.109449,1.0,-2.26,5.43,-7.81,23.0,-26.0,12.0,-1.69,-2.94,1.37,0.3532118962979822,0.14424843228585438,0.037154939041290184,-117.9627870826262,-49.27805128980349,-0.5500415954991054,-0.3029,-0.857,-0.4169,-0.0048
17,2222686.0,2185.109449,1.0,-2.26,5.43,-7.81,23.0,-26.0,12.0,-1.69,-2.94,1.37,0.3532118962979822,0.14424843228585438,0.037154939041290184,-117.9627870826262,-49.27805128980349,-0.5500415954991054,-0.3029,-0.857,-0.4169,-0.0048
18,2222721.0,2185.128618,1.0,-2.4,5.13,-8.05,23.0,-26.0,12.0,-0.12,-0.31,-1.5,-0.00823181255955673,-0.020190263223326618,-0.03605920989404332,-117.94055354353924,-49.31587513221956,-0.5271230305187238,-0.3028,-0.8569,-0.4172,-0.0046
19,2222721.0,2185.128618,1.0,-2.4,5.13,-8.05,23.0,-26.0,12.0,-0.12,-0.31,-1.5,-0.00823181255955673,-0.020190263223326618,-0.03605920989404332,-117.94055354353924,-49.31587513221956,-0.5271230305187238,-0.3028,-0.8569,-0.4172,-0.0046
20,2222757.0,2185.174641,1.0,-2.29,5.12,-8.23,23.0,-25.56,12.75,-0.25,-0.75,-1.06,0.014604625584545757,-0.2036872393447644,-0.1507441477396423,-117.89610796371052,-49.353704706731605,-0.4927452222969898,-0.303,-0.8567,-0.4175,-0.0043
21,2222757.0,2185.174641,1.0,-2.29,5.12,-8.23,23.0,-25.56,12.75,-0.25,-0.75,-1.06,0.014604625584545757,-0.2036872393447644,-0.1507441477396423,-117.89610796371052,-49.353704706731605,-0.4927452222969898,-0.303,-0.8567,-0.4175,-0.0043
22,2222792.0,2185.192295,1.0,-2.42,5.05,-7.89,23.37,-26.25,11.19,0.81,-0.56,-1.19,-0.02526322335717536,0.024446692430849737,0.13143609390082922,-117.85169099664296,-49.378927610894635,-0.4469082131192447,-0.3032,-0.8565,-0.4177,-0.0039
23,2222792.0,2185.192295,1.0,-2.42,5.05,-7.89,23.37,-26.25,11.19,0.81,-0.56,-1.19,-0.02526322335717536,0.024446692430849737,0.13143609390082922,-117.85169099664296,-49.378927610894635,-0.4469082131192447,-0.3032,-0.8565,-0.4177,-0.0039
24,2222829.0,2185.197568,1.0,-2.24,5.17,-8.45,23.37,-26.25,11.19,-3.88,-2.06,-1.69,0.02640148770836181,-0.34682939185158945,-0.3436215399340252,-117.80730258048688,-49.39154002007115,-0.4583674584234223,-0.3037,-0.8563,-0.4178,-0.004
25,2222829.0,2185.197568,1.0,-2.24,5.17,-8.45,23.37,-26.25,11.19,-3.88,-2.06,-1.69,0.02640148770836181,-0.34682939185158945,-0.3436215399340252,-117.80730258048688,-49.39154002007115,-0.4583674584234223,-0.3037,-0.8563,-0.4178,-0.004
26,2222864.0,2185.2468329999997,1.0,-2.48,4.74,-7.82,23.0,-25.19,11.19,0.56,-3.56,-2.06,-0.259056321257557,-0.07406556225525797,0.3357575333470084,-117.69645604638977,-49.42938107897726,-0.3323159869732291,-0.3045,-0.8558,-0.4181,-0.0029
27,2222864.0,2185.2468329999997,1.0,-2.48,4.74,-7.82,23.0,-25.19,11.19,0.56,-3.56,-2.06,-0.259056321257557,-0.07406556225525797,0.3357575333470084,-117.69645604638977,-49.42938107897726,-0.3323159869732291,-0.3045,-0.8558,-0.4181,-0.0029
28,2222901.0,2185.303304,1.0,-2.56,4.67,-7.37,24.06,-25.19,11.56,-3.38,-2.13,-0.06,-0.2519876950909953,0.16231403034594916,0.7187703596726926,-117.63003319551184,-49.39154002007115,-0.3093975852894872,-0.3057,-0.8555,-0.4178,-0.0027
29,2222901.0,2185.303304,1.0,-2.56,4.67,-7.37,24.06,-25.19,11.56,-3.38,-2.13,-0.06,-0.2519876950909953,0.16231403034594916,0.7187703596726926,-117.63003319551184,-49.39154002007115,-0.3093975852894872,-0.3057,-0.8555,-0.4178,-0.0027
30,2222936.0,2185.306814,1.0,-2.59,4.4,-7.22,24.06,-25.19,11.56,-1.12,1.75,3.38,-0.4410453405373022,0.1400335427959658,0.9758873141114021,-117.69645604638977,-49.30326654818019,-0.3896120513439707,-0.3059,-0.8558,-0.4171,-0.0034
31,2222936.0,2185.306814,1.0,-2.59,4.4,-7.22,24.06,-25.19,11.56,-1.12,1.75,3.38,-0.4410453405373022,0.1400335427959658,0.9758873141114021,-117.69645604638977,-49.30326654818019,-0.3896120513439707,-0.3059,-0.8558,-0.4171,-0.0034
32,2222970.0,2185.346529,1.0,-2.25,4.59,-7.68,23.75,-24.5,11.19,-0.88,8.06,7.63,-0.24513445168532585,-0.2326498527609342,0.5871715360841989,-117.80730258048688,-49.17721568249704,-0.6531754234266163,-0.3058,-0.8563,-0.4161,-0.0057
33,2222970.0,2185.346529,1.0,-2.25,4.59,-7.68,23.75,-24.5,11.19,-0.88,8.06,7.63,-0.24513445168532585,-0.2326498527609342,0.5871715360841989,-117.80730258048688,-49.17721568249704,-0.6531754234266163,-0.3058,-0.8563,-0.4161,-0.0057
34,2223005.0,2185.4038649999998,1.0,-2.35,3.94,-7.41,23.37,-25.56,10.75,-0.75,7.56,8.44,-0.7487722034728537,-0.28112080982395593,1.1282566419186573,-118.07406258134459,-48.96307461903554,-1.0198783397289315,-0.3048,-0.8575,-0.4144,-0.0089
35,2223005.0,2185.4038649999998,1.0,-2.35,3.94,-7.41,23.37,-25.56,10.75,-0.75,7.56,8.44,-0.7487722034728537,-0.28112080982395593,1.1282566419186573,-118.07406258134459,-48.96307461903554,-1.0198783397289315,-0.3048,-0.8575,-0.4144,-0.0089
36,2223042.0,2185.4201940000003,1.0,-2.31,3.88,-7.57,23.37,-25.19,11.19,-8.69,12.19,17.37,-0.8858132759574645,-0.3903287120365422,1.0454641021493316,-118.27481372474286,-48.67364391258275,-1.5126525087430307,-0.3051,-0.8584,-0.4121,-0.0132
37,2223042.0,2185.4201940000003,1.0,-2.31,3.88,-7.57,23.37,-25.19,11.19,-8.69,12.19,17.37,-0.8858132759574645,-0.3903287120365422,1.0454641021493316,-118.27481372474286,-48.67364391258275,-1.5126525087430307,-0.3051,-0.8584,-0.4121,-0.0132
38,2223075.0,2185.459156,1.0,-1.84,4.09,-7.73,23.37,-25.19,11.19,-5.0,11.31,23.81,-0.6001671822630554,-0.6545778621609237,0.91407291707835,-118.83557102370405,-47.97031813194389,-2.269061145645111,-0.3054,-0.8609,-0.4065,-0.0198
39,2223075.0,2185.459156,1.0,-1.84,4.09,-7.73,23.37,-25.19,11.19,-5.0,11.31,23.81,-0.6001671822630554,-0.6545778621609237,0.91407291707835,-118.83557102370405,-47.97031813194389,-2.269061145645111,-0.3054,-0.8609,-0.4065,-0.0198
40,2223112.0,2185.519462,1.0,-1.39,3.61,-7.23,22.56,-26.69,11.19,-11.5,13.31,27.56,-0.5924187554218465,-0.9177544155436546,1.6799122257775192,-119.24220793672814,-47.35648075084825,-2.9338644268256844,-0.3062,-0.8627,-0.4016,-0.0256
41,2223112.0,2185.519462,1.0,-1.39,3.61,-7.23,22.56,-26.69,11.19,-11.5,13.31,27.56,-0.5924187554218465,-0.9177544155436546,1.6799122257775192,-119.24220793672814,-47.35648075084825,-2.9338644268256844,-0.3062,-0.8627,-0.4016,-0.0256
42,2223149.0,2185.5363780000002,1.0,-1.43,3.11,-6.54,22.25,-26.25,11.19,-15.0,17.62,39.69,-0.913109746623674,-0.7353815384097873,2.5187117055585,-119.99417813762396,-46.2701332926198,-4.022990071019942,-0.3074,-0.866,-0.3929,-0.0351
43,2223149.0,2185.5363780000002,1.0,-1.43,3.11,-6.54,22.25,-26.25,11.19,-15.0,17.62,39.69,-0.913109746623674,-0.7353815384097873,2.5187117055585,-119.99417813762396,-46.2701332926198,-4.022990071019942,-0.3074,-0.866,-0.3929,-0.0351
44,2223185.0,2185.6150989999996,1.0,-1.1,3.63,-6.03,22.25,-26.25,11.19,-29.44,22.0,49.44,-0.3735378059645428,-0.4142355870048695,2.7047714889316827,-120.52337099749846,-45.16334612512468,-5.273072468222583,-0.3105,-0.8683,-0.384,-0.046
45,2223185.0,2185.6150989999996,1.0,-1.1,3.63,-6.03,22.25,-26.25,11.19,-29.44,22.0,49.44,-0.3735378059645428,-0.4142355870048695,2.7047714889316827,-120.52337099749846,-45.16334612512468,-5.273072468222583,-0.3105,-0.8683,-0.384,-0.046
46,2223218.0,2185.670591,1.0,-1.21,4.72,-6.22,20.75,-27.5,10.25,-23.69,30.5,61.69,-0.1574925948005767,0.19649350611820315,1.909341193537108,-121.45404882910117,-43.24627621237414,-7.258498535026432,-0.3152,-0.8723,-0.3685,-0.0633
47,2223218.0,2185.670591,1.0,-1.21,4.72,-6.22,20.75,-27.5,10.25,-23.69,30.5,61.69,-0.1574925948005767,0.19649350611820315,1.909341193537108,-121.45404882910117,-43.24627621237414,-7.258498535026432,-0.3152,-0.8723,-0.3685,-0.0633
48,2223255.0,2185.7384469999997,1.0,-0.39,5.41,-7.18,19.69,-29.0,12.0,-28.87,34.44,69.0,0.10632860770709418,-0.31763905409028537,0.8144089190180335,-122.58898532309729,-41.13369909947952,-9.60254790532585,-0.3168,-0.8771,-0.3513,-0.0837
49,2223255.0,2185.7384469999997,1.0,-0.39,5.41,-7.18,19.69,-29.0,12.0,-28.87,34.44,69.0,0.10632860770709418,-0.31763905409028537,0.8144089190180335,-122.58898532309729,-41.13369909947952,-9.60254790532585,-0.3168,-0.8771,-0.3513,-0.0837
50,2223292.0,2185.792217,1.0,0.01,6.89,-7.47,17.06,-29.69,11.56,-20.25,29.44,73.75,0.7613506477189863,0.24160909932332464,-0.3242468129352733,-123.50224233828399,-39.31538744994931,-11.328631235557035,-0.318,-0.8809,-0.3364,-0.0987
51,2223292.0,2185.792217,1.0,0.01,6.89,-7.47,17.06,-29.69,11.56,-20.25,29.44,73.75,0.7613506477189863,0.24160909932332464,-0.3242468129352733,-123.50224233828399,-39.31538744994931,-11.328631235557035,-0.318,-0.8809,-0.3364,-0.0987
52,2223325.0,2185.938352,1.0,0.44,6.87,-8.11,17.06,-29.69,11.56,-11.94,30.94,71.06,0.3906096117468871,-0.11437864384826613,-0.8233519594091518,-124.79911472012829,-37.05986053192884,-13.426452603767608,-0.3162,-0.8862,-0.3178,-0.1169
53,2223325.0,2185.938352,1.0,0.44,6.87,-8.11,17.06,-29.69,11.56,-11.94,30.94,71.06,0.3906096117468871,-0.11437864384826613,-0.8233519594091518,-124.79911472012829,-37.05986053192884,-13.426452603767608,-0.3162,-0.8862,-0.3178,-0.1169
54,2223362.0,2186.010516,1.0,0.76,8.21,-8.18,14.38,-31.5,10.75,-21.44,26.75,68.75,0.8798167629877756,0.6219262180190057,-1.7576584636698538,-125.696251455902,-35.131494837214326,-14.89295693159816,-0.3169,-0.8898,-0.3018,-0.1296
55,2223362.0,2186.010516,1.0,0.76,8.21,-8.18,14.38,-31.5,10.75,-21.44,26.75,68.75,0.8798167629877756,0.6219262180190057,-1.7576584636698538,-125.696251455902,-35.131494837214326,-14.89295693159816,-0.3169,-0.8898,-0.3018,-0.1296
56,2223398.0,2186.05638,1.0,1.5,8.64,-8.43,14.19,-31.87,10.75,-3.13,19.75,56.25,1.1431939305906054,0.5906859608656507,-2.2891632315564903,-126.78612125881504,-33.14160783025417,-16.53559204728263,-0.3139,-0.8941,-0.2852,-0.1438
57,2223398.0,2186.05638,1.0,1.5,8.64,-8.43,14.19,-31.87,10.75,-3.13,19.75,56.25,1.1431939305906054,0.5906859608656507,-2.2891632315564903,-126.78612125881504,-33.14160783025417,-16.53559204728263,-0.3139,-0.8941,-0.2852,-0.1438
58,2223433.0,2186.073938,1.0,1.45,8.92,-8.7,14.19,-31.87,10.75,-7.56,19.19,41.06,0.8535347429870197,0.82723392851595,-2.6811865808504294,-127.3259688536123,-32.04323298370182,-17.508882729880764,-0.3123,-0.8962,-0.276,-0.1522
59,2223433.0,2186.073938,1.0,1.45,8.92,-8.7,14.19,-31.87,10.75,-7.56,19.19,41.06,0.8535347429870197,0.82723392851595,-2.6811865808504294,-127.3259688536123,-32.04323298370182,-17.508882729880764,-0.3123,-0.8962,-0.276,-0.1522
60,2223468.0,2186.0775329999997,1.0,1.62,9.14,-9.21,10.69,-33.0,10.75,-9.44,17.94,30.31,0.5620338896135195,0.7676434486248214,-3.2349350816804225,-127.66274936627121,-30.983545128924852,-18.599556301853195,-0.3115,-0.8975,-0.2671,-0.1616
61,2223468.0,2186.0775329999997,1.0,1.62,9.14,-9.21,10.69,-33.0,10.75,-9.44,17.94,30.31,0.5620338896135195,0.7676434486248214,-3.2349350816804225,-127.66274936627121,-30.983545128924852,-18.599556301853195,-0.3115,-0.8975,-0.2671,-0.1616
62,2223503.0,2186.118018,1.0,1.98,8.74,-9.76,9.25,-33.38,12.0,6.38,4.81,12.94,0.3545788510380532,0.11674286895731625,-3.4382073016452,-127.89708982203928,-30.57944178497209,-18.994468937034103,-0.31,-0.8984,-0.2637,-0.165
63,2223503.0,2186.118018,1.0,1.98,8.74,-9.76,9.25,-33.38,12.0,6.38,4.81,12.94,0.3545788510380532,0.11674286895731625,-3.4382073016452,-127.89708982203928,-30.57944178497209,-18.994468937034103,-0.31,-0.8984,-0.2637,-0.165
64,2223540.0,2186.134989,1.0,1.57,7.91,-9.83,8.88,-33.38,10.75,2.0,-1.44,-0.31,-0.3003039975538989,-0.20033590203242424,-2.9028575843012114,-128.0800345447506,-30.50817000692102,-18.947996901150276,-0.3087,-0.8991,-0.2631,-0.1646
65,2223540.0,2186.134989,1.0,1.57,7.91,-9.83,8.88,-33.38,10.75,2.0,-1.44,-0.31,-0.3003039975538989,-0.20033590203242424,-2.9028575843012114,-128.0800345447506,-30.50817000692102,-18.947996901150276,-0.3087,-0.8991,-0.2631,-0.1646
66,2223572.0,2186.138173,1.0,1.89,8.44,-9.89,8.88,-33.38,10.75,-0.19,-12.81,-2.94,0.16929220365761674,-0.09785041732237333,-3.330304192110537,-128.10621848828742,-30.47253865250361,-18.69245669557365,-0.3099,-0.8992,-0.2628,-0.1624
67,2223572.0,2186.138173,1.0,1.89,8.44,-9.89,8.88,-33.38,10.75,-0.19,-12.81,-2.94,0.16929220365761674,-0.09785041732237333,-3.330304192110537,-128.10621848828742,-30.47253865250361,-18.69245669557365,-0.3099,-0.8992,-0.2628,-0.1624
68,2223609.0,2186.152579,1.0,1.79,7.92,-9.54,8.88,-33.38,9.5,7.19,-26.31,-15.0,0.25208111055441984,-0.286250367756943,-2.715195544513824,-128.39505791682004,-30.54380438300529,-17.706010881893693,-0.3105,-0.9003,-0.2634,-0.1539
69,2223609.0,2186.152579,1.0,1.79,7.92,-9.54,8.88,-33.38,9.5,7.19,-26.31,-15.0,0.25208111055441984,-0.286250367756943,-2.715195544513824,-128.39505791682004,-30.54380438300529,-17.706010881893693,-0.3105,-0.9003,-0.2634,-0.1539
70,2223644.0,2186.1857609999997,1.0,1.3,7.17,-9.01,9.69,-34.19,11.19,10.38,-35.31,-22.62,0.01671098698528739,-0.3420297462003541,-1.7761707443449666,-128.5268474503853,-30.84087559172584,-16.59349169701811,-0.3116,-0.9008,-0.2659,-0.1443
71,2223644.0,2186.1857609999997,1.0,1.3,7.17,-9.01,9.69,-34.19,11.19,10.38,-35.31,-22.62,0.01671098698528739,-0.3420297462003541,-1.7761707443449666,-128.5268474503853,-30.84087559172584,-16.59349169701811,-0.3116,-0.9008,-0.2659,-0.1443
72,2223679.0,2186.203996,1.0,1.05,7.16,-8.47,9.69,-34.19,11.19,6.75,-38.13,-21.06,0.3480819181076904,-0.06934542692974421,-1.3281167326285015,-128.73836728652063,-31.185744677827834,-14.881400387429185,-0.3133,-0.9016,-0.2688,-0.1295
73,2223679.0,2186.203996,1.0,1.05,7.16,-8.47,9.69,-34.19,11.19,6.75,-38.13,-21.06,0.3480819181076904,-0.06934542692974421,-1.3281167326285015,-128.73836728652063,-31.185744677827834,-14.881400387429185,-0.3133,-0.9016,-0.2688,-0.1295
74,2223714.0,2186.2072350000003,1.0,0.82,6.16,-8.81,10.75,-33.75,10.25,12.75,-38.88,-25.25,-0.14483175305263118,-0.8533460946588831,-0.9397412178013572,-128.8444329155711,-31.518996754873605,-13.576461659580188,-0.3141,-0.902,-0.2716,-0.1182
75,2223714.0,2186.2072350000003,1.0,0.82,6.16,-8.81,10.75,-33.75,10.25,12.75,-38.88,-25.25,-0.14483175305263118,-0.8533460946588831,-0.9397412178013572,-128.8444329155711,-31.518996754873605,-13.576461659580188,-0.3141,-0.902,-0.2716,-0.1182
76,2223751.0,2186.248905,1.0,0.3,6.03,-8.5,11.19,-31.87,11.19,5.81,-46.44,-21.75,-0.1867454814785008,-0.6316640418117148,-0.5984942403952029,-128.92411693093345,-31.90019165418321,-11.674144907935558,-0.3163,-0.9023,-0.2748,-0.1017
77,2223751.0,2186.248905,1.0,0.3,6.03,-8.5,11.19,-31.87,11.19,5.81,-46.44,-21.75,-0.1867454814785008,-0.6316640418117148,-0.5984942403952029,-128.92411693093345,-31.90019165418321,-11.674144907935558,-0.3163,-0.9023,-0.2748,-0.1017
78,2223785.0,2186.2528260000004,1.0,-0.09,5.31,-7.77,11.19,-31.87,11.19,7.44,-50.81,-17.19,-0.3305377160003385,-0.610369789278574,0.4207406919661043,-129.0571819857357,-31.971705924950353,-10.10862175233956,-0.3183,-0.9028,-0.2754,-0.0881
79,2223785.0,2186.2528260000004,1.0,-0.09,5.31,-7.77,11.19,-31.87,11.19,7.44,-50.81,-17.19,-0.3305377160003385,-0.610369789278574,0.4207406919661043,-129.0571819857357,-31.971705924950353,-10.10862175233956,-0.3183,-0.9028,-0.2754,-0.0881
80,2223820.0,2186.270226,1.0,-0.3,6.1,-7.26,13.0,-33.38,10.75,-7.13,-46.25,-11.44,0.2323353389210109,0.090091156800451,0.3226896524576919,-128.87098138309108,-31.864439303449732,-8.349651905481078,-0.3249,-0.9021,-0.2745,-0.0728
81,2223820.0,2186.270226,1.0,-0.3,6.1,-7.26,13.0,-33.38,10.75,-7.13,-46.25,-11.44,0.2323353389210109,0.090091156800451,0.3226896524576919,-128.87098138309108,-31.864439303449732,-8.349651905481078,-0.3249,-0.9021,-0.2745,-0.0728
82,2223855.0,2186.2736600000003,1.0,-0.32,6.48,-6.72,13.38,-33.0,10.0,-0.37,-51.75,-8.88,0.7752009154459483,0.4846560870774122,0.5106631229680296,-128.89754271482937,-31.542810907574808,-6.4778727055513645,-0.33,-0.9022,-0.2718,-0.0565
83,2223855.0,2186.2736600000003,1.0,-0.32,6.48,-6.72,13.38,-33.0,10.0,-0.37,-51.75,-8.88,0.7752009154459483,0.4846560870774122,0.5106631229680296,-128.89754271482937,-31.542810907574808,-6.4778727055513645,-0.33,-0.9022,-0.2718,-0.0565
84,2223892.0,2186.316048,1.0,-0.84,5.95,-6.34,14.19,-32.69,8.69,4.75,-46.19,-12.94,0.3741549181954423,0.5465889033931779,1.096601282118014,-128.97730409708814,-31.39994691440291,-5.0436569106979485,-0.3324,-0.9025,-0.2706,-0.044000000000000004
85,2223892.0,2186.316048,1.0,-0.84,5.95,-6.34,14.19,-32.69,8.69,4.75,-46.19,-12.94,0.3741549181954423,0.5465889033931779,1.096601282118014,-128.97730409708814,-31.39994691440291,-5.0436569106979485,-0.3324,-0.9025,-0.2706,-0.044000000000000004
86,2223927.0,2186.332895,1.0,-0.86,6.03,-6.52,14.19,-32.69,8.69,-4.13,-39.13,-12.75,0.5324841919329275,0.3663855673924967,0.9075982414502112,-128.73836728652063,-31.304732073341746,-3.495584654482353,-0.3369,-0.9016,-0.2698,-0.0305
87,2223927.0,2186.332895,1.0,-0.86,6.03,-6.52,14.19,-32.69,8.69,-4.13,-39.13,-12.75,0.5324841919329275,0.3663855673924967,0.9075982414502112,-128.73836728652063,-31.304732073341746,-3.495584654482353,-0.3369,-0.9016,-0.2698,-0.0305
88,2223964.0,2186.380191,1.0,-1.35,6.19,-5.45,15.69,-32.69,7.5,-5.94,-32.63,-13.81,0.5478385870151675,1.2444761646423137,1.5609085561870533,-128.39505791682004,-31.304732073341746,-2.4868320276357756,-0.3409,-0.9003,-0.2698,-0.0217
89,2223964.0,2186.380191,1.0,-1.35,6.19,-5.45,15.69,-32.69,7.5,-5.94,-32.63,-13.81,0.5478385870151675,1.2444761646423137,1.5609085561870533,-128.39505791682004,-31.304732073341746,-2.4868320276357756,-0.3409,-0.9003,-0.2698,-0.0217
90,2224001.0,2186.397247,1.0,-1.61,5.18,-5.13,16.0,-32.69,8.25,-3.13,-17.0,-13.56,0.03554633808864202,0.8650481256968061,2.3910024761436413,-128.05386288415187,-31.530903656573717,-1.4897322301406863,-0.3433,-0.899,-0.2717,-0.013000000000000001
91,2224001.0,2186.397247,1.0,-1.61,5.18,-5.13,16.0,-32.69,8.25,-3.13,-17.0,-13.56,0.03554633808864202,0.8650481256968061,2.3910024761436413,-128.05386288415187,-31.530903656573717,-1.4897322301406863,-0.3433,-0.899,-0.2717,-0.013000000000000001
92,2224033.0,2186.4015679999998,1.0,-1.84,5.48,-5.29,16.0,-32.69,8.25,-12.38,-3.38,-7.5,-0.027647814136386117,1.0085924789882728,2.0360594941438466,-127.636771729627,-31.70954918748255,-1.283452294756085,-0.3463,-0.8974,-0.2732,-0.0112
93,2224033.0,2186.4015679999998,1.0,-1.84,5.48,-5.29,16.0,-32.69,8.25,-12.38,-3.38,-7.5,-0.027647814136386117,1.0085924789882728,2.0360594941438466,-127.636771729627,-31.70954918748255,-1.283452294756085,-0.3463,-0.8974,-0.2732,-0.0112
94,2224068.0,2186.4426399999998,1.0,-1.6,5.12,-5.96,15.69,-31.87,7.06,3.06,0.81,-3.94,-0.12589184849962187,0.251363516264258,1.7931009968945322,-127.5070627749377,-31.864439303449732,-1.2490727279396536,-0.3464,-0.8969,-0.2745,-0.0109
95,2224068.0,2186.4426399999998,1.0,-1.6,5.12,-5.96,15.69,-31.87,7.06,3.06,0.81,-3.94,-0.12589184849962187,0.251363516264258,1.7931009968945322,-127.5070627749377,-31.864439303449732,-1.2490727279396536,-0.3464,-0.8969,-0.2745,-0.0109
96,2224103.0,2186.500541,1.0,-1.76,5.29,-6.27,16.0,-32.25,7.06,-3.19,8.38,1.88,-0.25998913395997103,0.2535108168534705,1.424362846963481,-127.53298072808481,-31.888273849894752,-1.3865917007687605,-0.3462,-0.897,-0.2747,-0.0121
97,2224103.0,2186.500541,1.0,-1.76,5.29,-6.27,16.0,-32.25,7.06,-3.19,8.38,1.88,-0.25998913395997103,0.2535108168534705,1.424362846963481,-127.53298072808481,-31.888273849894752,-1.3865917007687605,-0.3462,-0.897,-0.2747,-0.0121
98,2224140.0,2186.516371,1.0,-1.48,6.08,-6.54,16.37,-32.25,6.25,-10.5,13.06,5.44,0.21360215057365586,0.4267433505644829,0.7678080258298952,-127.37765090836372,-31.864439303449732,-1.9710720103882065,-0.3476,-0.8964,-0.2745,-0.0172
99,2224140.0,2186.516371,1.0,-1.48,6.08,-6.54,16.37,-32.25,6.25,-10.5,13.06,5.44,0.21360215057365586,0.4267433505644829,0.7678080258298952,-127.37765090836372,-31.864439303449732,-1.9710720103882065,-0.3476,-0.8964,-0.2745,-0.0172
100,2224175.0,2186.591364,1.0,-1.25,5.84,-7.09,16.37,-32.25,6.25,-1.12,13.44,4.44,0.11073531770760543,-0.14703387935454734,0.5382996220883971,-127.37765090836372,-31.876356399703745,-2.4065996467302937,-0.3472,-0.8964,-0.2746,-0.021
101,2224175.0,2186.591364,1.0,-1.25,5.84,-7.09,16.37,-32.25,6.25,-1.12,13.44,4.44,0.11073531770760543,-0.14703387935454734,0.5382996220883971,-127.37765090836372,-31.876356399703745,-2.4065996467302937,-0.3472,-0.8964,-0.2746,-0.021
102,2224211.0,2186.601484,1.0,-1.13,5.87,-6.93,15.69,-32.25,6.69,-12.0,17.12,7.69,0.16345399607416272,-0.06915313096861153,0.6563931382695802,-127.3259688536123,-31.85252256097231,-3.082884815106741,-0.3475,-0.8962,-0.2744,-0.0269
103,2224211.0,2186.601484,1.0,-1.13,5.87,-6.93,15.69,-32.25,6.69,-12.0,17.12,7.69,0.16345399607416272,-0.06915313096861153,0.6563931382695802,-127.3259688536123,-31.85252256097231,-3.082884815106741,-0.3475,-0.8962,-0.2744,-0.0269
104,2224244.0,2186.64342,1.0,-0.86,6.31,-6.78,15.69,-32.69,7.06,-14.38,20.5,10.06,0.5166906911073632,0.14436242870847016,0.5203003286328691,-127.14545121783674,-31.73337455864903,-3.793673550039814,-0.3495,-0.8955,-0.2734,-0.0331
105,2224244.0,2186.64342,1.0,-0.86,6.31,-6.78,15.69,-32.69,7.06,-14.38,20.5,10.06,0.5166906911073632,0.14436242870847016,0.5203003286328691,-127.14545121783674,-31.73337455864903,-3.793673550039814,-0.3495,-0.8955,-0.2734,-0.0331
106,2224279.0,2186.6608899999997,1.0,-0.85,5.82,-6.77,15.69,-32.69,7.06,-9.31,16.44,6.44,0.1741038537858106,-0.1348324325316792,0.8411991991069119,-126.99117600895984,-31.721461697138416,-4.642227799866185,-0.3504,-0.8949,-0.2733,-0.0405
107,2224279.0,2186.6608899999997,1.0,-0.85,5.82,-6.77,15.69,-32.69,7.06,-9.31,16.44,6.44,0.1741038537858106,-0.1348324325316792,0.8411991991069119,-126.99117600895984,-31.721461697138416,-4.642227799866185,-0.3504,-0.8949,-0.2733,-0.0405
108,2224314.0,2186.705497,1.0,-0.85,6.5,-6.03,15.25,-32.69,6.69,-19.06,20.25,9.56,0.5757188969744617,0.7068412379612581,0.9464963209725354,-126.73497195223709,-31.626171458397582,-5.307486603594608,-0.3528,-0.8939,-0.2725,-0.0463
109,2224314.0,2186.705497,1.0,-0.85,6.5,-6.03,15.25,-32.69,6.69,-19.06,20.25,9.56,0.5757188969744617,0.7068412379612581,0.9464963209725354,-126.73497195223709,-31.626171458397582,-5.307486603594608,-0.3528,-0.8939,-0.2725,-0.0463
110,2224351.0,2186.764331,1.0,-0.64,6.81,-5.44,14.88,-33.0,7.06,-14.19,26.94,8.38,0.8960832931857949,1.1351189410194502,1.1876106265308088,-126.37819315148278,-31.56662645811723,-6.443440527613203,-0.3553,-0.8925,-0.272,-0.0562
111,2224351.0,2186.764331,1.0,-0.64,6.81,-5.44,14.88,-33.0,7.06,-14.19,26.94,8.38,0.8960832931857949,1.1351189410194502,1.1876106265308088,-126.37819315148278,-31.56662645811723,-6.443440527613203,-0.3553,-0.8925,-0.272,-0.0562
112,2224386.0,2186.8131,1.0,-0.62,7.12,-5.39,14.88,-33.0,7.06,-12.56,35.63,7.88,0.9396458636823142,1.3614766973725692,1.00924431119741,-126.12469119973764,-31.685725223095478,-7.47667331573405,-0.3557,-0.8915,-0.273,-0.0652
113,2224386.0,2186.8131,1.0,-0.62,7.12,-5.39,14.88,-33.0,7.06,-12.56,35.63,7.88,0.9396458636823142,1.3614766973725692,1.00924431119741,-126.12469119973764,-31.685725223095478,-7.47667331573405,-0.3557,-0.8915,-0.273,-0.0652
114,2224420.0,2186.824847,1.0,-0.29,6.69,-5.8,14.88,-33.0,6.25,-13.31,49.5,5.31,0.7007019421871229,0.7428503093900289,1.006798284996254,-125.64605206137207,-32.07900131942766,-9.21161989509871,-0.3546,-0.8896,-0.2763,-0.0803
115,2224420.0,2186.824847,1.0,-0.29,6.69,-5.8,14.88,-33.0,6.25,-13.31,49.5,5.31,0.7007019421871229,0.7428503093900289,1.006798284996254,-125.64605206137207,-32.07900131942766,-9.21161989509871,-0.3546,-0.8896,-0.2763,-0.0803
116,2224455.0,2186.841622,1.0,-0.41,7.07,-6.12,14.19,-32.69,7.06,-8.19,52.44,6.31,0.42045113898913056,0.9315507346793536,0.5027350139072588,-125.04696377500795,-32.592035674709635,-11.224997424028942,-0.3529,-0.8872,-0.2806,-0.0978
117,2224455.0,2186.841622,1.0,-0.41,7.07,-6.12,14.19,-32.69,7.06,-8.19,52.44,6.31,0.42045113898913056,0.9315507346793536,0.5027350139072588,-125.04696377500795,-32.592035674709635,-11.224997424028942,-0.3529,-0.8872,-0.2806,-0.0978
118,2224492.0,2186.885389,1.0,0.58,6.62,-7.22,14.19,-33.0,6.25,-8.38,58.81,6.81,0.4175879018814556,-0.42241502002540265,0.011937860531112676,-124.6508963314865,-32.99816611056945,-12.849707716341904,-0.3499,-0.8856,-0.284,-0.1119
119,2224492.0,2186.885389,1.0,0.58,6.62,-7.22,14.19,-33.0,6.25,-8.38,58.81,6.81,0.4175879018814556,-0.42241502002540265,0.011937860531112676,-124.6508963314865,-32.99816611056945,-12.849707716341904,-0.3499,-0.8856,-0.284,-0.1119
120,2224525.0,2186.9477030000003,1.0,0.14,7.45,-6.25,14.19,-33.0,6.25,-21.75,50.13,4.44,0.5268227078148914,0.9140869956347673,0.13858386457549976,-123.7205290097115,-33.476513522752754,-14.927627478593793,-0.35,-0.8818,-0.28800000000000003,-0.1299
121,2224525.0,2186.9477030000003,1.0,0.14,7.45,-6.25,14.19,-33.0,6.25,-21.75,50.13,4.44,0.5268227078148914,0.9140869956347673,0.13858386457549976,-123.7205290097115,-33.476513522752754,-14.927627478593793,-0.35,-0.8818,-0.28800000000000003,-0.1299
122,2224562.0,2186.964532,1.0,0.74,7.57,-7.53,13.38,-33.38,7.5,-4.19,59.88,5.06,0.2838041785840901,0.03094882332252613,-0.8925040487345637,-123.18829850358513,-33.90753998612701,-16.51243337847321,-0.3474,-0.8796,-0.2916,-0.1436
123,2224562.0,2186.964532,1.0,0.74,7.57,-7.53,13.38,-33.38,7.5,-4.19,59.88,5.06,0.2838041785840901,0.03094882332252613,-0.8925040487345637,-123.18829850358513,-33.90753998612701,-16.51243337847321,-0.3474,-0.8796,-0.2916,-0.1436
124,2224599.0,2187.01474,1.0,1.2,7.53,-7.5,12.69,-33.38,7.88,-10.75,57.0,0.37,0.34521608092372835,-0.15109172187676378,-0.8820775739000837,-122.23213029596668,-34.60301565627788,-18.62278024163795,-0.3445,-0.8756,-0.2974,-0.1618
125,2224599.0,2187.01474,1.0,1.2,7.53,-7.5,12.69,-33.38,7.88,-10.75,57.0,0.37,0.34521608092372835,-0.15109172187676378,-0.8820775739000837,-122.23213029596668,-34.60301565627788,-18.62278024163795,-0.3445,-0.8756,-0.2974,-0.1618
126,2224631.0,2187.054314,1.0,1.12,7.55,-7.58,12.69,-33.38,7.88,0.12,51.25,-3.5,0.07309404809886089,-0.05296801391743245,-0.9499829141434492,-121.54785831198568,-35.15553486649333,-19.95948754584176,-0.3422,-0.8727,-0.302,-0.1733
127,2224631.0,2187.054314,1.0,1.12,7.55,-7.58,12.69,-33.38,7.88,0.12,51.25,-3.5,0.07309404809886089,-0.05296801391743245,-0.9499829141434492,-121.54785831198568,-35.15553486649333,-19.95948754584176,-0.3422,-0.8727,-0.302,-0.1733
128,2224666.0,2187.119237,1.0,1.59,7.33,-8.3,11.19,-33.75,8.25,-3.19,54.19,-3.69,-0.2770688215577648,-0.6966350063866908,-1.3551120712859357,-120.73161403507063,-35.88952982832807,-21.71884947041321,-0.3377,-0.8692,-0.3081,-0.1884
129,2224666.0,2187.119237,1.0,1.59,7.33,-8.3,11.19,-33.75,8.25,-3.19,54.19,-3.69,-0.2770688215577648,-0.6966350063866908,-1.3551120712859357,-120.73161403507063,-35.88952982832807,-21.71884947041321,-0.3377,-0.8692,-0.3081,-0.1884
130,2224703.0,2187.136349,1.0,1.78,7.18,-7.34,10.75,-34.19,9.5,-3.94,45.81,-6.13,0.1606869711034451,-0.3980130456904183,-0.6054662744553454,-120.04002661398823,-36.41991372856602,-22.88682192770989,-0.3356,-0.8662,-0.3125,-0.1984
131,2224703.0,2187.136349,1.0,1.78,7.18,-7.34,10.75,-34.19,9.5,-3.94,45.81,-6.13,0.1606869711034451,-0.3980130456904183,-0.6054662744553454,-120.04002661398823,-36.41991372856602,-22.88682192770989,-0.3356,-0.8662,-0.3125,-0.1984
132,2224738.0,2187.139366,1.0,1.69,7.34,-6.59,10.75,-34.19,9.5,-7.25,46.0,-5.69,0.3901916334461408,0.1591023025137286,-0.19246180788191047,-119.10638959402516,-37.084032798280944,-24.39709288880459,-0.3333,-0.8621,-0.318,-0.2113
133,2224738.0,2187.139366,1.0,1.69,7.34,-6.59,10.75,-34.19,9.5,-7.25,46.0,-5.69,0.3901916334461408,0.1591023025137286,-0.19246180788191047,-119.10638959402516,-37.084032798280944,-24.39709288880459,-0.3333,-0.8621,-0.318,-0.2113
134,2224771.0,2187.1596870000003,1.0,1.91,7.23,-7.07,10.75,-34.19,8.75,2.94,48.81,-4.31,0.08127420857084268,-0.17904524099903085,-0.4825305944252332,-118.38659680691794,-37.72522554558885,-25.62955536451614,-0.3295,-0.8589,-0.3233,-0.2218
135,2224771.0,2187.1596870000003,1.0,1.91,7.23,-7.07,10.75,-34.19,8.75,2.94,48.81,-4.31,0.08127420857084268,-0.17904524099903085,-0.4825305944252332,-118.38659680691794,-37.72522554558885,-25.62955536451614,-0.3295,-0.8589,-0.3233,-0.2218
136,2224805.0,2187.181187,1.0,2.24,7.23,-7.51,10.38,-33.0,9.56,1.12,48.81,-4.94,-0.1398276734223044,-0.4640138736283772,-0.8449104184000102,-117.4973779425748,-38.549690389311564,-27.183245547895737,-0.324,-0.8549,-0.3301,-0.235
137,2224805.0,2187.181187,1.0,2.24,7.23,-7.51,10.38,-33.0,9.56,1.12,48.81,-4.94,-0.1398276734223044,-0.4640138736283772,-0.8449104184000102,-117.4973779425748,-38.549690389311564,-27.183245547895737,-0.324,-0.8549,-0.3301,-0.235
138,2224842.0,2187.251597,1.0,2.16,7.56,-6.86,10.0,-34.19,11.69,-2.88,41.25,-7.75,0.21918637402067254,0.09569915986693543,-0.6251091519476937,-116.75038875897287,-39.120753020773094,-28.22185710635222,-0.3215,-0.8515,-0.3348,-0.2438
139,2224842.0,2187.251597,1.0,2.16,7.56,-6.86,10.0,-34.19,11.69,-2.88,41.25,-7.75,0.21918637402067254,0.09569915986693543,-0.6251091519476937,-116.75038875897287,-39.120753020773094,-28.22185710635222,-0.3215,-0.8515,-0.3348,-0.2438
140,2224877.0,2187.262709,1.0,2.2,7.22,-6.96,10.0,-34.19,11.69,2.38,42.44,-10.88,-0.09014599334482698,-0.07825439810204138,-0.4595932247176737,-115.77371350268422,-40.05852194281655,-29.49976914452507,-0.3169,-0.847,-0.3425,-0.2546
141,2224877.0,2187.262709,1.0,2.2,7.22,-6.96,10.0,-34.19,11.69,2.38,42.44,-10.88,-0.09014599334482698,-0.07825439810204138,-0.4595932247176737,-115.77371350268422,-40.05852194281655,-29.49976914452507,-0.3169,-0.847,-0.3425,-0.2546
142,2224914.0,2187.295311,1.0,2.38,6.62,-7.34,9.38,-33.38,11.25,-1.56,40.13,-6.13,-0.5821663260493319,-0.6086470093880658,-0.32523191733288925,-115.10854164041076,-40.65673943236753,-30.44878609284871,-0.3134,-0.8439,-0.3474,-0.2626
143,2224914.0,2187.295311,1.0,2.38,6.62,-7.34,9.38,-33.38,11.25,-1.56,40.13,-6.13,-0.5821663260493319,-0.6086470093880658,-0.32523191733288925,-115.10854164041076,-40.65673943236753,-30.44878609284871,-0.3134,-0.8439,-0.3474,-0.2626
144,2224949.0,2187.354699,1.0,2.39,6.82,-7.11,9.38,-33.75,11.25,-1.88,37.5,-4.19,-0.4878808724245172,-0.3328833320282447,-0.31401010404361784,-114.30136176070127,-41.20714343304567,-31.66190266420909,-0.3099,-0.8401,-0.3519,-0.2728
145,2224949.0,2187.354699,1.0,2.39,6.82,-7.11,9.38,-33.75,11.25,-1.88,37.5,-4.19,-0.4878808724245172,-0.3328833320282447,-0.31401010404361784,-114.30136176070127,-41.20714343304567,-31.66190266420909,-0.3099,-0.8401,-0.3519,-0.2728
146,2224984.0,2187.415773,1.0,2.69,6.87,-6.85,9.38,-33.75,11.25,-7.31,35.0,-1.37,-0.23068361898752696,-0.3905877901764154,-0.250672021596797,-113.6702839060659,-41.53786260419432,-32.580097056893266,-0.3079,-0.8371,-0.3546,-0.2805
147,2224984.0,2187.415773,1.0,2.69,6.87,-6.85,9.38,-33.75,11.25,-7.31,35.0,-1.37,-0.23068361898752696,-0.3905877901764154,-0.250672021596797,-113.6702839060659,-41.53786260419432,-32.580097056893266,-0.3079,-0.8371,-0.3546,-0.2805
148,2225018.0,2187.433886,1.0,2.68,7.12,-6.48,8.56,-33.38,12.56,-13.31,36.06,-0.5,-0.06876097713313367,-0.07026229769681969,-0.18622421803887867,-112.73350926918677,-41.85667536570541,-33.931500337029355,-0.3068,-0.8326,-0.3572,-0.2918
149,2225018.0,2187.433886,1.0,2.68,7.12,-6.48,8.56,-33.38,12.56,-13.31,36.06,-0.5,-0.06876097713313367,-0.07026229769681969,-0.18622421803887867,-112.73350926918677,-41.85667536570541,-33.931500337029355,-0.3068,-0.8326,-0.3572,-0.2918
150,2225053.0,2187.4371170000004,1.0,2.88,7.41,-6.18,7.5,-34.19,12.56,-4.94,35.94,-2.31,0.24834695508241225,0.07637165101814825,-0.2595007618762626,-112.13586614925856,-42.01620886419129,-34.86715957624261,-0.3055,-0.8297,-0.3585,-0.2996
151,2225053.0,2187.4371170000004,1.0,2.88,7.41,-6.18,7.5,-34.19,12.56,-4.94,35.94,-2.31,0.24834695508241225,0.07637165101814825,-0.2595007618762626,-112.13586614925856,-42.01620886419129,-34.86715957624261,-0.3055,-0.8297,-0.3585,-0.2996
152,2225090.0,2187.4786329999997,1.0,2.87,7.05,-6.26,8.25,-34.19,11.75,-4.13,35.75,-4.06,-0.10524208276805536,-0.06890338744049229,-0.047850313420964234,-111.2987386824523,-42.45844069063149,-36.03410062770514,-0.3026,-0.8256,-0.3621,-0.3093
153,2225090.0,2187.4786329999997,1.0,2.87,7.05,-6.26,8.25,-34.19,11.75,-4.13,35.75,-4.06,-0.10524208276805536,-0.06890338744049229,-0.047850313420964234,-111.2987386824523,-42.45844069063149,-36.03410062770514,-0.3026,-0.8256,-0.3621,-0.3093
154,2225125.0,2187.4967100000003,1.0,3.06,7.15,-6.44,8.25,-34.19,11.75,-3.44,40.06,-0.75,-0.22110844119271625,-0.1399299708547055,-0.28746861731820417,-110.57101095130196,-42.852092757216354,-37.084032798280944,-0.2997,-0.8220000000000001,-0.3653,-0.318
155,2225125.0,2187.4967100000003,1.0,3.06,7.15,-6.44,8.25,-34.19,11.75,-3.44,40.06,-0.75,-0.22110844119271625,-0.1399299708547055,-0.28746861731820417,-110.57101095130196,-42.852092757216354,-37.084032798280944,-0.2997,-0.8220000000000001,-0.3653,-0.318
156,2225160.0,2187.5482420000003,1.0,3.38,7.22,-6.87,7.06,-33.75,12.19,2.31,34.56,0.0,-0.4834088686632307,-0.3535610862059877,-0.7000626364062423,-109.90973941260323,-43.17232602381402,-38.22208366616019,-0.2955,-0.8187,-0.3679,-0.3274
157,2225160.0,2187.5482420000003,1.0,3.38,7.22,-6.87,7.06,-33.75,12.19,2.31,34.56,0.0,-0.4834088686632307,-0.3535610862059877,-0.7000626364062423,-109.90973941260323,-43.17232602381402,-38.22208366616019,-0.2955,-0.8187,-0.3679,-0.3274
158,2225195.0,2187.592245,1.0,3.3,6.89,-7.07,6.0,-33.69,13.5,-1.56,31.06,-1.44,-0.9083740734890088,-0.4473395820281634,-0.5529708348068354,-109.37271990346242,-43.4682404912652,-39.01132279075521,-0.2927,-0.816,-0.3703,-0.3339
159,2225195.0,2187.592245,1.0,3.3,6.89,-7.07,6.0,-33.69,13.5,-1.56,31.06,-1.44,-0.9083740734890088,-0.4473395820281634,-0.5529708348068354,-109.37271990346242,-43.4682404912652,-39.01132279075521,-0.2927,-0.816,-0.3703,-0.3339
160,2225229.0,2187.609512,1.0,3.34,7.1,-6.91,6.0,-33.69,13.5,-6.38,27.69,2.88,-0.7834353612553815,-0.23142664993365256,-0.6167069803799361,-108.8195376256316,-43.75211129257185,-39.88781236546699,-0.289,-0.8132,-0.3726,-0.3411
161,2225229.0,2187.609512,1.0,3.34,7.1,-6.91,6.0,-33.69,13.5,-6.38,27.69,2.88,-0.7834353612553815,-0.23142664993365256,-0.6167069803799361,-108.8195376256316,-43.75211129257185,-39.88781236546699,-0.289,-0.8132,-0.3726,-0.3411
162,2225264.0,2187.651335,1.0,3.57,7.27,-6.87,6.75,-34.75,13.06,-2.81,22.94,2.88,-0.66651180218404,-0.2532741678317434,-0.7898736853157864,-108.42668178324713,-43.801508905676954,-40.5589927006499,-0.2874,-0.8112,-0.373,-0.3466
163,2225264.0,2187.651335,1.0,3.57,7.27,-6.87,6.75,-34.75,13.06,-2.81,22.94,2.88,-0.66651180218404,-0.2532741678317434,-0.7898736853157864,-108.42668178324713,-43.801508905676954,-40.5589927006499,-0.2874,-0.8112,-0.373,-0.3466
164,2225301.0,2187.711456,1.0,3.4,7.24,-6.23,4.88,-34.06,13.5,-1.88,21.69,2.5,-0.3664432851542237,0.0583508890040445,-0.3251225247124374,-107.99668693087187,-43.8262109221212,-41.30509675325747,-0.2859,-0.809,-0.3732,-0.3527
165,2225301.0,2187.711456,1.0,3.4,7.24,-6.23,4.88,-34.06,13.5,-1.88,21.69,2.5,-0.3664432851542237,0.0583508890040445,-0.3251225247124374,-107.99668693087187,-43.8262109221212,-41.30509675325747,-0.2859,-0.809,-0.3732,-0.3527
166,2225336.0,2187.728712,1.0,3.79,7.64,-6.26,4.88,-34.06,13.5,-1.69,19.19,4.13,-0.1199957051743179,0.01636249384771293,-0.7719431625871156,-107.68535335119316,-43.887975339090566,-41.881213444145885,-0.2841,-0.8074,-0.3737,-0.3574
167,2225336.0,2187.728712,1.0,3.79,7.64,-6.26,4.88,-34.06,13.5,-1.69,19.19,4.13,-0.1199957051743179,0.01636249384771293,-0.7719431625871156,-107.68535335119316,-43.887975339090566,-41.881213444145885,-0.2841,-0.8074,-0.3737,-0.3574
168,2225369.0,2187.750486,1.0,3.7,7.6,-6.23,4.88,-34.75,13.5,-1.88,18.44,-1.19,-0.23843482477814515,0.12934303485327536,-0.6904600410383388,-107.3364808253328,-43.92504042696694,-42.507618370719364,-0.2824,-0.8056,-0.374,-0.3625
169,2225369.0,2187.750486,1.0,3.7,7.6,-6.23,4.88,-34.75,13.5,-1.88,18.44,-1.19,-0.23843482477814515,0.12934303485327536,-0.6904600410383388,-107.3364808253328,-43.92504042696694,-42.507618370719364,-0.2824,-0.8056,-0.374,-0.3625
170,2225403.0,2187.786374,1.0,3.27,7.67,-4.62,3.75,-34.06,13.19,-0.88,19.62,-2.69,0.8172342353541333,0.8303557800959647,0.3457389718258952,-107.06613098760813,-43.91268486070203,-42.91364872106161,-0.2821,-0.8042,-0.3739,-0.3658
171,2225403.0,2187.786374,1.0,3.27,7.67,-4.62,3.75,-34.06,13.19,-0.88,19.62,-2.69,0.8172342353541333,0.8303557800959647,0.3457389718258952,-107.06613098760813,-43.91268486070203,-42.91364872106161,-0.2821,-0.8042,-0.3739,-0.3658
172,2225440.0,2187.862857,1.0,3.48,7.11,-4.43,4.56,-35.56,14.0,7.75,27.81,2.0,0.8050389959424491,0.4496235944085214,0.7823965218244702,-106.6622162163593,-44.295958202894106,-43.591628016640854,-0.27699999999999997,-0.8021,-0.377,-0.3713
173,2225440.0,2187.862857,1.0,3.48,7.11,-4.43,4.56,-35.56,14.0,7.75,27.81,2.0,0.8050389959424491,0.4496235944085214,0.7823965218244702,-106.6622162163593,-44.295958202894106,-43.591628016640854,-0.27699999999999997,-0.8021,-0.377,-0.3713
174,2225475.0,2187.874155,1.0,4.12,7.42,-5.78,4.56,-35.56,14.0,8.19,31.56,0.69,0.06082562826138549,-0.028980139813481017,-0.4614881172266561,-106.20292801228649,-44.617815884427785,-44.30833052387342,-0.2723,-0.7997,-0.3796,-0.3771
175,2225475.0,2187.874155,1.0,4.12,7.42,-5.78,4.56,-35.56,14.0,8.19,31.56,0.69,0.06082562826138549,-0.028980139813481017,-0.4614881172266561,-106.20292801228649,-44.617815884427785,-44.30833052387342,-0.2723,-0.7997,-0.3796,-0.3771
176,2225512.0,2187.885753,1.0,4.4,6.93,-6.19,3.38,-34.75,14.75,12.56,22.69,-0.94,-0.3889033954191843,-0.4934917437440491,-0.4552318960212105,-105.78405748823394,-45.076485318116525,-44.927644585005865,-0.2664,-0.7975,-0.3833,-0.3821
177,2225512.0,2187.885753,1.0,4.4,6.93,-6.19,3.38,-34.75,14.75,12.56,22.69,-0.94,-0.3889033954191843,-0.4934917437440491,-0.4552318960212105,-105.78405748823394,-45.076485318116525,-44.927644585005865,-0.2664,-0.7975,-0.3833,-0.3821
178,2225547.0,2187.9903480000003,1.0,4.51,6.95,-6.73,3.19,-34.75,14.0,0.88,21.81,0.12,-0.8227085219144628,-0.574529743377652,-0.8201353211563341,-105.57537971529776,-45.1509357631892,-45.37440798509372,-0.2637,-0.7964,-0.3839,-0.3857
179,2225547.0,2187.9903480000003,1.0,4.51,6.95,-6.73,3.19,-34.75,14.0,0.88,21.81,0.12,-0.8227085219144628,-0.574529743377652,-0.8201353211563341,-105.57537971529776,-45.1509357631892,-45.37440798509372,-0.2637,-0.7964,-0.3839,-0.3857
180,2225582.0,2188.053148,1.0,4.47,7.15,-6.9,3.19,-34.75,14.0,5.88,14.13,-2.0,-0.956032693005846,-0.3974173641350913,-1.039614837656691,-105.17837759673445,-45.39924946360132,-45.87166763185487,-0.2614,-0.7943,-0.3859,-0.3897
181,2225582.0,2188.053148,1.0,4.47,7.15,-6.9,3.19,-34.75,14.0,5.88,14.13,-2.0,-0.956032693005846,-0.3974173641350913,-1.039614837656691,-105.17837759673445,-45.39924946360132,-45.87166763185487,-0.2614,-0.7943,-0.3859,-0.3897
182,2225616.0,2188.117733,1.0,4.57,6.82,-7.81,1.88,-34.75,14.75,2.75,6.88,-1.63,-1.8111536496057137,-0.7408306819566608,-1.3541874398246474,-105.12180982139752,-45.424093194951936,-46.008573794141824,-0.2603,-0.794,-0.3861,-0.3908
183,2225616.0,2188.117733,1.0,4.57,6.82,-7.81,1.88,-34.75,14.75,2.75,6.88,-1.63,-1.8111536496057137,-0.7408306819566608,-1.3541874398246474,-105.12180982139752,-45.424093194951936,-46.008573794141824,-0.2603,-0.794,-0.3861,-0.3908
184,2225651.0,2188.165139,1.0,4.3,7.01,-6.99,1.88,-35.19,14.88,-9.56,-3.81,2.25,-1.1844882293040455,-0.3440841706554525,-0.9157001956494836,-105.25385814101205,-45.10129990098643,-45.95878171202678,-0.2625,-0.7947,-0.3835,-0.3904
185,2225651.0,2188.165139,1.0,4.3,7.01,-6.99,1.88,-35.19,14.88,-9.56,-3.81,2.25,-1.1844882293040455,-0.3440841706554525,-0.9157001956494836,-105.25385814101205,-45.10129990098643,-45.95878171202678,-0.2625,-0.7947,-0.3835,-0.3904
186,2225686.0,2188.1834940000003,1.0,4.44,7.57,-6.6,1.88,-35.19,14.88,-8.75,-9.56,2.0,-0.6071238595888201,-0.1237415142222793,-1.1566792688296097,-105.31051129197044,-44.85325420187507,-45.93388911170107,-0.265,-0.795,-0.3815,-0.3902
187,2225686.0,2188.1834940000003,1.0,4.44,7.57,-6.6,1.88,-35.19,14.88,-8.75,-9.56,2.0,-0.6071238595888201,-0.1237415142222793,-1.1566792688296097,-105.31051129197044,-44.85325420187507,-45.93388911170107,-0.265,-0.795,-0.3815,-0.3902
188,2225721.0,2188.186973,1.0,4.09,7.26,-5.88,1.88,-34.75,14.5,0.06,-13.13,-3.81,-0.2431953101894761,0.014117045065174416,-0.3889743923626608,-105.67017110275856,-44.543508213508154,-45.44893918092666,-0.2685,-0.7969,-0.379,-0.3863
189,2225721.0,2188.186973,1.0,4.09,7.26,-5.88,1.88,-34.75,14.5,0.06,-13.13,-3.81,-0.2431953101894761,0.014117045065174416,-0.3889743923626608,-105.67017110275856,-44.543508213508154,-45.44893918092666,-0.2685,-0.7969,-0.379,-0.3863
190,2225756.0,2188.2315940000003,1.0,3.76,7.04,-5.28,2.69,-35.56,15.25,-6.25,-11.38,-1.94,0.04445957249360921,0.1963629341795361,0.2391495456235209,-105.822052873486,-44.43208368482341,-45.1509357631892,-0.2708,-0.7977,-0.3781,-0.3839
191,2225756.0,2188.2315940000003,1.0,3.76,7.04,-5.28,2.69,-35.56,15.25,-6.25,-11.38,-1.94,0.04445957249360921,0.1963629341795361,0.2391495456235209,-105.822052873486,-44.43208368482341,-45.1509357631892,-0.2708,-0.7977,-0.3781,-0.3839
192,2225793.0,2188.24436,1.0,3.79,7.64,-4.96,2.38,-34.38,13.69,-2.38,-6.63,0.69,0.555920484280727,0.5304116966175458,-0.02924934104901133,-106.08848885002472,-44.060987161952966,-44.89044689976561,-0.2738,-0.7991,-0.3751,-0.3818
193,2225793.0,2188.24436,1.0,3.79,7.64,-4.96,2.38,-34.38,13.69,-2.38,-6.63,0.69,0.555920484280727,0.5304116966175458,-0.02924934104901133,-106.08848885002472,-44.060987161952966,-44.89044689976561,-0.2738,-0.7991,-0.3751,-0.3818
194,2225825.0,2188.256265,1.0,3.98,7.18,-5.11,2.38,-34.38,13.69,4.06,7.31,-3.31,0.3429586042348527,0.09339775181400434,0.1433919440575142,-106.05037621061463,-44.17226486112258,-44.89044689976561,-0.2732,-0.7989,-0.376,-0.3818
195,2225825.0,2188.256265,1.0,3.98,7.18,-5.11,2.38,-34.38,13.69,4.06,7.31,-3.31,0.3429586042348527,0.09339775181400434,0.1433919440575142,-106.05037621061463,-44.17226486112258,-44.89044689976561,-0.2732,-0.7989,-0.376,-0.3818
196,2225862.0,2188.259744,1.0,3.9,7.76,-5.39,3.06,-35.56,14.5,-6.75,-2.19,-0.25,0.2794458793884016,0.4318986991544427,-0.4019284276833375,-105.99323879892164,-44.04862567408432,-44.952445815509726,-0.2747,-0.7986,-0.375,-0.3823
197,2225862.0,2188.259744,1.0,3.9,7.76,-5.39,3.06,-35.56,14.5,-6.75,-2.19,-0.25,0.2794458793884016,0.4318986991544427,-0.4019284276833375,-105.99323879892164,-44.04862567408432,-44.952445815509726,-0.2747,-0.7986,-0.375,-0.3823
198,2225897.0,2188.347288,1.0,3.93,7.63,-5.36,1.88,-35.56,14.5,0.06,-1.25,-1.5,0.26802771625417443,0.33040526031459905,-0.3032656033705869,-106.12661834568745,-43.86326796394638,-44.84085774318776,-0.2758,-0.7993,-0.3735,-0.3814
199,2225897.0,2188.347288,1.0,3.93,7.63,-5.36,1.88,-35.56,14.5,0.06,-1.25,-1.5,0.26802771625417443,0.33040526031459905,-0.3032656033705869,-106.12661834568745,-43.86326796394638,-44.84085774318776,-0.2758,-0.7993,-0.3735,-0.3814
200,2225932.0,2188.3532010000004,1.0,3.95,7.62,-5.45,1.88,-35.56,14.5,0.37,0.63,-4.06,0.188827700400148,0.2601917529874296,-0.3553401766946678,-105.97420139443399,-43.96211035016289,-44.82846183777319,-0.2772,-0.7985,-0.3743,-0.3813
201,2225932.0,2188.3532010000004,1.0,3.95,7.62,-5.45,1.88,-35.56,14.5,0.37,0.63,-4.06,0.188827700400148,0.2601917529874296,-0.3553401766946678,-105.97420139443399,-43.96211035016289,-44.82846183777319,-0.2772,-0.7985,-0.3743,-0.3813
202,2225967.0,2188.364645,1.0,3.79,7.39,-5.64,2.75,-35.19,14.5,-0.06,1.75,-4.0,-0.12037701983699378,0.2127049885407981,-0.2295876397206271,-105.89809368556764,-44.060987161952966,-44.7912774389752,-0.2776,-0.7981,-0.3751,-0.381
203,2225967.0,2188.364645,1.0,3.79,7.39,-5.64,2.75,-35.19,14.5,-0.06,1.75,-4.0,-0.12037701983699378,0.2127049885407981,-0.2295876397206271,-105.89809368556764,-44.060987161952966,-44.7912774389752,-0.2776,-0.7981,-0.3751,-0.381
204,2226001.0,2188.41124,1.0,3.73,7.09,-5.61,3.88,-35.19,14.5,0.25,-2.31,-4.13,-0.23675848561876056,0.07021120527546376,0.02952793846567125,-105.78405748823394,-44.209367167614204,-44.754098011748425,-0.2784,-0.7975,-0.3763,-0.3807
205,2226001.0,2188.41124,1.0,3.73,7.09,-5.61,3.88,-35.19,14.5,0.25,-2.31,-4.13,-0.23675848561876056,0.07021120527546376,0.02952793846567125,-105.78405748823394,-44.209367167614204,-44.754098011748425,-0.2784,-0.7975,-0.3763,-0.3807
206,2226036.0,2188.4290309999997,1.0,3.76,6.87,-5.57,3.88,-35.19,14.5,1.31,-0.12,-1.06,-0.265572364228714,-0.08087045209721566,0.2002806916017672,-105.78405748823394,-44.27121519182589,-44.679754048391246,-0.2785,-0.7975,-0.3768,-0.3801
207,2226036.0,2188.4290309999997,1.0,3.76,6.87,-5.57,3.88,-35.19,14.5,1.31,-0.12,-1.06,-0.265572364228714,-0.08087045209721566,0.2002806916017672,-105.78405748823394,-44.27121519182589,-44.679754048391246,-0.2785,-0.7975,-0.3768,-0.3801
208,2226071.0,2188.487988,1.0,3.79,7.34,-5.71,3.19,-34.75,14.06,-3.56,-0.63,-0.19,-0.2020734696049893,0.12647872409587713,-0.23262136027475575,-105.746078748701,-44.18463175478608,-44.71692355018706,-0.2795,-0.7973,-0.3761,-0.3804
209,2226071.0,2188.487988,1.0,3.79,7.34,-5.71,3.19,-34.75,14.06,-3.56,-0.63,-0.19,-0.2020734696049893,0.12647872409587713,-0.23262136027475575,-105.746078748701,-44.18463175478608,-44.71692355018706,-0.2795,-0.7973,-0.3761,-0.3804
210,2226106.0,2188.491548,1.0,3.82,7.3,-5.57,4.25,-34.06,13.69,0.31,1.31,0.69,-0.09409979101833832,0.10425954504415193,-0.13757320629406955,-105.746078748701,-44.17226486112258,-44.74170597311218,-0.2795,-0.7973,-0.376,-0.3806
211,2226106.0,2188.491548,1.0,3.82,7.3,-5.57,4.25,-34.06,13.69,0.31,1.31,0.69,-0.09409979101833832,0.10425954504415193,-0.13757320629406955,-105.746078748701,-44.17226486112258,-44.74170597311218,-0.2795,-0.7973,-0.376,-0.3806
212,2226143.0,2188.537601,1.0,3.94,7.47,-5.59,3.5,-34.75,13.69,2.44,-0.37,0.37,0.006919635149111203,0.0992111693394433,-0.3206748818494862,-105.78405748823394,-44.11043851170447,-44.71692355018706,-0.2797,-0.7975,-0.3755,-0.3804
213,2226143.0,2188.537601,1.0,3.94,7.47,-5.59,3.5,-34.75,13.69,2.44,-0.37,0.37,0.006919635149111203,0.0992111693394433,-0.3206748818494862,-105.78405748823394,-44.11043851170447,-44.71692355018706,-0.2797,-0.7975,-0.3755,-0.3804
214,2226176.0,2188.599669,1.0,3.87,7.41,-5.66,3.5,-34.75,13.69,-0.56,0.25,0.12,-0.09599446312709148,0.11349135914303865,-0.2878289253556225,-105.80305309851605,-44.13516742855202,-44.69214333160206,-0.2794,-0.7976,-0.3757,-0.3802
215,2226176.0,2188.599669,1.0,3.87,7.41,-5.66,3.5,-34.75,13.69,-0.56,0.25,0.12,-0.09599446312709148,0.11349135914303865,-0.2878289253556225,-105.80305309851605,-44.13516742855202,-44.69214333160206,-0.2794,-0.7976,-0.3757,-0.3802
216,2226212.0,2188.619564,1.0,3.87,7.43,-5.7,3.5,-35.56,14.5,2.25,0.75,-0.88,-0.12398843613622955,0.11288742573348333,-0.3246718928635257,-105.78405748823394,-44.13516742855202,-44.69214333160206,-0.2797,-0.7975,-0.3757,-0.3802
217,2226212.0,2188.619564,1.0,3.87,7.43,-5.7,3.5,-35.56,14.5,2.25,0.75,-0.88,-0.12398843613622955,0.11288742573348333,-0.3246718928635257,-105.78405748823394,-44.13516742855202,-44.69214333160206,-0.2797,-0.7975,-0.3757,-0.3802
