,TIME,ELAPSED_SECONDS,PSTATE,acc_x,acc_y,acc_z,mag_x,mag_y,mag_z,gyr_x,gyr_y,gyr_z,lin_x,lin_y,lin_z,eul_x,eul_y,eul_z,qua_w,qua_x,qua_y,qua_z
0,915496.0,688.284418,1.0,0.74,2.66,-9.27,-10.06,-27.5,30.0,0.75,0.81,0.19,-0.04752901361117722,-0.0878686002216793,0.13472567740730312,-153.3110465719337,20.320279509683687,-1.8908465277120163,-0.1476,-0.973,0.1764,-0.0165
1,915496.0,688.284418,1.0,0.74,2.66,-9.27,-10.06,-27.5,30.0,0.75,0.81,0.19,-0.04752901361117722,-0.0878686002216793,0.13472567740730312,-153.3110465719337,20.320279509683687,-1.8908465277120163,-0.1476,-0.973,0.1764,-0.0165
2,915533.0,688.293886,1.0,0.71,2.73,-9.32,-10.06,-27.5,30.0,0.0,0.44,0.25,-0.0986759609514033,-0.0519780015371023,0.06976336503877256,-153.3110465719337,20.320279509683687,-1.8908465277120163,-0.1477,-0.973,0.1764,-0.0165
3,915533.0,688.293886,1.0,0.71,2.73,-9.32,-10.06,-27.5,30.0,0.0,0.44,0.25,-0.0986759609514033,-0.0519780015371023,0.06976336503877256,-153.3110465719337,20.320279509683687,-1.8908465277120163,-0.1477,-0.973,0.1764,-0.0165
4,915566.0,688.345276,1.0,0.71,2.68,-9.41,-9.69,-27.19,30.0,1.63,0.69,0.88,-0.08518256680278996,-0.11580393852596972,-0.002220137693475621,-153.36074062083046,20.343563363128432,-1.9137679978932431,-0.1473,-0.9731,0.1766,-0.0167
5,915566.0,688.345276,1.0,0.71,2.68,-9.41,-9.69,-27.19,30.0,1.63,0.69,0.88,-0.08518256680278996,-0.11580393852596972,-0.002220137693475621,-153.36074062083046,20.343563363128432,-1.9137679978932431,-0.1473,-0.9731,0.1766,-0.0167
6,915601.0,688.377383,1.0,0.76,2.72,-9.33,-9.25,-27.5,31.25,2.25,1.69,1.37,-0.06333120310481205,-0.03559714207085474,0.05884911968911055,-153.3110465719337,20.378490735265764,-1.9596111689111861,-0.147,-0.973,0.1769,-0.0171
7,915601.0,688.377383,1.0,0.76,2.72,-9.33,-9.25,-27.5,31.25,2.25,1.69,1.37,-0.06333120310481205,-0.03559714207085474,0.05884911968911055,-153.3110465719337,20.378490735265764,-1.9596111689111861,-0.147,-0.973,0.1769,-0.0171
8,915636.0,688.429561,1.0,0.75,2.68,-9.34,-9.25,-27.5,31.25,0.88,2.5,1.5,-0.06961289200301889,-0.07366095181268006,0.061383040627102765,-153.3110465719337,20.401776712875193,-2.016915574628728,-0.1467,-0.973,0.1771,-0.0176
9,915636.0,688.429561,1.0,0.75,2.68,-9.34,-9.25,-27.5,31.25,0.88,2.5,1.5,-0.06961289200301889,-0.07366095181268006,0.061383040627102765,-153.3110465719337,20.401776712875193,-2.016915574628728,-0.1467,-0.973,0.1771,-0.0176
10,915671.0,688.45305,1.0,0.89,2.61,-9.53,-10.06,-27.19,29.56,3.88,2.63,2.25,0.06422384331095017,-0.1379965624290509,-0.11312480826596705,-153.3110465719337,20.49492914898236,-2.142987063023817,-0.1462,-0.973,0.1779,-0.0187
11,915671.0,688.45305,1.0,0.89,2.61,-9.53,-10.06,-27.19,29.56,3.88,2.63,2.25,0.06422384331095017,-0.1379965624290509,-0.11312480826596705,-153.3110465719337,20.49492914898236,-2.142987063023817,-0.1462,-0.973,0.1779,-0.0187
12,915705.0,688.456068,1.0,0.95,2.76,-9.48,-10.06,-26.75,30.87,-0.19,-0.56,0.63,0.060384320770099774,0.03172347091523742,-0.11231402630830267,-153.2614432071201,20.506574164810864,-2.1773706400327653,-0.1461,-0.9729,0.17800000000000002,-0.019
13,915705.0,688.456068,1.0,0.95,2.76,-9.48,-10.06,-26.75,30.87,-0.19,-0.56,0.63,0.060384320770099774,0.03172347091523742,-0.11231402630830267,-153.2614432071201,20.506574164810864,-2.1773706400327653,-0.1461,-0.9729,0.17800000000000002,-0.019
14,915740.0,688.501291,1.0,0.76,2.21,-9.31,-10.06,-26.37,30.0,5.94,0.63,5.81,0.060364655649411486,-0.4455785576754484,0.2183437962282273,-153.3110465719337,20.63468349632429,-2.2117544130994498,-0.1445,-0.973,0.1791,-0.0193
15,915740.0,688.501291,1.0,0.76,2.21,-9.31,-10.06,-26.37,30.0,5.94,0.63,5.81,0.060364655649411486,-0.4455785576754484,0.2183437962282273,-153.3110465719337,20.63468349632429,-2.2117544130994498,-0.1445,-0.973,0.1791,-0.0193
16,915775.0,688.521167,1.0,0.71,2.31,-9.36,-10.06,-26.37,30.0,-3.0,3.63,8.06,-0.042169061973800666,-0.3995629160442875,0.14805945860450898,-153.06392657993817,20.832722001771078,-2.3263684457528235,-0.1449,-0.9725,0.1808,-0.0203
17,915775.0,688.521167,1.0,0.71,2.31,-9.36,-10.06,-26.37,30.0,-3.0,3.63,8.06,-0.042169061973800666,-0.3995629160442875,0.14805945860450898,-153.06392657993817,20.832722001771078,-2.3263684457528235,-0.1449,-0.9725,0.1808,-0.0203
18,915812.0,688.5678230000001,1.0,1.29,2.21,-9.6,-10.06,-27.19,31.0,9.25,10.06,19.75,0.4501793107410959,-0.3377554159980257,-0.11259694052652057,-152.72165046658662,21.403893300909647,-2.7504615040371316,-0.1434,-0.9718,0.1857,-0.024
19,915812.0,688.5678230000001,1.0,1.29,2.21,-9.6,-10.06,-27.19,31.0,9.25,10.06,19.75,0.4501793107410959,-0.3377554159980257,-0.11259694052652057,-152.72165046658662,21.403893300909647,-2.7504615040371316,-0.1434,-0.9718,0.1857,-0.024
20,915847.0,688.631752,1.0,0.39,2.46,-8.19,-11.19,-27.19,30.87,15.0,17.12,23.94,-0.5906463597936841,-0.001637091972525262,1.2666889814945677,-152.3835367338065,21.987276416568136,-3.3121572228147254,-0.1406,-0.9711,0.1907,-0.0289
21,915847.0,688.631752,1.0,0.39,2.46,-8.19,-11.19,-27.19,30.87,15.0,17.12,23.94,-0.5906463597936841,-0.001637091972525262,1.2666889814945677,-152.3835367338065,21.987276416568136,-3.3121572228147254,-0.1406,-0.9711,0.1907,-0.0289
22,915879.0,688.63615,1.0,-0.32,1.07,-5.64,-11.19,-27.19,30.87,18.37,125.69,24.25,-0.989099639752702,-0.8165963655272587,4.202031165641259,-151.57882322936237,22.431032941974188,-6.11062569758793,-0.14,-0.9694,0.1945,-0.0533
23,915879.0,688.63615,1.0,-0.32,1.07,-5.64,-11.19,-27.19,30.87,18.37,125.69,24.25,-0.989099639752702,-0.8165963655272587,4.202031165641259,-151.57882322936237,22.431032941974188,-6.11062569758793,-0.14,-0.9694,0.1945,-0.0533
24,915914.0,688.69813,1.0,3.08,2.78,-6.67,-11.19,-25.69,30.06,-28.5,328.06,40.13,0.0033016492530654478,0.8769465851857554,2.00058480773807,-145.4536804163923,22.068995754971112,-17.787196618044018,-0.1663,-0.9549,0.1914,-0.1546
25,915914.0,688.69813,1.0,3.08,2.78,-6.67,-11.19,-25.69,30.06,-28.5,328.06,40.13,0.0033016492530654478,0.8769465851857554,2.00058480773807,-145.4536804163923,22.068995754971112,-17.787196618044018,-0.1663,-0.9549,0.1914,-0.1546
26,915953.0,688.715848,1.0,8.27,3.41,-8.36,-18.25,-26.37,27.87,50.13,427.75,14.75,1.6850888656271548,1.2924560004980137,-2.2515684837444407,-137.339715842895,20.4134200209308,-30.09265778200395,-0.183,-0.9315,0.1772,-0.2596
27,915953.0,688.715848,1.0,8.27,3.41,-8.36,-18.25,-26.37,27.87,50.13,427.75,14.75,1.6850888656271548,1.2924560004980137,-2.2515684837444407,-137.339715842895,20.4134200209308,-30.09265778200395,-0.183,-0.9315,0.1772,-0.2596
28,915988.0,688.759594,1.0,8.48,1.93,-8.01,-18.25,-26.37,27.87,-1.06,280.38,27.5,0.3094726961479654,-0.7583688265744042,-1.9884550598635649,-127.66274936627121,18.796984460560502,-42.274097288223146,-0.1943,-0.8975,0.1633,-0.3606
29,915988.0,688.759594,1.0,8.48,1.93,-8.01,-18.25,-26.37,27.87,-1.06,280.38,27.5,0.3094726961479654,-0.7583688265744042,-1.9884550598635649,-127.66274936627121,18.796984460560502,-42.274097288223146,-0.1943,-0.8975,0.1633,-0.3606
30,916023.0,688.814874,1.0,8.75,3.59,-5.5,-27.25,-25.69,21.5,-25.37,385.25,3.0,-0.4553118408781866,0.9047029170807556,-1.087146572333344,-118.29715573552454,16.929394296591493,-52.42479644291255,-0.2151,-0.8585,0.1472,-0.4417
31,916023.0,688.814874,1.0,8.75,3.59,-5.5,-27.25,-25.69,21.5,-25.37,385.25,3.0,-0.4553118408781866,0.9047029170807556,-1.087146572333344,-118.29715573552454,16.929394296591493,-52.42479644291255,-0.2151,-0.8585,0.1472,-0.4417
32,916060.0,688.8220570000001,1.0,12.82,2.8,-7.05,-34.0,-25.69,12.75,12.19,131.69,21.12,-1.2296881728668445,-1.3065945404397,-4.981033310931592,-109.47189924933485,14.973857013009212,-62.182157850572864,-0.2227,-0.8165,0.1303,-0.5164
33,916060.0,688.8220570000001,1.0,12.82,2.8,-7.05,-34.0,-25.69,12.75,12.19,131.69,21.12,-1.2296881728668445,-1.3065945404397,-4.981033310931592,-109.47189924933485,14.973857013009212,-62.182157850572864,-0.2227,-0.8165,0.1303,-0.5164
34,916094.0,688.8819139999999,1.0,8.41,3.05,-1.9,-36.25,-24.87,4.69,-25.0,17.0,5.13,0.6403157912400285,1.511305589396897,0.8096198731777964,-108.44628015323634,15.366907820940328,-63.00019289675618,-0.2256,-0.8113,0.1337,-0.5225
35,916094.0,688.8819139999999,1.0,8.41,3.05,-1.9,-36.25,-24.87,4.69,-25.0,17.0,5.13,0.6403157912400285,1.511305589396897,0.8096198731777964,-108.44628015323634,15.366907820940328,-63.00019289675618,-0.2256,-0.8113,0.1337,-0.5225
36,916129.0,688.889692,1.0,8.8,2.8,-2.75,-36.25,-24.87,4.69,12.06,105.69,3.94,-0.21596966350506572,0.6114085848544915,0.19301194529814047,-105.5185544187127,14.592535930080526,-66.11767701122476,-0.2291,-0.7961,0.127,-0.5455
37,916129.0,688.889692,1.0,8.8,2.8,-2.75,-36.25,-24.87,4.69,12.06,105.69,3.94,-0.21596966350506572,0.6114085848544915,0.19301194529814047,-105.5185544187127,14.592535930080526,-66.11767701122476,-0.2291,-0.7961,0.127,-0.5455
38,916164.0,688.908139,1.0,9.79,1.84,-2.73,-37.56,-25.69,2.75,-6.0,84.44,8.69,0.14195233359626486,-0.449838874612735,-0.511300112395082,-102.96169084903136,14.049721543626418,-68.87403881539461,-0.2304,-0.7824,0.1223,-0.5655
39,916164.0,688.908139,1.0,9.79,1.84,-2.73,-37.56,-25.69,2.75,-6.0,84.44,8.69,0.14195233359626486,-0.449838874612735,-0.511300112395082,-102.96169084903136,14.049721543626418,-68.87403881539461,-0.2304,-0.7824,0.1223,-0.5655
40,916201.0,688.94931,1.0,9.99,2.84,-2.27,-36.75,-25.25,0.06,-3.38,2.81,4.63,-0.08937828569942832,0.5312851084894974,-0.8107106727633973,-101.61006514803414,14.24602144035678,-70.0172862891219,-0.2341,-0.775,0.124,-0.5737
41,916201.0,688.94931,1.0,9.99,2.84,-2.27,-36.75,-25.25,0.06,-3.38,2.81,4.63,-0.08937828569942832,0.5312851084894974,-0.8107106727633973,-101.61006514803414,14.24602144035678,-70.0172862891219,-0.2341,-0.775,0.124,-0.5737
42,916236.0,689.011041,1.0,9.33,2.26,-1.99,-36.75,-25.25,0.06,1.75,-11.0,1.63,0.2460367031700586,0.2706698175731771,0.00956860855754016,-101.91883135691955,14.38461134345722,-69.73771440110959,-0.2328,-0.7767,0.1252,-0.5717
43,916236.0,689.011041,1.0,9.33,2.26,-1.99,-36.75,-25.25,0.06,1.75,-11.0,1.63,0.2460367031700586,0.2706698175731771,0.00956860855754016,-101.91883135691955,14.38461134345722,-69.73771440110959,-0.2328,-0.7767,0.1252,-0.5717
44,916269.0,689.077003,1.0,9.7,2.46,-2.48,-38.25,-24.5,-0.69,-12.31,-45.56,-2.06,0.027791033692329936,0.22355913615584555,-0.5006895680499229,-102.75951351944929,14.765843296845908,-68.66575661319368,-0.2344,-0.7813,0.1285,-0.564
45,916269.0,689.077003,1.0,9.7,2.46,-2.48,-38.25,-24.5,-0.69,-12.31,-45.56,-2.06,0.027791033692329936,0.22355913615584555,-0.5006895680499229,-102.75951351944929,14.765843296845908,-68.66575661319368,-0.2344,-0.7813,0.1285,-0.564
46,916303.0,689.09155,1.0,9.97,2.75,-3.12,-37.0,-25.69,-0.69,-1.63,-65.37,0.81,-0.2803069851638661,0.256034003454511,-0.9893527131871096,-104.1843158106976,15.25128597113998,-67.07738608365682,-0.2338,-0.789,0.1327,-0.5525
47,916303.0,689.09155,1.0,9.97,2.75,-3.12,-37.0,-25.69,-0.69,-1.63,-65.37,0.81,-0.2803069851638661,0.256034003454511,-0.9893527131871096,-104.1843158106976,15.25128597113998,-67.07738608365682,-0.2338,-0.789,0.1327,-0.5525
48,916340.0,689.099834,1.0,10.21,2.51,-3.55,-37.38,-25.25,1.88,6.75,-169.56,7.81,0.3590935786948738,0.3029874633536931,-1.2805475899589105,-108.60323493215937,16.361918539628213,-62.557208730764245,-0.2252,-0.8121,0.1423,-0.5192
49,916340.0,689.099834,1.0,10.21,2.51,-3.55,-37.38,-25.25,1.88,6.75,-169.56,7.81,0.3590935786948738,0.3029874633536931,-1.2805475899589105,-108.60323493215937,16.361918539628213,-62.557208730764245,-0.2252,-0.8121,0.1423,-0.5192
50,916375.0,689.1417240000001,1.0,7.71,2.73,-3.28,-37.38,-25.25,1.88,-0.37,-197.88,4.75,0.3455012945679571,1.1844182907270902,1.0812169352150214,-115.06583600138664,18.15844670797989,-55.56287082864312,-0.2145,-0.8437,0.1578,-0.4661
51,916375.0,689.1417240000001,1.0,7.71,2.73,-3.28,-37.38,-25.25,1.88,-0.37,-197.88,4.75,0.3455012945679571,1.1844182907270902,1.0812169352150214,-115.06583600138664,18.15844670797989,-55.56287082864312,-0.2145,-0.8437,0.1578,-0.4661
52,916412.0,689.193151,1.0,8.07,2.77,-5.01,-36.56,-25.25,5.56,23.31,-127.81,-2.69,-0.12202708963566528,0.7147140927380018,-0.061084955654049373,-118.83557102370405,18.738911537329376,-51.68515222063561,-0.2059,-0.8609,0.1628,-0.4359
53,916412.0,689.193151,1.0,8.07,2.77,-5.01,-36.56,-25.25,5.56,23.31,-127.81,-2.69,-0.12202708963566528,0.7147140927380018,-0.061084955654049373,-118.83557102370405,18.738911537329376,-51.68515222063561,-0.2059,-0.8609,0.1628,-0.4359
54,916447.0,689.20594,1.0,7.22,1.73,-5.11,-35.38,-25.25,9.69,34.38,-127.0,11.94,0.2781579617156458,0.07108394509215532,0.7982663924328595,-122.35085755126808,19.284990927591146,-48.3342986251064,-0.1919,-0.8761,0.1675,-0.4094
55,916447.0,689.20594,1.0,7.22,1.73,-5.11,-35.38,-25.25,9.69,34.38,-127.0,11.94,0.2781579617156458,0.07108394509215532,0.7982663924328595,-122.35085755126808,19.284990927591146,-48.3342986251064,-0.1919,-0.8761,0.1675,-0.4094
56,916482.0,689.2242200000001,1.0,7.67,2.88,-6.15,-35.38,-25.25,9.69,4.75,-71.37,-17.37,-0.08318923869602729,0.9595370482747109,-0.3922797577517141,-125.67114640173416,19.57563811342796,-44.91524480207666,-0.1834,-0.8897,0.17,-0.382
57,916482.0,689.2242200000001,1.0,7.67,2.88,-6.15,-35.38,-25.25,9.69,4.75,-71.37,-17.37,-0.08318923869602729,0.9595370482747109,-0.3922797577517141,-125.67114640173416,19.57563811342796,-44.91524480207666,-0.1834,-0.8897,0.17,-0.382
58,916516.0,689.270494,1.0,7.33,3.39,-6.86,-34.56,-25.25,13.75,28.44,-104.62,-23.81,-0.33584012631246624,1.3613810948370415,-0.6964187384296743,-129.40467932878911,19.16876722159467,-41.41533197987328,-0.1727,-0.9041,0.1665,-0.3536
59,916516.0,689.270494,1.0,7.33,3.39,-6.86,-34.56,-25.25,13.75,28.44,-104.62,-23.81,-0.33584012631246624,1.3613810948370415,-0.6964187384296743,-129.40467932878911,19.16876722159467,-41.41533197987328,-0.1727,-0.9041,0.1665,-0.3536
60,916553.0,689.333939,1.0,6.2,1.77,-5.77,-33.56,-24.5,16.5,31.0,-64.87,-4.0,0.4958629139621923,0.5117990022780721,1.1835425698548736,-132.07176372350168,19.13390399645449,-39.242385733379436,-0.1572,-0.9138,0.1662,-0.3358
61,916553.0,689.333939,1.0,6.2,1.77,-5.77,-33.56,-24.5,16.5,31.0,-64.87,-4.0,0.4958629139621923,0.5117990022780721,1.1835425698548736,-132.07176372350168,19.13390399645449,-39.242385733379436,-0.1572,-0.9138,0.1662,-0.3358
62,916588.0,689.350909,1.0,6.38,2.95,-7.13,-30.5,-24.5,20.75,14.44,-44.25,-44.38,-0.2513659336394713,1.1501250928632936,-0.13607736416783034,-134.38132917213414,17.891591511712036,-37.41052638436744,-0.153,-0.9218,0.1555,-0.3207
63,916588.0,689.350909,1.0,6.38,2.95,-7.13,-30.5,-24.5,20.75,14.44,-44.25,-44.38,-0.2513659336394713,1.1501250928632936,-0.13607736416783034,-134.38132917213414,17.891591511712036,-37.41052638436744,-0.153,-0.9218,0.1555,-0.3207
64,916623.0,689.4363900000001,1.0,6.16,1.37,-7.08,-30.5,-24.5,20.75,71.69,-17.94,-14.63,0.3453993813441245,-0.11953182208336788,0.3295559616949806,-136.06616582647524,16.732468293463864,-36.685408046310336,-0.1406,-0.9274,0.1455,-0.3147
65,916623.0,689.4363900000001,1.0,6.16,1.37,-7.08,-30.5,-24.5,20.75,71.69,-17.94,-14.63,0.3453993813441245,-0.11953182208336788,0.3295559616949806,-136.06616582647524,16.732468293463864,-36.685408046310336,-0.1406,-0.9274,0.1455,-0.3147
66,916660.0,689.440872,1.0,6.86,2.09,-7.73,-29.37,-24.87,21.25,9.94,-43.0,-44.25,0.42535198465564217,0.5911120981932556,-0.7123928355682185,-137.56078717941855,15.644464720667994,-35.96180782852424,-0.1309,-0.9322,0.1361,-0.3087
67,916660.0,689.440872,1.0,6.86,2.09,-7.73,-29.37,-24.87,21.25,9.94,-43.0,-44.25,0.42535198465564217,0.5911120981932556,-0.7123928355682185,-137.56078717941855,15.644464720667994,-35.96180782852424,-0.1309,-0.9322,0.1361,-0.3087
68,916695.0,689.49375,1.0,5.41,1.98,-7.17,-28.69,-24.19,23.0,46.44,-49.38,-47.38,-0.0535416855347368,0.4965387505703674,0.622534225626719,-139.80191665328087,14.211377245158012,-34.315074743396394,-0.1257,-0.9391,0.1237,-0.295
69,916695.0,689.49375,1.0,5.41,1.98,-7.17,-28.69,-24.19,23.0,46.44,-49.38,-47.38,-0.0535416855347368,0.4965387505703674,0.622534225626719,-139.80191665328087,14.211377245158012,-34.315074743396394,-0.1257,-0.9391,0.1237,-0.295
70,916729.0,689.51139,1.0,5.97,0.83,-7.53,-28.69,-24.19,23.0,40.13,-14.44,-24.19,0.6732183930897566,-0.3930373686414103,0.19296191362768056,-141.64310130769366,12.688278342697654,-33.596193911040075,-0.1102,-0.9445,0.1105,-0.289
71,916729.0,689.51139,1.0,5.97,0.83,-7.53,-28.69,-24.19,23.0,40.13,-14.44,-24.19,0.6732183930897566,-0.3930373686414103,0.19296191362768056,-141.64310130769366,12.688278342697654,-33.596193911040075,-0.1102,-0.9445,0.1105,-0.289
72,916764.0,689.514387,1.0,5.63,1.89,-7.48,-26.69,-24.87,23.75,21.75,8.44,-46.81,0.19515011286674944,0.5511324052171626,0.273677247213616,-142.20517991761645,11.547444362906596,-33.4525819599508,-0.1089,-0.9461,0.1006,-0.2878
73,916764.0,689.514387,1.0,5.63,1.89,-7.48,-26.69,-24.87,23.75,21.75,8.44,-46.81,0.19515011286674944,0.5511324052171626,0.273677247213616,-142.20517991761645,11.547444362906596,-33.4525819599508,-0.1089,-0.9461,0.1006,-0.2878
74,916801.0,689.5549139999999,1.0,6.57,0.79,-8.31,-25.56,-23.75,25.25,43.31,12.13,-20.31,0.6699345264919756,-0.529974940262177,-0.7818066530211603,-142.34696199162144,9.970582425862727,-34.23113412634732,-0.0994,-0.9465,0.0869,-0.2943
75,916801.0,689.5549139999999,1.0,6.57,0.79,-8.31,-25.56,-23.75,25.25,43.31,12.13,-20.31,0.6699345264919756,-0.529974940262177,-0.7818066530211603,-142.34696199162144,9.970582425862727,-34.23113412634732,-0.0994,-0.9465,0.0869,-0.2943
76,916836.0,689.617706,1.0,5.86,1.44,-7.03,-25.56,-23.75,25.25,1.06,-2.69,-30.25,0.6736509302231223,0.32429749410148745,0.5721968185967263,-142.73954322436268,9.165635515674056,-34.13522516911611,-0.0971,-0.9476,0.0799,-0.2935
77,916836.0,689.617706,1.0,5.86,1.44,-7.03,-25.56,-23.75,25.25,1.06,-2.69,-30.25,0.6736509302231223,0.32429749410148745,0.5721968185967263,-142.73954322436268,9.165635515674056,-34.13522516911611,-0.0971,-0.9476,0.0799,-0.2935
78,916871.0,689.673713,1.0,5.52,1.79,-6.53,-25.19,-23.75,27.5,26.5,71.81,-27.06,0.409825207287594,0.6284147972006239,1.103056596001224,-141.64310130769366,7.683390239501281,-35.66074669721593,-0.0981,-0.9445,0.067,-0.3062
79,916871.0,689.673713,1.0,5.52,1.79,-6.53,-25.19,-23.75,27.5,26.5,71.81,-27.06,0.409825207287594,0.6284147972006239,1.103056596001224,-141.64310130769366,7.683390239501281,-35.66074669721593,-0.0981,-0.9445,0.067,-0.3062
80,916905.0,689.68394,1.0,7.73,0.9,-8.87,-24.5,-24.5,27.19,35.25,74.56,-12.88,0.5445295881994576,-0.6120059466449639,-1.9648722570764596,-139.80191665328087,6.638563994932457,-38.06446294953504,-0.092,-0.9391,0.0579,-0.3261
81,916905.0,689.68394,1.0,7.73,0.9,-8.87,-24.5,-24.5,27.19,35.25,74.56,-12.88,0.5445295881994576,-0.6120059466449639,-1.9648722570764596,-139.80191665328087,6.638563994932457,-38.06446294953504,-0.092,-0.9391,0.0579,-0.3261
82,916942.0,689.69682,1.0,6.52,0.88,-7.1,-25.87,-24.87,25.75,3.69,17.25,-10.44,0.5059300766152963,-0.3438586880285857,0.146391413386322,-138.9763854221543,6.01882390838285,-39.07211278567739,-0.0904,-0.9366,0.0525,-0.3344
83,916942.0,689.69682,1.0,6.52,0.88,-7.1,-25.87,-24.87,25.75,3.69,17.25,-10.44,0.5059300766152963,-0.3438586880285857,0.146391413386322,-138.9763854221543,6.01882390838285,-39.07211278567739,-0.0904,-0.9366,0.0525,-0.3344
84,916977.0,689.74148,1.0,6.43,0.9,-6.74,-25.87,-24.87,25.75,-18.75,63.69,-5.75,0.3303216594152398,-0.4077010228843127,0.4628195500581658,-136.83846436491558,5.835231869336321,-41.109221581061185,-0.09699999999999999,-0.9299,0.0509,-0.3511
85,916977.0,689.74148,1.0,6.43,0.9,-6.74,-25.87,-24.87,25.75,-18.75,63.69,-5.75,0.3303216594152398,-0.4077010228843127,0.4628195500581658,-136.83846436491558,5.835231869336321,-41.109221581061185,-0.09699999999999999,-0.9299,0.0509,-0.3511
86,917014.0,689.801237,1.0,8.24,2.09,-7.62,-26.69,-24.5,24.5,-39.25,102.87,2.44,0.3671754619117978,0.3554847587643264,-1.5981258753276748,-133.7645266360233,6.145052377433652,-43.887975339090566,-0.1081,-0.9197,0.0536,-0.3737
87,917014.0,689.801237,1.0,8.24,2.09,-7.62,-26.69,-24.5,24.5,-39.25,102.87,2.44,0.3671754619117978,0.3554847587643264,-1.5981258753276748,-133.7645266360233,6.145052377433652,-43.887975339090566,-0.1081,-0.9197,0.0536,-0.3737
88,917049.0,689.817583,1.0,8.04,2.51,-6.89,-28.56,-25.25,22.69,-3.0,40.25,4.0,0.2391554185673005,0.8238931567214474,-1.0412901156199936,-131.53850453910292,6.48935022815341,-45.95878171202678,-0.1131,-0.9119,0.0566,-0.3904
89,917049.0,689.817583,1.0,8.04,2.51,-6.89,-28.56,-25.25,22.69,-3.0,40.25,4.0,0.2391554185673005,0.8238931567214474,-1.0412901156199936,-131.53850453910292,6.48935022815341,-45.95878171202678,-0.1131,-0.9119,0.0566,-0.3904
90,917084.0,689.862975,1.0,7.66,0.85,-6.36,-28.56,-25.25,22.69,12.25,23.06,20.19,0.5276662395389158,-0.5385881898635269,-0.15724437425900994,-131.01070305716067,6.627085616027942,-46.7191162156521,-0.1064,-0.91,0.0578,-0.3965
91,917084.0,689.862975,1.0,7.66,0.85,-6.36,-28.56,-25.25,22.69,12.25,23.06,20.19,0.5276662395389158,-0.5385881898635269,-0.15724437425900994,-131.01070305716067,6.627085616027942,-46.7191162156521,-0.1064,-0.91,0.0578,-0.3965
92,917116.0,689.884083,1.0,6.81,2.26,-5.57,-29.0,-24.87,21.37,-17.44,28.44,-4.13,0.07458326104589229,0.9388567527324848,0.7721834781172401,-129.86249210271768,6.776309776380446,-47.75718944121001,-0.1098,-0.9058,0.0591,-0.4048
93,917116.0,689.884083,1.0,6.81,2.26,-5.57,-29.0,-24.87,21.37,-17.44,28.44,-4.13,0.07458326104589229,0.9388567527324848,0.7721834781172401,-129.86249210271768,6.776309776380446,-47.75718944121001,-0.1098,-0.9058,0.0591,-0.4048
94,917153.0,689.940332,1.0,7.7,1.37,-6.31,-30.75,-24.87,21.37,10.63,74.75,12.13,-0.038346215590607316,-0.12331590865296947,-0.2415499758376089,-127.97542141388577,6.6729995322127,-49.75757860526172,-0.1093,-0.8987,0.0582,-0.4207
95,917153.0,689.940332,1.0,7.7,1.37,-6.31,-30.75,-24.87,21.37,10.63,74.75,12.13,-0.038346215590607316,-0.12331590865296947,-0.2415499758376089,-127.97542141388577,6.6729995322127,-49.75757860526172,-0.1093,-0.8987,0.0582,-0.4207
96,917190.0,689.983113,1.0,8.22,1.68,-6.01,-30.75,-24.87,21.37,-16.75,31.37,8.63,0.1626257489994233,0.215933147743724,-0.5102209278282589,-126.30202625936262,7.212570385921347,-51.31619778683095,-0.1123,-0.8922,0.0629,-0.433
97,917190.0,689.983113,1.0,8.22,1.68,-6.01,-30.75,-24.87,21.37,-16.75,31.37,8.63,0.1626257489994233,0.215933147743724,-0.5102209278282589,-126.30202625936262,7.212570385921347,-51.31619778683095,-0.1123,-0.8922,0.0629,-0.433
98,917223.0,689.9981349999999,1.0,7.55,1.71,-5.42,-30.75,-25.25,18.5,-8.63,12.63,6.13,0.16262133401012402,0.334416510632916,0.3639427664180523,-126.02359896120804,7.430739554030821,-51.443358765022325,-0.1161,-0.8911,0.0648,-0.434
99,917223.0,689.9981349999999,1.0,7.55,1.71,-5.42,-30.75,-25.25,18.5,-8.63,12.63,6.13,0.16262133401012402,0.334416510632916,0.3639427664180523,-126.02359896120804,7.430739554030821,-51.443358765022325,-0.1161,-0.8911,0.0648,-0.434
100,917260.0,690.005954,1.0,8.27,1.56,-5.67,-33.0,-24.19,19.19,-11.25,34.69,14.0,0.21997847662934492,0.1103128868511889,-0.3380451919125882,-124.67557399344672,7.970538771598189,-52.65481814526298,-0.1185,-0.8857,0.0695,-0.4435
101,917260.0,690.005954,1.0,8.27,1.56,-5.67,-33.0,-24.19,19.19,-11.25,34.69,14.0,0.21997847662934492,0.1103128868511889,-0.3380451919125882,-124.67557399344672,7.970538771598189,-52.65481814526298,-0.1185,-0.8857,0.0695,-0.4435
102,917295.0,690.052818,1.0,7.68,1.96,-5.07,-31.87,-24.19,18.75,-11.19,33.88,1.31,0.09009232476975716,0.5579200892315086,0.4146582758208552,-123.6476805433651,8.119875707408232,-53.525866533741606,-0.1235,-0.8815,0.0708,-0.4503
103,917295.0,690.052818,1.0,7.68,1.96,-5.07,-31.87,-24.19,18.75,-11.19,33.88,1.31,0.09009232476975716,0.5579200892315086,0.4146582758208552,-123.6476805433651,8.119875707408232,-53.525866533741606,-0.1235,-0.8815,0.0708,-0.4503
104,917329.0,690.074697,1.0,8.55,2.0,-5.61,-31.87,-24.19,18.75,-4.75,47.88,11.5,-0.1449514801731489,0.4146798698959764,-0.6039998199631462,-121.92447762133864,8.303694005010767,-55.23930804894636,-0.1245,-0.8743,0.0724,-0.4636
105,917329.0,690.074697,1.0,8.55,2.0,-5.61,-31.87,-24.19,18.75,-4.75,47.88,11.5,-0.1449514801731489,0.4146798698959764,-0.6039998199631462,-121.92447762133864,8.303694005010767,-55.23930804894636,-0.1245,-0.8743,0.0724,-0.4636
106,917364.0,690.1166820000001,1.0,8.23,1.78,-5.02,-32.69,-24.87,16.56,-17.12,12.31,4.94,0.10170603489274503,0.3479825236851113,0.010208602958101665,-121.3135909011287,8.556479215940191,-55.744276234982536,-0.1262,-0.8717,0.0746,-0.4675
107,917364.0,690.1166820000001,1.0,8.23,1.78,-5.02,-32.69,-24.87,16.56,-17.12,12.31,4.94,0.10170603489274503,0.3479825236851113,0.010208602958101665,-121.3135909011287,8.556479215940191,-55.744276234982536,-0.1262,-0.8717,0.0746,-0.4675
108,917401.0,690.179521,1.0,7.79,1.92,-4.59,-33.38,-24.87,15.06,-5.88,29.37,2.0,0.05124638776919649,0.5221388556772838,0.5782511777160035,-120.45410373713348,8.832292528579133,-56.39339939535494,-0.1315,-0.868,0.077,-0.4725
109,917401.0,690.179521,1.0,7.79,1.92,-4.59,-33.38,-24.87,15.06,-5.88,29.37,2.0,0.05124638776919649,0.5221388556772838,0.5782511777160035,-120.45410373713348,8.832292528579133,-56.39339939535494,-0.1315,-0.868,0.077,-0.4725
110,917436.0,690.2388990000001,1.0,8.88,1.71,-5.13,-33.38,-24.87,15.06,-14.13,40.0,9.31,0.035940948935499935,0.118115623033771,-0.5895106830495305,-119.17426448564116,9.004701785923347,-57.63221366567701,-0.1335,-0.8624,0.0785,-0.48200000000000004
111,917436.0,690.2388990000001,1.0,8.88,1.71,-5.13,-33.38,-24.87,15.06,-14.13,40.0,9.31,0.035940948935499935,0.118115623033771,-0.5895106830495305,-119.17426448564116,9.004701785923347,-57.63221366567701,-0.1335,-0.8624,0.0785,-0.48200000000000004
112,917469.0,690.257431,1.0,9.1,1.75,-4.97,-33.75,-24.87,13.5,-19.31,6.19,7.81,0.16753284482687586,0.1683889153329159,-0.7060555470557723,-118.47615510912563,9.683046840720888,-58.06425892056141,-0.1383,-0.8593,0.0844,-0.4853
113,917469.0,690.257431,1.0,9.1,1.75,-4.97,-33.75,-24.87,13.5,-19.31,6.19,7.81,0.16753284482687586,0.1683889153329159,-0.7060555470557723,-118.47615510912563,9.683046840720888,-58.06425892056141,-0.1383,-0.8593,0.0844,-0.4853
114,917506.0,690.260429,1.0,8.03,1.69,-4.29,-34.56,-25.25,14.38,-9.38,13.75,1.56,0.17669398627919314,0.27820752833367746,0.5528680808930239,-118.29715573552454,9.867062460142213,-58.06425892056141,-0.1416,-0.8585,0.086,-0.4853
115,917506.0,690.260429,1.0,8.03,1.69,-4.29,-34.56,-25.25,14.38,-9.38,13.75,1.56,0.17669398627919314,0.27820752833367746,0.5528680808930239,-118.29715573552454,9.867062460142213,-58.06425892056141,-0.1416,-0.8585,0.086,-0.4853
116,917542.0,690.2988230000001,1.0,8.45,1.94,-4.27,-35.69,-24.87,12.69,-16.69,45.38,5.19,0.06836387718398672,0.4371993606218363,0.1524704336480145,-116.57577410041328,10.200656128703407,-59.590233417807454,-0.1462,-0.8507,0.0889,-0.4969
117,917542.0,690.2988230000001,1.0,8.45,1.94,-4.27,-35.69,-24.87,12.69,-16.69,45.38,5.19,0.06836387718398672,0.4371993606218363,0.1524704336480145,-116.57577410041328,10.200656128703407,-59.590233417807454,-0.1462,-0.8507,0.0889,-0.4969
118,917575.0,690.359317,1.0,8.95,2.07,-4.45,-35.69,-24.87,12.69,-14.94,40.5,2.25,-0.09246256650919477,0.4057837335821788,-0.3922073004702185,-115.23680905302649,10.315708384533187,-60.80880014298898,-0.1503,-0.8445,0.0899,-0.5061
119,917575.0,690.359317,1.0,8.95,2.07,-4.45,-35.69,-24.87,12.69,-14.94,40.5,2.25,-0.09246256650919477,0.4057837335821788,-0.3922073004702185,-115.23680905302649,10.315708384533187,-60.80880014298898,-0.1503,-0.8445,0.0899,-0.5061
120,917612.0,690.376218,1.0,8.49,1.69,-3.71,-36.06,-25.69,12.25,-10.75,43.75,3.19,0.1752212658297304,0.21711909156915946,0.3926998828559096,-113.6702839060659,10.384744735841707,-62.28923949337646,-0.1537,-0.8371,0.0905,-0.5172
121,917612.0,690.376218,1.0,8.49,1.69,-3.71,-36.06,-25.69,12.25,-10.75,43.75,3.19,0.1752212658297304,0.21711909156915946,0.3926998828559096,-113.6702839060659,10.384744735841707,-62.28923949337646,-0.1537,-0.8371,0.0905,-0.5172
122,917649.0,690.422202,1.0,9.45,2.18,-4.03,-36.38,-25.25,9.69,-21.5,46.69,-1.63,-0.07143251195695209,0.4317411513338669,-0.6864094668323713,-112.09482025042286,10.545844298925708,-63.64641513634406,-0.1592,-0.8295,0.0919,-0.5273
123,917649.0,690.422202,1.0,9.45,2.18,-4.03,-36.38,-25.25,9.69,-21.5,46.69,-1.63,-0.07143251195695209,0.4317411513338669,-0.6864094668323713,-112.09482025042286,10.545844298925708,-63.64641513634406,-0.1592,-0.8295,0.0919,-0.5273
124,917682.0,690.444164,1.0,8.94,1.82,-3.61,-36.38,-25.25,9.69,-21.31,3.63,3.81,0.07017772697270712,0.1928656050653894,-0.0028340814907164003,-111.31904975679159,10.833574298853826,-64.22724850843996,-0.1635,-0.8257,0.0944,-0.5316
125,917682.0,690.444164,1.0,8.94,1.82,-3.61,-36.38,-25.25,9.69,-21.31,3.63,3.81,0.07017772697270712,0.1928656050653894,-0.0028340814907164003,-111.31904975679159,10.833574298853826,-64.22724850843996,-0.1635,-0.8257,0.0944,-0.5316
126,917716.0,690.489228,1.0,8.63,2.1,-3.38,-35.69,-25.25,9.69,-17.5,8.44,-2.06,0.0211991752709214,0.4994263264484882,0.31658024580862154,-111.07566339389359,10.971708923508501,-64.30844165448818,-0.1668,-0.8245,0.0956,-0.5322
127,917716.0,690.489228,1.0,8.63,2.1,-3.38,-35.69,-25.25,9.69,-17.5,8.44,-2.06,0.0211991752709214,0.4994263264484882,0.31658024580862154,-111.07566339389359,10.971708923508501,-64.30844165448818,-0.1668,-0.8245,0.0956,-0.5322
128,917753.0,690.546462,1.0,8.48,2.35,-3.07,-36.25,-25.69,7.69,-14.81,32.0,-0.37,-0.005443087415156146,0.7369244052278394,0.5160788230605018,-110.00958136957878,11.063807546045703,-65.13597459719793,-0.17300000000000001,-0.8192,0.0964,-0.5383
129,917753.0,690.546462,1.0,8.48,2.35,-3.07,-36.25,-25.69,7.69,-14.81,32.0,-0.37,-0.005443087415156146,0.7369244052278394,0.5160788230605018,-110.00958136957878,11.063807546045703,-65.13597459719793,-0.17300000000000001,-0.8192,0.0964,-0.5383
130,917786.0,690.563418,1.0,9.24,2.16,-3.52,-36.25,-25.69,7.69,-7.69,36.56,0.44,-0.210022543352734,0.2686047311649111,-0.30855350905900103,-108.79985018717657,10.971708923508501,-66.25445619743063,-0.1761,-0.8131,0.0956,-0.5465
131,917786.0,690.563418,1.0,9.24,2.16,-3.52,-36.25,-25.69,7.69,-7.69,36.56,0.44,-0.210022543352734,0.2686047311649111,-0.30855350905900103,-108.79985018717657,10.971708923508501,-66.25445619743063,-0.1761,-0.8131,0.0956,-0.5465
132,917821.0,690.566241,1.0,8.79,2.45,-3.08,-36.0,-24.87,6.88,-14.94,12.88,-3.44,-0.21419684187932064,0.6339953183027636,0.1990920558968732,-108.01618391845108,11.052294827398207,-66.8438272739107,-0.1809,-0.8091,0.0963,-0.5508
133,917821.0,690.566241,1.0,8.79,2.45,-3.08,-36.0,-24.87,6.88,-14.94,12.88,-3.44,-0.21419684187932064,0.6339953183027636,0.1990920558968732,-108.01618391845108,11.052294827398207,-66.8438272739107,-0.1809,-0.8091,0.0963,-0.5508
134,917856.0,690.609654,1.0,9.02,2.39,-2.92,-36.75,-24.87,5.56,-5.44,23.87,-1.75,-0.060344586892053735,0.5717415537411945,0.04609826730791866,-107.39452579488425,11.052294827398207,-67.36633638987873,-0.1836,-0.8059,0.0963,-0.5546
135,917856.0,690.609654,1.0,9.02,2.39,-2.92,-36.75,-24.87,5.56,-5.44,23.87,-1.75,-0.060344586892053735,0.5717415537411945,0.04609826730791866,-107.39452579488425,11.052294827398207,-67.36633638987873,-0.1836,-0.8059,0.0963,-0.5546
136,917893.0,690.6759509999999,1.0,9.38,2.17,-3.1,-36.5,-26.0,4.38,-2.19,24.75,-2.56,-0.14544808515522856,0.1973086560489865,-0.30488866376293977,-106.5088462839978,10.8450849117299,-68.22228228779733,-0.1857,-0.8013,0.0945,-0.5608
137,917893.0,690.6759509999999,1.0,9.38,2.17,-3.1,-36.5,-26.0,4.38,-2.19,24.75,-2.56,-0.14544808515522856,0.1973086560489865,-0.30488866376293977,-106.5088462839978,10.8450849117299,-68.22228228779733,-0.1857,-0.8013,0.0945,-0.5608
138,917925.0,690.694902,1.0,9.26,2.09,-2.77,-36.5,-26.0,4.38,-7.63,-3.31,-1.5,0.09614647747020767,0.2417933226576793,-0.07873779431481154,-106.29841038740038,10.856595634361932,-68.38844844007662,-0.1868,-0.8002,0.0946,-0.562
139,917925.0,690.694902,1.0,9.26,2.09,-2.77,-36.5,-26.0,4.38,-7.63,-3.31,-1.5,0.09614647747020767,0.2417933226576793,-0.07873779431481154,-106.29841038740038,10.856595634361932,-68.38844844007662,-0.1868,-0.8002,0.0946,-0.562
140,917962.0,690.7428679999999,1.0,9.0,2.31,-2.42,-36.75,-25.25,3.56,-5.31,-1.37,-3.88,0.2828937236384541,0.568780921720824,0.22599452116075905,-106.5088462839978,11.029269725697887,-67.97333851203919,-0.1906,-0.8013,0.0961,-0.5589999999999999
141,917962.0,690.7428679999999,1.0,9.0,2.31,-2.42,-36.75,-25.25,3.56,-5.31,-1.37,-3.88,0.2828937236384541,0.568780921720824,0.22599452116075905,-106.5088462839978,11.029269725697887,-67.97333851203919,-0.1906,-0.8013,0.0961,-0.5589999999999999
142,917997.0,690.804766,1.0,9.39,2.22,-2.77,-37.19,-26.0,3.56,1.25,2.63,0.94,0.13349226826985458,0.3052737436024764,-0.22641472399032736,-106.3557507959232,11.029269725697887,-68.08393507833873,-0.1912,-0.8005,0.0961,-0.5598
143,917997.0,690.804766,1.0,9.39,2.22,-2.77,-37.19,-26.0,3.56,1.25,2.63,0.94,0.13349226826985458,0.3052737436024764,-0.22641472399032736,-106.3557507959232,11.029269725697887,-68.08393507833873,-0.1912,-0.8005,0.0961,-0.5598
144,918032.0,690.8175719999999,1.0,9.24,1.9,-2.79,-37.19,-26.0,3.56,-3.69,-5.63,2.38,0.20051939107572006,0.027459905573131826,-0.02852859153500908,-106.47054675108936,11.109859542072414,-67.94570061664109,-0.1912,-0.8011,0.0968,-0.5588
145,918032.0,690.8175719999999,1.0,9.24,1.9,-2.79,-37.19,-26.0,3.56,-3.69,-5.63,2.38,0.20051939107572006,0.027459905573131826,-0.02852859153500908,-106.47054675108936,11.109859542072414,-67.94570061664109,-0.1912,-0.8011,0.0968,-0.5588
146,918067.0,690.86757,1.0,8.95,2.38,-2.73,-36.5,-26.37,4.88,-11.19,-12.88,-3.44,0.013065247878611269,0.5043425201277946,0.16480018154249265,-106.681406842105,11.213483126166134,-67.65577312725135,-0.1924,-0.8022,0.0977,-0.5567
147,918067.0,690.86757,1.0,8.95,2.38,-2.73,-36.5,-26.37,4.88,-11.19,-12.88,-3.44,0.013065247878611269,0.5043425201277946,0.16480018154249265,-106.681406842105,11.213483126166134,-67.65577312725135,-0.1924,-0.8022,0.0977,-0.5567
148,918104.0,690.884269,1.0,9.7,1.69,-2.96,-36.75,-26.37,3.19,-5.38,1.5,7.06,0.3731306451500138,-0.2452061693657235,-0.4650756318573333,-106.81586235047912,11.409241734119899,-67.43520561710105,-0.1931,-0.8029,0.0994,-0.5551
149,918104.0,690.884269,1.0,9.7,1.69,-2.96,-36.75,-26.37,3.19,-5.38,1.5,7.06,0.3731306451500138,-0.2452061693657235,-0.4650756318573333,-106.81586235047912,11.409241734119899,-67.43520561710105,-0.1931,-0.8029,0.0994,-0.5551
150,918138.0,690.888697,1.0,9.2,2.67,-2.77,-36.75,-26.37,3.19,-36.38,-32.63,-8.81,0.049901532993892515,0.7335927493044604,-0.13825580725492692,-107.0468533184743,11.904546342091734,-66.8575573210871,-0.1979,-0.8041,0.1037,-0.5509
151,918138.0,690.888697,1.0,9.2,2.67,-2.77,-36.75,-26.37,3.19,-36.38,-32.63,-8.81,0.049901532993892515,0.7335927493044604,-0.13825580725492692,-107.0468533184743,11.904546342091734,-66.8575573210871,-0.1979,-0.8041,0.1037,-0.5509
152,918171.0,690.933574,1.0,8.05,2.78,-2.89,-36.75,-25.69,4.75,-4.44,-17.81,-3.94,-0.3241180340578439,0.8072571742755446,0.8553214195836176,-108.07470230594728,12.204140573704526,-65.39450949953873,-0.2042,-0.8094,0.1063,-0.5402
153,918171.0,690.933574,1.0,8.05,2.78,-2.89,-36.75,-25.69,4.75,-4.44,-17.81,-3.94,-0.3241180340578439,0.8072571742755446,0.8553214195836176,-108.07470230594728,12.204140573704526,-65.39450949953873,-0.2042,-0.8094,0.1063,-0.5402
154,918208.0,691.0015139999999,1.0,9.16,1.34,-3.23,-37.19,-26.0,5.19,0.94,8.0,17.25,0.3594082589303541,-0.6345963657173667,0.029011575716197058,-107.99668693087187,12.377021364647927,-65.57161767194049,-0.2017,-0.809,0.1078,-0.5415
155,918208.0,691.0015139999999,1.0,9.16,1.34,-3.23,-37.19,-26.0,5.19,0.94,8.0,17.25,0.3594082589303541,-0.6345963657173667,0.029011575716197058,-107.99668693087187,12.377021364647927,-65.57161767194049,-0.2017,-0.809,0.1078,-0.5415
156,918243.0,691.0142099999999,1.0,9.1,2.52,-2.75,-35.69,-25.69,6.06,-32.31,-16.06,-5.5,0.26067842520410106,0.6269579756963999,-0.0046633909453603906,-107.80196748253584,13.011162702254634,-65.39450949953873,-0.2062,-0.8079999999999999,0.1133,-0.5402
157,918243.0,691.0142099999999,1.0,9.1,2.52,-2.75,-35.69,-25.69,6.06,-32.31,-16.06,-5.5,0.26067842520410106,0.6269579756963999,-0.0046633909453603906,-107.80196748253584,13.011162702254634,-65.39450949953873,-0.2062,-0.8079999999999999,0.1133,-0.5402
158,918278.0,691.059093,1.0,9.1,1.83,-3.24,-35.69,-25.69,6.06,-15.13,-8.0,7.0,0.19103251316915607,-0.21384664943749465,-0.020571183500278426,-107.8992703852027,13.576461659580188,-64.90496933686148,-0.2105,-0.8085,0.1182,-0.5366
159,918278.0,691.059093,1.0,9.1,1.83,-3.24,-35.69,-25.69,6.06,-15.13,-8.0,7.0,0.19103251316915607,-0.21384664943749465,-0.020571183500278426,-107.8992703852027,13.576461659580188,-64.90496933686148,-0.2105,-0.8085,0.1182,-0.5366
160,918315.0,691.066594,1.0,8.74,3.39,-2.8,-36.75,-26.0,4.0,-44.25,-26.75,3.19,-0.2074227960549031,1.3826123906216736,0.12341403463303813,-107.99668693087187,14.592535930080526,-64.18666547503379,-0.2169,-0.809,0.127,-0.5313
161,918315.0,691.066594,1.0,8.74,3.39,-2.8,-36.75,-26.0,4.0,-44.25,-26.75,3.19,-0.2074227960549031,1.3826123906216736,0.12341403463303813,-107.99668693087187,14.592535930080526,-64.18666547503379,-0.2169,-0.809,0.127,-0.5313
162,918349.0,691.128562,1.0,8.52,2.17,-3.38,-36.5,-25.69,4.38,0.12,-1.44,-0.25,-0.172348613027709,0.038757668638646825,0.38898076612322896,-108.2309531214748,14.84673166768115,-63.74084444335865,-0.2192,-0.8102,0.1292,-0.528
163,918349.0,691.128562,1.0,8.52,2.17,-3.38,-36.5,-25.69,4.38,0.12,-1.44,-0.25,-0.172348613027709,0.038757668638646825,0.38898076612322896,-108.2309531214748,14.84673166768115,-63.74084444335865,-0.2192,-0.8102,0.1292,-0.528
164,918384.0,691.145993,1.0,9.41,2.57,-3.07,-36.5,-25.69,4.38,-34.19,-4.06,23.31,0.18087465387954976,0.5776714068790504,-0.40175242669039335,-107.86033561317936,15.470980940849387,-63.99739696031453,-0.2185,-0.8083,0.1346,-0.5299
165,918384.0,691.145993,1.0,9.41,2.57,-3.07,-36.5,-25.69,4.38,-34.19,-4.06,23.31,0.18087465387954976,0.5776714068790504,-0.40175242669039335,-107.86033561317936,15.470980940849387,-63.99739696031453,-0.2185,-0.8083,0.1346,-0.5299
166,918417.0,691.1886089999999,1.0,8.79,3.4,-2.8,-36.5,-25.69,4.75,-30.94,-21.06,-5.94,-0.17750502942653498,1.3986988023279605,0.07647869498719473,-107.87980072820757,16.408227758317484,-63.1884425474074,-0.2272,-0.8084,0.1427,-0.5239
167,918417.0,691.1886089999999,1.0,8.79,3.4,-2.8,-36.5,-25.69,4.75,-30.94,-21.06,-5.94,-0.17750502942653498,1.3986988023279605,0.07647869498719473,-107.87980072820757,16.408227758317484,-63.1884425474074,-0.2272,-0.8084,0.1427,-0.5239
168,918454.0,691.249381,1.0,8.97,1.86,-3.38,-36.5,-26.0,3.56,10.88,4.75,4.56,0.15368137343929186,-0.20366078175367172,0.04551254981350361,-107.91874458790814,16.315612011260463,-63.28263870636261,-0.2255,-0.8086,0.1419,-0.5246
169,918454.0,691.249381,1.0,8.97,1.86,-3.38,-36.5,-26.0,3.56,10.88,4.75,4.56,0.15368137343929186,-0.20366078175367172,0.04551254981350361,-107.91874458790814,16.315612011260463,-63.28263870636261,-0.2255,-0.8086,0.1419,-0.5246
170,918489.0,691.255792,1.0,8.97,2.45,-3.1,-36.5,-26.0,3.56,-10.06,-1.63,-0.37,0.08477923956432959,0.4476342247816736,0.015539946418588356,-107.84087503637959,16.396650200988272,-63.33648650708331,-0.2257,-0.8082,0.1426,-0.525
171,918489.0,691.255792,1.0,8.97,2.45,-3.1,-36.5,-26.0,3.56,-10.06,-1.63,-0.37,0.08477923956432959,0.4476342247816736,0.015539946418588356,-107.84087503637959,16.396650200988272,-63.33648650708331,-0.2257,-0.8082,0.1426,-0.525
172,918523.0,691.274413,1.0,8.71,2.71,-3.14,-36.75,-25.25,3.56,2.81,9.69,2.13,-0.17543839623139065,0.6410497077958444,0.18240578856902268,-107.7825204980392,16.466118077182387,-63.30956065668752,-0.2267,-0.8079,0.1432,-0.5248
173,918523.0,691.274413,1.0,8.71,2.71,-3.14,-36.75,-25.25,3.56,2.81,9.69,2.13,-0.17543839623139065,0.6410497077958444,0.18240578856902268,-107.7825204980392,16.466118077182387,-63.30956065668752,-0.2267,-0.8079,0.1432,-0.5248
174,918558.0,691.33588,1.0,9.21,2.08,-3.18,-36.38,-26.0,5.19,5.44,7.31,0.81,0.2398389590349272,0.07354119857021213,-0.1532681204386357,-107.60770074242588,16.1419863535435,-63.72735158205304,-0.2242,-0.807,0.1404,-0.5279
175,918558.0,691.33588,1.0,9.21,2.08,-3.18,-36.38,-26.0,5.19,5.44,7.31,0.81,0.2398389590349272,0.07354119857021213,-0.1532681204386357,-107.60770074242588,16.1419863535435,-63.72735158205304,-0.2242,-0.807,0.1404,-0.5279
176,918593.0,691.341898,1.0,8.98,2.41,-3.02,-36.38,-25.25,4.75,1.5,-3.06,-0.81,0.13040786504658047,0.44248820293214775,0.04160530071674984,-107.68535335119316,16.0609738361326,-63.7003688213593,-0.2238,-0.8074,0.1397,-0.5277
177,918593.0,691.341898,1.0,8.98,2.41,-3.02,-36.38,-25.25,4.75,1.5,-3.06,-0.81,0.13040786504658047,0.44248820293214775,0.04160530071674984,-107.68535335119316,16.0609738361326,-63.7003688213593,-0.2238,-0.8074,0.1397,-0.5277
178,918628.0,691.386078,1.0,9.1,2.19,-3.24,-36.38,-25.25,4.75,3.63,3.63,3.5,0.09977918648750143,0.15976144540873416,-0.09628998742316952,-107.72420666963673,16.03782888845279,-63.75433829250864,-0.2224,-0.8076,0.1395,-0.5281
179,918628.0,691.386078,1.0,9.1,2.19,-3.24,-36.38,-25.25,4.75,3.63,3.63,3.5,0.09977918648750143,0.15976144540873416,-0.09628998742316952,-107.72420666963673,16.03782888845279,-63.75433829250864,-0.2224,-0.8076,0.1395,-0.5281
180,918665.0,691.4681780000001,1.0,8.99,2.46,-3.25,-37.19,-25.25,3.56,-1.5,-1.69,-3.19,-0.08477769729763797,0.3643828218652239,-0.057134157267961776,-107.627107150319,15.968397992715149,-63.82182237007654,-0.2233,-0.8071,0.1389,-0.5286
181,918665.0,691.4681780000001,1.0,8.99,2.46,-3.25,-37.19,-25.25,3.56,-1.5,-1.69,-3.19,-0.08477769729763797,0.3643828218652239,-0.057134157267961776,-107.627107150319,15.968397992715149,-63.82182237007654,-0.2233,-0.8071,0.1389,-0.5286
182,918697.0,691.5152519999999,1.0,8.64,2.12,-3.13,-38.25,-25.25,3.56,3.31,-2.25,-4.25,0.04333167495679918,0.1266549915278593,0.37675175669606986,-107.68535335119316,15.956826751094518,-63.713859708187826,-0.2241,-0.8074,0.1388,-0.5278
183,918697.0,691.5152519999999,1.0,8.64,2.12,-3.13,-38.25,-25.25,3.56,3.31,-2.25,-4.25,0.04333167495679918,0.1266549915278593,0.37675175669606986,-107.68535335119316,15.956826751094518,-63.713859708187826,-0.2241,-0.8074,0.1388,-0.5278
184,918732.0,691.523005,1.0,9.06,2.55,-3.29,-38.25,-25.25,3.56,1.56,5.75,5.69,-0.13162997407127225,0.4305181901309072,-0.15364756773824514,-107.627107150319,16.03782888845279,-63.808323575638354,-0.2231,-0.8071,0.1395,-0.5285
185,918732.0,691.523005,1.0,9.06,2.55,-3.29,-38.25,-25.25,3.56,1.56,5.75,5.69,-0.13162997407127225,0.4305181901309072,-0.15364756773824514,-107.627107150319,16.03782888845279,-63.808323575638354,-0.2231,-0.8071,0.1395,-0.5285
186,918767.0,691.541565,1.0,8.81,2.09,-3.13,-37.56,-25.69,5.19,1.5,0.06,-5.38,0.11039313499043774,0.11498328594430007,0.2277308438686312,-107.70477775616722,15.806415466969176,-63.86232469664676,-0.222,-0.8075,0.1375,-0.5289
187,918767.0,691.541565,1.0,8.81,2.09,-3.13,-37.56,-25.69,5.19,1.5,0.06,-5.38,0.11039313499043774,0.11498328594430007,0.2277308438686312,-107.70477775616722,15.806415466969176,-63.86232469664676,-0.222,-0.8075,0.1375,-0.5289
188,918804.0,691.591626,1.0,9.46,2.51,-3.14,-37.19,-24.19,4.0,0.63,3.5,-0.25,0.16160065086894804,0.4354352969618072,-0.4615329615467267,-107.56890139317555,15.806415466969176,-63.916341681484134,-0.2235,-0.8068,0.1375,-0.5293
189,918804.0,691.591626,1.0,9.46,2.51,-3.14,-37.19,-24.19,4.0,0.63,3.5,-0.25,0.16160065086894804,0.4354352969618072,-0.4615329615467267,-107.56890139317555,15.806415466969176,-63.916341681484134,-0.2235,-0.8068,0.1375,-0.5293
190,918837.0,691.5961440000001,1.0,8.98,2.29,-3.16,-37.19,-24.19,4.0,2.19,-1.69,1.56,0.0694305479540066,0.2695641340592523,0.019279843689382403,-107.72420666963673,15.817984589415364,-63.82182237007654,-0.2222,-0.8076,0.1376,-0.5286
191,918837.0,691.5961440000001,1.0,8.98,2.29,-3.16,-37.19,-24.19,4.0,2.19,-1.69,1.56,0.0694305479540066,0.2695641340592523,0.019279843689382403,-107.72420666963673,15.817984589415364,-63.82182237007654,-0.2222,-0.8076,0.1376,-0.5286
192,918872.0,691.666127,1.0,9.03,2.29,-3.33,-36.75,-25.25,4.0,6.0,-1.25,-2.06,-0.037818047898187546,0.18633385812559689,-0.08464665355201184,-107.80196748253584,15.690733139619653,-63.82182237007654,-0.2214,-0.8079999999999999,0.1365,-0.5286
193,918872.0,691.666127,1.0,9.03,2.29,-3.33,-36.75,-25.25,4.0,6.0,-1.25,-2.06,-0.037818047898187546,0.18633385812559689,-0.08464665355201184,-107.80196748253584,15.690733139619653,-63.82182237007654,-0.2214,-0.8079999999999999,0.1365,-0.5286
194,918906.0,691.6859820000001,1.0,8.8,2.1,-3.18,-36.75,-25.25,4.38,-0.12,-5.81,-1.19,0.09963039960619252,0.10057596292692483,0.2179922076311609,-107.95770664544784,15.609765091037287,-63.7003688213593,-0.2213,-0.8088,0.1358,-0.5277
195,918906.0,691.6859820000001,1.0,8.8,2.1,-3.18,-36.75,-25.25,4.38,-0.12,-5.81,-1.19,0.09963039960619252,0.10057596292692483,0.2179922076311609,-107.95770664544784,15.609765091037287,-63.7003688213593,-0.2213,-0.8088,0.1358,-0.5277
196,918941.0,691.751772,1.0,8.67,2.58,-3.16,-36.75,-25.25,4.38,-0.25,0.0,-0.5,-0.1444651403063028,0.5246276385692363,0.2403134146562884,-107.99668693087187,15.656031584502133,-63.6194442055739,-0.2219,-0.809,0.1362,-0.5271
197,918941.0,691.751772,1.0,8.67,2.58,-3.16,-36.75,-25.25,4.38,-0.25,0.0,-0.5,-0.1444651403063028,0.5246276385692363,0.2403134146562884,-107.99668693087187,15.656031584502133,-63.6194442055739,-0.2219,-0.809,0.1362,-0.5271
198,918974.0,691.7557360000001,1.0,8.95,2.24,-3.31,-36.38,-25.69,4.75,2.75,2.63,-2.06,-0.004782238031177444,0.1469954150653887,0.005906687467568617,-107.97719450779341,15.459416628401115,-63.74084444335865,-0.2209,-0.8089,0.1345,-0.528
199,918974.0,691.7557360000001,1.0,8.95,2.24,-3.31,-36.38,-25.69,4.75,2.75,2.63,-2.06,-0.004782238031177444,0.1469954150653887,0.005906687467568617,-107.97719450779341,15.459416628401115,-63.74084444335865,-0.2209,-0.8089,0.1345,-0.528
200,919009.0,691.799659,1.0,9.02,2.1,-3.17,-37.19,-26.0,4.38,3.63,-1.75,-0.25,0.2065188626931164,0.09977010594483326,0.02060402190896937,-108.05519160220844,15.39003407585724,-63.713859708187826,-0.2203,-0.8093,0.1339,-0.5278
201,919009.0,691.799659,1.0,9.02,2.1,-3.17,-37.19,-26.0,4.38,3.63,-1.75,-0.25,0.2065188626931164,0.09977010594483326,0.02060402190896937,-108.05519160220844,15.39003407585724,-63.713859708187826,-0.2203,-0.8093,0.1339,-0.5278
202,919046.0,691.807805,1.0,9.0,2.31,-3.14,-36.75,-26.0,4.75,-0.44,-0.63,-3.94,0.12930539498129295,0.2822146382569577,0.003623170862875113,-108.035685474304,15.32065719904219,-63.72735158205304,-0.2208,-0.8092,0.1333,-0.5279
203,919046.0,691.807805,1.0,9.0,2.31,-3.14,-36.75,-26.0,4.75,-0.44,-0.63,-3.94,0.12930539498129295,0.2822146382569577,0.003623170862875113,-108.035685474304,15.32065719904219,-63.72735158205304,-0.2208,-0.8092,0.1333,-0.5279
204,919078.0,691.8695280000001,1.0,9.09,2.26,-3.24,-36.75,-26.0,4.75,1.06,-0.12,-7.19,0.13084906058207868,0.1499961074982492,-0.10262240977258408,-108.09421758930814,15.077882439571027,-63.673390007198286,-0.2219,-0.8095,0.1312,-0.5275
205,919078.0,691.8695280000001,1.0,9.09,2.26,-3.24,-36.75,-26.0,4.75,1.06,-0.12,-7.19,0.13084906058207868,0.1499961074982492,-0.10262240977258408,-108.09421758930814,15.077882439571027,-63.673390007198286,-0.2219,-0.8095,0.1312,-0.5275
206,919115.0,691.877292,1.0,8.86,2.62,-3.28,-37.19,-24.87,4.38,-5.75,-4.0,-0.44,-0.13351456199806028,0.4309118598130599,0.012831090564981551,-108.15279095507613,15.10100089527667,-63.525076929588316,-0.2233,-0.8098,0.1314,-0.5264
207,919115.0,691.877292,1.0,8.86,2.62,-3.28,-37.19,-24.87,4.38,-5.75,-4.0,-0.44,-0.13351456199806028,0.4309118598130599,0.012831090564981551,-108.15279095507613,15.10100089527667,-63.525076929588316,-0.2233,-0.8098,0.1314,-0.5264
208,919150.0,691.946738,1.0,8.81,2.5,-3.23,-36.75,-25.69,4.75,4.19,-0.56,0.0,-0.05584123455684256,0.3598101234136413,0.10271170508013584,-108.19186283336569,15.089441590206313,-63.49812368940196,-0.2229,-0.81,0.1313,-0.5262
209,919150.0,691.946738,1.0,8.81,2.5,-3.23,-36.75,-25.69,4.75,4.19,-0.56,0.0,-0.05584123455684256,0.3598101234136413,0.10271170508013584,-108.19186283336569,15.089441590206313,-63.49812368940196,-0.2229,-0.81,0.1313,-0.5262
210,919185.0,691.9672419999999,1.0,8.74,2.35,-3.21,-36.75,-25.69,4.75,3.69,2.44,-1.56,0.0015995726011019396,0.22866197673431146,0.2065504618825198,-108.21140567428199,14.962299399917931,-63.525076929588316,-0.223,-0.8101,0.1302,-0.5264
211,919185.0,691.9672419999999,1.0,8.74,2.35,-3.21,-36.75,-25.69,4.75,3.69,2.44,-1.56,0.0015995726011019396,0.22866197673431146,0.2065504618825198,-108.21140567428199,14.962299399917931,-63.525076929588316,-0.223,-0.8101,0.1302,-0.5264
212,919218.0,691.970426,1.0,8.95,2.33,-3.25,-37.19,-25.69,4.0,1.37,1.81,1.31,0.04900790912630498,0.18830920253213132,0.005831775530948491,-108.15279095507613,14.950741939900693,-63.63292917864976,-0.2226,-0.8098,0.1301,-0.5272
213,919218.0,691.970426,1.0,8.95,2.33,-3.25,-37.19,-25.69,4.0,1.37,1.81,1.31,0.04900790912630498,0.18830920253213132,0.005831775530948491,-108.15279095507613,14.950741939900693,-63.63292917864976,-0.2226,-0.8098,0.1301,-0.5272
214,919255.0,692.0618450000001,1.0,8.92,2.34,-3.19,-36.5,-25.25,5.19,3.69,2.88,0.5,0.07541543236089747,0.2194360109328264,0.051432916322790234,-108.11373745608395,14.84673166768115,-63.6868789211639,-0.2224,-0.8096,0.1292,-0.5276
215,919255.0,692.0618450000001,1.0,8.92,2.34,-3.19,-36.5,-25.25,5.19,3.69,2.88,0.5,0.07541543236089747,0.2194360109328264,0.051432916322790234,-108.11373745608395,14.84673166768115,-63.6868789211639,-0.2224,-0.8096,0.1292,-0.5276
216,919287.0,692.073072,1.0,8.98,2.26,-3.27,-36.5,-25.25,5.19,2.44,1.94,-0.63,0.058617560022862614,0.1083560125995493,-0.01301002243410032,-108.05519160220844,14.788953503219902,-63.781328955958536,-0.2219,-0.8093,0.1287,-0.5283
217,919287.0,692.073072,1.0,8.98,2.26,-3.27,-36.5,-25.25,5.19,2.44,1.94,-0.63,0.058617560022862614,0.1083560125995493,-0.01301002243410032,-108.05519160220844,14.788953503219902,-63.781328955958536,-0.2219,-0.8093,0.1287,-0.5283
218,919322.0,692.1164259999999,1.0,9.17,2.36,-3.28,-36.38,-26.0,4.75,-1.31,1.0,0.31,0.07706587372609403,0.17851353084163102,-0.21228675847958026,-108.01618391845108,14.754288420181696,-63.83532215478704,-0.222,-0.8091,0.1284,-0.5287
219,919322.0,692.1164259999999,1.0,9.17,2.36,-3.28,-36.38,-26.0,4.75,-1.31,1.0,0.31,0.07706587372609403,0.17851353084163102,-0.21228675847958026,-108.01618391845108,14.754288420181696,-63.83532215478704,-0.222,-0.8091,0.1284,-0.5287
220,919357.0,692.134013,1.0,8.8,2.54,-3.05,-37.19,-25.69,5.19,-2.0,-4.5,-1.12,0.04798643480517975,0.4514817040591281,0.16362342257242626,-108.09421758930814,14.754288420181696,-63.72735158205304,-0.2227,-0.8095,0.1284,-0.5279
221,919357.0,692.134013,1.0,8.8,2.54,-3.05,-37.19,-25.69,5.19,-2.0,-4.5,-1.12,0.04798643480517975,0.4514817040591281,0.16362342257242626,-108.09421758930814,14.754288420181696,-63.72735158205304,-0.2227,-0.8095,0.1284,-0.5279
222,919392.0,692.144688,1.0,8.96,2.31,-3.25,-37.19,-25.69,5.19,4.63,0.63,0.5,0.0600605962585185,0.14976520397363235,0.0008270815267188425,-108.13326191007236,14.673408500442047,-63.72735158205304,-0.2222,-0.8097,0.1277,-0.5279
223,919392.0,692.144688,1.0,8.96,2.31,-3.25,-37.19,-25.69,5.19,4.63,0.63,0.5,0.0600605962585185,0.14976520397363235,0.0008270815267188425,-108.13326191007236,14.673408500442047,-63.72735158205304,-0.2222,-0.8097,0.1277,-0.5279
224,919425.0,692.212058,1.0,8.84,2.28,-3.23,-37.19,-25.25,4.06,0.0,-4.31,-1.94,0.0604030507598417,0.1356079740900722,0.12394056777896802,-108.2309531214748,14.661854827129085,-63.605960216714145,-0.2225,-0.8102,0.1276,-0.527
225,919425.0,692.212058,1.0,8.84,2.28,-3.23,-37.19,-25.25,4.06,0.0,-4.31,-1.94,0.0604030507598417,0.1356079740900722,0.12394056777896802,-108.2309531214748,14.661854827129085,-63.605960216714145,-0.2225,-0.8102,0.1276,-0.527
226,919459.0,692.215471,1.0,8.83,2.43,-3.22,-38.0,-25.69,4.38,1.81,0.5,2.06,0.0011322342061589608,0.27683738909758504,0.10275594771133534,-108.25050517877196,14.731179119281881,-63.56551415141114,-0.2226,-0.8103,0.1282,-0.5267
227,919459.0,692.215471,1.0,8.83,2.43,-3.22,-38.0,-25.69,4.38,1.81,0.5,2.06,0.0011322342061589608,0.27683738909758504,0.10275594771133534,-108.25050517877196,14.731179119281881,-63.56551415141114,-0.2226,-0.8103,0.1282,-0.5267
228,919494.0,692.262847,1.0,9.04,2.32,-3.29,-37.19,-26.0,3.88,-0.25,-0.44,-0.75,0.07612742434382835,0.14167847462823446,-0.08790566587453164,-108.2309531214748,14.731179119281881,-63.59247721166836,-0.2225,-0.8102,0.1282,-0.5269
229,919494.0,692.262847,1.0,9.04,2.32,-3.29,-37.19,-26.0,3.88,-0.25,-0.44,-0.75,0.07612742434382835,0.14167847462823446,-0.08790566587453164,-108.2309531214748,14.731179119281881,-63.59247721166836,-0.2225,-0.8102,0.1282,-0.5269
230,919529.0,692.286891,1.0,8.73,2.38,-3.21,-37.19,-26.0,3.88,0.44,-6.5,-1.63,0.011639606812031024,0.25064090854663923,0.20881463703840275,-108.38749898537714,14.742733694368155,-63.43075774250616,-0.2224,-0.8109999999999999,0.1283,-0.5257
231,919529.0,692.286891,1.0,8.73,2.38,-3.21,-37.19,-26.0,3.88,0.44,-6.5,-1.63,0.011639606812031024,0.25064090854663923,0.20881463703840275,-108.38749898537714,14.742733694368155,-63.43075774250616,-0.2224,-0.8109999999999999,0.1283,-0.5257
232,919566.0,692.348158,1.0,8.89,2.26,-3.44,-37.5,-25.69,4.75,2.13,2.0,-0.31,-0.04989952748537063,0.029223780161624413,0.010224324896359605,-108.42668178324713,14.673408500442047,-63.44422897307763,-0.222,-0.8112,0.1277,-0.5258
233,919566.0,692.348158,1.0,8.89,2.26,-3.44,-37.5,-25.69,4.75,2.13,2.0,-0.31,-0.04989952748537063,0.029223780161624413,0.010224324896359605,-108.42668178324713,14.673408500442047,-63.44422897307763,-0.222,-0.8112,0.1277,-0.5258
234,919599.0,692.351353,1.0,8.89,2.27,-3.36,-35.69,-25.25,5.19,-1.12,-0.06,-0.37,0.0109763246131947,0.0727938111347679,0.03581684302927535,-108.42668178324713,14.638747929971785,-63.44422897307763,-0.2221,-0.8112,0.1274,-0.5258
235,919599.0,692.351353,1.0,8.89,2.27,-3.36,-35.69,-25.25,5.19,-1.12,-0.06,-0.37,0.0109763246131947,0.0727938111347679,0.03581684302927535,-108.42668178324713,14.638747929971785,-63.44422897307763,-0.2221,-0.8112,0.1274,-0.5258
236,919635.0,692.394057,1.0,8.85,2.37,-3.31,-35.69,-25.25,5.19,-0.5,-0.75,-2.0,-0.00011614453315261787,0.1740651508694817,0.06677313682748576,-108.42668178324713,14.638747929971785,-63.376882602273,-0.2229,-0.8112,0.1274,-0.5253
237,919635.0,692.394057,1.0,8.85,2.37,-3.31,-35.69,-25.25,5.19,-0.5,-0.75,-2.0,-0.00011614453315261787,0.1740651508694817,0.06677313682748576,-108.42668178324713,14.638747929971785,-63.376882602273,-0.2229,-0.8112,0.1274,-0.5253
238,919668.0,692.454737,1.0,8.74,2.38,-3.3,-37.19,-26.0,5.56,-0.94,0.56,-0.75,-0.04396666984098993,0.1823924519194944,0.167832649026602,-108.42668178324713,14.569430825374987,-63.417287490539216,-0.223,-0.8112,0.1268,-0.5256
239,919668.0,692.454737,1.0,8.74,2.38,-3.3,-37.19,-26.0,5.56,-0.94,0.56,-0.75,-0.04396666984098993,0.1823924519194944,0.167832649026602,-108.42668178324713,14.569430825374987,-63.417287490539216,-0.223,-0.8112,0.1268,-0.5256
240,919705.0,692.461724,1.0,9.02,2.39,-3.33,-37.19,-26.37,5.56,2.06,1.94,0.63,0.02852719856120445,0.16058485855462654,-0.09965095959865701,-108.34833475115198,14.477016351828802,-63.53855502158924,-0.2227,-0.8108,0.126,-0.5265
241,919705.0,692.461724,1.0,9.02,2.39,-3.33,-37.19,-26.37,5.56,2.06,1.94,0.63,0.02852719856120445,0.16058485855462654,-0.09965095959865701,-108.34833475115198,14.477016351828802,-63.53855502158924,-0.2227,-0.8108,0.126,-0.5265
242,919738.0,692.525648,1.0,9.06,2.43,-3.32,-37.19,-26.37,5.56,1.0,-0.56,-0.37,0.03380015488173438,0.1962772877851937,-0.1417786586289438,-108.32875958573808,14.45391421483677,-63.552034095396465,-0.2227,-0.8107,0.1258,-0.5266
243,919738.0,692.525648,1.0,9.06,2.43,-3.32,-37.19,-26.37,5.56,1.0,-0.56,-0.37,0.03380015488173438,0.1962772877851937,-0.1417786586289438,-108.32875958573808,14.45391421483677,-63.552034095396465,-0.2227,-0.8107,0.1258,-0.5266
244,919773.0,692.544003,1.0,8.9,2.33,-3.41,-36.75,-25.69,4.38,3.0,-1.88,-1.69,-0.046233724803817385,0.06711112579067935,-0.0045863410268491825,-108.4070880619203,14.407711711634985,-63.484648540415236,-0.2228,-0.8111,0.1254,-0.5261
245,919773.0,692.544003,1.0,8.9,2.33,-3.41,-36.75,-25.69,4.38,3.0,-1.88,-1.69,-0.046233724803817385,0.06711112579067935,-0.0045863410268491825,-108.4070880619203,14.407711711634985,-63.484648540415236,-0.2228,-0.8111,0.1254,-0.5261
