acc_x,acc_y,acc_z,lin_x,lin_y,lin_z,eul_x,eul_y,eul_z
-4.75,1.01,-8.49,0.1085283092883052,-0.0908442407602173,0.0269430038776814,-133.27085000109963,34.86715957624261,30.045196559032803
-4.75,1.01,-8.49,0.1085283092883052,-0.0908442407602173,0.0269430038776814,-133.27085000109963,34.86715957624261,30.045196559032803
-4.82,1.0,-8.48,0.0506696391643962,-0.1449425625185292,0.0026087801133005,-133.32867360141205,34.843138613311,29.97401461191905
-4.82,1.0,-8.48,0.0506696391643962,-0.1449425625185292,0.0026087801133005,-133.32867360141205,34.843138613311,29.97401461191905
-4.77,0.96,-8.25,-0.0047010065056248,-0.2018969876835969,0.2308359089212626,-133.32867360141205,34.86715957624261,29.92656655764556
-4.77,0.96,-8.25,-0.0047010065056248,-0.2018969876835969,0.2308359089212626,-133.32867360141205,34.86715957624261,29.92656655764556
-5.01,1.14,-8.13,-0.3120431247239975,-0.2109952161946148,0.1965141993437189,-133.27085000109963,34.87917065061918,29.99774061096053
-5.01,1.14,-8.13,-0.3120431247239975,-0.2109952161946148,0.1965141993437189,-133.27085000109963,34.87917065061918,29.99774061096053
-4.82,1.18,-8.49,-0.0408287516158305,-0.0152836487243751,-0.027118322628068,-133.27085000109963,34.91520624744418,29.96215210560615
-4.82,1.18,-8.49,-0.0408287516158305,-0.0152836487243751,-0.027118322628068,-133.27085000109963,34.91520624744418,29.96215210560615
-4.86,1.22,-8.43,-0.123719677519068,-0.0332692567961834,0.0007086072551505,-133.2997533527462,34.96325925488904,29.902844499943303
-4.86,1.22,-8.43,-0.123719677519068,-0.0332692567961834,0.0007086072551505,-133.2997533527462,34.96325925488904,29.902844499943303
-4.76,1.23,-8.52,-0.0208602285903408,0.0382560647536602,-0.0299653388435761,-133.32867360141205,34.9512454084058,29.879123753551497
-4.76,1.23,-8.52,-0.0208602285903408,0.0382560647536602,-0.0299653388435761,-133.32867360141205,34.9512454084058,29.879123753551497
-4.86,1.1,-8.56,0.0035891330725403,-0.1132187092360171,-0.0974081905602073,-133.32867360141205,34.92721890485463,29.89098396291072
-4.86,1.1,-8.56,0.0035891330725403,-0.1132187092360171,-0.0974081905602073,-133.32867360141205,34.92721890485463,29.89098396291072
-4.93,1.06,-8.4,-0.0918812383380851,-0.2147404604683581,0.0120624960425548,-133.32867360141205,34.92721890485463,29.9147053648035
-4.93,1.06,-8.4,-0.0918812383380851,-0.2147404604683581,0.0120624960425548,-133.32867360141205,34.92721890485463,29.9147053648035
-4.92,1.07,-8.2,-0.1837144591788333,-0.2422764597727187,0.1890176970613684,-133.2997533527462,34.9512454084058,29.902844499943303
-4.92,1.07,-8.2,-0.1837144591788333,-0.2422764597727187,0.1890176970613684,-133.2997533527462,34.9512454084058,29.902844499943303
-4.89,1.13,-8.32,-0.1493969326768909,-0.1617871258090938,0.0925928927749648,-133.32867360141205,34.97527349807247,29.843545089972302
-4.89,1.13,-8.32,-0.1493969326768909,-0.1617871258090938,0.0925928927749648,-133.32867360141205,34.97527349807247,29.843545089972302
-4.8,1.15,-8.54,-0.0048903885517258,-0.0646430816747383,-0.0569141304799849,-133.3576107786115,34.9993031752255,29.78425385642316
-4.8,1.15,-8.54,-0.0048903885517258,-0.0646430816747383,-0.0569141304799849,-133.3576107786115,34.9993031752255,29.78425385642316
-5.0,1.23,-8.39,-0.2551225824804088,-0.1393122479446387,-0.0330910822379433,-133.32867360141205,35.03535067049245,29.78425385642316
-5.0,1.23,-8.39,-0.2551225824804088,-0.1393122479446387,-0.0330910822379433,-133.32867360141205,35.03535067049245,29.78425385642316
-4.98,1.24,-8.53,-0.1793527630261162,-0.1021541998526972,-0.1460530050055926,-133.27085000109963,35.095437786143385,29.78425385642316
-4.98,1.24,-8.53,-0.1793527630261162,-0.1021541998526972,-0.1460530050055926,-133.27085000109963,35.095437786143385,29.78425385642316
-5.14,1.32,-8.47,-0.3592762679363195,-0.1362270987566367,-0.1811056408265265,-133.2419635150545,35.131494837214326,29.79611144994345
-5.14,1.32,-8.47,-0.3592762679363195,-0.1362270987566367,-0.1811056408265265,-133.2419635150545,35.131494837214326,29.79611144994345
-5.34,1.4,-8.28,-0.6176670689381354,-0.204074934048992,-0.1236491300988635,-133.18424101457546,35.131494837214326,29.879123753551497
-5.34,1.4,-8.28,-0.6176670689381354,-0.204074934048992,-0.1236491300988635,-133.18424101457546,35.131494837214326,29.879123753551497
-5.26,1.36,-8.59,-0.3840569870070918,-0.1132018783145365,-0.3493819793449386,-133.0977829759083,35.143514652215984,29.985877446985693
-5.26,1.36,-8.59,-0.3840569870070918,-0.1132018783145365,-0.3493819793449386,-133.0977829759083,35.143514652215984,29.985877446985693
-5.12,1.59,-8.68,-0.3506284009203968,0.2113120490094013,-0.3873338602192948,-132.95401941873996,35.131494837214326,30.19946487135094
-5.12,1.59,-8.68,-0.3506284009203968,0.2113120490094013,-0.3873338602192948,-132.95401941873996,35.131494837214326,30.19946487135094
-5.14,1.65,-9.02,-0.2353169377415383,0.3711754422772605,-0.6961760353993398,-132.86795984370113,35.10745640434998,30.318170931025325
-5.14,1.65,-9.02,-0.2353169377415383,0.3711754422772605,-0.6961760353993398,-132.86795984370113,35.10745640434998,30.318170931025325
-4.78,1.46,-9.19,0.1869989675191924,0.5283887383634911,-0.6394945867514856,-132.83930623013015,35.02333444123644,30.413159765182687
-4.78,1.46,-9.19,0.1869989675191924,0.5283887383634911,-0.6394945867514856,-132.83930623013015,35.02333444123644,30.413159765182687
-4.64,1.15,-8.75,0.2391963513654293,0.3348048154428249,-0.155543073869314,-132.86795984370113,34.90319398604888,30.47253865250361
-4.64,1.15,-8.75,0.2391963513654293,0.3348048154428249,-0.155543073869314,-132.86795984370113,34.90319398604888,30.47253865250361
-4.71,0.69,-8.42,0.2940425009730812,-0.0392253336278253,0.1387339690849973,-132.86795984370113,34.675036035061034,30.650725683430657
-4.71,0.69,-8.42,0.2940425009730812,-0.0392253336278253,0.1387339690849973,-132.86795984370113,34.675036035061034,30.650725683430657
-5.08,0.74,-7.35,-0.4810020014572226,-0.3720952596450052,0.8620045518928539,-132.86795984370113,34.519009695351265,30.781444422149058
-5.08,0.74,-7.35,-0.4810020014572226,-0.3720952596450052,0.8620045518928539,-132.86795984370113,34.519009695351265,30.781444422149058
-4.92,0.56,-7.6,-0.1848955608661292,-0.3321461306872865,0.7437866235917756,-132.95401941873996,34.39903434859307,30.686372188368548
-4.92,0.56,-7.6,-0.1848955608661292,-0.3321461306872865,0.7437866235917756,-132.95401941873996,34.39903434859307,30.686372188368548
-5.09,0.67,-7.39,-0.4715008092430648,-0.3471571962338811,0.8274368458318584,-133.04022773049576,34.30308206548676,30.686372188368548
-5.09,0.67,-7.39,-0.4715008092430648,-0.3471571962338811,0.8274368458318584,-133.04022773049576,34.30308206548676,30.686372188368548
-5.06,0.33,-7.58,-0.2160717785034399,-0.5367462600862207,0.7053250174044532,-133.2419635150545,34.15920009515199,30.48441543516209
-5.06,0.33,-7.58,-0.2160717785034399,-0.5367462600862207,0.7053250174044532,-133.2419635150545,34.15920009515199,30.48441543516209
-5.11,0.6,-7.85,-0.3264197695460667,-0.2917581561725391,0.4309938996326093,-133.50255170239728,34.111251783016854,30.187596092266823
-5.11,0.6,-7.85,-0.3264197695460667,-0.2917581561725391,0.4309938996326093,-133.50255170239728,34.111251783016854,30.187596092266823
-4.75,0.67,-8.6,0.1342342782360051,0.1013495040553473,-0.0393191974215625,-133.91067619883825,34.05132504616154,29.653841828798463
-4.75,0.67,-8.6,0.1342342782360051,0.1013495040553473,-0.0393191974215625,-133.91067619883825,34.05132504616154,29.653841828798463
-4.76,0.53,-8.97,0.3105353892304645,0.0460710480434209,-0.3570523387428928,-134.1748557862076,34.00339056621902,29.2983716924918
-4.76,0.53,-8.97,0.3105353892304645,0.0460710480434209,-0.3570523387428928,-134.1748557862076,34.00339056621902,29.2983716924918
-5.02,0.43,-8.6,-0.0226808780756998,-0.2728357945328021,-0.1568005171146076,-134.47008902668762,33.90753998612701,29.037876869982465
-5.02,0.43,-8.6,-0.0226808780756998,-0.2728357945328021,-0.1568005171146076,-134.47008902668762,33.90753998612701,29.037876869982465
-4.99,0.61,-8.72,-0.0649746401546259,-0.0883714672786289,-0.2580690114730846,-134.52935339042858,33.871602322817786,28.943189564308163
-4.99,0.61,-8.72,-0.0649746401546259,-0.0883714672786289,-0.2580690114730846,-134.52935339042858,33.871602322817786,28.943189564308163
-5.03,0.59,-8.72,-0.0914117227964215,-0.119362601558766,-0.2762462340333851,-134.61838734283256,33.811713840931375,28.90768703373302
-5.03,0.59,-8.72,-0.0914117227964215,-0.119362601558766,-0.2762462340333851,-134.61838734283256,33.811713840931375,28.90768703373302
-4.65,0.39,-8.86,0.3301123391460064,-0.0518123397589755,-0.2014737664705261,-134.7075870499225,33.775785318620265,28.81302746748213
-4.65,0.39,-8.86,0.3301123391460064,-0.0518123397589755,-0.2014737664705261,-134.7075870499225,33.775785318620265,28.81302746748213
-4.39,0.61,-8.98,0.4431632823239501,0.3046662528797835,-0.1931192363152068,-134.7075870499225,33.73986021591224,28.83669047331989
-4.39,0.61,-8.98,0.4431632823239501,0.3046662528797835,-0.1931192363152068,-134.7075870499225,33.73986021591224,28.83669047331989
-4.71,0.34,-8.32,0.1017288732612703,-0.1979408974377179,0.2425206283600189,-134.588690989807,33.67999263161277,29.014203146635065
-4.71,0.34,-8.32,0.1017288732612703,-0.1979408974377179,0.2425206283600189,-134.588690989807,33.67999263161277,29.014203146635065
-4.79,0.25,-8.02,-0.0218175411607415,-0.347112078268938,0.4682327251071321,-134.49971207203987,33.644076625825655,29.15626451062837
-4.79,0.25,-8.02,-0.0218175411607415,-0.347112078268938,0.4682327251071321,-134.49971207203987,33.644076625825655,29.15626451062837
-4.99,0.4,-7.76,-0.3647418392228968,-0.3769412959981083,0.5869656968315021,-134.49971207203987,33.656048249410745,29.1444243172648
-4.99,0.4,-7.76,-0.3647418392228968,-0.3769412959981083,0.5869656968315021,-134.49971207203987,33.656048249410745,29.1444243172648
-4.76,0.47,-8.15,-0.1253042726339298,-0.1261440000793554,0.3584021978673899,-134.6778353365212,33.73986021591224,28.801196435314267
-4.76,0.47,-8.15,-0.1253042726339298,-0.1261440000793554,0.3584021978673899,-134.6778353365212,33.73986021591224,28.801196435314267
-4.61,0.51,-8.46,0.0306764587195788,0.025931826848527,0.1587390087420086,-134.91636984441135,33.78776111254545,28.399126966206964
-4.61,0.51,-8.46,0.0306764587195788,0.025931826848527,0.1587390087420086,-134.91636984441135,33.78776111254545,28.399126966206964
-4.75,0.49,-8.21,-0.2314599349679326,-0.159358552174021,0.3130873836607737,-135.18615927411605,33.84764578735518,27.938368456027646
-4.75,0.49,-8.21,-0.2314599349679326,-0.159358552174021,0.3130873836607737,-135.18615927411605,33.84764578735518,27.938368456027646
-4.71,0.46,-8.33,-0.1863732943780428,-0.1661394383255016,0.2294759553156478,-135.397065246721,33.871602322817786,27.59605210118816
-4.71,0.46,-8.33,-0.1863732943780428,-0.1661394383255016,0.2294759553156478,-135.397065246721,33.871602322817786,27.59605210118816
-4.75,0.56,-8.41,-0.3054819750746413,-0.1317806293966206,0.1374455534790559,-135.7000120016838,33.90753998612701,27.136090647491407
-4.75,0.56,-8.41,-0.3054819750746413,-0.1317806293966206,0.1374455534790559,-135.7000120016838,33.90753998612701,27.136090647491407
-4.62,0.52,-8.74,-0.0933251434258698,-0.0524304597284992,-0.0923874009040499,-135.88272800413355,33.919519970596944,26.87682214392707
-4.62,0.52,-8.74,-0.0933251434258698,-0.0524304597284992,-0.0923874009040499,-135.88272800413355,33.919519970596944,26.87682214392707
-4.32,0.52,-9.08,0.2282255398457951,0.1577490792668389,-0.2582508107855989,-136.00493912570792,33.919519970596944,26.66479763712951
-4.32,0.52,-9.08,0.2282255398457951,0.1577490792668389,-0.2582508107855989,-136.00493912570792,33.919519970596944,26.66479763712951
-4.48,0.47,-8.81,0.0165407194049309,-0.0368759352995941,-0.0880842849617415,-136.06616582647524,33.931500337029355,26.558820285317804
-4.48,0.47,-8.81,0.0165407194049309,-0.0368759352995941,-0.0880842849617415,-136.06616582647524,33.931500337029355,26.558820285317804
-4.42,0.4,-8.72,0.0354057973679447,-0.103402863908535,0.0228442845716614,-136.21958862710648,33.931500337029355,26.370473139201327
-4.42,0.4,-8.72,0.0354057973679447,-0.103402863908535,0.0228442845716614,-136.21958862710648,33.931500337029355,26.370473139201327
-4.26,0.52,-8.62,0.0179232872230406,0.0372660664687818,0.1774916776924318,-136.311888173766,33.94348108559176,26.1821984911941
-4.26,0.52,-8.62,0.0179232872230406,0.0372660664687818,0.1774916776924318,-136.311888173766,33.94348108559176,26.1821984911941
-4.28,0.53,-8.29,-0.1628581987556829,-0.0538601956041333,0.4635254537666853,-136.43524351543036,33.94348108559176,25.970475433904987
-4.28,0.53,-8.29,-0.1628581987556829,-0.0538601956041333,0.4635254537666853,-136.43524351543036,33.94348108559176,25.970475433904987
-4.04,0.23,-8.22,0.0987035889837276,-0.213990731061486,0.6476453833103921,-136.68295663578678,33.96744372977673,25.60605217391993
-4.04,0.23,-8.22,0.0987035889837276,-0.213990731061486,0.6476453833103921,-136.68295663578678,33.96744372977673,25.60605217391993
-3.95,0.25,-7.84,-0.0807805706112216,-0.2772182767947997,1.0289951579352523,-137.0570759218849,34.00339056621902,24.97187636961762
-3.95,0.25,-7.84,-0.0807805706112216,-0.2772182767947997,1.0289951579352523,-137.0570759218849,34.00339056621902,24.97187636961762
-3.76,0.23,-7.84,-0.0130940921410685,-0.2616658906159672,1.1125451290866568,-137.4343266309111,34.09926566702287,24.31503217113493
-3.76,0.23,-7.84,-0.0130940921410685,-0.2616658906159672,1.1125451290866568,-137.4343266309111,34.09926566702287,24.31503217113493
-3.53,0.44,-8.43,0.1179612708560733,0.0252935742794817,0.6576147845426767,-137.94234469461358,34.29108977492126,23.2493773342699
-3.53,0.44,-8.43,0.1179612708560733,0.0252935742794817,0.6576147845426767,-137.94234469461358,34.29108977492126,23.2493773342699
-3.6,0.41,-8.29,-0.061799397371335,-0.1529802509586607,0.7609340041652235,-138.26285199839916,34.44701981345315,22.50113074326324
-3.6,0.41,-8.29,-0.061799397371335,-0.1529802509586607,0.7609340041652235,-138.26285199839916,34.44701981345315,22.50113074326324
-3.9,0.39,-8.06,-0.4712686694807517,-0.5021790891654858,0.8706877125028782,-138.68306126823978,34.66303165808797,21.53218888989049
-3.9,0.39,-8.06,-0.4712686694807517,-0.5021790891654858,0.8706877125028782,-138.68306126823978,34.66303165808797,21.53218888989049
-3.34,0.46,-8.91,0.0749147096288609,-0.1358810421736552,0.2813560870197289,-139.04184146178912,34.87917065061918,20.599742008899195
-3.34,0.46,-8.91,0.0749147096288609,-0.1358810421736552,0.2813560870197289,-139.04184146178912,34.87917065061918,20.599742008899195
-3.15,0.96,-8.91,-0.2055123913677112,0.180396584725535,0.3115237907696162,-139.43670037409964,35.20361971980137,19.43611171140661
-3.15,0.96,-8.91,-0.2055123913677112,0.180396584725535,0.3115237907696162,-139.43670037409964,35.20361971980137,19.43611171140661
-2.8,1.38,-9.08,-0.2413378475883885,0.5950657796165484,0.2265428627467418,-139.76858389100772,35.35993976529708,18.51827857520288
-2.8,1.38,-9.08,-0.2413378475883885,0.5950657796165484,0.2265428627467418,-139.76858389100772,35.35993976529708,18.51827857520288
-3.05,1.25,-8.94,-0.5448917035820133,0.1455267867517957,0.2950510289696737,-140.33889297208822,35.383995029265094,17.33498950133432
-3.05,1.25,-8.94,-0.5448917035820133,0.1455267867517957,0.2950510289696737,-140.33889297208822,35.383995029265094,17.33498950133432
-2.42,0.87,-9.6,0.2184105087679792,0.118031895732063,-0.1287244429311584,-140.78037862226373,35.39602326525133,16.396650200988272
-2.42,0.87,-9.6,0.2184105087679792,0.118031895732063,-0.1287244429311584,-140.78037862226373,35.39602326525133,16.396650200988272
-2.24,0.76,-9.48,0.2397082057985229,-0.0663635135142295,0.0391664008252892,-141.26122730722247,35.408051904136364,15.22816347918777
-2.24,0.76,-9.48,0.2397082057985229,-0.0663635135142295,0.0391664008252892,-141.26122730722247,35.408051904136364,15.22816347918777
-2.31,0.58,-9.34,0.1402172947181387,-0.4030204022220869,0.1772152468249874,-141.53859212209682,35.45617049212599,14.338412369029564
-2.31,0.58,-9.34,0.1402172947181387,-0.4030204022220869,0.1772152468249874,-141.53859212209682,35.45617049212599,14.338412369029564
-2.03,1.0,-9.73,0.0680183570320255,-0.106269474565028,-0.1822378410903304,-141.81789497427926,35.60056506187857,13.138038375794716
-2.03,1.0,-9.73,0.0680183570320255,-0.106269474565028,-0.1822378410903304,-141.81789497427926,35.60056506187857,13.138038375794716
-1.82,1.31,-9.76,-0.0621790536393798,0.0406759190885989,-0.2073691349375206,-141.9934624116977,35.72093850046968,12.054333120262198
-1.82,1.31,-9.76,-0.0621790536393798,0.0406759190885989,-0.2073691349375206,-141.9934624116977,35.72093850046968,12.054333120262198
-1.59,1.77,-9.76,-0.2313071300783492,0.3867413032181009,-0.2290626391681858,-142.06390845011202,35.805224148583044,11.294085603048902
-1.59,1.77,-9.76,-0.2313071300783492,0.3867413032181009,-0.2290626391681858,-142.06390845011202,35.805224148583044,11.294085603048902
-1.5,1.7,-9.67,-0.2549478907262557,0.1912591234290335,-0.1204503581468561,-142.24057734218397,35.829309438989284,10.304202691653051
-1.5,1.7,-9.67,-0.2549478907262557,0.1912591234290335,-0.1204503581468561,-142.24057734218397,35.829309438989284,10.304202691653051
-1.27,1.52,-9.89,-0.0244755936392497,0.0259065242705887,-0.2796838134981527,-142.4180463131718,35.781140493411314,9.499056247386587
-1.27,1.52,-9.89,-0.0244755936392497,0.0259065242705887,-0.2796838134981527,-142.4180463131718,35.781140493411314,9.499056247386587
-0.72,1.83,-10.14,0.1388877473293482,0.3995185965349961,-0.5136210761231705,-142.56060519917662,35.745018073663594,8.395611151395807
-0.72,1.83,-10.14,0.1388877473293482,0.3995185965349961,-0.5136210761231705,-142.56060519917662,35.745018073663594,8.395611151395807
-1.33,1.85,-9.49,-0.5684528548370749,-0.0240723215672955,0.0635610711662959,-142.73954322436268,35.67278424373711,7.6374510050387485
-1.33,1.85,-9.49,-0.5684528548370749,-0.0240723215672955,0.0635610711662959,-142.73954322436268,35.67278424373711,7.6374510050387485
-0.47,1.63,-10.44,0.2322058972190597,0.0442083505295165,-0.7676360772271593,-142.95536907296346,35.540393572715686,6.420486066048695
-0.47,1.63,-10.44,0.2322058972190597,0.0442083505295165,-0.7676360772271593,-142.95536907296346,35.540393572715686,6.420486066048695
-0.47,1.77,-9.92,-0.0204954140217087,0.0959664725075464,-0.2804987732737718,-143.06373822672285,35.44414023991489,5.697547703194251
-0.47,1.77,-9.92,-0.0204954140217087,0.0959664725075464,-0.2804987732737718,-143.06373822672285,35.44414023991489,5.697547703194251
-0.88,1.82,-9.47,-0.5705383899493018,-0.1995476345894372,0.1421600141226395,-143.24503868567004,35.26373479080068,4.699571210920838
-0.88,1.82,-9.47,-0.5705383899493018,-0.1995476345894372,0.1421600141226395,-143.24503868567004,35.26373479080068,4.699571210920838
-0.07,2.02,-10.36,-0.0385297648320652,0.1900342806700444,-0.7468945433935694,-143.35423456188457,35.10745640434998,3.816604503074617
-0.07,2.02,-10.36,-0.0385297648320652,0.1900342806700444,-0.7468945433935694,-143.35423456188457,35.10745640434998,3.816604503074617
0.25,1.2,-10.61,0.5499712411236094,-0.4549170191753369,-0.8500465866351643,-143.61025532246643,34.87917065061918,2.738999060214957
0.25,1.2,-10.61,0.5499712411236094,-0.4549170191753369,-0.8500465866351643,-143.61025532246643,34.87917065061918,2.738999060214957
0.16,1.28,-10.1,0.2911696813161075,-0.4641023600013683,-0.3606421280016079,-143.53692935464713,34.843138613311,2.085681528609333
0.16,1.28,-10.1,0.2911696813161075,-0.4641023600013683,-0.3606421280016079,-143.53692935464713,34.843138613311,2.085681528609333
0.53,1.62,-10.17,0.2911542136103595,-0.126464275893148,-0.5003105612333538,-143.3907030739344,34.90319398604888,1.237612897472461
0.53,1.62,-10.17,0.2911542136103595,-0.126464275893148,-0.5003105612333538,-143.3907030739344,34.90319398604888,1.237612897472461
0.55,1.82,-9.47,0.068140967615145,0.0785743290660411,0.1482348668974502,-143.24503868567004,34.9512454084058,0.6760941207657828
0.55,1.82,-9.47,0.068140967615145,0.0785743290660411,0.1482348668974502,-143.24503868567004,34.9512454084058,0.6760941207657828
-0.14,1.44,-8.78,-0.4250225179856957,-0.6052312761563791,0.9390318890545808,-143.06373822672285,34.98728813812748,-0.1260507403490224
-0.14,1.44,-8.78,-0.4250225179856957,-0.6052312761563791,0.9390318890545808,-143.06373822672285,34.98728813812748,-0.1260507403490224
0.94,1.88,-10.33,0.1782328038188761,-0.0655451290371393,-0.7333137999237174,-142.81135091208287,35.07140174532199,-0.9625804159917916
0.94,1.88,-10.33,0.1782328038188761,-0.0655451290371393,-0.7333137999237174,-142.81135091208287,35.07140174532199,-0.9625804159917916
1.31,2.25,-10.84,0.1450094684508389,0.1813701678922877,-1.339213677448166,-142.4180463131718,35.227664546585345,-1.9137679978932431
1.31,2.25,-10.84,0.1450094684508389,0.1813701678922877,-1.339213677448166,-142.4180463131718,35.227664546585345,-1.9137679978932431
0.91,2.5,-10.08,-0.4254539031719503,0.2377940812179664,-0.6071361967304387,-142.16981440543415,35.33588611084891,-2.4180613422720283
0.91,2.5,-10.08,-0.4254539031719503,0.2377940812179664,-0.6071361967304387,-142.16981440543415,35.33588611084891,-2.4180613422720283
1.01,2.25,-10.02,-0.2930034116375826,0.0221201349535491,-0.5082256512329462,-141.95828650840244,35.408051904136364,-3.048495041051397
1.01,2.25,-10.02,-0.2930034116375826,0.0221201349535491,-0.5082256512329462,-141.95828650840244,35.408051904136364,-3.048495041051397
0.97,2.34,-9.33,-0.4396066997580398,0.1782135002570122,0.1505438542570907,-141.81789497427926,35.43211039129503,-3.4153340784378665
0.97,2.34,-9.33,-0.4396066997580398,0.1782135002570122,0.1505438542570907,-141.81789497427926,35.43211039129503,-3.4153340784378665
1.02,2.55,-9.31,-0.5916712793569863,0.2969585719106764,0.1226043214753023,-141.67799864882886,35.383995029265094,-3.965659465674837
1.02,2.55,-9.31,-0.5916712793569863,0.2969585719106764,0.1226043214753023,-141.67799864882886,35.383995029265094,-3.965659465674837
1.4,2.07,-9.77,-0.0603139383976399,-0.0440969356905101,-0.2776059313564438,-141.67799864882886,35.227664546585345,-4.424333322525307
1.4,2.07,-9.77,-0.0603139383976399,-0.0440969356905101,-0.2776059313564438,-141.67799864882886,35.227664546585345,-4.424333322525307
1.71,1.42,-10.08,0.4766627290241994,-0.5359126507289602,-0.4905578872647745,-141.67799864882886,35.07140174532199,-5.0551272004985615
1.71,1.42,-10.08,0.4766627290241994,-0.5359126507289602,-0.4905578872647745,-141.67799864882886,35.07140174532199,-5.0551272004985615
1.73,1.49,-10.14,0.3820749595491674,-0.5692586719806554,-0.5645873075569128,-141.43435545776626,35.08341956652468,-5.5598717686300585
1.73,1.49,-10.14,0.3820749595491674,-0.5692586719806554,-0.5645873075569128,-141.43435545776626,35.08341956652468,-5.5598717686300585
1.78,1.88,-10.17,0.1560356144099544,-0.3004995378932629,-0.6822514160092865,-141.15770665873933,35.227664546585345,-5.8467059276897535
1.78,1.88,-10.17,0.1560356144099544,-0.3004995378932629,-0.6822514160092865,-141.15770665873933,35.227664546585345,-5.8467059276897535
1.77,1.92,-10.0,0.0973090451029396,-0.2736566664500333,-0.5246104738554838,-140.8829393690889,35.408051904136364,-6.064724315991072
1.77,1.92,-10.0,0.0973090451029396,-0.2736566664500333,-0.5246104738554838,-140.8829393690889,35.408051904136364,-6.064724315991072
1.75,1.63,-9.96,0.1837738619982382,-0.5140677993356504,-0.4218866238447081,-140.44035437538835,35.829309438989284,-6.420486066048695
1.75,1.63,-9.96,0.1837738619982382,-0.5140677993356504,-0.4218866238447081,-140.44035437538835,35.829309438989284,-6.420486066048695
2.0,1.75,-10.04,0.2251122521204916,-0.3580914597663843,-0.5704977285614259,-139.70199765652578,36.43197725116238,-6.9140653613570215
2.0,1.75,-10.04,0.2251122521204916,-0.3580914597663843,-0.5704977285614259,-139.70199765652578,36.43197725116238,-6.9140653613570215
1.95,1.48,-9.56,0.3113109143624435,-0.4621809107063762,-0.0460640585920479,-139.2059212883253,36.963188541466,-7.166643396943946
1.95,1.48,-9.56,0.3113109143624435,-0.4621809107063762,-0.0460640585920479,-139.2059212883253,36.963188541466,-7.166643396943946
1.92,1.74,-9.53,0.0706994925593172,-0.3089544542894313,-0.0642389532263791,-138.23069557304194,37.9069169867096,-7.465189762811248
1.92,1.74,-9.53,0.0706994925593172,-0.3089544542894313,-0.0642389532263791,-138.23069557304194,37.9069169867096,-7.465189762811248
1.89,2.02,-9.6,-0.159807563149546,-0.1947976800005577,-0.1807928862760786,-137.339715842895,38.707543665525726,-7.6374510050387485
1.89,2.02,-9.6,-0.159807563149546,-0.1947976800005577,-0.1807928862760786,-137.339715842895,38.707543665525726,-7.6374510050387485
2.12,1.75,-9.69,0.1688351721849083,-0.3705048721076066,-0.2575052464366241,-135.94379329724794,39.96096228867753,-7.763786880218299
2.12,1.75,-9.69,0.1688351721849083,-0.3705048721076066,-0.2575052464366241,-135.94379329724794,39.96096228867753,-7.763786880218299
2.09,2.36,-9.66,-0.2302490544251137,-0.0297035985597395,-0.3520606991571,-134.7075870499225,41.07250897869503,-7.660420468145224
2.09,2.36,-9.66,-0.2302490544251137,-0.0297035985597395,-0.3520606991571,-134.7075870499225,41.07250897869503,-7.660420468145224
2.0,2.86,-9.54,-0.5906200477594024,0.1599056609556417,-0.3332118402214448,-133.0977829759083,42.45844069063149,-7.47667331573405
2.0,2.86,-9.54,-0.5906200477594024,0.1599056609556417,-0.3332118402214448,-133.0977829759083,42.45844069063149,-7.47667331573405
2.53,2.66,-10.15,-0.0768373414503296,0.083024005903755,-0.9862274215870048,-132.09998463629478,43.33257535076985,-7.499640647274437
2.53,2.66,-10.15,-0.0768373414503296,0.083024005903755,-0.9862274215870048,-132.09998463629478,43.33257535076985,-7.499640647274437
1.85,1.28,-9.25,0.4401086234696424,-0.987408543710934,0.3485989974226537,-131.1213744286973,44.40732869091076,-7.189606746883267
1.85,1.28,-9.25,0.4401086234696424,-0.987408543710934,0.3485989974226537,-131.1213744286973,44.40732869091076,-7.189606746883267
2.28,2.94,-9.47,-0.4014574141183837,0.2328580142894185,-0.3573801598249204,-129.86249210271768,45.51106402154343,-7.017388604693049
2.28,2.94,-9.47,-0.4014574141183837,0.2328580142894185,-0.3573801598249204,-129.86249210271768,45.51106402154343,-7.017388604693049
2.54,2.95,-10.07,-0.1938447195460401,0.0486357766412164,-0.9877494175653272,-128.2635811405088,46.8189931753183,-6.971466463000762
2.54,2.95,-10.07,-0.1938447195460401,0.0486357766412164,-0.9877494175653272,-128.2635811405088,46.8189931753183,-6.971466463000762
2.09,2.28,-9.48,0.0214296532451895,-0.528990171028194,-0.1510912182139669,-127.351803991908,47.64442766376834,-6.764830589593756
2.09,2.28,-9.48,0.0214296532451895,-0.528990171028194,-0.1510912182139669,-127.351803991908,47.64442766376834,-6.764830589593756
2.3,3.05,-9.71,-0.3287946786361277,-0.076045308435555,-0.6222862434701621,-125.92268154117136,48.93789354543228,-6.317194167065648
2.3,3.05,-9.71,-0.3287946786361277,-0.076045308435555,-0.6222862434701621,-125.92268154117136,48.93789354543228,-6.317194167065648
2.45,3.26,-9.99,-0.2959575853953247,-0.0293828927115882,-0.9795330947403666,-124.70026179828332,50.04827088645171,-5.881128455236522
2.45,3.26,-9.99,-0.2959575853953247,-0.0293828927115882,-0.9795330947403666,-124.70026179828332,50.04827088645171,-5.881128455236522
1.99,2.88,-9.46,-0.2449982253465316,-0.3700325731459329,-0.2705099056672786,-123.93959592332432,50.87166614791169,-5.250129975900072
1.99,2.88,-9.46,-0.2449982253465316,-0.3700325731459329,-0.2705099056672786,-123.93959592332432,50.87166614791169,-5.250129975900072
2.01,3.9,-9.35,-0.9298557103492724,0.2557173647031496,-0.4764709750406073,-123.09201996316364,51.736087563875465,-4.504608331312204
2.01,3.9,-9.35,-0.9298557103492724,0.2557173647031496,-0.4764709750406073,-123.09201996316364,51.736087563875465,-4.504608331312204
1.74,3.64,-9.36,-0.7854457635266746,-0.039149107498591,-0.3554532419445575,-122.37462983210789,52.61646535624809,-3.621696182670093
1.74,3.64,-9.36,-0.7854457635266746,-0.039149107498591,-0.3554532419445575,-122.37462983210789,52.61646535624809,-3.621696182670093
1.86,3.44,-9.64,-0.4374537450659569,-0.0251281964504601,-0.5871367399072067,-121.99534211175566,53.25651268144825,-2.738999060214957
1.86,3.44,-9.64,-0.4374537450659569,-0.0251281964504601,-0.5871367399072067,-121.99534211175566,53.25651268144825,-2.738999060214957
1.6,4.13,-9.43,-1.0848025129488343,0.3349974121032613,-0.5496418190723098,-121.71235608620218,53.808389685397145,-1.8793858210517669
1.6,4.13,-9.43,-1.0848025129488343,0.3349974121032613,-0.5496418190723098,-121.71235608620218,53.808389685397145,-1.8793858210517669
1.49,3.72,-9.61,-0.7058714627383129,0.1998681944214495,-0.5795137856790191,-121.66531355494112,54.25858892916724,-0.7448503787209418
1.49,3.72,-9.61,-0.7058714627383129,0.1998681944214495,-0.5795137856790191,-121.66531355494112,54.25858892916724,-0.7448503787209418
1.54,3.08,-10.16,-0.008396568536233,-0.0475951221464818,-0.9209435885912782,-121.8536919796764,54.42603640579737,0.1833465726697912
1.54,3.08,-10.16,-0.008396568536233,-0.0475951221464818,-0.9209435885912782,-121.8536919796764,54.42603640579737,0.1833465726697912
0.58,4.13,-8.75,-1.4602375525002262,0.42137791667192,0.2334610359395217,-121.94809034282368,54.72259849297357,1.925228761643688
0.58,4.13,-8.75,-1.4602375525002262,0.42137791667192,0.2334610359395217,-121.94809034282368,54.72259849297357,1.925228761643688
0.64,3.54,-9.29,-0.7634374438202138,0.2349208267632543,-0.1234696102829548,-122.20841159701892,54.69679474885505,3.014105541619682
0.64,3.54,-9.29,-0.7634374438202138,0.2349208267632543,-0.1234696102829548,-122.20841159701892,54.69679474885505,3.014105541619682
0.01,3.03,-8.73,-0.7350659967974875,-0.1726327394727729,0.5966675940659769,-122.7322966604894,54.438922188166046,4.1720543955147065
0.01,3.03,-8.73,-0.7350659967974875,-0.1726327394727729,0.5966675940659769,-122.7322966604894,54.438922188166046,4.1720543955147065
0.25,3.39,-9.18,-0.7702802579932059,0.2375161610763294,0.0507669340047183,-123.14014055583444,54.14273717736637,4.561948975165956
0.25,3.39,-9.18,-0.7702802579932059,0.2375161610763294,0.0507669340047183,-123.14014055583444,54.14273717736637,4.561948975165956
0.38,3.17,-9.42,-0.4549085283363064,0.3555858667162377,-0.1229178114527531,-123.86648635871312,53.61572206207956,5.0551272004985615
0.38,3.17,-9.42,-0.4549085283363064,0.3555858667162377,-0.1229178114527531,-123.86648635871312,53.61572206207956,5.0551272004985615
-0.06,2.9,-8.92,-0.5859900792956152,0.0737248935276324,0.4454972789382694,-124.47843555677235,53.14117252914141,5.422203865470181
-0.06,2.9,-8.92,-0.5859900792956152,0.0737248935276324,0.4454972789382694,-124.47843555677235,53.14117252914141,5.422203865470181
0.0,2.81,-9.36,-0.369193557549577,0.1058052407559295,0.0414976013892935,-125.3457502614118,52.34817308721272,5.743441500733661
0.0,2.81,-9.36,-0.369193557549577,0.1058052407559295,0.0414976013892935,-125.3457502614118,52.34817308721272,5.743441500733661
-0.07,2.49,-9.31,-0.1619209782835724,-0.0300142052235998,0.1705729587826265,-126.04885559306123,51.71061852077841,5.9958740675037845
-0.07,2.49,-9.31,-0.1619209782835724,-0.0300142052235998,0.1705729587826265,-126.04885559306123,51.71061852077841,5.9958740675037845
-0.03,3.06,-9.69,-0.4506557201635665,0.3896054332180434,-0.3375955130133175,-126.86293079671192,50.92242811941736,6.3975318623814825
-0.03,3.06,-9.69,-0.4506557201635665,0.3896054332180434,-0.3375955130133175,-126.86293079671192,50.92242811941736,6.3975318623814825
-0.3,2.66,-9.49,-0.3314328081798705,0.0670863240962971,-0.0478592074025332,-127.58485235552216,50.25069469093511,6.695956892035202
-0.3,2.66,-9.49,-0.3314328081798705,0.0670863240962971,-0.0478592074025332,-127.58485235552216,50.25069469093511,6.695956892035202
-0.52,2.25,-9.35,-0.1588592099679986,-0.1996846813248454,0.1790703571482961,-128.60607229870925,49.290658600791176,7.13219891205416
-0.52,2.25,-9.35,-0.1588592099679986,-0.1996846813248454,0.1790703571482961,-128.60607229870925,49.290658600791176,7.13219891205416
-0.17,2.37,-10.31,0.2139296483855429,0.1318571167800937,-0.7706250652659143,-129.2975202216285,48.59819468600229,7.557060298129735
-0.17,2.37,-10.31,0.2139296483855429,0.1318571167800937,-0.7706250652659143,-129.2975202216285,48.59819468600229,7.557060298129735
-0.77,2.19,-9.49,-0.128859127906756,-0.1431289423667887,0.0387428837845664,-130.18802216268048,47.73212702761914,8.395611151395807
-0.77,2.19,-9.49,-0.128859127906756,-0.1431289423667887,0.0387428837845664,-130.18802216268048,47.73212702761914,8.395611151395807
-0.71,2.59,-9.56,-0.2774211261441786,0.2880240485018457,-0.1153397029907044,-131.03834889093932,46.8189931753183,9.050681021579294
-0.71,2.59,-9.56,-0.2774211261441786,0.2880240485018457,-0.1153397029907044,-131.03834889093932,46.8189931753183,9.050681021579294
-1.06,2.45,-9.51,-0.3743663372608609,0.0396068538299878,-0.0637340423083649,-131.70630400699525,46.12063959224854,9.476059158737444
-1.06,2.45,-9.51,-0.3743663372608609,0.0396068538299878,-0.0637340423083649,-131.70630400699525,46.12063959224854,9.476059158737444
-0.92,2.18,-9.73,0.0085957638930545,0.0648306087476784,-0.2067122277940463,-132.63918862221735,45.12611671542185,9.947577287046574
-0.92,2.18,-9.73,0.0085957638930545,0.0648306087476784,-0.2067122277940463,-132.63918862221735,45.12611671542185,9.947577287046574
-1.22,2.04,-9.39,-0.155750174772602,-0.1256972492993118,0.1225371297068758,-133.444524198005,44.30833052387342,10.22366575133618
-1.22,2.04,-9.39,-0.155750174772602,-0.1256972492993118,0.1225371297068758,-133.444524198005,44.30833052387342,10.22366575133618
-0.91,1.76,-9.74,0.3441933855627338,-0.0618007980793009,-0.126678323109612,-134.49971207203987,43.24627621237414,10.396251161173767
-0.91,1.76,-9.74,0.3441933855627338,-0.0618007980793009,-0.126678323109612,-134.49971207203987,43.24627621237414,10.396251161173767
-1.13,1.64,-9.36,0.2100152619496726,-0.2232367282483619,0.2420193770794707,-135.18615927411605,42.50761837071936,10.62640189942489
-1.13,1.64,-9.36,0.2100152619496726,-0.2232367282483619,0.2420193770794707,-135.18615927411605,42.50761837071936,10.62640189942489
-1.18,1.57,-9.68,0.3075718498799164,-0.2521769848246671,-0.0625701477870688,-136.06616582647524,41.58688876109751,10.8450849117299
-1.18,1.57,-9.68,0.3075718498799164,-0.2521769848246671,-0.0625701477870688,-136.06616582647524,41.58688876109751,10.8450849117299
-1.38,1.14,-9.38,0.3775230150708001,-0.6222740345253283,0.2851663236474842,-136.68295663578678,40.9501654253067,11.017757342406153
-1.38,1.14,-9.38,0.3775230150708001,-0.6222740345253283,0.2851663236474842,-136.68295663578678,40.9501654253067,11.017757342406153
-1.3,1.72,-9.63,0.1488256110192416,-0.1286975022831455,-0.059787446738861,-137.30822333899698,40.253732215798784,11.167427069301608
-1.3,1.72,-9.63,0.1488256110192416,-0.1286975022831455,-0.059787446738861,-137.30822333899698,40.253732215798784,11.167427069301608
-1.16,1.73,-9.72,0.274354843364435,-0.0171578882232718,-0.130217465494054,-137.78296246704429,39.75374814015767,11.213483126166134
-1.16,1.73,-9.72,0.274354843364435,-0.0171578882232718,-0.130217465494054,-137.78296246704429,39.75374814015767,11.213483126166134
-1.46,1.7,-9.28,-0.024344237330172,-0.1587406386738243,0.261273696902137,-138.39171512082905,39.12075302077309,11.328631235557037
-1.46,1.7,-9.28,-0.024344237330172,-0.1587406386738243,0.261273696902137,-138.39171512082905,39.12075302077309,11.328631235557037
-1.47,1.48,-9.56,0.1771891673134855,-0.3144698072234799,0.0283775176373008,-138.7806141249359,38.707543665525726,11.443790822449785
-1.47,1.48,-9.56,0.1771891673134855,-0.3144698072234799,0.0283775176373008,-138.7806141249359,38.707543665525726,11.443790822449785
-1.68,1.83,-9.28,-0.2390619586561206,-0.1294739185793001,0.2037449247464078,-139.2059212883253,38.20995633245823,11.593515641253694
-1.68,1.83,-9.28,-0.2390619586561206,-0.1294739185793001,0.2037449247464078,-139.2059212883253,38.20995633245823,11.593515641253694
-1.47,1.68,-9.77,0.0954199085889397,-0.1377593628904648,-0.2137350923495376,-139.63551670559374,37.822115366775535,11.420757981123572
-1.47,1.68,-9.77,0.0954199085889397,-0.1377593628904648,-0.2137350923495376,-139.63551670559374,37.822115366775535,11.420757981123572
-1.29,1.57,-9.73,0.2458579949768889,-0.0966006072597042,-0.1297538851579975,-140.20399733163396,37.313754836919216,11.178940913568928
-1.29,1.57,-9.73,0.2458579949768889,-0.0966006072597042,-0.1297538851579975,-140.20399733163396,37.313754836919216,11.178940913568928
-1.45,1.72,-9.54,-0.0119696177537848,-0.0549838955354669,0.0051535071432766,-140.54206620040912,36.999437339480345,11.167427069301608
-1.45,1.72,-9.54,-0.0119696177537848,-0.0549838955354669,0.0051535071432766,-140.54206620040912,36.999437339480345,11.167427069301608
-1.72,1.77,-9.33,-0.302473650094327,-0.1379304001612488,0.1614602716582105,-140.91718374591224,36.58884114328757,11.178940913568928
-1.72,1.77,-9.33,-0.302473650094327,-0.1379304001612488,0.1614602716582105,-140.91718374591224,36.58884114328757,11.178940913568928
-1.49,1.75,-9.51,-0.0954647972866484,-0.0269691704025054,0.0233550981621313,-141.26122730722247,36.28724251436374,11.017757342406153
-1.49,1.75,-9.51,-0.0954647972866484,-0.0269691704025054,0.0233550981621313,-141.26122730722247,36.28724251436374,11.017757342406153
-1.4,1.6,-9.67,0.0685869658109337,-0.1063469254475323,-0.0934957645616894,-141.67799864882886,35.88952982832807,10.833574298853826
-1.4,1.6,-9.67,0.0685869658109337,-0.1063469254475323,-0.0934957645616894,-141.67799864882886,35.88952982832807,10.833574298853826
-1.55,1.5,-9.56,-0.0293121770404004,-0.2638931120368336,0.0099362029302536,-141.95828650840244,35.612600576556765,10.764512919793646
-1.55,1.5,-9.56,-0.0293121770404004,-0.2638931120368336,0.0099362029302536,-141.95828650840244,35.612600576556765,10.764512919793646
-1.49,1.52,-9.75,0.0230077724554996,-0.2104370457508131,-0.1707337699159552,-142.34696199162144,35.26373479080068,10.637910557080565
-1.49,1.52,-9.75,0.0230077724554996,-0.2104370457508131,-0.1707337699159552,-142.34696199162144,35.26373479080068,10.637910557080565
-1.43,1.2,-9.6,0.2005741792449504,-0.4110500978901575,0.0375298852893291,-142.63208125401738,35.01131860953798,10.557352206642197
-1.43,1.2,-9.6,0.2005741792449504,-0.4110500978901575,0.0375298852893291,-142.63208125401738,35.01131860953798,10.557352206642197
-1.43,1.3,-9.67,0.1644479011636409,-0.3144800094836488,-0.0481893802962645,-142.84730495776557,34.795101425948374,10.6148933492606
-1.43,1.3,-9.67,0.1644479011636409,-0.3144800094836488,-0.0481893802962645,-142.84730495776557,34.795101425948374,10.6148933492606
-1.43,1.34,-9.65,0.129064543524883,-0.2835988805177263,-0.0353982633735245,-142.99145809873448,34.675036035061034,10.557352206642197
-1.43,1.34,-9.65,0.129064543524883,-0.2835988805177263,-0.0353982633735245,-142.99145809873448,34.675036035061034,10.557352206642197
-1.42,1.4,-9.55,0.0535781630945873,-0.2385439911045905,0.0537465274566937,-143.13615512462272,34.56701075551299,10.361732200036483
-1.42,1.4,-9.55,0.0535781630945873,-0.2385439911045905,0.0537465274566937,-143.13615512462272,34.56701075551299,10.361732200036483
-1.54,1.69,-9.48,-0.2213263380664737,-0.0751310397607919,0.0576259473605453,-143.1724151146164,34.54300944397086,10.327214181692757
-1.54,1.69,-9.48,-0.2213263380664737,-0.0751310397607919,0.0576259473605453,-143.1724151146164,34.54300944397086,10.327214181692757
-1.44,1.51,-9.7,-0.0400922279601462,-0.194931377603482,-0.1132337881944316,-143.2814024718206,34.50701040671306,10.05110359058591
-1.44,1.51,-9.7,-0.0400922279601462,-0.194931377603482,-0.1132337881944316,-143.2814024718206,34.50701040671306,10.05110359058591
-1.44,1.61,-9.44,-0.1732133172281249,-0.1126976427756792,0.1248838187680032,-143.3178010626215,34.49501150829637,9.878564278366849
-1.44,1.61,-9.44,-0.1732133172281249,-0.1126976427756792,0.1248838187680032,-143.3178010626215,34.49501150829637,9.878564278366849
-1.33,1.65,-9.66,-0.0990618294131376,-0.0520504225766366,-0.0824590350679663,-143.3907030739344,34.471014881449136,9.637046865121436
-1.33,1.65,-9.66,-0.0990618294131376,-0.0520504225766366,-0.0824590350679663,-143.3907030739344,34.471014881449136,9.637046865121436
-1.24,1.76,-9.74,-0.0655919870176348,0.0919509517983505,-0.1678195454797197,-143.3907030739344,34.48301299993159,9.683046840720888
-1.24,1.76,-9.74,-0.0655919870176348,0.0919509517983505,-0.1678195454797197,-143.3907030739344,34.48301299993159,9.683046840720888
-1.42,1.58,-9.58,-0.1615820577381805,-0.1553362722171565,-0.003495864417653,-143.42720670361226,34.48301299993159,9.568049817899787
-1.42,1.58,-9.58,-0.1615820577381805,-0.1553362722171565,-0.003495864417653,-143.42720670361226,34.48301299993159,9.568049817899787
-1.16,1.63,-9.88,0.0527229069783897,-0.0061137337629824,-0.2737310898863967,-143.46374555627918,34.471014881449136,9.384074619875276
-1.16,1.63,-9.88,0.0527229069783897,-0.0061137337629824,-0.2737310898863967,-143.46374555627918,34.471014881449136,9.384074619875276
-1.32,1.79,-9.62,-0.218604640697626,0.0414245578384396,-0.0645908549823843,-143.46374555627918,34.471014881449136,9.349581983346614
-1.32,1.79,-9.62,-0.218604640697626,0.0414245578384396,-0.0645908549823843,-143.46374555627918,34.471014881449136,9.349581983346614
-1.38,1.77,-9.7,-0.2555324546942867,-0.0267270281556694,-0.146303774159902,-143.53692935464713,34.435022863600715,9.246109154854068
-1.38,1.77,-9.7,-0.2555324546942867,-0.0267270281556694,-0.146303774159902,-143.53692935464713,34.435022863600715,9.246109154854068
-1.25,1.5,-9.72,-0.029039797701198,-0.1828110239326814,-0.1057985784128128,-143.64697188895283,34.351055102879386,9.050681021579294
-1.25,1.5,-9.72,-0.029039797701198,-0.1828110239326814,-0.1057985784128128,-143.64697188895283,34.351055102879386,9.050681021579294
-1.29,1.55,-9.7,-0.0985915436229318,-0.1647725044973856,-0.0988903552399786,-143.68372432172094,34.339061261923746,9.016196458354324
-1.29,1.55,-9.7,-0.0985915436229318,-0.1647725044973856,-0.0988903552399786,-143.68372432172094,34.339061261923746,9.016196458354324
-1.28,1.57,-9.67,-0.1055730594074447,-0.1377430807546025,-0.0717142964223374,-143.68372432172094,34.315074743396394,9.027691221695424
-1.28,1.57,-9.67,-0.1055730594074447,-0.1377430807546025,-0.0717142964223374,-143.68372432172094,34.315074743396394,9.027691221695424
-1.38,1.69,-9.48,-0.2797405088257682,-0.0783020912106626,0.0831468231488745,-143.68372432172094,34.315074743396394,9.085166406176857
-1.38,1.69,-9.48,-0.2797405088257682,-0.0783020912106626,0.0831468231488745,-143.68372432172094,34.315074743396394,9.085166406176857
-1.28,1.73,-9.61,-0.1954063546182301,0.0005539207926279,-0.0394261752967608,-143.68372432172094,34.30308206548676,9.085166406176857
-1.28,1.73,-9.61,-0.1954063546182301,0.0005539207926279,-0.0394261752967608,-143.68372432172094,34.30308206548676,9.085166406176857
-1.2,1.66,-9.79,-0.0694808306998391,-0.0328277939338055,-0.1950395947690069,-143.75733722307018,34.255115225601216,9.004701785923347
-1.2,1.66,-9.79,-0.0694808306998391,-0.0328277939338055,-0.1950395947690069,-143.75733722307018,34.255115225601216,9.004701785923347
-1.32,1.76,-9.48,-0.2728857144851355,0.0074642066108647,0.0785526694605067,-143.75733722307018,34.24312448272413,9.050681021579294
-1.32,1.76,-9.48,-0.2728857144851355,0.0074642066108647,0.0785526694605067,-143.75733722307018,34.24312448272413,9.050681021579294
-1.27,1.57,-9.62,-0.1043518276274492,-0.1252708077745883,-0.0216569712331544,-143.83109490597238,34.17118813606689,9.039186076064473
-1.27,1.57,-9.62,-0.1043518276274492,-0.1252708077745883,-0.0216569712331544,-143.83109490597238,34.17118813606689,9.039186076064473
-1.33,1.48,-9.67,-0.0917950431458753,-0.2310000829411065,-0.0628187107126017,-143.86802831777294,34.12323828365854,9.06217605835773
-1.33,1.48,-9.67,-0.0917950431458753,-0.2310000829411065,-0.0628187107126017,-143.86802831777294,34.12323828365854,9.06217605835773
-1.47,1.62,-9.68,-0.2773768526018702,-0.1868905806761003,-0.11180925496976,-143.86802831777294,34.111251783016854,9.09666171745326
-1.47,1.62,-9.68,-0.2773768526018702,-0.1868905806761003,-0.11180925496976,-143.86802831777294,34.111251783016854,9.09666171745326
-1.3,2.08,-9.63,-0.4010078905556854,0.2799135236114696,-0.1187790129450601,-143.86802831777294,34.111251783016854,9.073671186517632
-1.3,2.08,-9.63,-0.4010078905556854,0.2799135236114696,-0.1187790129450601,-143.86802831777294,34.111251783016854,9.073671186517632
-1.03,1.98,-9.98,-0.084083853605694,0.3245924046819662,-0.4143709703525023,-143.97904817901198,34.015373611081245,8.935735653853007
-1.03,1.98,-9.98,-0.084083853605694,0.3245924046819662,-0.4143709703525023,-143.97904817901198,34.015373611081245,8.935735653853007
-1.07,1.36,-9.96,0.2074464975161117,-0.1886059838535508,-0.2986700708103758,-144.1648201843402,33.90753998612701,8.901253805563371
-1.07,1.36,-9.96,0.2074464975161117,-0.1886059838535508,-0.2986700708103758,-144.1648201843402,33.90753998612701,8.901253805563371
-1.36,1.04,-9.4,0.0369816655902296,-0.5582229189717902,0.2683996610151418,-144.23939029133862,33.811713840931375,8.901253805563371
-1.36,1.04,-9.4,0.0369816655902296,-0.5582229189717902,0.2683996610151418,-144.23939029133862,33.811713840931375,8.901253805563371
-1.27,1.45,-9.43,-0.1065052319177736,-0.1734767496263987,0.1838197275223034,-144.27673180622273,33.79973728659347,8.901253805563371
-1.27,1.45,-9.43,-0.1065052319177736,-0.1734767496263987,0.1838197275223034,-144.27673180622273,33.79973728659347,8.901253805563371
-1.27,1.53,-9.57,-0.1262501852841245,-0.1118754201140045,0.0337157026105998,-144.27673180622273,33.811713840931375,8.901253805563371
-1.27,1.53,-9.57,-0.1262501852841245,-0.1118754201140045,0.0337157026105998,-144.27673180622273,33.811713840931375,8.901253805563371
-1.01,1.67,-9.72,0.0285507361653563,0.1428253890894307,-0.1062802309506789,-144.27673180622273,33.811713840931375,8.855279263547427
-1.01,1.67,-9.72,0.0285507361653563,0.1428253890894307,-0.1062802309506789,-144.27673180622273,33.811713840931375,8.855279263547427
-0.88,1.08,-9.84,0.4626692672183883,-0.2559713124575853,-0.1174023898440968,-144.3141111196786,33.83566809114509,8.809306149715164
-0.88,1.08,-9.84,0.4626692672183883,-0.2559713124575853,-0.1174023898440968,-144.3141111196786,33.83566809114509,8.809306149715164
-1.27,0.89,-9.26,0.1585698146039132,-0.5750660137526997,0.4366577538066689,-144.1648201843402,33.96744372977673,8.935735653853007
-1.27,0.89,-9.26,0.1585698146039132,-0.5750660137526997,0.4366577538066689,-144.1648201843402,33.96744372977673,8.935735653853007
-1.34,1.65,-9.31,-0.293765478945666,-0.0106223098257536,0.2616099786112009,-143.94200484154302,34.15920009515199,8.981712713320505
-1.34,1.65,-9.31,-0.293765478945666,-0.0106223098257536,0.2616099786112009,-143.94200484154302,34.15920009515199,8.981712713320505
-1.35,1.83,-9.39,-0.3724552476227905,0.1065877720588293,0.1529762881239964,-143.72051272987528,34.339061261923746,9.039186076064473
-1.35,1.83,-9.39,-0.3724552476227905,0.1065877720588293,0.1529762881239964,-143.72051272987528,34.339061261923746,9.039186076064473
-1.38,1.68,-9.63,-0.2608243367530921,-0.07575687398877,-0.0619837231351709,-143.57357451370328,34.471014881449136,9.050681021579294
-1.38,1.68,-9.63,-0.2608243367530921,-0.07575687398877,-0.0619837231351709,-143.57357451370328,34.471014881449136,9.050681021579294
-1.27,2.06,-10.03,-0.3005721535659176,0.251622086489083,-0.5037206386381481,-143.46374555627918,34.54300944397086,9.06217605835773
-1.27,2.06,-10.03,-0.3005721535659176,0.251622086489083,-0.5037206386381481,-143.46374555627918,34.54300944397086,9.06217605835773
-1.8,1.85,-9.53,-0.6990147876537799,-0.202563208987767,-0.039859354741198,-143.46374555627918,34.54300944397086,9.085166406176857
-1.8,1.85,-9.53,-0.6990147876537799,-0.202563208987767,-0.039859354741198,-143.46374555627918,34.54300944397086,9.085166406176857
-1.49,1.54,-9.93,-0.2222932887546507,-0.3186047024065093,-0.3444916469961221,-143.5003197378201,34.519009695351265,8.947229783297066
-1.49,1.54,-9.93,-0.2222932887546507,-0.3186047024065093,-0.3444916469961221,-143.5003197378201,34.519009695351265,8.947229783297066
-1.04,1.96,-10.45,-0.0038230138022438,0.2143454953306223,-0.8741618321219828,-143.5003197378201,34.519009695351265,8.843785851491393
-1.04,1.96,-10.45,-0.0038230138022438,0.2143454953306223,-0.8741618321219828,-143.5003197378201,34.519009695351265,8.843785851491393
-1.41,1.61,-9.7,-0.2472331208047239,-0.2233570601643156,-0.1210479913599247,-143.53692935464713,34.471014881449136,8.855279263547427
-1.41,1.61,-9.7,-0.2472331208047239,-0.2233570601643156,-0.1210479913599247,-143.53692935464713,34.471014881449136,8.855279263547427
-1.16,1.61,-9.71,-0.0555325486633843,-0.0783821546652789,-0.1035756469703574,-143.61025532246643,34.45901715267948,8.786320126014099
-1.16,1.61,-9.71,-0.0555325486633843,-0.0783821546652789,-0.1035756469703574,-143.61025532246643,34.45901715267948,8.786320126014099
-0.8,1.59,-9.96,0.2736468601113496,0.0872055612165454,-0.3070640846498183,-143.72051272987528,34.351055102879386,8.659903302137069
-0.8,1.59,-9.96,0.2736468601113496,0.0872055612165454,-0.3070640846498183,-143.72051272987528,34.351055102879386,8.659903302137069
-1.7,1.2,-8.99,-0.4090216595661849,-0.6492812963447898,0.6109316985173727,-143.72051272987528,34.339061261923746,8.76333445653462
-1.7,1.2,-8.99,-0.4090216595661849,-0.6492812963447898,0.6109316985173727,-143.72051272987528,34.339061261923746,8.76333445653462
-1.64,1.36,-9.15,-0.4232395543587132,-0.5094466310929481,0.4352556315138294,-143.72051272987528,34.375043949019776,8.717364176475899
-1.64,1.36,-9.15,-0.4232395543587132,-0.5094466310929481,0.4352556315138294,-143.72051272987528,34.375043949019776,8.717364176475899
-0.86,2.24,-10.15,-0.0948484472168815,0.5444420963968285,-0.6084489710003051,-143.64697188895283,34.411030131340006,8.648411389524659
-0.86,2.24,-10.15,-0.0948484472168815,0.5444420963968285,-0.6084489710003051,-143.64697188895283,34.411030131340006,8.648411389524659
-1.45,1.8,-9.69,-0.4080014020567966,-0.1107911000773785,-0.1462320041264089,-143.68372432172094,34.351055102879386,8.69437956401469
-1.45,1.8,-9.69,-0.4080014020567966,-0.1107911000773785,-0.1462320041264089,-143.68372432172094,34.351055102879386,8.69437956401469
-1.27,1.56,-9.67,-0.1435473850763708,-0.1923571306227762,-0.0674470666960882,-143.75733722307018,34.27909787153104,8.648411389524659
-1.27,1.56,-9.67,-0.1435473850763708,-0.1923571306227762,-0.0674470666960882,-143.75733722307018,34.27909787153104,8.648411389524659
-1.03,1.66,-9.89,0.0200100630498719,0.0115321449459202,-0.2744246752025248,-143.86802831777294,34.20715457242007,8.556479215940191
-1.03,1.66,-9.89,0.0200100630498719,0.0115321449459202,-0.2744246752025248,-143.86802831777294,34.20715457242007,8.556479215940191
-1.12,1.65,-9.68,-0.0818252993220279,-0.0211667111068976,-0.0762724721603351,-143.94200484154302,34.13522516911611,8.590953131273462
-1.12,1.65,-9.68,-0.0818252993220279,-0.0211667111068976,-0.0762724721603351,-143.94200484154302,34.13522516911611,8.590953131273462
-1.47,1.22,-9.27,-0.2017149253546736,-0.5264505818020803,0.3586681586854539,-144.05324557319378,34.05132504616154,8.636919564056372
-1.47,1.22,-9.27,-0.2017149253546736,-0.5264505818020803,0.3586681586854539,-144.05324557319378,34.05132504616154,8.636919564056372
-1.05,1.84,-9.57,-0.1473756982001095,0.1764808627678701,0.0076635774838056,-144.05324557319378,34.039340850884635,8.579461739762628
-1.05,1.84,-9.57,-0.1473756982001095,0.1764808627678701,0.0076635774838056,-144.05324557319378,34.039340850884635,8.579461739762628
-0.99,1.72,-9.8,0.0032228161137617,0.081039016564405,-0.1919460160039765,-144.1275913572786,33.96744372977673,8.522006076442151
-0.99,1.72,-9.8,0.0032228161137617,0.081039016564405,-0.1919460160039765,-144.1275913572786,33.96744372977673,8.522006076442151
-1.31,1.57,-9.54,-0.2333656215802131,-0.2005954760118318,0.0548346848051881,-144.1648201843402,33.90753998612701,8.464552559408572
-1.31,1.57,-9.54,-0.2333656215802131,-0.2005954760118318,0.0548346848051881,-144.1648201843402,33.90753998612701,8.464552559408572
