acc_x,acc_y,acc_z,lin_x,lin_y,lin_z,eul_x,eul_y,eul_z
9.21,1.97,1.66,0.0267948192983826,0.2813107821611038,0.2473222892507412,-59.53742151899626,50.37729473020999,-54.24571355108697
9.21,1.97,1.66,0.0267948192983826,0.2813107821611038,0.2473222892507412,-59.53742151899626,50.37729473020999,-54.24571355108697
9.22,2.19,1.66,-0.1649267736505835,0.2711728223201455,0.1910707423697974,-59.43183945325738,50.57999179913578,-53.82124003233572
9.22,2.19,1.66,-0.1649267736505835,0.2711728223201455,0.1910707423697974,-59.43183945325738,50.57999179913578,-53.82124003233572
9.17,2.08,1.59,-0.0434554096716555,0.2145118063674671,0.2727370408683072,-59.33950067480581,50.630692516856975,-53.56437169079451
9.17,2.08,1.59,-0.0434554096716555,0.2145118063674671,0.2727370408683072,-59.33950067480581,50.630692516856975,-53.56437169079451
9.12,2.18,1.53,-0.1401947703369992,0.1108596236855483,0.3073997364156966,-59.07590865675504,50.605340832368576,-53.48736790080603
9.12,2.18,1.53,-0.1401947703369992,0.1108596236855483,0.3073997364156966,-59.07590865675504,50.605340832368576,-53.48736790080603
9.26,2.31,1.1,-0.2076386340679354,-0.3930905526785102,0.2099804727610159,-58.85212533574583,50.5039605862624,-53.64140160793269
9.26,2.31,1.1,-0.2076386340679354,-0.3930905526785102,0.2099804727610159,-58.85212533574583,50.5039605862624,-53.64140160793269
9.53,2.38,0.98,-0.219580847709952,-0.6275086132922474,-0.0423965117981364,-58.56288867530428,50.28866780725309,-53.962642188164594
9.53,2.38,0.98,-0.219580847709952,-0.6275086132922474,-0.0423965117981364,-58.56288867530428,50.28866780725309,-53.962642188164594
9.4,2.22,1.44,-0.1391026359206879,-0.1637350258645222,0.0436667828688204,-58.484077048449976,50.187419272308674,-54.14273717736637
9.4,2.22,1.44,-0.1391026359206879,-0.1637350258645222,0.0436667828688204,-58.484077048449976,50.187419272308674,-54.14273717736637
9.29,2.04,1.63,-0.0199822154591968,0.01851226681327,0.1566832639411242,-58.33966779766776,50.06091747705543,-54.41315136848768
9.29,2.04,1.63,-0.0199822154591968,0.01851226681327,0.1566832639411242,-58.33966779766776,50.06091747705543,-54.41315136848768
9.21,1.94,1.93,0.0174413407526272,0.2952493187138687,0.2032587427705117,-58.1822461911917,49.934480858485706,-54.70969624515614
9.21,1.94,1.93,0.0174413407526272,0.2952493187138687,0.2032587427705117,-58.1822461911917,49.934480858485706,-54.70969624515614
9.12,2.01,2.0,-0.1002922855417822,0.2866715648785483,0.2608519259073496,-57.82848630952777,49.69442993487328,-55.14879620852955
9.12,2.01,2.0,-0.1002922855417822,0.2866715648785483,0.2608519259073496,-57.82848630952777,49.69442993487328,-55.14879620852955
9.13,1.99,1.97,-0.090581602970257,0.1781513385582309,0.2589823751937583,-57.50146795059126,49.45461164689416,-55.49811986129514
9.13,1.99,1.97,-0.090581602970257,0.1781513385582309,0.2589823751937583,-57.50146795059126,49.45461164689416,-55.49811986129514
9.07,2.02,2.16,-0.1564221753496588,0.2360964107291084,0.2708914781046552,-56.94018936700064,49.02603833164671,-55.99071256936834
9.07,2.02,2.16,-0.1564221753496588,0.2360964107291084,0.2708914781046552,-56.94018936700064,49.02603833164671,-55.99071256936834
9.29,1.76,1.98,0.14942364335465,-0.0663509552643288,0.1476971517072751,-56.48443354177373,48.66106748213056,-56.38039768350901
9.29,1.76,1.98,0.14942364335465,-0.0663509552643288,0.1476971517072751,-56.48443354177373,48.66106748213056,-56.38039768350901
9.5,1.95,1.76,-0.0099935746028232,-0.4668549250967389,-0.0387573865625086,-55.92583364179144,48.34685890896744,-56.90108617541996
9.5,1.95,1.76,-0.0099935746028232,-0.4668549250967389,-0.0387573865625086,-55.92583364179144,48.34685890896744,-56.90108617541996
9.48,1.37,2.01,0.4906101703905201,-0.2355378632910197,0.0346889084040178,-55.549919093881286,48.20872972254528,-57.37080402823785
9.48,1.37,2.01,0.4906101703905201,-0.2355378632910197,0.0346889084040178,-55.549919093881286,48.20872972254528,-57.37080402823785
10.23,1.13,1.45,0.7478125474915704,-1.096510460293055,-0.5021201111375095,-54.70969624515614,47.95777627551156,-58.720603220456965
10.23,1.13,1.45,0.7478125474915704,-1.096510460293055,-0.5021201111375095,-54.70969624515614,47.95777627551156,-58.720603220456965
10.96,1.31,0.26,0.5506771237547761,-2.536505010796384,-0.9249946566021752,-54.07840095968836,48.070674990989744,-59.94707947928739
10.96,1.31,0.26,0.5506771237547761,-2.536505010796384,-0.9249946566021752,-54.07840095968836,48.070674990989744,-59.94707947928739
9.91,2.4,0.98,-0.9991429088959513,-1.597857338838354,-0.2619678481618468,-53.55153591306849,49.341094211246,-60.51671820753376
9.91,2.4,0.98,-0.9991429088959513,-1.597857338838354,-0.2619678481618468,-53.55153591306849,49.341094211246,-60.51671820753376
8.1,2.75,3.66,-1.8955303644479389,1.6256685723439346,0.8438230837670933,-54.104133233092014,50.605340832368576,-60.609606145201504
8.1,2.75,3.66,-1.8955303644479389,1.6256685723439346,0.8438230837670933,-54.104133233092014,50.605340832368576,-60.609606145201504
8.41,2.12,3.06,-1.2347138542899023,1.0971585221358764,0.759118575609742,-54.52914355096097,50.64336935396991,-61.07470873985765
8.41,2.12,3.06,-1.2347138542899023,1.0971585221358764,0.759118575609742,-54.52914355096097,50.64336935396991,-61.07470873985765
8.68,1.38,2.79,-0.4307452362806285,0.8895740098477911,0.6385522353366628,-55.39455832418957,50.16211368688296,-61.74108139765568
8.68,1.38,2.79,-0.4307452362806285,0.8895740098477911,0.6385522353366628,-55.39455832418957,50.16211368688296,-61.74108139765568
8.81,0.35,2.91,0.6374869515919594,1.00812325246053,0.5988273532284847,-55.92583364179144,49.555559524438046,-62.40977867122138
8.81,0.35,2.91,0.6374869515919594,1.00812325246053,0.5988273532284847,-55.92583364179144,49.555559524438046,-62.40977867122138
9.24,0.11,2.72,0.9034127932818036,0.6195837600460932,0.2364848347992474,-55.97773522242152,48.72395587995984,-63.63292917864976
9.24,0.11,2.72,0.9034127932818036,0.6195837600460932,0.2364848347992474,-55.97773522242152,48.72395587995984,-63.63292917864976
9.66,0.97,2.29,0.0470999107317182,0.0136182947233209,-0.1682282519115432,-55.70539088046685,48.34685890896744,-64.28137325688984
9.66,0.97,2.29,0.0470999107317182,0.0136182947233209,-0.1682282519115432,-55.70539088046685,48.34685890896744,-64.28137325688984
9.66,1.02,2.1,-0.0086893533856962,-0.2447391200920728,-0.1284407020637896,-55.45927852016165,48.058128241744505,-64.53868567478604
9.66,1.02,2.1,-0.0086893533856962,-0.2447391200920728,-0.1284407020637896,-55.45927852016165,48.058128241744505,-64.53868567478604
9.69,0.82,1.94,0.1929668132487023,-0.4436852013145223,-0.0977938133152722,-55.35573541687352,47.90761495262175,-64.64713688163303
9.69,0.82,1.94,0.1929668132487023,-0.4436852013145223,-0.0977938133152722,-55.35573541687352,47.90761495262175,-64.64713688163303
9.56,1.22,1.96,-0.2133375272857058,-0.4071584971422246,-0.0174178467555652,-55.213443709052655,47.95777627551156,-64.53868567478604
9.56,1.22,1.96,-0.2133375272857058,-0.4071584971422246,-0.0174178467555652,-55.213443709052655,47.95777627551156,-64.53868567478604
9.53,1.5,1.94,-0.4862980354303765,-0.4253378002492532,-0.0125710473344433,-55.12294254171616,48.02049166769566,-64.37613024312793
9.53,1.5,1.94,-0.4862980354303765,-0.4253378002492532,-0.0125710473344433,-55.12294254171616,48.02049166769566,-64.37613024312793
9.55,1.52,2.01,-0.4574853291502703,-0.3417712072950789,-0.0537201561085591,-55.25224136431043,48.058128241744505,-64.0109096555285
9.55,1.52,2.01,-0.4574853291502703,-0.3417712072950789,-0.0537201561085591,-55.25224136431043,48.058128241744505,-64.0109096555285
9.34,0.64,2.44,0.4453788692602196,0.1648635185257965,0.1436661087231545,-55.45927852016165,48.070674990989744,-63.6868789211639
9.34,0.64,2.44,0.4453788692602196,0.1648635185257965,0.1436661087231545,-55.45927852016165,48.070674990989744,-63.6868789211639
9.23,1.02,2.57,0.0860568418047731,0.3526525575596326,0.1782321448368176,-55.53696813006854,48.29662147902253,-63.20189622403351
9.23,1.02,2.57,0.0860568418047731,0.3526525575596326,0.1782321448368176,-55.53696813006854,48.29662147902253,-63.20189622403351
9.13,1.18,2.5,-0.0635918204566992,0.3110294476762159,0.2725786365661573,-55.45927852016165,48.43479821318783,-62.82555919288418
9.13,1.18,2.5,-0.0635918204566992,0.3110294476762159,0.2725786365661573,-55.45927852016165,48.43479821318783,-62.82555919288418
9.13,1.31,2.51,-0.143051136486529,0.301785806863541,0.2535582649057701,-55.291045895672944,48.51019892418311,-62.24907679766712
9.13,1.31,2.51,-0.143051136486529,0.301785806863541,0.2535582649057701,-55.291045895672944,48.51019892418311,-62.24907679766712
9.25,1.22,2.3,0.0082463999447663,0.0537074362357921,0.197386370138398,-55.14879620852955,48.51019892418311,-61.821201404862826
9.25,1.22,2.3,0.0082463999447663,0.0537074362357921,0.197386370138398,-55.14879620852955,48.51019892418311,-61.821201404862826
9.49,1.08,1.96,0.2441648006244503,-0.3545871266347236,0.0658722322978242,-54.864572903487776,48.57304992918911,-61.2077995443589
9.49,1.08,1.96,0.2441648006244503,-0.3545871266347236,0.0658722322978242,-54.864572903487776,48.57304992918911,-61.2077995443589
9.55,1.33,1.78,0.0492677398208374,-0.5841304548378816,0.0190985032494541,-54.52914355096097,48.72395587995984,-60.675981620918215
9.55,1.33,1.78,0.0492677398208374,-0.5841304548378816,0.0190985032494541,-54.52914355096097,48.72395587995984,-60.675981620918215
9.61,1.75,1.83,-0.2952317797738311,-0.6115831878531888,-0.1081018476534208,-53.98836120988355,49.1016156188802,-59.68268779789295
9.61,1.75,1.83,-0.2952317797738311,-0.6115831878531888,-0.1081018476534208,-53.98836120988355,49.1016156188802,-59.68268779789295
9.93,1.39,1.7,0.2377583686368787,-0.787492764125832,-0.3299335518971862,-53.436046525616895,49.53031871016275,-58.23470667250937
9.93,1.39,1.7,0.2377583686368787,-0.787492764125832,-0.3299335518971862,-53.436046525616895,49.53031871016275,-58.23470667250937
11.0,0.73,0.33,1.3645600821335164,-2.2049271569837914,-0.9133347021646028,-53.07711975523274,50.04827088645171,-56.640582553149535
11.0,0.73,0.33,1.3645600821335164,-2.2049271569837914,-0.9133347021646028,-53.07711975523274,50.04827088645171,-56.640582553149535
10.32,0.88,1.27,1.158287217934152,-0.8674501153619221,-0.5275457122036808,-53.038696673597066,51.69788502797172,-53.57720819427434
10.32,0.88,1.27,1.158287217934152,-0.8674501153619221,-0.5275457122036808,-53.038696673597066,51.69788502797172,-53.57720819427434
10.86,1.43,0.3,1.0724712494786073,-1.719789209293524,-0.9621303624477076,-53.089928878816565,53.14117252914141,-50.9605066250118
10.86,1.43,0.3,1.0724712494786073,-1.719789209293524,-0.9621303624477076,-53.089928878816565,53.14117252914141,-50.9605066250118
12.22,0.6,-1.18,2.818316742914337,-2.434304365831073,-1.9071048630276763,-53.692769431450216,55.56287082864312,-46.60679955433233
12.22,0.6,-1.18,2.818316742914337,-2.434304365831073,-1.9071048630276763,-53.692769431450216,55.56287082864312,-46.60679955433233
13.89,2.26,-2.57,2.1222750335836813,-3.4253025354280746,-3.919523946975082,-54.33585677451873,59.128599522356026,-42.815165407712406
13.89,2.26,-2.57,2.1222750335836813,-3.4253025354280746,-3.919523946975082,-54.33585677451873,59.128599522356026,-42.815165407712406
12.04,1.31,-0.81,1.5786727383863397,-0.0881972240562456,-2.2280420872428035,-56.05561103021528,64.71495187215974,-38.75612925877516
12.04,1.31,-0.81,1.5786727383863397,-0.0881972240562456,-2.2280420872428035,-56.05561103021528,64.71495187215974,-38.75612925877516
14.01,0.66,-4.95,3.661447674989888,-1.9977368711110457,-4.469940920703538,-57.17496080016431,70.08725387641728,-34.61501807279963
14.01,0.66,-4.95,3.661447674989888,-1.9977368711110457,-4.469940920703538,-57.17496080016431,70.08725387641728,-34.61501807279963
12.89,0.66,-4.15,2.804504832889432,-0.254566302790082,-3.4553313240625414,-57.64529274825973,74.81791076036653,-30.74578979374247
12.89,0.66,-4.15,2.804504832889432,-0.254566302790082,-3.4553313240625414,-57.64529274825973,74.81791076036653,-30.74578979374247
13.5,2.76,-5.19,0.8717504935932401,-0.2989791796096792,-4.888735756320928,-57.2793877763047,81.24917717727452,-25.86464777060069
13.5,2.76,-5.19,0.8717504935932401,-0.2989791796096792,-4.888735756320928,-57.2793877763047,81.24917717727452,-25.86464777060069
12.78,2.59,-5.06,0.4314535119180705,0.7763444736710077,-4.152262462124473,-57.14886216134416,86.03159785221855,-21.88222532220053
12.78,2.59,-5.06,0.4314535119180705,0.7763444736710077,-4.152262462124473,-57.14886216134416,86.03159785221855,-21.88222532220053
12.59,5.66,-6.14,-2.3429407437353817,-0.1715764563725987,-5.117306921371871,-56.44541415515268,92.52254534707764,-16.906223928806188
12.59,5.66,-6.14,-2.3429407437353817,-0.1715764563725987,-5.117306921371871,-56.44541415515268,92.52254534707764,-16.906223928806188
13.5,7.87,-6.84,-4.640243012193997,-0.1716418182177257,-6.6070998419472575,-56.2374309655145,97.16343265081736,-13.714952301602876
13.5,7.87,-6.84,-4.640243012193997,-0.1716418182177257,-6.6070998419472575,-56.2374309655145,97.16343265081736,-13.714952301602876
13.0,7.47,-5.37,-6.03179074799604,2.267976985637226,-4.757400973716388,-57.40999463594625,102.1556405634774,-9.004701785923347
13.0,7.47,-5.37,-6.03179074799604,2.267976985637226,-4.757400973716388,-57.40999463594625,102.1556405634774,-9.004701785923347
11.23,7.63,-4.81,-6.792413739506902,2.8475834379117213,-2.571568133297248,-59.80162063871753,105.27273844868162,-4.378462866761455
11.23,7.63,-4.81,-6.792413739506902,2.8475834379117213,-2.571568133297248,-59.80162063871753,105.27273844868162,-4.378462866761455
10.78,8.82,-6.26,-7.562435881301168,2.667743575081062,-3.188776416967712,-62.40977867122138,106.47054675108936,-1.7877008349543104
10.78,8.82,-6.26,-7.562435881301168,2.667743575081062,-3.188776416967712,-62.40977867122138,106.47054675108936,-1.7877008349543104
7.84,5.51,-4.34,-5.456502581764132,3.8611242072620193,1.6838672606121854,-67.65577312725135,106.1075514891628,0.8021474641450599
7.84,5.51,-4.34,-5.456502581764132,3.8611242072620193,1.6838672606121854,-67.65577312725135,106.1075514891628,0.8021474641450599
5.65,4.88,-4.17,-4.561839647354772,3.1612949860758865,3.301142099548753,-72.20051661196997,104.03523089910144,3.4497269749928665
5.65,4.88,-4.17,-4.561839647354772,3.1612949860758865,3.301142099548753,-72.20051661196997,104.03523089910144,3.4497269749928665
4.77,1.69,-4.88,-1.3116866990313696,4.070497772137071,4.226871698793819,-78.72135037210387,99.60070506032106,5.949975106955117
4.77,1.69,-4.88,-1.3116866990313696,4.070497772137071,4.226871698793819,-78.72135037210387,99.60070506032106,5.949975106955117
2.22,0.06,-4.48,0.5390253411395707,2.3353393433113823,5.418251450051359,-83.22663368427064,95.71869958125956,8.533497036933403
2.22,0.06,-4.48,0.5390253411395707,2.3353393433113823,5.418251450051359,-83.22663368427064,95.71869958125956,8.533497036933403
-1.05,-1.34,-3.65,1.8937042263200896,-0.4648085450292174,6.282669676603562,-88.34165611190303,90.33972471015196,12.342442956629045
-1.05,-1.34,-3.65,1.8937042263200896,-0.4648085450292174,6.282669676603562,-88.34165611190303,90.33972471015196,12.342442956629045
-0.73,-1.86,-5.04,2.448629472097392,0.5176624110829509,4.99724885884658,-91.96044935664196,85.45307732114466,16.049401279911372
-0.73,-1.86,-5.04,2.448629472097392,0.5176624110829509,4.99724885884658,-91.96044935664196,85.45307732114466,16.049401279911372
-2.67,-2.36,-4.94,2.682815486430677,-1.0245272314764369,4.434970093515348,-93.7392599390293,82.18855815257656,18.773754707559725
-2.67,-2.36,-4.94,2.682815486430677,-1.0245272314764369,4.434970093515348,-93.7392599390293,82.18855815257656,18.773754707559725
-4.05,-2.31,-4.53,2.2461675315113405,-1.9791326589675613,4.036271733491621,-95.39470569781707,78.36609695169302,21.78886220109525
-4.05,-2.31,-4.53,2.2461675315113405,-1.9791326589675613,4.036271733491621,-95.39470569781707,78.36609695169302,21.78886220109525
-3.28,-1.54,-6.47,1.7155844880559283,0.0176549501864135,2.592264498304392,-96.40412626430498,75.94744411493038,23.506817731301982
-3.28,-1.54,-6.47,1.7155844880559283,0.0176549501864135,2.592264498304392,-96.40412626430498,75.94744411493038,23.506817731301982
-2.95,0.13,-7.22,0.1577367912088578,1.3705407447082123,2.129115423601545,-97.85869361521178,73.02526419838799,25.0892571067724
-2.95,0.13,-7.22,0.1577367912088578,1.3705407447082123,2.129115423601545,-97.85869361521178,73.02526419838799,25.0892571067724
-4.56,-1.41,-4.96,0.9246392073189864,-1.263672219671021,3.1035555759656632,-99.06954993305422,70.66212462929855,26.029278313836883
-4.56,-1.41,-4.96,0.9246392073189864,-1.263672219671021,3.1035555759656632,-99.06954993305422,70.66212462929855,26.029278313836883
-4.07,-1.5,-5.75,1.0961269292949571,-0.2156909720870491,2.691217254239937,-100.56420761524464,67.79377236455424,27.124302654398623
-4.07,-1.5,-5.75,1.0961269292949571,-0.2156909720870491,2.691217254239937,-100.56420761524464,67.79377236455424,27.124302654398623
-4.52,-1.3,-5.25,0.6101864019967839,-0.6096716894573988,2.811017577845992,-102.31994097048526,64.93213103574271,28.080090858618394
-4.52,-1.3,-5.25,0.6101864019967839,-0.6096716894573988,2.811017577845992,-102.31994097048526,64.93213103574271,28.080090858618394
-7.4,-5.12,-1.45,2.4883258351228097,-6.199049528190045,3.605285675489856,-103.64505914352164,62.90613913443401,28.24548909512887
-7.4,-5.12,-1.45,2.4883258351228097,-6.199049528190045,3.605285675489856,-103.64505914352164,62.90613913443401,28.24548909512887
-9.37,-6.07,1.28,1.9182214823084536,-9.668570443032246,4.410413169306445,-105.5185544187127,61.18117407576951,27.466273808985672
-9.37,-6.07,1.28,1.9182214823084536,-9.668570443032246,4.410413169306445,-105.5185544187127,61.18117407576951,27.466273808985672
-5.0,-4.61,-5.01,3.020867575527143,-2.516454814167526,2.3304200503942623,-106.58549683521667,61.44759380393023,25.8176204619052
-5.0,-4.61,-5.01,3.020867575527143,-2.516454814167526,2.3304200503942623,-106.58549683521667,61.44759380393023,25.8176204619052
0.7,-0.21,-14.9,2.3718412295621123,8.333518259100371,-2.3371114686303027,-107.0468533184743,62.97331556950768,23.8463551666527
0.7,-0.21,-14.9,2.3718412295621123,8.333518259100371,-2.3371114686303027,-107.0468533184743,62.97331556950768,23.8463551666527
-1.02,0.91,-14.83,0.6871915816053611,7.099972593818442,-3.2668176691839417,-107.1625852400296,63.64641513634406,23.144095168471857
-1.02,0.91,-14.83,0.6871915816053611,7.099972593818442,-3.2668176691839417,-107.1625852400296,63.64641513634406,23.144095168471857
-2.92,-0.14,-12.51,0.7072155054322937,4.032410397610606,-2.3706080088506774,-107.20119776385688,63.64641513634406,23.237678334824075
-2.92,-0.14,-12.51,0.7072155054322937,4.032410397610606,-2.3706080088506774,-107.20119776385688,63.64641513634406,23.237678334824075
-6.22,-1.22,-7.42,-0.111580816755954,-1.4436902182103162,0.1559242099272157,-107.23982794355229,63.30956065668752,23.79950985538602
-6.22,-1.22,-7.42,-0.111580816755954,-1.4436902182103162,0.1559242099272157,-107.23982794355229,63.30956065668752,23.79950985538602
-6.71,-1.47,-6.36,-0.1413639498748706,-2.3730857716818567,0.7521991522722988,-107.14328559013715,63.00019289675618,24.54952511022461
-6.71,-1.47,-6.36,-0.1413639498748706,-2.3730857716818567,0.7521991522722988,-107.14328559013715,63.00019289675618,24.54952511022461
-5.48,-1.31,-7.57,0.3630960497882588,-0.743197194939802,0.4062660084780685,-107.1625852400296,62.94644210281149,24.70200146162693
-5.48,-1.31,-7.57,0.3630960497882588,-0.743197194939802,0.4062660084780685,-107.1625852400296,62.94644210281149,24.70200146162693
-5.66,-1.17,-7.13,0.1069842719040129,-1.0843330785958862,0.6932436039136309,-107.29780638051407,62.93300681618901,24.655080942437507
-5.66,-1.17,-7.13,0.1069842719040129,-1.0843330785958862,0.6932436039136309,-107.29780638051407,62.93300681618901,24.655080942437507
-4.56,-1.19,-8.64,0.7223133073924747,0.462218869607161,0.002369444929025,-107.41388301314085,63.05395914548726,24.26814601866472
-4.56,-1.19,-8.64,0.7223133073924747,0.462218869607161,0.002369444929025,-107.41388301314085,63.05395914548726,24.26814601866472
-4.4,-1.34,-8.87,0.9178367057567792,0.5667596438753146,-0.1265699858676203,-107.60770074242588,63.14808734462744,23.858067126010045
-4.4,-1.34,-8.87,0.9178367057567792,0.5667596438753146,-0.1265699858676203,-107.60770074242588,63.14808734462744,23.858067126010045
-4.38,-1.12,-8.73,0.7072769028060336,0.5593050395868366,0.016929000122122,-107.66593345101973,63.1884425474074,23.76437852052494
-4.38,-1.12,-8.73,0.7072769028060336,0.5593050395868366,0.016929000122122,-107.66593345101973,63.1884425474074,23.76437852052494
-4.5,-1.03,-8.76,0.5625290628970809,0.4352209463950421,-0.0697179448071967,-107.8408750363796,63.296099194215,23.40148673707778
-4.5,-1.03,-8.76,0.5625290628970809,0.4352209463950421,-0.0697179448071967,-107.8408750363796,63.296099194215,23.40148673707778
-4.77,-0.59,-8.23,0.0053063341744639,0.0965365556598297,0.2764583683359749,-107.8992703852027,63.33648650708331,23.40148673707778
-4.77,-0.59,-8.23,0.0053063341744639,0.0965365556598297,0.2764583683359749,-107.8992703852027,63.33648650708331,23.40148673707778
-4.61,-0.92,-8.38,0.4183704546235574,0.1365666045359675,0.2082534815588292,-107.99668693087187,63.30956065668752,23.47170516617001
-4.61,-0.92,-8.38,0.4183704546235574,0.1365666045359675,0.2082534815588292,-107.99668693087187,63.30956065668752,23.47170516617001
-4.64,-0.82,-8.6,0.3580319668905709,0.2332304326871903,0.0097414735334506,-108.035685474304,63.32302309417771,23.43659483600268
-4.64,-0.82,-8.6,0.3580319668905709,0.2332304326871903,0.0097414735334506,-108.035685474304,63.32302309417771,23.43659483600268
-4.69,-0.65,-8.63,0.2052666400570875,0.2307790623606535,-0.0320545199485291,-108.13326191007236,63.33648650708331,23.38978453262475
-4.69,-0.65,-8.63,0.2052666400570875,0.2307790623606535,-0.0320545199485291,-108.13326191007236,63.33648650708331,23.38978453262475
-4.67,-1.14,-8.54,0.635853045068891,-0.0123349517231486,0.0273024371999834,-108.211405674282,63.34995089580225,23.261076579429574
-4.67,-1.14,-8.54,0.635853045068891,-0.0123349517231486,0.0273024371999834,-108.211405674282,63.34995089580225,23.261076579429574
-4.46,-0.91,-9.04,0.591053919115157,0.4544220223332743,-0.287182566984514,-108.25050517877196,63.376882602273,23.237678334824075
-4.46,-0.91,-9.04,0.591053919115157,0.4544220223332743,-0.287182566984514,-108.25050517877196,63.376882602273,23.237678334824075
-4.51,-0.7,-9.08,0.3909907406201889,0.4901012123373153,-0.3364968017777787,-108.28962313901592,63.417287490539216,23.17918701849416
-4.51,-0.7,-9.08,0.3909907406201889,0.4901012123373153,-0.3364968017777787,-108.28962313901592,63.417287490539216,23.17918701849416
-4.66,-0.85,-8.75,0.4093550094754319,0.1544974091380403,-0.1336296251809248,-108.3091890496438,63.417287490539216,23.10900551875196
-4.66,-0.85,-8.75,0.4093550094754319,0.1544974091380403,-0.1336296251809248,-108.3091890496438,63.417287490539216,23.10900551875196
-4.58,-1.13,-8.75,0.6827342173829316,0.1189039655445833,-0.1097775742523499,-108.27006185000631,63.44422897307763,23.073918065630973
-4.58,-1.13,-8.75,0.6827342173829316,0.1189039655445833,-0.1097775742523499,-108.27006185000631,63.44422897307763,23.073918065630973
-4.87,-0.68,-8.36,0.1366960423444961,-0.1001102620419008,0.1092177559757452,-108.035685474304,63.59247721166836,23.261076579429574
-4.87,-0.68,-8.36,0.1366960423444961,-0.1001102620419008,0.1092177559757452,-108.035685474304,63.59247721166836,23.261076579429574
-4.95,-0.3,-8.07,-0.2663829417844348,-0.1492054357217231,0.3396453065250142,-107.95770664544784,63.64641513634406,23.366380865675165
-4.95,-0.3,-8.07,-0.2663829417844348,-0.1492054357217231,0.3396453065250142,-107.95770664544784,63.64641513634406,23.366380865675165
-4.65,-0.53,-8.29,0.1039551101711615,0.1235392692767761,0.2881715825208797,-107.8992703852027,63.60596021671415,23.518522416981742
-4.65,-0.53,-8.29,0.1039551101711615,0.1235392692767761,0.2881715825208797,-107.8992703852027,63.60596021671415,23.518522416981742
-4.86,-0.55,-8.14,0.0338305822999427,-0.1124102679248384,0.310971013041442,-107.91874458790814,63.56551415141114,23.612168873737943
-4.86,-0.55,-8.14,0.0338305822999427,-0.1124102679248384,0.310971013041442,-107.91874458790814,63.56551415141114,23.612168873737943
-5.04,-0.79,-7.95,0.1533288990242304,-0.4306310708254539,0.3716488272621952,-107.9771945077934,63.48464854041524,23.62387580431868
-5.04,-0.79,-7.95,0.1533288990242304,-0.4306310708254539,0.3716488272621952,-107.9771945077934,63.48464854041524,23.62387580431868
-4.99,-0.67,-8.07,0.0674631044167977,-0.3047873192502337,0.2999968865448395,-108.05519160220844,63.4577011826531,23.506817731301982
-4.99,-0.67,-8.07,0.0674631044167977,-0.3047873192502337,0.2999968865448395,-108.05519160220844,63.4577011826531,23.506817731301982
-4.63,-1.01,-8.74,0.6035983389489163,0.1295147902362213,-0.1162273530830368,-108.11373745608395,63.52507692958832,23.331277218076693
-4.63,-1.01,-8.74,0.6035983389489163,0.1295147902362213,-0.1162273530830368,-108.11373745608395,63.52507692958832,23.331277218076693
-4.81,-0.8,-8.63,0.3444703786532312,0.0101885118210228,-0.0996225761235418,-108.11373745608395,63.52507692958832,23.38978453262475
-4.81,-0.8,-8.63,0.3444703786532312,0.0101885118210228,-0.0996225761235418,-108.11373745608395,63.52507692958832,23.38978453262475
-4.66,-0.66,-8.52,0.2605089277701359,0.111752728861758,0.0772488660070127,-108.07470230594728,63.6194442055739,23.35467940290321
-4.66,-0.66,-8.52,0.2605089277701359,0.111752728861758,0.0772488660070127,-108.07470230594728,63.6194442055739,23.35467940290321
-4.68,-0.54,-8.57,0.1612931633909616,0.1555416051867293,0.0297030673170102,-108.05519160220844,63.673390007198286,23.366380865675165
-4.68,-0.54,-8.57,0.1612931633909616,0.1555416051867293,0.0297030673170102,-108.05519160220844,63.673390007198286,23.366380865675165
-4.75,-0.56,-8.41,0.1450637758497376,0.0335417846598167,0.1328693817712594,-107.9771945077934,63.6868789211639,23.49511329436541
-4.75,-0.56,-8.41,0.1450637758497376,0.0335417846598167,0.1328693817712594,-107.9771945077934,63.6868789211639,23.49511329436541
-4.84,-0.68,-8.09,0.1756107429687096,-0.2185020239959263,0.3590303139381365,-107.95770664544784,63.63292917864976,23.57704958135869
-4.84,-0.68,-8.09,0.1756107429687096,-0.2185020239959263,0.3590303139381365,-107.95770664544784,63.63292917864976,23.57704958135869
-5.26,-0.96,-7.76,0.2285856059628756,-0.8064681520545941,0.4202684959022545,-107.91874458790814,63.659902079059314,23.600462193143148
-5.26,-0.96,-7.76,0.2285856059628756,-0.8064681520545941,0.4202684959022545,-107.91874458790814,63.659902079059314,23.600462193143148
-5.13,-0.69,-8.28,0.1177587856219263,-0.3544457747823057,0.0489914150141626,-107.86033561317936,63.71385970818783,23.612168873737943
-5.13,-0.69,-8.28,0.1177587856219263,-0.3544457747823057,0.0489914150141626,-107.86033561317936,63.71385970818783,23.612168873737943
-4.62,-0.39,-8.95,0.1375513527211941,0.4688860124302223,-0.2611315596442036,-107.7825204980392,63.83532215478704,23.57704958135869
-4.62,-0.39,-8.95,0.1375513527211941,0.4688860124302223,-0.2611315596442036,-107.7825204980392,63.83532215478704,23.57704958135869
-4.84,-0.02,-8.29,-0.3671055448295651,0.1327474491945632,0.2151062434565442,-107.68535335119316,63.9028359466197,23.694122645249475
-4.84,-0.02,-8.29,-0.3671055448295651,0.1327474491945632,0.2151062434565442,-107.68535335119316,63.9028359466197,23.694122645249475
-4.7,0.02,-8.36,-0.3278490433556469,0.3000058405882632,0.2263310334736914,-107.68535335119316,63.84882293017529,23.79950985538602
-4.7,0.02,-8.36,-0.3278490433556469,0.3000058405882632,0.2263310334736914,-107.68535335119316,63.84882293017529,23.79950985538602
-4.88,-0.11,-8.11,-0.2982904545464952,-0.0194308949072836,0.3457174220217833,-107.80196748253584,63.75433829250864,23.869779338261072
-4.88,-0.11,-8.11,-0.2982904545464952,-0.0194308949072836,0.3457174220217833,-107.80196748253584,63.75433829250864,23.869779338261072
-4.85,-0.33,-8.19,-0.0831447093755406,-0.0562654861932798,0.2831306320160056,-108.11373745608395,63.47117437163232,23.82293200606416
-4.85,-0.33,-8.19,-0.0831447093755406,-0.0562654861932798,0.2831306320160056,-108.11373745608395,63.47117437163232,23.82293200606416
-4.86,-0.9,-8.31,0.4344420868411636,-0.2418929513490692,0.1506442070611431,-108.34833475115198,63.26917919273301,23.729249451725817
-4.86,-0.9,-8.31,0.4344420868411636,-0.2418929513490692,0.1506442070611431,-108.34833475115198,63.26917919273301,23.729249451725817
-4.85,-0.98,-8.51,0.5284546242975475,-0.1921254939596465,-0.0212095586541281,-108.62287531550987,63.04051613304179,23.63558298502357
-4.85,-0.98,-8.51,0.5284546242975475,-0.1921254939596465,-0.0212095586541281,-108.62287531550987,63.04051613304179,23.63558298502357
-4.67,-1.01,-8.47,0.5997310714348227,-0.0977885663280477,0.1009475504989261,-108.7801674720705,62.93300681618901,23.53022735154268
-4.67,-1.01,-8.47,0.5997310714348227,-0.0977885663280477,0.1009475504989261,-108.7801674720705,62.93300681618901,23.53022735154268
