TIME,ELAPSED_SECONDS,PSTATE,acc_x,acc_y,acc_z,mag_x,mag_y,mag_z,gyr_x,gyr_y,gyr_z,lin_x,lin_y,lin_z,eul_x,eul_y,eul_z,qua_w,qua_x,qua_y,qua_z
857186.0,843.104221,1.0,-2.47,1.92,-9.22,-2.69,8.56,51.75,7.31,-0.12,-1.81,-0.001656362702524783,-0.13636990664297688,0.07129687312140476,-140.83973283621526,-34.196982092374135,9.888472702814378,-0.13577827695927697,-0.942173708756622,-0.29401515316258525,0.08618614589679403
857221.0,843.140125,1.0,-2.38,2.11,-9.28,-1.88,8.19,51.75,7.94,1.69,-1.56,-0.07262486779270236,0.03881613768729397,-0.0029432095083929966,-140.83054171289305,-34.17642090863219,9.841904533476248,-0.1365900516976774,-0.9421468261341531,-0.2938436489311236,0.08578126698417513
857255.0,843.198968,1.0,-2.24,2.39,-9.37,-1.88,7.75,50.56,9.63,1.75,-5.88,-0.2112325970499375,0.2970221810248136,-0.11271281289896429,-140.8029526635109,-34.290946854020206,9.654311168512429,-0.13610249712610592,-0.9420660960048401,-0.2947988082073623,0.08415012604718174
857290.0,843.2239,1.0,-2.16,1.85,-9.72,-1.88,7.75,50.56,22.37,0.75,-16.0,0.17553159152550502,0.16401003244004198,-0.31801243237943844,-140.7877657634892,-34.799237673309875,9.762178342703091,-0.12622861875939848,-0.9420216333158197,-0.29903444411285796,0.08508806852434551
857327.0,843.235867,1.0,-2.41,1.24,-9.36,-1.88,8.88,51.38,9.31,1.63,-6.69,0.31642287675373376,-0.34265583247162157,0.07331739787753477,-140.73817257186153,-35.07047548535473,10.02905247810464,-0.12021535956451335,-0.9418763240905524,-0.30129229247561495,0.08740830588240264
857362.0,843.282743,1.0,-2.26,1.6,-9.54,-1.88,9.69,50.56,-0.81,-3.69,2.75,0.11586013069217763,0.016727078193866873,-0.126400721453658,-140.91907949635393,-34.99686771805602,10.012766619617343,-0.1176776464822174,-0.9424055334882581,-0.30067973019094374,0.08726672803204713
857395.0,843.310669,1.0,-2.39,2.07,-9.4,-1.88,9.69,50.56,2.19,-4.25,-1.75,-0.3003941984946024,0.17865082603535476,-0.10469941407413508,-140.76567142780655,-34.98044370191701,10.143310601613162,-0.12073200918358586,-0.9419569181809194,-0.30054303293712187,0.08840153620020126
857430.0,843.352556,1.0,-2.48,1.06,-9.43,-3.0,10.06,51.38,6.75,0.25,-1.88,0.37683847006094423,-0.4095778230563514,0.014350026329738697,-140.80770933442815,-35.0859653264323,10.414470471755724,-0.11573000010230906,-0.9420800187079703,-0.30142118278125474,0.09075833845030151
857466.0,843.398433,1.0,-2.62,1.63,-9.39,-3.0,10.06,51.38,-3.19,2.38,5.5,-0.10884229305119009,-0.16973153668126106,-0.07529032367627764,-140.7975211268842,-34.929595499368695,10.637349483297868,-0.11780134761724063,-0.9420501959950585,-0.3001197836956043,0.09269512478948276
857501.0,843.417383,1.0,-2.7,1.89,-9.51,-3.0,10.06,51.38,-4.44,0.69,8.13,-0.2349478142800394,-0.08585861274652595,-0.2551404879391228,-140.84457031683144,-34.64181609556749,10.73235636225298,-0.1220524498767428,-0.9421878552090028,-0.297723260114459,0.09352061463956665
857534.0,843.452289,1.0,-2.61,3.47,-9.95,-2.25,10.06,51.0,-7.94,-6.13,10.44,-1.1866829220550836,0.8919181869705098,-0.9475010864528031,-140.9426293192379,-34.22346530034902,10.699218280539316,-0.12835537818611037,-0.9424742513426698,-0.2942360400280149,0.09323269381181146
857569.0,843.489189,1.0,-2.78,6.13,-8.06,-1.5,9.69,50.5,21.25,-28.5,-15.75,-3.9067427943616173,2.3137842608632577,0.3381409762473666,-140.36977162778624,-34.51475478937512,11.884408850332301,-0.12721737423074486,-0.9407913797601023,-0.2966645407203596,0.10352521307437916
857606.0,843.532075,1.0,-2.15,4.02,-8.24,-1.88,10.06,51.38,74.81,-24.94,-63.31,-2.055376172366856,2.0460239206352857,0.8473132552261546,-139.0060401196503,-36.228903510072946,13.633374607609518,-0.10887469889120872,-0.9366906473738991,-0.310916169001549,0.11869316289076923
857640.0,843.562993,1.0,-1.87,2.59,-7.06,-1.88,10.06,51.38,89.94,-13.88,-113.75,-1.3662396183746985,1.660082795547274,2.3617783142614677,-136.12625455972545,-39.62435915735974,15.321229149437386,-0.08316544900138455,-0.9275960253548271,-0.33893791914326876,0.1333049466642406
857677.0,843.5979,1.0,-1.68,0.54,-6.66,-1.5,12.69,50.56,87.62,28.37,-140.25,-0.24599567698184527,0.6254804338528179,2.949692923149252,-132.64016597824312,-44.08172551071719,15.445534126413149,-0.049195788193841364,-0.915803425524468,-0.3752677559931907,0.13437995212631967
857712.0,843.642779,1.0,-1.63,-5.74,-7.22,-2.69,15.69,48.5,87.37,49.19,-122.69,3.5760683545259413,-3.5963873745980215,1.9319669603094454,-129.31272534337074,-47.98655138524265,15.31246347619492,-0.011231434522195546,-0.9037568052993312,-0.4066294253890426,0.13322913405669673
857747.0,843.666715,1.0,-1.58,-6.77,-7.69,-2.69,15.69,48.5,29.69,89.44,-45.5,3.7567245288651483,-4.419633577130252,1.2148364627934463,-128.6094694393862,-49.45817650842588,13.011633966455657,0.012620523217257726,-0.9011128542917294,-0.41832825663941675,0.11330408607354538
857782.0,843.706911,1.0,-0.61,-6.43,-11.46,-6.06,19.37,46.06,2.81,79.12,-3.88,4.030446538094351,-3.052095091398466,-2.3378473653348326,-129.07081692055604,-49.55226712382415,10.592640843667851,0.026764014882127856,-0.9028511653439503,-0.41907391324172205,0.09230664106514731
857819.0,843.733837,1.0,-0.71,-5.85,-9.77,-11.0,19.19,45.56,-28.37,29.56,47.25,3.5977508702695613,-3.1226320417510784,-0.5608404295737923,-130.89922051389345,-47.98708900622927,9.384110729531644,0.02434066358546802,-0.9095962100221651,-0.406633711624099,0.08180031406016504
857853.0,843.782741,1.0,-0.84,-3.89,-8.89,-11.0,19.19,45.56,-57.56,23.87,86.5,2.4234465835177077,-2.1032583905872233,0.6102914380875291,-134.06206865570806,-45.13498114156401,7.988422884219834,0.012204846297326785,-0.9207163583959468,-0.38377143451033174,0.06965569009669885
857888.0,843.832575,1.0,-0.84,-1.09,-8.77,-12.5,19.5,46.0,-88.5,31.44,130.13,0.7231195645571481,-0.5624557307317635,0.9767382424385627,-138.71752135503547,-40.822255116887625,5.810620938958082,-0.008283178820273908,-0.935806051060647,-0.3487540726557573,0.05068550633989997
857923.0,843.857506,1.0,-0.51,1.32,-8.35,-12.06,18.0,47.56,-119.75,31.31,153.5,-0.5215615208008477,0.5541381997109921,1.3718468348016,-143.83022932344102,-35.64519406102637,3.058352208591842,-0.04441424334682368,-0.9505976551856544,-0.3060707939497575,0.02668598947818641
857960.0,843.867479,1.0,0.11,4.98,-8.26,-11.38,16.19,48.88,-129.31,53.69,155.75,-2.9115372072688546,2.1779199017717854,0.8724619567497669,-148.18366778574654,-30.36117744381885,-0.5183190439127323,-0.08084857102658001,-0.9617022536184868,-0.2618622249723335,-0.004523171522569319
857995.0,843.915351,1.0,0.66,8.67,-8.14,-11.38,16.19,48.88,-83.12,79.5,110.75,-5.8201522522114715,3.407552575610633,-0.010605889785447076,-150.4694147920153,-26.683774974642482,-4.384683807739666,-0.10119067554761632,-0.9669779496074289,-0.23076114197250108,-0.038254248270967614
858032.0,843.955245,1.0,2.02,6.63,-9.11,-11.75,12.75,47.56,9.25,138.69,11.44,-3.6186510152660056,2.8434650112921886,-0.6742598631402892,-149.69562939181438,-26.76638489991798,-9.236216186185526,-0.09090692598761678,-0.9652349615428591,-0.23146253255643043,-0.08051394814192457
858068.0,843.987158,1.0,2.69,7.39,-9.08,-15.88,11.69,48.06,58.13,165.56,-56.63,-4.454211103500605,3.2549638324216197,-0.8638614167540783,-146.22662338617098,-29.413938769170933,-14.347120542532345,-0.06581701180805773,-0.956881097909218,-0.25387559990681396,-0.12487539866868422
858101.0,844.024063,1.0,3.89,2.19,-11.09,-15.88,11.69,48.06,106.56,172.81,-117.62,-0.19936907480836152,0.536942224306374,-2.1343819914053928,-140.27173861957164,-34.26858160506608,-19.28395112258831,-0.024660588359182053,-0.9405010331180129,-0.2946123026208121,-0.16749105417959617
858136.0,844.047011,1.0,4.28,0.98,-11.32,-22.56,12.25,44.75,70.12,92.75,-103.06,0.3922551321881906,-0.2738926989774071,-2.32563415018042,-135.62303237168598,-38.237458558380006,-21.672844579325545,0.0017683798993438438,-0.925946510352355,-0.3275267735621353,-0.18800570576130357
858171.0,844.101852,1.0,4.23,0.44,-11.62,-29.37,13.25,41.19,62.44,35.06,-91.56,0.3822451463243296,-0.7269058832777289,-2.5398635356086547,-132.3030094830208,-41.743957782463426,-21.90855683884738,0.02069746625860388,-0.914617778635215,-0.3562810740672224,-0.19002560394948195
858208.0,844.12107,1.0,3.56,-1.73,-9.29,-32.25,12.56,39.88,46.88,-28.87,-83.31,1.9160693047789317,-1.673348028350235,0.03428156674389449,-130.16155825187144,-44.88333528110836,-20.269443265284483,0.028929707659833017,-0.9069027194079189,-0.38174264008570513,-0.1759633094870459
858243.0,844.160532,1.0,3.2,-1.42,-9.35,-32.25,12.56,39.88,21.44,-9.13,-41.63,1.3805919785288618,-1.6133681044574988,0.051143393557616434,-129.01991534805617,-46.40540140140766,-19.53612187179987,0.03458068921715047,-0.9026600910490908,-0.39398523362639154,-0.16966016516811377
858279.0,844.207006,1.0,3.26,0.88,-10.39,-32.25,11.5,41.19,2.0,-9.75,-13.31,-0.236888303914216,-0.12575155796353066,-1.1149877195518787,-128.82077746620703,-46.941187253841626,-18.896663615569796,0.03135722719737802,-0.9019108563303316,-0.3982783463208486,-0.16415812617080544
858316.0,844.225148,1.0,2.85,-0.11,-9.12,-32.19,11.38,39.5,14.69,-21.19,-28.06,0.4235779657434069,-0.5944510604543107,0.27899500815329326,-128.2664501978287,-47.97744557976095,-17.784070910133263,0.03404438475482096,-0.8998109235345517,-0.4065568271189677,-0.15457305094200888
858351.0,844.27706,1.0,2.88,0.18,-8.87,-32.19,11.38,39.5,3.88,5.56,-10.5,0.22907592359150308,-0.2691033082969716,0.48576980386539503,-127.92339435869448,-48.29642912000709,-17.768609675202562,0.03851153926189078,-0.8985007898413455,-0.40909846824966734,-0.15443974641889907
858384.0,844.308113,1.0,3.39,0.49,-10.4,-31.87,10.56,39.75,0.06,1.94,-5.13,0.040704076263547606,-0.05703736052353259,-1.1426554536660056,-127.8126889540872,-48.41252085801513,-17.674863028040235,0.04168648847934677,-0.8980762856050941,-0.4100226942889503,-0.1536314163185675
858421.0,844.349188,1.0,2.94,0.8,-9.01,-31.87,11.0,38.19,6.75,-11.06,-9.88,-0.1254512166353387,0.245900482909734,0.29941617807527265,-127.52426808495679,-48.87006055908531,-17.390033140635232,0.03849579491934168,-0.896966388872816,-0.41366113884757,-0.1511748431893337
858458.0,844.374977,1.0,2.79,0.59,-9.02,-32.56,10.56,40.69,-1.81,-0.56,-1.81,-0.023616244322911262,-0.00783323734075414,0.3466298671780361,-127.52221294586106,-48.98574374351595,-17.203242772615106,0.03492464180609677,-0.8969584599211061,-0.41458003179588243,-0.1495633237354621
858490.0,844.43748,1.0,3.1,0.92,-10.04,-32.56,10.56,40.69,5.19,-5.69,-5.69,-0.1300784328124227,0.18038862064257977,-0.7388959577425265,-127.32163599198726,-49.279420310884625,-17.06505845368137,0.03204749500466792,-0.8961832243434996,-0.41691085919016824,-0.14837089323223088
