TIME,ELAPSED_SECONDS,PSTATE,acc_x,acc_y,acc_z,mag_x,mag_y,mag_z,gyr_x,gyr_y,gyr_z,lin_x,lin_y,lin_z,eul_x,eul_y,eul_z,qua_w,qua_x,qua_y,qua_z
698974.0,684.614331,1.0,-2.99,-2.0,-9.14,-5.88,19.56,47.25,1.94,-0.88,-0.44,0.05646432064263249,-0.12290899395125976,-0.014826730090046425,-117.27861395291703,-58.353974925408714,20.97124975408016,0.007490425050351745,-0.8539080278335457,-0.48750901540721786,0.18198882776334013
699011.0,684.649513,1.0,-3.01,-2.08,-8.88,-5.88,19.25,47.25,2.25,-1.56,-1.25,0.029512268091654387,-0.2006545106264117,0.20457903622362217,-117.08276220038519,-58.38754481880167,21.361274796843134,0.00990459068291845,-0.8530173094485352,-0.48776477664527274,0.18533453949216588
699043.0,684.676093,1.0,-3.0,-1.84,-9.01,-5.88,19.25,47.25,-1.94,2.38,0.69,-0.014577635533518277,-0.008850843032514932,0.1337285615141095,-117.21764338547361,-58.30767557883118,21.236535265949044,0.006280849664808101,-0.8536310057520462,-0.4871562027760308,0.1842647308713124
699078.0,684.7178,1.0,-2.93,-2.02,-9.2,-6.25,19.56,48.19,-1.63,1.31,1.94,0.10851255855691981,-0.0526760029780966,-0.056957365631790324,-117.2379910144277,-58.32937237901093,21.120094324866802,0.009356016745776798,-0.8537234828454845,-0.4873215477393907,0.1832658967121637
699113.0,684.762576,1.0,-2.92,-1.82,-9.25,-5.88,20.0,46.88,-1.19,0.75,0.69,0.010818573034361165,0.05994987514920358,-0.06237168256545722,-117.40068765844443,-58.33004257005065,20.72146331880643,0.007955324729639604,-0.8544619477266716,-0.4873266547910104,0.17984500055823685
699146.0,684.781526,1.0,-2.89,-1.9,-9.23,-5.88,20.0,46.88,-0.37,1.63,1.31,0.001809330746353588,-0.005731376832035284,-0.05007176119636014,-117.45341341861645,-58.36838034331717,20.476730608599883,0.011021918239783459,-0.8547008955543393,-0.4876187720738583,0.1777437188147829
699181.0,684.832995,1.0,-2.86,-1.78,-9.43,-5.56,19.56,45.69,-1.56,-1.06,0.0,0.006829545766538395,0.09883046392160355,-0.20649565442377416,-117.57256476484834,-58.381969789885716,20.153945627508794,0.008733293800511922,-0.8552402108673238,-0.4877223046900475,0.1749710398975728
699215.0,684.852971,1.0,-2.94,-2.06,-9.16,-5.56,19.56,47.75,-2.38,-1.44,0.44,0.048094038178508255,-0.19687855971264523,-0.02959551321372622,-117.44180509638458,-58.3928279333812,20.453925367813017,0.009964437266481168,-0.8546483033406084,-0.4878050236591477,0.17754787095282276
699250.0,684.896432,1.0,-2.91,-2.49,-9.16,-5.88,20.0,47.25,-8.63,-10.25,9.5,0.36209291758341033,-0.5001013276288786,-0.10256729407221243,-117.51568787227615,-58.16495690461644,20.826729161335994,0.008483960630543132,-0.8549828840233803,-0.4860681505416318,0.18074856422146238
699285.0,684.926083,1.0,-3.14,-1.63,-8.3,-5.88,20.0,47.25,-24.25,-8.94,18.94,-0.22980152163356535,-0.24754288405503733,0.7904194250197527,-117.98363916695699,-57.617189542227194,20.987948688874535,-0.0022165469523819105,-0.8570937573003552,-0.4818851208647972,0.18213211799539283
699322.0,684.961991,1.0,-3.24,-1.3,-6.86,-5.56,19.56,47.25,4.94,23.87,-7.19,-0.8198780653875642,-0.47536165176052236,2.1679962404732684,-117.96890011128086,-57.76611253781602,20.671416391307766,0.001530273907525174,-0.8570274889726137,-0.48302346634664955,0.17941536267982053
699357.0,684.987121,1.0,-2.52,-2.19,-6.81,-5.56,18.87,46.88,-16.37,91.69,0.81,-0.07480061833845308,-1.128893162379889,2.307143009842041,-118.92548041918769,-57.846002648574334,17.85926598738898,0.012994317207164745,-0.8612989230207866,-0.4836337985221997,0.1552213318153819
699392.0,685.043031,1.0,-1.52,-0.49,-5.89,-5.56,18.87,46.88,-12.25,192.81,-8.63,-0.8222938486561637,0.04883808971106263,3.759828713782288,-120.49292017001031,-57.97916861612174,11.548646889515139,0.0357123719961716,-0.8681681550025881,-0.48465061676576904,0.10061044078210332
699426.0,685.097103,1.0,-0.26,-1.49,-7.84,-9.25,18.37,47.25,-1.0,221.44,-11.94,-0.11682146996542853,-0.3150562726192597,1.8291571426394624,-121.15025851321064,-57.969193001325536,4.474344211554572,0.0708636286504883,-0.871000639334523,-0.4845744684104596,0.03903609839697707
699461.0,685.140209,1.0,1.21,-1.99,-8.35,-16.37,17.25,44.38,2.0,216.5,-13.38,0.32206869204703503,-0.47129080093485803,1.1567449867320914,-120.74232701777629,-57.68429285309208,-2.3332450432565643,0.10624735480499434,-0.8692462225441171,-0.4823981495636821,-0.02035999723134049
699498.0,685.167168,1.0,2.79,-0.28,-9.05,-23.87,18.0,42.06,-14.31,233.0,-16.69,-0.5044176107271202,1.032372324240904,0.40214202466552074,-119.36404072984193,-57.13218914251529,-10.100628259093574,0.13573326935421404,-0.8632371853979487,-0.4781722177516764,-0.08803051463604766
699533.0,685.170161,1.0,5.15,-1.83,-12.83,-23.87,18.0,42.06,18.19,216.19,-39.56,-0.7370837703677248,-0.0957482402046117,-4.119147635681708,-116.04113806635715,-57.23756346236128,-16.87616456525797,0.17186489688286383,-0.8482382811176228,-0.4789796377122987,-0.14674052720042416
699570.0,685.21505,1.0,6.64,-1.21,-15.25,-31.75,16.19,37.0,18.94,43.75,-19.06,-1.3137488738189014,0.7629527047732374,-6.8008232294476,-114.81116456863211,-57.78968777330961,-18.06543271098302,0.1790287663691009,-0.8425048850373017,-0.48320359723470907,-0.15699841757189095
699607.0,685.239115,1.0,6.13,-2.19,-12.82,-36.88,16.5,32.5,45.5,-66.62,-18.44,0.26514923438327476,0.45020037008259717,-4.5618020916584285,-114.47900748316215,-59.148771169606675,-15.067248172483318,0.17898636176429328,-0.8409398954296665,-0.4935531044159562,-0.13110800013155302
699639.0,685.279054,1.0,5.56,-2.97,-11.67,-36.88,16.5,32.5,21.37,-125.94,3.56,1.4012811772423468,0.1837845710769921,-3.3814519973967574,-115.24430629339956,-59.90932536895572,-10.885219835448463,0.16866908562484434,-0.8445350373240736,-0.49931457025444437,-0.0948486700914882
699674.0,685.324565,1.0,4.63,-2.85,-12.66,-37.56,16.5,32.88,-1.63,-175.56,25.87,1.445512661890359,0.6258203004703224,-3.8810759651058877,-116.90660052314098,-60.04490266775493,-5.4960359482060435,0.1452352022255137,-0.8522140113119373,-0.5003393133973795,-0.0479435754525074
699713.0,685.350542,1.0,2.61,-1.19,-9.48,-33.06,17.25,37.0,-0.12,-200.06,34.81,0.9948984996036921,1.4016911161524974,0.05246940958721602,-118.35674330239728,-59.96763135496976,0.3232623367651875,0.11294532386626109,-0.85876654677541,-0.4997553541068975,0.002820992320533166
699748.0,685.383923,1.0,0.89,-2.48,-8.51,-26.19,18.0,39.5,26.31,-155.75,18.5,0.9520320977710939,-0.08825589936081124,0.9495372773887762,-118.48291253535821,-59.90635439915498,5.762266047602945,0.098653900051441,-0.859330159834544,-0.4992921067395901,0.05026406818910554
699783.0,685.424688,1.0,0.1,-2.58,-9.75,-26.19,18.0,39.5,-15.81,-147.25,46.75,1.0074263888378336,0.11686319167970016,-0.22830565837256778,-119.4030898934489,-58.80084287475755,10.298241304298589,0.07400748436977235,-0.863409154581138,-0.4909101617887822,0.08974818714188094
699820.0,685.459052,1.0,-1.14,-0.48,-7.1,-18.69,18.37,42.38,0.94,-136.19,35.94,-0.4522163869374156,0.9252205899113802,2.673665547515239,-119.66415185200393,-57.87751661168208,14.52236177159389,0.049323966419748365,-0.8645562724206953,-0.4838744894124672,0.1263925498218955
699854.0,685.493265,1.0,-2.41,-2.99,-6.66,-13.5,18.75,45.69,2.63,-82.31,30.69,0.13664062567414426,-1.6459598364735788,2.298258324272684,-119.79769834931653,-56.91445117068623,17.463268952741164,0.03782250030180094,-0.8651413472053244,-0.47650254259281094,0.1518065701123074
699889.0,685.527253,1.0,-2.85,-1.85,-6.46,-13.5,18.75,45.69,-30.56,-66.19,52.31,-0.44602480899497454,-0.9477266011145681,2.583113735863103,-120.77046463116807,-55.322350158651346,19.400242316175806,0.017029622105194816,-0.8693675897192374,-0.46424197623207625,0.168491463940623
699924.0,685.555689,1.0,-3.41,-2.3,-4.41,-9.75,19.87,46.06,-29.56,-12.81,53.19,-0.6974477279178497,-2.2980742327606283,4.2750479275851845,-122.28766640739919,-53.6647589451924,19.659311446785207,0.0049031602216666635,-0.8758339980920081,-0.451381894265747,0.17071951363296156
699961.0,685.59499,1.0,-2.65,-1.16,-6.47,-6.75,19.5,47.75,-63.5,56.75,71.62,-0.36800640259722944,-0.7602757871000951,2.769921213468807,-125.2374110820518,-51.53941336157967,17.222309017464635,-0.009315167267708334,-0.8879655807527765,-0.4347550236759788,0.14972783457212582
699996.0,685.634991,1.0,-2.19,1.2,-8.34,-6.75,19.5,47.75,-80.0,55.81,79.31,-1.1072218926068593,1.1649260588510268,1.25044132103816,-128.4385133956633,-49.213898572773495,14.00790612260329,-0.030206484883658402,-0.9004649985804034,-0.41639106856205865,0.12193782277995005
700030.0,685.663177,1.0,-2.23,3.22,-6.61,-6.38,18.0,47.19,4.44,82.19,16.12,-2.9739381225518913,2.050985703403165,3.025606592996297,-129.78069634961176,-48.67080835299138,11.348778555026795,-0.022147350200582065,-0.9054973271701506,-0.41207745381649097,0.09887495852299474
700065.0,685.719816,1.0,-1.64,-1.71,-5.3,-8.25,15.75,48.5,4.44,148.88,13.5,0.18085632739858437,-1.7715593803668623,4.281021678200379,-131.16116404404494,-48.28173494925394,6.92201062268039,-0.0002690402588958,-0.9105436042575972,-0.40898145550512416,0.06036920917018571
700102.0,685.774523,1.0,1.73,1.56,-10.35,-11.56,16.37,46.88,-33.88,256.63,29.06,-0.3461820150607611,2.1422842889053535,-0.5779432052227147,-132.69378139553282,-47.182745117811734,-2.1291096313669,0.021118538254223874,-0.9159912395400008,-0.4002110446360837,-0.018578917602283515
700137.0,685.800452,1.0,4.04,1.4,-16.46,-11.56,16.37,46.88,12.94,209.94,-5.81,-0.5752805314586875,2.01670464787772,-7.069817482069611,-131.53031011286177,-47.115894059152964,-9.065195393402142,0.050055817167295284,-0.911870649131027,-0.3996763486335673,-0.07902626629173846
700174.0,685.814734,1.0,3.4,-2.39,-12.59,-21.25,14.56,43.88,35.19,29.69,-13.06,1.6789296542901275,-0.7593869665359274,-3.3228864217858263,-130.6924510606668,-47.570061969326076,-9.542136267776879,0.06653418733806546,-0.9088450118298191,-0.40330624149790356,-0.0831746473160767
700209.0,685.847685,1.0,3.4,-1.43,-11.94,-26.19,15.25,41.38,-3.75,8.69,13.31,1.0376950466454902,-0.014234911643530523,-2.6469232365236426,-131.0421952034437,-47.03398197906994,-9.984158327296084,0.07001981890981493,-0.9101139086131791,-0.39902100437059934,-0.08701802330412234
700243.0,685.876033,1.0,4.49,1.93,-16.29,-26.19,15.25,41.38,6.13,-63.94,-6.06,-0.7766428741297866,3.1239399659544524,-6.8932579319371055,-131.18158954042238,-47.47488377018836,-8.112287224471121,0.061070028583183535,-0.9106172790475826,-0.4025460618017698,-0.07073394402061776
700278.0,685.913059,1.0,3.47,-0.21,-12.83,-26.56,14.88,41.06,75.0,-120.56,-48.75,0.8734838023270735,2.043717498217259,-3.298850556428695,-129.56316305301323,-49.628794147718324,-3.6927137694044374,0.06607740829069376,-0.9046901334258479,-0.4196801722054139,-0.032219429745737015
700315.0,685.95307,1.0,2.98,-2.18,-13.26,-25.06,16.37,42.25,45.38,-164.0,-21.56,2.423570648299663,1.2913027853124261,-3.681094156431225,-128.64798959932844,-50.77506823762157,1.9355698296704686,0.06025749941129349,-0.9012585536320983,-0.42873858398671716,0.016890230038121217
700352.0,685.983281,1.0,0.96,-0.7,-11.0,-21.0,17.56,43.06,65.5,-211.31,-32.19,0.9822243933864929,2.074055411672443,-1.0167103557466763,-126.47368662923753,-52.26277791619854,9.123127156161532,0.04968533804622102,-0.8928755648990854,-0.44043107983859886,0.07953022508190064
700385.0,686.030782,1.0,-1.77,-3.99,-6.5,-21.0,17.56,43.06,26.19,-196.25,11.63,1.473866305199728,-2.307059355965974,2.4712430417974227,-125.06804380109146,-52.038052138487096,15.956432263740268,0.03209485692684234,-0.8872848604260882,-0.43866958295296715,0.13879659076999182
700424.0,686.074648,1.0,-3.02,-2.74,-7.07,-12.0,20.19,44.69,10.25,-113.56,58.44,0.2817621995038362,-1.4988867637271601,1.788742010227713,-125.50224314072068,-50.04511615784751,20.080609285993926,0.01816429439841218,-0.8890261042410594,-0.4229750539078214,0.1743408964031338
700459.0,686.094672,1.0,-3.96,-2.47,-4.44,-5.25,20.56,46.5,-8.88,-90.0,78.37,-0.45980947595401,-2.542040530632998,3.905573387512918,-126.58717457998624,-47.42336994198266,23.15133564595494,0.00024811002643132036,-0.8933210936454629,-0.40213450963921843,0.2006619003366464
700493.0,686.137074,1.0,-4.14,-4.42,-1.87,-5.25,20.56,46.5,-65.62,6.38,143.44,0.8527725306111873,-5.089899525390625,6.127166091560763,-130.9925369811323,-43.00441508148565,22.198378433624427,-0.024715429272509585,-0.9099342611678053,-0.3665370743752046,0.1925080803949319
700526.0,686.166069,1.0,-2.9,0.21,-3.07,-0.75,20.19,47.25,-108.37,80.87,196.0,-1.1844686259325514,-1.251250243664812,5.94525039598202,-137.838883370294,-37.04219229975355,18.186491853302332,-0.059065632693731066,-0.9330756357408546,-0.31765380507434543,0.15804166900877537
700563.0,686.202273,1.0,-1.63,4.84,-3.11,1.5,18.25,48.19,-85.81,242.13,161.63,-4.343497204237147,1.6016574059801532,6.022033032504742,-145.43049752609144,-32.32939964804395,8.801449074238672,-0.06990544192554105,-0.954839909371129,-0.27839941205984653,0.07673163640937605
700600.0,686.22798,1.0,0.95,3.64,-6.77,-3.75,14.88,49.38,-7.0,331.06,92.56,-2.1348085953511644,2.1285480202541223,2.672445378131701,-149.57402032215825,-29.766882387289684,-2.8521150738408285,-0.04759058322452645,-0.9649570273321033,-0.25685349423350273,-0.024886829665094663
700635.0,686.279756,1.0,4.43,3.31,-15.12,-3.75,14.88,49.38,10.88,291.38,49.31,-1.0124876181007436,1.8666302620335178,-6.152233428612833,-148.5270185726492,-28.408562740787666,-13.036050502739593,-0.021440080586842755,-0.9625192103436783,-0.24537982603777025,-0.11351578585150675
700672.0,686.313176,1.0,4.29,1.73,-13.6,-16.5,14.5,46.0,9.88,59.06,23.5,-0.06640690140313482,0.8553503943668113,-4.532839733819074,-148.18471317007712,-27.650465704110246,-15.353997545403333,-0.01325531390800105,-0.9617047540764768,-0.23896111842341985,-0.13358834725278979
700706.0,686.343525,1.0,3.48,1.98,-9.84,-22.56,16.5,42.38,-3.5,27.0,30.19,-0.6222875640831427,1.0398828332875087,-0.7473919688677277,-148.42364497295125,-26.613769601953233,-16.61712121416232,-0.013051124680643053,-0.9622741557089958,-0.23016667508012878,-0.14450404520866503
700741.0,686.397017,1.0,3.89,1.4,-10.88,-22.56,16.5,42.38,3.38,37.5,14.63,-0.13839527402249605,0.5391161191725697,-1.8190414012963796,-147.9228463026936,-26.131575135826544,-18.24528440142858,-0.009384692558100463,-0.9610758933622554,-0.22606968693954188,-0.15854826202324102
700776.0,686.417988,1.0,4.1,0.89,-11.46,-25.19,16.06,42.69,-4.5,34.44,14.56,0.19747464277530555,0.030239249832836546,-2.3955542825560983,-147.47917495209649,-25.558965123820574,-19.7603329482054,-0.005509570453848545,-0.9599989844148828,-0.22119928551114995,-0.1715880842167207
700813.0,686.458056,1.0,3.21,1.11,-9.64,-26.25,16.75,41.19,2.19,-8.81,9.13,-0.19828943411655522,0.04366821618482675,-0.4121842968859717,-147.9423466334196,-25.326345421827934,-19.30653787979545,-0.008207913462563068,-0.9611228954677968,-0.21921912688768846,-0.16768537315696067
700848.0,686.480561,1.0,2.79,0.74,-8.8,-26.25,16.75,41.19,2.38,-0.81,5.56,-0.014832311689302977,-0.11990495375001253,0.546136903815956,-148.3480614222578,-25.149775772150686,-18.891274808442656,-0.006442717840066956,-0.962094483785039,-0.21771548680776664,-0.16411173773161283
700882.0,686.553473,1.0,3.19,0.57,-9.74,-25.56,16.37,41.5,-3.06,11.19,10.13,0.15952751827480519,-0.17780222198665885,-0.455490972563652,-148.52455971292414,-24.729251969853827,-19.1635014536542,-0.0028582530296275446,-0.9625133905312779,-0.2141322956197425,-0.16645468876009864
700917.0,686.563025,1.0,3.05,1.62,-9.42,-24.75,16.37,41.5,-2.38,5.0,8.13,-0.7804677204708586,0.1863779825979317,-0.1943216220428159,-148.57338762379075,-24.50193069227309,-19.362546543030703,-0.006251879923686198,-0.9626288770863268,-0.21219413697384842,-0.1681672002230543
700954.0,686.594907,1.0,3.07,1.06,-9.14,-25.87,17.56,40.56,-3.63,14.13,9.0,-0.2132875537596199,-0.03144151936860329,0.10914414280810902,-148.43661318025494,-24.23938537226174,-19.881205671114454,-0.009387452372744068,-0.9623049407488593,-0.20995461677684404,-0.1726271578934568
