TIME,ELAPSED_SECONDS,PSTATE,acc_x,acc_y,acc_z,mag_x,mag_y,mag_z,gyr_x,gyr_y,gyr_z,lin_x,lin_y,lin_z,eul_x,eul_y,eul_z,qua_w,qua_x,qua_y,qua_z
916477.0,902.506927,1.0,-5.73,-0.91,-7.91,11.0,20.06,45.25,-1.75,-0.75,1.63,-0.04129019439962711,-0.0035631807767235735,-0.002905669019327206,-121.2264338009913,-44.73463769122215,34.944452113568644,-0.07635531418964832,-0.8713270288468749,-0.3805429591116411,0.30024345299512084
916512.0,902.530861,1.0,-5.68,-0.46,-8.05,10.56,19.69,44.88,0.25,0.31,-0.37,-0.23793882264142574,0.35167750631015915,-0.047090814951216586,-121.38629258623126,-44.64379386283442,34.73346670642446,-0.07904150102453003,-0.8720107263860205,-0.3798097224912907,0.29848669800278005
916549.0,902.569759,1.0,-5.72,-1.24,-8.03,10.56,19.69,44.88,2.88,-0.63,-2.44,0.2101615582207192,-0.16735167057267253,-0.12636190665765845,-121.20683792671643,-44.80815923244693,34.9253180418936,-0.07496756358219266,-0.8712431028601412,-0.38113620559075745,0.3000841763856657
916584.0,902.606663,1.0,-5.74,-0.88,-8.01,11.38,20.06,45.69,-1.0,1.5,-1.88,-0.02203196472561686,0.011796342109585467,-0.08685673112638881,-121.31759494113307,-44.77319620611173,34.711614465935824,-0.07793407216468283,-0.8717171223642183,-0.3808541079279799,0.29830468894614953
916621.0,902.634584,1.0,-5.75,-0.93,-7.86,10.56,20.06,46.06,-0.63,2.75,-0.12,-0.032647474335499194,-0.057991433186828534,0.02388090653282937,-121.15422401064531,-44.77131703957386,34.96120835065299,-0.07784641919302454,-0.8710176398648485,-0.3808389449499719,0.3003829290630301
916654.0,902.677471,1.0,-5.7,-0.78,-8.23,10.56,20.06,46.06,-1.63,-2.81,0.63,0.04024201368953284,0.1883424559804494,-0.23298185080057898,-121.32743132308511,-44.74429689454743,34.68205083676772,-0.07952876644773073,-0.8717591808902271,-0.3806209083196112,0.298058433852922
916688.0,902.705837,1.0,-5.78,-1.25,-8.28,11.69,19.69,44.75,1.81,-5.25,-0.31,0.2908464131259012,-0.10157688071164062,-0.3636199325670173,-121.15913044573247,-44.84737861706872,34.90742623481935,-0.07631774224774689,-0.871038672856265,-0.3814526032718776,0.2999352331156023
916723.0,902.750716,1.0,-5.95,-0.94,-7.93,11.38,19.0,46.06,2.38,-2.56,-4.13,-0.12098310769430654,-0.06459006272427015,-0.1508693302071915,-120.82324400103647,-44.88499933749551,35.347492247336476,-0.07678429162880024,-0.8695951038592693,-0.3817560619342999,0.3035965037339278
916758.0,902.772657,1.0,-5.67,-1.23,-8.54,10.56,20.5,46.5,-3.88,-5.81,-1.94,0.44706263141434915,0.15707300434717597,-0.5068781584382318,-120.744480557439,-45.082366820820674,35.247021190724524,-0.07599604820299914,-0.8692555133513512,-0.38334740522477945,0.30276099496671505
916793.0,902.823522,1.0,-5.75,-0.95,-7.62,10.56,20.5,46.5,-0.37,-23.62,2.44,0.016872875187832093,0.012922151327157128,0.21347803635377538,-120.1121457857648,-44.8718340269944,36.304614633543515,-0.08022850259948978,-0.8665143172812874,-0.38164987174274295,0.3115440590284716
916828.0,902.843468,1.0,-6.23,-0.26,-5.82,11.38,19.69,44.88,4.81,-10.5,-8.94,-1.3891946521176601,-0.5104682024113223,1.40650354694011,-119.53438570487162,-44.988065591537065,36.97845873894507,-0.08114788371097464,-0.8639866347167039,-0.38258721067467,0.3171263821070563
916865.0,902.887351,1.0,-5.68,-1.55,-4.87,13.19,19.69,44.88,2.38,27.5,-1.94,-0.6061451436720515,-1.6514869445623694,2.371128569949324,-119.89399512752833,-45.100939945863374,36.453442023033546,-0.0768212545311954,-0.8655624997883009,-0.383497098970558,0.3127779226442412
916897.0,902.924254,1.0,-4.94,-1.96,-3.03,13.19,19.69,44.88,5.56,80.31,3.88,-0.7194652353200022,-2.613891294771915,4.3224871583001345,-121.5685144006679,-45.13210159477049,34.23866355465412,-0.0657947614589728,-0.872787998201831,-0.3837482297614083,0.2943627960771926
916934.0,902.958164,1.0,-4.2,-0.74,-3.46,11.0,19.69,46.5,-17.62,236.19,10.19,-1.4003233387033867,-1.7178268427008758,4.781974340260464,-126.25273565604641,-45.420132354548294,26.701115215529995,-0.044256700359536015,-0.8920056480648345,-0.3860681151810491,0.23090837735836456
916971.0,902.993084,1.0,-2.0,-1.28,-6.53,7.19,20.75,47.69,-34.25,308.31,11.38,0.3799078049028288,-0.6421701932716903,2.8984963029078967,-131.19248031549046,-45.71243571800541,16.094972056936005,-0.015373888822617974,-0.9106565502607219,-0.3884199196696514,0.139993774909931
917006.0,903.022988,1.0,0.14,-0.62,-7.25,7.19,20.75,47.69,-44.19,346.31,20.25,0.5445921389850706,0.2046600293538844,2.552131844082229,-134.57240967331447,-45.19925132212253,4.007788501299235,0.013927299866585516,-0.9224451477251713,-0.384289290906579,0.034967422713609926
917039.0,903.074853,1.0,4.17,0.85,-11.41,-4.75,20.06,47.25,-67.0,364.0,26.56,0.7812293749190751,2.2199648151817724,-2.1416108308957877,-134.9054139066606,-43.86218038838855,-8.97046554492094,0.03767626159140991,-0.9235633434990951,-0.3734911959498048,-0.07820215089914448
917075.0,903.093798,1.0,6.61,2.33,-15.64,-18.19,18.56,44.06,-17.87,280.5,1.37,-1.0625408387169182,2.1941765173984615,-7.1576418029770945,-131.9464277707447,-43.190422497797925,-18.645770004307636,0.06387836747119986,-0.9133552060385056,-0.3680468411695804,-0.16199797676720204
917112.0,903.138678,1.0,7.13,-0.39,-14.27,-28.69,15.19,38.25,22.44,105.56,-18.56,0.6665500030451854,0.29644717590029623,-6.133542287589924,-129.53304969483264,-43.634002680240314,-22.094471344028097,0.08307886408275636,-0.9045781358036348,-0.3716433282043956,-0.19161820156211629
917147.0,903.164527,1.0,6.51,0.0,-13.17,-28.69,15.19,38.25,-1.19,3.44,-2.81,0.25234632544470026,0.36839188860617833,-4.877682083838332,-129.2243181803724,-43.69175732834462,-22.585905802517342,0.08370512176857617,-0.9034262994874046,-0.3721111863494669,-0.19582553198649696
917184.0,903.204423,1.0,6.64,1.58,-15.05,-34.06,16.0,35.88,-2.44,-125.62,-1.69,-0.3355240881872015,1.830119578192571,-6.613660165029236,-131.00279936450698,-44.186120576181416,-18.64273949302067,0.06524487495289634,-0.9099714011727036,-0.37611203847064945,-0.1619718798360386
917219.0,903.243361,1.0,5.92,2.29,-14.01,-33.56,16.0,36.19,23.94,-289.56,-10.19,0.7675773219739139,4.026569519169744,-5.017929689221695,-133.4864746416018,-45.27599275262167,-9.252104926240841,0.03535256241713188,-0.9187446117296898,-0.3849074759259284,-0.08065215263422962
917254.0,903.265258,1.0,1.56,0.46,-6.34,-33.56,16.0,36.19,74.25,-254.75,-38.94,0.5336261128063632,1.4744450982082933,3.451962373995027,-132.83951787364555,-47.07021211903876,-0.44241413169794036,0.02371290420012038,-0.9165007388377365,-0.39931089172015594,-0.0038607820364395724
917288.0,903.315125,1.0,0.12,-0.45,-7.54,-25.56,16.0,41.88,25.31,-190.31,-21.87,0.5936572564862763,0.5627302617723893,2.2966962242230293,-131.6125561279643,-47.90776362834185,6.304357862156855,0.009711004612012466,-0.9121650271469497,-0.4060011856955236,0.0549881519352925
917325.0,903.351062,1.0,-1.85,2.72,-6.93,-16.25,18.56,44.75,46.5,-108.75,-61.63,-2.717601210614516,2.083645798917109,2.942331836866707,-128.8157962426814,-49.95555574748923,10.411605743058702,0.006995445129073914,-0.9018920800888293,-0.4222667191493496,0.09073344212215986
917362.0,903.371977,1.0,-1.95,-1.64,-8.03,-11.75,17.5,44.75,72.12,-84.31,-91.69,0.052869925342830304,-0.4651906510153395,1.3951220514521179,-124.82116420656324,-52.87744530447917,14.463471073093347,0.02015114435176031,-0.886289131439309,-0.44524043343839054,0.1258827363281546
917395.0,903.415857,1.0,-2.86,-4.17,-6.42,-11.75,17.5,44.75,31.5,-38.88,-56.06,0.6123793665582775,-3.0951865564709284,2.26810161904128,-122.40091472586604,-54.6889656745392,16.397889369646784,0.027375991469147036,-0.8763105256093765,-0.4593393137010839,0.14261070326562722
917432.0,903.46074,1.0,-2.04,-3.14,-9.98,-11.0,20.19,44.38,24.75,-12.94,-34.88,0.8327929942280431,-0.6243565859950511,-0.8017539648897838,-120.94893675880316,-55.800280883488604,17.26814577790866,0.036955105323655285,-0.8701361802566844,-0.4679319805197142,0.15012331466405235
917469.0,903.490657,1.0,-2.2,-4.29,-9.28,-10.69,20.87,45.19,30.0,-33.0,-32.81,1.2297935198450158,-1.520267927132301,-0.4665624152224179,-119.30182724675281,-56.81357605010823,18.912630900225853,0.04454550724846992,-0.8629629954618073,-0.47572842067782534,0.16429557512892157
917504.0,903.529907,1.0,-2.6,-5.32,-8.07,-10.69,20.87,45.19,-2.0,-11.25,12.94,1.4347825673615473,-2.8625779530057613,0.3232778968206258,-119.49007865305445,-56.40952641909336,19.45366769853951,0.0441096835233278,-0.8637918851728844,-0.47262402924360575,0.16895100446722944
917536.0,903.561791,1.0,-2.37,-5.81,-8.69,-9.5,21.69,45.56,-5.38,13.63,46.38,2.0400589702843135,-2.924658916921797,-0.3014472303115685,-121.0780402164076,-54.84624391383531,19.184767301211878,0.044895792932732964,-0.8706908489813531,-0.4605580289974618,0.16663767642116578
917573.0,903.589715,1.0,-1.77,-4.63,-8.35,-7.69,21.25,45.19,-58.13,34.06,106.81,2.120627736226857,-2.067272203790223,0.5588597969416664,-125.0473363851217,-51.515383675103195,17.452688117290116,0.03175229074531262,-0.8872015002518352,-0.43456617032803974,0.1517153044018276
917610.0,903.649557,1.0,-1.82,-0.96,-8.51,-7.69,21.25,45.19,-89.81,52.63,135.19,0.07876007992238038,0.08132920566037838,1.052149305493355,-130.35749954782534,-47.2798310487402,14.255516347665019,0.005945590483762936,-0.9076218470231534,-0.4009873261602759,0.12408221878622158
917645.0,903.662713,1.0,-1.0,2.63,-11.5,-8.75,20.87,46.0,-96.56,38.31,123.81,-1.2481298675355426,3.0127950375946444,-1.574568647192871,-134.90671531160385,-43.38390186386252,11.400559863390287,-0.02326313642059168,-0.9235676981963854,-0.36961622653668524,0.09932461131506555
917680.0,903.710588,1.0,-1.21,3.26,-10.05,-8.75,19.37,46.38,-59.75,-8.75,81.06,-1.7147008391572962,2.6554173059619997,-0.3473029230438538,-137.41531045879384,-40.73710617315646,10.621814525875667,-0.04636361176762648,-0.9317397528878152,-0.3480575655838644,0.09256013954315245
917716.0,903.733991,1.0,-1.62,2.41,-8.99,-7.25,17.19,46.75,-19.56,-13.88,35.5,-1.32247516720406,1.530661607667161,0.5783926089785307,-138.40779763582458,-39.503940630076315,10.607440080353253,-0.05746236971997514,-0.9348498382695445,-0.3379490834205329,0.09243523661890567
917749.0,903.775885,1.0,-1.44,1.63,-10.31,-7.25,17.19,46.75,-2.81,-3.69,18.87,-0.33790783515540734,1.2546863293941717,-0.6498398751814403,-139.06383519917418,-38.81499513398124,10.336486852204374,-0.061257129177242346,-0.9368671329484858,-0.332284556543626,0.0900805906311266
917786.0,903.826741,1.0,-1.92,0.77,-9.26,-6.19,16.06,48.0,-7.06,-17.5,16.0,-0.005731739937270691,0.19238342071528092,0.32035168260605573,-139.4237455763149,-38.19781911496584,10.574872759096902,-0.06839375162328933,-0.9379608062186865,-0.32719991482958416,0.09215224615817195
917823.0,903.843731,1.0,-2.01,1.56,-9.6,-6.19,16.75,48.0,-10.13,-3.0,9.0,-0.498443407759986,0.576917176109217,-0.09549222990009376,-139.63587509413676,-37.86430035917373,10.356902907887163,-0.07493224829967558,-0.9386010790161172,-0.3244482407310942,0.09025802856829074
917856.0,903.875613,1.0,-2.0,0.82,-9.67,-6.19,16.75,48.0,5.31,3.69,-3.25,0.01495593032158915,0.08414538165245433,-0.10162915810282591,-139.73314203693909,-37.96720751871751,9.932743007816779,-0.07187340599933957,-0.9388935854648937,-0.3252975636071274,0.08657103322819608
917891.0,903.915755,1.0,-1.98,0.29,-9.64,-4.69,16.25,48.5,6.0,4.31,-3.56,0.3272919353320272,-0.19478051101079397,-0.0314921285523706,-139.7142479075902,-38.12886887197748,9.94436229161132,-0.06622231797136041,-0.9388368189420626,-0.3266312719863759,0.08667204948431102
917925.0,903.962484,1.0,-2.06,0.43,-9.54,-5.06,15.56,48.5,-3.06,5.81,2.19,0.10342756997616714,-0.16792612991055633,0.039296031157562084,-139.78637751491706,-38.121397086497026,9.924713292031623,-0.06362808771200756,-0.9390533916728172,-0.32656964396193183,0.08650122360099198
917962.0,903.980433,1.0,-1.93,0.75,-9.87,-6.25,15.19,47.19,-1.31,-4.0,-1.12,0.01548719477007815,0.11747488698577768,-0.2775088542488682,-139.80015344856517,-38.126050146487316,9.675808480633563,-0.06569308334906132,-0.9390947122855906,-0.32660802302330644,0.08433705860500838
917995.0,904.022608,1.0,-2.0,0.02,-9.47,-6.25,15.19,47.19,4.13,-10.81,-5.06,0.4384538523200587,-0.3225685702177514,0.14305813481377605,-139.54740214718703,-38.306451804508846,10.262639170919963,-0.0623096559743514,-0.9383344310432179,-0.32809558424604235,0.08943874937300168
918032.0,904.061505,1.0,-2.29,0.25,-9.1,-4.75,16.0,47.56,-2.06,-3.13,2.75,0.03967088270442265,-0.37945792475487206,0.4273622922683433,-139.49579085397914,-38.237739975722825,10.703372833854914,-0.0620201483425846,-0.9381786218118453,-0.32752909393185065,0.09326879115208474
918067.0,904.083447,1.0,-2.26,0.61,-9.33,-4.38,15.56,47.56,-3.19,3.31,2.0,-0.12119105892929427,-0.09536073733984352,0.18870744158296482,-139.45779872353884,-38.16678960466098,10.85073837434324,-0.06484108184625575,-0.938063805832553,-0.3269440245201793,0.09454911486895022
918099.0,904.126944,1.0,-1.94,0.55,-9.83,-4.38,15.56,47.56,0.0,10.06,0.88,0.11827559175989683,0.08825226741566161,-0.22695465743442966,-139.7020494710415,-38.17279835408937,10.183732336899144,-0.062067629145687614,-0.9388001557545579,-0.3269935786004558,0.0887528958486362
918136.0,904.166127,1.0,-1.94,0.49,-9.65,-5.06,16.0,48.0,2.63,-2.88,0.56,0.06573915502715161,0.03900554551720592,-0.048316105010977495,-139.79701831208143,-38.1697323908872,10.116570278768789,-0.05862360301341569,-0.9390853097049088,-0.326968293753169,0.0881690940539955
918173.0,904.197255,1.0,-1.9,0.25,-9.77,-5.5,16.0,48.75,1.44,0.75,1.75,0.2217419416223213,-0.04739875471657995,-0.14694150605332368,-139.90940368726487,-38.147262040350405,10.070661520511502,-0.05473351447155782,-0.9394219253356033,-0.3267829747379521,0.08777001773814926
918206.0,904.231492,1.0,-1.98,0.44,-9.72,-5.5,16.0,48.75,-1.31,1.5,1.37,-0.0491766550612418,-0.019507991616301235,-0.12257963249717996,-140.03555385057842,-38.139907882782026,9.824971129074838,-0.05193990696952933,-0.9397986927342726,-0.3267223202960346,0.08563403890582366
918239.0,904.269894,1.0,-2.12,0.7,-9.67,-4.75,16.25,48.5,-1.69,0.56,4.0,-0.2675380611201205,0.011723640764593757,-0.11411539094133083,-140.10684419598127,-37.97052092924179,9.89215454409839,-0.05576065114914443,-0.9400111089525832,-0.325324905797214,0.08621815642422338
918276.0,904.308493,1.0,-2.13,0.7,-9.45,-5.5,16.0,47.56,3.19,-5.44,-2.5,-0.2391986579644677,0.023053447228883694,0.09729098199068176,-139.91550690921454,-38.003173364304466,10.282324088199758,-0.05839992681806134,-0.9394401797842546,-0.32559433841535357,0.08960984291047892
