TIME,ELAPSED_SECONDS,PSTATE,acc_x,acc_y,acc_z,mag_x,mag_y,mag_z,gyr_x,gyr_y,gyr_z,lin_x,lin_y,lin_z,eul_x,eul_y,eul_z,qua_w,qua_x,qua_y,qua_z
568885.0,554.342183,1.0,-4.94,0.94,-8.36,11.0,11.75,50.25,2.25,0.81,-0.19,0.027966309134686562,0.045458633921310554,0.05093621790514824,-118.31161725753303,-51.70399820056569,24.75184628314564,-0.1636875459997966,-0.8585647105359374,-0.4360480092795533,0.21432489055227605
568920.0,554.367447,1.0,-4.86,1.0,-8.71,11.0,11.75,50.25,-0.44,-1.94,-0.37,0.17708727387393552,0.17741218291523353,-0.21437115628867254,-118.45600764024076,-51.72346150833793,24.468295895974734,-0.1630404454897248,-0.8592100598133618,-0.43620085444112855,0.21190729301951974
568954.0,554.407196,1.0,-5.07,0.99,-8.27,10.56,11.38,49.88,2.44,0.0,-2.56,-0.117468608325766,-0.0064756501701714875,0.05657004176310032,-118.25750164007364,-51.72523696673634,24.757646904136575,-0.16444694567764515,-0.8583224908712481,-0.43621479647195566,0.21437433396001507
568989.0,554.439241,1.0,-4.91,1.22,-8.62,10.56,12.19,48.19,0.63,1.25,0.63,0.012571212427661904,0.273522980357658,-0.1846425662215676,-118.47296806557834,-51.64243291020728,24.369681297085112,-0.16541653318797966,-0.8592857745078873,-0.4355644548628309,0.21106618378246944
569026.0,554.481197,1.0,-5.0,0.98,-8.35,10.56,12.19,48.19,1.31,0.81,-2.88,-0.003368674048310094,0.019306571578127762,0.024905988407329716,-118.22995390992337,-51.70891186103008,24.70426917103976,-0.16601589936393138,-0.8581991146400287,-0.4360865973933024,0.21391933143918426
569061.0,554.525235,1.0,-5.07,0.83,-8.34,10.56,11.75,49.06,1.0,0.31,-0.94,0.010072524190941956,-0.07051174996111786,0.0115325102822883,-118.07904485768549,-51.82376773999365,25.024053868581735,-0.1635900497635019,-0.8575223682130658,-0.43698835864190383,0.21664454307479067
569098.0,554.539231,1.0,-4.99,0.96,-8.28,10.56,11.38,49.38,1.37,2.13,1.69,-0.014571328828214103,-0.00019428411139488233,0.09171882995922331,-118.25370901629658,-51.65694944531587,24.76108002944301,-0.16591266106590138,-0.8583055080376156,-0.4356784839255848,0.21440359701886016
569131.0,554.57822,1.0,-4.91,0.87,-8.55,10.56,11.38,49.38,0.63,0.31,-0.06,0.15185005127062867,0.02442423641607938,-0.09000827532731392,-118.3940381993705,-51.73466780947658,24.57025510258463,-0.16313107699669196,-0.8589332559571822,-0.43628885170385034,0.21277676425688188
569165.0,554.630365,1.0,-5.0,0.88,-8.5,10.19,11.38,49.06,0.63,-0.12,0.37,0.0009783346355870526,0.0034921506256755386,-0.09407658180930589,-118.45303974633468,-51.82680621212519,24.56766890932648,-0.15980177143361396,-0.859196808612676,-0.43701220846402483,0.21275471221542333
569200.0,554.680233,1.0,-4.92,0.64,-8.45,11.25,12.19,49.38,-0.12,0.06,4.0,0.1266699562947342,-0.12536417128737432,0.00936779794367304,-118.54154632587625,-51.810204279640296,24.66388726734003,-0.15691385513359357,-0.8595917294799423,-0.4368818914812117,0.21357507713353127
569237.0,554.69007,1.0,-4.82,0.72,-8.73,10.56,11.38,50.75,-2.56,-1.19,6.13,0.23748934954706635,0.023538874248063557,-0.18868614893720448,-118.8155827682235,-51.69330054389707,24.411818323529925,-0.15568756299289532,-0.8608112411980148,-0.4359639953311399,0.21142560046355827
569270.0,554.730172,1.0,-4.88,0.34,-8.97,10.56,11.38,50.75,-16.81,-15.19,22.19,0.6274411718056028,-0.3063886527841806,-0.3866489541839844,-119.10395198164848,-51.108851810077,24.50507812092921,-0.16026802884723562,-0.8620892203785535,-0.43136827835537267,0.21222097791038716
569307.0,554.767221,1.0,-5.36,3.22,-7.82,11.25,11.06,49.88,-43.44,-39.63,32.31,-1.4683086759263506,1.3366715620488274,-0.007002672038550983,-118.94908258779736,-50.020093300888476,24.799059399810304,-0.18203174477689257,-0.8614035566850865,-0.42277717371133594,0.21472731035529255
569344.0,554.804151,1.0,-6.03,6.91,-5.37,12.06,9.88,48.19,32.44,-34.81,-43.5,-5.167535878868534,3.767774921582017,1.318638154997421,-117.52109776158267,-50.86177417049308,26.62360192342533,-0.17760621107771649,-0.8550073689291187,-0.4294220422480559,0.2302501737133602
569376.0,554.834207,1.0,-5.22,3.01,-5.01,12.06,9.88,48.19,73.19,11.75,-134.13,-2.866585349528039,1.512214046923091,2.6719112444351056,-114.50336544719818,-54.61688974864294,28.272561980086333,-0.14999742786217984,-0.8410549005172803,-0.4587805235617292,0.24422910791104221
569411.0,554.869994,1.0,-5.41,-0.44,-4.74,13.56,11.75,49.06,21.81,67.75,-157.5,-1.8293529596883142,-1.1900950188666037,2.9388671266886632,-110.78728763113416,-60.00322368915642,27.69898581292057,-0.1233968912180903,-0.8230733689591546,-0.5000243628244045,0.23937224803637205
569448.0,554.910643,1.0,-4.3,-2.39,-3.26,10.56,14.38,48.56,-20.0,233.44,-95.44,-1.5456980165652547,-3.0504254047828563,4.996720427600673,-110.51938471727328,-64.41473214832007,21.08957503918122,-0.08470126686530614,-0.8217433488729811,-0.53298506016154,0.1830040699520904
569485.0,554.942591,1.0,-2.16,-3.71,-6.59,10.56,14.38,48.56,8.19,305.31,-42.0,0.6080566606745323,-3.206495760081892,2.650781636343063,-111.81496850917935,-66.60482068799345,12.565041585568574,-0.0274769058477123,-0.8281335609617407,-0.5490579786231747,0.10943107860245298
569520.0,555.017226,1.0,-0.09,-3.14,-7.5,2.25,14.38,49.88,-6.88,316.19,-5.69,1.0395502240189123,-2.3355297656851337,2.0876904816879005,-112.92921397898239,-66.87850117747739,3.2486896812421144,0.027217663177063554,-0.8335447179557883,-0.5510525250751253,0.028346368153848032
569554.0,555.026198,1.0,1.77,-3.18,-8.03,-10.5,14.75,47.5,-38.75,319.13,8.31,1.3460883961920445,-2.3502420982158743,1.4167389093262148,-112.97719515197666,-65.90072906146638,-6.7983106071182275,0.07390238609580314,-0.8337759646628218,-0.5439122884395929,-0.05929165678519259
569589.0,555.048641,1.0,5.12,-4.02,-9.94,-24.0,14.88,44.19,-59.25,289.56,50.0,2.7323848824513015,-2.6932484627997133,-1.4387439713901795,-113.11943145863017,-62.794535943067245,-16.292979258721083,0.1103933334829093,-0.8344606177027756,-0.5209689314778129,-0.14170448779237524
569624.0,555.085672,1.0,7.71,-3.6,-10.78,-24.0,14.88,44.19,-110.69,230.69,107.12,3.1349266398329085,-2.222549798534956,-3.378379668373837,-114.70841644750841,-57.19980024565466,-24.767385450743365,0.1259498176848193,-0.8420215330818102,-0.4786903274526781,-0.2144573422733923
569661.0,555.122465,1.0,9.67,-0.6,-11.79,-34.06,12.69,37.56,-176.13,165.06,164.38,1.5644150128443093,-0.09799669401716216,-5.372809882207568,-118.18808899499467,-49.18524398621771,-32.205644423223745,0.11702278023082584,-0.8580115220046721,-0.41616370600964087,-0.2773619779540718
569698.0,555.155395,1.0,11.88,1.6,-15.27,-38.56,13.5,34.38,-168.31,32.06,176.56,-0.13453225588303175,0.6501469751800109,-9.595064099089063,-123.36886666782806,-41.42220008839089,-35.255238716681035,0.09059950377950163,-0.8803485161895669,-0.35365606288553547,-0.302829339962359
569735.0,555.184932,1.0,13.13,3.04,-17.28,-38.56,13.5,34.38,-176.69,-170.88,158.63,0.48840261055202616,2.3570308214309286,-11.975057201154618,-132.13112986232872,-34.816414418982134,-31.521513227834934,0.03605511871804851,-0.9140102978784884,-0.2991774772709513,-0.27162113481850747
569769.0,555.246807,1.0,9.68,8.83,-11.06,-37.75,13.5,34.38,-146.0,-352.75,49.63,-2.7097603016978304,7.921239186055812,-5.1568411990696905,-140.9143440953133,-32.020894837541434,-21.438359913485677,-0.03508442012685138,-0.9423917108878626,-0.27581262947538365,-0.18599553794670515
569806.0,555.270183,1.0,7.92,6.91,-9.74,-30.56,13.56,41.25,-12.94,-369.31,-68.12,-0.29843030870915266,8.27338074043797,-1.889683206376855,-143.9420405686051,-33.597192936231345,-9.350684642128014,-0.07496245071915936,-0.9509000964945352,-0.28900834611758347,-0.08150959049854402
569841.0,555.2962,1.0,3.27,4.15,-6.84,-15.56,11.06,49.5,23.12,-344.69,-96.5,0.019976176231599307,4.915987099593682,2.6979460542014637,-142.07389852443166,-35.85739201149793,2.34394934361829,-0.1020701436519358,-0.9457283334110506,-0.30783317556539924,0.020453390421937757
569876.0,555.360716,1.0,0.58,3.28,-7.38,-15.56,11.06,49.5,-17.37,-286.69,-96.81,0.20940290408674622,3.270108041728923,2.4024792956483054,-136.99201767164985,-37.96960050091229,11.677156643591603,-0.13487438137674473,-0.9303920356319113,-0.32531731047035634,0.10172614604555943
569911.0,555.37274,1.0,-2.07,1.15,-6.64,-2.06,11.25,51.56,-57.19,-215.31,-129.31,0.7609311231111375,0.564690422852714,2.821014126851497,-129.73540002968303,-41.50978594611216,18.987292769970765,-0.16611777051440646,-0.9053295164824247,-0.35437089584060416,0.16493823415494002
569950.0,555.407211,1.0,-5.16,4.06,-2.73,7.69,10.25,51.25,-60.75,-169.38,-106.69,-4.197754841469724,0.4109605046341054,4.081960859570767,-123.23280526677196,-44.32770120926077,24.389852327719066,-0.1975722175269028,-0.8797846984972969,-0.37725655585565415,0.21123824041932476
569985.0,555.439284,1.0,-5.96,1.88,-4.25,7.69,10.25,51.25,-0.56,-101.37,-128.69,-2.3198818603757143,-0.6703100708939917,2.6451325237413688,-117.84125707874291,-47.79128037853944,28.708642960818338,-0.20234074401490315,-0.8564529996575478,-0.4050720172332504,0.24791761442799687
570019.0,555.495119,1.0,-6.62,-0.69,-3.99,14.75,8.69,48.38,-0.25,-56.19,-146.25,-1.4823222475065545,-2.523168580339576,2.6193736681943074,-112.6475580627346,-52.16460995150449,31.787710903161265,-0.1979131067728607,-0.832184323335014,-0.4396618052451975,0.2738560774777384
570054.0,555.506205,1.0,-6.96,-1.45,-3.71,18.56,11.25,48.38,-2.44,-11.75,-123.31,-1.723058004461604,-2.9402644718848965,2.5475787130768417,-108.77350825345178,-56.12285309027051,33.262376067361,-0.18941191560110454,-0.8129661617442094,-0.4704178969083025,0.28620997249498104
570091.0,555.544618,1.0,-6.6,-2.31,-5.63,17.37,13.19,47.88,32.13,44.06,-81.06,-0.4236459825165746,-2.699612329879515,1.2552982150562855,-107.36730149479074,-58.76837261810854,33.34244998484952,-0.16643812162294697,-0.8057593194928421,-0.4906632790601791,0.28687944733453774
570126.0,555.570089,1.0,-6.21,-3.16,-7.21,17.37,13.19,47.88,24.87,38.56,-54.38,0.6955911559306629,-2.625564283906641,0.15489548929756403,-106.51467459831596,-60.60073950892826,33.202723247901915,-0.14725808570887938,-0.8013304275862296,-0.5045331956696987,0.2857111416888535
570161.0,555.619724,1.0,-6.18,-1.81,-7.11,15.19,15.06,47.38,-12.13,34.31,-13.81,-0.13585796970574693,-1.4779097614520231,0.3294180544859362,-106.39407344364417,-61.461511649704484,32.34798489619687,-0.14198730650242314,-0.8007003889997847,-0.5110044047860682,0.27855518328872775
570198.0,555.662953,1.0,-5.79,-0.42,-8.05,13.75,14.75,47.38,-4.44,39.0,-0.69,-0.18837943821437442,-0.007372510467694937,-0.1164270849241813,-107.14502856632637,-61.70913892866475,30.791289381489666,-0.13819208804972477,-0.804609032066096,-0.5128607203671055,0.2654828315026238
570232.0,555.683964,1.0,-5.22,-0.74,-9.26,13.75,14.75,47.38,7.25,35.81,-6.31,0.6760983866349418,0.18163027222867667,-0.8260120098543418,-107.67528522202758,-62.129695696588925,29.660885260088232,-0.12809988434118746,-0.8073481585025017,-0.5160078940308949,0.2559594184479142
570265.0,555.724527,1.0,-5.42,-0.56,-8.57,12.69,15.88,48.56,-1.88,9.63,-5.63,0.007446816911854448,0.029611090280504904,-0.3488395366127133,-107.77947237935452,-62.4438600885861,29.052502853471854,-0.12537629802439423,-0.8078843238991711,-0.5183543633548203,0.2508235576709182
570302.0,555.761164,1.0,-5.25,-0.27,-8.81,11.5,15.5,47.75,-3.81,12.88,4.06,0.04690461889151165,0.28493381000842044,-0.44850054402619755,-108.24170743304263,-62.39328849317899,28.226650318177512,-0.12541340764931258,-0.8102550063972042,-0.5179769107015826,0.24384056629301668
570339.0,555.79009,1.0,-5.02,-0.51,-9.18,11.5,15.5,49.06,0.81,8.88,6.13,0.3947704026028288,0.18233019823945362,-0.6596679785461728,-108.69763057945838,-62.29804944105386,27.65414323482598,-0.12260454211857025,-0.8125804019289152,-0.5172657984494762,0.23899228106230666
570372.0,555.820659,1.0,-5.16,0.27,-8.57,11.5,15.5,49.06,-7.31,-6.94,8.56,-0.2287304725694681,0.5723670412714479,-0.18151691595531538,-108.91485822561825,-61.947615755513254,27.478705986717195,-0.12903149973340988,-0.8136838301360518,-0.5146461767018585,0.23750538827115286
570408.0,555.882935,1.0,-5.48,0.6,-7.82,9.88,15.5,48.69,-4.19,2.06,-0.63,-0.9096917909906386,0.5134146378282489,0.2960419092905564,-108.89060425859991,-61.902489021794764,27.366045206893524,-0.1328518825924994,-0.8135607747735745,-0.5143084873157119,0.2365502545263356
570443.0,555.899881,1.0,-5.4,0.15,-8.15,11.38,14.75,49.06,1.69,7.44,-4.56,-0.490806546702542,0.19720564991223455,0.04318653331172406,-108.84548381318542,-61.961081495765384,27.267940562087595,-0.13402955952896728,-0.8133317539081357,-0.514746927178902,0.23571834085845947
570476.0,555.929884,1.0,-5.2,-0.1,-8.33,11.38,14.75,49.06,6.06,1.63,-7.63,-0.12009557740472165,0.10067056341183767,-0.012430531798800715,-108.68092298103186,-62.04351998428939,27.387128681670685,-0.1349479937042571,-0.812495413132907,-0.515363575763356,0.23672901683061656
570513.0,555.971377,1.0,-5.23,-0.13,-8.47,9.88,14.75,49.06,-1.06,0.69,-6.13,-0.03589544882663942,0.05109077380927207,-0.1485898891028814,-108.57124252030832,-62.14572697447588,27.225169452989757,-0.13776113563152467,-0.8119370579472099,-0.5161277244512132,0.2353555937180043
570550.0,556.003426,1.0,-5.22,-0.33,-8.31,9.56,15.5,49.06,2.06,-2.94,-3.31,-0.003794840187137938,-0.07234929972111859,-0.012115257302866667,-108.2796280881976,-62.26957290533055,27.705821494080457,-0.1360215075480796,-0.8104489068760796,-0.5170531060333307,0.23943016595450248
570583.0,556.040761,1.0,-5.23,-0.42,-8.3,9.56,15.5,49.06,-0.06,-5.44,-1.25,0.04096526179991056,-0.07556193670811417,-0.012306779670975487,-108.01432607154695,-62.35743259852116,28.167415293267254,-0.13466917683113275,-0.8090904721174919,-0.5177092309171386,0.243339213780895
570615.0,556.080033,1.0,-5.4,-0.41,-8.11,10.25,15.5,48.56,-0.63,-2.06,-3.06,-0.1335746804531912,-0.11995872442501598,0.05636960868939056,-107.72314652664664,-62.42118422711738,28.572856700080084,-0.13557304400701928,-0.8075945440765377,-0.5181851293641601,0.24676947506190608
570652.0,556.110658,1.0,-5.38,-0.52,-8.0,11.06,15.88,48.19,4.88,4.69,-2.5,-0.134935760950329,-0.16864113708841488,0.15428487494913057,-107.57950894774245,-62.48549599889289,28.897620507625586,-0.13309537893039125,-0.8068546882212547,-0.5186650467096048,0.24951493246794051
