TIME,ELAPSED_SECONDS,PSTATE,acc_x,acc_y,acc_z,mag_x,mag_y,mag_z,gyr_x,gyr_y,gyr_z,lin_x,lin_y,lin_z,eul_x,eul_y,eul_z,qua_w,qua_x,qua_y,qua_z
881248.0,867.251087,1.0,-4.72,-1.95,-8.4,6.88,21.06,46.69,3.94,4.81,-6.0,0.0006302474793259405,-0.10348228951558491,-0.02341566705150555,-95.19027847077136,-76.51799086141267,29.339359140375986,-0.08488024212836319,-0.7383981326174218,-0.6192172363459433,0.25324603936770096
881285.0,867.286332,1.0,-4.79,-1.45,-8.19,5.38,20.25,47.5,1.88,6.56,-6.31,-0.2652529430477859,0.2793478657630155,0.21632645769455117,-95.1605707816155,-76.61248181203733,29.165493154544656,-0.0860363151114152,-0.7382232796860642,-0.6198645093808774,0.25177794149131577
881317.0,867.319627,1.0,-4.8,-2.04,-8.34,5.38,20.25,47.5,4.69,9.63,-7.69,-0.13223079949058358,-0.15404061758229304,-0.027778631283107202,-94.91157350847134,-76.85251334002513,29.378642403834803,-0.08135422685390466,-0.7367557868748986,-0.6215068545935141,0.2535776606340333
881354.0,867.344963,1.0,-4.65,-2.27,-8.84,5.0,21.37,46.69,1.12,8.69,-2.38,0.1558224440909124,-0.17478665808908556,-0.43376839917059407,-94.88853947259959,-77.07183000937854,29.18908916232519,-0.07591664923713888,-0.7366198573623445,-0.6230050805543009,0.2519772166518508
881389.0,867.397138,1.0,-4.6,-2.09,-8.54,6.06,20.25,46.25,-0.75,3.5,1.56,-0.009134092456575593,-0.029267721671876856,-0.11598876037131234,-94.85972973264701,-77.12411993093272,29.26017829687176,-0.07256830957370815,-0.7364498021064493,-0.6233619538972204,0.2525775204891082
881424.0,867.429214,1.0,-4.58,-1.77,-8.52,6.06,20.25,46.25,-1.75,5.0,-0.75,-0.0796844115212959,0.19289185416696153,-0.02473561583037842,-95.02610904567166,-77.11639040261417,28.861022519509493,-0.07468154469480376,-0.7374312471210189,-0.6233092088340649,0.24920564366440118
881457.0,867.455253,1.0,-4.69,-1.8,-8.38,6.06,21.37,48.25,-0.81,4.5,-1.25,-0.1969009071033314,0.08046706940005333,0.038576746613534496,-95.06136541976143,-77.05485439501388,28.82733830637177,-0.07704598796961652,-0.7376390193007177,-0.622889195833307,0.24892095664486982
881494.0,867.488134,1.0,-4.47,-1.92,-8.91,5.0,21.06,47.5,-4.06,7.13,-0.56,0.1487079567801457,0.07298049930347883,-0.343618951624471,-95.2132785776691,-77.22901755116155,28.217416300359936,-0.07533589275486408,-0.7385334721091794,-0.6240774779330146,0.24376241583549219
881526.0,867.525241,1.0,-4.47,-1.58,-8.79,5.0,21.06,47.5,-15.0,-0.5,-0.56,0.03498606308182761,0.22067268387953742,-0.1779120606003275,-95.26963507590793,-77.37895486657493,27.58076328116205,-0.08067804353153858,-0.7388649647836868,-0.6250993170672323,0.23837042792511906
881561.0,867.570001,1.0,-4.48,-1.09,-8.82,5.38,21.37,47.5,-27.25,-4.81,-15.75,-0.024233245272329618,0.5304208154517802,-0.13160771996073173,-94.71276149460282,-78.1177347480674,26.862461121318034,-0.08897913563105174,-0.7355815684677343,-0.6301185214362522,0.23227810593314735
881596.0,867.587211,1.0,-4.55,-1.37,-8.53,4.56,20.25,46.69,-22.12,-0.06,-24.94,-0.1293540912910658,0.08392916213945556,0.0436318490996932,-93.86144064146333,-79.06112867874633,26.384874800009836,-0.09551662683776727,-0.7305285230576317,-0.6364897516200323,0.2282223632325273
881633.0,867.640499,1.0,-4.66,-1.44,-8.36,5.0,19.87,48.75,7.94,0.06,-12.75,-0.2477093098403429,0.053851556709303416,0.13118928189161316,-93.41700921487987,-79.30148075731535,26.879823579624468,-0.09485594941402443,-0.7278745479903981,-0.6381060959631006,0.23242547524586932
881666.0,867.667217,1.0,-4.69,-1.85,-8.11,5.0,19.87,48.75,-0.88,5.63,-11.19,-0.32587130382686436,-0.3334860257133063,0.2686578127524051,-92.98589062879175,-79.67580087643279,27.108700301410277,-0.09292828015962419,-0.7252896101418691,-0.6406177693001373,0.2343676381750392
881702.0,867.708279,1.0,-4.58,-1.67,-7.9,3.88,19.19,47.5,-0.44,18.12,-25.12,-0.4328322593889672,-0.11975998859098258,0.5344542632629352,-92.27488934658251,-80.51801103288484,27.045255390368602,-0.08857578172662432,-0.7210041186360312,-0.6462439334215483,0.23382936153794479
881737.0,867.750312,1.0,-4.09,-5.87,-8.52,4.19,19.56,47.5,24.81,28.62,-8.81,0.7051073645865906,-3.8373586667921114,-0.6122223990075444,-92.31629064963518,-80.71259652490662,27.116152892195934,-0.07434820210353794,-0.721254423669629,-0.6475388574644083,0.23443086241928862
881772.0,867.766793,1.0,-3.01,-6.42,-10.35,4.19,19.56,47.5,15.69,12.13,51.75,2.598747339984166,-3.7848354819568053,-1.8689884252616356,-94.12805649760246,-78.95450313703464,27.132780738638022,-0.06911795090153071,-0.7321153805268492,-0.6357718081622703,0.2345719216046068
881807.0,867.802859,1.0,-2.84,-7.05,-9.95,2.38,20.69,46.69,1.94,-7.06,100.44,3.136310620598955,-4.516658855334427,-1.4420809717873233,-97.23934069606048,-75.65147025721797,27.222807548959064,-0.07429541350136341,-0.7503380619434186,-0.6132618999955421,0.23533556115792156
881844.0,867.843879,1.0,-3.49,-1.53,-8.22,3.5,20.25,48.38,-15.5,-6.56,141.44,0.7540514848615081,-0.13769937307899327,0.7788127595070247,-101.74390446875933,-71.17549853518433,26.339601061345203,-0.08750105598563704,-0.7757375819790273,-0.5819491032117868,0.2278376842792416
881879.0,867.883151,1.0,-3.79,0.66,-5.95,3.5,20.25,48.38,-24.37,1.0,155.94,-0.9544173599728086,0.8206918098095031,2.834006852936315,-106.69466028436814,-66.08824822606393,25.19737328102187,-0.10701498927312889,-0.8022690489298828,-0.5452847429196797,0.21812087093864396
881913.0,867.908166,1.0,-4.15,3.55,-5.26,5.0,19.87,49.56,-84.31,25.06,180.25,-2.6428806774202314,2.3746259419757756,3.1082223217597997,-112.1692298642026,-60.77171943866809,22.002717405404695,-0.13804537026897973,-0.829862489406838,-0.5058208851219685,0.1908322734686507
881948.0,867.950626,1.0,-4.22,7.04,-3.53,7.19,18.37,48.25,-95.87,28.37,151.38,-5.099138563788008,4.3334419020969,3.8862642702995442,-116.33436217028778,-56.440505601321036,18.594666360529274,-0.16880744402606634,-0.849590714289859,-0.47286225677019217,0.16155788794124085
881985.0,867.98817,1.0,-3.14,6.84,-4.1,9.06,13.06,50.0,-48.56,94.81,64.87,-4.170682405893767,4.271724038120508,3.657423868907438,-118.74989802518468,-55.081295000487096,14.42556754269451,-0.17305847886852127,-0.8605193805265533,-0.4623777714853372,0.12555458998445165
882020.0,868.026231,1.0,-1.6,10.11,-5.48,9.06,13.06,50.0,30.87,181.94,-41.19,-4.587016501790879,7.813887829492273,2.5468334320410904,-119.07118451370451,-57.42431292978271,9.488245698060274,-0.13934994304882783,-0.8619442780551697,-0.4804095910306775,0.08270598373744104
882057.0,868.080601,1.0,1.66,3.04,-13.56,6.5,9.25,51.25,154.56,195.88,-199.75,2.496859582010252,3.8808105049922936,-3.4060636520877168,-114.41030647797146,-64.64740515099395,6.751277331083554,-0.06318697025397434,-0.8406153218671256,-0.5347019783193449,0.058881931131129404
882094.0,868.09268,1.0,1.46,0.62,-10.98,-2.5,12.69,50.75,125.44,108.31,-250.31,2.0330887727496045,1.8519701204420267,-0.9410547184554456,-106.44119474420256,-73.2142513870782,6.1028104633317035,-0.006902384148388716,-0.8009466633708203,-0.5963247142058309,0.05323189603566628
882126.0,868.156144,1.0,1.99,-9.23,-8.18,-2.5,12.69,50.75,61.38,155.94,-215.63,3.212229477538244,-7.947385204891361,0.7189632652633637,-99.18388205424274,-80.51977744192868,3.146399190470168,0.0424040595245184,-0.7614471383031752,-0.6462556968755565,0.027454062752804428
882161.0,868.160178,1.0,2.94,-7.15,-10.87,-10.75,16.87,50.0,-36.94,210.94,-119.62,1.8387523235553473,-6.124635278438319,-1.8993669399641906,-95.09271307784233,-84.08581929045738,-3.393432977918209,0.07911296551858878,-0.7378236980689457,-0.6696869706605345,-0.02960896118130863
882198.0,868.207242,1.0,4.01,-6.72,-15.26,-21.25,15.69,45.88,5.63,112.0,-38.31,0.8998778686390367,-5.352290592245296,-6.461395526051868,-93.4959867941839,-84.894760189575,-6.095331353763548,0.1057198174060271,-0.7283469730752107,-0.6749128142262472,-0.053166720916582665
882235.0,868.239165,1.0,3.42,-7.94,-11.07,-27.25,13.19,40.5,-29.56,39.56,58.75,1.3770340948007975,-6.896181269232628,-2.351942065023037,-95.58287469942886,-82.52808777676724,-7.387047561340421,0.11057795940105429,-0.7407042017636005,-0.6595300803196136,-0.06441951209105827
882268.0,868.275193,1.0,3.3,-6.65,-10.34,-27.25,13.19,40.5,-77.0,40.19,136.75,1.6688811631343996,-5.767789257265771,-1.4172326948211076,-100.58616851653991,-77.29541880246038,-9.473313538949524,0.10623679410773341,-0.7693224485932395,-0.624530141607771,-0.08257612180037888
882307.0,868.316654,1.0,4.11,-4.11,-11.01,-29.56,13.88,40.5,-87.12,-15.94,225.69,2.408819399896521,-2.8764938198077656,-2.064646155150447,-108.8867990776686,-69.18741283816958,-9.94211118328895,0.09109222571098086,-0.8135414654316135,-0.5677533252760891,-0.08665247876630854
882343.0,868.339353,1.0,4.85,-0.05,-9.84,-28.5,15.38,40.5,-108.37,-32.44,256.38,2.0937550059698697,1.3834346216149633,-0.8729051697012764,-118.28519539524996,-60.00680041996444,-10.647503493398448,0.06640413905178821,-0.8584464710961337,-0.5000513932753835,-0.09278335337081647
882378.0,868.380736,1.0,4.58,5.59,-9.99,-28.5,15.38,40.5,-120.44,-45.31,212.5,-1.2578948956130138,5.695119275739604,-1.0564948884146776,-126.20738916300849,-52.296800511203344,-11.136214154879971,0.031876897479248774,-0.8918267019228383,-0.44069761604110547,-0.09702890476665639
882411.0,868.414573,1.0,2.87,6.16,-9.25,-22.87,17.69,43.38,-86.25,-45.31,118.56,-2.7943746666080145,4.818371658195793,-0.22927371364563776,-130.66052340795304,-47.90964170142754,-11.099126463266353,0.0032750646502474083,-0.9087287541340751,-0.4060161633536125,-0.09670677565238622
882448.0,868.451979,1.0,2.15,3.44,-8.58,-19.87,16.87,46.25,-7.19,-36.81,38.75,-1.338953585427114,2.4958146200737987,0.7484706753068906,-132.19714567352614,-46.55747134216234,-10.229822024758136,-0.004808967791968782,-0.9142438634014348,-0.39520460997952234,-0.08915350981609053
882485.0,868.476171,1.0,1.99,2.26,-9.27,-16.5,16.87,47.19,-6.19,-31.81,27.56,-0.551418707037328,1.4642524324519146,0.18622889572457701,-133.29286427551432,-45.583309672635124,-9.545565009767452,-0.012201682972809678,-0.9180761704282663,-0.38738131243682083,-0.08320446501916985
882518.0,868.521662,1.0,1.63,2.79,-9.53,-16.5,16.87,47.19,-13.69,-31.31,13.5,-0.9877314264804302,1.5639748313368043,-0.08477403074946288,-133.88130526706612,-45.070733143201046,-8.909992128117564,-0.022354910373885692,-0.9200996377044625,-0.3832536361873978,-0.0776760260790309
882556.0,868.566639,1.0,0.96,2.48,-9.04,-15.0,17.25,47.5,12.19,-15.38,-13.56,-1.1502553983763795,1.0412488452232072,0.5122262222272571,-133.47743188980024,-45.58848178065181,-8.3311884193747,-0.024343528794376866,-0.918713449930578,-0.38742292302744813,-0.0726393022774915
882591.0,868.586284,1.0,0.89,-0.5,-8.88,-14.56,17.25,47.5,29.5,3.31,-27.62,0.7261521027334519,-0.9601061453416537,0.9495963525745204,-132.62373565984427,-46.62077303439942,-7.817050514391876,-0.013240061855832867,-0.9157458302273258,-0.3957119910336325,-0.06816373915446378
882626.0,868.631224,1.0,1.01,0.67,-10.1,-14.56,17.25,47.5,-18.44,11.25,7.5,0.0048158867796888605,-0.2577874056010009,-0.3625447793691112,-132.8576813547896,-46.32610324081338,-8.055259767363548,-0.015917252411857243,-0.916564135063838,-0.39334910410752727,-0.07023752336280967
882659.0,868.661826,1.0,1.04,1.65,-9.78,-14.56,18.25,46.69,-13.56,-0.31,4.13,-0.5340307633043507,0.4111051273120123,-0.1431391293304447,-132.91986143323916,-46.165104444301605,-8.329239207380114,-0.023020188605421023,-0.9167809886087677,-0.39205699329743326,-0.07262233711935799
882696.0,868.699191,1.0,1.15,0.1,-9.85,-14.19,17.19,48.0,14.19,1.12,-18.87,0.5158512999600049,-0.5343523268597729,-0.08290838382630206,-132.3544504637496,-46.847069853736215,-7.9916837978990705,-0.016142459878588335,-0.9147991884587676,-0.3975248358113712,-0.06968407778962572
882731.0,868.747112,1.0,1.08,-0.07,-9.65,-14.19,17.19,48.0,9.38,-0.12,-6.88,0.5086863816704801,-0.5873991305207236,0.1272904950241447,-132.19020365901432,-47.096236458396774,-7.672131594156817,-0.010566936294583123,-0.9142193166623148,-0.3995190950103565,-0.06690197023213786
882765.0,868.764288,1.0,1.2,0.42,-10.09,-14.19,16.75,47.5,-7.56,5.13,-0.94,0.20371923284507049,-0.21631067141679816,-0.3587918579617213,-132.17255663662863,-47.09245397970152,-7.819575438847833,-0.008748480478956622,-0.9141569022560254,-0.3994888352139901,-0.06818572201235723
882800.0,868.830614,1.0,1.31,0.88,-10.04,-14.56,17.56,47.88,-5.5,-0.25,-2.25,0.008850688112089625,0.1053540898773343,-0.3560721836014995,-132.02186090746753,-47.15638845629024,-8.226211024691409,-0.012173234314448344,-0.9136230351464598,-0.40000025193933514,-0.07172559142010942
882837.0,868.854297,1.0,1.2,0.62,-9.78,-15.38,17.19,47.38,4.13,-4.0,-1.12,0.06982210288878812,-0.035690985881039805,-0.06586999377438651,-132.0699113024039,-47.18717156041177,-7.874232743383305,-0.008362508513490888,-0.913793434060208,-0.40024644392410275,-0.06866157911033004
882870.0,868.891166,1.0,0.81,0.66,-9.51,-15.38,17.19,47.38,-3.56,-0.56,0.19,-0.17001579098352299,-0.19706964153242235,0.24296565832484696,-132.1181908043294,-47.194307215086184,-7.531341027792808,-0.010615148505303568,-0.9139644836238654,-0.40030350815198884,-0.06567604325461361
