TIME,ELAPSED_SECONDS,PSTATE,acc_x,acc_y,acc_z,mag_x,mag_y,mag_z,gyr_x,gyr_y,gyr_z,lin_x,lin_y,lin_z,eul_x,eul_y,eul_z,qua_w,qua_x,qua_y,qua_z
333942.0,318.994828,1.0,-4.21,-2.01,-8.43,1.75,24.19,45.88,7.69,-0.88,-9.63,-0.22891215709723567,0.28427114132895137,0.17877956347352075,-119.36577220995517,-51.43040812980058,29.8603929649767,0.012701536417488899,-0.8632448128125769,-0.43389818000879415,0.25764206471356765
333977.0,319.014862,1.0,-4.26,-3.16,-8.54,1.75,24.19,45.88,9.56,1.5,-8.63,0.3683970421301034,-0.4435746300664176,-0.22989946517533077,-118.96309210293882,-51.68781012955426,30.11405062483861,0.01908232096734464,-0.8614656466998099,-0.4359208749370498,0.25978028288670135
334014.0,319.090432,1.0,-4.24,-2.87,-8.63,3.0,25.0,46.75,-1.19,-1.75,2.13,0.18624328956525252,-0.13386871050964588,-0.22523878553976218,-118.85519660885629,-51.71098995701166,30.242338145974394,0.021606766085105842,-0.8609871228619679,-0.4361029169211248,0.26086120404939606
334047.0,319.096711,1.0,-4.32,-2.32,-8.36,2.56,24.06,45.5,-6.63,-4.5,7.81,-0.14262506225789945,0.061919185035031354,0.11592122935841687,-119.10121315674964,-51.414037435574905,30.329782449395175,0.01528731982419311,-0.8620771082682249,-0.43376946302950353,0.2615978023523596
334082.0,319.126955,1.0,-4.35,-2.47,-8.32,2.56,24.06,45.5,-0.25,-2.94,1.31,-0.020997615086025934,-0.029174341196050335,0.09868893920167743,-118.9567140161869,-51.29831359820852,30.76544654609313,0.013882438174887128,-0.8614373806870764,-0.43285931509041814,0.2652653961691263
334116.0,319.172809,1.0,-4.24,-2.37,-8.7,3.69,23.5,46.25,0.44,-0.44,1.06,0.0635287687181244,0.21836411001576206,-0.15491519885314808,-119.15755877946111,-51.29332986784818,30.431714162878052,0.013304653905549454,-0.8623261905729446,-0.43282010899241885,0.2624562449022654
334151.0,319.20462,1.0,-4.29,-2.54,-8.45,3.25,23.75,45.5,0.63,-0.25,0.44,0.023625790665738666,-0.00800645737486505,-0.004444623876366904,-119.04519592680342,-51.367182531326954,30.488211199887044,0.016752807800990723,-0.8618292710495163,-0.4334010105667873,0.262931958941339
334186.0,319.225165,1.0,-4.4,-2.43,-8.4,3.25,23.75,45.5,0.81,-1.5,-1.25,-0.0707511949536958,0.011257410417484959,0.017892799051386632,-118.97871541517524,-51.287496005381826,30.743402375438603,0.014027882044671865,-0.8615348738590087,-0.43277421402010074,0.2650799112142727
334221.0,319.26168,1.0,-4.43,-2.49,-8.41,4.06,24.19,44.69,-0.25,-0.63,-0.31,-0.0034050149753025033,-0.0010088793920854933,-0.01949305758039621,-118.84228194548467,-51.21506078872054,31.093717197286512,0.012697076031379022,-0.860929794294933,-0.4322042730770114,0.2680263790926367
334256.0,319.307923,1.0,-4.38,-2.66,-8.68,3.69,23.5,46.75,2.13,-2.63,-1.0,0.13159236940198982,0.040217146484845756,-0.27221233805401823,-118.7706932210993,-51.343062822214584,31.002235034291015,0.015775713930666103,-0.8606118115683036,-0.433211312386145,0.26725717101655866
334290.0,319.330639,1.0,-4.35,-2.44,-8.85,3.25,23.5,46.75,-0.88,-7.88,1.75,0.08417172963132596,0.2583835106333061,-0.34838584835443775,-118.86351863072927,-51.32363249366599,30.888439189137426,0.013497243418695466,-0.8610240587656283,-0.43305848157719956,0.26630010548422794
334325.0,319.374148,1.0,-4.34,-2.8,-8.78,3.25,23.5,46.75,-4.25,-21.31,4.31,0.35521093369504475,0.031797844784549056,-0.37356679973715323,-118.56231151211674,-51.34925298518814,31.367039137887723,0.01240361035587466,-0.8596843105397867,-0.4332599989940327,0.2703235282648593
334360.0,319.410704,1.0,-4.55,-2.24,-7.54,4.75,24.19,45.5,-8.0,-26.75,7.88,-0.21624641668495861,-0.16381662996058877,0.7238034418432857,-118.20010012877088,-51.084654522395894,32.38997288480842,0.004519504915191079,-0.8580653544496873,-0.431177764214704,0.27890707630905137
334395.0,319.443329,1.0,-4.8,-2.07,-5.66,6.0,24.56,46.25,-11.94,0.88,11.44,-0.8660401235357454,-1.0889601304251406,2.2287452540447807,-118.41991057137211,-50.764245753295405,32.49725928762749,-0.00016015000349854218,-0.8590488526988812,-0.4286532586713919,0.27980605222029953
334430.0,319.468241,1.0,-4.47,-1.89,-4.74,6.0,24.56,46.25,-12.75,51.69,10.06,-1.0329647536398088,-1.4000522991233533,3.24971189006963,-119.5554270046217,-50.50286610116209,30.992694809517893,0.0019084002679078883,-0.8640790755176395,-0.4265913615035714,0.26717694427387995
334465.0,319.509127,1.0,-3.65,-1.03,-3.86,6.0,23.75,45.06,-38.75,154.0,21.06,-1.3927505063383063,-1.1962184778193645,4.716236718112377,-122.82034330535261,-50.04895207274499,25.83888826583137,0.008643515275718983,-0.8780679431973307,-0.42300538645488284,0.223580902142922
334501.0,319.568196,1.0,-2.15,-0.53,-5.03,3.25,22.69,46.75,-38.44,256.5,-6.13,-0.9357632558323776,-0.22563552903580908,4.395759524572621,-126.41943619620952,-50.27112423270793,17.024337931021105,0.028671240623150945,-0.8926622802187523,-0.42476140583770455,0.1480194634045275
334536.0,319.579169,1.0,-0.41,0.1,-6.78,3.25,22.69,46.75,-37.56,276.88,-26.75,-0.668826012897072,0.9163609921143927,3.108929918016628,-128.063551149619,-50.907942685088265,7.334130114522095,0.054090932142855735,-0.8990370236202734,-0.4297858646130298,0.0639586725843134
334571.0,319.619217,1.0,1.9,0.06,-8.44,-5.25,21.19,45.5,-8.0,304.13,-63.69,-0.1301549499664023,1.5186638134581043,1.2905523073539076,-126.40332064072778,-52.27767329985401,-2.8667785675840483,0.09251568373282358,-0.8925988836324277,-0.44054777645156806,-0.025014752950430152
334606.0,319.655246,1.0,5.68,-2.61,-10.89,-17.25,19.19,44.69,19.81,304.25,-83.0,2.019764584381022,0.36520345513337604,-2.5809961630141363,-121.83547666230793,-53.80780999144065,-12.57730458957939,0.1396725177863112,-0.87392274683913,-0.4524954887506307,-0.10953745018353456
334643.0,319.695171,1.0,8.74,-4.24,-13.94,-28.87,17.69,39.0,-9.5,269.5,-59.88,1.9347085632180023,-1.2650856722788375,-7.0262125318810735,-117.16426400781404,-54.075812259113725,-21.467578708623034,0.1743501868340259,-0.8533882761248134,-0.4545798784675157,-0.18624606469968188
334678.0,319.724091,1.0,11.75,-4.91,-20.41,-28.87,17.69,39.0,-22.12,91.56,-21.25,0.3938676016604321,-2.257841028866091,-14.140911926023522,-115.59103153789043,-53.86029693502903,-24.60291965297343,0.18306614463122717,-0.8461514581893548,-0.4529039016182081,-0.21305528013379943
334714.0,319.77439,1.0,9.56,-4.22,-16.43,-37.5,16.19,31.06,-10.31,-255.81,45.63,3.007556395829149,-0.08280706759407863,-9.431194149370372,-120.3262003943106,-53.8040549171858,-16.423094377109972,0.14971015556399705,-0.8674452107437591,-0.4524662660224154,-0.14282840680499173
334753.0,319.803225,1.0,7.6,-3.09,-12.83,-37.88,14.69,32.38,-39.88,-338.75,88.06,4.837323072963017,1.9947520908757497,-4.495037648096867,-125.97323216587161,-52.203381741050926,-6.363774480966366,0.09821249119269677,-0.8909004506867595,-0.439965671587721,-0.05550586783592268
334788.0,319.841123,1.0,2.0,-0.42,-9.14,-37.88,14.69,32.38,-28.37,-320.75,97.94,1.2489549660384283,1.7949660035190123,0.6998279121902833,-129.80526861054247,-49.75339977019522,3.2434538501046166,0.04634915185220905,-0.9055883015983116,-0.4206669166690898,0.02830069523858693
334823.0,319.857954,1.0,0.51,-0.36,-9.44,-27.75,16.56,41.5,-12.75,-320.06,108.0,1.462402294634821,2.0211669669948478,0.6808862719509516,-131.65699743535842,-46.35718128705946,12.96436976328969,-0.0005108651903372318,-0.9123238975974404,-0.3935984345290895,0.11289427454757225
334858.0,319.896263,1.0,-3.11,3.08,-3.46,-13.19,17.37,47.56,-2.69,-280.31,77.31,-3.5297035223199433,1.1827039501995689,5.650629738896294,-130.53674465634322,-43.46442561270043,21.975351732212037,-0.0400685110554749,-0.9082773735686758,-0.3702690752891805,0.1905978461826906
334895.0,319.953663,1.0,-4.98,-0.25,-3.66,-0.37,17.75,49.25,64.37,-160.75,13.69,-2.0161486661831773,-1.7638306832690476,4.231477726732882,-128.1642983253655,-42.18976671794703,28.29218690092034,-0.04211859531984617,-0.8994216471307339,-0.3599134918511649,0.24439517790746618
334929.0,319.973609,1.0,-5.71,-1.17,-2.11,-0.37,17.75,49.25,31.25,-99.0,33.75,-1.9260482891802193,-3.2448609262124277,4.888691525461425,-127.02794436680661,-40.55650431389372,32.122265230807116,-0.04730756393600648,-0.8950431450592151,-0.3465796307112045,0.2766628317158534
334966.0,320.020835,1.0,-5.23,-0.46,-1.55,7.75,20.0,46.75,-2.56,27.44,61.19,-2.197627067057892,-2.911548930802037,5.724944707149957,-129.1379932099975,-38.543615501992626,31.322956544344382,-0.05096267150231129,-0.9031030589685658,-0.3300499577578872,0.26995313737570004
335001.0,320.043004,1.0,-4.53,-0.22,-2.01,11.19,20.69,46.75,-29.44,114.06,81.19,-1.7983143292031694,-2.475866655334186,5.902094983306435,-133.53171813439425,-36.264499379387075,27.311514020047905,-0.05506341303211628,-0.9189004372633317,-0.31121139077989074,0.2360878590511562
335036.0,320.085199,1.0,-2.17,0.27,-0.08,11.19,20.69,46.75,-63.0,344.88,109.56,-1.3692647162590588,-1.5637495115944644,9.122543574218106,-142.53777693223554,-33.56329193938151,15.16765511878803,-0.048401570490543507,-0.9470360456756525,-0.28872511605797163,0.1319766021777475
335071.0,320.121335,1.0,2.82,3.05,-6.09,8.56,19.56,48.75,-58.75,481.38,100.69,-0.8995150660390392,3.6926063298313085,3.4901215912252432,-148.9439681615659,-30.824290180878478,-1.9292878559835325,-0.02750150319691916,-0.9634996664581611,-0.2657604725730337,-0.016835417270747496
335108.0,320.154405,1.0,7.2,2.62,-13.03,-3.0,17.0,48.75,29.19,499.38,34.56,-0.43320907008454834,3.2664256057344376,-4.945573346458623,-144.50013612757616,-29.74583919370236,-18.768428884046415,0.021732930190358078,-0.9523961618022492,-0.2566760143372228,-0.16305414558864398
335144.0,320.197673,1.0,9.52,-1.46,-17.05,-23.37,17.0,42.19,4.38,294.0,13.88,1.7914757143941258,-1.0794741588502417,-9.663579847259387,-138.3167643261507,-28.870540311792002,-28.842648841869487,0.049132198433835275,-0.9345674913724351,-0.24928608076749972,-0.24905035852708782
335177.0,320.226277,1.0,9.49,2.77,-15.08,-23.37,17.0,42.19,-71.69,58.69,43.19,-1.3903826031874549,0.8866872842554603,-8.149408082905987,-137.95648359927236,-26.73567716285243,-31.59111384885434,0.03363939767406586,-0.9334442681538073,-0.23120182588276758,-0.2722056297790394
335216.0,320.268698,1.0,6.67,3.18,-9.22,-34.56,17.25,35.19,-8.56,-25.31,7.13,-1.6748409728148812,1.9362537107932862,-1.7283198431864033,-138.64121503662312,-26.528700123188205,-30.977923370583134,0.02729329263340743,-0.9355711042813197,-0.22944417223416913,-0.2670527229571646
335251.0,320.293183,1.0,7.02,2.75,-11.38,-35.0,16.87,35.19,17.87,-11.31,-22.69,-1.4004565143338672,1.0484201509939846,-3.731696898290412,-138.244204707994,-27.57777640222005,-30.568814990369958,0.02657212115528318,-0.9343420196484425,-0.23834511376239245,-0.263610545013227
335286.0,320.325199,1.0,6.85,1.69,-12.83,-35.0,16.87,35.19,26.19,-145.06,-43.56,-0.08445642981041246,0.9635784630016335,-4.803342596065992,-140.74391627101153,-29.491825825738154,-25.24360162335946,0.017367453084881915,-0.9418931622981691,-0.25453296514680823,-0.21851455796553468
335321.0,320.380184,1.0,4.9,3.69,-10.4,-35.0,17.25,35.19,41.81,-201.56,-50.38,-1.6488225140812887,2.769688532560244,-1.8293419968029756,-143.21932416162866,-31.691031057719353,-18.16882975053629,0.007135309598958067,-0.9489292276663774,-0.2730445430175939,-0.15788947325813962
335357.0,320.401671,1.0,1.47,2.79,-4.96,-31.56,16.5,38.56,117.75,-191.13,-106.75,-1.84297980144241,1.9840856936773896,4.59000074864909,-142.2024037111186,-36.085302132661326,-10.696732825416037,0.017083018411228012,-0.9460921532202116,-0.30972487662367204,-0.09321109857498995
335394.0,320.447264,1.0,0.85,-0.48,-6.28,-24.06,17.19,43.19,131.5,-82.94,-126.06,0.13144439024052246,-0.12017839756083692,3.453731023259147,-138.2074609737133,-40.90454409708229,-6.286656417339354,0.045963223658174374,-0.9342276992945608,-0.34942700263929727,-0.0548339107510763
335427.0,320.475244,1.0,0.71,-2.13,-8.79,-24.06,17.19,43.19,88.44,-72.25,-96.31,0.7883255344471912,-0.9500674510001866,0.8188240843355992,-134.7179231769919,-44.51227388114862,-2.7514728017031587,0.06453842864852063,-0.922934726722788,-0.37874774965609964,-0.024008822694025857
335464.0,320.509727,1.0,0.86,-5.03,-8.81,-23.0,19.75,43.19,82.44,-78.0,-79.37,2.7157579411298864,-2.4158154908123346,0.29638742110444305,-131.48867591266983,-47.49226575671693,0.8285860957893242,0.08097267711121497,-0.9117214513524448,-0.40268491090369024,0.007230714744874721
335501.0,320.549702,1.0,0.6,-5.3,-8.48,-21.06,19.75,43.06,36.19,-67.25,-39.38,2.75208345420113,-2.487937850308527,0.5009204792093502,-129.72903202554008,-49.02655229998085,3.513949941251411,0.08564904775491095,-0.9053059133970978,-0.41490408094942727,0.030660192407004298
335534.0,320.585248,1.0,0.62,-5.16,-8.63,-21.06,19.75,43.06,-8.69,-23.69,7.31,2.7598345827507673,-2.251421731432197,0.3832051276039312,-129.90825439862226,-48.84142279406975,4.272162034223736,0.08308615006911407,-0.9059691351419187,-0.41343359864302714,0.037273011012966824
335568.0,320.618222,1.0,0.62,-6.12,-7.82,-20.0,21.25,43.0,-32.13,-0.56,34.5,3.6421897747437155,-3.0722824049829676,1.0724222454252192,-131.2419739152277,-47.669461477303834,4.028435592243054,0.07647044380768146,-0.9108349163553496,-0.4040998393848726,0.03514749181548492
335605.0,320.650457,1.0,1.24,-2.33,-10.48,-19.25,21.69,43.75,-94.5,30.81,83.87,1.5540615970616245,-0.02801554647987381,-0.8882556883029018,-134.68198431226335,-44.78256244297067,1.6744941550477015,0.055619026230232856,-0.9228139490664424,-0.38092968248201053,0.014612198115028216
335642.0,320.714149,1.0,0.85,-2.5,-9.68,-19.25,21.69,43.75,-93.5,23.5,105.0,1.7961181578218082,-0.7879066789934313,-0.033475132758237436,-138.69307194917826,-41.09526299773354,-0.14536766916883126,0.03485827109418194,-0.9357308166330476,-0.3509859405516749,-0.001268571886225972
335675.0,320.724244,1.0,1.05,1.57,-11.56,-18.5,19.75,44.69,-80.12,-11.31,100.69,-0.8355860955875536,1.6823449212649204,-1.7550328983826962,-142.39371546553363,-37.58334538545808,-0.8738007636650296,0.007998799194818742,-0.9466315847038048,-0.3221281068370513,-0.007625276269188462
335712.0,320.764753,1.0,0.37,-0.43,-8.81,-17.75,17.5,46.38,-50.56,-26.81,77.12,0.6313445108741856,-0.060303788166764044,1.0012160208186316,-145.11786471435028,-34.87024008490909,-0.6018284940855223,-0.005636813622601421,-0.9540257412648718,-0.2996256475505079,-0.005251920233095718
335747.0,320.790626,1.0,0.32,3.46,-9.24,-15.06,16.0,46.75,-59.56,-9.75,68.44,-2.3131833366827195,1.8235109304206731,0.3845700418628528,-147.3732606695263,-32.45506403205797,-1.0460303228412537,-0.026879964003709376,-0.9597397737623127,-0.27945251829079587,-0.009128209833066678
335781.0,320.824223,1.0,0.38,2.52,-9.63,-15.06,16.0,46.75,-13.88,-0.88,24.75,-1.3727875762408759,1.2455039390984668,0.01911332276558042,-148.13800387781876,-31.57977633021731,-1.3396919689665323,-0.034032885980346476,-0.9615929518742801,-0.2721104259391618,-0.011690751591123144
335818.0,320.866485,1.0,0.4,1.61,-10.22,-13.56,15.75,47.56,7.94,-5.63,-3.88,-0.5324843908501811,0.765109740517117,-0.5050699078750593,-148.001976217557,-31.704555243486993,-1.3075306116229908,-0.03494692458459185,-0.9612664493687284,-0.2731580772752803,-0.011410109525712631
335855.0,320.895162,1.0,0.1,0.26,-9.78,-14.38,15.25,48.0,15.94,-6.38,-7.56,0.3062685312079849,-0.06792198223567941,0.027714158553809654,-147.85839358103658,-31.96740798381448,-0.8707346231804962,-0.027368862312099344,-0.9609203434436538,-0.27536394358536187,-0.007598519920975732
335888.0,320.94119,1.0,-0.09,0.89,-9.88,-14.38,15.25,48.0,0.75,-5.0,0.44,-0.24433071821406013,0.11045077935164598,-0.11013895235134363,-147.83647281441878,-31.94743696771394,-0.692047550448979,-0.03105425661728645,-0.9608673706813258,-0.27519639706655685,-0.0060392174567073
335923.0,320.970632,1.0,-0.2,0.4,-9.64,-13.56,15.69,47.56,9.13,0.63,-7.69,0.02618460859276154,-0.14479116631258798,0.15740392144905613,-147.6220753016806,-32.2294777870219,-0.301414726624866,-0.02617967235627173,-0.9603474136386269,-0.2775617970866205,-0.0026303366637195034
335958.0,321.018245,1.0,0.23,0.24,-10.48,-13.25,15.69,48.0,-2.81,8.38,-0.5,0.3469038703867238,0.045727765316415175,-0.6727806465661548,-147.62360354943132,-32.25005082565589,-0.8052046693491253,-0.023237975986137874,-0.9603511318445958,-0.27773427196915884,-0.007026678492218497
335994.0,321.043005,1.0,0.12,0.47,-10.29,-14.38,15.25,47.19,-4.81,-3.19,1.75,0.06798696368710486,0.033150094286728396,-0.49449939431602985,-147.69076124748787,-32.17604700412733,-1.0842285982867037,-0.023034372015460488,-0.9605143569221916,-0.27711381623041137,-0.009461538269240887
336027.0,321.077286,1.0,0.07,0.77,-10.26,-14.38,15.25,47.19,-0.56,-9.63,-2.38,-0.11772604702358888,0.16174675628474997,-0.480496278958201,-147.5779792009619,-32.24901778661015,-0.8836594277721802,-0.027350638337863657,-0.9602400548604589,-0.27772561165891096,-0.007711306813895402
336064.0,321.116998,1.0,-0.25,-0.05,-9.01,-14.75,15.69,47.56,-3.31,-0.5,0.37,0.32592407162280457,-0.46304956403415887,0.8108477233387017,-147.6097560983742,-32.241893366038944,-0.6377793417992141,-0.025711947048381388,-0.9603174349467738,-0.2776658846547923,-0.0055656459734387525
336099.0,321.138057,1.0,-0.01,0.44,-9.75,-13.56,15.69,48.0,-0.88,3.19,1.5,0.002618645911230861,-0.01895087251868096,0.046740471365810166,-147.6921883410669,-32.192437976002545,-0.7627507888951619,-0.022202551100375358,-0.9605178218573304,-0.27725124981725086,-0.006656207167575215
336134.0,321.191576,1.0,0.09,0.55,-10.27,-13.56,15.69,48.0,1.63,-0.69,-2.5,-0.011486673133868995,0.04985740690291279,-0.47833333957412094,-147.59391081571545,-32.27091957192012,-1.0848343003001701,-0.023267121792233905,-0.9602788592479091,-0.27790921678232167,-0.009466823779721956
336168.0,321.21651,1.0,-0.15,0.8,-9.65,-14.0,15.25,48.75,2.94,-2.31,-4.06,-0.31434666204838674,0.0244509655347874,0.1275184105265179,-147.42816283376186,-32.416640922188144,-0.8513150263617627,-0.025930326925811414,-0.9598742416273984,-0.2791305564095517,-0.007429056753125085
336205.0,321.244687,1.0,-0.07,-0.11,-9.68,-13.25,14.5,47.56,-0.81,-1.31,-1.06,0.4532669715415693,-0.3486823731926401,0.14267723228514484,-147.42352899387032,-32.45599150699351,-0.6521415421433998,-0.023081831931267508,-0.9598629008146408,-0.27946028956854885,-0.005690977830103409
336240.0,321.291674,1.0,0.09,0.58,-10.03,-13.25,14.5,47.56,-1.56,4.69,-1.37,-0.021480165171170216,0.0499941452062332,-0.2403614555498237,-147.34890158636443,-32.498204101139336,-1.1797554334557705,-0.024746114357953403,-0.9596800422783841,-0.27981396792818797,-0.010295126469600931
336273.0,321.346102,1.0,0.08,-0.14,-10.21,-14.0,16.0,47.19,-0.19,0.0,1.0,0.5279747060433618,-0.31285277685986956,-0.38616442241491633,-147.41938695897704,-32.464059244855626,-1.0691828726652568,-0.021442504411010924,-0.9598527623118972,-0.27952788806968903,-0.009330245339948603
