TIME,ELAPSED_SECONDS,PSTATE,acc_x,acc_y,acc_z,mag_x,mag_y,mag_z,gyr_x,gyr_y,gyr_z,lin_x,lin_y,lin_z,eul_x,eul_y,eul_z,qua_w,qua_x,qua_y,qua_z
460118.0,445.331684,1.0,-1.57,-0.54,-9.74,-8.56,17.87,48.38,1.94,1.0,-3.19,0.032936078854978526,-0.04450795862930068,-0.07368573601263151,-139.44737528654915,-39.32796652986933,9.494320402884311,-0.0034477006828137987,-0.938032287147809,-0.336503373484224,0.08275881380245181
460154.0,445.358141,1.0,-1.62,-0.43,-9.63,-9.25,18.69,47.19,0.0,1.44,0.63,-0.03155059164333182,-0.013379195192984361,0.031936420702496804,-139.44277615867355,-39.27372820715872,9.701916774802534,-0.005976207134360358,-0.9380183777065751,-0.336057620025429,0.08456408254014525
460187.0,445.397244,1.0,-1.61,-0.5,-9.94,-9.25,18.69,47.19,-2.0,4.31,1.69,-0.026012928493943415,-0.025576292966346892,-0.27523321598644657,-139.53273472385698,-39.25772059815403,9.430496802579341,-0.0027909422729356934,-0.9382901709470423,-0.33592604833599143,0.08220374562490633
460224.0,445.438036,1.0,-1.54,-0.36,-9.79,-8.56,18.25,47.56,-2.25,0.19,1.44,-0.03662213263080756,0.03703865559281938,-0.11013309520751058,-139.64063406848916,-39.18726708148241,9.247916604372417,-0.006684894656258017,-0.9386154061987084,-0.3353468903291403,0.08061572164561945
460259.0,445.480357,1.0,-1.59,-0.41,-9.84,-8.56,17.87,48.38,-0.19,2.44,1.63,0.01530144362151814,0.011163899435786884,-0.16939336564213647,-139.64309883874495,-39.10973186466676,9.525011772455105,-0.007972235485462309,-0.9386228259035759,-0.334709371213527,0.0830257247845227
460292.0,445.516423,1.0,-1.76,-0.46,-9.63,-8.56,17.87,48.38,-0.63,0.06,0.88,-0.04105194365678931,-0.1209823682638167,0.007171544261074914,-139.57867011072128,-39.072279363622606,9.910057700990215,-0.00817322711164732,-0.9384287332479405,-0.33440136998065234,0.08637380811513416
460328.0,445.537032,1.0,-1.72,-0.62,-9.67,-8.19,18.25,48.38,-2.94,6.06,1.81,0.06929407495745199,-0.1657373014651795,-0.03303645222391616,-139.60837580121785,-39.04144448903429,9.933074827325145,-0.0058056974306055975,-0.9385182590144817,-0.3341477638576182,0.08657391802802936
460363.0,445.578032,1.0,-1.64,-0.24,-9.82,-8.19,17.5,47.19,-5.75,9.75,6.69,-0.11823667688873998,0.03976507346365865,-0.15146422043203422,-139.97400626610192,-38.79937217264202,9.389464483206078,-0.009855490403214331,-0.9396150134038265,-0.3321559641247023,0.08184687771337598
460398.0,445.604835,1.0,-1.44,0.3,-10.53,-8.19,17.5,47.19,-3.56,-0.19,-0.5,-0.3061696457346783,0.5588207733732613,-0.8064776959846842,-140.02442484464203,-38.806244455370845,9.098812703315033,-0.013571348793714733,-0.9397654999998274,-0.332212530567215,0.07931871176538864
460431.0,445.647722,1.0,-1.24,0.34,-11.35,-9.25,17.87,47.56,2.94,-19.37,-8.0,-0.06919951219468834,0.8963148071421607,-1.580515195693339,-139.6855881373029,-39.05496475981242,9.428515451767437,-0.01623307002825677,-0.9387506632902042,-0.3342589663637436,0.08218651358405016
460468.0,445.698973,1.0,-1.86,2.86,-8.96,-9.0,18.25,46.75,16.25,-55.06,-19.0,-2.4364611694511504,1.9667134694414743,0.7448347790371344,-138.59715620673714,-39.60045259096223,11.371811130649757,-0.019978279420719086,-0.9354352584351405,-0.3387416363464896,0.09907496875130531
460503.0,445.711949,1.0,-1.63,2.65,-8.19,-9.0,18.25,46.75,54.19,-51.31,-75.19,-2.189616571459396,2.3343651816179074,1.6511721802250978,-135.68377853341602,-41.93632763397668,13.630791129034188,-0.010665093734697572,-0.9261465788640483,-0.35784915382003346,0.11867077712872467
460537.0,445.752073,1.0,-1.84,-1.26,-6.35,-7.06,17.87,47.19,88.0,6.5,-144.19,-0.08071644473359149,-0.4985683388755584,3.0954195266053928,-130.799187065286,-46.54840332633952,14.830237636055998,0.022584461172094377,-0.9092331558476224,-0.39513191737645526,0.12905726748751983
460572.0,445.786065,1.0,-1.12,-2.35,-7.64,-6.25,19.37,47.19,70.94,57.38,-147.0,0.5760060690462689,-0.4222637023745668,1.7669727444082834,-126.16404693631311,-51.25226970367998,13.828877131592998,0.0583409318308445,-0.8916555344735986,-0.4324970650170635,0.12038701037626855
460609.0,445.817544,1.0,-1.25,-4.83,-4.51,-11.19,22.0,45.19,46.5,99.94,-105.31,1.3951406414296386,-3.345086520482908,4.141362826244829,-123.09620715147501,-54.41963504929089,11.329877976037992,0.09030539848901292,-0.87921740905478,-0.4572503201795828,0.09871082673349087
460644.0,445.858059,1.0,0.86,-6.71,-8.43,-11.19,22.0,45.19,22.81,216.63,-61.0,2.675419945847119,-3.2541008140857945,-0.14732187082270265,-121.86758741310348,-55.533257000120145,4.8411187234203155,0.13115325280912823,-0.8740589172098338,-0.4658713436615452,0.042234164825938315
460679.0,445.898074,1.0,3.68,-6.2,-11.94,-17.19,21.69,42.25,-35.19,208.88,15.38,2.8373572793710857,-1.528365090152285,-3.7638880814617597,-122.80758599353908,-53.848920985523705,-2.159697244014732,0.15392631097604909,-0.8780146630401438,-0.4528153908252923,-0.018845798140308765
460718.0,445.934014,1.0,4.27,-4.61,-12.95,-24.0,21.87,39.0,-73.19,166.75,68.0,1.3540490730890764,-0.7967036165042001,-4.501365741363848,-125.19357926352173,-50.35313474117694,-8.251112781341432,0.16025273637705476,-0.8877895980603654,-0.4254092029338197,-0.07194233884642016
460752.0,445.970109,1.0,4.54,-4.21,-12.82,-24.0,21.87,39.0,-90.0,109.12,102.62,1.0941854811698795,-0.9998962245172707,-4.352836772937538,-128.69730743085017,-45.81758783576742,-12.46583356125284,0.15518363840981883,-0.9014449456137074,-0.3892653316912729,-0.10857048374523234
460787.0,446.002071,1.0,5.36,1.2,-14.2,-30.0,21.06,36.88,-108.44,9.13,116.19,-2.0647447639323953,2.8269270767502443,-5.010735476613281,-133.5488613682648,-41.40202354348386,-13.783266802563594,0.12711942560250516,-0.9189594437721875,-0.35349136249471647,-0.11999187046641938
460822.0,446.033613,1.0,4.78,1.46,-14.77,-30.69,21.5,35.69,-43.56,-116.25,58.0,-1.8420306170550382,3.067676696335233,-5.369949846230169,-136.99168999852014,-39.81094415849013,-10.412421513617652,0.10109098379054296,-0.9303909874371077,-0.3404693516301234,-0.09074053169685153
460859.0,446.074656,1.0,4.43,1.67,-15.75,-26.56,21.06,39.19,3.19,-333.31,20.25,-0.2694082044952082,5.2580732351330335,-5.773991356289812,-139.04427063317192,-40.22214456440397,0.39828982679084074,0.06444405633308659,-0.9368074164168125,-0.3438411660471061,0.003475727429118522
460894.0,446.103417,1.0,1.64,0.72,-6.54,-26.56,21.06,39.19,39.69,-440.13,3.06,0.7840172443198998,3.346029525839854,3.9612241495749876,-136.18716547854726,-40.822652642415854,14.8931440773863,0.02773384077185379,-0.9277944725791758,-0.3487573239105821,0.129601619381472
460929.0,446.149293,1.0,-2.34,-2.42,-7.62,-15.56,22.69,45.38,-3.5,-289.13,2.56,1.4981264119304147,-0.15371070292626765,1.6134582975141836,-131.7183463328231,-40.88963317485237,24.563021601412412,-0.0018855485496153,-0.9125429844711271,-0.3493050797830625,0.2127150851184365
460965.0,446.172232,1.0,-3.68,-0.26,-6.59,-1.5,23.75,45.5,-48.13,-233.0,42.75,-0.1881268977597686,0.5814412211222459,2.2790584610866986,-128.1099228939111,-39.59283046954279,31.704183749386342,-0.045790735962060757,-0.899214143832249,-0.3386790524774022,0.2731549586683299
461002.0,446.217117,1.0,-6.07,0.06,-2.23,-1.5,23.75,45.5,34.88,-105.69,-39.94,-2.9326414589644987,-2.2881604851710566,4.516533208542146,-124.64259914380555,-40.32086501784776,35.900870090568745,-0.0447766217165947,-0.8855663685136536,-0.34465000938944285,0.30819414681827734
461035.0,446.24404,1.0,-6.45,-2.44,-2.54,9.0,22.37,45.88,16.44,1.37,-15.56,-1.2350361726223238,-3.8625624314865252,3.67778410856598,-124.14145440871073,-40.636096759158214,36.35660052362255,-0.03851143516278324,-0.8835264462953797,-0.3472310727917341,0.31197511142118683
461070.0,446.283934,1.0,-6.03,-1.1,-2.73,12.38,23.56,44.69,13.56,88.87,-12.63,-2.1617407562617528,-2.858613259207318,4.133995670940191,-125.71494299186811,-40.966640893169455,33.91298669457107,-0.024741519206935906,-0.8898744255431289,-0.3499346888558521,0.29164546546616693
461107.0,446.332803,1.0,-5.06,-2.6,-0.34,12.0,23.87,44.69,-1.75,241.5,-0.63,-1.2174979356876583,-4.80830619802028,7.0000345502676975,-130.5768772922048,-41.1091701894078,26.23200871533203,0.0010004313669665298,-0.9084238402708772,-0.351099580074128,0.22692335806690966
461142.0,446.383569,1.0,-1.14,-0.92,-5.15,12.0,23.87,44.69,-54.63,358.31,24.25,0.15021722706705076,-0.20801598482734168,4.458504140475544,-136.98388742272945,-40.527744351953885,13.54204430363241,0.023747262433475327,-0.9303660255008075,-0.3463441972621623,0.1179017520801728
461178.0,446.402109,1.0,1.2,1.75,-10.44,4.5,23.87,45.56,-10.5,406.63,-21.37,-1.7769584667882392,2.4614655539429857,-0.4050935305662602,-138.68757964654625,-40.62308671619814,-0.2437193661756182,0.06276516937362177,-0.935713910148414,-0.34712460064463874,-0.0021268510918489407
461215.0,446.44067,1.0,3.65,-0.42,-14.7,-9.69,21.69,45.56,37.06,355.25,-64.25,-1.4550296096739035,0.6997325675216246,-5.259277225661277,-134.41685443605408,-41.78136731045336,-11.913299678252285,0.11018241328539567,-0.9219201384560869,-0.3565860921249116,-0.10377597513297397
461250.0,446.470591,1.0,4.67,-4.29,-15.82,-9.69,21.69,45.56,32.38,100.56,-36.88,0.6512073700275978,-1.9086054204222846,-7.1172548186391165,-131.85544930698347,-42.67413525256115,-14.769391916958954,0.13214908577733347,-0.9130316559492125,-0.3638539140311277,-0.12853071075459907
461283.0,446.492422,1.0,3.92,-1.83,-11.07,-25.5,22.06,40.25,-0.25,-9.19,0.19,0.04477338426801414,0.05365611975007245,-2.078437983051474,-131.98770258366014,-42.633163491898266,-14.265953643039099,0.13397093466716534,-0.9135018033570991,-0.36352085234668335,-0.12417259696436585
461320.0,446.534664,1.0,3.53,-2.79,-9.66,-29.56,22.37,36.88,-16.5,19.19,21.0,0.8708035176620559,-0.7569542544502599,-0.7871841260516739,-132.59681130956616,-41.66128629845327,-14.8852647643848,0.1354523339368112,-0.9156514081557257,-0.35560687866221585,-0.1295334390094828
461357.0,446.571743,1.0,3.53,0.21,-10.31,-29.87,22.37,36.06,-14.19,26.81,10.19,-1.4977564414120281,0.9885782196556494,-0.9441889786951627,-132.78855944968367,-41.18657273639586,-15.990840056891843,0.13149186133115054,-0.9163227550945215,-0.351731963232454,-0.13909394285984783
461391.0,446.610112,1.0,3.75,-2.17,-10.82,-29.87,22.37,36.06,6.25,-1.31,-6.81,0.12886116543403237,-0.46370367884743224,-1.8386140029441265,-132.61692225960553,-41.38721406661621,-15.586331470184387,0.13489250240323258,-0.915721940821547,-0.3533704663078385,-0.13559739464603854
461428.0,446.649587,1.0,3.2,-1.25,-9.27,-29.87,22.75,35.25,-2.63,-5.19,5.75,-0.2389742802537414,0.03403562729430165,-0.07652423045106005,-133.01253360690808,-41.25829897133991,-15.285626965243555,0.1307852250176358,-0.917103682618816,-0.3523178273516372,-0.13299702543408387
461463.0,446.674997,1.0,2.72,-1.18,-8.94,-29.56,22.37,35.69,12.31,4.25,-9.25,-0.47675112670327635,-0.17323017086729808,0.4014865420324316,-132.70243552592507,-41.64168238535887,-15.036348086268632,0.13207085128039847,-0.9160215360365704,-0.35544697934758385,-0.13084066887612375
461498.0,446.722242,1.0,3.16,-2.35,-10.1,-29.56,22.37,35.69,-5.75,-1.88,4.5,0.2535019897257221,-0.7617751323405819,-1.0041564171435713,-133.0202526994542,-41.398337427121504,-14.707845958426086,0.13248852753011597,-0.9171305342322847,-0.35346127167890884,-0.12799805730882957
