acc_x,acc_y,acc_z,lin_x,lin_y,lin_z,eul_x,eul_y,eul_z
5.72,4.16,6.31,-0.2044397073392748,-0.719203358050799,0.3577849392727845,-43.77680902972838,4.814261580058959,-82.23418197710798
5.72,4.16,6.31,-0.2044397073392748,-0.719203358050799,0.3577849392727845,-43.77680902972838,4.814261580058959,-82.23418197710798
5.24,4.09,6.78,-0.0044741198190075,-0.1670705614171734,0.3131697419618771,-43.36956859779122,4.539012581284228,-82.12775101851454
5.24,4.09,6.78,-0.0044741198190075,-0.1670705614171734,0.3131697419618771,-43.36956859779122,4.539012581284228,-82.12775101851454
5.03,4.04,7.23,0.2019399867843409,0.2053719260636177,0.1209676485225141,-43.19697398702748,4.389930414609093,-82.21897227441269
5.03,4.04,7.23,0.2019399867843409,0.2053719260636177,0.1209676485225141,-43.19697398702748,4.389930414609093,-82.21897227441269
5.42,4.48,6.83,-0.4192648755366422,-0.3591938866953557,0.0193676031391678,-42.4092712076169,4.3669953627837845,-82.76763818442198
5.42,4.48,6.83,-0.4192648755366422,-0.3591938866953557,0.0193676031391678,-42.4092712076169,4.3669953627837845,-82.76763818442198
5.42,3.93,6.74,-0.0114772271907171,-0.5538429386985215,0.3228729954247757,-41.91802433278389,4.1720543955147065,-83.10407566239712
5.42,3.93,6.74,-0.0114772271907171,-0.5538429386985215,0.3228729954247757,-41.91802433278389,4.1720543955147065,-83.10407566239712
5.0,3.98,7.54,0.1456865368947042,0.2003640034535796,-0.0741713069100526,-41.45208595969682,4.49314033842009,-83.19598327143912
5.0,3.98,7.54,0.1456865368947042,0.2003640034535796,-0.0741713069100526,-41.45208595969682,4.49314033842009,-83.19598327143912
6.45,5.1,7.36,-0.8974510999530044,-1.047753335799854,-1.1422720688848411,-40.69340241756593,4.733977821845079,-83.39534135240477
6.45,5.1,7.36,-0.8974510999530044,-1.047753335799854,-1.1422720688848411,-40.69340241756593,4.733977821845079,-83.39534135240477
8.16,3.72,5.35,-0.2082792935830602,-3.964745695177152,0.1482903406976614,-39.656282501806686,3.954193464226632,-82.72182782084748
8.16,3.72,5.35,-0.2082792935830602,-3.964745695177152,0.1482903406976614,-39.656282501806686,3.954193464226632,-82.72182782084748
11.0,8.12,6.34,-3.40004321526232,-5.754591414815228,-3.700917648651017,-38.50113546048416,5.101008867683621,-80.73683070850339
11.0,8.12,6.34,-3.40004321526232,-5.754591414815228,-3.700917648651017,-38.50113546048416,5.101008867683621,-80.73683070850339
12.59,10.83,5.58,-4.9928326339553335,-8.426304098997946,-4.719272398268592,-36.93902480540506,5.869654220523909,-75.02001646610674
12.59,10.83,5.58,-4.9928326339553335,-8.426304098997946,-4.719272398268592,-36.93902480540506,5.869654220523909,-75.02001646610674
13.25,9.9,8.67,-0.9411612954649158,-7.3573996084295,-7.331736342296066,-39.15723801119543,6.627085616027942,-65.94002274269204
13.25,9.9,8.67,-0.9411612954649158,-7.3573996084295,-7.331736342296066,-39.15723801119543,6.627085616027942,-65.94002274269204
12.22,5.36,6.49,5.157409020909032,-5.352991884161924,-3.0356515880776893,-47.29392563415834,5.1354206546912415,-52.96186978619433
12.22,5.36,6.49,5.157409020909032,-5.352991884161924,-3.0356515880776893,-47.29392563415834,5.1354206546912415,-52.96186978619433
8.24,13.6,7.22,-2.1441137738491545,-3.698918979121368,-7.125767857786468,-51.06207881053215,7.717845476549469,-46.18291852714496
8.24,13.6,7.22,-2.1441137738491545,-3.698918979121368,-7.125767857786468,-51.06207881053215,7.717845476549469,-46.18291852714496
8.86,13.37,7.94,0.4190518661279663,-1.1946506392399927,-8.045445265924899,-59.286754689259176,9.441564242690683,-37.33794513405029
8.86,13.37,7.94,0.4190518661279663,-1.1946506392399927,-8.045445265924899,-59.286754689259176,9.441564242690683,-37.33794513405029
6.42,14.59,8.93,0.0367777727524885,2.3076070802572417,-8.31800163688886,-67.02240272652745,9.98208514628972,-25.8176204619052
6.42,14.59,8.93,0.0367777727524885,2.3076070802572417,-8.31800163688886,-67.02240272652745,9.98208514628972,-25.8176204619052
4.32,15.61,9.95,-0.7177434313579474,5.2205472362930285,-8.457186697703351,-73.38211475609262,9.4070701841208,-18.019205613951
4.32,15.61,9.95,-0.7177434313579474,5.2205472362930285,-8.457186697703351,-73.38211475609262,9.4070701841208,-18.019205613951
2.36,13.5,10.15,-0.1313424698823524,8.58149346840812,-4.930473837685356,-83.27262296307823,6.868145731332586,-8.315183354403652
2.36,13.5,10.15,-0.1313424698823524,8.58149346840812,-4.930473837685356,-83.27262296307823,6.868145731332586,-8.315183354403652
2.8,12.21,8.24,1.5462754236263667,8.620280752751178,-2.3638673291046555,-91.28639832349864,4.6536963885673295,-1.4782721132478738
2.8,12.21,8.24,1.5462754236263667,8.620280752751178,-2.3638673291046555,-91.28639832349864,4.6536963885673295,-1.4782721132478738
0.85,9.93,7.13,0.5564814553475964,9.176951790148443,1.704910419444133,-102.1191689740896,1.7533192633889718,7.557060298129735
0.85,9.93,7.13,0.5564814553475964,9.176951790148443,1.704910419444133,-102.1191689740896,1.7533192633889718,7.557060298129735
0.0,7.97,5.48,0.1462247963968807,7.959547522855594,4.313424941773996,-109.57120014176904,-0.8479852761926534,13.78420515869276
0.0,7.97,5.48,0.1462247963968807,7.959547522855594,4.313424941773996,-109.57120014176904,-0.8479852761926534,13.78420515869276
-0.84,8.18,4.82,-0.1704827753858284,8.248039430746077,5.032638984914821,-117.27684633570152,-4.045922594423996,20.56480245757989
-0.84,8.18,4.82,-0.1704827753858284,8.248039430746077,5.032638984914821,-117.27684633570152,-4.045922594423996,20.56480245757989
0.38,6.23,0.83,1.954241447897045,4.746427091277174,6.159929523940532,-125.04696377500797,-8.510515201802361,23.858067126010045
0.38,6.23,0.83,1.954241447897045,4.746427091277174,6.159929523940532,-125.04696377500797,-8.510515201802361,23.858067126010045
-1.18,4.5,0.38,0.4244358756598744,3.597497829836371,6.863069943032729,-129.03054304377298,-12.273289521851868,26.27632678993584
-1.18,4.5,0.38,0.4244358756598744,3.597497829836371,6.863069943032729,-129.03054304377298,-12.273289521851868,26.27632678993584
-2.58,3.07,0.31,-0.9147057875156868,2.982406490791606,7.267759524621156,-131.48269259246572,-18.25128911402984,29.014203146635065
-2.58,3.07,0.31,-0.9147057875156868,2.982406490791606,7.267759524621156,-131.48269259246572,-18.25128911402984,29.014203146635065
-3.21,0.8,-0.31,-2.0344100134652567,1.244009267351028,7.492818363977824,-132.7820481898819,-22.524498571325392,29.95028992789253
-3.21,0.8,-0.31,-2.0344100134652567,1.244009267351028,7.492818363977824,-132.7820481898819,-22.524498571325392,29.95028992789253
-1.35,0.63,-2.32,0.2277886916719395,-0.0334405542057595,7.0591431226144685,-134.1748557862076,-27.006438787370872,30.05706136986712
-1.35,0.63,-2.32,0.2277886916719395,-0.0334405542057595,7.0591431226144685,-134.1748557862076,-27.006438787370872,30.05706136986712
-1.02,-2.11,-3.74,-0.325974409440255,-2.6742928004016284,6.310652473955381,-135.8217429117077,-28.978694933911964,29.464221664430085
-1.02,-2.11,-3.74,-0.325974409440255,-2.6742928004016284,6.310652473955381,-135.8217429117077,-28.978694933911964,29.464221664430085
-0.54,-1.46,-5.65,1.1284305977478128,-2.3932292026259057,4.57742459179994,-136.90081703525604,-31.507090202315183,27.631452438914533
-0.54,-1.46,-5.65,1.1284305977478128,-2.3932292026259057,4.57742459179994,-136.90081703525604,-31.507090202315183,27.631452438914533
-0.88,-2.23,-5.82,0.5246734582247751,-2.5036372368371067,4.055457223839815,-136.58990657854866,-33.416687431310486,26.641245110498453
-0.88,-2.23,-5.82,0.5246734582247751,-2.5036372368371067,4.055457223839815,-136.58990657854866,-33.416687431310486,26.641245110498453
0.87,-4.25,-7.93,1.548423629122383,-4.678034958860546,2.228875050289888,-136.40437355406192,-35.17957649356332,24.78412249918103
0.87,-4.25,-7.93,1.548423629122383,-4.678034958860546,2.228875050289888,-136.40437355406192,-35.17957649356332,24.78412249918103
0.48,-4.66,-8.02,0.9770211789894032,-4.28994961611953,1.62690905624377,-135.94379329724794,-36.44404119171296,23.21428107252436
0.48,-4.66,-8.02,0.9770211789894032,-4.28994961611953,1.62690905624377,-135.94379329724794,-36.44404119171296,23.21428107252436
-0.14,-3.75,-7.75,0.5359781710214662,-2.8649087603615446,1.704204369513354,-135.79128033679729,-38.18570299849585,20.27371434520358
-0.14,-3.75,-7.75,0.5359781710214662,-2.8649087603615446,1.704204369513354,-135.79128033679729,-38.18570299849585,20.27371434520358
0.22,-2.66,-7.66,0.8673248809619645,-2.010551493481721,1.99607830242736,-135.97435612355386,-39.9000028418168,16.30403579859025
0.22,-2.66,-7.66,0.8673248809619645,-2.010551493481721,1.99607830242736,-135.97435612355386,-39.9000028418168,16.30403579859025
2.17,-3.65,-11.43,2.3301285661738955,-3.6260472700663455,-1.5994265410523507,-136.46613430112782,-40.38800996971994,13.380300633180664
2.17,-3.65,-11.43,2.3301285661738955,-3.6260472700663455,-1.5994265410523507,-136.46613430112782,-40.38800996971994,13.380300633180664
0.39,-1.45,-9.45,1.4557874834191926,-0.9093356945569016,0.3933141726896441,-137.655868969081,-40.13171155486349,10.9717089235085
0.39,-1.45,-9.45,1.4557874834191926,-0.9093356945569016,0.3933141726896441,-137.655868969081,-40.13171155486349,10.9717089235085
0.22,-1.68,-9.74,0.9532426468148608,-0.8885513414254183,0.0066395423553515,-138.5209607780903,-39.76593345094053,9.154139652218912
0.22,-1.68,-9.74,0.9532426468148608,-0.8885513414254183,0.0066395423553515,-138.5209607780903,-39.76593345094053,9.154139652218912
0.66,-1.79,-10.22,0.7783220924553709,-1.0965947199144672,-0.5025592199475533,-138.94369485234358,-40.009738335861776,6.133576755953128
0.66,-1.79,-10.22,0.7783220924553709,-1.0965947199144672,-0.5025592199475533,-138.94369485234358,-40.009738335861776,6.133576755953128
1.82,-2.0,-11.35,1.3575787608997327,-1.870003785454179,-1.6299126719893842,-138.9763854221543,-40.22932427895751,4.516076369343336
1.82,-2.0,-11.35,1.3575787608997327,-1.870003785454179,-1.6299126719893842,-138.9763854221543,-40.22932427895751,4.516076369343336
1.62,-2.85,-11.46,0.6832378123152195,-2.2004688140529143,-1.8882045561799696,-139.96897956123578,-39.1694005926484,4.022990071019942
1.62,-2.85,-11.46,0.6832378123152195,-2.2004688140529143,-1.8882045561799696,-139.96897956123578,-39.1694005926484,4.022990071019942
2.28,-1.35,-12.64,2.202117856689601,-1.2905295260231504,-2.853354363652929,-141.3650146581067,-37.79789028318413,3.5414428939599265
2.28,-1.35,-12.64,2.202117856689601,-1.2905295260231504,-2.853354363652929,-141.3650146581067,-37.79789028318413,3.5414428939599265
2.0,-2.02,-12.23,1.7130351282609224,-1.7414322319705196,-2.5094461522228406,-142.5249164652642,-36.56470362370221,4.240855681461491
2.0,-2.02,-12.23,1.7130351282609224,-1.7414322319705196,-2.5094461522228406,-142.5249164652642,-36.56470362370221,4.240855681461491
0.82,-1.04,-11.0,1.367735960029462,-0.5418687629162298,-1.1746830970068434,-143.3907030739344,-35.67278424373711,5.238658808769412
0.82,-1.04,-11.0,1.367735960029462,-0.5418687629162298,-1.1746830970068434,-143.3907030739344,-35.67278424373711,5.238658808769412
0.31,-1.35,-11.04,1.067427008525737,-0.6101513422278422,-1.2517637615232786,-144.65224571956077,-34.14721243955784,6.730393436549607
0.31,-1.35,-11.04,1.067427008525737,-0.6101513422278422,-1.2517637615232786,-144.65224571956077,-34.14721243955784,6.730393436549607
-0.38,-0.77,-10.88,0.964162959673087,0.0709400816258878,-1.064277158803586,-145.37657897397716,-33.2731430190265,7.8212153932673
-0.38,-0.77,-10.88,0.964162959673087,0.0709400816258878,-1.064277158803586,-145.37657897397716,-33.2731430190265,7.8212153932673
-0.75,-1.31,-10.82,0.7046959528063463,-0.4151097028309946,-1.0874808762431358,-145.7248595525418,-32.424928041950515,9.890066196362191
-0.75,-1.31,-10.82,0.7046959528063463,-0.4151097028309946,-1.0874808762431358,-145.7248595525418,-32.424928041950515,9.890066196362191
-1.7,-1.02,-9.33,0.1968803253169446,0.1081033617066241,0.2709878939535137,-146.2735608004224,-30.90031526443885,12.526874248925028
-1.7,-1.02,-9.33,0.1968803253169446,0.1081033617066241,0.2709878939535137,-146.2735608004224,-30.90031526443885,12.526874248925028
-2.3,-1.19,-8.61,-0.2850090683494551,0.1402693447672816,0.8212566117349596,-146.59103083752737,-29.74868303296809,14.361511562916563
-2.3,-1.19,-8.61,-0.2850090683494551,0.1402693447672816,0.8212566117349596,-146.59103083752737,-29.74868303296809,14.361511562916563
-2.66,-0.72,-7.95,-0.3163357193688877,0.5637293751117477,1.4174521298644098,-146.71084020226166,-28.71838798339577,16.072546557241562
-2.66,-0.72,-7.95,-0.3163357193688877,0.5637293751117477,1.4174521298644098,-146.71084020226166,-28.71838798339577,16.072546557241562
-3.19,-0.08,-7.59,-0.3786254219988051,1.1839519339434363,1.6675161021010432,-146.951724947316,-27.4544775660039,17.798795314151782
-3.19,-0.08,-7.59,-0.3786254219988051,1.1839519339434363,1.6675161021010432,-146.951724947316,-27.4544775660039,17.798795314151782
-2.83,-0.33,-8.26,0.1308688442009592,0.6764064582031825,1.0962683982032946,-147.0728095954594,-26.73546210533703,18.715683728517146
-2.83,-0.33,-8.26,0.1308688442009592,0.6764064582031825,1.0962683982032946,-147.0728095954594,-26.73546210533703,18.715683728517146
-3.54,-0.08,-8.12,-0.3291249571413697,1.1315315162270698,1.0269169066553283,-146.951724947316,-26.47640945025204,19.33148601143644
-3.54,-0.08,-8.12,-0.3291249571413697,1.1315315162270698,1.0269169066553283,-146.951724947316,-26.47640945025204,19.33148601143644
-3.74,0.03,-8.29,-0.3775388552379325,1.2333778424688877,0.8039368805846987,-146.9114591288739,-26.41755310589251,19.54075377357945
-3.74,0.03,-8.29,-0.3775388552379325,1.2333778424688877,0.8039368805846987,-146.9114591288739,-26.41755310589251,19.54075377357945
-3.24,-0.2,-9.01,0.1418471618563856,0.7805567428466001,0.262630377541651,-146.871240884656,-26.629469277048536,19.284990927591146
-3.24,-0.2,-9.01,0.1418471618563856,0.7805567428466001,0.262630377541651,-146.871240884656,-26.629469277048536,19.284990927591146
-2.97,-0.75,-9.37,0.1761151900151448,0.2447564763448881,-0.0467442226591732,-146.83107004149562,-27.053580833430228,18.76214012304259
-2.97,-0.75,-9.37,0.1761151900151448,0.2447564763448881,-0.0467442226591732,-146.83107004149562,-27.053580833430228,18.76214012304259
-2.43,-1.33,-9.67,0.45668944022867,-0.4751783280668571,-0.2306972746398088,-146.5511870394875,-27.43088596976693,18.646004953165537
-2.43,-1.33,-9.67,0.45668944022867,-0.4751783280668571,-0.2306972746398088,-146.5511870394875,-27.43088596976693,18.646004953165537
-2.5,-1.59,-9.67,0.2959693732418061,-0.6341047234957959,-0.2828154630333711,-146.15525518443252,-27.89113735405041,18.704070115126303
-2.5,-1.59,-9.67,0.2959693732418061,-0.6341047234957959,-0.2828154630333711,-146.15525518443252,-27.89113735405041,18.704070115126303
-2.47,-1.6,-9.62,0.2899608616188632,-0.6445316800606915,-0.2285780299018292,-146.07660730478975,-27.961985822582488,18.634392500869453
-2.47,-1.6,-9.62,0.2899608616188632,-0.6445316800606915,-0.2285780299018292,-146.07660730478975,-27.961985822582488,18.634392500869453
-2.28,-1.0,-9.94,0.7991251612289559,-0.2182953394684385,-0.4068580222936706,-146.1159090950019,-28.04465615754797,18.506668239532367
-2.28,-1.0,-9.94,0.7991251612289559,-0.2182953394684385,-0.4068580222936706,-146.1159090950019,-28.04465615754797,18.506668239532367
-2.67,-0.91,-9.41,0.4054222621121401,0.0409676961959354,-0.0085960202102075,-145.88075748629686,-28.09190303440269,18.86667840059343
-2.67,-0.91,-9.41,0.4054222621121401,0.0409676961959354,-0.0085960202102075,-145.88075748629686,-28.09190303440269,18.86667840059343
-2.73,-1.04,-9.09,0.1721337993301062,-0.0104365369578087,0.260296715429785,-145.8027223342799,-28.25730554929696,18.715683728517146
-2.73,-1.04,-9.09,0.1721337993301062,-0.0104365369578087,0.260296715429785,-145.8027223342799,-28.25730554929696,18.715683728517146
-2.45,-0.73,-9.03,0.4776916174732034,0.1460348369617078,0.4350554427760578,-146.0373496598969,-28.22185710635222,18.402183827223173
-2.45,-0.73,-9.03,0.4776916174732034,0.1460348369617078,0.4350554427760578,-146.0373496598969,-28.22185710635222,18.402183827223173
-2.46,-0.77,-9.05,0.3733538783004439,0.1629484347057983,0.4055301364313557,-146.31308564363076,-28.24548909512887,17.833592505981915
-2.46,-0.77,-9.05,0.3733538783004439,0.1629484347057983,0.4055301364313557,-146.31308564363076,-28.24548909512887,17.833592505981915
-2.23,-1.16,-9.09,0.3031376139203361,-0.237290100299438,0.3833596513305615,-146.59103083752737,-28.292756752714663,17.195903895593172
-2.23,-1.16,-9.09,0.3031376139203361,-0.237290100299438,0.3833596513305615,-146.59103083752737,-28.292756752714663,17.195903895593172
-2.02,-0.52,-8.96,0.499491205103737,0.26819858544044,0.624549039174541,-147.4795905833761,-28.18641141984425,15.713868313956253
-2.02,-0.52,-8.96,0.499491205103737,0.26819858544044,0.624549039174541,-147.4795905833761,-28.18641141984425,15.713868313956253
-1.96,-0.72,-9.17,0.2860185225450149,0.126890292793855,0.4071291474056604,-148.1827256280383,-28.19822634265853,14.25756979612918
-1.96,-0.72,-9.17,0.2860185225450149,0.126890292793855,0.4071291474056604,-148.1827256280383,-28.19822634265853,14.25756979612918
-1.26,-1.2,-10.14,0.4715644741874384,-0.5198712427015264,-0.4575869827326339,-149.20198320614296,-28.26912231018425,11.754779974813852
-1.26,-1.2,-10.14,0.4715644741874384,-0.5198712427015264,-0.4575869827326339,-149.20198320614296,-28.26912231018425,11.754779974813852
-1.03,-1.35,-10.25,0.4424055367956593,-0.7390258202955242,-0.547287327314141,-149.72415559222358,-28.10371551481587,10.741493332748478
-1.03,-1.35,-10.25,0.4424055367956593,-0.7390258202955242,-0.547287327314141,-149.72415559222358,-28.10371551481587,10.741493332748478
-1.26,-0.83,-10.11,0.3294547331588962,-0.2241766152955827,-0.4075462201611249,-150.479330837061,-27.60785191517117,10.097117916179354
-1.26,-0.83,-10.11,0.3294547331588962,-0.2241766152955827,-0.4075462201611249,-150.479330837061,-27.60785191517117,10.097117916179354
-1.52,-0.43,-9.79,0.1522927163729556,0.2173979749706862,-0.1064194060426295,-150.88687816852098,-27.336531426237315,9.717547848465047
-1.52,-0.43,-9.79,0.1522927163729556,0.2173979749706862,-0.1064194060426295,-150.88687816852098,-27.336531426237315,9.717547848465047
-1.21,-0.45,-10.41,0.4068272409424189,0.0464476067448911,-0.6750976699191167,-151.2538864729402,-27.136090647491407,9.119652615329128
-1.21,-0.45,-10.41,0.4068272409424189,0.0464476067448911,-0.6750976699191167,-151.2538864729402,-27.136090647491407,9.119652615329128
-1.37,-0.29,-9.8,0.2119759481961148,0.2607974098057356,-0.0871890379278479,-151.48561418277666,-26.9593013980579,8.970218312913039
-1.37,-0.29,-9.8,0.2119759481961148,0.2607974098057356,-0.0871890379278479,-151.48561418277666,-26.9593013980579,8.970218312913039
-1.15,-0.3,-10.08,0.4236006617102859,0.1656835476514294,-0.3329758038172326,-151.67233263341282,-26.817917077101303,8.832292528579133
-1.15,-0.3,-10.08,0.4236006617102859,0.1656835476514294,-0.3329758038172326,-151.67233263341282,-26.817917077101303,8.832292528579133
-0.95,-0.52,-9.96,0.4753467848537519,-0.1084058216392629,-0.2001873431351395,-151.7661453802759,-26.71190613338563,8.774827247055486
-0.95,-0.52,-9.96,0.4753467848537519,-0.1084058216392629,-0.2001873431351395,-151.7661453802759,-26.71190613338563,8.774827247055486
-0.81,-0.3,-10.31,0.7418830022114129,-0.0072845662477395,-0.5128343159008857,-151.81316645370248,-26.6883513110376,8.76333445653462
-0.81,-0.3,-10.31,0.7418830022114129,-0.0072845662477395,-0.5128343159008857,-151.81316645370248,-26.6883513110376,8.76333445653462
-1.14,-0.23,-9.74,0.4153869445339918,0.1799189270976061,0.0079162621141311,-151.81316645370248,-26.65302123047702,8.92424161449454
-1.14,-0.23,-9.74,0.4153869445339918,0.1799189270976061,0.0079162621141311,-151.81316645370248,-26.65302123047702,8.92424161449454
-1.31,-0.4,-9.75,0.2385191970061597,0.1144101438737378,-0.0355356775636135,-151.6255402012684,-26.75901922805568,9.17713147157167
-1.31,-0.4,-9.75,0.2385191970061597,0.1144101438737378,-0.0355356775636135,-151.6255402012684,-26.75901922805568,9.17713147157167
-1.25,-0.69,-9.6,0.1522464909704021,-0.1591438276493461,0.1035528527944595,-151.57882322936237,-26.75901922805568,9.246109154854068
-1.25,-0.69,-9.6,0.1522464909704021,-0.1591438276493461,0.1035528527944595,-151.57882322936237,-26.75901922805568,9.246109154854068
