acc_x,acc_y,acc_z,lin_x,lin_y,lin_z,eul_x,eul_y,eul_z
5.54,3.57,7.16,-0.0514176699419524,-0.0263105295366465,0.0753210065246872,-41.40308164369669,8.430081473298436,-83.73342264736426
5.54,3.57,7.16,-0.0514176699419524,-0.0263105295366465,0.0753210065246872,-41.40308164369669,8.430081473298436,-83.73342264736426
5.58,3.62,7.01,-0.147859879119223,-0.1310152124800414,0.1452902369932598,-41.42758281113211,8.464552559408572,-83.67188694987544
5.58,3.62,7.01,-0.147859879119223,-0.1310152124800414,0.1452902369932598,-41.42758281113211,8.464552559408572,-83.67188694987544
5.64,3.65,7.17,-0.0966966003771648,-0.0783295661525329,-0.01808990732283,-41.52560730818473,8.384121213370948,-83.77959386115333
5.64,3.65,7.17,-0.0966966003771648,-0.0783295661525329,-0.01808990732283,-41.52560730818473,8.384121213370948,-83.77959386115333
5.73,3.9,7.24,-0.2771067157897873,-0.0667187411345331,-0.2122950780831037,-41.62366360590611,8.384121213370948,-83.70265109878629
5.73,3.9,7.24,-0.2771067157897873,-0.0667187411345331,-0.2122950780831037,-41.62366360590611,8.384121213370948,-83.70265109878629
7.47,5.5,6.98,-1.6761022282284264,-1.3596177619063945,-1.600077000416741,-41.77080790377483,8.567970434690707,-83.6257545843694
7.47,5.5,6.98,-1.6761022282284264,-1.3596177619063945,-1.600077000416741,-41.77080790377483,8.567970434690707,-83.6257545843694
11.17,7.88,5.32,-3.95813874837322,-4.642671302008837,-3.5329317337025223,-43.283258399546064,8.866772764864926,-83.28795636892652
11.17,7.88,5.32,-3.95813874837322,-4.642671302008837,-3.5329317337025223,-43.283258399546064,8.866772764864926,-83.28795636892652
13.17,9.95,5.17,-5.012966655948257,-5.705456385506543,-5.733563407139348,-45.7223943424676,9.246109154854068,-80.8120533305175
13.17,9.95,5.17,-5.012966655948257,-5.705456385506543,-5.733563407139348,-45.7223943424676,9.246109154854068,-80.8120533305175
11.24,10.25,7.06,-2.8558943163471024,-2.3490408709795743,-6.550904054329878,-52.00367866289412,9.660046657878476,-72.75460720541858
11.24,10.25,7.06,-2.8558943163471024,-2.3490408709795743,-6.550904054329878,-52.00367866289412,9.660046657878476,-72.75460720541858
7.46,9.46,7.35,-1.827948983133472,1.3749442868372697,-4.119362735997152,-58.444682614751024,9.855560741569812,-66.45982503485911
7.46,9.46,7.35,-1.827948983133472,1.3749442868372697,-4.119362735997152,-58.444682614751024,9.855560741569812,-66.45982503485911
6.95,13.29,6.97,-3.9702101461450647,2.9020318522602224,-5.983319680905469,-65.65341937322533,10.8450849117299,-59.695899058507344
6.95,13.29,6.97,-3.9702101461450647,2.9020318522602224,-5.983319680905469,-65.65341937322533,10.8450849117299,-59.695899058507344
5.84,14.0,7.6,-3.475311487065041,4.89426153064805,-6.062628941952353,-71.25314422862833,9.98208514628972,-54.438922188166046
5.84,14.0,7.6,-3.475311487065041,4.89426153064805,-6.062628941952353,-71.25314422862833,9.98208514628972,-54.438922188166046
7.16,13.24,5.65,-0.7213190019427258,3.652501144465223,-5.8338306283923576,-79.34522946763786,6.11062569758793,-48.84977960308056
7.16,13.24,5.65,-0.7213190019427258,3.652501144465223,-5.8338306283923576,-79.34522946763786,6.11062569758793,-48.84977960308056
7.2,11.26,4.33,2.2958237442186995,3.3531892799044614,-3.6418374609978152,-88.82192034919494,0.5271230305187238,-43.307915821839245
7.2,11.26,4.33,2.2958237442186995,3.3531892799044614,-3.6418374609978152,-88.82192034919494,0.5271230305187238,-43.307915821839245
5.93,11.34,4.55,3.1669705813309004,5.006929994742512,-2.4148044701002096,-96.19801883290825,-3.174592245464794,-38.18570299849585
5.93,11.34,4.55,3.1669705813309004,5.006929994742512,-2.4148044701002096,-96.19801883290825,-3.174592245464794,-38.18570299849585
5.54,11.6,3.95,4.598875630605384,5.827879993851004,-1.4067463504147657,-105.65120455426174,-8.200293609338797,-31.90019165418321
5.54,11.6,3.95,4.598875630605384,5.827879993851004,-1.4067463504147657,-105.65120455426174,-8.200293609338797,-31.90019165418321
5.2,6.5,1.01,4.725283040292539,2.0702014672370006,3.1963500011971084,-114.38591221182236,-12.134996086138983,-26.94751777725
5.2,6.5,1.01,4.725283040292539,2.0702014672370006,3.1963500011971084,-114.38591221182236,-12.134996086138983,-26.94751777725
5.79,7.47,-0.73,5.586177591132027,1.692369616096383,2.337486392014954,-122.7322966604894,-16.524012627926176,-21.0191686635752
5.79,7.47,-0.73,5.586177591132027,1.692369616096383,2.337486392014954,-122.7322966604894,-16.524012627926176,-21.0191686635752
3.7,5.08,-0.75,4.110399394299677,1.4253437946589669,5.209704069671036,-129.27076347961943,-19.75008736458169,-16.014684599323402
3.7,5.08,-0.75,4.110399394299677,1.4253437946589669,5.209704069671036,-129.27076347961943,-19.75008736458169,-16.014684599323402
2.91,3.03,-1.69,3.1356009754598264,0.1604876108989181,6.543622226682196,-137.02578084639396,-23.31957649574687,-10.074110549810433
2.91,3.03,-1.69,3.1356009754598264,0.1604876108989181,6.543622226682196,-137.02578084639396,-23.31957649574687,-10.074110549810433
2.51,1.14,-3.37,2.114424195434857,-1.5757719940793369,6.342151054346403,-142.63208125401738,-26.158669228245632,-4.63075925768904
2.51,1.14,-3.37,2.114424195434857,-1.5757719940793369,6.342151054346403,-142.63208125401738,-26.158669228245632,-4.63075925768904
0.96,1.28,-3.65,1.10537008466856,-0.6762418143842863,6.037916262469838,-144.99354106549774,-27.41909061621704,-0.0687549395409955
0.96,1.28,-3.65,1.10537008466856,-0.6762418143842863,6.037916262469838,-144.99354106549774,-27.41909061621704,-0.0687549395409955
0.08,0.79,-3.64,0.5234409149906563,-0.4838866785563726,6.14988048431687,-145.84171829017612,-28.966859495010613,5.456620099259026
0.08,0.79,-3.64,0.5234409149906563,-0.4838866785563726,6.14988048431687,-145.84171829017612,-28.966859495010613,5.456620099259026
-1.06,-1.39,-4.39,-1.223676582604584,-1.8256960237736672,5.623678609951752,-145.33809060162469,-30.33004336729311,9.165635515674056
-1.06,-1.39,-4.39,-1.223676582604584,-1.8256960237736672,5.623678609951752,-145.33809060162469,-30.33004336729311,9.165635515674056
-1.09,-0.09,-4.95,-0.1788455521515035,-0.7850461247176521,4.801610854244852,-143.61025532246643,-31.757201337874307,12.745928771149693
-1.09,-0.09,-4.95,-0.1788455521515035,-0.7850461247176521,4.801610854244852,-143.61025532246643,-31.757201337874307,12.745928771149693
-1.59,-0.54,-4.87,-0.6361473775338456,-0.8092883320291839,4.759178463705989,-142.34696199162144,-32.75921457984873,14.869843995469047
-1.59,-0.54,-4.87,-0.6361473775338456,-0.8092883320291839,4.759178463705989,-142.34696199162144,-32.75921457984873,14.869843995469047
-1.79,-2.03,-6.56,-1.0612405612134117,-2.1211345844485567,3.118364977223856,-141.02009032147248,-34.05132504616154,16.51243337847321
-1.79,-2.03,-6.56,-1.0612405612134117,-2.1211345844485567,3.118364977223856,-141.02009032147248,-34.05132504616154,16.51243337847321
-2.91,-3.11,-7.09,-2.251810870591623,-2.4000957587004024,2.2186866268573926,-140.1367137765361,-34.699045966979874,17.729205890532434
-2.91,-3.11,-7.09,-2.251810870591623,-2.4000957587004024,2.2186866268573926,-140.1367137765361,-34.699045966979874,17.729205890532434
-3.28,-2.04,-7.96,-1.5535666666303327,-1.5371276855373412,1.2331286061566438,-139.5691405181039,-34.80711013090355,18.72729753587516
-3.28,-2.04,-7.96,-1.5535666666303327,-1.5371276855373412,1.2331286061566438,-139.5691405181039,-34.80711013090355,18.72729753587516
-2.92,-2.12,-9.63,-0.8174399805613308,-2.1615837645121307,-0.2141806794984564,-139.96897956123578,-34.255115225601216,18.959614614971
-2.92,-2.12,-9.63,-0.8174399805613308,-2.1615837645121307,-0.2141806794984564,-139.96897956123578,-34.255115225601216,18.959614614971
-2.25,-0.64,-11.22,0.8898215055910821,-1.4863360601507043,-1.5229361709280165,-140.8145368825897,-33.811713840931375,18.25128911402984
-2.25,-0.64,-11.22,0.8898215055910821,-1.4863360601507043,-1.5229361709280165,-140.8145368825897,-33.811713840931375,18.25128911402984
-1.69,1.1,-11.71,1.9221606359615144,-0.4669275161393357,-1.909897152819044,-141.02009032147248,-34.687040804634904,15.7832777083714
-1.69,1.1,-11.71,1.9221606359615144,-0.4669275161393357,-1.909897152819044,-141.02009032147248,-34.687040804634904,15.7832777083714
-3.09,-2.87,-10.67,-1.7508149246495366,-2.561964242520516,-1.2389322082709011,-140.17034192327273,-35.865440443720345,15.517239777173634
-3.09,-2.87,-10.67,-1.7508149246495366,-2.561964242520516,-1.2389322082709011,-140.17034192327273,-35.865440443720345,15.517239777173634
-2.7,-3.32,-10.72,-1.6019311300763766,-2.975577549594912,-1.2301319087286036,-140.00247242955643,-36.10640826375515,15.760140597334962
-2.7,-3.32,-10.72,-1.6019311300763766,-2.975577549594912,-1.2301319087286036,-140.00247242955643,-36.10640826375515,15.760140597334962
-1.07,-1.37,-11.51,0.8913468307328098,-2.4702845009311547,-1.53376865681342,-140.23768007093892,-36.03410062770514,15.25128597113998
-1.07,-1.37,-11.51,0.8913468307328098,-2.4702845009311547,-1.53376865681342,-140.23768007093892,-36.03410062770514,15.25128597113998
-2.53,-0.78,-9.66,-0.2730264212722129,-1.0496050273644353,-0.1506933133451067,-140.1367137765361,-35.76909927860193,15.725436142775802
-2.53,-0.78,-9.66,-0.2730264212722129,-1.0496050273644353,-0.1506933133451067,-140.1367137765361,-35.76909927860193,15.725436142775802
-3.51,-0.09,-8.59,-0.8527651144025213,0.0993053903296774,0.5665617915947649,-140.0359922172176,-35.540393572715686,16.084119443363345
-3.51,-0.09,-8.59,-0.8527651144025213,0.0993053903296774,0.5665617915947649,-140.0359922172176,-35.540393572715686,16.084119443363345
-3.42,0.48,-8.17,-0.6198520092316642,0.4189993692193479,0.9683287218813296,-139.9355135446495,-35.408051904136364,15.933684759016296
-3.42,0.48,-8.17,-0.6198520092316642,0.4189993692193479,0.9683287218813296,-139.9355135446495,-35.408051904136364,15.933684759016296
-2.96,0.97,-8.77,0.1130155131439011,0.3208340719337641,0.5061288859937925,-139.9020743124711,-35.287783624982225,15.875832638109523
-2.96,0.97,-8.77,0.1130155131439011,0.3208340719337641,0.5061288859937925,-139.9020743124711,-35.287783624982225,15.875832638109523
-3.25,0.55,-8.88,-0.3129611462111796,0.0183899047319282,0.3398069606142631,-140.06953899210683,-34.795101425948374,16.234582036054892
-3.25,0.55,-8.88,-0.3129611462111796,0.0183899047319282,0.3398069606142631,-140.06953899210683,-34.795101425948374,16.234582036054892
-3.04,0.82,-8.86,-0.006473993637042,0.0497025217780742,0.4039329593390786,-139.9020743124711,-34.795101425948374,16.30403579859025
-3.04,0.82,-8.86,-0.006473993637042,0.0497025217780742,0.4039329593390786,-139.9020743124711,-34.795101425948374,16.30403579859025
-2.23,1.09,-9.94,0.9514710431041448,-0.5101902632195652,-0.3815298545888588,-140.06953899210683,-34.57901199780452,16.095692494623034
-2.23,1.09,-9.94,0.9514710431041448,-0.5101902632195652,-0.3815298545888588,-140.06953899210683,-34.57901199780452,16.095692494623034
-3.12,0.41,-9.25,-0.2699521734456372,-0.4452224247288038,0.0499137210709328,-140.1031128223946,-34.375043949019776,16.269308165184984
-3.12,0.41,-9.25,-0.2699521734456372,-0.4452224247288038,0.0499137210709328,-140.1031128223946,-34.375043949019776,16.269308165184984
-3.34,1.06,-9.13,-0.1269560364428472,0.1252247467921708,0.0289048137312555,-139.63551670559374,-34.71105152226627,16.188282864682783
-3.34,1.06,-9.13,-0.1269560364428472,0.1252247467921708,0.0289048137312555,-139.63551670559374,-34.71105152226627,16.188282864682783
-2.92,1.13,-9.4,0.2749623837370534,-0.1419519126729206,-0.0962559039262931,-139.5359915492729,-34.795101425948374,16.095692494623034
-2.92,1.13,-9.4,0.2749623837370534,-0.1419519126729206,-0.0962559039262931,-139.5359915492729,-34.795101425948374,16.095692494623034
-2.93,0.89,-9.54,0.1676300756815363,-0.3563133033503373,-0.2050202396544449,-139.40365501423122,-34.93923195845143,16.1419863535435
-2.93,0.89,-9.54,0.1676300756815363,-0.3563133033503373,-0.2050202396544449,-139.40365501423122,-34.93923195845143,16.1419863535435
-3.43,0.6,-9.0,-0.4773625965282899,-0.2041777269845389,0.1705026159445246,-139.33764146351638,-34.87917065061918,16.350341655632345
-3.43,0.6,-9.0,-0.4773625965282899,-0.2041777269845389,0.1705026159445246,-139.33764146351638,-34.87917065061918,16.350341655632345
-3.34,0.79,-9.0,-0.3034604740480073,-0.1205851018369463,0.1799646424168663,-139.2059212883253,-34.97527349807247,16.327188391573927
-3.34,0.79,-9.0,-0.3034604740480073,-0.1205851018369463,0.1799646424168663,-139.2059212883253,-34.97527349807247,16.327188391573927
-3.25,0.89,-9.02,-0.1891004770611904,-0.1027568686960437,0.1801926019998934,-139.14021367291954,-35.095437786143385,16.223006993376618
-3.25,0.89,-9.02,-0.1891004770611904,-0.1027568686960437,0.1801926019998934,-139.14021367291954,-35.095437786143385,16.223006993376618
-3.19,1.06,-8.95,-0.087467686840877,-0.0162616180214059,0.2466141756142957,-139.33764146351638,-34.8191192303352,16.13041264048083
-3.19,1.06,-8.95,-0.087467686840877,-0.0162616180214059,0.2466141756142957,-139.33764146351638,-34.8191192303352,16.13041264048083
-2.93,1.52,-9.2,0.4063893292989729,0.1010723759907177,0.0414089846515572,-139.2388131216407,-34.86715957624261,16.014684599323402
-2.93,1.52,-9.2,0.4063893292989729,0.1010723759907177,0.0414089846515572,-139.2388131216407,-34.86715957624261,16.014684599323402
-2.81,0.87,-9.28,0.1536212686243298,-0.4746307364727396,0.0843804002706463,-139.3046731473042,-34.843138613311,16.095692494623034
-2.81,0.87,-9.28,0.1536212686243298,-0.4746307364727396,0.0843804002706463,-139.3046731473042,-34.843138613311,16.095692494623034
-2.98,0.93,-9.38,0.0824986091082784,-0.3686230666935055,-0.0719638204809207,-139.33764146351638,-34.78309311529889,16.1419863535435
-2.98,0.93,-9.38,0.0824986091082784,-0.3686230666935055,-0.0719638204809207,-139.33764146351638,-34.78309311529889,16.1419863535435
-3.1,1.02,-9.28,0.0341349229160217,-0.224719138674,-0.0278370794440121,-139.1730548258568,-34.87917065061918,16.234582036054892
-3.1,1.02,-9.28,0.0341349229160217,-0.224719138674,-0.0278370794440121,-139.1730548258568,-34.87917065061918,16.234582036054892
-3.1,1.05,-9.13,0.0452269668508255,-0.1662411352893124,0.1092421810822408,-138.94369485234358,-35.08341956652468,16.361918539628213
-3.1,1.05,-9.13,0.0452269668508255,-0.1662411352893124,0.1092421810822408,-138.94369485234358,-35.08341956652468,16.361918539628213
-3.05,1.1,-9.2,0.1533093222082389,-0.1790210955370517,0.0548836113360078,-138.6505925631453,-35.31183406453793,16.489275388774946
-3.05,1.1,-9.2,0.1533093222082389,-0.1790210955370517,0.0548836113360078,-138.6505925631453,-35.31183406453793,16.489275388774946
-3.2,0.89,-9.01,-0.0733903360013952,-0.2115892892087035,0.2065435510446658,-138.585728177911,-35.299808644002006,16.801965875210325
-3.2,0.89,-9.01,-0.0733903360013952,-0.2115892892087035,0.2065435510446658,-138.585728177911,-35.299808644002006,16.801965875210325
-3.12,0.82,-9.17,0.0010444683189342,-0.3418940184508867,0.0917744274960767,-138.29503211078548,-35.612600576556765,16.871469682269606
-3.12,0.82,-9.17,0.0010444683189342,-0.3418940184508867,0.0917744274960767,-138.29503211078548,-35.612600576556765,16.871469682269606
-3.04,0.57,-9.15,-0.0569346615563564,-0.5590920412173437,0.1643901749506433,-138.1664535645985,-35.745018073663594,17.033669594732867
-3.04,0.57,-9.15,-0.0569346615563564,-0.5590920412173437,0.1643901749506433,-138.1664535645985,-35.745018073663594,17.033669594732867
-3.32,0.63,-8.95,-0.241780417702985,-0.3335432421630783,0.2488212122876625,-138.0702668424954,-35.696860557625506,17.300215695418142
-3.32,0.63,-8.95,-0.241780417702985,-0.3335432421630783,0.2488212122876625,-138.0702668424954,-35.696860557625506,17.300215695418142
-3.55,0.9,-8.73,-0.2995258056167153,0.0564858324668308,0.3444888492638647,-137.91042216197232,-35.793182116680164,17.32339805412093
-3.55,0.9,-8.73,-0.2995258056167153,0.0564858324668308,0.3444888492638647,-137.91042216197232,-35.793182116680164,17.32339805412093
-3.16,0.61,-9.09,-0.1109871320499897,-0.4694099774953412,0.1758070395137689,-138.10230564989928,-35.696860557625506,17.230672895970507
-3.16,0.61,-9.09,-0.1109871320499897,-0.4694099774953412,0.1758070395137689,-138.10230564989928,-35.696860557625506,17.230672895970507
-3.21,1.18,-9.03,0.1850440757886013,-0.0242900458241941,0.1525022549274499,-138.0702668424954,-35.540393572715686,17.346581127291525
-3.21,1.18,-9.03,0.1850440757886013,-0.0242900458241941,0.1525022549274499,-138.0702668424954,-35.540393572715686,17.346581127291525
-3.41,1.17,-9.01,0.0225634561890812,0.0609631640765605,0.1023790648359046,-137.87852272532075,-35.70889932534101,17.36976491594495
-3.41,1.17,-9.01,0.0225634561890812,0.0609631640765605,0.1023790648359046,-137.87852272532075,-35.70889932534101,17.36976491594495
-3.19,1.04,-9.34,0.1938226845975935,-0.2633278790654744,-0.1123414404158182,-137.655868969081,-35.9377135193296,17.416134643761747
-3.19,1.04,-9.34,0.1938226845975935,-0.2633278790654744,-0.1123414404158182,-137.655868969081,-35.9377135193296,17.416134643761747
-3.39,0.87,-9.13,-0.0454608067418901,-0.2553746322990134,0.032264233506611,-137.30822333899698,-36.1305141127441,17.798795314151782
-3.39,0.87,-9.13,-0.0454608067418901,-0.2553746322990134,0.032264233506611,-137.30822333899698,-36.1305141127441,17.798795314151782
-3.64,0.83,-8.94,-0.278365489839291,-0.1141307540844958,0.1230769597922361,-137.1510918031107,-36.16667598822457,17.961196420173227
-3.64,0.83,-8.94,-0.278365489839291,-0.1141307540844958,0.1230769597922361,-137.1510918031107,-36.16667598822457,17.961196420173227
-3.37,0.8,-9.1,-0.0592544955057193,-0.313460039163558,0.0749938352657597,-136.99450746728783,-36.40785062374676,17.891591511712036
-3.37,0.8,-9.1,-0.0592544955057193,-0.313460039163558,0.0749938352657597,-136.99450746728783,-36.40785062374676,17.891591511712036
-3.07,0.79,-9.32,0.222736949309748,-0.5291670019357324,-0.0209524815554349,-137.088392741319,-36.34754136011127,17.92639313237552
-3.07,0.79,-9.32,0.222736949309748,-0.5291670019357324,-0.0209524815554349,-137.088392741319,-36.34754136011127,17.92639313237552
-3.57,0.9,-8.76,-0.1740699743648375,-0.0338355775254814,0.3060681863573151,-136.9320256088512,-36.33548075823788,18.20486640453508
-3.57,0.9,-8.76,-0.1740699743648375,-0.0338355775254814,0.3060681863573151,-136.9320256088512,-36.33548075823788,18.20486640453508
-3.3,0.76,-9.11,0.0266240754737743,-0.3881540653823657,0.095402521939711,-136.8696299695147,-36.43197725116238,18.20486640453508
-3.3,0.76,-9.11,0.0266240754737743,-0.3881540653823657,0.095402521939711,-136.8696299695147,-36.43197725116238,18.20486640453508
-3.22,0.79,-9.09,0.1336327710402856,-0.4211886401050147,0.1409714199958731,-136.65191882638644,-36.54056778374004,18.4137924426918
-3.22,0.79,-9.09,0.1336327710402856,-0.4211886401050147,0.1409714199958731,-136.65191882638644,-36.54056778374004,18.4137924426918
-3.8,0.91,-8.41,-0.3656168097504293,0.1662115586728824,0.5419374806504962,-136.5279785234642,-36.55263549385707,18.576333132780547
-3.8,0.91,-8.41,-0.3656168097504293,0.1662115586728824,0.5419374806504962,-136.5279785234642,-36.55263549385707,18.576333132780547
-3.63,0.91,-8.81,-0.172315647212074,-0.0360272053795717,0.2363778325954353,-136.43524351543036,-36.74577605968171,18.37896716762953
-3.63,0.91,-8.81,-0.172315647212074,-0.0360272053795717,0.2363778325954353,-136.43524351543036,-36.74577605968171,18.37896716762953
-3.36,0.63,-9.04,-0.1089933459744252,-0.4414755532494571,0.1525669370459397,-136.43524351543036,-36.86654380200172,18.216471799125177
-3.36,0.63,-9.04,-0.1089933459744252,-0.4414755532494571,0.1525669370459397,-136.43524351543036,-36.86654380200172,18.216471799125177
