,TIME,ELAPSED_SECONDS,PSTATE,acc_x,acc_y,acc_z,mag_x,mag_y,mag_z,gyr_x,gyr_y,gyr_z,lin_x,lin_y,lin_z,eul_x,eul_y,eul_z,qua_w,qua_x,qua_y,qua_z
0,1684404.0,237.448513,1.0,6.65,6.36,3.01,-18.0,-31.75,-25.5,1.0,0.12,2.0,-0.08322989099427291,-0.18251855307596052,0.12718928346066605,-70.36742462258441,6.2024314124588535,-64.22724850843996,-0.6185,-0.5762,0.0541,-0.5316
1,1684404.0,237.448513,1.0,6.65,6.36,3.01,-18.0,-31.75,-25.5,1.0,0.12,2.0,-0.08322989099427291,-0.18251855307596052,0.12718928346066605,-70.36742462258441,6.2024314124588535,-64.22724850843996,-0.6185,-0.5762,0.0541,-0.5316
2,1684439.0,237.52239,1.0,6.71,6.38,3.13,-18.75,-31.75,-25.19,1.0,-0.25,0.81,-0.0069707200321956755,-0.11563322644063324,0.03362690752727282,-70.39546823502994,6.2024314124588535,-64.25430887597265,-0.6182,-0.5764,0.0541,-0.5318
3,1684439.0,237.52239,1.0,6.71,6.38,3.13,-18.75,-31.75,-25.19,1.0,-0.25,0.81,-0.0069707200321956755,-0.11563322644063324,0.03362690752727282,-70.39546823502994,6.2024314124588535,-64.25430887597265,-0.6182,-0.5764,0.0541,-0.5318
4,1684475.0,237.526533,1.0,6.52,6.45,2.99,-19.5,-31.06,-27.56,-3.38,-2.63,4.13,-0.22514479676673632,-0.08074544811556318,0.16321752016702895,-70.40949185665009,6.317194167065648,-64.24077819073915,-0.618,-0.5765,0.0551,-0.5317
5,1684475.0,237.526533,1.0,6.52,6.45,2.99,-19.5,-31.06,-27.56,-3.38,-2.63,4.13,-0.22514479676673632,-0.08074544811556318,0.16321752016702895,-70.40949185665009,6.317194167065648,-64.24077819073915,-0.618,-0.5765,0.0551,-0.5317
6,1684508.0,237.553716,1.0,6.19,7.09,3.36,-19.5,-31.06,-27.56,-6.0,-2.0,16.31,-0.7099048502614288,0.6010961716250964,-0.14365243239033276,-70.32536827305816,6.764830589593756,-64.5657923959142,-0.6161,-0.5759,0.059000000000000004,-0.5341
7,1684508.0,237.553716,1.0,6.19,7.09,3.36,-19.5,-31.06,-27.56,-6.0,-2.0,16.31,-0.7099048502614288,0.6010961716250964,-0.14365243239033276,-70.32536827305816,6.764830589593756,-64.5657923959142,-0.6161,-0.5759,0.059000000000000004,-0.5341
8,1684545.0,237.60654700000003,1.0,4.63,9.65,4.1,-19.5,-31.06,-26.75,21.06,4.56,57.0,-2.951321768285084,2.8703404903546703,-0.8900899374518421,-70.42351668923327,7.35035834348681,-65.50347830987022,-0.6089,-0.5766,0.0641,-0.541
9,1684545.0,237.60654700000003,1.0,4.63,9.65,4.1,-19.5,-31.06,-26.75,21.06,4.56,57.0,-2.951321768285084,2.8703404903546703,-0.8900899374518421,-70.42351668923327,7.35035834348681,-65.50347830987022,-0.6089,-0.5766,0.0641,-0.541
10,1684582.0,237.67318799999998,1.0,5.64,9.09,2.31,-20.69,-31.75,-25.19,114.81,23.06,94.44,-3.1326858399542004,1.515715578367125,-0.5694131124548232,-72.44180194441707,6.833706733841952,-68.70739234130575,-0.5734,-0.5909,0.0596,-0.5643
11,1684582.0,237.67318799999998,1.0,5.64,9.09,2.31,-20.69,-31.75,-25.19,114.81,23.06,94.44,-3.1326858399542004,1.515715578367125,-0.5694131124548232,-72.44180194441707,6.833706733841952,-68.70739234130575,-0.5734,-0.5909,0.0596,-0.5643
12,1684617.0,237.692638,1.0,6.01,6.49,-0.19,-20.69,-31.75,-25.19,189.38,-114.37,130.38,-2.5592697124017616,-0.4974151359788404,1.3521235956600035,-77.01249967190056,7.109236280779951,-70.08725387641728,-0.528,-0.6226,0.062,-0.5742
13,1684617.0,237.692638,1.0,6.01,6.49,-0.19,-20.69,-31.75,-25.19,189.38,-114.37,130.38,-2.5592697124017616,-0.4974151359788404,1.3521235956600035,-77.01249967190056,7.109236280779951,-70.08725387641728,-0.528,-0.6226,0.062,-0.5742
14,1684649.0,237.695775,1.0,5.27,5.46,2.78,-21.37,-30.69,-23.5,193.81,-159.63,85.06,0.4774099927248324,2.8329439801692744,2.252882191543801,-86.18842251678954,8.338162304521468,-68.05627918144376,-0.4635,-0.6832,0.0727,-0.5596
15,1684649.0,237.695775,1.0,5.27,5.46,2.78,-21.37,-30.69,-23.5,193.81,-159.63,85.06,0.4774099927248324,2.8329439801692744,2.252882191543801,-86.18842251678954,8.338162304521468,-68.05627918144376,-0.4635,-0.6832,0.0727,-0.5596
16,1684686.0,237.74185699999998,1.0,11.02,2.91,-0.42,-25.87,-32.88,-17.0,236.06,-31.62,125.56,1.8947499010673368,-2.4555115487708923,-1.1690178997798617,-90.74680173049411,7.488156943849511,-69.12432067193492,-0.4091,-0.7117,0.0653,-0.5673
17,1684686.0,237.74185699999998,1.0,11.02,2.91,-0.42,-25.87,-32.88,-17.0,236.06,-31.62,125.56,1.8947499010673368,-2.4555115487708923,-1.1690178997798617,-90.74680173049411,7.488156943849511,-69.12432067193492,-0.4091,-0.7117,0.0653,-0.5673
18,1684725.0,237.761251,1.0,13.48,2.41,-3.31,-30.37,-31.37,-8.69,113.0,-182.56,64.62,1.0755595913446578,-3.918619532261401,-3.682686252271495,-97.25007802261709,8.062436803571838,-68.16692984371839,-0.3436,-0.7504,0.0703,-0.5604
19,1684725.0,237.761251,1.0,13.48,2.41,-3.31,-30.37,-31.37,-8.69,113.0,-182.56,64.62,1.0755595913446578,-3.918619532261401,-3.682686252271495,-97.25007802261709,8.062436803571838,-68.16692984371839,-0.3436,-0.7504,0.0703,-0.5604
20,1684758.0,237.80854700000003,1.0,10.72,4.29,-4.72,-30.37,-31.37,-8.69,66.12,-440.81,-73.0,1.0311450799902384,-1.078737041703273,-2.5777743394220494,-111.70596708251541,10.14313387414705,-53.76984303048103,-0.3205,-0.8276,0.0884,-0.4522
21,1684758.0,237.80854700000003,1.0,10.72,4.29,-4.72,-30.37,-31.37,-8.69,66.12,-440.81,-73.0,1.0311450799902384,-1.078737041703273,-2.5777743394220494,-111.70596708251541,10.14313387414705,-53.76984303048103,-0.3205,-0.8276,0.0884,-0.4522
22,1684797.0,237.827136,1.0,6.18,1.78,-2.9,-33.0,-31.75,-0.88,107.69,-524.75,-64.44,2.4593709672435766,-0.3542501914640295,3.203862615317142,-125.84710760989958,11.720221376139571,-38.93838987087892,-0.2928,-0.8904,0.1021,-0.3333
23,1684797.0,237.827136,1.0,6.18,1.78,-2.9,-33.0,-31.75,-0.88,107.69,-524.75,-64.44,2.4593709672435766,-0.3542501914640295,3.203862615317142,-125.84710760989958,11.720221376139571,-38.93838987087892,-0.2928,-0.8904,0.1021,-0.3333
24,1684834.0,237.872321,1.0,3.63,2.23,-5.16,-28.19,-32.56,14.25,-1.0,-249.63,-30.81,0.7099696063998076,-0.6308026111010171,3.182947770595613,-137.1824741414482,13.714952301602876,-24.772390131710253,-0.27,-0.9309999999999999,0.1194,-0.2145
25,1684834.0,237.872321,1.0,3.63,2.23,-5.16,-28.19,-32.56,14.25,-1.0,-249.63,-30.81,0.7099696063998076,-0.6308026111010171,3.182947770595613,-137.1824741414482,13.714952301602876,-24.772390131710253,-0.27,-0.9309999999999999,0.1194,-0.2145
26,1684869.0,237.94123100000002,1.0,4.11,3.28,-8.17,-28.19,-32.56,14.25,16.25,-148.56,-7.38,0.5318077829826499,-1.1087565090970677,0.16884737255976212,-140.06953899210683,14.661854827129085,-19.95948754584176,-0.2649,-0.9399,0.1276,-0.1733
27,1684869.0,237.94123100000002,1.0,4.11,3.28,-8.17,-28.19,-32.56,14.25,16.25,-148.56,-7.38,0.5318077829826499,-1.1087565090970677,0.16884737255976212,-140.06953899210683,14.661854827129085,-19.95948754584176,-0.2649,-0.9399,0.1276,-0.1733
28,1684901.0,237.96052999999998,1.0,4.44,3.54,-9.35,-20.69,-31.5,23.75,-8.13,-109.19,6.5,1.181942425628033,-1.0687105382881723,-1.0159453397441762,-142.56060519917662,16.014684599323402,-15.621331474060085,-0.2552,-0.9471,0.1393,-0.1359
29,1684901.0,237.96052999999998,1.0,4.44,3.54,-9.35,-20.69,-31.5,23.75,-8.13,-109.19,6.5,1.181942425628033,-1.0687105382881723,-1.0159453397441762,-142.56060519917662,16.014684599323402,-15.621331474060085,-0.2552,-0.9471,0.1393,-0.1359
30,1684938.0,238.006746,1.0,2.67,5.06,-6.73,-17.37,-32.25,24.19,-28.94,-60.63,-7.88,-0.1674965120673464,1.202289865352353,1.0572589355820714,-142.81135091208287,16.63981448789728,-13.230321745568984,-0.2596,-0.9478,0.1447,-0.1152
31,1684938.0,238.006746,1.0,2.67,5.06,-6.73,-17.37,-32.25,24.19,-28.94,-60.63,-7.88,-0.1674965120673464,1.202289865352353,1.0572589355820714,-142.81135091208287,16.63981448789728,-13.230321745568984,-0.2596,-0.9478,0.1447,-0.1152
32,1684975.0,238.02502400000003,1.0,2.52,4.08,-8.47,-14.56,-32.19,26.37,11.88,-22.37,-0.94,-0.07809457742395859,-0.4768521777814607,0.08532224924897136,-143.35423456188457,16.709303811577858,-12.261764386292771,-0.2573,-0.9493,0.1453,-0.1068
33,1684975.0,238.02502400000003,1.0,2.52,4.08,-8.47,-14.56,-32.19,26.37,11.88,-22.37,-0.94,-0.07809457742395859,-0.4768521777814607,0.08532224924897136,-143.35423456188457,16.709303811577858,-12.261764386292771,-0.2573,-0.9493,0.1453,-0.1068
34,1685010.0,238.07207599999998,1.0,2.52,4.88,-8.44,-14.56,-32.19,26.37,-7.44,-29.5,5.19,-0.1870669035949457,0.22605691319385454,-0.2587513454793058,-143.46374555627918,17.137959104392678,-11.224997424028942,-0.2576,-0.9496,0.149,-0.0978
35,1685010.0,238.07207599999998,1.0,2.52,4.88,-8.44,-14.56,-32.19,26.37,-7.44,-29.5,5.19,-0.1870669035949457,0.22605691319385454,-0.2587513454793058,-143.46374555627918,17.137959104392678,-11.224997424028942,-0.2576,-0.9496,0.149,-0.0978
36,1685047.0,238.08617999999998,1.0,2.03,4.72,-7.74,-13.06,-32.88,26.75,12.5,-0.69,-7.63,-0.4709442277280002,0.3787333557694468,0.5361768416548838,-143.75733722307018,17.126370676427072,-10.914150898036931,-0.2562,-0.9504,0.1489,-0.0951
37,1685047.0,238.08617999999998,1.0,2.03,4.72,-7.74,-13.06,-32.88,26.75,12.5,-0.69,-7.63,-0.4709442277280002,0.3787333557694468,0.5361768416548838,-143.75733722307018,17.126370676427072,-10.914150898036931,-0.2562,-0.9504,0.1489,-0.0951
38,1685082.0,238.14343599999998,1.0,2.73,3.96,-9.03,-12.69,-32.56,26.37,19.75,14.06,-0.88,0.21818605725970147,-0.6500271740720258,-0.4014477423506975,-144.27673180622273,16.825133117850115,-11.37469368630907,-0.2505,-0.9518,0.1463,-0.0991
39,1685082.0,238.14343599999998,1.0,2.73,3.96,-9.03,-12.69,-32.56,26.37,19.75,14.06,-0.88,0.21818605725970147,-0.6500271740720258,-0.4014477423506975,-144.27673180622273,16.825133117850115,-11.37469368630907,-0.2505,-0.9518,0.1463,-0.0991
40,1685116.0,238.166391,1.0,2.47,4.81,-8.32,-12.69,-32.56,26.37,6.75,-14.5,-6.06,-0.17662126398409955,0.3998722533570791,-0.1063872293310677,-144.57683474921032,16.813549410004512,-11.075320376717384,-0.2488,-0.9526,0.1462,-0.0965
41,1685116.0,238.166391,1.0,2.47,4.81,-8.32,-12.69,-32.56,26.37,6.75,-14.5,-6.06,-0.17662126398409955,0.3998722533570791,-0.1063872293310677,-144.57683474921032,16.813549410004512,-11.075320376717384,-0.2488,-0.9526,0.1462,-0.0965
42,1685151.0,238.211673,1.0,2.4,3.39,-8.5,-13.38,-31.75,26.0,26.5,6.69,-1.63,0.1553415957851043,-0.7593418616422145,0.3778977535054189,-145.29964361056955,16.616652750638245,-11.2825706212041,-0.2415,-0.9545,0.1445,-0.0983
43,1685151.0,238.211673,1.0,2.4,3.39,-8.5,-13.38,-31.75,26.0,26.5,6.69,-1.63,0.1553415957851043,-0.7593418616422145,0.3778977535054189,-145.29964361056955,16.616652750638245,-11.2825706212041,-0.2415,-0.9545,0.1445,-0.0983
44,1685186.0,238.26958100000002,1.0,2.78,3.91,-8.66,-13.06,-31.37,26.0,-3.69,26.5,13.69,0.2018466664292911,-0.3221719198004556,-0.08615360551767104,-145.06982302382067,16.744050792597328,-11.985198208002226,-0.24100000000000002,-0.9539,0.1456,-0.1044
45,1685186.0,238.26958100000002,1.0,2.78,3.91,-8.66,-13.06,-31.37,26.0,-3.69,26.5,13.69,0.2018466664292911,-0.3221719198004556,-0.08615360551767104,-145.06982302382067,16.744050792597328,-11.985198208002226,-0.24100000000000002,-0.9539,0.1456,-0.1044
46,1685223.0,238.28620899999999,1.0,3.13,4.51,-9.31,-13.25,-32.19,27.0,-5.19,22.44,13.38,0.05995364720770958,-0.1327056835784397,-1.0003798769704737,-144.31411111967859,17.056843809922572,-12.976563032466052,-0.2432,-0.9519,0.1483,-0.113
47,1685223.0,238.28620899999999,1.0,3.13,4.51,-9.31,-13.25,-32.19,27.0,-5.19,22.44,13.38,0.05995364720770958,-0.1327056835784397,-1.0003798769704737,-144.31411111967859,17.056843809922572,-12.976563032466052,-0.2432,-0.9519,0.1483,-0.113
48,1685258.0,238.32961600000002,1.0,2.69,4.7,-8.78,-13.25,-32.19,27.0,-6.44,10.75,2.56,-0.4038549013233937,0.15956695545502786,-0.4999468973955654,-144.05324557319378,17.114782424924247,-13.357225465957494,-0.2441,-0.9512,0.1488,-0.1163
49,1685258.0,238.32961600000002,1.0,2.69,4.7,-8.78,-13.25,-32.19,27.0,-6.44,10.75,2.56,-0.4038549013233937,0.15956695545502786,-0.4999468973955654,-144.05324557319378,17.114782424924247,-13.357225465957494,-0.2441,-0.9512,0.1488,-0.1163
50,1685295.0,238.40230499999998,1.0,1.76,6.54,-6.63,-13.69,-31.69,26.06,-39.06,18.25,-14.69,-1.5482719709826762,2.3139294880021857,0.7471420537358444,-142.84730495776557,16.848301053200124,-13.461068017168213,-0.2573,-0.9479,0.1465,-0.1172
51,1685295.0,238.40230499999998,1.0,1.76,6.54,-6.63,-13.69,-31.69,26.06,-39.06,18.25,-14.69,-1.5482719709826762,2.3139294880021857,0.7471420537358444,-142.84730495776557,16.848301053200124,-13.461068017168213,-0.2573,-0.9479,0.1465,-0.1172
52,1685329.0,238.42118,1.0,2.47,5.83,-8.01,-14.06,-32.75,24.5,7.5,46.25,-31.06,-0.9082583741017504,1.030556032352834,-0.3108062509583043,-142.48926046846375,15.875832638109523,-14.269118297459285,-0.2626,-0.9469,0.1381,-0.1242
53,1685329.0,238.42118,1.0,2.47,5.83,-8.01,-14.06,-32.75,24.5,7.5,46.25,-31.06,-0.9082583741017504,1.030556032352834,-0.3108062509583043,-142.48926046846375,15.875832638109523,-14.269118297459285,-0.2626,-0.9469,0.1381,-0.1242
54,1685364.0,238.424421,1.0,3.09,5.1,-8.37,-14.06,-32.75,24.5,4.13,41.06,-31.12,-0.3055991771085373,0.3293313711364636,-0.4604406293329237,-142.73954322436268,14.176734355559056,-15.713868313956251,-0.261,-0.9476,0.1234,-0.1367
55,1685364.0,238.424421,1.0,3.09,5.1,-8.37,-14.06,-32.75,24.5,4.13,41.06,-31.12,-0.3055991771085373,0.3293313711364636,-0.4604406293329237,-142.73954322436268,14.176734355559056,-15.713868313956251,-0.261,-0.9476,0.1234,-0.1367
56,1685399.0,238.46978,1.0,3.57,4.5,-8.62,-15.19,-32.5,25.69,9.63,39.88,-35.56,0.16157847058241234,-0.31970483289478313,-0.5456918228760195,-142.81135091208287,12.388547751922633,-16.848301053200124,-0.262,-0.9478,0.1079,-0.1465
57,1685399.0,238.46978,1.0,3.57,4.5,-8.62,-15.19,-32.5,25.69,9.63,39.88,-35.56,0.16157847058241234,-0.31970483289478313,-0.5456918228760195,-142.81135091208287,12.388547751922633,-16.848301053200124,-0.262,-0.9478,0.1079,-0.1465
58,1685436.0,238.48774100000003,1.0,3.97,4.02,-8.94,-14.75,-33.19,24.06,4.19,19.62,-37.5,0.5490810628786669,-0.9086811623819552,-0.7155982641078271,-142.95536907296346,10.960197096754332,-17.416134643761747,-0.2623,-0.9482,0.0955,-0.1514
59,1685436.0,238.48774100000003,1.0,3.97,4.02,-8.94,-14.75,-33.19,24.06,4.19,19.62,-37.5,0.5490810628786669,-0.9086811623819552,-0.7155982641078271,-142.95536907296346,10.960197096754332,-17.416134643761747,-0.2623,-0.9482,0.0955,-0.1514
60,1685473.0,238.585007,1.0,3.76,4.14,-8.5,-14.75,-33.19,24.06,2.25,0.25,-31.31,0.5099615013599595,-0.6488006020291368,-0.33466140661489163,-143.35423456188457,9.683046840720888,-17.219083051744406,-0.2632,-0.9493,0.0844,-0.1497
61,1685473.0,238.585007,1.0,3.76,4.14,-8.5,-14.75,-33.19,24.06,2.25,0.25,-31.31,0.5099615013599595,-0.6488006020291368,-0.33466140661489163,-143.35423456188457,9.683046840720888,-17.219083051744406,-0.2632,-0.9493,0.0844,-0.1497
62,1685508.0,238.59037999999998,1.0,3.79,4.34,-8.49,-14.75,-32.75,24.06,-13.88,0.63,-37.69,0.5780860078443808,-0.5529835315679152,-0.4227109664215689,-143.46374555627918,8.69437956401469,-16.97573712493423,-0.2659,-0.9496,0.0758,-0.1476
63,1685508.0,238.59037999999998,1.0,3.79,4.34,-8.49,-14.75,-32.75,24.06,-13.88,0.63,-37.69,0.5780860078443808,-0.5529835315679152,-0.4227109664215689,-143.46374555627918,8.69437956401469,-16.97573712493423,-0.2659,-0.9496,0.0758,-0.1476
64,1685542.0,238.60330699999997,1.0,4.08,4.03,-9.65,-13.25,-34.25,24.5,21.31,-24.0,-30.69,0.8552791766955983,-1.3359936899986733,-1.3061092608764202,-144.65224571956077,7.407773121999347,-16.049401279911372,-0.2616,-0.9528,0.0646,-0.1396
65,1685542.0,238.60330699999997,1.0,4.08,4.03,-9.65,-13.25,-34.25,24.5,21.31,-24.0,-30.69,0.8552791766955983,-1.3359936899986733,-1.3061092608764202,-144.65224571956077,7.407773121999347,-16.049401279911372,-0.2616,-0.9528,0.0646,-0.1396
66,1685579.0,238.653018,1.0,3.5,3.93,-9.27,-11.75,-34.25,24.87,14.5,-75.62,-39.38,0.800320888432384,-1.1352954968965536,-0.7620959336604933,-146.2735608004224,6.535260971441647,-14.038175786909196,-0.2567,-0.9570000000000001,0.057,-0.1222
67,1685579.0,238.653018,1.0,3.5,3.93,-9.27,-11.75,-34.25,24.87,14.5,-75.62,-39.38,0.800320888432384,-1.1352954968965536,-0.7620959336604933,-146.2735608004224,6.535260971441647,-14.038175786909196,-0.2567,-0.9570000000000001,0.057,-0.1222
68,1685612.0,238.67185800000001,1.0,2.91,4.22,-11.39,-11.75,-34.25,24.87,36.38,-145.31,-45.5,0.8594009174886401,-1.6343146409137401,-2.5464486281788723,-149.46197984083236,6.01882390838285,-8.901253805563371,-0.2462,-0.9647,0.0525,-0.0776
69,1685612.0,238.67185800000001,1.0,2.91,4.22,-11.39,-11.75,-34.25,24.87,36.38,-145.31,-45.5,0.8594009174886401,-1.6343146409137401,-2.5464486281788723,-149.46197984083236,6.01882390838285,-8.901253805563371,-0.2462,-0.9647,0.0525,-0.0776
70,1685649.0,238.719517,1.0,1.35,3.74,-6.9,-10.0,-33.56,26.06,30.19,-165.19,-57.25,0.644940884879907,0.25975295840628304,1.873385876348907,-152.00202441389632,5.663127955663872,-3.7592774051414257,-0.2343,-0.9703,0.0494,-0.0328
71,1685649.0,238.719517,1.0,1.35,3.74,-6.9,-10.0,-33.56,26.06,30.19,-165.19,-57.25,0.644940884879907,0.25975295840628304,1.873385876348907,-152.00202441389632,5.663127955663872,-3.7592774051414257,-0.2343,-0.9703,0.0494,-0.0328
72,1685686.0,238.738179,1.0,0.01,4.72,-9.96,-3.25,-32.75,27.0,51.69,-183.69,-54.38,0.2804332189933605,0.10866349428807354,-1.2110471030562504,-154.63414056108863,4.49314033842009,2.47537018520181,-0.215,-0.9756,0.0392,0.0216
73,1685686.0,238.738179,1.0,0.01,4.72,-9.96,-3.25,-32.75,27.0,51.69,-183.69,-54.38,0.2804332189933605,0.10866349428807354,-1.2110471030562504,-154.63414056108863,4.49314033842009,2.47537018520181,-0.215,-0.9756,0.0392,0.0216
74,1685721.0,238.78520299999997,1.0,-1.86,2.9,-6.7,-3.25,-32.75,27.0,50.44,-152.69,-73.44,-0.9536778575287056,-0.14277502896014393,2.33472161201575,-154.9492208405226,3.5758369454907797,7.855673444559319,-0.2034,-0.9762,0.0312,0.0685
75,1685721.0,238.78520299999997,1.0,-1.86,2.9,-6.7,-3.25,-32.75,27.0,50.44,-152.69,-73.44,-0.9536778575287056,-0.14277502896014393,2.33472161201575,-154.9492208405226,3.5758369454907797,7.855673444559319,-0.2034,-0.9762,0.0312,0.0685
76,1685755.0,238.84973300000001,1.0,-2.19,2.97,-6.67,2.69,-31.69,30.25,13.06,-74.69,-32.38,-0.7404559761596333,0.14412542713248233,2.221344942942416,-154.9492208405226,1.9596111689111861,11.823900394126868,-0.19,-0.9762,0.0171,0.10300000000000001
77,1685755.0,238.84973300000001,1.0,-2.19,2.97,-6.67,2.69,-31.69,30.25,13.06,-74.69,-32.38,-0.7404559761596333,0.14412542713248233,2.221344942942416,-154.9492208405226,1.9596111689111861,11.823900394126868,-0.19,-0.9762,0.0171,0.10300000000000001
78,1685790.0,238.859053,1.0,-2.03,4.29,-8.61,7.56,-30.25,30.37,19.5,-36.38,-25.94,0.13917839886757316,0.8216628415087126,0.01059979860900917,-154.84376268843482,1.3522117780748235,13.588001782657653,-0.1827,-0.976,0.0118,0.1183
79,1685790.0,238.859053,1.0,-2.03,4.29,-8.61,7.56,-30.25,30.37,19.5,-36.38,-25.94,0.13917839886757316,0.8216628415087126,0.01059979860900917,-154.84376268843482,1.3522117780748235,13.588001782657653,-0.1827,-0.976,0.0118,0.1183
80,1685827.0,238.87901800000003,1.0,-2.06,1.94,-8.77,9.88,-29.87,30.69,39.5,-19.56,-30.75,0.2181044664349917,-1.2239450870188993,0.6756868051512015,-155.48320588867858,0.687553479519944,14.315313760812993,-0.1721,-0.9772,0.006,0.1246
81,1685827.0,238.87901800000003,1.0,-2.06,1.94,-8.77,9.88,-29.87,30.69,39.5,-19.56,-30.75,0.2181044664349917,-1.2239450870188993,0.6756868051512015,-155.48320588867858,0.687553479519944,14.315313760812993,-0.1721,-0.9772,0.006,0.1246
82,1685862.0,238.929317,1.0,-2.6,1.79,-7.59,9.88,-29.87,30.69,7.69,-0.25,-16.5,-0.5643855466255729,-0.8969451754340781,1.655014685106078,-155.80916562137492,0.1145915781247664,14.534774284595127,-0.1667,-0.9778,0.001,0.1265
83,1685862.0,238.929317,1.0,-2.6,1.79,-7.59,9.88,-29.87,30.69,7.69,-0.25,-16.5,-0.5643855466255729,-0.8969451754340781,1.655014685106078,-155.80916562137492,0.1145915781247664,14.534774284595127,-0.1667,-0.9778,0.001,0.1265
84,1685897.0,238.990247,1.0,-2.38,4.34,-8.98,11.0,-28.19,29.87,-24.69,46.44,6.44,-0.0713635329256558,0.9603783023354696,-0.4018259275110001,-155.91878451766874,-0.4010712754482724,13.403376345459217,-0.1727,-0.978,-0.0035,0.1167
85,1685897.0,238.990247,1.0,-2.38,4.34,-8.98,11.0,-28.19,29.87,-24.69,46.44,6.44,-0.0713635329256558,0.9603783023354696,-0.4018259275110001,-155.91878451766874,-0.4010712754482724,13.403376345459217,-0.1727,-0.978,-0.0035,0.1167
86,1685934.0,239.001525,1.0,-1.83,3.71,-8.78,9.88,-28.87,29.87,2.94,60.88,4.0,0.031601218407376376,0.41903469201781296,0.11001082501361203,-156.87120131517742,-0.8250663536663884,11.144399719947117,-0.1752,-0.9797,-0.0072,0.0971
87,1685934.0,239.001525,1.0,-1.83,3.71,-8.78,9.88,-28.87,29.87,2.94,60.88,4.0,0.031601218407376376,0.41903469201781296,0.11001082501361203,-156.87120131517742,-0.8250663536663884,11.144399719947117,-0.1752,-0.9797,-0.0072,0.0971
88,1685968.0,239.01583399999998,1.0,-1.4,2.25,-9.19,9.88,-28.87,29.87,-15.44,90.94,2.44,0.07420758496254015,-1.096576002068247,0.30556509847312263,-157.80436691060555,-1.294912175882028,8.797813093528106,-0.1765,-0.9813,-0.0113,0.0767
89,1685968.0,239.01583399999998,1.0,-1.4,2.25,-9.19,9.88,-28.87,29.87,-15.44,90.94,2.44,0.07420758496254015,-1.096576002068247,0.30556509847312263,-157.80436691060555,-1.294912175882028,8.797813093528106,-0.1765,-0.9813,-0.0113,0.0767
90,1686003.0,239.062085,1.0,-1.49,6.33,-8.79,8.69,-28.75,29.56,-119.62,76.31,10.5,-0.3712790987228747,2.215636916940388,-0.8941072107371184,-155.2682499537731,-1.9252287616436876,5.582817194583068,-0.2078,-0.9768,-0.0168,0.0487
91,1686003.0,239.062085,1.0,-1.49,6.33,-8.79,8.69,-28.75,29.56,-119.62,76.31,10.5,-0.3712790987228747,2.215636916940388,-0.8941072107371184,-155.2682499537731,-1.9252287616436876,5.582817194583068,-0.2078,-0.9768,-0.0168,0.0487
92,1686038.0,239.123236,1.0,-1.19,5.62,-8.81,6.06,-31.06,30.0,-12.63,51.88,-33.13,-0.2777715634657489,1.376188823009941,-0.6166674796679921,-154.37448496866145,-3.0714215263829594,4.183521171347446,-0.2172,-0.9751,-0.0268,0.0365
93,1686038.0,239.123236,1.0,-1.19,5.62,-8.81,6.06,-31.06,30.0,-12.63,51.88,-33.13,-0.2777715634657489,1.376188823009941,-0.6166674796679921,-154.37448496866145,-3.0714215263829594,4.183521171347446,-0.2172,-0.9751,-0.0268,0.0365
94,1686075.0,239.148829,1.0,-0.94,3.25,-7.17,5.38,-32.19,29.87,-86.81,101.5,-39.31,-0.5831078553921746,-0.2580522601853705,1.90422035716273,-152.67309729035,-5.491036825631306,1.5470330404085568,-0.231,-0.9717,-0.0479,0.0135
95,1686075.0,239.148829,1.0,-0.94,3.25,-7.17,5.38,-32.19,29.87,-86.81,101.5,-39.31,-0.5831078553921746,-0.2580522601853705,1.90422035716273,-152.67309729035,-5.491036825631306,1.5470330404085568,-0.231,-0.9717,-0.0479,0.0135
96,1686110.0,239.191596,1.0,0.62,4.84,-9.6,5.38,-32.19,29.87,-63.88,92.12,-26.69,0.544220052927193,-0.5777949257569044,-0.9329951318356624,-149.59279181341395,-7.499640647274437,-1.9825328715837252,-0.2533,-0.965,-0.0654,-0.0173
97,1686110.0,239.191596,1.0,0.62,4.84,-9.6,5.38,-32.19,29.87,-63.88,92.12,-26.69,0.544220052927193,-0.5777949257569044,-0.9329951318356624,-149.59279181341395,-7.499640647274437,-1.9825328715837252,-0.2533,-0.965,-0.0654,-0.0173
98,1686147.0,239.20911099999998,1.0,1.19,2.74,-7.66,3.88,-33.25,27.5,-44.63,124.12,-14.13,0.5653440788691951,-1.6455687046463332,1.7709926086737546,-148.0992206918234,-8.774827247055486,-4.997776256010228,-0.2601,-0.9615,-0.0765,-0.0436
99,1686147.0,239.20911099999998,1.0,1.19,2.74,-7.66,3.88,-33.25,27.5,-44.63,124.12,-14.13,0.5653440788691951,-1.6455687046463332,1.7709926086737546,-148.0992206918234,-8.774827247055486,-4.997776256010228,-0.2601,-0.9615,-0.0765,-0.0436
100,1686183.0,239.25559700000002,1.0,2.98,3.82,-9.26,2.0,-34.38,25.75,-106.75,166.0,17.44,1.1389090839451703,-2.3500865822282253,-0.3126572467703035,-143.61025532246643,-9.752049739225924,-11.09834637461124,-0.2844,-0.95,-0.085,-0.0967
101,1686183.0,239.25559700000002,1.0,2.98,3.82,-9.26,2.0,-34.38,25.75,-106.75,166.0,17.44,1.1389090839451703,-2.3500865822282253,-0.3126572467703035,-143.61025532246643,-9.752049739225924,-11.09834637461124,-0.2844,-0.95,-0.085,-0.0967
102,1686218.0,239.2765,1.0,3.16,6.24,-9.62,2.0,-34.38,25.75,-6.81,44.06,7.63,1.0648402516475977,-0.7472015085783839,-2.0160148918105296,-142.1344807161217,-9.798053639345571,-13.126503557539667,-0.2914,-0.9459,-0.0854,-0.1143
103,1686218.0,239.2765,1.0,3.16,6.24,-9.62,2.0,-34.38,25.75,-6.81,44.06,7.63,1.0648402516475977,-0.7472015085783839,-2.0160148918105296,-142.1344807161217,-9.798053639345571,-13.126503557539667,-0.2914,-0.9459,-0.0854,-0.1143
104,1686251.0,239.318474,1.0,2.9,5.07,-7.91,-1.37,-37.06,23.69,-26.69,57.44,-6.69,0.8424880842431921,-0.8570182339812336,0.04761656555927374,-140.61001416599206,-10.52282880334764,-15.112560354905925,-0.2964,-0.9415,-0.0917,-0.1315
105,1686251.0,239.318474,1.0,2.9,5.07,-7.91,-1.37,-37.06,23.69,-26.69,57.44,-6.69,0.8424880842431921,-0.8570182339812336,0.04761656555927374,-140.61001416599206,-10.52282880334764,-15.112560354905925,-0.2964,-0.9415,-0.0917,-0.1315
106,1686288.0,239.378844,1.0,1.77,6.88,-9.33,-2.5,-37.06,21.75,-17.56,48.31,-22.69,-0.7731412200070046,-0.11932828303809415,-1.893957395122412,-138.585728177911,-11.420757981123572,-16.686140017359815,-0.3066,-0.9354,-0.0995,-0.1451
107,1686288.0,239.378844,1.0,1.77,6.88,-9.33,-2.5,-37.06,21.75,-17.56,48.31,-22.69,-0.7731412200070046,-0.11932828303809415,-1.893957395122412,-138.585728177911,-11.420757981123572,-16.686140017359815,-0.3066,-0.9354,-0.0995,-0.1451
108,1686325.0,239.38591499999998,1.0,1.05,5.68,-6.39,-2.88,-37.75,22.69,1.25,5.06,-19.81,-0.5725068448666759,0.7263758868045507,1.2426781420564126,-138.19856277995768,-12.446181578242712,-16.998909587512788,-0.306,-0.9342,-0.1084,-0.1478
109,1686325.0,239.38591499999998,1.0,1.05,5.68,-6.39,-2.88,-37.75,22.69,1.25,5.06,-19.81,-0.5725068448666759,0.7263758868045507,1.2426781420564126,-138.19856277995768,-12.446181578242712,-16.998909587512788,-0.306,-0.9342,-0.1084,-0.1478
110,1686358.0,239.40376099999997,1.0,1.85,5.97,-8.02,-2.88,-37.75,22.69,2.88,12.19,1.31,-0.41326405213985296,-0.1165102281459598,-0.3520624277610249,-138.1343678726239,-12.665219075015518,-17.462507245696994,-0.304,-0.934,-0.1103,-0.1518
111,1686358.0,239.40376099999997,1.0,1.85,5.97,-8.02,-2.88,-37.75,22.69,2.88,12.19,1.31,-0.41326405213985296,-0.1165102281459598,-0.3520624277610249,-138.1343678726239,-12.665219075015518,-17.462507245696994,-0.304,-0.934,-0.1103,-0.1518
112,1686394.0,239.46240699999998,1.0,2.27,6.13,-9.22,-3.25,-37.75,21.0,0.37,-21.62,-4.0,-0.3773170760195324,-0.7521751432260033,-1.4641114817303738,-138.26285199839916,-12.7228682118641,-17.230672895970507,-0.3036,-0.9344,-0.1108,-0.1498
113,1686394.0,239.46240699999998,1.0,2.27,6.13,-9.22,-3.25,-37.75,21.0,0.37,-21.62,-4.0,-0.3773170760195324,-0.7521751432260033,-1.4641114817303738,-138.26285199839916,-12.7228682118641,-17.230672895970507,-0.3036,-0.9344,-0.1108,-0.1498
114,1686429.0,239.46549900000002,1.0,2.17,5.36,-7.5,-2.5,-37.75,20.56,25.87,-26.37,-10.25,0.2082515527726108,-0.3783135024959972,0.3460997948271025,-138.94369485234358,-12.815113562902274,-16.223006993376618,-0.3012,-0.9365,-0.1116,-0.1411
115,1686429.0,239.46549900000002,1.0,2.17,5.36,-7.5,-2.5,-37.75,20.56,25.87,-26.37,-10.25,0.2082515527726108,-0.3783135024959972,0.3460997948271025,-138.94369485234358,-12.815113562902274,-16.223006993376618,-0.3012,-0.9365,-0.1116,-0.1411
116,1686464.0,239.505456,1.0,2.41,5.21,-8.07,-2.5,-37.75,20.56,-2.38,-15.63,-1.81,0.3391622896918719,-0.8420828910994378,-0.055041809510608886,-139.40365501423122,-12.768989848771893,-15.563501157916,-0.2995,-0.9379,-0.1112,-0.1354
117,1686464.0,239.505456,1.0,2.41,5.21,-8.07,-2.5,-37.75,20.56,-2.38,-15.63,-1.81,0.3391622896918719,-0.8420828910994378,-0.055041809510608886,-139.40365501423122,-12.768989848771893,-15.563501157916,-0.2995,-0.9379,-0.1112,-0.1354
118,1686499.0,239.566831,1.0,2.36,5.79,-7.75,-1.37,-38.19,23.0,8.56,-8.56,-2.13,0.5256132428752415,-0.17931618440060104,-0.13557190583805934,-139.5691405181039,-12.965030073382625,-15.29753283007483,-0.2982,-0.9384,-0.1129,-0.1331
119,1686499.0,239.566831,1.0,2.36,5.79,-7.75,-1.37,-38.19,23.0,8.56,-8.56,-2.13,0.5256132428752415,-0.17931618440060104,-0.13557190583805934,-139.5691405181039,-12.965030073382625,-15.29753283007483,-0.2982,-0.9384,-0.1129,-0.1331
120,1686536.0,239.584314,1.0,2.4,5.72,-8.12,-1.75,-38.19,21.75,-0.06,-4.63,-0.06,0.4465237512024227,-0.402451614309733,-0.3939112217049914,-139.80191665328087,-12.88430304585338,-15.25128597113998,-0.2964,-0.9391,-0.1122,-0.1327
121,1686536.0,239.584314,1.0,2.4,5.72,-8.12,-1.75,-38.19,21.75,-0.06,-4.63,-0.06,0.4465237512024227,-0.402451614309733,-0.3939112217049914,-139.80191665328087,-12.88430304585338,-15.25128597113998,-0.2964,-0.9391,-0.1122,-0.1327
122,1686571.0,239.6349,1.0,1.96,5.55,-8.16,-1.75,-38.19,21.75,7.69,-7.38,-3.75,0.04327813159201499,-0.4311916863791452,-0.24531004433580075,-139.9020743124711,-12.965030073382625,-15.008530771963965,-0.2961,-0.9394,-0.1129,-0.1306
123,1686571.0,239.6349,1.0,1.96,5.55,-8.16,-1.75,-38.19,21.75,7.69,-7.38,-3.75,0.04327813159201499,-0.4311916863791452,-0.24531004433580075,-139.9020743124711,-12.965030073382625,-15.008530771963965,-0.2961,-0.9394,-0.1129,-0.1306
124,1686603.0,239.65543399999999,1.0,1.78,5.57,-8.06,-1.0,-36.69,23.87,-4.0,-6.44,0.88,-0.06159148566852352,-0.32008967179960024,-0.1457692581954877,-139.9020743124711,-13.103434321670449,-14.858287755594214,-0.2963,-0.9394,-0.1141,-0.1293
125,1686603.0,239.65543399999999,1.0,1.78,5.57,-8.06,-1.0,-36.69,23.87,-4.0,-6.44,0.88,-0.06159148566852352,-0.32008967179960024,-0.1457692581954877,-139.9020743124711,-13.103434321670449,-14.858287755594214,-0.2963,-0.9394,-0.1141,-0.1293
126,1686638.0,239.703122,1.0,1.96,6.04,-7.83,-1.75,-37.75,20.56,-9.75,-5.88,3.31,0.2480895917449225,0.11311066923615876,-0.2709368902715408,-139.9355135446495,-12.89583508427226,-14.754288420181696,-0.2971,-0.9395,-0.1123,-0.1284
127,1686638.0,239.703122,1.0,1.96,6.04,-7.83,-1.75,-37.75,20.56,-9.75,-5.88,3.31,0.2480895917449225,0.11311066923615876,-0.2709368902715408,-139.9355135446495,-12.89583508427226,-14.754288420181696,-0.2971,-0.9395,-0.1123,-0.1284
128,1686675.0,239.76982200000003,1.0,1.84,5.3,-8.01,-1.75,-37.06,22.69,3.69,-3.69,1.44,-0.0028356602621149585,-0.5558202329340212,0.043107823735684996,-139.9355135446495,-12.815113562902274,-14.61564163128423,-0.298,-0.9395,-0.1116,-0.1272
129,1686675.0,239.76982200000003,1.0,1.84,5.3,-8.01,-1.75,-37.06,22.69,3.69,-3.69,1.44,-0.0028356602621149585,-0.5558202329340212,0.043107823735684996,-139.9355135446495,-12.815113562902274,-14.61564163128423,-0.298,-0.9395,-0.1116,-0.1272
130,1686710.0,239.790108,1.0,1.86,5.38,-8.09,-1.75,-37.06,22.69,1.75,2.94,6.69,-0.020692051143023416,-0.5640442488036195,-0.0692563343275534,-139.80191665328087,-12.676748644427741,-14.696516297153034,-0.2994,-0.9391,-0.1104,-0.1279
131,1686710.0,239.790108,1.0,1.86,5.38,-8.09,-1.75,-37.06,22.69,1.75,2.94,6.69,-0.020692051143023416,-0.5640442488036195,-0.0692563343275534,-139.80191665328087,-12.676748644427741,-14.696516297153034,-0.2994,-0.9391,-0.1104,-0.1279
132,1686745.0,239.794092,1.0,1.92,6.29,-7.61,-2.06,-37.75,23.5,-20.06,2.44,10.94,0.2165690663744359,0.3533236314899031,-0.24277089132107754,-139.5028685781741,-12.146519858742266,-14.973857013009212,-0.3026,-0.9382,-0.1058,-0.1303
133,1686745.0,239.794092,1.0,1.92,6.29,-7.61,-2.06,-37.75,23.5,-20.06,2.44,10.94,0.2165690663744359,0.3533236314899031,-0.24277089132107754,-139.5028685781741,-12.146519858742266,-14.973857013009212,-0.3026,-0.9382,-0.1058,-0.1303
134,1686779.0,239.839831,1.0,2.03,5.91,-8.0,-2.06,-37.75,22.19,7.38,1.12,-2.0,0.14744204387825596,-0.19800553333673365,-0.34165304299517274,-139.43670037409964,-12.146519858742266,-15.008530771963965,-0.303,-0.938,-0.1058,-0.1306
135,1686779.0,239.839831,1.0,2.03,5.91,-8.0,-2.06,-37.75,22.19,7.38,1.12,-2.0,0.14744204387825596,-0.19800553333673365,-0.34165304299517274,-139.43670037409964,-12.146519858742266,-15.008530771963965,-0.303,-0.938,-0.1058,-0.1306
136,1686814.0,239.86394500000003,1.0,1.78,5.57,-7.82,-2.06,-37.75,22.19,4.75,-1.94,-1.31,-0.05359207516469383,-0.2849920519343549,0.04644470401294143,-139.5691405181039,-12.192616183384214,-14.916070477056891,-0.3021,-0.9384,-0.1062,-0.1298
137,1686814.0,239.86394500000003,1.0,1.78,5.57,-7.82,-2.06,-37.75,22.19,4.75,-1.94,-1.31,-0.05359207516469383,-0.2849920519343549,0.04644470401294143,-139.5691405181039,-12.192616183384214,-14.916070477056891,-0.3021,-0.9384,-0.1062,-0.1298
138,1686849.0,239.920352,1.0,1.88,5.88,-7.79,-2.06,-38.19,23.0,-5.13,-0.88,4.44,0.08172100002707683,-0.0572857040983501,-0.1323107115764639,-139.5691405181039,-12.100425506938455,-14.916070477056891,-0.3026,-0.9384,-0.1054,-0.1298
139,1686849.0,239.920352,1.0,1.88,5.88,-7.79,-2.06,-38.19,23.0,-5.13,-0.88,4.44,0.08172100002707683,-0.0572857040983501,-0.1323107115764639,-139.5691405181039,-12.100425506938455,-14.916070477056891,-0.3026,-0.9384,-0.1054,-0.1298
140,1686886.0,239.943265,1.0,1.78,6.0,-7.84,-2.06,-37.38,22.19,-8.81,0.75,1.0,-0.04375124146537995,0.01824251975761237,-0.22488791994742385,-139.40365501423122,-11.962154211464537,-15.031647378904806,-0.3038,-0.9379,-0.1042,-0.1308
141,1686886.0,239.943265,1.0,1.78,6.0,-7.84,-2.06,-37.38,22.19,-8.81,0.75,1.0,-0.04375124146537995,0.01824251975761237,-0.22488791994742385,-139.40365501423122,-11.962154211464537,-15.031647378904806,-0.3038,-0.9379,-0.1042,-0.1308
142,1686921.0,239.992139,1.0,1.79,5.86,-7.57,-2.06,-37.38,22.19,-4.81,-3.25,1.25,0.03544692348522843,0.04194583523268092,0.06778024717333507,-139.40365501423122,-11.927589126675839,-14.996972698908555,-0.3043,-0.9379,-0.1039,-0.1305
143,1686921.0,239.992139,1.0,1.79,5.86,-7.57,-2.06,-37.38,22.19,-4.81,-3.25,1.25,0.03544692348522843,0.04194583523268092,0.06778024717333507,-139.40365501423122,-11.927589126675839,-14.996972698908555,-0.3043,-0.9379,-0.1039,-0.1305
144,1686953.0,240.000081,1.0,1.93,5.95,-7.83,-2.06,-37.75,21.37,-0.25,0.19,2.56,0.08578158732383351,-0.08598312535814889,-0.2144052548835802,-139.30467314730421,-11.823900394126868,-15.02008899858815,-0.3054,-0.9376,-0.10300000000000001,-0.1307
145,1686953.0,240.000081,1.0,1.93,5.95,-7.83,-2.06,-37.75,21.37,-0.25,0.19,2.56,0.08578158732383351,-0.08598312535814889,-0.2144052548835802,-139.30467314730421,-11.823900394126868,-15.02008899858815,-0.3054,-0.9376,-0.10300000000000001,-0.1307
146,1686990.0,240.06715,1.0,2.06,6.26,-7.5,-1.37,-38.88,22.19,-1.06,0.69,0.69,0.33290240502531177,0.294460933310138,-0.16750002631715688,-139.2059212883253,-11.89302513102135,-15.112560354905925,-0.3058,-0.9373,-0.1036,-0.1315
147,1686990.0,240.06715,1.0,2.06,6.26,-7.5,-1.37,-38.88,22.19,-1.06,0.69,0.69,0.33290240502531177,0.294460933310138,-0.16750002631715688,-139.2059212883253,-11.89302513102135,-15.112560354905925,-0.3058,-0.9373,-0.1036,-0.1315
148,1687023.0,240.084619,1.0,1.99,5.64,-7.99,-1.37,-38.88,22.19,8.06,2.31,-3.06,0.045104363041643565,-0.4255864700450465,-0.16464087696017415,-139.2388131216407,-12.019765115233204,-15.158799741488714,-0.3047,-0.9374,-0.1047,-0.1319
149,1687023.0,240.084619,1.0,1.99,5.64,-7.99,-1.37,-38.88,22.19,8.06,2.31,-3.06,0.045104363041643565,-0.4255864700450465,-0.16464087696017415,-139.2388131216407,-12.019765115233204,-15.158799741488714,-0.3047,-0.9374,-0.1047,-0.1319
150,1687058.0,240.09301299999998,1.0,1.93,5.76,-8.15,-2.5,-38.56,21.75,1.81,-1.5,2.25,-0.043432867115847214,-0.3938473197479433,-0.3505148541697647,-139.30467314730421,-11.996720388635614,-15.135679738336453,-0.3044,-0.9376,-0.1045,-0.1317
151,1687058.0,240.09301299999998,1.0,1.93,5.76,-8.15,-2.5,-38.56,21.75,1.81,-1.5,2.25,-0.043432867115847214,-0.3938473197479433,-0.3505148541697647,-139.30467314730421,-11.996720388635614,-15.135679738336453,-0.3044,-0.9376,-0.1045,-0.1317
152,1687093.0,240.133937,1.0,1.77,5.94,-7.57,-2.88,-37.75,21.75,-5.94,-3.0,2.19,0.007908438664674777,0.0956149751281954,0.023389028671006784,-139.30467314730421,-11.846941492078386,-15.066323443247011,-0.3052,-0.9376,-0.1032,-0.1311
153,1687093.0,240.133937,1.0,1.77,5.94,-7.57,-2.88,-37.75,21.75,-5.94,-3.0,2.19,0.007908438664674777,0.0956149751281954,0.023389028671006784,-139.30467314730421,-11.846941492078386,-15.066323443247011,-0.3052,-0.9376,-0.1032,-0.1311
154,1687128.0,240.20401,1.0,1.61,5.74,-7.62,-2.06,-37.38,22.19,-4.38,2.38,0.69,-0.19394056941547289,-0.0686931406400042,0.1339167612528538,-139.14021367291954,-11.881504040605064,-15.135679738336453,-0.3063,-0.9371,-0.1035,-0.1317
155,1687128.0,240.20401,1.0,1.61,5.74,-7.62,-2.06,-37.38,22.19,-4.38,2.38,0.69,-0.19394056941547289,-0.0686931406400042,0.1339167612528538,-139.14021367291954,-11.881504040605064,-15.135679738336453,-0.3063,-0.9371,-0.1035,-0.1317
156,1687162.0,240.22296200000002,1.0,1.98,5.98,-7.82,-2.06,-37.38,22.19,-7.0,5.88,5.81,0.06500363436519241,-0.10966415257784012,-0.23411432853389336,-138.94369485234358,-11.731740790019305,-15.401597439742238,-0.3076,-0.9365,-0.1022,-0.134
157,1687162.0,240.22296200000002,1.0,1.98,5.98,-7.82,-2.06,-37.38,22.19,-7.0,5.88,5.81,0.06500363436519241,-0.10966415257784012,-0.23411432853389336,-138.94369485234358,-11.731740790019305,-15.401597439742238,-0.3076,-0.9365,-0.1022,-0.134
158,1687199.0,240.278274,1.0,2.23,6.24,-7.82,-2.06,-37.06,21.37,1.44,1.75,0.31,0.3098263974634965,0.01720740088402639,-0.43867144487373533,-138.84577222800962,-11.662626087112969,-15.482545411826456,-0.3082,-0.9362,-0.1016,-0.1347
159,1687199.0,240.278274,1.0,2.23,6.24,-7.82,-2.06,-37.06,21.37,1.44,1.75,0.31,0.3098263974634965,0.01720740088402639,-0.43867144487373533,-138.84577222800962,-11.662626087112969,-15.482545411826456,-0.3082,-0.9362,-0.1016,-0.1347
160,1687234.0,240.295879,1.0,1.95,5.58,-7.63,-3.56,-38.19,21.37,-1.31,3.88,-2.19,0.0218550723895648,-0.3163614544829243,0.16013571835772744,-138.84577222800962,-11.685663847129462,-15.575066901599747,-0.3079,-0.9362,-0.1018,-0.1355
161,1687234.0,240.295879,1.0,1.95,5.58,-7.63,-3.56,-38.19,21.37,-1.31,3.88,-2.19,0.0218550723895648,-0.3163614544829243,0.16013571835772744,-138.84577222800962,-11.685663847129462,-15.575066901599747,-0.3079,-0.9362,-0.1018,-0.1355
162,1687269.0,240.35676600000002,1.0,1.96,5.94,-7.92,-3.56,-38.19,21.37,-0.25,2.0,2.88,-0.0431783410423392,-0.20238704308980804,-0.283383454635036,-138.74807199122864,-11.639588800101585,-15.679165793853409,-0.3084,-0.9359,-0.1014,-0.1364
163,1687269.0,240.35676600000002,1.0,1.96,5.94,-7.92,-3.56,-38.19,21.37,-0.25,2.0,2.88,-0.0431783410423392,-0.20238704308980804,-0.283383454635036,-138.74807199122864,-11.639588800101585,-15.679165793853409,-0.3084,-0.9359,-0.1014,-0.1364
164,1687302.0,240.367888,1.0,1.95,6.32,-7.61,-2.5,-38.19,22.19,-4.88,-1.25,0.94,0.08225352349699755,0.2657669736803285,-0.2720206600410968,-138.74807199122864,-11.616551985135152,-15.690733139619653,-0.3087,-0.9359,-0.1012,-0.1365
165,1687302.0,240.367888,1.0,1.95,6.32,-7.61,-2.5,-38.19,22.19,-4.88,-1.25,0.94,0.08225352349699755,0.2657669736803285,-0.2720206600410968,-138.74807199122864,-11.616551985135152,-15.690733139619653,-0.3087,-0.9359,-0.1012,-0.1365
166,1687339.0,240.42128799999998,1.0,1.9,5.46,-7.89,-2.5,-38.06,21.37,0.0,1.56,0.19,-0.14213112351144036,-0.5316805328535765,0.0408517963346231,-138.81318085103794,-11.731740790019305,-15.725436142775802,-0.3075,-0.9361,-0.1022,-0.1368
167,1687339.0,240.42128799999998,1.0,1.9,5.46,-7.89,-2.5,-38.06,21.37,0.0,1.56,0.19,-0.14213112351144036,-0.5316805328535765,0.0408517963346231,-138.81318085103794,-11.731740790019305,-15.725436142775802,-0.3075,-0.9361,-0.1022,-0.1368
168,1687373.0,240.439927,1.0,1.89,5.84,-7.76,-2.5,-38.06,21.37,-5.13,1.25,5.5,-0.0929672310331296,-0.1795372244205251,-0.0854894793543739,-138.68306126823978,-11.593515641253694,-15.806415466969176,-0.3088,-0.9357,-0.10099999999999999,-0.1375
169,1687373.0,240.439927,1.0,1.89,5.84,-7.76,-2.5,-38.06,21.37,-5.13,1.25,5.5,-0.0929672310331296,-0.1795372244205251,-0.0854894793543739,-138.68306126823978,-11.593515641253694,-15.806415466969176,-0.3088,-0.9357,-0.10099999999999999,-0.1375
