,TIME,ELAPSED_SECONDS,PSTATE,acc_x,acc_y,acc_z,mag_x,mag_y,mag_z,gyr_x,gyr_y,gyr_z,lin_x,lin_y,lin_z,eul_x,eul_y,eul_z,qua_w,qua_x,qua_y,qua_z
0,1650950.0,203.933258,1.0,7.93,5.76,-3.75,-32.0,-31.19,0.75,6.0,-8.25,-4.13,-0.026092863147321062,0.21257719018419466,-0.6852101830517228,-108.42668178324713,19.319861939553064,-45.01445861245965,-0.4091,-0.8112,0.1678,-0.3828
1,1650950.0,203.933258,1.0,7.93,5.76,-3.75,-32.0,-31.19,0.75,6.0,-8.25,-4.13,-0.026092863147321062,0.21257719018419466,-0.6852101830517228,-108.42668178324713,19.319861939553064,-45.01445861245965,-0.4091,-0.8112,0.1678,-0.3828
2,1650984.0,204.000306,1.0,8.08,6.39,-3.69,-32.0,-32.0,2.5,16.56,-27.44,-20.87,-0.0973351897349496,0.7337560090793018,-1.1106174227564534,-109.39254607388746,19.040944126019852,-44.19699919021153,-0.4064,-0.8161,0.1654,-0.3762
3,1650984.0,204.000306,1.0,8.08,6.39,-3.69,-32.0,-32.0,2.5,16.56,-27.44,-20.87,-0.0973351897349496,0.7337560090793018,-1.1106174227564534,-109.39254607388746,19.040944126019852,-44.19699919021153,-0.4064,-0.8161,0.1654,-0.3762
4,1651019.0,204.003647,1.0,8.15,6.27,-4.66,-32.0,-32.0,2.5,34.25,-34.38,-43.94,-0.028875164358989288,0.04760921046290045,-1.482632509883537,-111.52245118481588,17.845191938186247,-42.507618370719364,-0.4015,-0.8267,0.1551,-0.3625
5,1651019.0,204.003647,1.0,8.15,6.27,-4.66,-32.0,-32.0,2.5,34.25,-34.38,-43.94,-0.028875164358989288,0.04760921046290045,-1.482632509883537,-111.52245118481588,17.845191938186247,-42.507618370719364,-0.4015,-0.8267,0.1551,-0.3625
6,1651056.0,204.05279299999998,1.0,8.57,10.33,-3.51,-32.0,-31.56,3.25,-4.25,-109.12,-97.69,-0.6388078753651869,3.5353228208175764,-3.5936230215088507,-113.75411958451244,16.940979741891212,-39.181563633405815,-0.4056,-0.8375,0.1473,-0.3353
7,1651056.0,204.05279299999998,1.0,8.57,10.33,-3.51,-32.0,-31.56,3.25,-4.25,-109.12,-97.69,-0.6388078753651869,3.5353228208175764,-3.5936230215088507,-113.75411958451244,16.940979741891212,-39.181563633405815,-0.4056,-0.8375,0.1473,-0.3353
8,1651091.0,204.078786,1.0,6.05,13.8,-2.38,-28.56,-33.88,4.5,-87.69,-148.94,-278.69,-1.3329505097503078,5.922131145854008,-4.188295717288882,-117.12288767556585,12.00824269100582,-29.985877446985693,-0.4406,-0.8532,0.1046,-0.2587
9,1651091.0,204.078786,1.0,6.05,13.8,-2.38,-28.56,-33.88,4.5,-87.69,-148.94,-278.69,-1.3329505097503078,5.922131145854008,-4.188295717288882,-117.12288767556585,12.00824269100582,-29.985877446985693,-0.4406,-0.8532,0.1046,-0.2587
10,1651126.0,204.133189,1.0,2.76,14.79,-2.61,-28.56,-33.88,4.5,-52.25,1.88,-365.0,-2.1829381482811683,5.526753327419173,-4.259748924338805,-117.27684633570152,4.2523227104813985,-23.998630403703213,-0.4756,-0.8539,0.0371,-0.2079
11,1651126.0,204.133189,1.0,2.76,14.79,-2.61,-28.56,-33.88,4.5,-52.25,1.88,-365.0,-2.1829381482811683,5.526753327419173,-4.259748924338805,-117.27684633570152,4.2523227104813985,-23.998630403703213,-0.4756,-0.8539,0.0371,-0.2079
12,1651161.0,204.147528,1.0,1.38,11.7,-3.14,-20.69,-38.69,5.25,-9.5,55.63,-414.25,0.061804017169834635,2.6009153780246197,-2.104916624916166,-115.51550165897758,-9.832557602907887,-17.891591511712036,-0.5031,-0.8458,-0.0857,-0.1555
13,1651161.0,204.147528,1.0,1.38,11.7,-3.14,-20.69,-38.69,5.25,-9.5,55.63,-414.25,0.061804017169834635,2.6009153780246197,-2.104916624916166,-115.51550165897758,-9.832557602907887,-17.891591511712036,-0.5031,-0.8458,-0.0857,-0.1555
14,1651197.0,204.210018,1.0,2.27,11.18,-3.44,-6.88,-42.06,5.0,14.44,52.75,-382.56,2.7169944546037827,0.8148711485764295,-1.7662850704507969,-112.38260211278737,-20.20387293870638,-13.253393932396618,-0.5154,-0.8309,-0.1754,-0.1154
15,1651197.0,204.210018,1.0,2.27,11.18,-3.44,-6.88,-42.06,5.0,14.44,52.75,-382.56,2.7169944546037827,0.8148711485764295,-1.7662850704507969,-112.38260211278737,-20.20387293870638,-13.253393932396618,-0.5154,-0.8309,-0.1754,-0.1154
16,1651234.0,204.218179,1.0,2.6,8.65,-6.12,7.69,-42.06,3.38,45.94,74.0,-414.88,3.2432587662704626,-3.534155866655484,0.0072666068882405455,-107.4332446849696,-34.60301565627788,-7.22405231414402,-0.5078,-0.8061,-0.2974,-0.063
17,1651234.0,204.218179,1.0,2.6,8.65,-6.12,7.69,-42.06,3.38,45.94,74.0,-414.88,3.2432587662704626,-3.534155866655484,0.0072666068882405455,-107.4332446849696,-34.60301565627788,-7.22405231414402,-0.5078,-0.8061,-0.2974,-0.063
18,1651269.0,204.25695100000002,1.0,0.75,5.42,-5.9,7.69,-42.06,3.38,9.0,36.63,-410.88,1.2152312816996742,-3.9094674499723263,2.879300060117835,-101.13979730318009,-45.685088838323495,-2.0283765158457068,-0.5023,-0.7724,-0.3882,-0.0177
19,1651269.0,204.25695100000002,1.0,0.75,5.42,-5.9,7.69,-42.06,3.38,9.0,36.63,-410.88,1.2152312816996742,-3.9094674499723263,2.879300060117835,-101.13979730318009,-45.685088838323495,-2.0283765158457068,-0.5023,-0.7724,-0.3882,-0.0177
20,1651306.0,204.315421,1.0,-1.89,3.51,-6.84,21.25,-37.56,6.69,-13.0,5.06,-350.5,-1.3137606242743478,-3.8371712969110097,3.0075361268347223,-91.48326004604112,-58.06425892056141,4.802792327898413,-0.4998,-0.7162,-0.4853,0.0419
21,1651306.0,204.315421,1.0,-1.89,3.51,-6.84,21.25,-37.56,6.69,-13.0,5.06,-350.5,-1.3137606242743478,-3.8371712969110097,3.0075361268347223,-91.48326004604112,-58.06425892056141,4.802792327898413,-0.4998,-0.7162,-0.4853,0.0419
22,1651341.0,204.37573999999998,1.0,-2.69,2.54,-5.82,31.5,-29.5,6.25,-26.62,-47.81,-295.63,-1.5438886642899579,-2.9524994165027785,3.7685000359938283,-84.35041927831398,-65.06800105005402,9.591048446078224,-0.503,-0.6714,-0.5378,0.0836
23,1651341.0,204.37573999999998,1.0,-2.69,2.54,-5.82,31.5,-29.5,6.25,-26.62,-47.81,-295.63,-1.5438886642899579,-2.9524994165027785,3.7685000359938283,-84.35041927831398,-65.06800105005402,9.591048446078224,-0.503,-0.6714,-0.5378,0.0836
24,1651376.0,204.381702,1.0,-3.31,2.64,-4.88,31.5,-29.5,6.25,-62.63,-96.0,-206.38,-0.8694470637041444,-2.540510251769023,3.9304293213603057,-75.9619815049614,-70.40949185665009,15.436288478593855,-0.5204,-0.6154,-0.5765,0.1343
25,1651376.0,204.381702,1.0,-3.31,2.64,-4.88,31.5,-29.5,6.25,-62.63,-96.0,-206.38,-0.8694470637041444,-2.540510251769023,3.9304293213603057,-75.9619815049614,-70.40949185665009,15.436288478593855,-0.5204,-0.6154,-0.5765,0.1343
26,1651410.0,204.399724,1.0,-5.24,3.22,-3.56,38.19,-20.0,3.5,-72.56,-46.19,-136.94,-0.10676461789691173,-1.131750003822506,2.791855402493021,-69.55624736247115,-73.73979529168805,18.228077382152183,-0.5381,-0.5704,-0.6,0.1584
27,1651410.0,204.399724,1.0,-5.24,3.22,-3.56,38.19,-20.0,3.5,-72.56,-46.19,-136.94,-0.10676461789691173,-1.131750003822506,2.791855402493021,-69.55624736247115,-73.73979529168805,18.228077382152183,-0.5381,-0.5704,-0.6,0.1584
28,1651447.0,204.447537,1.0,-5.5,2.08,-4.44,39.75,-14.25,1.37,-45.06,12.38,-64.87,-1.4685065364254806,-1.4850178183974827,2.7406602864837404,-66.78891793624743,-75.75858878812349,18.541499822002773,-0.5424,-0.5504,-0.614,0.1611
29,1651447.0,204.447537,1.0,-5.5,2.08,-4.44,39.75,-14.25,1.37,-45.06,12.38,-64.87,-1.4685065364254806,-1.4850178183974827,2.7406602864837404,-66.78891793624743,-75.75858878812349,18.541499822002773,-0.5424,-0.5504,-0.614,0.1611
30,1651484.0,204.46684299999998,1.0,-6.0,2.51,-4.2,41.06,-10.38,0.56,-62.0,-11.19,-35.81,-1.1017815048846402,-1.2993195432179254,2.2543029316969214,-64.44384400831176,-77.14435187287417,18.1816561801528,-0.5496,-0.5332,-0.6235,0.158
31,1651484.0,204.46684299999998,1.0,-6.0,2.51,-4.2,41.06,-10.38,0.56,-62.0,-11.19,-35.81,-1.1017815048846402,-1.2993195432179254,2.2543029316969214,-64.44384400831176,-77.14435187287417,18.1816561801528,-0.5496,-0.5332,-0.6235,0.158
32,1651517.0,204.507642,1.0,-7.96,3.83,-2.09,41.06,-10.38,0.56,-83.37,-9.63,-3.88,0.6582424343330554,0.6588748039428911,0.7771870652307041,-62.74501384121864,-77.61414399553195,17.31180678552449,-0.56,-0.5206,-0.6267,0.1505
33,1651517.0,204.507642,1.0,-7.96,3.83,-2.09,41.06,-10.38,0.56,-83.37,-9.63,-3.88,0.6582424343330554,0.6588748039428911,0.7771870652307041,-62.74501384121864,-77.61414399553195,17.31180678552449,-0.56,-0.5206,-0.6267,0.1505
34,1651556.0,204.56913,1.0,-9.11,7.72,-1.73,41.75,-8.75,-0.69,-28.81,3.5,5.13,3.5080126110156016,-0.3626098107739653,-1.732230432957346,-61.114626396297396,-77.65826632282992,15.609765091037287,-0.5744,-0.5084,-0.627,0.1358
35,1651556.0,204.56913,1.0,-9.11,7.72,-1.73,41.75,-8.75,-0.69,-28.81,3.5,5.13,3.5080126110156016,-0.3626098107739653,-1.732230432957346,-61.114626396297396,-77.65826632282992,15.609765091037287,-0.5744,-0.5084,-0.627,0.1358
36,1651591.0,204.588066,1.0,-7.17,4.91,-4.23,41.06,-7.88,-0.37,9.38,39.38,-59.06,0.3809108530400961,-1.9021441559009185,0.33845827548320884,-60.63615363736209,-79.06265131180031,15.922114008308865,-0.5665,-0.5048,-0.6365,0.1385
37,1651591.0,204.588066,1.0,-7.17,4.91,-4.23,41.06,-7.88,-0.37,9.38,39.38,-59.06,0.3809108530400961,-1.9021441559009185,0.33845827548320884,-60.63615363736209,-79.06265131180031,15.922114008308865,-0.5665,-0.5048,-0.6365,0.1385
38,1651623.0,204.648019,1.0,-10.8,3.88,-1.26,41.06,-7.88,-0.37,27.44,-11.19,-59.19,1.1422348242062723,2.1852421617245428,-1.4717371320766404,-58.2740608132382,-80.87226170457619,17.253853117357277,-0.5654,-0.4869,-0.6486,0.15
39,1651623.0,204.648019,1.0,-10.8,3.88,-1.26,41.06,-7.88,-0.37,27.44,-11.19,-59.19,1.1422348242062723,2.1852421617245428,-1.4717371320766404,-58.2740608132382,-80.87226170457619,17.253853117357277,-0.5654,-0.4869,-0.6486,0.15
40,1651658.0,204.68891000000002,1.0,-8.05,1.09,-3.48,42.25,-6.75,-0.75,31.06,23.0,-30.0,-1.8577648763088603,0.5568188387569999,1.1846048571607213,-58.16913315906611,-81.71803504011511,18.37896716762953,-0.557,-0.4861,-0.6542,0.1597
41,1651658.0,204.68891000000002,1.0,-8.05,1.09,-3.48,42.25,-6.75,-0.75,31.06,23.0,-30.0,-1.8577648763088603,0.5568188387569999,1.1846048571607213,-58.16913315906611,-81.71803504011511,18.37896716762953,-0.557,-0.4861,-0.6542,0.1597
42,1651695.0,204.706913,1.0,-6.84,2.29,-3.96,42.69,-5.25,-1.19,5.38,29.37,32.13,-0.95467792942694,-0.7526626761613989,1.6682601747963286,-59.06273808576779,-82.24939344216158,17.972797887176398,-0.5477,-0.4929,-0.6577,0.1562
43,1651695.0,204.706913,1.0,-6.84,2.29,-3.96,42.69,-5.25,-1.19,5.38,29.37,32.13,-0.95467792942694,-0.7526626761613989,1.6682601747963286,-59.06273808576779,-82.24939344216158,17.972797887176398,-0.5477,-0.4929,-0.6577,0.1562
44,1651732.0,204.710103,1.0,-7.63,1.88,-3.11,42.69,-5.25,-1.19,32.56,14.13,81.69,-1.0104090791148908,0.6583107557666625,1.4418965402927648,-60.955004938931104,-81.29447844633472,17.080018727926856,-0.5445,-0.5072,-0.6514,0.1485
45,1651732.0,204.710103,1.0,-7.63,1.88,-3.11,42.69,-5.25,-1.19,32.56,14.13,81.69,-1.0104090791148908,0.6583107557666625,1.4418965402927648,-60.955004938931104,-81.29447844633472,17.080018727926856,-0.5445,-0.5072,-0.6514,0.1485
46,1651765.0,204.75682700000002,1.0,-7.85,-0.07,-2.05,41.5,-6.06,-0.75,74.0,73.62,190.56,-2.507439377176204,2.8800901351596373,2.647898112754405,-67.42142956285187,-77.8790835134503,14.962299399917931,-0.5291,-0.555,-0.6285,0.1302
47,1651765.0,204.75682700000002,1.0,-7.85,-0.07,-2.05,41.5,-6.06,-0.75,74.0,73.62,190.56,-2.507439377176204,2.8800901351596373,2.647898112754405,-67.42142956285187,-77.8790835134503,14.962299399917931,-0.5291,-0.555,-0.6285,0.1302
48,1651800.0,204.81653799999998,1.0,-4.43,0.62,-2.98,41.5,-9.0,1.69,22.06,176.75,280.63,-2.259831951964018,0.8457998407087334,5.0037881262481045,-76.74915654963284,-73.96915070870061,6.856665996646211,-0.4991,-0.6208,-0.6016,0.0598
49,1651800.0,204.81653799999998,1.0,-4.43,0.62,-2.98,41.5,-9.0,1.69,22.06,176.75,280.63,-2.259831951964018,0.8457998407087334,5.0037881262481045,-76.74915654963284,-73.96915070870061,6.856665996646211,-0.4991,-0.6208,-0.6016,0.0598
50,1651836.0,204.823606,1.0,-0.87,0.28,-3.29,38.5,-16.87,6.19,36.63,208.0,445.25,-1.923049017234288,-1.3680577788297892,7.33891816872304,-86.26691017894268,-68.12542738094108,-2.200293133435064,-0.4674,-0.6837,-0.5601,-0.0192
51,1651836.0,204.823606,1.0,-0.87,0.28,-3.29,38.5,-16.87,6.19,36.63,208.0,445.25,-1.923049017234288,-1.3680577788297892,7.33891816872304,-86.26691017894268,-68.12542738094108,-2.200293133435064,-0.4674,-0.6837,-0.5601,-0.0192
52,1651871.0,204.88355900000002,1.0,4.58,4.44,-2.91,38.5,-16.87,6.19,-85.31,208.13,528.75,3.0635712311174847,-4.414467567117316,5.30275086583429,-98.80505247705544,-55.135868994465206,-18.054013364312716,-0.4297,-0.7593,-0.4628,-0.1569
53,1651871.0,204.88355900000002,1.0,4.58,4.44,-2.91,38.5,-16.87,6.19,-85.31,208.13,528.75,3.0635712311174847,-4.414467567117316,5.30275086583429,-98.80505247705544,-55.135868994465206,-18.054013364312716,-0.4297,-0.7593,-0.4628,-0.1569
54,1651908.0,204.90168300000002,1.0,5.63,8.07,-2.71,28.75,-29.87,11.56,-214.06,171.38,477.31,4.192870618686247,-2.8839973831088,0.9597129555094508,-102.81460845539635,-43.97446806674141,-30.757674330799205,-0.4226,-0.7816,-0.3744,-0.2652
55,1651908.0,204.90168300000002,1.0,5.63,8.07,-2.71,28.75,-29.87,11.56,-214.06,171.38,477.31,4.192870618686247,-2.8839973831088,0.9597129555094508,-102.81460845539635,-43.97446806674141,-30.757674330799205,-0.4226,-0.7816,-0.3744,-0.2652
56,1651945.0,204.958049,1.0,7.01,9.4,-0.6,12.25,-39.56,11.56,-247.75,254.81,405.81,3.845898609047089,-0.5600843281534456,-1.272856732444664,-100.83357983561886,-30.52004779633356,-48.158519404241254,-0.4126,-0.7707,-0.2632,-0.408
57,1651945.0,204.958049,1.0,7.01,9.4,-0.6,12.25,-39.56,11.56,-247.75,254.81,405.81,3.845898609047089,-0.5600843281534456,-1.272856732444664,-100.83357983561886,-30.52004779633356,-48.158519404241254,-0.4126,-0.7707,-0.2632,-0.408
58,1651982.0,204.960923,1.0,11.25,16.45,-2.68,12.25,-39.56,11.56,-141.5,240.31,257.44,0.4874180280315738,0.6909670060355609,-10.283954477280416,-94.8682331378412,-23.62387580431868,-60.29131575913539,-0.4042,-0.7365,-0.2047,-0.5022
59,1651982.0,204.960923,1.0,11.25,16.45,-2.68,12.25,-39.56,11.56,-141.5,240.31,257.44,0.4874180280315738,0.6909670060355609,-10.283954477280416,-94.8682331378412,-23.62387580431868,-60.29131575913539,-0.4042,-0.7365,-0.2047,-0.5022
60,1652017.0,205.00428,1.0,5.65,9.1,-0.23,-4.38,-42.56,3.0,-26.75,119.25,22.31,0.1087453004483585,1.6831073003604615,-0.7735543588535574,-90.42102349007357,-22.477763863075143,-67.86281386047486,-0.3831,-0.7097,-0.1949,-0.5582
61,1652017.0,205.00428,1.0,5.65,9.1,-0.23,-4.38,-42.56,3.0,-26.75,119.25,22.31,0.1087453004483585,1.6831073003604615,-0.7735543588535574,-90.42102349007357,-22.477763863075143,-67.86281386047486,-0.3831,-0.7097,-0.1949,-0.5582
62,1652051.0,205.066742,1.0,4.47,10.36,1.15,-12.25,-41.19,-1.5,-53.31,145.88,-21.62,0.19025600470329665,3.3368764913259064,-1.0313414160471108,-84.86171562810705,-23.975200651636385,-72.55547677388151,-0.3892,-0.6747,-0.2077,-0.5917
63,1652051.0,205.066742,1.0,4.47,10.36,1.15,-12.25,-41.19,-1.5,-53.31,145.88,-21.62,0.19025600470329665,3.3368764913259064,-1.0313414160471108,-84.86171562810705,-23.975200651636385,-72.55547677388151,-0.3892,-0.6747,-0.2077,-0.5917
64,1652088.0,205.083544,1.0,6.2,9.24,0.52,-12.56,-40.69,-5.25,14.25,173.13,-18.37,-0.18991960452404236,0.8946719619211425,-1.295218879804409,-81.2189848647937,-26.676574330601248,-75.75858878812349,-0.3823,-0.6509,-0.2307,-0.614
65,1652088.0,205.083544,1.0,6.2,9.24,0.52,-12.56,-40.69,-5.25,14.25,173.13,-18.37,-0.18991960452404236,0.8946719619211425,-1.295218879804409,-81.2189848647937,-26.676574330601248,-75.75858878812349,-0.3823,-0.6509,-0.2307,-0.614
66,1652123.0,205.135931,1.0,6.44,9.27,-0.04,-12.56,-40.69,-5.25,56.63,108.06,-28.19,-0.9464591971106378,0.3593456947852065,-1.4353776489539012,-77.71711737256554,-30.365662677140477,-78.73617218118244,-0.368,-0.6274,-0.2619,-0.6343
67,1652123.0,205.135931,1.0,6.44,9.27,-0.04,-12.56,-40.69,-5.25,56.63,108.06,-28.19,-0.9464591971106378,0.3593456947852065,-1.4353776489539012,-77.71711737256554,-30.365662677140477,-78.73617218118244,-0.368,-0.6274,-0.2619,-0.6343
68,1652160.0,205.148146,1.0,5.01,8.42,0.39,-10.0,-42.19,-5.25,18.25,107.0,-51.81,-0.5603380407292351,0.7648252636351245,0.04705658653152689,-75.29474135486807,-33.16551997219127,-80.01681335104666,-0.3635,-0.6108,-0.2854,-0.6429
69,1652160.0,205.148146,1.0,5.01,8.42,0.39,-10.0,-42.19,-5.25,18.25,107.0,-51.81,-0.5603380407292351,0.7648252636351245,0.04705658653152689,-75.29474135486807,-33.16551997219127,-80.01681335104666,-0.3635,-0.6108,-0.2854,-0.6429
70,1652197.0,205.203303,1.0,5.38,9.75,1.21,-8.06,-42.06,-5.38,14.0,63.69,-26.5,-0.1308993452197349,0.9770123927801676,-1.3512759786832709,-72.47021290272461,-35.299808644002006,-81.74834084363056,-0.3613,-0.5911,-0.3032,-0.6544
71,1652197.0,205.203303,1.0,5.38,9.75,1.21,-8.06,-42.06,-5.38,14.0,63.69,-26.5,-0.1308993452197349,0.9770123927801676,-1.3512759786832709,-72.47021290272461,-35.299808644002006,-81.74834084363056,-0.3613,-0.5911,-0.3032,-0.6544
72,1652232.0,205.273484,1.0,4.71,9.35,1.12,-8.06,-42.06,-5.38,28.37,62.81,-48.44,-0.1665039456700146,1.0570229479451614,-0.6678895566389276,-70.9010852783508,-37.26537941343616,-82.26460667045434,-0.359,-0.58,-0.3195,-0.6578
73,1652232.0,205.273484,1.0,4.71,9.35,1.12,-8.06,-42.06,-5.38,28.37,62.81,-48.44,-0.1665039456700146,1.0570229479451614,-0.6678895566389276,-70.9010852783508,-37.26537941343616,-82.26460667045434,-0.359,-0.58,-0.3195,-0.6578
74,1652264.0,205.276452,1.0,4.21,8.7,0.24,-7.0,-43.5,-5.88,19.19,33.56,-38.25,-0.9215810364632816,0.8159901253974544,0.21725228645796868,-69.13823625091533,-39.85124375899717,-82.34069929138175,-0.3586,-0.5674,-0.3408,-0.6583
75,1652264.0,205.276452,1.0,4.21,8.7,0.24,-7.0,-43.5,-5.88,19.19,33.56,-38.25,-0.9215810364632816,0.8159901253974544,0.21725228645796868,-69.13823625091533,-39.85124375899717,-82.34069929138175,-0.3586,-0.5674,-0.3408,-0.6583
76,1652301.0,205.319422,1.0,5.56,16.23,8.54,-4.06,-43.5,-7.06,-177.13,72.19,39.44,5.258248928946589,3.40600595381558,-8.30434228766345,-66.26813997300863,-37.676791133557344,-85.6404088628468,-0.3674,-0.5466,-0.3229,-0.6797
77,1652301.0,205.319422,1.0,5.56,16.23,8.54,-4.06,-43.5,-7.06,-177.13,72.19,39.44,5.258248928946589,3.40600595381558,-8.30434228766345,-66.26813997300863,-37.676791133557344,-85.6404088628468,-0.3674,-0.5466,-0.3229,-0.6797
78,1652338.0,205.328198,1.0,4.3,3.42,-0.57,-3.69,-43.19,-8.0,140.31,-38.5,-17.81,-1.2497393125825749,-1.8952719516021408,4.771037238869946,-69.2356779378902,-41.182660023882,-82.31025694358621,-0.3473,-0.5681,-0.3517,-0.6581
79,1652338.0,205.328198,1.0,4.3,3.42,-0.57,-3.69,-43.19,-8.0,140.31,-38.5,-17.81,-1.2497393125825749,-1.8952719516021408,4.771037238869946,-69.2356779378902,-41.182660023882,-82.31025694358621,-0.3473,-0.5681,-0.3517,-0.6581
80,1652371.0,205.392559,1.0,4.56,7.66,0.79,-3.69,-43.19,-8.0,-46.5,27.69,-18.5,-0.3483523435381544,-0.15728245569199786,0.8653294669980109,-67.97333851203919,-41.36633360366066,-82.85930736243537,-0.3536,-0.5589999999999999,-0.3532,-0.6617
81,1652371.0,205.392559,1.0,4.56,7.66,0.79,-3.69,-43.19,-8.0,-46.5,27.69,-18.5,-0.3483523435381544,-0.15728245569199786,0.8653294669980109,-67.97333851203919,-41.36633360366066,-82.85930736243537,-0.3536,-0.5589999999999999,-0.3532,-0.6617
82,1652408.0,205.411956,1.0,3.39,9.92,2.04,-3.69,-43.88,-4.56,-18.12,6.56,-38.75,0.6962150771441921,1.7293575083486283,-0.7092763583706851,-67.03614692743177,-41.452085959696824,-82.88987813746495,-0.363,-0.5522,-0.3539,-0.6619
83,1652408.0,205.411956,1.0,3.39,9.92,2.04,-3.69,-43.88,-4.56,-18.12,6.56,-38.75,0.6962150771441921,1.7293575083486283,-0.7092763583706851,-67.03614692743177,-41.452085959696824,-82.88987813746495,-0.363,-0.5522,-0.3539,-0.6619
84,1652445.0,205.414998,1.0,3.75,8.28,1.13,-2.19,-43.19,-5.5,16.81,24.81,-11.56,-0.11622309539974696,0.5538192685130259,0.6645727519168609,-66.25445619743063,-42.396980116115046,-82.96633660527758,-0.363,-0.5465,-0.3616,-0.6624
85,1652445.0,205.414998,1.0,3.75,8.28,1.13,-2.19,-43.19,-5.5,16.81,24.81,-11.56,-0.11622309539974696,0.5538192685130259,0.6645727519168609,-66.25445619743063,-42.396980116115046,-82.96633660527758,-0.363,-0.5465,-0.3616,-0.6624
86,1652480.0,205.458093,1.0,3.56,8.29,1.19,-2.19,-43.19,-5.5,-10.31,20.37,-8.44,-0.10389354221870062,0.6821656399689249,0.7326400721053279,-65.55798771264952,-42.65520072513622,-83.44139093704848,-0.363,-0.5414,-0.3637,-0.6655
87,1652480.0,205.458093,1.0,3.56,8.29,1.19,-2.19,-43.19,-5.5,-10.31,20.37,-8.44,-0.10389354221870062,0.6821656399689249,0.7326400721053279,-65.55798771264952,-42.65520072513622,-83.44139093704848,-0.363,-0.5414,-0.3637,-0.6655
88,1652514.0,205.522891,1.0,3.67,8.54,1.5,-1.37,-43.88,-5.06,-21.31,28.19,-2.0,-0.019965226631874836,0.6575893462667786,0.4142233890861853,-64.37613024312793,-42.58140028916194,-84.47417954583062,-0.3641,-0.5327,-0.3631,-0.6722
89,1652514.0,205.522891,1.0,3.67,8.54,1.5,-1.37,-43.88,-5.06,-21.31,28.19,-2.0,-0.019965226631874836,0.6575893462667786,0.4142233890861853,-64.37613024312793,-42.58140028916194,-84.47417954583062,-0.3641,-0.5327,-0.3631,-0.6722
90,1652549.0,205.589147,1.0,4.25,8.77,2.2,-0.69,-43.19,-5.88,-16.44,14.56,-1.12,0.4116821760897647,0.19633605030122325,-0.1736991893441342,-63.79482577106735,-42.2372423793781,-85.04815885199483,-0.3664,-0.5284,-0.3603,-0.6759
91,1652549.0,205.589147,1.0,4.25,8.77,2.2,-0.69,-43.19,-5.88,-16.44,14.56,-1.12,0.4116821760897647,0.19633605030122325,-0.1736991893441342,-63.79482577106735,-42.2372423793781,-85.04815885199483,-0.3664,-0.5284,-0.3603,-0.6759
92,1652586.0,205.60294299999998,1.0,4.08,8.52,2.36,-1.06,-43.5,-6.25,-13.44,10.0,0.88,0.5153922105393247,0.22108854086177665,0.08595605736323897,-63.296099194215,-41.93029563540066,-85.5310977047494,-0.3682,-0.5247,-0.3578,-0.679
93,1652586.0,205.60294299999998,1.0,4.08,8.52,2.36,-1.06,-43.5,-6.25,-13.44,10.0,0.88,0.5153922105393247,0.22108854086177665,0.08595605736323897,-63.296099194215,-41.93029563540066,-85.5310977047494,-0.3682,-0.5247,-0.3578,-0.679
94,1652619.0,205.610815,1.0,3.75,9.1,2.63,-1.06,-43.5,-6.25,-7.56,16.25,2.69,0.6754128695380359,0.768431673515809,-0.3295588681518442,-62.81213256780961,-41.7953389567468,-86.06294675165964,-0.3681,-0.5211,-0.3567,-0.6824
95,1652619.0,205.610815,1.0,3.75,9.1,2.63,-1.06,-43.5,-6.25,-7.56,16.25,2.69,0.6754128695380359,0.768431673515809,-0.3295588681518442,-62.81213256780961,-41.7953389567468,-86.06294675165964,-0.3681,-0.5211,-0.3567,-0.6824
96,1652656.0,205.654948,1.0,4.25,8.44,2.29,-0.69,-43.5,-6.69,-2.88,12.5,1.19,0.2882735165195194,0.05363411974057719,0.08789381616283798,-62.423176652141294,-41.89348323735908,-86.48694417859592,-0.3666,-0.5182,-0.3575,-0.6851
97,1652656.0,205.654948,1.0,4.25,8.44,2.29,-0.69,-43.5,-6.69,-2.88,12.5,1.19,0.2882735165195194,0.05363411974057719,0.08789381616283798,-62.423176652141294,-41.89348323735908,-86.48694417859592,-0.3666,-0.5182,-0.3575,-0.6851
98,1652690.0,205.671897,1.0,4.25,8.66,2.29,-1.37,-43.88,-7.06,-3.69,3.19,-3.69,0.2262610211362235,0.1482031535943804,-0.10440654184149524,-62.235691121359,-41.85667536570541,-86.58136615125805,-0.3674,-0.5168,-0.3572,-0.6857
99,1652690.0,205.671897,1.0,4.25,8.66,2.29,-1.37,-43.88,-7.06,-3.69,3.19,-3.69,0.2262610211362235,0.1482031535943804,-0.10440654184149524,-62.235691121359,-41.85667536570541,-86.58136615125805,-0.3674,-0.5168,-0.3572,-0.6857
100,1652725.0,205.71864,1.0,3.37,8.93,2.29,-1.37,-43.88,-7.06,-0.5,1.5,-7.75,0.34235565223572073,1.0065761942080942,0.048807155772809814,-62.101886205747824,-41.93029563540066,-86.5026760902236,-0.3694,-0.5158,-0.3578,-0.6852
101,1652725.0,205.71864,1.0,3.37,8.93,2.29,-1.37,-43.88,-7.06,-0.5,1.5,-7.75,0.34235565223572073,1.0065761942080942,0.048807155772809814,-62.101886205747824,-41.93029563540066,-86.5026760902236,-0.3694,-0.5158,-0.3578,-0.6852
102,1652760.0,205.787766,1.0,3.81,8.42,2.18,-1.37,-42.75,-6.25,-1.5,13.44,2.19,0.21413252532383886,0.3800426422970178,0.3211550286432434,-61.914717161290675,-42.11442571308733,-86.62860462931063,-0.3682,-0.5144,-0.3593,-0.6859999999999999
103,1652760.0,205.787766,1.0,3.81,8.42,2.18,-1.37,-42.75,-6.25,-1.5,13.44,2.19,0.21413252532383886,0.3800426422970178,0.3211550286432434,-61.914717161290675,-42.11442571308733,-86.62860462931063,-0.3682,-0.5144,-0.3593,-0.6859999999999999
104,1652797.0,205.80621599999998,1.0,4.3,8.59,2.32,-0.25,-42.75,-6.69,-2.25,1.81,-1.5,0.1901765502022681,0.018284855108513298,-0.07383574432587281,-61.660994863575795,-42.12670509670736,-86.91242223942659,-0.3676,-0.5125,-0.3594,-0.6878
105,1652797.0,205.80621599999998,1.0,4.3,8.59,2.32,-0.25,-42.75,-6.69,-2.25,1.81,-1.5,0.1901765502022681,0.018284855108513298,-0.07383574432587281,-61.660994863575795,-42.12670509670736,-86.91242223942659,-0.3676,-0.5125,-0.3594,-0.6878
106,1652832.0,205.84891000000002,1.0,3.46,8.77,2.39,-0.25,-42.75,-6.69,-2.25,-7.5,-3.06,0.4029592792055348,0.8230213097865331,0.12383740535894637,-61.71438217106357,-42.065313242449655,-86.80196974664999,-0.3688,-0.5129,-0.3589,-0.6871
107,1652832.0,205.84891000000002,1.0,3.46,8.77,2.39,-0.25,-42.75,-6.69,-2.25,-7.5,-3.06,0.4029592792055348,0.8230213097865331,0.12383740535894637,-61.71438217106357,-42.065313242449655,-86.80196974664999,-0.3688,-0.5129,-0.3589,-0.6871
108,1652867.0,205.857582,1.0,3.4,8.48,2.23,-0.69,-44.69,-6.69,2.5,4.38,2.63,0.3146911644018955,0.753458254123629,0.4377349011029903,-61.78113721204743,-42.11442571308733,-86.72313671594557,-0.3687,-0.5134,-0.3593,-0.6866
109,1652867.0,205.857582,1.0,3.4,8.48,2.23,-0.69,-44.69,-6.69,2.5,4.38,2.63,0.3146911644018955,0.753458254123629,0.4377349011029903,-61.78113721204743,-42.11442571308733,-86.72313671594557,-0.3687,-0.5134,-0.3593,-0.6866
110,1652901.0,205.932185,1.0,4.04,8.65,2.08,0.06,-43.88,-8.0,-5.25,2.69,3.0,-0.0041576572015844535,0.30940690672740523,0.04065030309461904,-61.78113721204743,-41.91802433278389,-86.80196974664999,-0.3693,-0.5134,-0.3577,-0.6871
111,1652901.0,205.932185,1.0,4.04,8.65,2.08,0.06,-43.88,-8.0,-5.25,2.69,3.0,-0.0041576572015844535,0.30940690672740523,0.04065030309461904,-61.78113721204743,-41.91802433278389,-86.80196974664999,-0.3693,-0.5134,-0.3577,-0.6871
112,1652936.0,205.953546,1.0,3.97,8.35,2.15,0.06,-43.5,-8.0,-9.0,-0.44,0.0,0.09261170465178292,0.2169121086054009,0.3171678113185834,-61.80784574236153,-41.66044293714295,-86.69161784271964,-0.3723,-0.5136,-0.3556,-0.6864
113,1652936.0,205.953546,1.0,3.97,8.35,2.15,0.06,-43.5,-8.0,-9.0,-0.44,0.0,0.09261170465178292,0.2169121086054009,0.3171678113185834,-61.80784574236153,-41.66044293714295,-86.69161784271964,-0.3723,-0.5136,-0.3556,-0.6864
114,1652971.0,206.001059,1.0,3.67,8.52,2.39,0.06,-43.5,-8.0,0.06,-3.5,-3.56,0.34344038326747683,0.5174349473585682,0.2470626774011233,-61.7677843434822,-41.611404826079344,-86.61285643063455,-0.3741,-0.5133,-0.3552,-0.6859
115,1652971.0,206.001059,1.0,3.67,8.52,2.39,0.06,-43.5,-8.0,0.06,-3.5,-3.56,0.34344038326747683,0.5174349473585682,0.2470626774011233,-61.7677843434822,-41.611404826079344,-86.61285643063455,-0.3741,-0.5133,-0.3552,-0.6859
116,1653008.0,206.009433,1.0,3.19,8.5,2.6,-1.06,-43.88,-8.0,3.38,-5.63,-4.81,0.6172820203418463,0.8725876313130243,0.4234920170476588,-61.67434029817293,-41.57463147554045,-86.4397606253599,-0.3772,-0.5126,-0.3549,-0.6848
117,1653008.0,206.009433,1.0,3.19,8.5,2.6,-1.06,-43.88,-8.0,3.38,-5.63,-4.81,0.6172820203418463,0.8725876313130243,0.4234920170476588,-61.67434029817293,-41.57463147554045,-86.4397606253599,-0.3772,-0.5126,-0.3549,-0.6848
118,1653043.0,206.029424,1.0,3.92,8.41,2.06,-0.25,-43.5,-7.06,-0.5,10.88,7.38,-0.025746455606746373,0.2460052547490852,0.3052333406454846,-61.63430677668394,-41.67270371214475,-86.53414601080244,-0.3759,-0.5123,-0.3557,-0.6854
119,1653043.0,206.029424,1.0,3.92,8.41,2.06,-0.25,-43.5,-7.06,-0.5,10.88,7.38,-0.025746455606746373,0.2460052547490852,0.3052333406454846,-61.63430677668394,-41.67270371214475,-86.53414601080244,-0.3759,-0.5123,-0.3557,-0.6854
120,1653078.0,206.079775,1.0,3.77,8.56,2.19,-0.25,-43.5,-7.06,-4.75,-5.31,1.75,0.09213040528979176,0.4580446504905691,0.21163530034590566,-61.660994863575795,-41.48884440066444,-86.61285643063455,-0.376,-0.5125,-0.3542,-0.6859
121,1653078.0,206.079775,1.0,3.77,8.56,2.19,-0.25,-43.5,-7.06,-4.75,-5.31,1.75,0.09213040528979176,0.4580446504905691,0.21163530034590566,-61.660994863575795,-41.48884440066444,-86.61285643063455,-0.376,-0.5125,-0.3542,-0.6859
122,1653112.0,206.14919,1.0,4.08,8.53,2.25,-1.37,-43.5,-8.0,2.38,-0.25,3.0,0.10029683900668407,0.1846374682370353,0.08936387941014168,-61.78113721204743,-41.35408524581363,-86.58136615125805,-0.3761,-0.5134,-0.3531,-0.6857
123,1653112.0,206.14919,1.0,4.08,8.53,2.25,-1.37,-43.5,-8.0,2.38,-0.25,3.0,0.10029683900668407,0.1846374682370353,0.08936387941014168,-61.78113721204743,-41.35408524581363,-86.58136615125805,-0.3761,-0.5134,-0.3531,-0.6857
124,1653147.0,206.158184,1.0,3.76,8.43,2.32,-0.69,-42.75,-7.5,2.94,-5.5,-3.88,0.2578726498009989,0.4055034989481552,0.30117954300391325,-61.88799370587642,-41.35408524581363,-86.4397606253599,-0.3768,-0.5142,-0.3531,-0.6848
125,1653147.0,206.158184,1.0,3.76,8.43,2.32,-0.69,-42.75,-7.5,2.94,-5.5,-3.88,0.2578726498009989,0.4055034989481552,0.30117954300391325,-61.88799370587642,-41.35408524581363,-86.4397606253599,-0.3768,-0.5142,-0.3531,-0.6848
126,1653182.0,206.17279299999998,1.0,3.84,8.51,2.16,-0.69,-42.75,-7.5,-4.75,-0.37,-0.06,0.0721151807194893,0.3766744359499352,0.23146249426353904,-61.87463337928294,-41.35408524581363,-86.37687760452374,-0.3776,-0.5141,-0.3531,-0.6844
127,1653182.0,206.17279299999998,1.0,3.84,8.51,2.16,-0.69,-42.75,-7.5,-4.75,-0.37,-0.06,0.0721151807194893,0.3766744359499352,0.23146249426353904,-61.87463337928294,-41.35408524581363,-86.37687760452374,-0.3776,-0.5141,-0.3531,-0.6844
128,1653215.0,206.22481299999998,1.0,3.53,8.61,2.41,-0.69,-42.75,-8.38,-0.56,0.06,0.25,0.3312150786266708,0.6515518127321966,0.22192899169643526,-61.84791552643628,-41.219385875064134,-86.23550907382523,-0.3806,-0.5139,-0.35200000000000004,-0.6835
129,1653215.0,206.22481299999998,1.0,3.53,8.61,2.41,-0.69,-42.75,-8.38,-0.56,0.06,0.25,0.3312150786266708,0.6515518127321966,0.22192899169643526,-61.84791552643628,-41.219385875064134,-86.23550907382523,-0.3806,-0.5139,-0.35200000000000004,-0.6835
130,1653252.0,206.244033,1.0,3.74,8.69,2.49,-1.06,-43.5,-8.75,-1.63,2.0,0.94,0.33874344749562896,0.4935872071808598,0.0421518282716562,-61.821201404862826,-41.096983557102725,-86.20411602380804,-0.382,-0.5137,-0.35100000000000003,-0.6833
131,1653252.0,206.244033,1.0,3.74,8.69,2.49,-1.06,-43.5,-8.75,-1.63,2.0,0.94,0.33874344749562896,0.4935872071808598,0.0421518282716562,-61.821201404862826,-41.096983557102725,-86.20411602380804,-0.382,-0.5137,-0.35100000000000003,-0.6833
132,1653286.0,206.292816,1.0,3.92,8.43,2.27,-1.37,-42.75,-8.75,2.5,3.06,2.75,0.12339668234350933,0.21103088771279574,0.23980939177317676,-61.75443240547686,-41.109221581061185,-86.12566858375126,-0.3835,-0.5132,-0.3511,-0.6828
133,1653286.0,206.292816,1.0,3.92,8.43,2.27,-1.37,-42.75,-8.75,2.5,3.06,2.75,0.12339668234350933,0.21103088771279574,0.23980939177317676,-61.75443240547686,-41.109221581061185,-86.12566858375126,-0.3835,-0.5132,-0.3511,-0.6828
134,1653319.0,206.310677,1.0,3.6,8.83,2.44,-1.37,-42.75,-8.75,-2.63,-0.5,1.81,0.2700343539019514,0.6597776506788877,-0.010390027389997059,-61.701033951542065,-41.096983557102725,-86.1570415333954,-0.3838,-0.5128,-0.35100000000000003,-0.6829999999999999
135,1653319.0,206.310677,1.0,3.6,8.83,2.44,-1.37,-42.75,-8.75,-2.63,-0.5,1.81,0.2700343539019514,0.6597776506788877,-0.010390027389997059,-61.701033951542065,-41.096983557102725,-86.1570415333954,-0.3838,-0.5128,-0.35100000000000003,-0.6829999999999999
136,1653356.0,206.360127,1.0,4.16,8.35,1.88,-0.69,-43.19,-8.0,5.31,4.13,3.44,-0.2943495560319045,-0.019907303812641608,0.29479097885598904,-61.63430677668394,-41.20714343304567,-86.1727310203409,-0.3836,-0.5123,-0.3519,-0.6831
137,1653356.0,206.360127,1.0,4.16,8.35,1.88,-0.69,-43.19,-8.0,5.31,4.13,3.44,-0.2943495560319045,-0.019907303812641608,0.29479097885598904,-61.63430677668394,-41.20714343304567,-86.1727310203409,-0.3836,-0.5123,-0.3519,-0.6831
138,1653391.0,206.382544,1.0,3.91,8.4,2.24,-1.06,-43.5,-8.38,-0.44,-1.37,-2.19,0.08548784328682958,0.1888648673514446,0.27655441335814857,-61.64765035653756,-41.13369909947952,-86.10998511892349,-0.3846,-0.5124,-0.3513,-0.6827
139,1653391.0,206.382544,1.0,3.91,8.4,2.24,-1.06,-43.5,-8.38,-0.44,-1.37,-2.19,0.08548784328682958,0.1888648673514446,0.27655441335814857,-61.64765035653756,-41.13369909947952,-86.10998511892349,-0.3846,-0.5124,-0.3513,-0.6827
140,1653424.0,206.446066,1.0,3.84,8.66,2.32,-1.06,-43.5,-8.38,-5.06,-1.63,-2.63,0.104474086261946,0.3484013574522642,0.060301880861983286,-61.52759147164257,-41.06027242384908,-86.10998511892349,-0.3862,-0.5115,-0.3507,-0.6827
141,1653424.0,206.446066,1.0,3.84,8.66,2.32,-1.06,-43.5,-8.38,-5.06,-1.63,-2.63,0.104474086261946,0.3484013574522642,0.060301880861983286,-61.52759147164257,-41.06027242384908,-86.10998511892349,-0.3862,-0.5115,-0.3507,-0.6827
142,1653460.0,206.455319,1.0,3.63,8.55,2.35,-1.06,-44.25,-8.75,-0.44,3.0,0.75,0.1823370163171205,0.4777476663757927,0.2389747139259022,-61.54092764747301,-40.99909698527016,-86.06294675165964,-0.3872,-0.5116,-0.3502,-0.6824
143,1653460.0,206.455319,1.0,3.63,8.55,2.35,-1.06,-44.25,-8.75,-0.44,3.0,0.75,0.1823370163171205,0.4777476663757927,0.2389747139259022,-61.54092764747301,-40.99909698527016,-86.06294675165964,-0.3872,-0.5116,-0.3502,-0.6824
