TIME,ELAPSED_SECONDS,PSTATE,acc_x,acc_y,acc_z,mag_x,mag_y,mag_z,gyr_x,gyr_y,gyr_z,lin_x,lin_y,lin_z,eul_x,eul_y,eul_z,qua_w,qua_x,qua_y,qua_z
588105.0,559.912419,1.0,0.09,1.76,-9.5,4.19,-22.69,34.38,2.56,-2.19,-0.56,-0.21336570187926765,-0.09433334548727212,0.14739142093759128,-159.66766312617878,-16.686140017359815,-3.2319104185008167,-0.0962,-0.9843,-0.1451,-0.0282
588138.0,559.915763,1.0,0.18,2.0,-9.58,4.19,-22.69,34.38,-1.94,2.44,0.06,-0.07699114118998629,0.08602845651695212,0.019133896879274914,-159.66766312617878,-16.69772182857332,-3.2892294003721183,-0.0965,-0.9843,-0.1452,-0.0287
588173.0,559.987519,1.0,0.51,1.86,-9.91,4.19,-22.0,34.38,1.0,2.19,-0.19,0.15453837466774728,-0.1930696546481984,-0.28625057412680377,-159.66766312617878,-16.709303811577858,-3.3924056518954067,-0.0962,-0.9843,-0.1453,-0.0296
588210.0,559.994918,1.0,0.15,1.86,-9.52,4.19,-22.25,36.06,0.12,1.88,0.25,-0.1557244883720384,-0.01564802342076177,0.10675283440673412,-159.66766312617878,-16.709303811577858,-3.3924056518954067,-0.0961,-0.9843,-0.1453,-0.0296
588244.0,560.01297,1.0,0.38,1.94,-9.67,4.19,-22.25,36.06,-0.19,1.44,0.5,0.0637589250560523,-0.033181596002083036,-0.06308828331645344,-159.66766312617878,-16.69772182857332,-3.4497269749928665,-0.0961,-0.9843,-0.1452,-0.0301
588279.0,560.0594940000002,1.0,0.43,2.01,-9.78,3.75,-22.25,34.38,-0.69,1.37,-0.31,0.11389908275777468,-0.0007849754316477943,-0.1863688823378329,-159.66766312617878,-16.709303811577858,-3.495584654482353,-0.0961,-0.9843,-0.1453,-0.0305
588314.0,560.0983349999998,1.0,0.17,1.86,-9.47,4.19,-23.06,35.25,0.63,1.44,0.25,-0.15073355469635666,-0.005820769744376064,0.15539901817758128,-159.66766312617878,-16.709303811577858,-3.5070491615651807,-0.0959,-0.9843,-0.1453,-0.0306
588349.0,560.1288440000002,1.0,0.51,1.91,-9.73,3.75,-23.06,34.75,0.0,2.88,0.37,0.15059165036053473,-0.09671662167544184,-0.12053832549949385,-159.66766312617878,-16.709303811577858,-3.5987664920103746,-0.0956,-0.9843,-0.1453,-0.0314
588384.0,560.191609,1.0,0.21,1.99,-9.6,3.75,-23.06,34.75,-1.19,-1.19,0.5,-0.10095049384010504,0.08521934884735938,0.001205254330608696,-159.66766312617878,-16.69772182857332,-3.5873017007906127,-0.0958,-0.9843,-0.1452,-0.0313
588419.0,560.202759,1.0,0.35,1.84,-9.62,3.75,-22.25,36.06,1.12,1.75,1.12,-0.016052988741689436,-0.09139881002324304,0.0064516061368031785,-159.66766312617878,-16.66297690980209,-3.621696182670093,-0.0954,-0.9843,-0.1449,-0.0316
588453.0,560.216864,1.0,0.64,2.1,-9.85,4.56,-22.69,35.19,-1.63,3.69,0.25,0.2921008532392668,0.02231293825741832,-0.2807817457082855,-159.66766312617878,-16.66297690980209,-3.7363468303015934,-0.0958,-0.9843,-0.1449,-0.0326
588488.0,560.256567,1.0,0.25,1.83,-9.66,4.56,-22.69,35.19,1.37,0.0,0.0,-0.13752676539128614,-0.07791295174413015,-0.02706831815166133,-159.66766312617878,-16.674558377811383,-3.7363468303015934,-0.0955,-0.9843,-0.145,-0.0326
588523.0,560.31375,1.0,0.25,1.87,-9.64,3.75,-22.0,35.25,0.0,-1.37,-0.12,-0.12452123099291093,-0.03675368892395392,-0.015373397924813403,-159.66766312617878,-16.674558377811383,-3.7363468303015934,-0.0955,-0.9843,-0.145,-0.0326
588560.0,560.3306200000002,1.0,0.57,2.02,-9.73,3.75,-22.25,34.38,-0.56,2.0,0.19,0.20712009492353586,-0.004057436602569187,-0.1449973411936778,-159.66766312617878,-16.674558377811383,-3.7822081305683333,-0.0955,-0.9843,-0.145,-0.033
588593.0,560.369456,1.0,0.21,1.68,-9.56,3.75,-22.25,34.38,2.25,0.63,-0.75,-0.2092299578348084,-0.18337354691238827,0.10187298210632713,-159.66766312617878,-16.69772182857332,-3.7478120989556993,-0.0952,-0.9843,-0.1452,-0.0327
588627.0,560.423192,1.0,0.29,1.79,-9.75,4.19,-22.0,36.06,-0.44,1.25,0.19,-0.12462787030917295,-0.1324356500205215,-0.10887463022233844,-159.66766312617878,-16.709303811577858,-3.7822081305683333,-0.095,-0.9843,-0.1453,-0.033
588662.0,560.438462,1.0,0.46,2.02,-9.69,4.19,-22.69,35.75,-1.88,4.5,1.56,0.0951430915381502,0.044680727694846656,-0.10178334865332064,-159.66766312617878,-16.674558377811383,-3.851001219583861,-0.0951,-0.9843,-0.145,-0.0336
588697.0,560.482005,1.0,0.47,1.99,-9.6,4.19,-22.69,35.75,0.19,0.56,-0.06,0.09076598036663053,0.02967121457026833,-0.008230598144535861,-159.66766312617878,-16.66297690980209,-3.931261580029344,-0.0952,-0.9843,-0.1449,-0.0343
588732.0,560.544342,1.0,0.49,2.0,-9.74,3.75,-22.69,34.38,0.19,0.94,0.0,0.09366480218220063,0.009163688833817352,-0.14819017609720575,-159.66766312617878,-16.674558377811383,-3.965659465674837,-0.0952,-0.9843,-0.145,-0.0346
588765.0,560.561313,1.0,0.47,1.89,-9.65,3.75,-22.69,35.56,1.06,-0.88,-0.31,0.05529087754304643,-0.0668884366084197,-0.03753451959879861,-159.66766312617878,-16.674558377811383,-3.9541934642266323,-0.0949,-0.9843,-0.145,-0.0345
588802.0,560.564974,1.0,0.48,1.92,-9.67,3.38,-22.69,34.88,0.88,-1.0,-1.0,0.07760005842865897,-0.044140763631135733,-0.06339203759629264,-159.66766312617878,-16.686140017359815,-3.919795697049856,-0.0948,-0.9843,-0.1451,-0.0342
588836.0,560.601918,1.0,0.36,1.83,-9.71,3.38,-22.69,34.88,-0.5,-0.31,-0.25,-0.0638670944300443,-0.10109080601181876,-0.08012407667379763,-159.66766312617878,-16.69772182857332,-3.908329853329541,-0.0948,-0.9843,-0.1452,-0.0341
588873.0,560.662092,1.0,0.39,1.85,-9.74,3.75,-22.25,34.56,0.25,-1.12,0.81,-0.026471517119166205,-0.0952140988884893,-0.11466208732767845,-159.66766312617878,-16.686140017359815,-3.873932556571698,-0.0947,-0.9843,-0.1451,-0.0338
588906.0,560.6805019999998,1.0,0.42,1.97,-9.58,3.38,-21.56,34.38,0.88,-0.12,0.06,0.0524822694865244,0.03687114792348789,0.017391288032053254,-159.66766312617878,-16.674558377811383,-3.862466868736162,-0.0947,-0.9843,-0.145,-0.0337
588943.0,560.767899,1.0,0.41,1.81,-9.69,3.38,-21.56,34.38,1.44,-0.12,0.75,-0.008603916666073337,-0.1204339940037854,-0.05872995343850462,-159.73268910086296,-16.674558377811383,-3.851001219583861,-0.0942,-0.9844,-0.145,-0.0336
588976.0,560.780047,1.0,0.34,1.89,-9.69,3.38,-23.06,35.25,-0.56,-1.81,0.5,-0.04362737713200901,-0.026172454193444945,-0.07167028507914175,-159.73268910086296,-16.66297690980209,-3.793673550039814,-0.0942,-0.9844,-0.1449,-0.0331
589012.0,560.824612,1.0,0.33,1.87,-9.56,4.56,-22.25,34.88,-0.63,-0.81,-0.25,-0.047772023986410034,-0.024902172047241208,0.06003532024828573,-159.73268910086296,-16.651395613206027,-3.793673550039814,-0.0945,-0.9844,-0.1448,-0.0331
589047.0,560.839892,1.0,0.31,1.86,-9.56,4.56,-22.25,34.88,-2.13,-0.63,0.75,-0.06494478809754367,-0.03503302638594008,0.06273626569584145,-159.73268910086296,-16.63981448789728,-3.7592774051414257,-0.0948,-0.9844,-0.1447,-0.0328
589080.0,560.845058,1.0,-0.01,1.38,-9.26,3.75,-23.06,34.38,-4.44,-0.75,-1.25,-0.4773783517514414,-0.355198485493747,0.4633077743731331,-159.66766312617878,-16.63981448789728,-3.7478120989556993,-0.0956,-0.9843,-0.1447,-0.0327
589115.0,560.898426,1.0,0.46,2.05,-9.68,3.38,-22.25,34.75,-15.0,2.88,0.19,0.08180238172861262,0.009942736066128166,-0.09838455381873068,-159.4738082027549,-16.616652750638245,-3.919795697049856,-0.0985,-0.9840000000000001,-0.1445,-0.0342
589152.0,560.944521,1.0,0.53,2.04,-9.84,3.38,-23.06,35.56,-14.88,-1.19,-1.19,0.0956351350478385,-0.1506931541776757,-0.2549724086490315,-159.09143242656367,-16.63981448789728,-4.034456312516312,-0.1037,-0.9834,-0.1447,-0.0352
589185.0,560.963655,1.0,1.38,2.98,-10.72,3.38,-23.06,35.56,-15.38,-24.25,-3.5,1.1341653087041643,0.199901992303438,-1.3457895647770766,-158.840311807755,-16.651395613206027,-3.6790210459755386,-0.1083,-0.983,-0.1448,-0.0321
589221.0,561.0392559999998,1.0,-0.33,3.01,-8.69,3.75,-23.5,34.38,19.75,-49.06,-9.38,-0.0021563657627218518,1.0658710397091913,0.666135010307352,-158.840311807755,-16.79038251334145,-1.7533192633889718,-0.1099,-0.983,-0.146,-0.0153
589258.0,561.048899,1.0,-0.17,3.31,-9.35,6.06,-23.06,34.88,58.25,-51.56,-7.75,0.5052478015977426,1.2604540785833038,-0.02002187682398393,-159.15467994543428,-17.195903895593172,-0.1145915781247664,-0.1025,-0.9835,-0.1495,-0.001
589291.0,561.095315,1.0,0.01,2.5,-10.05,6.06,-23.06,34.88,115.31,-78.69,-13.06,1.0329424385092414,0.8422643790338218,-0.4635116654528524,-160.59764077497127,-17.288624783675054,2.8536247508829486,-0.0727,-0.9857,-0.1503,0.0249
589326.0,561.1171509999998,1.0,-1.89,1.05,-8.49,7.19,-22.0,35.56,121.56,-117.37,-30.69,-0.6340309975883482,0.6373224964478377,1.0919196697133169,-160.26052613773837,-17.856791554733764,6.5008278159272015,-0.0464,-0.9852,-0.1552,0.0567
589363.0,561.1594,1.0,-3.05,-0.55,-7.39,10.56,-18.19,37.06,106.12,-72.69,-40.06,-1.6610496022879646,0.030661510374721312,1.9671937630840413,-157.6856148741907,-19.319861939553064,10.925662281710133,-0.0145,-0.9811,-0.1678,0.0952
589400.0,561.217903,1.0,-3.06,-1.51,-7.55,10.56,-18.19,37.06,73.31,29.87,-37.38,-1.8059516627933716,-0.5262304854154987,1.737708305584725,-156.58711361479934,-20.21551264575777,11.651107384541652,0.006999999999999999,-0.9792,-0.1755,0.1015
589432.0,561.2346269999998,1.0,-1.15,-1.64,-9.46,13.56,-15.19,37.25,38.81,79.19,-24.37,-0.06900041310722371,-0.8323118629767912,0.1730527536055284,-156.5307030363511,-21.33392533931821,9.108157120464725,0.0296,-0.9791,-0.1851,0.0794
589467.0,561.237692,1.0,-2.26,-1.89,-7.19,13.19,-12.69,39.0,22.94,91.12,-19.5,-1.9389998087760576,-0.4008995175480521,2.292971851556577,-156.70033876277134,-21.917240280609395,5.8467059276897535,0.0449,-0.9794,-0.1901,0.051
589504.0,561.2777980000002,1.0,-0.57,-2.1,-7.15,9.38,-11.56,40.19,-12.94,219.88,-9.06,-1.086207860982365,-0.9809738956739944,2.477581662295245,-157.10097394877238,-22.022297601396428,0.6531754234266163,0.0539,-0.9801,-0.191,0.0057
589539.0,561.33882,1.0,5.13,-0.88,-12.56,9.38,-11.56,40.19,-28.25,246.38,1.19,2.806684832965877,-0.7854418182672853,-3.4730526095660816,-155.75453926974473,-21.473869337236096,-8.705871826379285,0.0608,-0.9777,-0.1863,-0.0759
589576.0,561.357874,1.0,4.59,-3.21,-11.91,3.06,-11.88,41.19,-21.94,59.69,10.81,0.8597222765074716,-2.6040982806602857,-3.0657953679920094,-155.0021140741398,-20.55315637010219,-12.06585603312212,0.0631,-0.9763,-0.1784,-0.1051
589613.0,561.400889,1.0,3.72,-1.83,-10.94,-1.37,-11.88,41.06,-117.31,-5.63,8.06,0.4845039765460033,-1.8803862399131648,-1.7302604826836705,-156.02889725740351,-19.81987998842397,-12.907367253850758,0.03,-0.9782,-0.1721,-0.1124
589645.0,561.4597160000002,1.0,3.19,1.16,-10.33,-1.37,-11.88,41.06,-173.06,-23.44,4.81,0.9097799260654424,0.15593874214935532,-1.0274897256462054,-156.6436585308699,-19.05256341690962,-13.299539926123945,-0.0144,-0.9793,-0.1655,-0.1158
589680.0,561.471263,1.0,2.41,3.33,-9.72,-3.25,-16.06,38.88,-159.31,-56.81,5.25,0.9496114954017968,1.3503087493422672,-0.6168956678258262,-156.58711361479934,-18.03080801097451,-12.330917071488786,-0.0701,-0.9792,-0.1567,-0.1074
589715.0,561.484419,1.0,1.41,4.77,-9.15,-2.19,-20.87,36.38,-58.56,-113.19,-7.69,0.8698373933253685,2.459735850550894,-0.2758389017884699,-156.75715530060586,-17.62483410357088,-9.76355056625781,-0.0995,-0.9795,-0.1532,-0.0851
589752.0,561.547379,1.0,0.31,4.04,-8.48,1.75,-23.87,34.06,47.81,-120.75,-4.06,0.5043247481395611,2.1160005430460207,0.6635488712667694,-158.28578665640208,-17.729205890532434,-4.928956774809122,-0.1001,-0.9821,-0.1541,-0.043
589787.0,561.589489,1.0,-0.93,1.19,-8.35,1.75,-23.87,34.06,75.69,-81.12,-4.31,-1.023635278125549,0.046104499254341236,1.3832572635472251,-159.73268910086296,-17.648026557290144,-1.9252287616436883,-0.085,-0.9844,-0.1534,-0.0168
589824.0,561.6090019999998,1.0,-2.61,-0.35,-6.56,4.06,-22.06,35.69,29.56,8.38,0.75,-2.807331862078454,-0.4326943833435177,3.33363961944428,-160.59764077497127,-17.6712197397126,-0.6531754234266163,-0.0701,-0.9857,-0.1536,-0.0057
589858.0,561.6523980000002,1.0,-0.69,0.02,-7.7,5.19,-20.19,36.56,-17.19,180.63,20.87,-1.3378833928478835,-0.6901212048817714,2.223754725125477,-160.4621037024181,-17.520477052231193,-4.022990071019942,-0.066,-0.9855,-0.1523,-0.0351
589893.0,561.671463,1.0,0.36,0.37,-7.84,5.19,-20.19,36.56,-61.06,238.31,21.56,-1.418946003283612,-0.5450849214468539,2.098110925170274,-157.27480743211564,-17.056843809922572,-12.688278342697654,-0.0678,-0.9804,-0.1483,-0.1105
589928.0,561.710414,1.0,6.39,2.62,-12.0,1.06,-20.56,36.19,-91.75,144.31,7.81,2.1822866274594226,-0.9333188980090942,-3.8338426930896015,-152.3835367338065,-16.674558377811383,-19.447737797457524,-0.0861,-0.9711,-0.145,-0.1689
589965.0,561.7708150000002,1.0,4.71,3.3,-10.03,-4.88,-22.75,34.88,-33.06,0.56,-0.44,1.2956311375848284,0.2676651392890874,-1.6791976103651152,-151.43912137388486,-16.30403579859025,-20.4250635419962,-0.09699999999999999,-0.9691,-0.1418,-0.1773
590000.0,561.789423,1.0,2.66,2.9,-8.34,-4.88,-22.75,34.88,-30.12,-1.63,-1.94,-0.055348172665272005,0.5841115073871923,0.6035553940144442,-151.06981274894218,-16.049401279911372,-20.459995384570266,-0.1071,-0.9683,-0.1396,-0.1776
590034.0,561.82907,1.0,3.58,3.38,-8.9,-7.88,-25.06,33.19,-10.25,29.5,-0.37,0.5255164481867967,0.6089911362353917,-0.332569016209872,-150.29995438645182,-16.03782888845279,-21.24064723466595,-0.1106,-0.9666,-0.1395,-0.1843
590069.0,561.889899,1.0,3.89,2.88,-9.28,-7.06,-25.06,32.69,-1.12,24.69,-0.5,0.3677437334707775,0.00848494066930261,-0.6532540412555807,-149.54912686270868,-16.13041264048083,-22.22079043012782,-0.1101,-0.9649,-0.1403,-0.1927
590106.0,561.896308,1.0,3.28,2.67,-8.38,-7.19,-25.06,32.88,12.25,14.25,1.63,0.09621801036357536,0.1934242685319607,0.4223530552723602,-149.33171261025748,-16.30403579859025,-22.57123707542117,-0.1075,-0.9644,-0.1418,-0.1957
590139.0,561.955187,1.0,3.31,2.21,-8.36,-7.19,-25.06,32.88,9.0,39.44,4.38,-0.16062056991005375,-0.12693739532028234,0.5498747553377932,-148.56117141184754,-16.396650200988272,-23.834643460050298,-0.1022,-0.9626,-0.1426,-0.2065
590176.0,562.028587,1.0,3.59,2.44,-8.16,-8.19,-25.06,32.38,1.63,57.5,2.81,-0.01090806547410969,0.09677349437361693,0.5644740708751712,-147.43869005154224,-16.466118077182387,-25.35933459116607,-0.0998,-0.9599,-0.1432,-0.2195
590213.0,562.07712,1.0,3.38,2.29,-7.32,-10.06,-25.37,31.87,-2.13,95.94,4.81,-0.3201287072330149,0.2542962577581491,1.4350461498351148,-144.80353687392875,-16.5471716366683,-28.730216823306154,-0.0956,-0.9532,-0.1439,-0.2481
590245.0,562.095012,1.0,5.32,2.78,-8.27,-10.06,-25.37,31.87,1.56,120.44,9.63,0.3463878487025367,0.13128683298843913,-0.4054251674551974,-141.9934624116977,-16.616652750638245,-32.18632560419117,-0.0912,-0.9455,-0.1445,-0.2772
590280.0,562.098034,1.0,7.15,2.79,-9.5,-11.56,-25.37,31.19,11.19,76.31,9.69,0.4949134148870476,-0.3105428930064893,-2.3923345406643577,-139.40365501423122,-16.651395613206027,-35.42008094609324,-0.083,-0.9379,-0.1448,-0.3042
590315.0,562.1342599999998,1.0,6.6,2.57,-8.5,-15.38,-23.87,30.37,7.38,-3.63,3.06,0.5634474839408579,-0.20905250915946685,-1.2411427198719096,-139.2059212883253,-16.616652750638245,-35.745018073663594,-0.0803,-0.9373,-0.1445,-0.3069
590352.0,562.144414,1.0,5.68,2.39,-7.88,-16.87,-23.56,29.87,11.31,-12.5,2.0,0.28326565049935204,-0.0016923959726029554,-0.19278286927028887,-139.73527758064992,-16.616652750638245,-35.23968756061282,-0.0774,-0.9389,-0.1445,-0.3027
590387.0,562.160248,1.0,5.91,2.36,-8.34,-16.87,-23.56,29.87,6.63,-14.25,0.63,0.25893366929436124,-0.10487054820817908,-0.6802587686993977,-140.1367137765361,-16.628233533749974,-34.85514889719688,-0.0757,-0.9401,-0.1446,-0.2995
590422.0,562.241932,1.0,5.39,2.42,-7.92,-16.06,-24.25,29.5,8.63,-31.44,-0.75,0.2927600007083268,0.13420658391032547,-0.0691375723822869,-141.08884000838947,-16.605072138436235,-33.811713840931375,-0.075,-0.9429,-0.1444,-0.2908
590456.0,562.254021,1.0,4.74,2.15,-7.85,-15.69,-23.87,29.75,4.13,-17.19,-1.88,-0.1286010595620281,0.08086650126267125,0.38913852528158266,-141.67799864882886,-16.616652750638245,-33.11769717298479,-0.0746,-0.9446,-0.1445,-0.285
590491.0,562.297353,1.0,5.35,2.32,-8.35,-15.69,-23.87,29.75,3.5,-22.31,0.56,0.2512819599754992,0.011570096173797673,-0.3749080099248765,-142.38248796926192,-16.59349169701811,-32.3533321925502,-0.0743,-0.9466,-0.1443,-0.2786
590526.0,562.303897,1.0,4.65,2.09,-7.88,-15.06,-24.25,30.69,5.56,-13.56,0.69,-0.013050629014494232,0.04677755665366101,0.4214147050659491,-142.91931394004666,-16.570331326030242,-31.79294414962257,-0.0735,-0.9481,-0.1441,-0.2739
590563.0,562.3614980000001,1.0,4.99,2.27,-8.18,-13.56,-23.56,31.75,1.44,-2.25,0.19,0.16700434910116535,0.09660299054788468,-0.038560887004832615,-142.99145809873448,-16.69772182857332,-31.66190266420909,-0.0728,-0.9483,-0.1452,-0.2728
590598.0,562.380759,1.0,5.07,2.11,-8.32,-13.56,-23.56,31.75,7.31,-6.56,0.88,0.1511372806175068,-0.0679178701160088,-0.16089456650816736,-143.13615512462272,-16.709303811577858,-31.495183998739208,-0.0715,-0.9487,-0.1453,-0.2714
590630.0,562.426081,1.0,4.71,2.05,-8.2,-13.56,-24.25,31.19,3.94,-5.88,1.12,-0.042576922804250066,0.012234709309790535,0.13066749084194207,-143.42720670361226,-16.709303811577858,-31.233335490801053,-0.0703,-0.9495,-0.1453,-0.2692
590667.0,562.442089,1.0,5.13,2.27,-8.39,-14.25,-23.56,32.75,-0.25,2.13,-0.81,0.24337861963243906,0.0759838909264543,-0.2827946475425733,-143.35423456188457,-16.732468293463864,-31.26903222594612,-0.0704,-0.9493,-0.1455,-0.2695
590702.0,562.479127,1.0,5.26,2.27,-8.37,-13.19,-23.19,32.38,4.0,-4.63,0.31,0.3878627431679303,0.04947553662621451,-0.32866028946513204,-143.42720670361226,-16.894639006068054,-31.138159380012002,-0.0691,-0.9495,-0.1469,-0.2684
590737.0,562.535783,1.0,4.62,1.77,-8.14,-13.19,-23.19,32.38,11.25,-5.38,2.44,-0.08196749862936359,-0.16852871192661845,0.28290181966549,-143.72051272987528,-16.917809025605248,-30.888426648702456,-0.0665,-0.9503,-0.1471,-0.2663
590772.0,562.5558030000002,1.0,4.86,1.86,-8.32,-14.0,-23.87,31.06,0.0,2.69,1.25,0.04069166223293394,-0.13882718700521113,-0.005621459798337725,-143.75733722307018,-16.83671699887327,-30.91220422108664,-0.0652,-0.9504,-0.1464,-0.2665
590809.0,562.603567,1.0,5.06,2.12,-8.38,-15.5,-23.19,31.06,1.12,-6.88,-0.75,0.2521777017964256,0.041649969702721064,-0.20619533420648206,-143.97904817901198,-16.5471716366683,-30.793329976755967,-0.0659,-0.951,-0.1439,-0.2655
590841.0,562.6639,1.0,4.98,2.14,-8.45,-15.5,-23.19,31.06,3.19,-10.81,0.06,0.22401447744198585,0.07954346074915386,-0.2295838729101209,-144.3515283507124,-16.5471716366683,-30.401284991821623,-0.0656,-0.9520000000000001,-0.1439,-0.2622
590876.0,562.670969,1.0,4.63,2.04,-8.32,-14.25,-23.19,31.5,1.44,-8.94,-0.56,0.03364986325486678,0.09965081326095147,0.06961567726500029,-144.65224571956077,-16.466118077182387,-30.080791981197944,-0.0654,-0.9528,-0.1432,-0.2595
590913.0,562.687703,1.0,4.6,2.08,-8.21,-12.75,-22.75,31.87,2.69,0.0,-0.5,0.09853818907836,0.1516481603187807,0.17037514605539528,-144.7656551188059,-16.5471716366683,-29.950289927892534,-0.0651,-0.9531,-0.1439,-0.2584
590948.0,562.730652,1.0,4.73,1.84,-8.42,-12.75,-22.75,31.87,1.75,-0.69,-0.19,0.04404785443634705,-0.11828975970524692,-0.02386205783647988,-144.7656551188059,-16.55875139620892,-29.93842807862379,-0.0646,-0.9531,-0.14400000000000002,-0.2583
590981.0,562.791103,1.0,4.91,2.0,-8.57,-13.56,-23.19,32.25,-2.06,0.69,-0.19,0.1518762680155982,-0.03197447951027565,-0.2695055779907314,-144.7656551188059,-16.5471716366683,-29.950289927892534,-0.0648,-0.9531,-0.1439,-0.2584
591017.0,562.858557,1.0,4.76,2.07,-8.23,-12.75,-22.06,32.19,0.31,-1.94,-0.56,0.222910760922402,0.09522676305079547,0.07954135167783427,-144.7656551188059,-16.581911426258042,-29.92656655764556,-0.0648,-0.9531,-0.1442,-0.2582
591050.0,562.8661490000002,1.0,4.75,1.97,-8.44,-12.75,-22.06,32.19,1.19,-0.44,-0.06,0.0839405411161806,-0.0037605359665023865,-0.07616032115493176,-144.7656551188059,-16.59349169701811,-29.92656655764556,-0.0646,-0.9531,-0.1443,-0.2582
591085.0,562.8840700000002,1.0,4.83,1.97,-8.5,-12.75,-23.19,33.19,-1.0,0.5,0.12,0.12442419473149685,-0.03067671805364514,-0.16548004120658888,-144.72781275910324,-16.686140017359815,-29.902844499943303,-0.0643,-0.953,-0.1451,-0.258
591120.0,562.927625,1.0,4.95,2.06,-8.53,-13.56,-23.19,32.75,-1.25,-2.94,-0.25,0.23466969458026124,0.006481721292100451,-0.2656828043574269,-144.7656551188059,-16.674558377811383,-29.86726387171145,-0.0648,-0.9531,-0.145,-0.2577
591155.0,562.9356349999998,1.0,4.64,1.97,-8.31,-13.56,-23.56,32.25,1.12,-0.94,0.12,0.0826293348937461,0.02526129636401041,0.0876410865396835,-144.841458151918,-16.651395613206027,-29.78425385642316,-0.0649,-0.9533,-0.1448,-0.257
591192.0,562.98753,1.0,4.91,2.07,-8.53,-13.56,-23.56,32.25,-0.69,0.12,0.63,0.2156558399404088,0.02779358966251011,-0.2485287689266471,-144.841458151918,-16.616652750638245,-29.796111449943446,-0.0649,-0.9533,-0.1445,-0.2571
591226.0,563.0465849999998,1.0,4.61,1.95,-8.45,-13.19,-23.19,32.25,0.0,-0.06,-0.56,-0.014398710988267257,0.006834060092879013,-0.014594624422329616,-144.87941908090357,-16.63981448789728,-29.760539648089328,-0.065,-0.9534,-0.1447,-0.2568
591263.0,563.052905,1.0,4.82,2.03,-8.5,-12.75,-22.75,32.69,0.25,1.88,1.19,0.14355770036773802,0.021690910193149504,-0.1724391714164053,-144.80353687392875,-16.651395613206027,-29.8198276164604,-0.0647,-0.9532,-0.1448,-0.2573
591296.0,563.102511,1.0,4.62,2.09,-8.3,-12.75,-22.75,32.69,-1.37,-4.81,-1.06,0.11399127306381115,0.14234860250846149,0.0819781358685816,-144.9174197897038,-16.651395613206027,-29.701259829199124,-0.065,-0.9535,-0.1448,-0.2563
591331.0,563.124599,1.0,4.56,1.99,-8.31,-13.19,-22.06,31.75,0.37,-1.5,0.06,0.04234504302934629,0.06077318571757773,0.12138730262164894,-144.9554604078314,-16.651395613206027,-29.653841828798466,-0.0652,-0.9536,-0.1448,-0.2559
591366.0,563.1275049999998,1.0,4.88,1.9,-8.63,-13.19,-22.06,33.56,0.5,-1.25,-0.06,0.11812126618136486,-0.135848162875432,-0.2863620698986171,-144.87941908090357,-16.744050792597328,-29.68940484166728,-0.0648,-0.9534,-0.1456,-0.2562
591403.0,563.17848,1.0,4.6,2.0,-8.38,-13.19,-22.06,33.56,-2.0,-3.94,-0.25,0.06056338891837941,0.0425080705147256,0.04043655056813655,-145.03166189361892,-16.651395613206027,-29.535319528051428,-0.0657,-0.9538,-0.1448,-0.2549
591435.0,563.2227839999998,1.0,4.78,2.16,-8.49,-13.56,-22.06,31.5,-1.44,-3.56,-0.5,0.1989080899384919,0.12172605486492305,-0.17030937344259733,-145.06982302382067,-16.628233533749974,-29.487919662093987,-0.0663,-0.9539,-0.1446,-0.2545
591470.0,563.2428629999997,1.0,4.65,2.01,-8.45,-13.19,-23.19,33.5,-0.12,-1.94,-1.19,0.08823625000342412,0.009742534583896843,-0.04511225084655557,-145.10802458844395,-16.686140017359815,-29.40498230512227,-0.0667,-0.9540000000000001,-0.1451,-0.2538
591505.0,563.3232780000002,1.0,4.64,1.99,-8.45,-12.75,-23.56,33.56,-1.06,-0.31,-0.06,0.07706800921911476,-0.00983147680259222,-0.036426951036139237,-145.10802458844395,-16.720885966499374,-29.393135398012305,-0.0668,-0.9540000000000001,-0.1454,-0.2537
591540.0,563.329686,1.0,4.66,2.19,-8.45,-12.75,-23.56,33.56,-2.31,1.12,-0.37,0.13455167557711414,0.16554998352686034,-0.08621050895056648,-145.06982302382067,-16.709303811577858,-29.428677083635286,-0.0673,-0.9539,-0.1453,-0.254
591577.0,563.376727,1.0,4.75,1.97,-8.66,-13.19,-23.19,33.5,1.5,0.63,0.0,0.04192028035482327,-0.0789612855210462,-0.2646462326347976,-144.99354106549774,-16.732468293463864,-29.476070502113327,-0.0671,-0.9537,-0.1455,-0.2544
591611.0,563.392341,1.0,4.7,2.06,-8.32,-12.5,-22.75,33.5,-0.63,-3.88,0.0,0.2021625545200196,0.0386443843262958,0.033542156887348185,-144.99354106549774,-16.871469682269606,-29.440524955343967,-0.0668,-0.9537,-0.1467,-0.2541
591646.0,563.4308,1.0,4.6,2.0,-8.38,-12.5,-22.75,33.5,-1.0,-0.44,-0.63,0.08575920722019978,0.0065255072387042645,0.04053497015664576,-145.03166189361892,-16.871469682269606,-29.369442547321682,-0.0669,-0.9538,-0.1467,-0.2535
591679.0,563.487022,1.0,4.64,2.05,-8.57,-13.19,-22.75,33.06,-0.75,1.69,0.63,0.029087525219056217,0.030102233869439,-0.15202700909074984,-144.99354106549774,-16.871469682269606,-29.40498230512227,-0.067,-0.9537,-0.1467,-0.2538
591716.0,563.493852,1.0,4.58,2.05,-8.31,-12.5,-23.56,32.38,-0.56,2.44,0.12,0.10034895158441567,0.06223644341915646,0.09989685010345364,-144.9554604078314,-16.871469682269606,-29.464221664430085,-0.0671,-0.9536,-0.1467,-0.2543
591751.0,563.559799,1.0,4.72,2.0,-8.45,-12.5,-23.56,32.38,0.37,5.75,0.81,0.10921949148456214,-0.02990474623029593,-0.07606606436371878,-144.80353687392875,-16.871469682269606,-29.606429021936968,-0.0669,-0.9532,-0.1467,-0.2555
591785.0,563.573446,1.0,5.06,1.98,-8.93,-12.75,-23.19,32.0,-0.37,-2.88,-0.19,0.1258215283467017,-0.17654812741913095,-0.6442781741723458,-144.7656551188059,-16.871469682269606,-29.701259829199124,-0.0668,-0.9531,-0.1467,-0.2563
591820.0,563.62357,1.0,4.5,2.13,-8.17,-12.75,-23.56,32.56,-1.94,-2.31,-0.5,0.10375092853122198,0.1681039624965488,0.2412552458551449,-144.841458151918,-16.859885280956842,-29.58272456301425,-0.0674,-0.9533,-0.1466,-0.2553
591857.0,563.639438,1.0,4.78,2.13,-8.48,-14.0,-23.19,31.87,-0.37,2.5,0.44,0.16196191012085215,0.06750550234232901,-0.15652777352303815,-144.841458151918,-16.69772182857332,-29.665695841620533,-0.0677,-0.9533,-0.1452,-0.256
