,TIME,ELAPSED_SECONDS,PSTATE,acc_x,acc_y,acc_z,mag_x,mag_y,mag_z,gyr_x,gyr_y,gyr_z,lin_x,lin_y,lin_z,eul_x,eul_y,eul_z,qua_w,qua_x,qua_y,qua_z
0,2231492.0,742.33521,1.0,-0.61,-3.63,-9.15,12.0,-5.19,31.5,0.81,0.0,-1.44,-0.05143831836167634,-0.0421812828277488,-0.055757152352976284,-145.37657897397716,-26.794357072369408,8.349651905481078,0.1721,-0.9547,-0.2317,0.0728
1,2231492.0,742.33521,1.0,-0.61,-3.63,-9.15,12.0,-5.19,31.5,0.81,0.0,-1.44,-0.05143831836167634,-0.0421812828277488,-0.055757152352976284,-145.37657897397716,-26.794357072369408,8.349651905481078,0.1721,-0.9547,-0.2317,0.0728
2,2231527.0,742.338392,1.0,-0.51,-3.76,-9.21,12.69,-5.56,31.56,0.88,0.88,-2.06,-0.012573153569353013,-0.1834570559132791,-0.1526665139202752,-145.37657897397716,-26.829697512461113,8.315183354403652,0.1718,-0.9547,-0.23199999999999998,0.0725
3,2231527.0,742.338392,1.0,-0.51,-3.76,-9.21,12.69,-5.56,31.56,0.88,0.88,-2.06,-0.012573153569353013,-0.1834570559132791,-0.1526665139202752,-145.37657897397716,-26.829697512461113,8.315183354403652,0.1718,-0.9547,-0.23199999999999998,0.0725
4,2231560.0,742.391382,1.0,-0.61,-3.55,-9.12,12.69,-5.56,31.56,0.12,0.37,-0.75,-0.037632172043726375,0.00539751582463377,0.0011640514888249245,-145.37657897397716,-26.87682214392707,8.303694005010767,0.1714,-0.9547,-0.2324,0.0724
5,2231560.0,742.391382,1.0,-0.61,-3.55,-9.12,12.69,-5.56,31.56,0.12,0.37,-0.75,-0.037632172043726375,0.00539751582463377,0.0011640514888249245,-145.37657897397716,-26.87682214392707,8.303694005010767,0.1714,-0.9547,-0.2324,0.0724
6,2231595.0,742.4092019999999,1.0,-0.69,-3.6,-9.04,13.06,-5.19,31.56,-2.69,1.19,-4.63,-0.15556594160728282,-0.024632838749726327,0.05304079821900309,-145.29964361056955,-26.9593013980579,8.269226458088282,0.1711,-0.9545,-0.2331,0.0721
7,2231595.0,742.4092019999999,1.0,-0.69,-3.6,-9.04,13.06,-5.19,31.56,-2.69,1.19,-4.63,-0.15556594160728282,-0.024632838749726327,0.05304079821900309,-145.29964361056955,-26.9593013980579,8.269226458088282,0.1711,-0.9545,-0.2331,0.0721
8,2231631.0,742.47181,1.0,-0.43,-3.66,-9.23,13.06,-6.0,29.87,1.63,0.25,0.88,0.07233140732322024,-0.13169586279089973,-0.13069493550658784,-145.22287322309495,-27.065367073658553,8.177316654862214,0.1713,-0.9543,-0.23399999999999999,0.0713
9,2231631.0,742.47181,1.0,-0.43,-3.66,-9.23,13.06,-6.0,29.87,1.63,0.25,0.88,0.07233140732322024,-0.13169586279089973,-0.13069493550658784,-145.22287322309495,-27.065367073658553,8.177316654862214,0.1713,-0.9543,-0.23399999999999999,0.0713
10,2231664.0,742.490223,1.0,-0.75,-3.56,-8.89,13.06,-6.0,29.87,2.25,-3.25,2.13,-0.2147425290991868,0.008912644547836912,0.2034210528716791,-145.22287322309495,-26.97108530932781,8.303694005010767,0.172,-0.9543,-0.2332,0.0724
11,2231664.0,742.490223,1.0,-0.75,-3.56,-8.89,13.06,-6.0,29.87,2.25,-3.25,2.13,-0.2147425290991868,0.008912644547836912,0.2034210528716791,-145.22287322309495,-26.97108530932781,8.303694005010767,0.172,-0.9543,-0.2332,0.0724
12,2231699.0,742.493638,1.0,-0.5,-3.54,-9.35,13.06,-5.19,30.75,-1.63,2.63,-0.81,0.10372573987963007,0.04233630658749843,-0.2029228484301928,-145.22287322309495,-27.041794884833607,8.257737442475136,0.1718,-0.9543,-0.2338,0.07200000000000001
13,2231699.0,742.493638,1.0,-0.5,-3.54,-9.35,13.06,-5.19,30.75,-1.63,2.63,-0.81,0.10372573987963007,0.04233630658749843,-0.2029228484301928,-145.22287322309495,-27.041794884833607,8.257737442475136,0.1718,-0.9543,-0.2338,0.07200000000000001
14,2231734.0,742.5344240000001,1.0,-0.59,-3.55,-9.12,12.69,-6.0,31.19,-1.56,0.25,0.0,-0.03632902179432307,0.00636575485781421,0.0023835981043127674,-145.22287322309495,-27.041794884833607,8.22327089407658,0.1716,-0.9543,-0.2338,0.0717
15,2231734.0,742.5344240000001,1.0,-0.59,-3.55,-9.12,12.69,-6.0,31.19,-1.56,0.25,0.0,-0.03632902179432307,0.00636575485781421,0.0023835981043127674,-145.22287322309495,-27.041794884833607,8.22327089407658,0.1716,-0.9543,-0.2338,0.0717
16,2231771.0,742.5987709999999,1.0,-0.38,-3.12,-9.27,12.69,-5.56,30.69,0.69,0.31,0.75,0.3636019736809209,0.3062416215064814,0.029855552227639137,-145.29964361056955,-26.9593013980579,8.22327089407658,0.1715,-0.9545,-0.2331,0.0717
17,2231771.0,742.5987709999999,1.0,-0.38,-3.12,-9.27,12.69,-5.56,30.69,0.69,0.31,0.75,0.3636019736809209,0.3062416215064814,0.029855552227639137,-145.29964361056955,-26.9593013980579,8.22327089407658,0.1715,-0.9545,-0.2331,0.0717
18,2231805.0,742.619311,1.0,-0.59,-3.6,-9.29,12.69,-5.56,30.69,1.31,-1.31,-1.0,-0.01283606670272508,0.016730542283415858,-0.17391888781127918,-145.22287322309495,-27.006438787370872,8.257737442475136,0.1718,-0.9543,-0.2335,0.07200000000000001
19,2231805.0,742.619311,1.0,-0.59,-3.6,-9.29,12.69,-5.56,30.69,1.31,-1.31,-1.0,-0.01283606670272508,0.016730542283415858,-0.17391888781127918,-145.22287322309495,-27.006438787370872,8.257737442475136,0.1718,-0.9543,-0.2335,0.07200000000000001
20,2231842.0,742.6705049999999,1.0,-0.73,-3.61,-9.02,13.06,-6.0,31.19,2.56,-2.06,0.31,-0.18147307753698594,0.0006746492633362687,0.06537354016283636,-145.18454955392758,-26.994654003838164,8.349651905481078,0.1723,-0.9542,-0.2334,0.0728
21,2231842.0,742.6705049999999,1.0,-0.73,-3.61,-9.02,13.06,-6.0,31.19,2.56,-2.06,0.31,-0.18147307753698594,0.0006746492633362687,0.06537354016283636,-145.18454955392758,-26.994654003838164,8.349651905481078,0.1723,-0.9542,-0.2334,0.0728
22,2231877.0,742.690576,1.0,-0.56,-3.59,-9.25,13.5,-5.19,32.75,-0.31,-0.19,-0.06,0.02582797422516697,0.0070139459547045035,-0.13133187361546386,-145.22287322309495,-26.982869511205863,8.338162304521468,0.1724,-0.9543,-0.2333,0.0727
23,2231877.0,742.690576,1.0,-0.56,-3.59,-9.25,13.5,-5.19,32.75,-0.31,-0.19,-0.06,0.02582797422516697,0.0070139459547045035,-0.13133187361546386,-145.22287322309495,-26.982869511205863,8.338162304521468,0.1724,-0.9543,-0.2333,0.0727
24,2231912.0,742.741112,1.0,-0.66,-3.7,-9.04,13.5,-5.19,32.75,-1.31,0.12,0.31,-0.14965839779899076,-0.10415619643227993,0.01818976098830305,-145.18454955392758,-26.982869511205863,8.372631359788455,0.1722,-0.9542,-0.2333,0.073
25,2231912.0,742.741112,1.0,-0.66,-3.7,-9.04,13.5,-5.19,32.75,-1.31,0.12,0.31,-0.14965839779899076,-0.10415619643227993,0.01818976098830305,-145.18454955392758,-26.982869511205863,8.372631359788455,0.1722,-0.9542,-0.2333,0.073
26,2231947.0,742.7615860000001,1.0,-0.46,-3.39,-9.24,13.5,-5.56,31.5,1.19,-0.75,4.0,0.21164255686002809,0.11642175363657947,-0.043373015374424284,-145.29964361056955,-26.85325924989716,8.41859128124216,0.1723,-0.9545,-0.2322,0.0734
27,2231947.0,742.7615860000001,1.0,-0.46,-3.39,-9.24,13.5,-5.56,31.5,1.19,-0.75,4.0,0.21164255686002809,0.11642175363657947,-0.043373015374424284,-145.29964361056955,-26.85325924989716,8.41859128124216,0.1723,-0.9545,-0.2322,0.0734
28,2231982.0,742.809604,1.0,-0.67,-3.44,-9.02,12.25,-6.0,31.19,1.69,-0.25,2.5,-0.036252370802500884,0.10404080523217618,0.13035105482174458,-145.33809060162469,-26.794357072369408,8.453062112264227,0.1722,-0.9546,-0.2317,0.0737
29,2231982.0,742.809604,1.0,-0.67,-3.44,-9.02,12.25,-6.0,31.19,1.69,-0.25,2.5,-0.036252370802500884,0.10404080523217618,0.13035105482174458,-145.33809060162469,-26.794357072369408,8.453062112264227,0.1722,-0.9546,-0.2317,0.0737
30,2232016.0,742.830563,1.0,-0.64,-3.66,-8.99,12.25,-6.0,31.19,4.5,-2.75,4.94,-0.08490170143675235,-0.09515731744586507,0.07993232207649292,-145.37657897397716,-26.676574330601248,8.556479215940191,0.1729,-0.9547,-0.2307,0.0746
31,2232016.0,742.830563,1.0,-0.64,-3.66,-8.99,12.25,-6.0,31.19,4.5,-2.75,4.94,-0.08490170143675235,-0.09515731744586507,0.07993232207649292,-145.37657897397716,-26.676574330601248,8.556479215940191,0.1729,-0.9547,-0.2307,0.0746
32,2232051.0,742.873287,1.0,-0.77,-3.76,-8.95,14.19,-5.19,31.19,1.75,-2.75,4.75,-0.21602895325855095,-0.1279902750844648,0.07166412528822264,-145.41510886588998,-26.499953978465857,8.717364176475899,0.1735,-0.9548,-0.2292,0.076
33,2232051.0,742.873287,1.0,-0.77,-3.76,-8.95,14.19,-5.19,31.19,1.75,-2.75,4.75,-0.21602895325855095,-0.1279902750844648,0.07166412528822264,-145.41510886588998,-26.499953978465857,8.717364176475899,0.1735,-0.9548,-0.2292,0.076
34,2232084.0,742.949084,1.0,-0.81,-3.27,-8.86,12.69,-5.19,32.0,1.06,-2.56,8.5,-0.042571618506134716,0.26740538688888593,0.3316680994177812,-145.53094905314887,-26.27632678993584,8.855279263547427,0.1737,-0.9551,-0.2273,0.0772
35,2232084.0,742.949084,1.0,-0.81,-3.27,-8.86,12.69,-5.19,32.0,1.06,-2.56,8.5,-0.042571618506134716,0.26740538688888593,0.3316680994177812,-145.53094905314887,-26.27632678993584,8.855279263547427,0.1737,-0.9551,-0.2273,0.0772
36,2232121.0,742.969927,1.0,-0.82,-3.82,-8.75,13.5,-4.75,31.19,0.81,2.81,4.69,-0.29150972265375164,-0.21084956737398144,0.2307498051600092,-145.56964642134633,-26.1469050177391,8.866772764864926,0.1744,-0.9552,-0.2262,0.0773
37,2232121.0,742.969927,1.0,-0.82,-3.82,-8.75,13.5,-4.75,31.19,0.81,2.81,4.69,-0.29150972265375164,-0.21084956737398144,0.2307498051600092,-145.56964642134633,-26.1469050177391,8.866772764864926,0.1744,-0.9552,-0.2262,0.0773
38,2232154.0,743.0194299999999,1.0,-0.49,-3.16,-9.16,13.5,-4.75,31.19,5.75,-2.06,5.19,0.3874058174969737,0.3245183439886903,0.1176921315301236,-145.6471679681556,-25.9116795113663,8.970218312913039,0.1754,-0.9554,-0.2242,0.0782
39,2232154.0,743.0194299999999,1.0,-0.49,-3.16,-9.16,13.5,-4.75,31.19,5.75,-2.06,5.19,0.3874058174969737,0.3245183439886903,0.1176921315301236,-145.6471679681556,-25.9116795113663,8.970218312913039,0.1754,-0.9554,-0.2242,0.0782
40,2232190.0,743.0377,1.0,-0.72,-3.39,-8.88,12.25,-4.75,32.0,1.69,1.5,-0.94,0.0347618385341214,0.16651953801749708,0.2758597464040147,-145.6083860120317,-25.89992116016652,8.993207204284674,0.1762,-0.9553,-0.2241,0.0784
41,2232190.0,743.0377,1.0,-0.72,-3.39,-8.88,12.25,-4.75,32.0,1.69,1.5,-0.94,0.0347618385341214,0.16651953801749708,0.2758597464040147,-145.6083860120317,-25.89992116016652,8.993207204284674,0.1762,-0.9553,-0.2241,0.0784
42,2232227.0,743.08367,1.0,-0.75,-3.17,-8.5,13.06,-6.0,30.75,5.19,-0.37,1.63,0.017429529651362075,0.2645950687667846,0.7076893087407825,-145.56964642134633,-25.86464777060069,9.016196458354324,0.1771,-0.9552,-0.2238,0.0786
43,2232227.0,743.08367,1.0,-0.75,-3.17,-8.5,13.06,-6.0,30.75,5.19,-0.37,1.63,0.017429529651362075,0.2645950687667846,0.7076893087407825,-145.56964642134633,-25.86464777060069,9.016196458354324,0.1771,-0.9552,-0.2238,0.0786
44,2232260.0,743.101358,1.0,-0.91,-3.33,-8.03,13.06,-6.0,30.75,2.63,4.25,-5.75,-0.3055192556193124,0.08909444675800215,1.0718563467988729,-145.37657897397716,-25.99399574998519,8.935735653853007,0.1784,-0.9547,-0.2249,0.0779
45,2232260.0,743.101358,1.0,-0.91,-3.33,-8.03,13.06,-6.0,30.75,2.63,4.25,-5.75,-0.3055192556193124,0.08909444675800215,1.0718563467988729,-145.37657897397716,-25.99399574998519,8.935735653853007,0.1784,-0.9547,-0.2249,0.0779
46,2232295.0,743.104421,1.0,-1.09,-2.97,-7.67,12.0,-4.75,31.19,6.0,5.44,-8.88,-0.4285379980344149,0.40783980307584256,1.5309070195016492,-145.10802458844395,-26.205728877683853,8.717364176475899,0.1805,-0.9540000000000001,-0.2267,0.076
47,2232295.0,743.104421,1.0,-1.09,-2.97,-7.67,12.0,-4.75,31.19,6.0,5.44,-8.88,-0.4285379980344149,0.40783980307584256,1.5309070195016492,-145.10802458844395,-26.205728877683853,8.717364176475899,0.1805,-0.9540000000000001,-0.2267,0.076
48,2232332.0,743.149009,1.0,-0.75,-3.04,-7.18,13.06,-5.19,32.0,9.0,16.87,-7.88,-0.3092384916715724,0.09596557233313363,1.9803058876960016,-144.9554604078314,-26.335166138238048,8.338162304521468,0.1832,-0.9536,-0.2278,0.0727
49,2232332.0,743.149009,1.0,-0.75,-3.04,-7.18,13.06,-5.19,32.0,9.0,16.87,-7.88,-0.3092384916715724,0.09596557233313363,1.9803058876960016,-144.9554604078314,-26.335166138238048,8.338162304521468,0.1832,-0.9536,-0.2278,0.0727
50,2232367.0,743.167828,1.0,-0.69,-3.51,-7.04,13.06,-5.19,32.0,12.38,20.81,-12.63,-0.5356970235566774,-0.2828990136722596,1.933226548475511,-144.61452078820068,-26.52349964582953,7.8212153932673,0.1873,-0.9527,-0.2294,0.0682
51,2232367.0,743.167828,1.0,-0.69,-3.51,-7.04,13.06,-5.19,32.0,12.38,20.81,-12.63,-0.5356970235566774,-0.2828990136722596,1.933226548475511,-144.61452078820068,-26.52349964582953,7.8212153932673,0.1873,-0.9527,-0.2294,0.0682
52,2232401.0,743.206587,1.0,0.04,-3.29,-7.54,13.75,-4.5,31.19,4.75,30.06,-12.5,0.1906729499000966,-0.15466346985082954,1.5836929262174717,-144.27673180622273,-26.723683975588173,6.833706733841952,0.1927,-0.9518,-0.2311,0.0596
53,2232401.0,743.206587,1.0,0.04,-3.29,-7.54,13.75,-4.5,31.19,4.75,30.06,-12.5,0.1906729499000966,-0.15466346985082954,1.5836929262174717,-144.27673180622273,-26.723683975588173,6.833706733841952,0.1927,-0.9518,-0.2311,0.0596
54,2232436.0,743.2661019999999,1.0,0.66,-3.7,-7.87,12.25,-3.69,32.25,6.0,28.94,-17.87,0.4732657921196689,-0.5440269537658244,1.115128029505673,-143.83109490597238,-27.136090647491407,5.663127955663872,0.1972,-0.9506,-0.2346,0.0494
55,2232436.0,743.2661019999999,1.0,0.66,-3.7,-7.87,12.25,-3.69,32.25,6.0,28.94,-17.87,0.4732657921196689,-0.5440269537658244,1.115128029505673,-143.83109490597238,-27.136090647491407,5.663127955663872,0.1972,-0.9506,-0.2346,0.0494
56,2232473.0,743.326394,1.0,0.05,-4.31,-7.55,11.19,-3.25,32.75,7.81,27.69,-17.12,-0.5020000496823123,-0.7789687554058764,1.162443638035915,-143.42720670361226,-27.48986718541275,4.848669626539135,0.2004,-0.9495,-0.2376,0.0423
57,2232473.0,743.326394,1.0,0.05,-4.31,-7.55,11.19,-3.25,32.75,7.81,27.69,-17.12,-0.5020000496823123,-0.7789687554058764,1.162443638035915,-143.42720670361226,-27.48986718541275,4.848669626539135,0.2004,-0.9495,-0.2376,0.0423
58,2232506.0,743.333292,1.0,0.14,-5.5,-8.11,11.19,-3.25,32.75,4.81,34.0,-15.13,-1.0334805907238749,-1.4305386661861903,0.16677567544870442,-142.95536907296346,-27.796689641349,3.564372225995784,0.2053,-0.9482,-0.2402,0.0311
59,2232506.0,743.333292,1.0,0.14,-5.5,-8.11,11.19,-3.25,32.75,4.81,34.0,-15.13,-1.0334805907238749,-1.4305386661861903,0.16677567544870442,-142.95536907296346,-27.796689641349,3.564372225995784,0.2053,-0.9482,-0.2402,0.0311
60,2232543.0,743.384719,1.0,1.07,-5.88,-9.48,10.06,-3.25,32.38,-5.94,42.31,-7.44,-0.3620234247653104,-1.5569058302031205,-1.285450039027813,-142.91931394004666,-27.784885032921768,2.383676327772471,0.2075,-0.9481,-0.2401,0.0208
61,2232543.0,743.384719,1.0,1.07,-5.88,-9.48,10.06,-3.25,32.38,-5.94,42.31,-7.44,-0.3620234247653104,-1.5569058302031205,-1.285450039027813,-142.91931394004666,-27.784885032921768,2.383676327772471,0.2075,-0.9481,-0.2401,0.0208
62,2232580.0,743.393277,1.0,1.07,-6.5,-10.39,8.56,-3.25,33.19,-8.13,37.5,0.44,-0.7833615415874292,-1.631255641151681,-2.3618482527990117,-143.1724151146164,-27.52525947842401,0.8938232239278141,0.2078,-0.9488,-0.2379,0.0078
63,2232580.0,743.393277,1.0,1.07,-6.5,-10.39,8.56,-3.25,33.19,-8.13,37.5,0.44,-0.7833615415874292,-1.631255641151681,-2.3618482527990117,-143.1724151146164,-27.52525947842401,0.8938232239278141,0.2078,-0.9488,-0.2379,0.0078
64,2232612.0,743.4508099999999,1.0,1.2,-5.32,-10.9,8.56,-3.25,33.19,-13.5,37.31,13.44,-0.2486953727496789,-0.5267693061978829,-2.3676288168178856,-143.72051272987528,-26.912168656137837,-0.08021409786913415,0.207,-0.9503,-0.2327,-0.0007
65,2232612.0,743.4508099999999,1.0,1.2,-5.32,-10.9,8.56,-3.25,33.19,-13.5,37.31,13.44,-0.2486953727496789,-0.5267693061978829,-2.3676288168178856,-143.72051272987528,-26.912168656137837,-0.08021409786913415,0.207,-0.9503,-0.2327,-0.0007
66,2232647.0,743.464028,1.0,1.78,-5.28,-12.27,6.69,-3.0,34.06,-11.19,30.94,20.06,0.19200898305606576,-0.19367309160233104,-3.666483387746705,-144.53918747848587,-25.9587156933802,-1.2605325708995527,0.2054,-0.9525,-0.2246,-0.011000000000000001
67,2232647.0,743.464028,1.0,1.78,-5.28,-12.27,6.69,-3.0,34.06,-11.19,30.94,20.06,0.19200898305606576,-0.19367309160233104,-3.666483387746705,-144.53918747848587,-25.9587156933802,-1.2605325708995527,0.2054,-0.9525,-0.2246,-0.011000000000000001
68,2232684.0,743.471178,1.0,2.13,-4.71,-12.68,6.69,-3.69,35.75,-8.69,16.44,26.12,0.7120546174486877,0.28981325227008403,-3.8649404890608334,-145.22287322309495,-25.10099664997855,-1.707477412974553,0.2045,-0.9543,-0.2173,-0.0149
69,2232684.0,743.471178,1.0,2.13,-4.71,-12.68,6.69,-3.69,35.75,-8.69,16.44,26.12,0.7120546174486877,0.28981325227008403,-3.8649404890608334,-145.22287322309495,-25.10099664997855,-1.707477412974553,0.2045,-0.9543,-0.2173,-0.0149
70,2232721.0,743.51304,1.0,2.41,-3.7,-13.18,4.88,-4.5,34.06,-8.69,-3.0,30.06,1.4272792441506452,1.1554047464306407,-3.9715361589667304,-146.2735608004224,-23.95177191669858,-1.7533192633889718,0.2019,-0.9570000000000001,-0.2075,-0.0153
71,2232721.0,743.51304,1.0,2.41,-3.7,-13.18,4.88,-4.5,34.06,-8.69,-3.0,30.06,1.4272792441506452,1.1554047464306407,-3.9715361589667304,-146.2735608004224,-23.95177191669858,-1.7533192633889718,0.2019,-0.9570000000000001,-0.2075,-0.0153
72,2232754.0,743.57346,1.0,1.89,-3.42,-12.41,4.88,-4.5,34.06,-4.5,-18.06,29.87,1.1497932636225778,1.2225003962649088,-3.09529048320098,-147.03240000479886,-23.179187018494158,-1.2146932735575866,0.2,-0.9589,-0.2009,-0.0106
73,2232754.0,743.57346,1.0,1.89,-3.42,-12.41,4.88,-4.5,34.06,-4.5,-18.06,29.87,1.1497932636225778,1.2225003962649088,-3.09529048320098,-147.03240000479886,-23.179187018494158,-1.2146932735575866,0.2,-0.9589,-0.2009,-0.0106
74,2232791.0,743.59105,1.0,1.61,-2.84,-11.79,5.69,-4.5,34.06,-6.25,-30.12,28.62,1.3114614310710442,1.4519575299233596,-2.269511983267364,-148.01592812505623,-22.25582556887037,-0.09167325699941424,0.1965,-0.9613,-0.193,-0.0008
75,2232791.0,743.59105,1.0,1.61,-2.84,-11.79,5.69,-4.5,34.06,-6.25,-30.12,28.62,1.3114614310710442,1.4519575299233596,-2.269511983267364,-148.01592812505623,-22.25582556887037,-0.09167325699941424,0.1965,-0.9613,-0.193,-0.0008
76,2232827.0,743.668586,1.0,1.01,-2.8,-10.92,5.25,-5.19,34.06,-6.25,-40.88,24.06,0.927769308403227,1.2655447926124241,-1.402459709886715,-148.6458749656724,-21.742186134206424,1.0886361860699356,0.1934,-0.9628,-0.1886,0.0095
77,2232827.0,743.668586,1.0,1.01,-2.8,-10.92,5.25,-5.19,34.06,-6.25,-40.88,24.06,0.927769308403227,1.2655447926124241,-1.402459709886715,-148.6458749656724,-21.742186134206424,1.0886361860699356,0.1934,-0.9628,-0.1886,0.0095
78,2232860.0,743.718737,1.0,0.6,-3.03,-10.26,5.25,-5.19,34.06,-2.25,-47.94,26.56,0.7400150142785642,0.8235913461358186,-0.8508626119189984,-149.288410054367,-21.13572637929078,2.956790311078442,0.1894,-0.9643,-0.1834,0.0258
79,2232860.0,743.718737,1.0,0.6,-3.03,-10.26,5.25,-5.19,34.06,-2.25,-47.94,26.56,0.7400150142785642,0.8235913461358186,-0.8508626119189984,-149.288410054367,-21.13572637929078,2.956790311078442,0.1894,-0.9643,-0.1834,0.0258
80,2232895.0,743.72568,1.0,0.05,-3.02,-9.6,6.75,-6.25,34.06,-4.69,-48.19,17.12,0.4681271335045668,0.6401563821928575,-0.2259945563079011,-149.68030591183427,-20.762818905741057,4.860139072417077,0.1847,-0.9652,-0.1802,0.0424
81,2232895.0,743.72568,1.0,0.05,-3.02,-9.6,6.75,-6.25,34.06,-4.69,-48.19,17.12,0.4681271335045668,0.6401563821928575,-0.2259945563079011,-149.68030591183427,-20.762818905741057,4.860139072417077,0.1847,-0.9652,-0.1802,0.0424
82,2232932.0,743.743873,1.0,-0.35,-2.93,-8.76,9.06,-6.25,32.88,-2.88,-49.25,19.31,0.2221445480832488,0.4693501149999741,0.5776000884811339,-149.85607839466778,-20.54151049721856,6.317194167065648,0.1812,-0.9656,-0.1783,0.0551
83,2232932.0,743.743873,1.0,-0.35,-2.93,-8.76,9.06,-6.25,32.88,-2.88,-49.25,19.31,0.2221445480832488,0.4693501149999741,0.5776000884811339,-149.85607839466778,-20.54151049721856,6.317194167065648,0.1812,-0.9656,-0.1783,0.0551
84,2232969.0,743.787895,1.0,-0.87,-2.52,-8.05,9.06,-6.25,32.88,-2.31,-47.44,15.56,-0.04197102498909066,0.6962015342634044,1.3554168440191123,-149.900178159723,-20.262073582983945,7.786758050274272,0.1785,-0.9657,-0.1759,0.0679
85,2232969.0,743.787895,1.0,-0.87,-2.52,-8.05,9.06,-6.25,32.88,-2.31,-47.44,15.56,-0.04197102498909066,0.6962015342634044,1.3554168440191123,-149.900178159723,-20.262073582983945,7.786758050274272,0.1785,-0.9657,-0.1759,0.0679
86,2233001.0,743.806374,1.0,-0.82,-2.96,-7.97,10.19,-6.69,32.5,-0.75,-41.38,11.38,0.07771286776021262,0.16236052533300382,1.2671828169728254,-149.7680673850508,-20.192233442293944,9.430066128049686,0.1747,-0.9654,-0.1753,0.0822
87,2233001.0,743.806374,1.0,-0.82,-2.96,-7.97,10.19,-6.69,32.5,-0.75,-41.38,11.38,0.07771286776021262,0.16236052533300382,1.2671828169728254,-149.7680673850508,-20.192233442293944,9.430066128049686,0.1747,-0.9654,-0.1753,0.0822
88,2233038.0,743.862134,1.0,-1.06,-2.67,-7.41,11.75,-7.06,31.69,2.5,-38.31,12.06,0.027363557230562857,0.2589456944240549,1.8635524705046629,-149.54912686270868,-19.994394103683586,10.971708923508501,0.1724,-0.9649,-0.1736,0.0956
89,2233038.0,743.862134,1.0,-1.06,-2.67,-7.41,11.75,-7.06,31.69,2.5,-38.31,12.06,0.027363557230562857,0.2589456944240549,1.8635524705046629,-149.54912686270868,-19.994394103683586,10.971708923508501,0.1724,-0.9649,-0.1736,0.0956
90,2233073.0,743.86549,1.0,-1.48,-3.02,-7.4,13.25,-5.56,32.5,-0.81,-29.75,3.56,-0.3483417571175687,0.05668425414298861,1.6859206660312545,-149.33171261025748,-20.01766618340029,11.881504040605064,0.1707,-0.9644,-0.1738,0.1035
91,2233073.0,743.86549,1.0,-1.48,-3.02,-7.4,13.25,-5.56,32.5,-0.81,-29.75,3.56,-0.3483417571175687,0.05668425414298861,1.6859206660312545,-149.33171261025748,-20.01766618340029,11.881504040605064,0.1707,-0.9644,-0.1738,0.1035
92,2233108.0,744.0232110000001,1.0,-1.9,-3.4,-6.82,13.25,-5.56,32.5,-1.31,-23.87,2.94,-0.8779790326131293,-0.33780057398500274,2.0093784521759064,-149.0298356031949,-20.05257586733213,12.849707716341904,0.1688,-0.9637,-0.1741,0.1119
93,2233108.0,744.0232110000001,1.0,-1.9,-3.4,-6.82,13.25,-5.56,32.5,-1.31,-23.87,2.94,-0.8779790326131293,-0.33780057398500274,2.0093784521759064,-149.0298356031949,-20.05257586733213,12.849707716341904,0.1688,-0.9637,-0.1741,0.1119
94,2233143.0,744.027908,1.0,-1.67,-2.87,-6.98,13.56,-7.06,30.37,-1.94,-11.5,0.75,-0.41469971638861897,0.061258738478841,2.0884590518446497,-148.94411093259438,-20.01766618340029,13.264930228136947,0.1675,-0.9635,-0.1738,0.1155
95,2233143.0,744.027908,1.0,-1.67,-2.87,-6.98,13.56,-7.06,30.37,-1.94,-11.5,0.75,-0.41469971638861897,0.061258738478841,2.0884590518446497,-148.94411093259438,-20.01766618340029,13.264930228136947,0.1675,-0.9635,-0.1738,0.1155
96,2233180.0,744.03918,1.0,-1.81,-2.91,-6.69,14.75,-7.75,31.37,1.5,-8.63,0.94,-0.5837405855283943,-0.014365043973613378,2.3126963989747966,-148.7733502639536,-20.075850034388896,13.691869135619404,0.1672,-0.9631,-0.1743,0.1192
97,2233180.0,744.03918,1.0,-1.81,-2.91,-6.69,14.75,-7.75,31.37,1.5,-8.63,0.94,-0.5837405855283943,-0.014365043973613378,2.3126963989747966,-148.7733502639536,-20.075850034388896,13.691869135619404,0.1672,-0.9631,-0.1743,0.1192
98,2233214.0,744.086596,1.0,-2.07,-3.28,-6.68,14.75,-7.75,31.37,1.06,0.37,-6.44,-0.9109931414176838,-0.2440030062535869,2.140082708882733,-148.56117141184754,-20.180594156388953,13.8765501759761,0.1673,-0.9626,-0.1752,0.1208
99,2233214.0,744.086596,1.0,-2.07,-3.28,-6.68,14.75,-7.75,31.37,1.06,0.37,-6.44,-0.9109931414176838,-0.2440030062535869,2.140082708882733,-148.56117141184754,-20.180594156388953,13.8765501759761,0.1673,-0.9626,-0.1752,0.1208
100,2233247.0,744.103562,1.0,-2.42,-3.46,-6.73,13.69,-7.5,30.06,2.19,5.19,-4.69,-1.2983336708358726,-0.2306354936175623,1.9719810887914573,-148.5189029496625,-20.355205608113067,13.657245433015795,0.1683,-0.9625,-0.1767,0.1189
101,2233247.0,744.103562,1.0,-2.42,-3.46,-6.73,13.69,-7.5,30.06,2.19,5.19,-4.69,-1.2983336708358726,-0.2306354936175623,1.9719810887914573,-148.5189029496625,-20.355205608113067,13.657245433015795,0.1683,-0.9625,-0.1767,0.1189
102,2233284.0,744.1064690000001,1.0,-2.11,-3.22,-7.25,15.5,-6.69,31.69,-2.88,19.69,-7.88,-0.8690835410563692,0.02651838166890097,1.6441142068718264,-148.6458749656724,-20.506574164810864,13.138038375794716,0.1684,-0.9628,-0.17800000000000002,0.1144
103,2233284.0,744.1064690000001,1.0,-2.11,-3.22,-7.25,15.5,-6.69,31.69,-2.88,19.69,-7.88,-0.8690835410563692,0.02651838166890097,1.6441142068718264,-148.6458749656724,-20.506574164810864,13.138038375794716,0.1684,-0.9628,-0.17800000000000002,0.1144
104,2233321.0,744.118447,1.0,-1.9,-3.28,-7.49,13.69,-7.5,31.0,-1.63,23.31,-8.38,-0.7591639384376299,0.006446818105172669,1.446498772114694,-148.8159549371668,-20.681275164117206,12.215665087929844,0.1696,-0.9632,-0.1795,0.1064
105,2233321.0,744.118447,1.0,-1.9,-3.28,-7.49,13.69,-7.5,31.0,-1.63,23.31,-8.38,-0.7591639384376299,0.006446818105172669,1.446498772114694,-148.8159549371668,-20.681275164117206,12.215665087929844,0.1696,-0.9632,-0.1795,0.1064
106,2233354.0,744.196723,1.0,-1.42,-3.58,-7.97,13.69,-7.5,31.0,-2.31,31.69,-6.81,-0.41498241605626857,-0.2571620634813969,0.9683607273256722,-148.98694437514695,-20.786119068432164,11.34014667578332,0.1708,-0.9636,-0.1804,0.0988
107,2233354.0,744.196723,1.0,-1.42,-3.58,-7.97,13.69,-7.5,31.0,-2.31,31.69,-6.81,-0.41498241605626857,-0.2571620634813969,0.9683607273256722,-148.98694437514695,-20.786119068432164,11.34014667578332,0.1708,-0.9636,-0.1804,0.0988
108,2233391.0,744.200565,1.0,-0.65,-3.67,-7.9,13.69,-7.06,30.87,-7.69,33.25,-12.19,0.04666942156008419,-0.601365673685343,1.0924328067230125,-149.288410054367,-20.9608980601766,10.005090889774307,0.1715,-0.9643,-0.1819,0.0872
109,2233391.0,744.200565,1.0,-0.65,-3.67,-7.9,13.69,-7.06,30.87,-7.69,33.25,-12.19,0.04666942156008419,-0.601365673685343,1.0924328067230125,-149.288410054367,-20.9608980601766,10.005090889774307,0.1715,-0.9643,-0.1819,0.0872
110,2233425.0,744.268949,1.0,-0.39,-3.28,-8.25,12.88,-7.5,32.19,-14.38,36.13,-11.19,0.3121768745147579,-0.24253032882732414,0.9287716138867346,-149.59279181341395,-21.147383365420364,8.866772764864926,0.1703,-0.965,-0.1835,0.0773
111,2233425.0,744.268949,1.0,-0.39,-3.28,-8.25,12.88,-7.5,32.19,-14.38,36.13,-11.19,0.3121768745147579,-0.24253032882732414,0.9287716138867346,-149.59279181341395,-21.147383365420364,8.866772764864926,0.1703,-0.965,-0.1835,0.0773
112,2233460.0,744.271774,1.0,-0.85,-3.01,-7.61,12.88,-7.5,32.19,-18.0,35.38,-15.88,-0.3774235999579021,-0.020104716966745432,1.587656921371055,-149.98856759602742,-21.473869337236096,7.396290017779932,0.168,-0.9659,-0.1863,0.0645
113,2233460.0,744.271774,1.0,-0.85,-3.01,-7.61,12.88,-7.5,32.19,-18.0,35.38,-15.88,-0.3774235999579021,-0.020104716966745432,1.587656921371055,-149.98856759602742,-21.473869337236096,7.396290017779932,0.168,-0.9659,-0.1863,0.0645
114,2233495.0,744.305232,1.0,-0.33,-2.36,-8.51,11.38,-7.06,31.75,-9.94,43.31,-10.81,0.21894724986893144,0.6523162753973886,0.9961366450003856,-150.29995438645182,-21.707181480459113,5.640181741583799,0.1669,-0.9666,-0.1883,0.0492
115,2233495.0,744.305232,1.0,-0.33,-2.36,-8.51,11.38,-7.06,31.75,-9.94,43.31,-10.81,0.21894724986893144,0.6523162753973886,0.9961366450003856,-150.29995438645182,-21.707181480459113,5.640181741583799,0.1669,-0.9666,-0.1883,0.0492
116,2233532.0,744.361448,1.0,-0.13,-3.55,-8.86,10.69,-7.75,32.19,-6.25,46.06,-18.25,-0.18396368277442016,-0.2913445610545877,0.2672435347022759,-150.21066214535367,-21.998949913651906,4.240855681461491,0.1679,-0.9664,-0.1908,0.037000000000000005
117,2233532.0,744.361448,1.0,-0.13,-3.55,-8.86,10.69,-7.75,32.19,-6.25,46.06,-18.25,-0.18396368277442016,-0.2913445610545877,0.2672435347022759,-150.21066214535367,-21.998949913651906,4.240855681461491,0.1679,-0.9664,-0.1908,0.037000000000000005
118,2233569.0,744.3785809999999,1.0,0.52,-2.77,-9.95,10.69,-7.75,32.19,-9.63,51.63,-14.31,0.5706006570079765,0.5282997009154724,-0.5055328104545715,-150.29995438645182,-22.185757394813148,2.7160742546883188,0.1677,-0.9666,-0.1924,0.0237
119,2233569.0,744.3785809999999,1.0,0.52,-2.77,-9.95,10.69,-7.75,32.19,-9.63,51.63,-14.31,0.5706006570079765,0.5282997009154724,-0.5055328104545715,-150.29995438645182,-22.185757394813148,2.7160742546883188,0.1677,-0.9666,-0.1924,0.0237
120,2233602.0,744.423178,1.0,0.95,-4.06,-10.54,9.88,-7.06,33.38,-0.06,42.13,-17.37,0.21015735924006254,-0.4390254619478826,-1.517695037489748,-149.98856759602742,-22.466080778094224,0.8479852761926534,0.1703,-0.9659,-0.1948,0.0074
121,2233602.0,744.423178,1.0,0.95,-4.06,-10.54,9.88,-7.06,33.38,-0.06,42.13,-17.37,0.21015735924006254,-0.4390254619478826,-1.517695037489748,-149.98856759602742,-22.466080778094224,0.8479852761926534,0.1703,-0.9659,-0.1948,0.0074
122,2233638.0,744.4413040000001,1.0,0.82,-3.4,-10.57,6.5,-7.75,33.75,-11.69,40.44,-13.06,0.016091813585232685,0.2547517812307263,-1.3240347311158462,-149.81204156148604,-22.73485185773412,-0.8250663536663884,0.1702,-0.9655,-0.1971,-0.0072
123,2233638.0,744.4413040000001,1.0,0.82,-3.4,-10.57,6.5,-7.75,33.75,-11.69,40.44,-13.06,0.016091813585232685,0.2547517812307263,-1.3240347311158462,-149.81204156148604,-22.73485185773412,-0.8250663536663884,0.1702,-0.9655,-0.1971,-0.0072
124,2233673.0,744.494233,1.0,1.61,-3.18,-11.15,5.88,-8.19,33.88,-4.44,38.13,-6.25,0.6301361487801582,0.4000344115026828,-1.8753832521190092,-149.68030591183427,-22.75822922439662,-1.9939937526124858,0.1707,-0.9652,-0.1973,-0.0174
125,2233673.0,744.494233,1.0,1.61,-3.18,-11.15,5.88,-8.19,33.88,-4.44,38.13,-6.25,0.6301361487801582,0.4000344115026828,-1.8753832521190092,-149.68030591183427,-22.75822922439662,-1.9939937526124858,0.1707,-0.9652,-0.1973,-0.0174
126,2233708.0,744.543825,1.0,2.31,-3.1,-11.45,5.88,-8.19,33.88,-7.94,32.38,-9.06,1.0406136580315646,0.3695354064035159,-2.227849025640092,-149.46197984083236,-22.86343926833653,-3.335085177891311,0.1708,-0.9647,-0.1982,-0.0291
127,2233708.0,744.543825,1.0,2.31,-3.1,-11.45,5.88,-8.19,33.88,-7.94,32.38,-9.06,1.0406136580315646,0.3695354064035159,-2.227849025640092,-149.46197984083236,-22.86343926833653,-3.335085177891311,0.1708,-0.9647,-0.1982,-0.0291
128,2233745.0,744.702979,1.0,2.31,-3.07,-11.17,4.38,-8.19,33.75,-4.44,14.25,-9.88,0.9201438870767628,0.31004991466593523,-1.9656524204057424,-149.33171261025748,-23.038832805407413,-3.942727502383202,0.1702,-0.9644,-0.1997,-0.0344
129,2233745.0,744.702979,1.0,2.31,-3.07,-11.17,4.38,-8.19,33.75,-4.44,14.25,-9.88,0.9201438870767628,0.31004991466593523,-1.9656524204057424,-149.33171261025748,-23.038832805407413,-3.942727502383202,0.1702,-0.9644,-0.1997,-0.0344
130,2233780.0,744.7128280000001,1.0,1.74,-3.11,-10.31,5.06,-7.75,35.56,-5.69,5.88,-9.81,0.2932485204896415,0.18034549483789555,-1.096435838776209,-149.11579237958978,-23.34297818708293,-4.332593112917143,0.1689,-0.9639,-0.2023,-0.0378
131,2233780.0,744.7128280000001,1.0,1.74,-3.11,-10.31,5.06,-7.75,35.56,-5.69,5.88,-9.81,0.2932485204896415,0.18034549483789555,-1.096435838776209,-149.11579237958978,-23.34297818708293,-4.332593112917143,0.1689,-0.9639,-0.2023,-0.0378
132,2233815.0,744.71886,1.0,1.65,-2.95,-10.37,5.06,-7.75,35.56,-2.56,3.88,-6.06,0.2299301448032577,0.35595746253729543,-1.0920804954923415,-149.0298356031949,-23.506817731301986,-4.527544452628878,0.1678,-0.9637,-0.2037,-0.0395
133,2233815.0,744.71886,1.0,1.65,-2.95,-10.37,5.06,-7.75,35.56,-2.56,3.88,-6.06,0.2299301448032577,0.35595746253729543,-1.0920804954923415,-149.0298356031949,-23.506817731301986,-4.527544452628878,0.1678,-0.9637,-0.2037,-0.0395
134,2233849.0,744.770338,1.0,1.43,-3.61,-10.03,3.25,-8.19,35.38,0.56,0.5,-6.5,-0.2556210428278771,-0.23209672573060924,-0.9431727423696971,-148.8159549371668,-23.740958889771715,-4.596353909147252,0.1682,-0.9632,-0.2057,-0.0401
135,2233849.0,744.770338,1.0,1.43,-3.61,-10.03,3.25,-8.19,35.38,0.56,0.5,-6.5,-0.2556210428278771,-0.23209672573060924,-0.9431727423696971,-148.8159549371668,-23.740958889771715,-4.596353909147252,0.1682,-0.9632,-0.2057,-0.0401
136,2233884.0,744.7872169999999,1.0,1.59,-3.31,-9.85,4.06,-9.0,34.25,-5.19,0.94,-2.31,-0.0007270244587744834,-0.11146589038304032,-0.7049756985642599,-148.8159549371668,-23.79950985538602,-4.6536963885673295,0.1674,-0.9632,-0.2062,-0.0406
137,2233884.0,744.7872169999999,1.0,1.59,-3.31,-9.85,4.06,-9.0,34.25,-5.19,0.94,-2.31,-0.0007270244587744834,-0.11146589038304032,-0.7049756985642599,-148.8159549371668,-23.79950985538602,-4.6536963885673295,0.1674,-0.9632,-0.2062,-0.0406
138,2233919.0,744.790038,1.0,1.62,-2.85,-9.35,4.06,-9.0,34.25,-7.63,-2.44,-1.06,0.2095306566834184,0.05886095205852615,-0.0990065805721585,-148.94411093259438,-23.869779338261072,-4.6536963885673295,0.1652,-0.9635,-0.2068,-0.0406
139,2233919.0,744.790038,1.0,1.62,-2.85,-9.35,4.06,-9.0,34.25,-7.63,-2.44,-1.06,0.2095306566834184,0.05886095205852615,-0.0990065805721585,-148.94411093259438,-23.869779338261072,-4.6536963885673295,0.1652,-0.9635,-0.2068,-0.0406
140,2233954.0,744.798281,1.0,1.49,-2.77,-9.18,3.38,-7.5,34.75,-2.13,-2.75,-0.63,0.12498122545050265,0.09450541985296956,0.10402930150295298,-148.98694437514695,-23.91663071897709,-4.6192907619204595,0.1639,-0.9636,-0.2072,-0.0403
141,2233954.0,744.798281,1.0,1.49,-2.77,-9.18,3.38,-7.5,34.75,-2.13,-2.75,-0.63,0.12498122545050265,0.09450541985296956,0.10402930150295298,-148.98694437514695,-23.91663071897709,-4.6192907619204595,0.1639,-0.9636,-0.2072,-0.0403
142,2233989.0,744.831608,1.0,1.3,-2.59,-8.82,5.19,-9.25,34.25,0.31,-2.75,0.19,0.045253398204280704,0.1973647508286842,0.5249745432151993,-149.0298356031949,-23.928344197778117,-4.516076369343336,0.1638,-0.9637,-0.2073,-0.0394
143,2233989.0,744.831608,1.0,1.3,-2.59,-8.82,5.19,-9.25,34.25,0.31,-2.75,0.19,0.045253398204280704,0.1973647508286842,0.5249745432151993,-149.0298356031949,-23.928344197778117,-4.516076369343336,0.1638,-0.9637,-0.2073,-0.0394
144,2234023.0,744.851177,1.0,1.47,-2.84,-9.08,4.06,-7.75,33.5,3.13,0.31,-1.75,0.09545185344131092,0.0044687565702077325,0.18044779072300088,-148.94411093259438,-23.98691540045918,-4.504608331312204,0.1639,-0.9635,-0.2078,-0.0393
145,2234023.0,744.851177,1.0,1.47,-2.84,-9.08,4.06,-7.75,33.5,3.13,0.31,-1.75,0.09545185344131092,0.0044687565702077325,0.18044779072300088,-148.94411093259438,-23.98691540045918,-4.504608331312204,0.1639,-0.9635,-0.2078,-0.0393
146,2234058.0,744.911302,1.0,1.36,-2.94,-9.2,4.06,-7.75,33.5,3.56,-0.69,-0.12,-0.037656379724648185,0.01881517443822034,0.05311587198891843,-148.90133503664836,-23.998630403703213,-4.4702044875913645,0.1649,-0.9634,-0.2079,-0.039
147,2234058.0,744.911302,1.0,1.36,-2.94,-9.2,4.06,-7.75,33.5,3.56,-0.69,-0.12,-0.037656379724648185,0.01881517443822034,0.05311587198891843,-148.90133503664836,-23.998630403703213,-4.4702044875913645,0.1649,-0.9634,-0.2079,-0.039
148,2234093.0,744.96514,1.0,1.36,-3.17,-9.32,5.19,-9.0,33.88,-0.75,-0.69,-5.06,-0.14111928139083307,-0.1396169909393088,-0.12921898284497502,-148.8159549371668,-24.104076904803392,-4.49314033842009,0.1648,-0.9632,-0.2088,-0.0392
149,2234093.0,744.96514,1.0,1.36,-3.17,-9.32,5.19,-9.0,33.88,-0.75,-0.69,-5.06,-0.14111928139083307,-0.1396169909393088,-0.12921898284497502,-148.8159549371668,-24.104076904803392,-4.49314033842009,0.1648,-0.9632,-0.2088,-0.0392
150,2234130.0,745.004159,1.0,1.32,-2.89,-9.32,4.0,-9.0,33.88,1.12,-1.44,2.13,-0.055421644587142986,0.119094602434475,-0.03914325991472545,-148.7733502639536,-24.127512270969643,-4.4587366294239885,0.165,-0.9631,-0.209,-0.0389
151,2234130.0,745.004159,1.0,1.32,-2.89,-9.32,4.0,-9.0,33.88,1.12,-1.44,2.13,-0.055421644587142986,0.119094602434475,-0.03914325991472545,-148.7733502639536,-24.127512270969643,-4.4587366294239885,0.165,-0.9631,-0.209,-0.0389
152,2234165.0,745.007706,1.0,1.4,-2.97,-9.37,4.0,-9.0,33.88,-1.37,1.75,-1.25,-0.013855518435558543,0.0374626055766103,-0.12190500955664695,-148.7733502639536,-24.127512270969643,-4.447268815934101,0.1651,-0.9631,-0.209,-0.0388
153,2234165.0,745.007706,1.0,1.4,-2.97,-9.37,4.0,-9.0,33.88,-1.37,1.75,-1.25,-0.013855518435558543,0.0374626055766103,-0.12190500955664695,-148.7733502639536,-24.127512270969643,-4.447268815934101,0.1651,-0.9631,-0.209,-0.0388
154,2234198.0,745.064732,1.0,1.55,-2.99,-9.53,4.75,-8.19,34.69,-1.63,0.44,-1.37,0.102560656040306,0.008836618577829025,-0.3004219412698692,-148.7733502639536,-24.174386077512,-4.49314033842009,0.1647,-0.9631,-0.2094,-0.0392
155,2234198.0,745.064732,1.0,1.55,-2.99,-9.53,4.75,-8.19,34.69,-1.63,0.44,-1.37,0.102560656040306,0.008836618577829025,-0.3004219412698692,-148.7733502639536,-24.174386077512,-4.49314033842009,0.1647,-0.9631,-0.2094,-0.0392
156,2234234.0,745.070454,1.0,1.16,-2.87,-8.91,3.56,-9.69,33.88,2.81,-2.0,1.5,-0.1832329307303132,0.06005143652846701,0.3761982866372282,-148.7733502639536,-24.13923033811999,-4.412865642375664,0.165,-0.9631,-0.2091,-0.0385
157,2234234.0,745.070454,1.0,1.16,-2.87,-8.91,3.56,-9.69,33.88,2.81,-2.0,1.5,-0.1832329307303132,0.06005143652846701,0.3761982866372282,-148.7733502639536,-24.13923033811999,-4.412865642375664,0.165,-0.9631,-0.2091,-0.0385
158,2234269.0,745.0878650000001,1.0,1.52,-2.9,-9.35,3.56,-9.69,33.88,-2.75,4.44,-2.25,0.10586762869675026,0.03748621340784597,-0.09942322953946636,-148.7733502639536,-24.174386077512,-4.539012581284228,0.1646,-0.9631,-0.2094,-0.0396
159,2234269.0,745.0878650000001,1.0,1.52,-2.9,-9.35,3.56,-9.69,33.88,-2.75,4.44,-2.25,0.10586762869675026,0.03748621340784597,-0.09942322953946636,-148.7733502639536,-24.174386077512,-4.539012581284228,0.1646,-0.9631,-0.2094,-0.0396
160,2234304.0,745.131325,1.0,1.44,-2.81,-9.27,4.38,-8.56,33.88,2.0,-0.63,1.56,0.06438213941849008,0.12499101378792556,0.014672049320362037,-148.73080219796103,-24.174386077512,-4.584885551911774,0.1648,-0.963,-0.2094,-0.04
161,2234304.0,745.131325,1.0,1.44,-2.81,-9.27,4.38,-8.56,33.88,2.0,-0.63,1.56,0.06438213941849008,0.12499101378792556,0.014672049320362037,-148.73080219796103,-24.174386077512,-4.584885551911774,0.1648,-0.963,-0.2094,-0.04
162,2234339.0,745.1897,1.0,1.26,-2.89,-9.0,3.56,-8.56,33.88,1.25,-0.88,-1.31,-0.1236050299963091,0.0424638002249278,0.2713147346708347,-148.73080219796103,-24.186105170420962,-4.550480755424785,0.1652,-0.963,-0.2095,-0.0397
163,2234339.0,745.1897,1.0,1.26,-2.89,-9.0,3.56,-8.56,33.88,1.25,-0.88,-1.31,-0.1236050299963091,0.0424638002249278,0.2713147346708347,-148.73080219796103,-24.186105170420962,-4.550480755424785,0.1652,-0.963,-0.2095,-0.0397
164,2234374.0,745.1972599999999,1.0,1.38,-2.93,-9.25,5.5,-8.56,34.75,0.25,0.88,1.19,-0.03529505727574761,0.05188822132580384,0.006248892319788979,-148.68831050830863,-24.174386077512,-4.573417240623146,0.1655,-0.9629,-0.2094,-0.0399
165,2234374.0,745.1972599999999,1.0,1.38,-2.93,-9.25,5.5,-8.56,34.75,0.25,0.88,1.19,-0.03529505727574761,0.05188822132580384,0.006248892319788979,-148.68831050830863,-24.174386077512,-4.573417240623146,0.1655,-0.9629,-0.2094,-0.0399
166,2234411.0,745.2214190000001,1.0,1.29,-2.88,-9.21,5.5,-8.56,34.75,-1.0,0.19,-0.44,-0.09712550934044473,0.12093388755102352,0.07225008884588746,-148.6458749656724,-24.174386077512,-4.584885551911774,0.1657,-0.9628,-0.2094,-0.04
167,2234411.0,745.2214190000001,1.0,1.29,-2.88,-9.21,5.5,-8.56,34.75,-1.0,0.19,-0.44,-0.09712550934044473,0.12093388755102352,0.07225008884588746,-148.6458749656724,-24.174386077512,-4.584885551911774,0.1657,-0.9628,-0.2094,-0.04
168,2234445.0,745.266479,1.0,1.42,-2.79,-9.29,4.0,-8.19,34.0,-3.44,3.0,-0.69,0.04499776389378346,0.16886767525213653,0.004912454569625524,-148.68831050830863,-24.174386077512,-4.6536963885673295,0.1653,-0.9629,-0.2094,-0.0406
169,2234445.0,745.266479,1.0,1.42,-2.79,-9.29,4.0,-8.19,34.0,-3.44,3.0,-0.69,0.04499776389378346,0.16886767525213653,0.004912454569625524,-148.68831050830863,-24.174386077512,-4.6536963885673295,0.1653,-0.9629,-0.2094,-0.0406
170,2234482.0,745.326994,1.0,1.47,-2.8,-9.31,3.25,-9.0,33.88,-0.06,2.19,-0.44,0.0627539640102906,0.14666455435698533,-0.02450209161653838,-148.73080219796103,-24.150948661500923,-4.791323123878448,0.165,-0.963,-0.2092,-0.0418
171,2234482.0,745.326994,1.0,1.47,-2.8,-9.31,3.25,-9.0,33.88,-0.06,2.19,-0.44,0.0627539640102906,0.14666455435698533,-0.02450209161653838,-148.73080219796103,-24.150948661500923,-4.791323123878448,0.165,-0.963,-0.2092,-0.0418
172,2234515.0,745.3346849999999,1.0,1.51,-2.82,-9.33,3.25,-9.0,33.88,1.63,0.69,-0.31,0.08335143941021655,0.12420552878833925,-0.055349063281575184,-148.73080219796103,-24.150948661500923,-4.837200229263812,0.1651,-0.963,-0.2092,-0.0422
173,2234515.0,745.3346849999999,1.0,1.51,-2.82,-9.33,3.25,-9.0,33.88,1.63,0.69,-0.31,0.08335143941021655,0.12420552878833925,-0.055349063281575184,-148.73080219796103,-24.150948661500923,-4.837200229263812,0.1651,-0.963,-0.2092,-0.0422
174,2234550.0,745.352287,1.0,1.33,-2.79,-9.3,4.75,-8.19,34.75,1.37,0.88,-0.25,-0.0704237093486818,0.21479898794365915,0.009104292225018185,-148.68831050830863,-24.150948661500923,-4.860139072417077,0.1653,-0.9629,-0.2092,-0.0424
175,2234550.0,745.352287,1.0,1.33,-2.79,-9.3,4.75,-8.19,34.75,1.37,0.88,-0.25,-0.0704237093486818,0.21479898794365915,0.009104292225018185,-148.68831050830863,-24.150948661500923,-4.860139072417077,0.1653,-0.9629,-0.2092,-0.0424
176,2234585.0,745.394576,1.0,1.55,-2.9,-9.36,4.38,-7.75,35.06,0.75,1.19,-1.0,0.07507513447356662,0.060573432047305475,-0.11367230240095515,-148.6458749656724,-24.186105170420962,-4.906017344265486,0.1655,-0.9628,-0.2095,-0.0428
177,2234585.0,745.394576,1.0,1.55,-2.9,-9.36,4.38,-7.75,35.06,0.75,1.19,-1.0,0.07507513447356662,0.060573432047305475,-0.11367230240095515,-148.6458749656724,-24.186105170420962,-4.906017344265486,0.1655,-0.9628,-0.2095,-0.0428
178,2234619.0,745.433489,1.0,1.52,-2.87,-9.27,4.38,-7.75,35.06,-0.37,1.56,-2.19,0.0522246106513265,0.0695043638202808,-0.015398754381759971,-148.56117141184754,-24.24470448957822,-4.9518964029981625,0.1655,-0.9626,-0.21,-0.0432
179,2234619.0,745.433489,1.0,1.52,-2.87,-9.27,4.38,-7.75,35.06,-0.37,1.56,-2.19,0.0522246106513265,0.0695043638202808,-0.015398754381759971,-148.56117141184754,-24.24470448957822,-4.9518964029981625,0.1655,-0.9626,-0.21,-0.0432
180,2234654.0,745.456325,1.0,1.73,-3.0,-9.51,4.38,-9.0,34.25,0.63,0.75,-0.94,0.17054098338327894,-0.044692854050146336,-0.3127332975030406,-148.5189029496625,-24.31503217113493,-5.020716482682318,0.1653,-0.9625,-0.2106,-0.0438
181,2234654.0,745.456325,1.0,1.73,-3.0,-9.51,4.38,-9.0,34.25,0.63,0.75,-0.94,0.17054098338327894,-0.044692854050146336,-0.3127332975030406,-148.5189029496625,-24.31503217113493,-5.020716482682318,0.1653,-0.9625,-0.2106,-0.0438
182,2234687.0,745.5446870000001,1.0,1.43,-2.95,-9.19,4.38,-8.56,34.38,2.0,-1.69,0.94,-0.062033892693390484,0.014774854969642481,0.04963029622682846,-148.5189029496625,-24.291588578811197,-4.9518964029981625,0.1658,-0.9625,-0.2104,-0.0432
183,2234687.0,745.5446870000001,1.0,1.43,-2.95,-9.19,4.38,-8.56,34.38,2.0,-1.69,0.94,-0.062033892693390484,0.014774854969642481,0.04963029622682846,-148.5189029496625,-24.291588578811197,-4.9518964029981625,0.1658,-0.9625,-0.2104,-0.0432
184,2234724.0,745.59323,1.0,1.51,-2.94,-9.3,4.38,-8.56,36.0,-2.5,1.25,-2.81,0.0053996812351653775,0.026617532929944288,-0.06315052231975038,-148.47668973247264,-24.33847679675364,-4.986306217889054,0.1656,-0.9624,-0.2108,-0.0435
185,2234724.0,745.59323,1.0,1.51,-2.94,-9.3,4.38,-8.56,36.0,-2.5,1.25,-2.81,0.0053996812351653775,0.026617532929944288,-0.06315052231975038,-148.47668973247264,-24.33847679675364,-4.986306217889054,0.1656,-0.9624,-0.2108,-0.0435
186,2234757.0,745.612091,1.0,1.55,-2.97,-9.49,4.38,-8.56,36.0,2.25,-0.19,1.06,0.024506043512780074,0.04974887685160678,-0.2571675909086988,-148.47668973247264,-24.33847679675364,-4.997776256010228,0.1656,-0.9624,-0.2108,-0.0436
187,2234757.0,745.612091,1.0,1.55,-2.97,-9.49,4.38,-8.56,36.0,2.25,-0.19,1.06,0.024506043512780074,0.04974887685160678,-0.2571675909086988,-148.47668973247264,-24.33847679675364,-4.997776256010228,0.1656,-0.9624,-0.2108,-0.0436
188,2234793.0,745.615071,1.0,1.51,-2.99,-9.53,3.69,-8.19,34.25,0.56,-0.31,1.0,-0.008568682822637008,0.0694418957348013,-0.2946471642651645,-148.47668973247264,-24.326754354712534,-4.940426564140192,0.1661,-0.9624,-0.2107,-0.0431
189,2234793.0,745.615071,1.0,1.51,-2.99,-9.53,3.69,-8.19,34.25,0.56,-0.31,1.0,-0.008568682822637008,0.0694418957348013,-0.2946471642651645,-148.47668973247264,-24.326754354712534,-4.940426564140192,0.1661,-0.9624,-0.2107,-0.0431
190,2234828.0,745.673804,1.0,1.54,-2.76,-9.26,5.19,-8.56,33.5,-1.88,-1.56,1.56,0.11863723199269828,0.1476919866454922,0.023965691270325,-148.56117141184754,-24.279867169785643,-4.928956774809122,0.1653,-0.9626,-0.2103,-0.043
191,2234828.0,745.673804,1.0,1.54,-2.76,-9.26,5.19,-8.56,33.5,-1.88,-1.56,1.56,0.11863723199269828,0.1476919866454922,0.023965691270325,-148.56117141184754,-24.279867169785643,-4.928956774809122,0.1653,-0.9626,-0.2103,-0.043
192,2234861.0,745.676921,1.0,1.63,-2.74,-9.31,5.19,-8.56,33.5,-1.12,-1.63,-0.06,0.21101065667320928,0.13134832759835824,-0.030972788032050506,-148.6458749656724,-24.279867169785643,-4.89454770282183,0.1646,-0.9628,-0.2103,-0.0427
193,2234861.0,745.676921,1.0,1.63,-2.74,-9.31,5.19,-8.56,33.5,-1.12,-1.63,-0.06,0.21101065667320928,0.13134832759835824,-0.030972788032050506,-148.6458749656724,-24.279867169785643,-4.89454770282183,0.1646,-0.9628,-0.2103,-0.0427
194,2234896.0,745.73803,1.0,1.35,-2.73,-9.26,3.56,-8.56,34.25,2.06,-3.44,0.69,-0.02829746215219792,0.2245330647311099,0.061303204914757714,-148.6458749656724,-24.279867169785643,-4.825730880475589,0.1643,-0.9628,-0.2103,-0.0421
195,2234896.0,745.73803,1.0,1.35,-2.73,-9.26,3.56,-8.56,34.25,2.06,-3.44,0.69,-0.02829746215219792,0.2245330647311099,0.061303204914757714,-148.6458749656724,-24.279867169785643,-4.825730880475589,0.1643,-0.9628,-0.2103,-0.0421
196,2234933.0,745.835171,1.0,1.34,-3.02,-9.3,4.0,-7.75,33.5,-0.88,0.5,-2.81,-0.15531294385372654,-0.01208686855632135,-0.06156826861769282,-148.56117141184754,-24.373645675055762,-4.779853967883568,0.1641,-0.9626,-0.2111,-0.0417
197,2234933.0,745.835171,1.0,1.34,-3.02,-9.3,4.0,-7.75,33.5,-0.88,0.5,-2.81,-0.15531294385372654,-0.01208686855632135,-0.06156826861769282,-148.56117141184754,-24.373645675055762,-4.779853967883568,0.1641,-0.9626,-0.2111,-0.0417
198,2234968.0,745.910967,1.0,1.37,-2.9,-9.28,4.0,-7.75,33.5,1.06,-1.81,2.5,-0.07252718419461579,0.07532207695958193,-0.011413270944796494,-148.56117141184754,-24.361922456785425,-4.75691579950709,0.1643,-0.9626,-0.21100000000000002,-0.0415
199,2234968.0,745.910967,1.0,1.37,-2.9,-9.28,4.0,-7.75,33.5,1.06,-1.81,2.5,-0.07252718419461579,0.07532207695958193,-0.011413270944796494,-148.56117141184754,-24.361922456785425,-4.75691579950709,0.1643,-0.9626,-0.21100000000000002,-0.0415
200,2235002.0,745.931322,1.0,1.35,-2.97,-9.27,4.75,-7.75,34.25,-2.06,1.12,-1.56,-0.111900111962769,0.019771480795063745,-0.020017158985792705,-148.60349534227024,-24.361922456785425,-4.71104003397371,0.1644,-0.9627,-0.21100000000000002,-0.0411
201,2235002.0,745.931322,1.0,1.35,-2.97,-9.27,4.75,-7.75,34.25,-2.06,1.12,-1.56,-0.111900111962769,0.019771480795063745,-0.020017158985792705,-148.60349534227024,-24.361922456785425,-4.71104003397371,0.1644,-0.9627,-0.21100000000000002,-0.0411
202,2235037.0,745.934709,1.0,1.5,-2.82,-9.24,4.0,-9.0,35.56,-1.19,-0.31,0.88,0.07946702458178978,0.07112280282111637,0.030729248535051205,-148.60349534227024,-24.373645675055762,-4.745446786894516,0.1639,-0.9627,-0.2111,-0.0414
203,2235037.0,745.934709,1.0,1.5,-2.82,-9.24,4.0,-9.0,35.56,-1.19,-0.31,0.88,0.07946702458178978,0.07112280282111637,0.030729248535051205,-148.60349534227024,-24.373645675055762,-4.745446786894516,0.1639,-0.9627,-0.2111,-0.0414
204,2235072.0,745.9776049999999,1.0,1.28,-3.1,-9.15,5.5,-8.56,34.25,-0.88,1.94,1.31,-0.2286113074256541,-0.11001819783309674,0.06465159791315145,-148.6458749656724,-24.31503217113493,-4.71104003397371,0.1641,-0.9628,-0.2106,-0.0411
205,2235072.0,745.9776049999999,1.0,1.28,-3.1,-9.15,5.5,-8.56,34.25,-0.88,1.94,1.31,-0.2286113074256541,-0.11001819783309674,0.06465159791315145,-148.6458749656724,-24.31503217113493,-4.71104003397371,0.1641,-0.9628,-0.2106,-0.0411
206,2235107.0,745.985342,1.0,1.58,-2.96,-9.49,5.5,-8.56,34.25,-2.38,1.44,0.06,0.08878788150269573,-0.00023246852733138643,-0.2586476437886134,-148.73080219796103,-24.279867169785643,-4.768384859798278,0.1637,-0.963,-0.2103,-0.0416
207,2235107.0,745.985342,1.0,1.58,-2.96,-9.49,5.5,-8.56,34.25,-2.38,1.44,0.06,0.08878788150269573,-0.00023246852733138643,-0.2586476437886134,-148.73080219796103,-24.279867169785643,-4.768384859798278,0.1637,-0.963,-0.2103,-0.0416
208,2235144.0,746.004204,1.0,1.37,-2.64,-9.28,4.75,-9.0,34.25,1.5,-2.56,2.0,0.05802220268623887,0.2924781142707027,0.06621931256794689,-148.7733502639536,-24.162667241251796,-4.6536963885673295,0.1642,-0.9631,-0.2093,-0.0406
209,2235144.0,746.004204,1.0,1.37,-2.64,-9.28,4.75,-9.0,34.25,1.5,-2.56,2.0,0.05802220268623887,0.2924781142707027,0.06621931256794689,-148.7733502639536,-24.162667241251796,-4.6536963885673295,0.1642,-0.9631,-0.2093,-0.0406
