,TIME,ELAPSED_SECONDS,PSTATE,acc_x,acc_y,acc_z,mag_x,mag_y,mag_z,gyr_x,gyr_y,gyr_z,lin_x,lin_y,lin_z,eul_x,eul_y,eul_z,qua_w,qua_x,qua_y,qua_z
0,1537830.0,47.417078000000004,1.0,1.55,-4.84,-8.7,11.56,6.56,33.25,4.25,0.19,3.44,-0.12738755735588494,-0.0861176572400022,-0.2677956998557711,-122.44600053491276,-48.23383857270471,3.3121572228147254,0.2529,-0.8765,-0.4086,0.0289
1,1537830.0,47.417078000000004,1.0,1.55,-4.84,-8.7,11.56,6.56,33.25,4.25,0.19,3.44,-0.12738755735588494,-0.0861176572400022,-0.2677956998557711,-122.44600053491276,-48.23383857270471,3.3121572228147254,0.2529,-0.8765,-0.4086,0.0289
2,1537867.0,47.419810999999996,1.0,1.44,-4.71,-8.52,9.69,5.88,32.88,-1.69,-1.94,-1.25,-0.1469567987919705,-0.015287897756721682,-0.03338404361341851,-122.44600053491276,-48.23383857270471,3.369477361207863,0.2529,-0.8765,-0.4086,0.0294
3,1537867.0,47.419810999999996,1.0,1.44,-4.71,-8.52,9.69,5.88,32.88,-1.69,-1.94,-1.25,-0.1469567987919705,-0.015287897756721682,-0.03338404361341851,-122.44600053491276,-48.23383857270471,3.369477361207863,0.2529,-0.8765,-0.4086,0.0294
4,1537900.0,47.443493,1.0,1.57,-4.53,-8.59,9.69,5.88,32.88,1.69,0.56,2.19,0.0898412657050042,0.012890112981576165,-0.030303918361305193,-122.46980875996977,-48.20872972254528,3.40386984812725,0.2529,-0.8766,-0.4084,0.0297
5,1537900.0,47.443493,1.0,1.57,-4.53,-8.59,9.69,5.88,32.88,1.69,0.56,2.19,0.0898412657050042,0.012890112981576165,-0.030303918361305193,-122.46980875996977,-48.20872972254528,3.40386984812725,0.2529,-0.8766,-0.4084,0.0297
6,1537935.0,47.492141,1.0,1.38,-4.59,-8.59,10.06,6.19,33.69,-1.0,-1.69,-0.75,-0.07411534236571203,0.1153434332844716,-0.029091090961278713,-122.46980875996977,-48.20872972254528,3.438262641755622,0.2528,-0.8766,-0.4084,0.03
7,1537935.0,47.492141,1.0,1.38,-4.59,-8.59,10.06,6.19,33.69,-1.0,-1.69,-0.75,-0.07411534236571203,0.1153434332844716,-0.029091090961278713,-122.46980875996977,-48.20872972254528,3.438262641755622,0.2528,-0.8766,-0.4084,0.03
8,1537970.0,47.510025,1.0,1.46,-4.67,-8.58,9.69,7.38,34.5,2.13,-0.63,1.88,-0.07049258290059751,0.012142204446504934,-0.07018063348902714,-122.46980875996977,-48.171071061668,3.4726557451993814,0.2531,-0.8766,-0.4081,0.0303
9,1537970.0,47.510025,1.0,1.46,-4.67,-8.58,9.69,7.38,34.5,2.13,-0.63,1.88,-0.07049258290059751,0.012142204446504934,-0.07018063348902714,-122.46980875996977,-48.171071061668,3.4726557451993814,0.2531,-0.8766,-0.4081,0.0303
10,1538004.0,47.562374,1.0,1.52,-4.65,-8.55,11.19,6.56,34.06,-0.75,0.12,-0.12,-0.025985706031187883,-0.03695851767396219,-0.0439011932608846,-122.46980875996977,-48.171071061668,3.4726557451993814,0.2529,-0.8766,-0.4081,0.0303
11,1538004.0,47.562374,1.0,1.52,-4.65,-8.55,11.19,6.56,34.06,-0.75,0.12,-0.12,-0.025985706031187883,-0.03695851767396219,-0.0439011932608846,-122.46980875996977,-48.171071061668,3.4726557451993814,0.2529,-0.8766,-0.4081,0.0303
12,1538039.0,47.597660999999995,1.0,1.3,-4.65,-8.5,11.19,6.56,34.06,-1.44,-1.56,-0.81,-0.18517750236114935,0.09637611343339224,0.033271825725828215,-122.46980875996977,-48.19617622057904,3.495584654482353,0.2526,-0.8766,-0.4083,0.0305
13,1538039.0,47.597660999999995,1.0,1.3,-4.65,-8.5,11.19,6.56,34.06,-1.44,-1.56,-0.81,-0.18517750236114935,0.09637611343339224,0.033271825725828215,-122.46980875996977,-48.19617622057904,3.495584654482353,0.2526,-0.8766,-0.4083,0.0305
14,1538076.0,47.623253999999996,1.0,1.21,-4.65,-8.35,10.06,6.19,34.06,-1.5,0.06,-0.75,-0.29132498122619943,0.08520151392825293,0.17768481897780042,-122.51745226375392,-48.221283839840105,3.495584654482353,0.2518,-0.8768,-0.4085,0.0305
15,1538076.0,47.623253999999996,1.0,1.21,-4.65,-8.35,10.06,6.19,34.06,-1.5,0.06,-0.75,-0.29132498122619943,0.08520151392825293,0.17768481897780042,-122.51745226375392,-48.221283839840105,3.495584654482353,0.2518,-0.8768,-0.4085,0.0305
16,1538111.0,47.703965999999994,1.0,1.46,-4.36,-8.48,10.06,6.56,33.69,0.31,2.75,-0.12,0.10401235801221624,0.12046180845597075,0.16163727931972893,-122.54128756505699,-48.19617622057904,3.4267983429423063,0.252,-0.8769,-0.4083,0.0299
17,1538111.0,47.703965999999994,1.0,1.46,-4.36,-8.48,10.06,6.56,33.69,0.31,2.75,-0.12,0.10401235801221624,0.12046180845597075,0.16163727931972893,-122.54128756505699,-48.19617622057904,3.4267983429423063,0.252,-0.8769,-0.4083,0.0299
18,1538144.0,47.709723,1.0,1.52,-4.71,-8.66,10.06,6.56,33.69,3.56,-0.25,0.0,-0.04570772853772481,-0.02066319720883314,-0.1676962861399094,-122.46980875996977,-48.19617622057904,3.438262641755622,0.2529,-0.8766,-0.4083,0.03
19,1538144.0,47.709723,1.0,1.52,-4.71,-8.66,10.06,6.56,33.69,3.56,-0.25,0.0,-0.04570772853772481,-0.02066319720883314,-0.1676962861399094,-122.46980875996977,-48.19617622057904,3.438262641755622,0.2529,-0.8766,-0.4083,0.03
20,1538181.0,47.760862,1.0,1.56,-4.52,-8.8,10.75,6.56,32.88,-3.31,1.0,-2.69,0.1353577659085706,0.10889085806870558,-0.20703169337518726,-122.44600053491276,-48.27150646713053,3.380941489627292,0.2525,-0.8765,-0.4089,0.0295
21,1538181.0,47.760862,1.0,1.56,-4.52,-8.8,10.75,6.56,32.88,-3.31,1.0,-2.69,0.1353577659085706,0.10889085806870558,-0.20703169337518726,-122.44600053491276,-48.27150646713053,3.380941489627292,0.2525,-0.8765,-0.4089,0.0295
22,1538215.0,47.767481,1.0,1.47,-4.67,-8.62,10.5,6.19,32.38,1.56,-0.19,2.13,-0.06743604266149282,0.02374524428355107,-0.1064266436825303,-122.44600053491276,-48.221283839840105,3.40386984812725,0.2529,-0.8765,-0.4085,0.0297
23,1538215.0,47.767481,1.0,1.47,-4.67,-8.62,10.5,6.19,32.38,1.56,-0.19,2.13,-0.06743604266149282,0.02374524428355107,-0.1064266436825303,-122.44600053491276,-48.221283839840105,3.40386984812725,0.2529,-0.8765,-0.4085,0.0297
24,1538250.0,47.783462,1.0,1.73,-4.7,-8.66,10.5,6.19,32.38,-1.63,0.25,-0.75,0.0906183794371092,-0.1640527694799272,-0.19551851478388824,-122.44600053491276,-48.23383857270471,3.380941489627292,0.2529,-0.8765,-0.4086,0.0295
25,1538250.0,47.783462,1.0,1.73,-4.7,-8.66,10.5,6.19,32.38,-1.63,0.25,-0.75,0.0906183794371092,-0.1640527694799272,-0.19551851478388824,-122.44600053491276,-48.23383857270471,3.380941489627292,0.2529,-0.8765,-0.4086,0.0295
26,1538283.0,47.82476,1.0,1.42,-4.38,-8.68,10.5,7.38,33.69,-3.25,-2.06,-1.31,0.10223417642279514,0.2269938427776519,-0.015835529055882702,-122.44600053491276,-48.296621479022534,3.369477361207863,0.2519,-0.8765,-0.4091,0.0294
27,1538283.0,47.82476,1.0,1.42,-4.38,-8.68,10.5,7.38,33.69,-3.25,-2.06,-1.31,0.10223417642279514,0.2269938427776519,-0.015835529055882702,-122.44600053491276,-48.296621479022534,3.369477361207863,0.2519,-0.8765,-0.4091,0.0294
28,1538320.0,47.882983,1.0,1.62,-4.62,-8.58,10.5,5.88,34.06,2.5,1.0,1.0,0.04912383424641312,-0.08342668601722103,-0.0713977239669763,-122.44600053491276,-48.27150646713053,3.3924056518954067,0.2524,-0.8765,-0.4089,0.0296
29,1538320.0,47.882983,1.0,1.62,-4.62,-8.58,10.5,5.88,34.06,2.5,1.0,1.0,0.04912383424641312,-0.08342668601722103,-0.0713977239669763,-122.44600053491276,-48.27150646713053,3.3924056518954067,0.2524,-0.8765,-0.4089,0.0296
30,1538355.0,47.897717,1.0,1.41,-4.69,-8.44,10.5,5.88,34.06,-1.63,-1.0,-2.25,-0.17874845853897053,-0.02624427486259284,0.05036175976197122,-122.3984110822012,-48.3342986251064,3.3924056518954067,0.2523,-0.8763,-0.4094,0.0296
31,1538355.0,47.897717,1.0,1.41,-4.69,-8.44,10.5,5.88,34.06,-1.63,-1.0,-2.25,-0.17874845853897053,-0.02624427486259284,0.05036175976197122,-122.3984110822012,-48.3342986251064,3.3924056518954067,0.2523,-0.8763,-0.4094,0.0296
32,1538390.0,47.944926,1.0,1.36,-4.73,-8.49,10.0,6.56,32.75,0.12,0.12,1.69,-0.22185033377948335,0.009712725800893551,-0.004226010446748418,-122.3984110822012,-48.30917991037589,3.4153340784378665,0.2524,-0.8763,-0.4092,0.0298
33,1538390.0,47.944926,1.0,1.36,-4.73,-8.49,10.0,6.56,32.75,0.12,0.12,1.69,-0.22185033377948335,0.009712725800893551,-0.004226010446748418,-122.3984110822012,-48.30917991037589,3.4153340784378665,0.2524,-0.8763,-0.4092,0.0298
34,1538424.0,47.999546,1.0,1.58,-4.69,-8.59,10.5,6.19,33.69,-1.44,1.25,0.37,-0.02784787954868489,-0.09025252269396188,-0.10655730025111687,-122.44600053491276,-48.28406366468798,3.380941489627292,0.2522,-0.8765,-0.409,0.0295
35,1538424.0,47.999546,1.0,1.58,-4.69,-8.59,10.5,6.19,33.69,-1.44,1.25,0.37,-0.02784787954868489,-0.09025252269396188,-0.10655730025111687,-122.44600053491276,-48.28406366468798,3.380941489627292,0.2522,-0.8765,-0.409,0.0295
36,1538459.0,48.005474,1.0,1.59,-4.36,-8.67,10.0,6.19,32.5,-2.31,0.63,-0.19,0.21410177046542045,0.10586327792463067,-0.024400472776070714,-122.46980875996977,-48.30917991037589,3.3121572228147254,0.2515,-0.8766,-0.4092,0.0289
37,1538459.0,48.005474,1.0,1.59,-4.36,-8.67,10.0,6.19,32.5,-2.31,0.63,-0.19,0.21410177046542045,0.10586327792463067,-0.024400472776070714,-122.46980875996977,-48.30917991037589,3.3121572228147254,0.2515,-0.8766,-0.4092,0.0289
38,1538494.0,48.06026,1.0,1.57,-4.5,-8.71,10.0,6.19,32.5,0.44,-0.06,1.5,0.11751606334599382,0.059064290391141576,-0.12117460483948506,-122.51745226375392,-48.27150646713053,3.335085177891311,0.2515,-0.8768,-0.4089,0.0291
39,1538494.0,48.06026,1.0,1.57,-4.5,-8.71,10.0,6.19,32.5,0.44,-0.06,1.5,0.11751606334599382,0.059064290391141576,-0.12117460483948506,-122.51745226375392,-48.27150646713053,3.335085177891311,0.2515,-0.8768,-0.4089,0.0291
40,1538529.0,48.077408,1.0,1.38,-4.42,-8.66,9.69,5.88,33.56,-3.69,-1.06,-2.38,0.020503105657449727,0.20504940258473026,-0.011391269273524074,-122.51745226375392,-48.34685890896744,3.3121572228147254,0.2505,-0.8768,-0.4095,0.0289
41,1538529.0,48.077408,1.0,1.38,-4.42,-8.66,9.69,5.88,33.56,-3.69,-1.06,-2.38,0.020503105657449727,0.20504940258473026,-0.011391269273524074,-122.51745226375392,-48.34685890896744,3.3121572228147254,0.2505,-0.8768,-0.4095,0.0289
42,1538566.0,48.118644,1.0,1.49,-4.45,-8.65,10.5,6.56,32.75,2.38,0.44,1.75,0.06895849442021126,0.10241406088172413,-0.03356626216522862,-122.51745226375392,-48.34685890896744,3.3121572228147254,0.2504,-0.8768,-0.4095,0.0289
43,1538566.0,48.118644,1.0,1.49,-4.45,-8.65,10.5,6.56,32.75,2.38,0.44,1.75,0.06895849442021126,0.10241406088172413,-0.03356626216522862,-122.51745226375392,-48.34685890896744,3.3121572228147254,0.2504,-0.8768,-0.4095,0.0289
44,1538598.0,48.124493,1.0,1.42,-4.68,-8.56,10.5,6.56,32.75,-0.75,1.06,-0.94,-0.1525266438583347,-0.001053671711025661,-0.05079056602367693,-122.49362599915794,-48.3342986251064,3.346549205454908,0.2509,-0.8767,-0.4094,0.0292
45,1538598.0,48.124493,1.0,1.42,-4.68,-8.56,10.5,6.56,32.75,-0.75,1.06,-0.94,-0.1525266438583347,-0.001053671711025661,-0.05079056602367693,-122.49362599915794,-48.3342986251064,3.346549205454908,0.2509,-0.8767,-0.4094,0.0292
46,1538633.0,48.182346,1.0,1.55,-4.59,-8.73,9.25,6.56,33.69,-0.37,0.88,-0.19,0.03182846905568451,0.027042167450885838,-0.17742510337022388,-122.49362599915794,-48.3342986251064,3.2892294003721183,0.2509,-0.8767,-0.4094,0.0287
47,1538633.0,48.182346,1.0,1.55,-4.59,-8.73,9.25,6.56,33.69,-0.37,0.88,-0.19,0.03182846905568451,0.027042167450885838,-0.17742510337022388,-122.49362599915794,-48.3342986251064,3.2892294003721183,0.2509,-0.8767,-0.4094,0.0287
48,1538668.0,48.198357,1.0,1.75,-4.56,-8.73,10.06,5.88,34.06,1.88,0.44,1.63,0.1903448076540453,-0.0967837990622744,-0.19452001907468208,-122.51745226375392,-48.296621479022534,3.2892294003721183,0.2513,-0.8768,-0.4091,0.0287
49,1538668.0,48.198357,1.0,1.75,-4.56,-8.73,10.06,5.88,34.06,1.88,0.44,1.63,0.1903448076540453,-0.0967837990622744,-0.19452001907468208,-122.51745226375392,-48.296621479022534,3.2892294003721183,0.2513,-0.8768,-0.4091,0.0287
50,1538703.0,48.413326,1.0,1.5,-4.45,-8.66,10.06,5.88,34.06,-0.56,-1.88,-0.75,0.08694541685197392,0.11039864631979457,-0.043647083508657765,-122.51745226375392,-48.30917991037589,3.32362118371626,0.2511,-0.8768,-0.4092,0.028999999999999998
51,1538703.0,48.413326,1.0,1.5,-4.45,-8.66,10.06,5.88,34.06,-0.56,-1.88,-0.75,0.08694541685197392,0.11039864631979457,-0.043647083508657765,-122.51745226375392,-48.30917991037589,3.32362118371626,0.2511,-0.8768,-0.4092,0.028999999999999998
52,1538736.0,48.431436,1.0,1.49,-4.62,-8.68,10.5,5.88,34.88,2.81,-0.56,1.37,-0.020479370659335302,0.03283479997556027,-0.1384695302664909,-122.51745226375392,-48.27150646713053,3.3924056518954067,0.2513,-0.8768,-0.4089,0.0296
53,1538736.0,48.431436,1.0,1.49,-4.62,-8.68,10.5,5.88,34.88,2.81,-0.56,1.37,-0.020479370659335302,0.03283479997556027,-0.1384695302664909,-122.51745226375392,-48.27150646713053,3.3924056518954067,0.2513,-0.8768,-0.4089,0.0296
54,1538770.0,48.436578999999995,1.0,1.25,-4.67,-8.39,9.69,6.19,34.06,-3.31,-2.25,-3.69,-0.2920620377687161,0.054088337588551916,0.12805122652915735,-122.46980875996977,-48.34685890896744,3.4153340784378665,0.2509,-0.8766,-0.4095,0.0298
55,1538770.0,48.436578999999995,1.0,1.25,-4.67,-8.39,9.69,6.19,34.06,-3.31,-2.25,-3.69,-0.2920620377687161,0.054088337588551916,0.12805122652915735,-122.46980875996977,-48.34685890896744,3.4153340784378665,0.2509,-0.8766,-0.4095,0.0298
56,1538807.0,48.477837,1.0,1.43,-4.63,-8.48,10.06,6.19,34.5,0.56,1.25,1.44,-0.12602093970035533,-0.021311279430452856,0.04059324447548107,-122.49362599915794,-48.3342986251064,3.3924056518954067,0.2507,-0.8767,-0.4094,0.0296
57,1538807.0,48.477837,1.0,1.43,-4.63,-8.48,10.06,6.19,34.5,0.56,1.25,1.44,-0.12602093970035533,-0.021311279430452856,0.04059324447548107,-122.49362599915794,-48.3342986251064,3.3924056518954067,0.2507,-0.8767,-0.4094,0.0296
58,1538840.0,48.496483000000005,1.0,1.45,-4.64,-8.48,10.06,6.19,34.5,-1.94,-1.06,-1.0,-0.11553870325113215,-0.03938136270758763,0.03282782460094147,-122.51745226375392,-48.30917991037589,3.40386984812725,0.2509,-0.8768,-0.4092,0.0297
59,1538840.0,48.496483000000005,1.0,1.45,-4.64,-8.48,10.06,6.19,34.5,-1.94,-1.06,-1.0,-0.11553870325113215,-0.03938136270758763,0.03282782460094147,-122.51745226375392,-48.30917991037589,3.40386984812725,0.2509,-0.8768,-0.4092,0.0297
60,1538877.0,48.499419,1.0,1.43,-4.51,-8.3,10.5,6.19,33.69,-4.44,0.37,-3.38,-0.11331865335943422,-0.04950355964690578,0.25365527162381873,-122.49362599915794,-48.44736344772761,3.32362118371626,0.2493,-0.8767,-0.4103,0.028999999999999998
61,1538877.0,48.499419,1.0,1.43,-4.51,-8.3,10.5,6.19,33.69,-4.44,0.37,-3.38,-0.11331865335943422,-0.04950355964690578,0.25365527162381873,-122.49362599915794,-48.44736344772761,3.32362118371626,0.2493,-0.8767,-0.4103,0.028999999999999998
62,1538912.0,48.536570000000005,1.0,1.19,-4.78,-7.83,9.69,6.56,32.88,-8.0,-0.5,-6.44,-0.6122879794539672,-0.22535454138560995,0.5790978456693026,-122.46980875996977,-48.58562199629408,3.2204467196467967,0.248,-0.8766,-0.4114,0.0281
63,1538912.0,48.536570000000005,1.0,1.19,-4.78,-7.83,9.69,6.56,32.88,-8.0,-0.5,-6.44,-0.6122879794539672,-0.22535454138560995,0.5790978456693026,-122.46980875996977,-48.58562199629408,3.2204467196467967,0.248,-0.8766,-0.4114,0.0281
64,1538945.0,48.543022,1.0,1.2,-4.95,-7.6,9.69,6.56,32.88,-12.56,3.56,-7.56,-0.8678764969399202,-0.441482930474054,0.7097063809508324,-122.44600053491276,-48.862365423932296,2.865087475133015,0.2449,-0.8765,-0.4136,0.025
65,1538945.0,48.543022,1.0,1.2,-4.95,-7.6,9.69,6.56,32.88,-12.56,3.56,-7.56,-0.8678764969399202,-0.441482930474054,0.7097063809508324,-122.44600053491276,-48.862365423932296,2.865087475133015,0.2449,-0.8765,-0.4136,0.025
66,1538981.0,48.558683,1.0,1.42,-5.23,-6.65,9.69,5.88,34.5,-27.81,5.81,-16.5,-1.264205931248379,-1.166411411423574,1.4023018526005036,-122.44600053491276,-49.202420774371426,2.360753104216733,0.2409,-0.8765,-0.4163,0.0206
67,1538981.0,48.558683,1.0,1.42,-5.23,-6.65,9.69,5.88,34.5,-27.81,5.81,-16.5,-1.264205931248379,-1.166411411423574,1.4023018526005036,-122.44600053491276,-49.202420774371426,2.360753104216733,0.2409,-0.8765,-0.4163,0.0206
68,1539018.0,48.596629,1.0,1.16,-5.15,-5.14,10.06,5.88,34.5,-63.88,7.63,-46.75,-2.0031707098501292,-1.6053362858340257,2.9002831898325043,-122.20841159701892,-50.42795316020507,1.0313379546174166,0.2278,-0.8755,-0.426,0.009000000000000001
69,1539018.0,48.596629,1.0,1.16,-5.15,-5.14,10.06,5.88,34.5,-63.88,7.63,-46.75,-2.0031707098501292,-1.6053362858340257,2.9002831898325043,-122.20841159701892,-50.42795316020507,1.0313379546174166,0.2278,-0.8755,-0.426,0.009000000000000001
70,1539053.0,48.608854,1.0,-0.11,-4.6,-3.68,10.06,5.88,34.5,-83.06,22.0,-52.94,-2.9518867277387386,-0.9611658351338024,4.7989534253290245,-121.87727845049913,-51.82525084646464,-0.7104722177704716,0.2121,-0.8741,-0.43700000000000006,-0.0062
71,1539053.0,48.608854,1.0,-0.11,-4.6,-3.68,10.06,5.88,34.5,-83.06,22.0,-52.94,-2.9518867277387386,-0.9611658351338024,4.7989534253290245,-121.87727845049913,-51.82525084646464,-0.7104722177704716,0.2121,-0.8741,-0.43700000000000006,-0.0062
72,1539086.0,48.694111,1.0,-0.06,-4.75,-3.66,10.06,4.0,33.25,-86.12,59.88,-37.38,-3.3881371883502287,-1.1082403913164216,4.984406784651665,-121.68883049333887,-52.92346596535568,-4.000057708800217,0.1938,-0.8733,-0.4456,-0.0349
73,1539086.0,48.694111,1.0,-0.06,-4.75,-3.66,10.06,4.0,33.25,-86.12,59.88,-37.38,-3.3881371883502287,-1.1082403913164216,4.984406784651665,-121.68883049333887,-52.92346596535568,-4.000057708800217,0.1938,-0.8733,-0.4456,-0.0349
74,1539121.0,48.743337,1.0,1.63,-4.24,-3.24,9.19,1.0,34.06,-116.62,83.0,-48.56,-2.326773715894675,-2.2892874866012254,5.281455321457123,-121.45404882910117,-53.56437169079451,-7.522608280519941,0.1787,-0.8723,-0.4506,-0.0656
75,1539121.0,48.743337,1.0,1.63,-4.24,-3.24,9.19,1.0,34.06,-116.62,83.0,-48.56,-2.326773715894675,-2.2892874866012254,5.281455321457123,-121.45404882910117,-53.56437169079451,-7.522608280519941,0.1787,-0.8723,-0.4506,-0.0656
76,1539160.0,48.807608,1.0,3.36,-2.81,-3.66,7.0,-2.25,34.5,-153.13,106.56,-49.0,-0.7160686753276209,-2.701683094700537,4.829757987104414,-120.73161403507063,-54.219965017577714,-13.714952301602876,0.1504,-0.8692,-0.4557,-0.1194
77,1539160.0,48.807608,1.0,3.36,-2.81,-3.66,7.0,-2.25,34.5,-153.13,106.56,-49.0,-0.7160686753276209,-2.701683094700537,4.829757987104414,-120.73161403507063,-54.219965017577714,-13.714952301602876,0.1504,-0.8692,-0.4557,-0.1194
78,1539192.0,48.814336,1.0,3.85,-1.73,-3.46,7.0,-2.25,34.5,-170.81,105.87,-43.88,-0.1285758403495063,-2.582662000290308,5.000370228124994,-119.67412364784863,-54.14273717736637,-20.588095276846204,0.1157,-0.8646,-0.4551,-0.1787
79,1539192.0,48.814336,1.0,3.85,-1.73,-3.46,7.0,-2.25,34.5,-170.81,105.87,-43.88,-0.1285758403495063,-2.582662000290308,5.000370228124994,-119.67412364784863,-54.14273717736637,-20.588095276846204,0.1157,-0.8646,-0.4551,-0.1787
80,1539229.0,48.832408,1.0,6.76,-0.69,-4.08,4.0,-8.0,35.38,-164.44,130.5,-4.88,1.573776863845757,-3.8414170980097273,3.054847199122122,-118.79053985855312,-53.10273871771935,-26.017517180397213,0.0935,-0.8607,-0.447,-0.2251
81,1539229.0,48.832408,1.0,6.76,-0.69,-4.08,4.0,-8.0,35.38,-164.44,130.5,-4.88,1.573776863845757,-3.8414170980097273,3.054847199122122,-118.79053985855312,-53.10273871771935,-26.017517180397213,0.0935,-0.8607,-0.447,-0.2251
82,1539266.0,48.870039,1.0,7.24,0.17,-3.9,0.5,-14.0,34.69,-185.19,116.81,1.37,1.8159964566067084,-3.5949162947838813,2.6348138541382418,-117.51946956763666,-50.70676349859697,-33.285102998046874,0.0595,-0.855,-0.4282,-0.2864
83,1539266.0,48.870039,1.0,7.24,0.17,-3.9,0.5,-14.0,34.69,-185.19,116.81,1.37,1.8159964566067084,-3.5949162947838813,2.6348138541382418,-117.51946956763666,-50.70676349859697,-33.285102998046874,0.0595,-0.855,-0.4282,-0.2864
84,1539301.0,48.888709999999996,1.0,9.06,3.97,-3.84,0.5,-14.0,34.69,-253.75,97.0,-43.0,4.638493816404321,-2.491308644586952,0.5942748256714339,-115.6229775841169,-49.03863296676083,-38.987009992065246,0.0166,-0.8463,-0.415,-0.3337
85,1539301.0,48.888709999999996,1.0,9.06,3.97,-3.84,0.5,-14.0,34.69,-253.75,97.0,-43.0,4.638493816404321,-2.491308644586952,0.5942748256714339,-115.6229775841169,-49.03863296676083,-38.987009992065246,0.0166,-0.8463,-0.415,-0.3337
86,1539336.0,48.89274,1.0,8.92,5.6,-3.55,-2.38,-22.5,33.56,-255.19,73.75,-35.5,4.4278711904602615,-1.5575214709399057,-0.2679211366912906,-112.21802358107666,-46.494530291688996,-46.008573794141824,-0.0494,-0.8301,-0.3947,-0.3908
87,1539336.0,48.89274,1.0,8.92,5.6,-3.55,-2.38,-22.5,33.56,-255.19,73.75,-35.5,4.4278711904602615,-1.5575214709399057,-0.2679211366912906,-112.21802358107666,-46.494530291688996,-46.008573794141824,-0.0494,-0.8301,-0.3947,-0.3908
88,1539371.0,48.926175,1.0,5.4,4.25,-0.69,-1.0,-31.69,26.75,-244.56,39.13,-0.31,3.693327668243848,-0.6364833624566808,4.005544961793892,-110.34997788662331,-43.628654629122934,-50.0103350226896,-0.0974,-0.8209,-0.3716,-0.4227
89,1539371.0,48.926175,1.0,5.4,4.25,-0.69,-1.0,-31.69,26.75,-244.56,39.13,-0.31,3.693327668243848,-0.6364833624566808,4.005544961793892,-110.34997788662331,-43.628654629122934,-50.0103350226896,-0.0974,-0.8209,-0.3716,-0.4227
90,1539409.0,48.949135999999996,1.0,8.44,7.41,-0.36,3.06,-41.06,19.37,-276.63,97.75,-4.06,5.2718577590636615,-0.4186694240203792,-0.10816374921338577,-105.89809368556764,-39.15723801119543,-56.60153456365382,-0.1609,-0.7981,-0.3351,-0.4741
91,1539409.0,48.949135999999996,1.0,8.44,7.41,-0.36,3.06,-41.06,19.37,-276.63,97.75,-4.06,5.2718577590636615,-0.4186694240203792,-0.10816374921338577,-105.89809368556764,-39.15723801119543,-56.60153456365382,-0.1609,-0.7981,-0.3351,-0.4741
92,1539442.0,48.987204999999996,1.0,8.54,11.13,0.27,3.06,-41.06,19.37,-340.81,39.56,-72.12,4.849724342062385,1.6648439250591354,-3.2543556470090085,-99.14020348928251,-34.747070547477996,-62.43657558225824,-0.2507,-0.7612,-0.2986,-0.5183
93,1539442.0,48.987204999999996,1.0,8.54,11.13,0.27,3.06,-41.06,19.37,-340.81,39.56,-72.12,4.849724342062385,1.6648439250591354,-3.2543556470090085,-99.14020348928251,-34.747070547477996,-62.43657558225824,-0.2507,-0.7612,-0.2986,-0.5183
94,1539481.0,49.045041,1.0,2.92,8.54,5.49,10.56,-42.25,5.69,-350.06,-39.81,-121.75,6.506830584404918,4.239663038989892,2.6453293772603814,-94.04139186402159,-31.816774454596118,-63.44422897307763,-0.3364,-0.7316,-0.2741,-0.5258
95,1539481.0,49.045041,1.0,2.92,8.54,5.49,10.56,-42.25,5.69,-350.06,-39.81,-121.75,6.506830584404918,4.239663038989892,2.6453293772603814,-94.04139186402159,-31.816774454596118,-63.44422897307763,-0.3364,-0.7316,-0.2741,-0.5258
96,1539516.0,49.171822,1.0,1.71,13.58,7.78,14.88,-33.38,-3.56,-294.0,53.88,39.38,5.738955495188923,8.755589954865563,-1.9523012443286465,-86.51841003393099,-25.735333308776628,-67.58681526824894,-0.414,-0.6853,-0.2227,-0.5562
97,1539516.0,49.171822,1.0,1.71,13.58,7.78,14.88,-33.38,-3.56,-294.0,53.88,39.38,5.738955495188923,8.755589954865563,-1.9523012443286465,-86.51841003393099,-25.735333308776628,-67.58681526824894,-0.414,-0.6853,-0.2227,-0.5562
98,1539551.0,49.262388,1.0,5.09,15.45,6.65,14.88,-33.38,-3.56,-285.5,103.5,-21.56,2.987769216201668,6.4178080856092,-6.278065555054335,-80.01681335104666,-22.150726459273766,-72.10127150439342,-0.451,-0.6429,-0.1921,-0.5885
99,1539551.0,49.262388,1.0,5.09,15.45,6.65,14.88,-33.38,-3.56,-285.5,103.5,-21.56,2.987769216201668,6.4178080856092,-6.278065555054335,-80.01681335104666,-22.150726459273766,-72.10127150439342,-0.451,-0.6429,-0.1921,-0.5885
100,1539586.0,49.27022,1.0,5.74,14.71,5.97,8.56,-29.25,-9.19,-297.06,55.06,-129.31,-0.1512363577054583,3.310415593120497,-6.746019759435559,-70.04526973118621,-19.05256341690962,-73.9261202682898,-0.5308,-0.5739,-0.1655,-0.6013
101,1539586.0,49.27022,1.0,5.74,14.71,5.97,8.56,-29.25,-9.19,-297.06,55.06,-129.31,-0.1512363577054583,3.310415593120497,-6.746019759435559,-70.04526973118621,-19.05256341690962,-73.9261202682898,-0.5308,-0.5739,-0.1655,-0.6013
102,1539622.0,49.275213,1.0,5.09,12.49,6.79,5.06,-28.87,-14.25,-266.75,38.5,-109.5,-0.22069604772873008,1.9692676623173515,-5.162838238703018,-63.17498984222817,-16.929394296591493,-73.78277317194505,-0.5861,-0.5238,-0.1472,-0.6003
103,1539622.0,49.275213,1.0,5.09,12.49,6.79,5.06,-28.87,-14.25,-266.75,38.5,-109.5,-0.22069604772873008,1.9692676623173515,-5.162838238703018,-63.17498984222817,-16.929394296591493,-73.78277317194505,-0.5861,-0.5238,-0.1472,-0.6003
104,1539659.0,49.278025,1.0,3.93,12.93,6.9,6.5,-26.37,-21.5,-204.31,-8.38,-39.75,-2.600704034805158,1.8901223258542883,-5.022496169508724,-56.26341781734521,-12.930431986971733,-73.56800446686195,-0.6376,-0.4715,-0.1126,-0.5988
105,1539659.0,49.278025,1.0,3.93,12.93,6.9,6.5,-26.37,-21.5,-204.31,-8.38,-39.75,-2.600704034805158,1.8901223258542883,-5.022496169508724,-56.26341781734521,-12.930431986971733,-73.56800446686195,-0.6376,-0.4715,-0.1126,-0.5988
106,1539694.0,49.280695,1.0,2.35,12.87,7.18,6.5,-26.37,-21.5,-155.25,8.0,-18.62,-4.209764642589739,2.6240321903354795,-4.268297130205655,-51.41792113681584,-9.556550648732504,-73.72547201814446,-0.6671,-0.4338,-0.0833,-0.5999
107,1539694.0,49.280695,1.0,2.35,12.87,7.18,6.5,-26.37,-21.5,-155.25,8.0,-18.62,-4.209764642589739,2.6240321903354795,-4.268297130205655,-51.41792113681584,-9.556550648732504,-73.72547201814446,-0.6671,-0.4338,-0.0833,-0.5999
108,1539731.0,49.283215999999996,1.0,2.12,10.87,5.65,8.5,-22.75,-25.75,-107.94,14.31,14.0,-4.418476647852988,1.5978613469890108,-1.7041146673961782,-48.67364391258275,-7.786758050274272,-74.3425928628069,-0.6786,-0.4121,-0.0679,-0.6042
109,1539731.0,49.283215999999996,1.0,2.12,10.87,5.65,8.5,-22.75,-25.75,-107.94,14.31,14.0,-4.418476647852988,1.5978613469890108,-1.7041146673961782,-48.67364391258275,-7.786758050274272,-74.3425928628069,-0.6786,-0.4121,-0.0679,-0.6042
110,1539768.0,49.32447,1.0,1.49,14.43,6.59,9.88,-19.37,-27.87,-108.69,25.69,54.25,-7.852903268827754,2.6765898040475173,-3.796323104115997,-45.039267624135924,-5.181303758795194,-76.70531264449292,-0.6829,-0.38299999999999995,-0.0452,-0.6205
111,1539768.0,49.32447,1.0,1.49,14.43,6.59,9.88,-19.37,-27.87,-108.69,25.69,54.25,-7.852903268827754,2.6765898040475173,-3.796323104115997,-45.039267624135924,-5.181303758795194,-76.70531264449292,-0.6829,-0.38299999999999995,-0.0452,-0.6205
112,1539803.0,49.385911,1.0,3.22,16.12,7.31,9.88,-19.37,-27.87,-16.75,50.31,16.62,-8.876986786557037,1.55066169448659,-5.764266925491053,-43.25860308220909,-4.974836229757033,-78.48441476201302,-0.6798,-0.3686,-0.0434,-0.6326
113,1539803.0,49.385911,1.0,3.22,16.12,7.31,9.88,-19.37,-27.87,-16.75,50.31,16.62,-8.876986786557037,1.55066169448659,-5.764266925491053,-43.25860308220909,-4.974836229757033,-78.48441476201302,-0.6798,-0.3686,-0.0434,-0.6326
114,1539835.0,49.392331,1.0,4.78,7.98,6.87,11.19,-18.06,-28.69,101.75,53.44,-3.25,-1.5829447579711156,-0.7830898420608525,-1.6216812951836008,-44.0239043163285,-8.246248510013665,-79.09236926487023,-0.6701,-0.3748,-0.0719,-0.6367
115,1539835.0,49.392331,1.0,4.78,7.98,6.87,11.19,-18.06,-28.69,101.75,53.44,-3.25,-1.5829447579711156,-0.7830898420608525,-1.6216812951836008,-44.0239043163285,-8.246248510013665,-79.09236926487023,-0.6701,-0.3748,-0.0719,-0.6367
116,1539872.0,49.409053,1.0,4.28,3.53,7.01,10.88,-16.37,-29.75,74.94,26.87,3.13,2.2657997048863665,-0.772655464703174,1.193372155288314,-45.200580565791434,-10.442277914805905,-79.47928409235018,-0.6598,-0.3843,-0.091,-0.6393
117,1539872.0,49.409053,1.0,4.28,3.53,7.01,10.88,-16.37,-29.75,74.94,26.87,3.13,2.2657997048863665,-0.772655464703174,1.193372155288314,-45.200580565791434,-10.442277914805905,-79.47928409235018,-0.6598,-0.3843,-0.091,-0.6393
118,1539909.0,49.452652,1.0,3.15,2.84,7.47,10.88,-19.0,-28.19,23.94,15.31,4.5,3.093976775090705,0.28002944675861685,1.798036435584036,-45.92144367093,-11.89302513102135,-79.68807312130106,-0.6531,-0.3901,-0.1036,-0.6407
119,1539909.0,49.452652,1.0,3.15,2.84,7.47,10.88,-19.0,-28.19,23.94,15.31,4.5,3.093976775090705,0.28002944675861685,1.798036435584036,-45.92144367093,-11.89302513102135,-79.68807312130106,-0.6531,-0.3901,-0.1036,-0.6407
120,1539942.0,49.630443,1.0,3.3,4.11,7.39,10.88,-19.0,-28.19,9.69,27.62,17.0,2.1228421707310234,0.20574672423989693,0.9836454435220556,-45.7223943424676,-12.411600904099073,-80.2863724526912,-0.6494,-0.3885,-0.1081,-0.6447
121,1539942.0,49.630443,1.0,3.3,4.11,7.39,10.88,-19.0,-28.19,9.69,27.62,17.0,2.1228421707310234,0.20574672423989693,0.9836454435220556,-45.7223943424676,-12.411600904099073,-80.2863724526912,-0.6494,-0.3885,-0.1081,-0.6447
122,1539981.0,49.691275,1.0,4.16,4.41,7.01,11.19,-19.25,-25.69,18.94,21.31,31.44,1.7847410828903558,-0.7229893046940203,0.741012364822792,-45.709958605695505,-13.126503557539667,-81.65744421958767,-0.6393,-0.3884,-0.1143,-0.6538
123,1539981.0,49.691275,1.0,4.16,4.41,7.01,11.19,-19.25,-25.69,18.94,21.31,31.44,1.7847410828903558,-0.7229893046940203,0.741012364822792,-45.709958605695505,-13.126503557539667,-81.65744421958767,-0.6393,-0.3884,-0.1143,-0.6538
124,1540016.0,49.732673999999996,1.0,3.27,4.74,7.69,10.06,-20.06,-24.5,6.13,15.19,34.0,1.8484372613668096,0.40651853922967307,0.3878059961928795,-45.635356121986106,-13.264930228136947,-83.01223334311237,-0.6301,-0.3878,-0.1155,-0.6627
125,1540016.0,49.732673999999996,1.0,3.27,4.74,7.69,10.06,-20.06,-24.5,6.13,15.19,34.0,1.8484372613668096,0.40651853922967307,0.3878059961928795,-45.635356121986106,-13.264930228136947,-83.01223334311237,-0.6301,-0.3878,-0.1155,-0.6627
126,1540050.0,49.738465000000005,1.0,6.62,6.56,5.69,10.06,-20.06,-24.5,-4.81,38.0,-5.75,-0.6086097272374829,-3.1084348200770946,-0.6432938835452244,-45.02686284001362,-13.78420515869276,-83.90279877211277,-0.6262,-0.3829,-0.12,-0.6685
127,1540050.0,49.738465000000005,1.0,6.62,6.56,5.69,10.06,-20.06,-24.5,-4.81,38.0,-5.75,-0.6086097272374829,-3.1084348200770946,-0.6432938835452244,-45.02686284001362,-13.78420515869276,-83.90279877211277,-0.6262,-0.3829,-0.12,-0.6685
128,1540083.0,49.790704999999996,1.0,5.51,6.01,6.07,10.06,-20.06,-24.87,-16.37,-16.0,-28.87,-0.034843297276696106,-2.168293987443528,-0.1242304810374808,-44.5682752426895,-13.691869135619404,-83.0887640805251,-0.6342,-0.3792,-0.1192,-0.6632
129,1540083.0,49.790704999999996,1.0,5.51,6.01,6.07,10.06,-20.06,-24.87,-16.37,-16.0,-28.87,-0.034843297276696106,-2.168293987443528,-0.1242304810374808,-44.5682752426895,-13.691869135619404,-83.0887640805251,-0.6342,-0.3792,-0.1192,-0.6632
130,1540120.0,49.806396,1.0,2.09,6.53,7.56,10.56,-18.87,-24.5,-1.37,-15.44,13.63,0.21979088264002225,1.69260860680969,-0.2556244979483715,-44.952445815509726,-13.195714475135588,-83.10407566239712,-0.633,-0.3823,-0.1149,-0.6633
131,1540120.0,49.806396,1.0,2.09,6.53,7.56,10.56,-18.87,-24.5,-1.37,-15.44,13.63,0.21979088264002225,1.69260860680969,-0.2556244979483715,-44.952445815509726,-13.195714475135588,-83.10407566239712,-0.633,-0.3823,-0.1149,-0.6633
132,1540157.0,49.808883,1.0,1.78,5.75,7.42,10.19,-20.75,-23.69,11.19,2.81,14.56,0.7154732999864818,1.862409355143977,0.4628376436393129,-45.26264916304815,-13.138038375794716,-83.45674446527082,-0.6292,-0.3848,-0.1144,-0.6656
133,1540157.0,49.808883,1.0,1.78,5.75,7.42,10.19,-20.75,-23.69,11.19,2.81,14.56,0.7154732999864818,1.862409355143977,0.4628376436393129,-45.26264916304815,-13.138038375794716,-83.45674446527082,-0.6292,-0.3848,-0.1144,-0.6656
134,1540192.0,49.811429,1.0,3.06,6.06,6.53,10.19,-20.75,-23.69,-4.69,8.63,3.25,-0.0013831382582666365,0.42823649126077296,0.3968300445236306,-45.10129990098643,-13.264930228136947,-83.81038394201012,-0.6273,-0.3835,-0.1155,-0.6679
135,1540192.0,49.811429,1.0,3.06,6.06,6.53,10.19,-20.75,-23.69,-4.69,8.63,3.25,-0.0013831382582666365,0.42823649126077296,0.3968300445236306,-45.10129990098643,-13.264930228136947,-83.81038394201012,-0.6273,-0.3835,-0.1155,-0.6679
136,1540227.0,49.852868,1.0,3.78,6.18,6.85,11.0,-20.37,-24.5,4.94,6.5,1.44,0.16337991123813822,-0.1497451715333753,-0.16100686549282806,-44.878048779944685,-13.426452603767608,-83.96444589128727,-0.6271,-0.3817,-0.1169,-0.6689
137,1540227.0,49.852868,1.0,3.78,6.18,6.85,11.0,-20.37,-24.5,4.94,6.5,1.44,0.16337991123813822,-0.1497451715333753,-0.16100686549282806,-44.878048779944685,-13.426452603767608,-83.96444589128727,-0.6271,-0.3817,-0.1169,-0.6689
138,1540263.0,49.870405,1.0,3.68,5.26,7.08,9.75,-20.37,-24.5,10.63,4.38,9.06,1.0270084130157808,-0.1560009453089637,0.3062648801926162,-44.989651826175965,-13.657245433015795,-84.14956663775601,-0.6249,-0.3826,-0.1189,-0.6701
139,1540263.0,49.870405,1.0,3.68,5.26,7.08,9.75,-20.37,-24.5,10.63,4.38,9.06,1.0270084130157808,-0.1560009453089637,0.3062648801926162,-44.989651826175965,-13.657245433015795,-84.14956663775601,-0.6249,-0.3826,-0.1189,-0.6701
140,1540296.0,49.873838,1.0,3.13,5.58,7.18,9.75,-20.37,-24.5,2.44,4.31,8.63,0.8187068618412774,0.4621215776374612,0.2357637964211552,-45.02686284001362,-13.738036026791262,-84.50513857353,-0.6221,-0.3829,-0.1196,-0.6724
141,1540296.0,49.873838,1.0,3.13,5.58,7.18,9.75,-20.37,-24.5,2.44,4.31,8.63,0.8187068618412774,0.4621215776374612,0.2357637964211552,-45.02686284001362,-13.738036026791262,-84.50513857353,-0.6221,-0.3829,-0.1196,-0.6724
142,1540331.0,49.914279,1.0,3.46,6.21,6.88,10.69,-19.69,-24.06,1.69,4.19,4.19,0.16219482268825405,0.18219730304840231,-0.08327401296668491,-44.940044922743645,-13.78420515869276,-84.69105261560557,-0.621,-0.3822,-0.12,-0.6736
143,1540331.0,49.914279,1.0,3.46,6.21,6.88,10.69,-19.69,-24.06,1.69,4.19,4.19,0.16219482268825405,0.18219730304840231,-0.08327401296668491,-44.940044922743645,-13.78420515869276,-84.69105261560557,-0.621,-0.3822,-0.12,-0.6736
144,1540368.0,49.922841,1.0,3.31,6.22,6.93,10.69,-19.69,-25.25,-0.06,-2.88,-3.13,0.18191295932758167,0.3396913783138489,-0.06861796814789756,-44.96484726352389,-13.78420515869276,-84.66004786964993,-0.6212,-0.3824,-0.12,-0.6734
145,1540368.0,49.922841,1.0,3.31,6.22,6.93,10.69,-19.69,-25.25,-0.06,-2.88,-3.13,0.18191295932758167,0.3396913783138489,-0.06861796814789756,-44.96484726352389,-13.78420515869276,-84.66004786964993,-0.6212,-0.3824,-0.12,-0.6734
146,1540403.0,49.942787,1.0,3.27,5.74,6.99,10.69,-19.69,-25.25,3.19,-0.56,1.56,0.5885982757619285,0.30736495784590323,0.21187648248232627,-45.051672965046905,-13.79574779269871,-84.62905076314031,-0.6211,-0.3831,-0.1201,-0.6732
147,1540403.0,49.942787,1.0,3.27,5.74,6.99,10.69,-19.69,-25.25,3.19,-0.56,1.56,0.5885982757619285,0.30736495784590323,0.21187648248232627,-45.051672965046905,-13.79574779269871,-84.62905076314031,-0.6211,-0.3831,-0.1201,-0.6732
148,1540438.0,49.991738,1.0,3.38,5.65,6.93,10.69,-21.19,-24.5,2.56,0.75,1.19,0.6406330943763391,0.17695682387330702,0.2709237287150259,-45.1509357631892,-13.865006554805131,-84.67554928720209,-0.6201,-0.3839,-0.1207,-0.6735
149,1540438.0,49.991738,1.0,3.38,5.65,6.93,10.69,-21.19,-24.5,2.56,0.75,1.19,0.6406330943763391,0.17695682387330702,0.2709237287150259,-45.1509357631892,-13.865006554805131,-84.67554928720209,-0.6201,-0.3839,-0.1207,-0.6735
150,1540472.0,50.054998,1.0,3.45,5.85,6.91,10.25,-20.06,-24.87,2.25,-0.56,2.5,0.4736666083862827,0.14448987778541422,0.13050083727429396,-45.08889233071614,-13.865006554805131,-84.7685979550931,-0.6196,-0.3834,-0.1207,-0.6741
151,1540472.0,50.054998,1.0,3.45,5.85,6.91,10.25,-20.06,-24.87,2.25,-0.56,2.5,0.4736666083862827,0.14448987778541422,0.13050083727429396,-45.08889233071614,-13.865006554805131,-84.7685979550931,-0.6196,-0.3834,-0.1207,-0.6741
152,1540509.0,50.119712,1.0,3.14,5.93,7.08,10.25,-20.75,-24.5,-3.63,-2.38,-1.56,0.4711937786236541,0.4974618684547902,0.07621279952335236,-44.927644585005865,-13.714952301602876,-84.79962950157953,-0.6205,-0.3821,-0.1194,-0.6743
153,1540509.0,50.119712,1.0,3.14,5.93,7.08,10.25,-20.75,-24.5,-3.63,-2.38,-1.56,0.4711937786236541,0.4974618684547902,0.07621279952335236,-44.927644585005865,-13.714952301602876,-84.79962950157953,-0.6205,-0.3821,-0.1194,-0.6743
154,1540542.0,50.126563,1.0,3.54,5.78,6.9,10.25,-20.75,-24.5,-0.37,1.88,0.56,0.4739419489654526,0.030115389419565375,0.14619079288510406,-44.82846183777319,-13.691869135619404,-84.81514815252169,-0.6209,-0.3813,-0.1192,-0.6744
155,1540542.0,50.126563,1.0,3.54,5.78,6.9,10.25,-20.75,-24.5,-0.37,1.88,0.56,0.4739419489654526,0.030115389419565375,0.14619079288510406,-44.82846183777319,-13.691869135619404,-84.81514815252169,-0.6209,-0.3813,-0.1192,-0.6744
156,1540579.0,50.145441,1.0,3.39,5.85,6.89,9.56,-20.37,-24.06,-4.44,-4.25,-1.44,0.3940189753017087,0.1876861267505343,0.16319507114138074,-44.81606648541226,-13.599542044193303,-84.81514815252169,-0.6212,-0.3812,-0.1184,-0.6744
157,1540579.0,50.145441,1.0,3.39,5.85,6.89,9.56,-20.37,-24.06,-4.44,-4.25,-1.44,0.3940189753017087,0.1876861267505343,0.16319507114138074,-44.81606648541226,-13.599542044193303,-84.81514815252169,-0.6212,-0.3812,-0.1184,-0.6744
158,1540614.0,50.193798,1.0,3.08,5.95,7.17,11.06,-20.37,-24.87,-1.94,-3.44,-1.81,0.4718612718430166,0.5922467940685969,0.02276576749549797,-44.81606648541226,-13.461068017168213,-84.70655785585106,-0.6221,-0.3812,-0.1172,-0.6737
159,1540614.0,50.193798,1.0,3.08,5.95,7.17,11.06,-20.37,-24.87,-1.94,-3.44,-1.81,0.4718612718430166,0.5922467940685969,0.02276576749549797,-44.81606648541226,-13.461068017168213,-84.70655785585106,-0.6221,-0.3812,-0.1172,-0.6737
160,1540648.0,50.203573,1.0,3.45,5.87,6.89,11.06,-20.37,-24.87,1.56,2.25,0.75,0.3735861412275279,0.1372018263630399,0.1281630803453897,-44.7912774389752,-13.51876311679545,-84.73757407583452,-0.6219,-0.381,-0.1177,-0.6739
161,1540648.0,50.203573,1.0,3.45,5.87,6.89,11.06,-20.37,-24.87,1.56,2.25,0.75,0.3735861412275279,0.1372018263630399,0.1281630803453897,-44.7912774389752,-13.51876311679545,-84.73757407583452,-0.6219,-0.381,-0.1177,-0.6739
162,1540683.0,50.217413,1.0,3.36,5.91,6.85,10.25,-19.69,-25.75,-2.38,-3.25,-1.56,0.3071132133840415,0.22351277489810029,0.16321059729609466,-44.81606648541226,-13.437990937987554,-84.67554928720209,-0.6224,-0.3812,-0.11699999999999999,-0.6735
163,1540683.0,50.217413,1.0,3.36,5.91,6.85,10.25,-19.69,-25.75,-2.38,-3.25,-1.56,0.3071132133840415,0.22351277489810029,0.16321059729609466,-44.81606648541226,-13.437990937987554,-84.67554928720209,-0.6224,-0.3812,-0.11699999999999999,-0.6735
164,1540720.0,50.260866,1.0,3.3,5.84,7.05,9.19,-20.75,-24.87,0.75,0.69,0.0,0.4830379156726611,0.32915959157244234,0.09292628891481593,-44.803671685885895,-13.403376345459217,-84.64454836195905,-0.6227,-0.3811,-0.1167,-0.6733
165,1540720.0,50.260866,1.0,3.3,5.84,7.05,9.19,-20.75,-24.87,0.75,0.69,0.0,0.4830379156726611,0.32915959157244234,0.09292628891481593,-44.803671685885895,-13.403376345459217,-84.64454836195905,-0.6227,-0.3811,-0.1167,-0.6733
166,1540755.0,50.325146000000004,1.0,3.39,5.98,7.04,9.19,-20.75,-24.87,-0.69,-0.25,0.19,0.35752344381797485,0.2577103047502049,-0.02289029372412088,-44.6673653156106,-13.380300633180664,-84.69105261560557,-0.623,-0.38,-0.1165,-0.6736
167,1540755.0,50.325146000000004,1.0,3.39,5.98,7.04,9.19,-20.75,-24.87,-0.69,-0.25,0.19,0.35752344381797485,0.2577103047502049,-0.02289029372412088,-44.6673653156106,-13.380300633180664,-84.69105261560557,-0.623,-0.38,-0.1165,-0.6736
168,1540790.0,50.342945,1.0,3.32,5.91,6.95,9.88,-20.75,-25.75,0.37,-0.56,0.5,0.3301726826366841,0.2727104261469906,0.10770082892423716,-44.5682752426895,-13.357225465957494,-84.75308505755767,-0.6232,-0.3792,-0.1163,-0.674
169,1540790.0,50.342945,1.0,3.32,5.91,6.95,9.88,-20.75,-25.75,0.37,-0.56,0.5,0.3301726826366841,0.2727104261469906,0.10770082892423716,-44.5682752426895,-13.357225465957494,-84.75308505755767,-0.6232,-0.3792,-0.1163,-0.674
170,1540825.0,50.399111,1.0,3.34,5.74,7.05,10.25,-20.06,-25.25,0.5,0.37,0.0,0.4941778061334114,0.2350988810761123,0.13678873873870678,-44.37020029186166,-13.311076762780564,-84.83066872325854,-0.6238,-0.3776,-0.1159,-0.6745
171,1540825.0,50.399111,1.0,3.34,5.74,7.05,10.25,-20.06,-25.25,0.5,0.37,0.0,0.4941778061334114,0.2350988810761123,0.13678873873870678,-44.37020029186166,-13.311076762780564,-84.83066872325854,-0.6238,-0.3776,-0.1159,-0.6745
172,1540861.0,50.407465,1.0,3.39,5.65,7.02,10.25,-20.06,-25.25,-5.69,-0.81,-2.63,0.5063459608390121,0.1469882816069452,0.19327347491724467,-44.147532698220644,-13.195714475135588,-84.86171562810705,-0.6248,-0.3758,-0.1149,-0.6747
173,1540861.0,50.407465,1.0,3.39,5.65,7.02,10.25,-20.06,-25.25,-5.69,-0.81,-2.63,0.5063459608390121,0.1469882816069452,0.19327347491724467,-44.147532698220644,-13.195714475135588,-84.86171562810705,-0.6248,-0.3758,-0.1149,-0.6747
174,1540894.0,50.451544,1.0,3.26,6.0,7.0,10.25,-20.06,-25.25,-8.88,-2.0,-3.06,0.15916674175664325,0.3146771954163317,0.03407387028867604,-43.86326796394638,-12.941964550756788,-84.81514815252169,-0.6269,-0.3735,-0.1127,-0.6744
175,1540894.0,50.451544,1.0,3.26,6.0,7.0,10.25,-20.06,-25.25,-8.88,-2.0,-3.06,0.15916674175664325,0.3146771954163317,0.03407387028867604,-43.86326796394638,-12.941964550756788,-84.81514815252169,-0.6269,-0.3735,-0.1127,-0.6744
176,1540931.0,50.510905,1.0,3.32,5.78,6.94,10.25,-20.37,-24.5,-4.5,-0.06,-1.69,0.2688307269102945,0.1866925844060594,0.18961948537664952,-43.7274156925049,-12.872771138472865,-84.79962950157953,-0.6278,-0.3724,-0.1121,-0.6743
177,1540931.0,50.510905,1.0,3.32,5.78,6.94,10.25,-20.37,-24.5,-4.5,-0.06,-1.69,0.2688307269102945,0.1866925844060594,0.18961948537664952,-43.7274156925049,-12.872771138472865,-84.79962950157953,-0.6278,-0.3724,-0.1121,-0.6743
178,1540966.0,50.564709,1.0,3.3,5.74,7.12,9.88,-19.25,-24.06,-5.31,0.63,-1.75,0.3659607666580919,0.23203568857257784,0.09355409001869043,-43.44356934572808,-12.745928771149693,-84.81514815252169,-0.6292,-0.3701,-0.111,-0.6744
179,1540966.0,50.564709,1.0,3.3,5.74,7.12,9.88,-19.25,-24.06,-5.31,0.63,-1.75,0.3659607666580919,0.23203568857257784,0.09355409001869043,-43.44356934572808,-12.745928771149693,-84.81514815252169,-0.6292,-0.3701,-0.111,-0.6744
180,1541001.0,50.616446,1.0,3.59,5.76,6.97,9.88,-19.25,-24.06,-0.5,1.25,-0.06,0.25753037522655464,-0.09172577265557624,0.0818433444172566,-43.33257535076985,-12.7228682118641,-84.84619121478758,-0.6295,-0.3692,-0.1108,-0.6746
181,1541001.0,50.616446,1.0,3.59,5.76,6.97,9.88,-19.25,-24.06,-0.5,1.25,-0.06,0.25753037522655464,-0.09172577265557624,0.0818433444172566,-43.33257535076985,-12.7228682118641,-84.84619121478758,-0.6295,-0.3692,-0.1108,-0.6746
182,1541036.0,50.683719,1.0,3.34,5.81,7.12,10.69,-19.69,-24.5,-1.19,-3.06,0.19,0.2875266638930586,0.20515867942323585,0.03519471770924732,-43.32024532286975,-12.642160322280047,-84.86171562810705,-0.6296,-0.3691,-0.1101,-0.6747
183,1541036.0,50.683719,1.0,3.34,5.81,7.12,10.69,-19.69,-24.5,-1.19,-3.06,0.19,0.2875266638930586,0.20515867942323585,0.03519471770924732,-43.32024532286975,-12.642160322280047,-84.86171562810705,-0.6296,-0.3691,-0.1101,-0.6747
