,TIME,ELAPSED_SECONDS,PSTATE,acc_x,acc_y,acc_z,mag_x,mag_y,mag_z,gyr_x,gyr_y,gyr_z,lin_x,lin_y,lin_z,eul_x,eul_y,eul_z,qua_w,qua_x,qua_y,qua_z
0,335056.0,83.720217,1.0,0.18,-2.59,-9.4,11.0,-10.56,40.69,1.31,1.56,0.56,-0.1720060564430062,0.08059985968315031,0.05655166310277693,-132.69628364910096,-44.51874337646561,3.7592774051414257,0.1279,-0.9159999999999999,-0.3788,0.0328
1,335056.0,83.720217,1.0,0.18,-2.59,-9.4,11.0,-10.56,40.69,1.31,1.56,0.56,-0.1720060564430062,0.08059985968315031,0.05655166310277693,-132.69628364910096,-44.51874337646561,3.7592774051414257,0.1279,-0.9159999999999999,-0.3788,0.0328
2,335091.0,83.723861,1.0,0.48,-2.62,-9.56,11.38,-10.25,40.19,-1.0,0.25,-0.75,0.03617926550649453,-0.11312481938032692,-0.11677147830009105,-132.69628364910096,-44.543508213508154,3.701951248377608,0.1279,-0.9159999999999999,-0.379,0.0323
3,335091.0,83.723861,1.0,0.48,-2.62,-9.56,11.38,-10.25,40.19,-1.0,0.25,-0.75,0.03617926550649453,-0.11312481938032692,-0.11677147830009105,-132.69628364910096,-44.543508213508154,3.701951248377608,0.1279,-0.9159999999999999,-0.379,0.0323
4,335128.0,83.76535799999999,1.0,0.11,-2.55,-9.23,11.0,-11.0,40.25,-0.94,1.56,-0.69,-0.23212750222624984,0.11569276157328055,0.2337595270221673,-132.69628364910096,-44.543508213508154,3.713416405127687,0.1274,-0.9159999999999999,-0.379,0.0324
5,335128.0,83.76535799999999,1.0,0.11,-2.55,-9.23,11.0,-11.0,40.25,-0.94,1.56,-0.69,-0.23212750222624984,0.11569276157328055,0.2337595270221673,-132.69628364910096,-44.543508213508154,3.713416405127687,0.1274,-0.9159999999999999,-0.379,0.0324
6,335161.0,83.83681,1.0,0.38,-2.46,-9.53,11.0,-11.0,40.25,1.31,3.69,-0.12,0.05399205750797964,0.055552212868337884,-0.042761089469838254,-132.72485553305756,-44.531125521078216,3.621696182670093,0.1274,-0.9161,-0.3789,0.0316
7,335161.0,83.83681,1.0,0.38,-2.46,-9.53,11.0,-11.0,40.25,1.31,3.69,-0.12,0.05399205750797964,0.055552212868337884,-0.042761089469838254,-132.72485553305756,-44.531125521078216,3.621696182670093,0.1274,-0.9161,-0.3789,0.0316
8,335198.0,83.840303,1.0,0.6,-2.69,-9.76,12.06,-10.25,39.75,0.0,0.12,-0.69,0.0854962165950223,-0.18387766505578607,-0.3330038107196511,-132.63918862221735,-44.580659579875785,3.564372225995784,0.1284,-0.9158,-0.3793,0.0311
9,335198.0,83.840303,1.0,0.6,-2.69,-9.76,12.06,-10.25,39.75,0.0,0.12,-0.69,0.0854962165950223,-0.18387766505578607,-0.3330038107196511,-132.63918862221735,-44.580659579875785,3.564372225995784,0.1284,-0.9158,-0.3793,0.0311
10,335233.0,83.847657,1.0,0.28,-2.52,-9.4,10.56,-11.0,41.0,-1.0,-1.5,1.19,-0.07473673669575204,0.07371142418180399,0.07126192113364382,-132.63918862221735,-44.5682752426895,3.610231319265168,0.1282,-0.9158,-0.3792,0.0315
11,335233.0,83.847657,1.0,0.28,-2.52,-9.4,10.56,-11.0,41.0,-1.0,-1.5,1.19,-0.07473673669575204,0.07371142418180399,0.07126192113364382,-132.63918862221735,-44.5682752426895,3.610231319265168,0.1282,-0.9158,-0.3792,0.0315
12,335265.0,83.905636,1.0,0.42,-2.69,-9.58,10.56,-11.0,41.0,0.56,0.06,-1.06,-0.06437547651935233,-0.1021379531437654,-0.15198061050818268,-132.63918862221735,-44.580659579875785,3.610231319265168,0.1282,-0.9158,-0.3793,0.0315
13,335265.0,83.905636,1.0,0.42,-2.69,-9.58,10.56,-11.0,41.0,0.56,0.06,-1.06,-0.06437547651935233,-0.1021379531437654,-0.15198061050818268,-132.63918862221735,-44.580659579875785,3.610231319265168,0.1282,-0.9158,-0.3793,0.0315
14,335300.0,83.927784,1.0,0.38,-2.49,-9.64,11.69,-10.25,40.69,-1.5,-0.06,0.37,0.04634411458843951,0.06664388891082207,-0.1566582264433567,-132.66772802198363,-44.580659579875785,3.5873017007906127,0.1277,-0.9159,-0.3793,0.0313
15,335300.0,83.927784,1.0,0.38,-2.49,-9.64,11.69,-10.25,40.69,-1.5,-0.06,0.37,0.04634411458843951,0.06664388891082207,-0.1566582264433567,-132.66772802198363,-44.580659579875785,3.5873017007906127,0.1277,-0.9159,-0.3793,0.0313
16,335337.0,83.956035,1.0,0.34,-2.68,-9.42,10.19,-9.5,40.25,-1.06,-0.88,0.19,-0.14394656081169574,-0.07956325464839642,0.008316005073096376,-132.66772802198363,-44.580659579875785,3.5987664920103746,0.1278,-0.9159,-0.3793,0.0314
17,335337.0,83.956035,1.0,0.34,-2.68,-9.42,10.19,-9.5,40.25,-1.06,-0.88,0.19,-0.14394656081169574,-0.07956325464839642,0.008316005073096376,-132.66772802198363,-44.580659579875785,3.5987664920103746,0.1278,-0.9159,-0.3793,0.0314
18,335372.0,83.99364399999999,1.0,0.25,-2.45,-9.42,10.19,-9.5,40.25,0.0,0.37,-0.25,-0.052876051536643535,0.13286719636490396,0.0710991459751451,-132.66772802198363,-44.580659579875785,3.5987664920103746,0.1274,-0.9159,-0.3793,0.0314
19,335372.0,83.99364399999999,1.0,0.25,-2.45,-9.42,10.19,-9.5,40.25,0.0,0.37,-0.25,-0.052876051536643535,0.13286719636490396,0.0710991459751451,-132.66772802198363,-44.580659579875785,3.5987664920103746,0.1274,-0.9159,-0.3793,0.0314
20,335407.0,84.035598,1.0,0.54,-2.67,-9.61,10.56,-11.0,40.25,-1.88,1.56,-2.0,0.023377997033132203,-0.16631422957493047,-0.18056147499619435,-132.61066542040177,-44.617815884427785,3.5299782811888885,0.1279,-0.9157,-0.3796,0.0308
21,335407.0,84.035598,1.0,0.54,-2.67,-9.61,10.56,-11.0,40.25,-1.88,1.56,-2.0,0.023377997033132203,-0.16631422957493047,-0.18056147499619435,-132.61066542040177,-44.617815884427785,3.5299782811888885,0.1279,-0.9157,-0.3796,0.0308
22,335441.0,84.052049,1.0,0.31,-2.43,-9.36,11.38,-10.56,41.06,-0.37,-1.88,-0.44,-0.01823290258379462,0.09491115508908243,0.13187561328156505,-132.63918862221735,-44.64258950046725,3.5299782811888885,0.1273,-0.9158,-0.3798,0.0308
23,335441.0,84.052049,1.0,0.31,-2.43,-9.36,11.38,-10.56,41.06,-0.37,-1.88,-0.44,-0.01823290258379462,0.09491115508908243,0.13187561328156505,-132.63918862221735,-44.64258950046725,3.5299782811888885,0.1273,-0.9158,-0.3798,0.0308
24,335476.0,84.173487,1.0,0.21,-2.69,-9.29,11.69,-10.56,40.69,0.5,0.81,-0.56,-0.2671183135968404,-0.017760792656689398,0.1364570153287339,-132.58215838722379,-44.64258950046725,3.5758369454907797,0.1279,-0.9156,-0.3798,0.0312
25,335476.0,84.173487,1.0,0.21,-2.69,-9.29,11.69,-10.56,40.69,0.5,0.81,-0.56,-0.2671183135968404,-0.017760792656689398,0.1364570153287339,-132.58215838722379,-44.64258950046725,3.5758369454907797,0.1279,-0.9156,-0.3798,0.0312
26,335511.0,84.273657,1.0,0.5,-2.61,-9.58,11.69,-10.56,40.69,0.5,0.37,-0.5,0.030370834557180038,-0.10522893008019317,-0.13450207029258188,-132.58215838722379,-44.64258950046725,3.5299782811888885,0.1278,-0.9156,-0.3798,0.0308
27,335511.0,84.273657,1.0,0.5,-2.61,-9.58,11.69,-10.56,40.69,0.5,0.37,-0.5,0.030370834557180038,-0.10522893008019317,-0.13450207029258188,-132.58215838722379,-44.64258950046725,3.5299782811888885,0.1278,-0.9156,-0.3798,0.0308
28,335548.0,84.33120699999999,1.0,0.3,-2.6,-9.37,12.06,-10.56,40.69,-2.0,-1.44,0.31,-0.1234950804753308,-0.0012263559654814848,0.07877009422662162,-132.58215838722379,-44.617815884427785,3.5987664920103746,0.1281,-0.9156,-0.3796,0.0314
29,335548.0,84.33120699999999,1.0,0.3,-2.6,-9.37,12.06,-10.56,40.69,-2.0,-1.44,0.31,-0.1234950804753308,-0.0012263559654814848,0.07877009422662162,-132.58215838722379,-44.617815884427785,3.5987664920103746,0.1281,-0.9156,-0.3796,0.0314
30,335583.0,84.395572,1.0,0.33,-2.5,-9.5,11.0,-10.25,41.38,-1.19,-0.56,-0.25,-0.020424774111347962,0.06738991074610201,-0.0220804077653991,-132.58215838722379,-44.64258950046725,3.5758369454907797,0.1277,-0.9156,-0.3798,0.0312
31,335583.0,84.395572,1.0,0.33,-2.5,-9.5,11.0,-10.25,41.38,-1.19,-0.56,-0.25,-0.020424774111347962,0.06738991074610201,-0.0220804077653991,-132.58215838722379,-44.64258950046725,3.5758369454907797,0.1277,-0.9156,-0.3798,0.0312
32,335620.0,84.45442299999999,1.0,0.41,-2.78,-9.51,11.0,-10.25,41.38,2.94,1.31,0.75,-0.1387817169595078,-0.1623393223548768,-0.10753103422844924,-132.61066542040177,-44.593044465749166,3.621696182670093,0.1287,-0.9157,-0.3794,0.0316
33,335620.0,84.45442299999999,1.0,0.41,-2.78,-9.51,11.0,-10.25,41.38,2.94,1.31,0.75,-0.1387817169595078,-0.1623393223548768,-0.10753103422844924,-132.61066542040177,-44.593044465749166,3.621696182670093,0.1287,-0.9157,-0.3794,0.0316
34,335652.0,84.466332,1.0,0.3,-2.56,-9.55,11.38,-10.56,39.75,-3.63,-1.25,-0.69,-0.06441204731369399,0.06178091774485139,-0.08466610082113846,-132.63918862221735,-44.605429900527255,3.621696182670093,0.1281,-0.9158,-0.3795,0.0316
35,335652.0,84.466332,1.0,0.3,-2.56,-9.55,11.38,-10.56,39.75,-3.63,-1.25,-0.69,-0.06441204731369399,0.06178091774485139,-0.08466610082113846,-132.63918862221735,-44.605429900527255,3.621696182670093,0.1281,-0.9158,-0.3795,0.0316
36,335689.0,84.473628,1.0,0.34,-2.52,-9.48,10.56,-10.25,39.38,2.06,0.0,1.0,-0.01859542684268678,0.04160993969296212,-0.008354983341542166,-132.63918862221735,-44.580659579875785,3.6331610823402585,0.1279,-0.9158,-0.3793,0.0317
37,335689.0,84.473628,1.0,0.34,-2.52,-9.48,10.56,-10.25,39.38,2.06,0.0,1.0,-0.01859542684268678,0.04160993969296212,-0.008354983341542166,-132.63918862221735,-44.580659579875785,3.6331610823402585,0.1279,-0.9158,-0.3793,0.0317
38,335722.0,84.476251,1.0,0.55,-2.55,-9.71,10.56,-10.25,39.38,1.5,1.37,0.94,0.1491176185242321,-0.06656565215364374,-0.24633129660047534,-132.66772802198363,-44.543508213508154,3.621696182670093,0.1285,-0.9159,-0.379,0.0316
39,335722.0,84.476251,1.0,0.55,-2.55,-9.71,10.56,-10.25,39.38,1.5,1.37,0.94,0.1491176185242321,-0.06656565215364374,-0.24633129660047534,-132.66772802198363,-44.543508213508154,3.621696182670093,0.1285,-0.9159,-0.379,0.0316
40,335757.0,84.514038,1.0,0.19,-2.8,-9.37,10.56,-10.56,40.56,0.44,-1.44,0.88,-0.3147799822348651,-0.05143828802635975,0.030594166213600005,-132.63918862221735,-44.543508213508154,3.701951248377608,0.129,-0.9158,-0.379,0.0323
41,335757.0,84.514038,1.0,0.19,-2.8,-9.37,10.56,-10.56,40.56,0.44,-1.44,0.88,-0.3147799822348651,-0.05143828802635975,0.030594166213600005,-132.63918862221735,-44.543508213508154,3.701951248377608,0.129,-0.9158,-0.379,0.0323
42,335792.0,84.52569,1.0,0.34,-2.4,-9.51,11.69,-10.25,40.25,-1.5,-2.81,2.81,0.09349632975119143,0.13341852532029375,-0.0060539053170476365,-132.72485553305756,-44.469220271844826,3.7478120989556993,0.1286,-0.9161,-0.3784,0.0327
43,335792.0,84.52569,1.0,0.34,-2.4,-9.51,11.69,-10.25,40.25,-1.5,-2.81,2.81,0.09349632975119143,0.13341852532029375,-0.0060539053170476365,-132.72485553305756,-44.469220271844826,3.7478120989556993,0.1286,-0.9161,-0.3784,0.0327
44,335826.0,84.533272,1.0,0.21,-2.71,-9.3,11.69,-10.25,40.25,3.75,-1.75,0.44,-0.22057656067355275,-0.029694595409189395,0.12013028382304293,-132.69628364910096,-44.444462000793465,3.873932556571698,0.1291,-0.9159999999999999,-0.3782,0.0338
45,335826.0,84.533272,1.0,0.21,-2.71,-9.3,11.69,-10.25,40.25,3.75,-1.75,0.44,-0.22057656067355275,-0.029694595409189395,0.12013028382304293,-132.69628364910096,-44.444462000793465,3.873932556571698,0.1291,-0.9159999999999999,-0.3782,0.0338
46,335861.0,84.536041,1.0,0.29,-2.41,-9.55,12.06,-10.56,39.88,-4.56,1.94,-0.12,0.06536608811254946,0.1626784877832046,-0.04545449518972156,-132.72485553305756,-44.444462000793465,3.805139007503523,0.1284,-0.9161,-0.3782,0.0332
47,335861.0,84.536041,1.0,0.29,-2.41,-9.55,12.06,-10.56,39.88,-4.56,1.94,-0.12,0.06536608811254946,0.1626784877832046,-0.04545449518972156,-132.72485553305756,-44.444462000793465,3.805139007503523,0.1284,-0.9161,-0.3782,0.0332
48,335896.0,84.577349,1.0,0.32,-2.75,-9.34,11.38,-9.88,41.5,1.19,1.44,-1.63,-0.1826542554621759,-0.11982916969443602,0.06741089250028233,-132.69628364910096,-44.48160022735979,3.7592774051414257,0.129,-0.9159999999999999,-0.3785,0.0328
49,335896.0,84.577349,1.0,0.32,-2.75,-9.34,11.38,-9.88,41.5,1.19,1.44,-1.63,-0.1826542554621759,-0.11982916969443602,0.06741089250028233,-132.69628364910096,-44.48160022735979,3.7592774051414257,0.129,-0.9159999999999999,-0.3785,0.0328
50,335931.0,84.59515,1.0,0.26,-2.5,-9.19,12.06,-10.25,41.0,-3.69,0.81,-0.37,-0.08947725180509092,0.04904194388101213,0.2796731075566399,-132.69628364910096,-44.51874337646561,3.724881599063971,0.1282,-0.9159999999999999,-0.3788,0.0325
51,335931.0,84.59515,1.0,0.26,-2.5,-9.19,12.06,-10.25,41.0,-3.69,0.81,-0.37,-0.08947725180509092,0.04904194388101213,0.2796731075566399,-132.69628364910096,-44.51874337646561,3.724881599063971,0.1282,-0.9159999999999999,-0.3788,0.0325
52,335964.0,84.598311,1.0,0.17,-2.88,-8.8,12.06,-10.25,41.0,1.12,2.81,-2.13,-0.4875096471555951,-0.21648950816391466,0.5611772356257969,-132.63918862221735,-44.5682752426895,3.6331610823402585,0.1285,-0.9158,-0.3792,0.0317
53,335964.0,84.598311,1.0,0.17,-2.88,-8.8,12.06,-10.25,41.0,1.12,2.81,-2.13,-0.4875096471555951,-0.21648950816391466,0.5611772356257969,-132.63918862221735,-44.5682752426895,3.6331610823402585,0.1285,-0.9158,-0.3792,0.0317
54,336001.0,84.642385,1.0,-0.07,-2.5,-7.97,10.56,-10.25,39.75,-14.75,5.75,-7.5,-0.5800092735411414,0.013732946337071228,1.4736313003455237,-132.58215838722379,-44.74170597311218,3.369477361207863,0.126,-0.9156,-0.3806,0.0294
55,336001.0,84.642385,1.0,-0.07,-2.5,-7.97,10.56,-10.25,39.75,-14.75,5.75,-7.5,-0.5800092735411414,0.013732946337071228,1.4736313003455237,-132.58215838722379,-44.74170597311218,3.369477361207863,0.126,-0.9156,-0.3806,0.0294
56,336037.0,84.659951,1.0,-0.19,-2.42,-6.94,10.56,-10.56,41.5,-20.75,12.31,-15.69,-0.8847078858868684,-0.07502747677916766,2.5081732524602938,-132.32631788342704,-45.26264916304815,2.6129139620146145,0.1216,-0.9147,-0.3848,0.0228
57,336037.0,84.659951,1.0,-0.19,-2.42,-6.94,10.56,-10.56,41.5,-20.75,12.31,-15.69,-0.8847078858868684,-0.07502747677916766,2.5081732524602938,-132.32631788342704,-45.26264916304815,2.6129139620146145,0.1216,-0.9147,-0.3848,0.0228
58,336072.0,84.69832,1.0,-0.96,-2.2,-4.46,10.56,-10.56,41.5,-40.31,22.06,-36.44,-1.7145141305213274,0.11330383373390895,5.0421139745822146,-131.7904095910964,-46.09573205363145,1.5928739664684124,0.1154,-0.9128,-0.3915,0.0139
59,336072.0,84.69832,1.0,-0.96,-2.2,-4.46,10.56,-10.56,41.5,-40.31,22.06,-36.44,-1.7145141305213274,0.11330383373390895,5.0421139745822146,-131.7904095910964,-46.09573205363145,1.5928739664684124,0.1154,-0.9128,-0.3915,0.0139
60,336105.0,84.71379,1.0,-0.95,-3.24,-2.68,10.19,-12.06,40.69,-30.87,43.69,-53.38,-2.8172065927320755,-0.8566165786205775,6.65830836493253,-130.26971625278716,-47.90761495262175,-0.60733810621587,0.1086,-0.9073,-0.406,-0.0053
61,336105.0,84.71379,1.0,-0.95,-3.24,-2.68,10.19,-12.06,40.69,-30.87,43.69,-53.38,-2.8172065927320755,-0.8566165786205775,6.65830836493253,-130.26971625278716,-47.90761495262175,-0.60733810621587,0.1086,-0.9073,-0.406,-0.0053
62,336142.0,84.75788100000001,1.0,0.1,-3.46,-2.76,11.0,-12.5,41.0,-97.31,71.25,-95.06,-2.537116093197852,-1.673263886987516,6.5875771685561535,-128.2635811405088,-50.22538255847991,-3.724881599063971,0.0959,-0.8998,-0.4244,-0.0325
63,336142.0,84.75788100000001,1.0,0.1,-3.46,-2.76,11.0,-12.5,41.0,-97.31,71.25,-95.06,-2.537116093197852,-1.673263886987516,6.5875771685561535,-128.2635811405088,-50.22538255847991,-3.724881599063971,0.0959,-0.8998,-0.4244,-0.0325
64,336179.0,84.791084,1.0,-0.38,-0.45,-2.14,10.56,-15.06,42.69,-156.19,98.06,-73.06,-0.7662578111985178,0.4263984242468205,7.767646971415421,-125.62096841990898,-52.88506854972636,-9.142643881088318,0.0644,-0.8895,-0.4453,-0.0797
65,336179.0,84.791084,1.0,-0.38,-0.45,-2.14,10.56,-15.06,42.69,-156.19,98.06,-73.06,-0.7662578111985178,0.4263984242468205,7.767646971415421,-125.62096841990898,-52.88506854972636,-9.142643881088318,0.0644,-0.8895,-0.4453,-0.0797
66,336214.0,84.826784,1.0,3.62,0.27,-3.75,10.56,-15.06,42.69,-117.75,119.31,-96.19,1.3982959026949393,-2.0265908626292117,5.204748431733428,-121.87727845049913,-55.43338813739566,-15.482545411826456,0.0391,-0.8741,-0.4651,-0.1347
67,336214.0,84.826784,1.0,3.62,0.27,-3.75,10.56,-15.06,42.69,-117.75,119.31,-96.19,1.3982959026949393,-2.0265908626292117,5.204748431733428,-121.87727845049913,-55.43338813739566,-15.482545411826456,0.0391,-0.8741,-0.4651,-0.1347
68,336250.0,84.885198,1.0,6.38,-0.98,-5.33,8.0,-21.75,41.19,-171.44,113.87,-111.81,0.615596322768621,-4.689086870208723,2.8996097155489284,-117.80730258048688,-57.907047347217045,-20.63468349632429,0.0172,-0.8563,-0.4841,-0.1791
69,336250.0,84.885198,1.0,6.38,-0.98,-5.33,8.0,-21.75,41.19,-171.44,113.87,-111.81,0.615596322768621,-4.689086870208723,2.8996097155489284,-117.80730258048688,-57.907047347217045,-20.63468349632429,0.0172,-0.8563,-0.4841,-0.1791
70,336285.0,84.93924799999999,1.0,5.54,2.45,-5.15,11.38,-28.37,40.75,-268.44,76.44,-65.25,1.8616934650743733,-2.5273294182365413,2.501630940899913,-113.60746869012196,-58.41842386753149,-28.257305549296962,-0.0444,-0.8368,-0.488,-0.2441
71,336285.0,84.93924799999999,1.0,5.54,2.45,-5.15,11.38,-28.37,40.75,-268.44,76.44,-65.25,1.8616934650743733,-2.5273294182365413,2.501630940899913,-113.60746869012196,-58.41842386753149,-28.257305549296962,-0.0444,-0.8368,-0.488,-0.2441
72,336320.0,84.946737,1.0,6.61,4.63,-3.96,11.38,-28.37,40.75,-249.75,88.0,-60.31,3.621842834865448,-2.6334245824611537,2.011912708209909,-110.04955295767435,-58.2740608132382,-33.83566809114509,-0.0825,-0.8194,-0.4869,-0.29100000000000004
73,336320.0,84.946737,1.0,6.61,4.63,-3.96,11.38,-28.37,40.75,-249.75,88.0,-60.31,3.621842834865448,-2.6334245824611537,2.011912708209909,-110.04955295767435,-58.2740608132382,-33.83566809114509,-0.0825,-0.8194,-0.4869,-0.29100000000000004
74,336355.0,85.00863199999999,1.0,7.6,8.26,-3.49,18.25,-40.69,32.38,-340.31,76.87,-44.0,4.8589558014695085,-2.0170470628591257,-0.7047614021656123,-104.25895173526337,-55.71835189030318,-42.55680426104336,-0.1636,-0.7894,-0.4673,-0.3629
75,336355.0,85.00863199999999,1.0,7.6,8.26,-3.49,18.25,-40.69,32.38,-340.31,76.87,-44.0,4.8589558014695085,-2.0170470628591257,-0.7047614021656123,-104.25895173526337,-55.71835189030318,-42.55680426104336,-0.1636,-0.7894,-0.4673,-0.3629
76,336392.0,85.02854,1.0,7.06,7.91,-2.18,28.0,-38.75,12.56,-254.13,80.25,10.06,4.208367421588823,-1.8278610627276397,0.002943171444078629,-100.52834892064112,-52.96186978619433,-48.32173895898989,-0.2056,-0.769,-0.4459,-0.4093
77,336392.0,85.02854,1.0,7.06,7.91,-2.18,28.0,-38.75,12.56,-254.13,80.25,10.06,4.208367421588823,-1.8278610627276397,0.002943171444078629,-100.52834892064112,-52.96186978619433,-48.32173895898989,-0.2056,-0.769,-0.4459,-0.4093
78,336427.0,85.074862,1.0,6.36,11.55,-0.03,18.75,-27.37,6.5,-383.75,35.88,9.81,5.111665374843452,0.6902424387238062,-2.327905717924379,-94.64823708998428,-46.44464801216442,-56.35439663135928,-0.2845,-0.7352,-0.3943,-0.4722
79,336427.0,85.074862,1.0,6.36,11.55,-0.03,18.75,-27.37,6.5,-383.75,35.88,9.81,5.111665374843452,0.6902424387238062,-2.327905717924379,-94.64823708998428,-46.44464801216442,-56.35439663135928,-0.2845,-0.7352,-0.3943,-0.4722
80,336461.0,85.091656,1.0,3.2,17.03,3.45,18.75,-27.37,6.5,-259.63,141.25,44.94,6.5315857055007776,6.67695786897809,-5.190683822636261,-89.01457860331709,-41.41533197987328,-63.16153810810004,-0.3305,-0.701,-0.3536,-0.5237
81,336461.0,85.091656,1.0,3.2,17.03,3.45,18.75,-27.37,6.5,-259.63,141.25,44.94,6.5315857055007776,6.67695786897809,-5.190683822636261,-89.01457860331709,-41.41533197987328,-63.16153810810004,-0.3305,-0.701,-0.3536,-0.5237
82,336498.0,85.129899,1.0,6.42,12.26,2.9,9.19,-27.75,0.0,-267.81,177.88,-33.44,3.2660971341343434,1.1038704679427012,-3.90641236769903,-79.31545721761533,-38.48899785121896,-72.81154842528053,-0.3632,-0.6382,-0.3296,-0.5935
83,336498.0,85.129899,1.0,6.42,12.26,2.9,9.19,-27.75,0.0,-267.81,177.88,-33.44,3.2660971341343434,1.1038704679427012,-3.90641236769903,-79.31545721761533,-38.48899785121896,-72.81154842528053,-0.3632,-0.6382,-0.3296,-0.5935
84,336533.0,85.291221,1.0,8.34,12.99,2.36,3.06,-32.38,-3.06,-313.94,96.5,-63.69,0.3329567494413677,-0.7946270038533267,-5.785752243648942,-71.46475194075083,-35.17957649356332,-78.38088122929612,-0.4103,-0.584,-0.3022,-0.6319
85,336533.0,85.291221,1.0,8.34,12.99,2.36,3.06,-32.38,-3.06,-313.94,96.5,-63.69,0.3329567494413677,-0.7946270038533267,-5.785752243648942,-71.46475194075083,-35.17957649356332,-78.38088122929612,-0.4103,-0.584,-0.3022,-0.6319
86,336568.0,85.350186,1.0,7.22,12.43,3.25,3.06,-32.38,-3.06,-256.25,2.25,-60.94,-1.200158174402581,-0.7002683497631352,-4.865263460579528,-63.9028359466197,-30.009604103998093,-81.99103761990294,-0.4719,-0.5292,-0.2589,-0.6559999999999999
87,336568.0,85.350186,1.0,7.22,12.43,3.25,3.06,-32.38,-3.06,-256.25,2.25,-60.94,-1.200158174402581,-0.7002683497631352,-4.865263460579528,-63.9028359466197,-30.009604103998093,-81.99103761990294,-0.4719,-0.5292,-0.2589,-0.6559999999999999
88,336603.0,85.353219,1.0,4.39,11.78,5.39,2.5,-32.06,-10.38,-246.13,-50.25,-65.87,-0.956193288242198,1.4648543316510765,-3.7592077385495113,-58.81265977015818,-23.98691540045918,-82.24939344216158,-0.5322,-0.491,-0.2078,-0.6577
89,336603.0,85.353219,1.0,4.39,11.78,5.39,2.5,-32.06,-10.38,-246.13,-50.25,-65.87,-0.956193288242198,1.4648543316510765,-3.7592077385495113,-58.81265977015818,-23.98691540045918,-82.24939344216158,-0.5322,-0.491,-0.2078,-0.6577
90,336640.0,85.367752,1.0,2.21,13.52,6.48,4.88,-30.75,-17.37,-222.56,-44.38,-59.38,-2.675777163225676,3.8560981472014038,-4.602917087595307,-55.200512683923186,-19.343110284151184,-81.62715918884508,-0.5745,-0.4633,-0.168,-0.6536
91,336640.0,85.367752,1.0,2.21,13.52,6.48,4.88,-30.75,-17.37,-222.56,-44.38,-59.38,-2.675777163225676,3.8560981472014038,-4.602917087595307,-55.200512683923186,-19.343110284151184,-81.62715918884508,-0.5745,-0.4633,-0.168,-0.6536
92,336676.0,85.396564,1.0,2.14,12.88,5.8,4.88,-30.75,-17.37,-150.44,-11.94,-24.69,-4.271727264721765,3.0298882146196755,-3.485683263304134,-51.303485419526396,-15.29753283007483,-81.55147683065383,-0.607,-0.4329,-0.1331,-0.6531
93,336676.0,85.396564,1.0,2.14,12.88,5.8,4.88,-30.75,-17.37,-150.44,-11.94,-24.69,-4.271727264721765,3.0298882146196755,-3.485683263304134,-51.303485419526396,-15.29753283007483,-81.55147683065383,-0.607,-0.4329,-0.1331,-0.6531
94,336711.0,85.41308000000001,1.0,1.89,11.14,5.32,6.06,-27.25,-23.06,-69.81,17.31,47.25,-4.028642804833213,2.6848675976748595,-1.7057616992931257,-49.517699264874096,-13.391838421127119,-82.69129653429431,-0.6121,-0.4188,-0.1166,-0.6606
95,336711.0,85.41308000000001,1.0,1.89,11.14,5.32,6.06,-27.25,-23.06,-69.81,17.31,47.25,-4.028642804833213,2.6848675976748595,-1.7057616992931257,-49.517699264874096,-13.391838421127119,-82.69129653429431,-0.6121,-0.4188,-0.1166,-0.6606
96,336746.0,85.415853,1.0,3.93,13.19,4.6,8.69,-24.56,-25.5,-73.37,37.5,94.06,-6.643309731392714,1.4794448977839263,-3.009694198218304,-47.093849573149654,-11.017757342406151,-86.54988402192322,-0.6011,-0.3995,-0.096,-0.6855
97,336746.0,85.415853,1.0,3.93,13.19,4.6,8.69,-24.56,-25.5,-73.37,37.5,94.06,-6.643309731392714,1.4794448977839263,-3.009694198218304,-47.093849573149654,-11.017757342406151,-86.54988402192322,-0.6011,-0.3995,-0.096,-0.6855
98,336781.0,85.426826,1.0,5.6,14.24,3.97,7.88,-23.75,-26.19,0.0,46.56,44.81,-8.243396431567698,0.3126479598851084,-3.6784219881355034,-45.61049316943376,-10.269686237501055,-88.9824468050114,-0.5922,-0.3876,-0.0895,-0.7008
99,336781.0,85.426826,1.0,5.6,14.24,3.97,7.88,-23.75,-26.19,0.0,46.56,44.81,-8.243396431567698,0.3126479598851084,-3.6784219881355034,-45.61049316943376,-10.269686237501055,-88.9824468050114,-0.5922,-0.3876,-0.0895,-0.7008
100,336816.0,85.459181,1.0,4.97,8.24,5.49,7.88,-23.75,-26.19,95.94,23.81,-15.0,-2.2334475178376643,-0.41327498877060265,-1.036758872154616,-46.69415285279771,-13.161108413553293,-88.9824468050114,-0.5820000000000001,-0.3963,-0.1146,-0.7008
101,336816.0,85.459181,1.0,4.97,8.24,5.49,7.88,-23.75,-26.19,95.94,23.81,-15.0,-2.2334475178376643,-0.41327498877060265,-1.036758872154616,-46.69415285279771,-13.161108413553293,-88.9824468050114,-0.5820000000000001,-0.3963,-0.1146,-0.7008
102,336852.0,85.47565300000001,1.0,4.45,3.68,6.39,7.0,-23.19,-26.19,74.5,2.94,-44.88,2.0797846025234317,-1.1811455624970308,1.5328122467382137,-48.058128241744505,-15.621331474060085,-87.67255085031937,-0.5797,-0.4072,-0.1359,-0.6926
103,336852.0,85.47565300000001,1.0,4.45,3.68,6.39,7.0,-23.19,-26.19,74.5,2.94,-44.88,2.0797846025234317,-1.1811455624970308,1.5328122467382137,-48.058128241744505,-15.621331474060085,-87.67255085031937,-0.5797,-0.4072,-0.1359,-0.6926
104,336887.0,85.521331,1.0,3.91,3.92,6.48,8.19,-24.06,-24.56,10.13,-25.62,-26.94,2.2000897219371955,-0.6415126008676995,1.597328054896721,-48.95048376737758,-16.50085429879803,-85.95326058406742,-0.5858,-0.4143,-0.1435,-0.6817
105,336887.0,85.521331,1.0,3.91,3.92,6.48,8.19,-24.06,-24.56,10.13,-25.62,-26.94,2.2000897219371955,-0.6415126008676995,1.597328054896721,-48.95048376737758,-16.50085429879803,-85.95326058406742,-0.5858,-0.4143,-0.1435,-0.6817
106,336922.0,85.53739,1.0,3.6,3.78,7.07,8.19,-24.06,-24.56,22.81,-9.75,-4.19,2.8408510475472837,-0.20140005104918,1.4926676001457098,-49.65654846766405,-16.83671699887327,-85.28160489303416,-0.5859,-0.4199,-0.1464,-0.6774
107,336922.0,85.53739,1.0,3.6,3.78,7.07,8.19,-24.06,-24.56,22.81,-9.75,-4.19,2.8408510475472837,-0.20140005104918,1.4926676001457098,-49.65654846766405,-16.83671699887327,-85.28160489303416,-0.5859,-0.4199,-0.1464,-0.6774
108,336957.0,85.678347,1.0,3.72,6.05,6.39,7.88,-24.69,-24.56,-19.94,-11.25,13.44,0.7571718694076782,0.19499317393685625,0.28500789255363124,-49.75757860526172,-16.17670848781425,-85.46867747110112,-0.5854,-0.4207,-0.1407,-0.6786
109,336957.0,85.678347,1.0,3.72,6.05,6.39,7.88,-24.69,-24.56,-19.94,-11.25,13.44,0.7571718694076782,0.19499317393685625,0.28500789255363124,-49.75757860526172,-16.17670848781425,-85.46867747110112,-0.5854,-0.4207,-0.1407,-0.6786
110,336992.0,85.737765,1.0,4.09,5.93,6.3,8.19,-24.69,-24.87,27.12,2.13,11.06,0.8400998660935446,-0.15790850981236426,0.27500286440384514,-50.13681071668797,-16.338764939656073,-85.67165837028584,-0.5814,-0.4237,-0.1421,-0.6799
111,336992.0,85.737765,1.0,4.09,5.93,6.3,8.19,-24.69,-24.87,27.12,2.13,11.06,0.8400998660935446,-0.15790850981236426,0.27500286440384514,-50.13681071668797,-16.338764939656073,-85.67165837028584,-0.5814,-0.4237,-0.1421,-0.6799
112,337029.0,85.81388100000001,1.0,3.87,6.05,6.29,7.5,-24.0,-24.56,-4.25,-9.25,1.06,0.7923901841419344,0.12579092084405952,0.29351200876342354,-50.541973215859535,-16.338764939656073,-85.67165837028584,-0.5791,-0.4269,-0.1421,-0.6799
113,337029.0,85.81388100000001,1.0,3.87,6.05,6.29,7.5,-24.0,-24.56,-4.25,-9.25,1.06,0.7923901841419344,0.12579092084405952,0.29351200876342354,-50.541973215859535,-16.338764939656073,-85.67165837028584,-0.5791,-0.4269,-0.1421,-0.6799
114,337061.0,85.86199,1.0,3.88,5.66,6.09,7.5,-24.0,-24.56,12.0,2.0,-3.38,0.9459183286351354,-0.06479506103658705,0.6809094757676046,-50.70676349859697,-16.53559204728263,-85.51548969920226,-0.5789,-0.4282,-0.1438,-0.6789
115,337061.0,85.86199,1.0,3.88,5.66,6.09,7.5,-24.0,-24.56,12.0,2.0,-3.38,0.9459183286351354,-0.06479506103658705,0.6809094757676046,-50.70676349859697,-16.53559204728263,-85.51548969920226,-0.5789,-0.4282,-0.1438,-0.6789
116,337098.0,85.880581,1.0,3.96,6.36,5.68,6.69,-25.06,-24.06,-7.75,-1.81,8.13,0.1551603977078596,-0.038628017040028606,0.4062227157068694,-50.668725019229704,-16.396650200988272,-85.67165837028584,-0.5782,-0.4279,-0.1426,-0.6799
117,337098.0,85.880581,1.0,3.96,6.36,5.68,6.69,-25.06,-24.06,-7.75,-1.81,8.13,0.1551603977078596,-0.038628017040028606,0.4062227157068694,-50.668725019229704,-16.396650200988272,-85.67165837028584,-0.5782,-0.4279,-0.1426,-0.6799
118,337133.0,85.88407099999999,1.0,3.79,6.93,5.81,6.69,-24.56,-24.06,1.88,0.0,4.94,-0.14651401616934945,0.3502084800146563,0.008640627500311027,-50.70676349859697,-16.257732621833743,-85.81237907644234,-0.5773,-0.4282,-0.1414,-0.6808
119,337133.0,85.88407099999999,1.0,3.79,6.93,5.81,6.69,-24.56,-24.06,1.88,0.0,4.94,-0.14651401616934945,0.3502084800146563,0.008640627500311027,-50.70676349859697,-16.257732621833743,-85.81237907644234,-0.5773,-0.4282,-0.1414,-0.6808
120,337168.0,85.892454,1.0,3.94,6.53,5.73,6.69,-24.56,-24.06,4.19,2.56,-0.5,0.07880631674988126,0.06631738226974004,0.2679503208377927,-50.71944432115219,-16.38507281218067,-85.84367215482173,-0.5765,-0.4283,-0.1425,-0.6809999999999999
121,337168.0,85.892454,1.0,3.94,6.53,5.73,6.69,-24.56,-24.06,4.19,2.56,-0.5,0.07880631674988126,0.06631738226974004,0.2679503208377927,-50.71944432115219,-16.38507281218067,-85.84367215482173,-0.5765,-0.4283,-0.1425,-0.6809999999999999
122,337203.0,85.93587600000001,1.0,3.89,6.7,5.71,7.06,-25.25,-24.5,0.94,0.5,3.63,-0.05415615905363525,0.16263559470602695,0.1839260211169336,-50.71944432115219,-16.373495591769153,-85.92193964679629,-0.5760000000000001,-0.4283,-0.1424,-0.6815
123,337203.0,85.93587600000001,1.0,3.89,6.7,5.71,7.06,-25.25,-24.5,0.94,0.5,3.63,-0.05415615905363525,0.16263559470602695,0.1839260211169336,-50.71944432115219,-16.373495591769153,-85.92193964679629,-0.5760000000000001,-0.4283,-0.1424,-0.6815
124,337238.0,85.955837,1.0,3.79,6.82,5.88,6.0,-24.56,-24.87,2.31,2.38,5.06,-0.011218615763893823,0.34641718010975264,0.04290229330534245,-50.70676349859697,-16.419805484293857,-86.0943036593405,-0.5748,-0.4282,-0.1428,-0.6826
125,337238.0,85.955837,1.0,3.79,6.82,5.88,6.0,-24.56,-24.87,2.31,2.38,5.06,-0.011218615763893823,0.34641718010975264,0.04290229330534245,-50.70676349859697,-16.419805484293857,-86.0943036593405,-0.5748,-0.4282,-0.1428,-0.6826
126,337272.0,85.95936400000001,1.0,3.94,6.35,5.82,6.0,-24.56,-24.87,7.31,5.81,-0.44,0.2772424134994699,0.03197680565187877,0.3387772648996137,-50.681403847895496,-16.63981448789728,-86.14135405488717,-0.574,-0.428,-0.1447,-0.6829
127,337272.0,85.95936400000001,1.0,3.94,6.35,5.82,6.0,-24.56,-24.87,7.31,5.81,-0.44,0.2772424134994699,0.03197680565187877,0.3387772648996137,-50.681403847895496,-16.63981448789728,-86.14135405488717,-0.574,-0.428,-0.1447,-0.6829
128,337305.0,86.00030799999999,1.0,3.87,6.27,5.83,7.06,-25.0,-24.06,3.69,3.94,3.06,0.34754216944343064,0.06646311084704637,0.4176406222565152,-50.668725019229704,-16.813549410004512,-86.28261375483947,-0.5726,-0.4279,-0.1462,-0.6838
129,337305.0,86.00030799999999,1.0,3.87,6.27,5.83,7.06,-25.0,-24.06,3.69,3.94,3.06,0.34754216944343064,0.06646311084704637,0.4176406222565152,-50.668725019229704,-16.813549410004512,-86.28261375483947,-0.5726,-0.4279,-0.1462,-0.6838
130,337342.0,86.009825,1.0,4.11,6.33,5.73,6.38,-24.25,-23.69,3.88,5.5,3.38,0.2300423893457768,-0.16560797882956635,0.3349260546745185,-50.59266598447474,-16.894639006068054,-86.48694417859592,-0.5714,-0.4273,-0.1469,-0.6851
131,337342.0,86.009825,1.0,4.11,6.33,5.73,6.38,-24.25,-23.69,3.88,5.5,3.38,0.2300423893457768,-0.16560797882956635,0.3349260546745185,-50.59266598447474,-16.894639006068054,-86.48694417859592,-0.5714,-0.4273,-0.1469,-0.6851
132,337375.0,86.029402,1.0,4.05,6.33,5.88,6.38,-24.25,-23.69,2.94,1.56,2.19,0.3416640266710129,-0.06588921166354389,0.2712043206064383,-50.57999179913578,-16.940979741891212,-86.59711027164688,-0.5705,-0.4272,-0.1473,-0.6858
133,337375.0,86.029402,1.0,4.05,6.33,5.88,6.38,-24.25,-23.69,2.94,1.56,2.19,0.3416640266710129,-0.06588921166354389,0.2712043206064383,-50.57999179913578,-16.940979741891212,-86.59711027164688,-0.5705,-0.4272,-0.1473,-0.6858
134,337410.0,86.032705,1.0,4.0,6.16,5.85,6.38,-25.25,-24.87,5.88,3.06,3.81,0.43022198012763213,-0.06985642707629712,0.4269842742179133,-50.59266598447474,-16.987323268750952,-86.78619903924593,-0.5688,-0.4273,-0.1477,-0.687
135,337410.0,86.032705,1.0,4.0,6.16,5.85,6.38,-25.25,-24.87,5.88,3.06,3.81,0.43022198012763213,-0.06985642707629712,0.4269842742179133,-50.59266598447474,-16.987323268750952,-86.78619903924593,-0.5688,-0.4273,-0.1477,-0.687
136,337442.0,86.07849300000001,1.0,4.19,6.05,5.87,5.56,-24.25,-23.69,-0.88,2.25,0.63,0.4911015153799898,-0.26626956018832626,0.4096600658291312,-50.465953903367264,-16.917809025605248,-86.99137867169705,-0.5682,-0.4263,-0.1471,-0.6883
137,337442.0,86.07849300000001,1.0,4.19,6.05,5.87,5.56,-24.25,-23.69,-0.88,2.25,0.63,0.4911015153799898,-0.26626956018832626,0.4096600658291312,-50.465953903367264,-16.917809025605248,-86.99137867169705,-0.5682,-0.4263,-0.1471,-0.6883
138,337479.0,86.14449499999999,1.0,3.99,6.61,5.95,7.5,-25.25,-23.69,2.19,2.31,1.63,0.1491114883704613,0.1223137538330743,0.06100968703650445,-50.36463176877203,-16.755633464025784,-87.10200448418625,-0.5684,-0.4255,-0.1457,-0.6890000000000001
139,337479.0,86.14449499999999,1.0,3.99,6.61,5.95,7.5,-25.25,-23.69,2.19,2.31,1.63,0.1491114883704613,0.1223137538330743,0.06100968703650445,-50.36463176877203,-16.755633464025784,-87.10200448418625,-0.5684,-0.4255,-0.1457,-0.6890000000000001
140,337512.0,86.20264,1.0,4.19,6.27,5.83,7.5,-25.25,-23.69,-0.56,0.81,4.13,0.2834588624126201,-0.19220197146520898,0.280863445836367,-50.36463176877203,-16.778799324271787,-87.21273191771509,-0.5674,-0.4255,-0.1459,-0.6897
141,337512.0,86.20264,1.0,4.19,6.27,5.83,7.5,-25.25,-23.69,-0.56,0.81,4.13,0.2834588624126201,-0.19220197146520898,0.280863445836367,-50.36463176877203,-16.778799324271787,-87.21273191771509,-0.5674,-0.4255,-0.1459,-0.6897
142,337549.0,86.272126,1.0,3.93,6.46,5.82,6.38,-23.87,-24.06,-1.31,-0.06,5.5,0.12328463933669542,0.12410491169644455,0.2662989127183337,-50.326646830888215,-16.616652750638245,-87.38693841130173,-0.5667,-0.4252,-0.1445,-0.6908
143,337549.0,86.272126,1.0,3.93,6.46,5.82,6.38,-23.87,-24.06,-1.31,-0.06,5.5,0.12328463933669542,0.12410491169644455,0.2662989127183337,-50.326646830888215,-16.616652750638245,-87.38693841130173,-0.5667,-0.4252,-0.1445,-0.6908
144,337584.0,86.28009399999999,1.0,4.23,6.42,5.9,6.69,-24.56,-24.06,0.12,1.5,0.69,0.19614938890803413,-0.13060650540194366,0.11831849462830668,-50.27600944578726,-16.55875139620892,-87.4820668406457,-0.5663,-0.4248,-0.14400000000000002,-0.6914
145,337584.0,86.28009399999999,1.0,4.23,6.42,5.9,6.69,-24.56,-24.06,0.12,1.5,0.69,0.19614938890803413,-0.13060650540194366,0.11831849462830668,-50.27600944578726,-16.55875139620892,-87.4820668406457,-0.5663,-0.4248,-0.14400000000000002,-0.6914
146,337616.0,86.29905600000001,1.0,4.1,6.48,5.7,6.69,-24.56,-24.06,-5.19,-3.38,0.44,-0.00763255021061504,-0.04115652804214953,0.25214070415561274,-50.2633517404334,-16.43138337904295,-87.46620685664602,-0.5668,-0.4247,-0.1429,-0.6913
147,337616.0,86.29905600000001,1.0,4.1,6.48,5.7,6.69,-24.56,-24.06,-5.19,-3.38,0.44,-0.00763255021061504,-0.04115652804214953,0.25214070415561274,-50.2633517404334,-16.43138337904295,-87.46620685664602,-0.5668,-0.4247,-0.1429,-0.6913
148,337653.0,86.303421,1.0,3.67,6.72,5.76,6.38,-24.25,-24.06,-3.81,-2.5,2.06,-0.14462277636849666,0.4613341424483308,0.2373681533007943,-50.2633517404334,-16.223006993376618,-87.46620685664602,-0.5672,-0.4247,-0.1411,-0.6913
149,337653.0,86.303421,1.0,3.67,6.72,5.76,6.38,-24.25,-24.06,-3.81,-2.5,2.06,-0.14462277636849666,0.4613341424483308,0.2373681533007943,-50.2633517404334,-16.223006993376618,-87.46620685664602,-0.5672,-0.4247,-0.1411,-0.6913
150,337688.0,86.34493499999999,1.0,4.08,6.5,5.64,6.69,-25.0,-25.25,-3.0,1.81,2.44,-0.09914952719005254,-0.01549335019903797,0.2832089555372601,-50.187419272308674,-16.223006993376618,-87.57727090479605,-0.5669,-0.4241,-0.1411,-0.6920000000000001
151,337688.0,86.34493499999999,1.0,4.08,6.5,5.64,6.69,-25.0,-25.25,-3.0,1.81,2.44,-0.09914952719005254,-0.01549335019903797,0.2832089555372601,-50.187419272308674,-16.223006993376618,-87.57727090479605,-0.5669,-0.4241,-0.1411,-0.6920000000000001
152,337723.0,86.361616,1.0,3.81,6.88,5.8,6.69,-25.0,-25.25,-2.38,-2.5,3.31,-0.25193754072249863,0.4132400314703992,0.04671863999725545,-50.17476615256415,-16.072546557241562,-87.6407824219454,-0.5668,-0.424,-0.1398,-0.6924
153,337723.0,86.361616,1.0,3.81,6.88,5.8,6.69,-25.0,-25.25,-2.38,-2.5,3.31,-0.25193754072249863,0.4132400314703992,0.04671863999725545,-50.17476615256415,-16.072546557241562,-87.6407824219454,-0.5668,-0.424,-0.1398,-0.6924
154,337756.0,86.40735500000001,1.0,3.92,6.69,5.73,6.69,-24.56,-23.69,2.81,1.0,2.06,-0.1691195148410769,0.2380118768902908,0.16973405473207848,-50.21272747501065,-16.118839093056636,-87.68843823597489,-0.5661,-0.4243,-0.1402,-0.6927
155,337756.0,86.40735500000001,1.0,3.92,6.69,5.73,6.69,-24.56,-23.69,2.81,1.0,2.06,-0.1691195148410769,0.2380118768902908,0.16973405473207848,-50.21272747501065,-16.118839093056636,-87.68843823597489,-0.5661,-0.4243,-0.1402,-0.6927
156,337793.0,86.425042,1.0,3.85,6.6,5.88,6.38,-25.0,-24.06,2.94,-0.12,-0.44,0.01344048675587428,0.3109197171261804,0.17025812944917895,-50.238038297036006,-16.188282864682783,-87.67255085031937,-0.5659,-0.4245,-0.1408,-0.6926
157,337793.0,86.425042,1.0,3.85,6.6,5.88,6.38,-25.0,-24.06,2.94,-0.12,-0.44,0.01344048675587428,0.3109197171261804,0.17025812944917895,-50.238038297036006,-16.188282864682783,-87.67255085031937,-0.5659,-0.4245,-0.1408,-0.6926
158,337827.0,86.428431,1.0,3.96,6.67,5.93,6.38,-25.0,-24.06,1.75,1.25,-0.12,0.01424784433522386,0.2414889572160588,0.04566234082971832,-50.250694690935106,-16.269308165184984,-87.67255085031937,-0.5657,-0.4246,-0.1415,-0.6926
159,337827.0,86.428431,1.0,3.96,6.67,5.93,6.38,-25.0,-24.06,1.75,1.25,-0.12,0.01424784433522386,0.2414889572160588,0.04566234082971832,-50.250694690935106,-16.269308165184984,-87.67255085031937,-0.5657,-0.4246,-0.1415,-0.6926
160,337860.0,86.517365,1.0,4.24,5.96,5.83,6.69,-24.56,-23.25,6.38,2.25,0.06,0.4436595276597415,-0.2819283824442058,0.4679251078806743,-50.326646830888215,-16.524012627926176,-87.67255085031937,-0.5646,-0.4252,-0.1437,-0.6926
161,337860.0,86.517365,1.0,4.24,5.96,5.83,6.69,-24.56,-23.25,6.38,2.25,0.06,0.4436595276597415,-0.2819283824442058,0.4679251078806743,-50.326646830888215,-16.524012627926176,-87.67255085031937,-0.5646,-0.4252,-0.1437,-0.6926
162,337895.0,86.529199,1.0,3.92,6.51,5.89,6.69,-24.56,-24.06,-2.31,-2.56,0.81,0.12012033680265488,0.20847672744853574,0.1951616366507132,-50.33930781936822,-16.454539675361616,-87.67255085031937,-0.5648,-0.4253,-0.1431,-0.6926
163,337895.0,86.529199,1.0,3.92,6.51,5.89,6.69,-24.56,-24.06,-2.31,-2.56,0.81,0.12012033680265488,0.20847672744853574,0.1951616366507132,-50.33930781936822,-16.454539675361616,-87.67255085031937,-0.5648,-0.4253,-0.1431,-0.6926
164,337932.0,86.574624,1.0,4.15,6.3,5.86,6.0,-24.56,-23.69,2.44,3.06,-1.88,0.24669132797937846,-0.08509713530721097,0.2576185377907425,-50.33930781936822,-16.55875139620892,-87.67255085031937,-0.5645,-0.4253,-0.14400000000000002,-0.6926
165,337932.0,86.574624,1.0,4.15,6.3,5.86,6.0,-24.56,-23.69,2.44,3.06,-1.88,0.24669132797937846,-0.08509713530721097,0.2576185377907425,-50.33930781936822,-16.55875139620892,-87.67255085031937,-0.5645,-0.4253,-0.14400000000000002,-0.6926
166,337965.0,86.591169,1.0,4.12,6.28,5.8,6.0,-24.56,-23.69,0.06,-0.06,0.12,0.21134963463303447,-0.0866270394102906,0.3197839691137485,-50.30132682508742,-16.581911426258042,-87.7043277374761,-0.5645,-0.425,-0.1442,-0.6928
167,337965.0,86.591169,1.0,4.12,6.28,5.8,6.0,-24.56,-23.69,0.06,-0.06,0.12,0.21134963463303447,-0.0866270394102906,0.3197839691137485,-50.30132682508742,-16.581911426258042,-87.7043277374761,-0.5645,-0.425,-0.1442,-0.6928
168,338001.0,86.63033,1.0,3.92,6.55,5.77,6.0,-24.56,-25.69,-0.56,0.37,-0.06,0.004111515423314893,0.17545535881844554,0.2394665841506516,-50.28866780725309,-16.524012627926176,-87.68843823597489,-0.5648,-0.4249,-0.1437,-0.6927
169,338001.0,86.63033,1.0,3.92,6.55,5.77,6.0,-24.56,-25.69,-0.56,0.37,-0.06,0.004111515423314893,0.17545535881844554,0.2394665841506516,-50.28866780725309,-16.524012627926176,-87.68843823597489,-0.5648,-0.4249,-0.1437,-0.6927
170,338036.0,86.690789,1.0,4.16,6.33,5.84,7.06,-24.25,-25.25,1.56,2.25,1.06,0.2048531575238156,-0.0983899234216925,0.2448272340823205,-50.2633517404334,-16.605072138436235,-87.75200894857093,-0.5642,-0.4247,-0.1444,-0.6931
171,338036.0,86.690789,1.0,4.16,6.33,5.84,7.06,-24.25,-25.25,1.56,2.25,1.06,0.2048531575238156,-0.0983899234216925,0.2448272340823205,-50.2633517404334,-16.605072138436235,-87.75200894857093,-0.5642,-0.4247,-0.1444,-0.6931
172,338071.0,86.70939399999999,1.0,3.95,6.67,5.84,7.06,-24.25,-25.25,-2.56,-1.31,1.56,-0.02960751067433532,0.20546435820452968,0.10335634305962492,-50.238038297036006,-16.53559204728263,-87.76790692497644,-0.5644,-0.4245,-0.1438,-0.6932
173,338071.0,86.70939399999999,1.0,3.95,6.67,5.84,7.06,-24.25,-25.25,-2.56,-1.31,1.56,-0.02960751067433532,0.20546435820452968,0.10335634305962492,-50.238038297036006,-16.53559204728263,-87.76790692497644,-0.5644,-0.4245,-0.1438,-0.6932
174,338104.0,86.75458499999999,1.0,3.95,6.7,5.74,6.0,-24.56,-23.69,2.19,1.12,3.13,-0.12003768916685666,0.19785541920377847,0.14297863833463964,-50.27600944578726,-16.55875139620892,-87.8633393777306,-0.5634,-0.4248,-0.14400000000000002,-0.6938
175,338104.0,86.75458499999999,1.0,3.95,6.7,5.74,6.0,-24.56,-23.69,2.19,1.12,3.13,-0.12003768916685666,0.19785541920377847,0.14297863833463964,-50.27600944578726,-16.55875139620892,-87.8633393777306,-0.5634,-0.4248,-0.14400000000000002,-0.6938
176,338141.0,86.763401,1.0,4.24,6.37,5.73,6.38,-25.25,-24.5,1.12,2.44,0.5,0.1005865865229456,-0.184369337827464,0.24928162340800064,-50.27600944578726,-16.69772182857332,-87.91108432402599,-0.5628,-0.4248,-0.1452,-0.6941
177,338141.0,86.763401,1.0,4.24,6.37,5.73,6.38,-25.25,-24.5,1.12,2.44,0.5,0.1005865865229456,-0.184369337827464,0.24928162340800064,-50.27600944578726,-16.69772182857332,-87.91108432402599,-0.5628,-0.4248,-0.1452,-0.6941
