,TIME,ELAPSED_SECONDS,PSTATE,acc_x,acc_y,acc_z,mag_x,mag_y,mag_z,gyr_x,gyr_y,gyr_z,lin_x,lin_y,lin_z,eul_x,eul_y,eul_z,qua_w,qua_x,qua_y,qua_z
0,2062307.0,2002.4037309999999,1.0,0.89,-2.89,-9.36,-3.25,-4.25,41.5,0.19,1.06,0.31,-0.14730878761749538,-0.17921737483312386,-0.026964861974638762,-162.8334582675195,-1.0313379546174166,-5.961449757231111,0.14,-0.9888,-0.009000000000000001,-0.052000000000000005
1,2062307.0,2002.4037309999999,1.0,0.89,-2.89,-9.36,-3.25,-4.25,41.5,0.19,1.06,0.31,-0.14730878761749538,-0.17921737483312386,-0.026964861974638762,-162.8334582675195,-1.0313379546174166,-5.961449757231111,0.14,-0.9888,-0.009000000000000001,-0.052000000000000005
2,2062342.0,2002.485947,1.0,0.87,-2.64,-9.4,-3.69,-5.0,42.56,-1.37,1.5,1.06,-0.1715550024408608,0.06864820784859504,0.006019596566927632,-162.8334582675195,-0.9740399810272836,-6.01882390838285,0.1398,-0.9888,-0.0085,-0.0525
3,2062342.0,2002.485947,1.0,0.87,-2.64,-9.4,-3.69,-5.0,42.56,-1.37,1.5,1.06,-0.1715550024408608,0.06864820784859504,0.006019596566927632,-162.8334582675195,-0.9740399810272836,-6.01882390838285,0.1398,-0.9888,-0.0085,-0.0525
4,2062379.0,2002.5012170000002,1.0,0.92,-2.78,-9.39,-4.0,-3.75,42.19,0.12,2.69,-2.44,-0.1406496397170934,-0.06688901956500026,-0.0281170810197171,-162.75684793649998,-1.0427975798203954,-6.099150260471113,0.1399,-0.9887,-0.0091,-0.0532
5,2062379.0,2002.5012170000002,1.0,0.92,-2.78,-9.39,-4.0,-3.75,42.19,0.12,2.69,-2.44,-0.1406496397170934,-0.06688901956500026,-0.0281170810197171,-162.75684793649998,-1.0427975798203954,-6.099150260471113,0.1399,-0.9887,-0.0091,-0.0532
6,2062411.0,2002.542595,1.0,0.93,-2.84,-9.35,-4.0,-3.75,42.19,2.31,2.56,0.69,-0.1418389134485031,-0.12356245840609616,-0.007503760844809194,-162.68057392822612,-1.0313379546174166,-6.17947961245989,0.1405,-0.9886,-0.009000000000000001,-0.0539
7,2062411.0,2002.542595,1.0,0.93,-2.84,-9.35,-4.0,-3.75,42.19,2.31,2.56,0.69,-0.1418389134485031,-0.12356245840609616,-0.007503760844809194,-162.68057392822612,-1.0313379546174166,-6.17947961245989,0.1405,-0.9886,-0.009000000000000001,-0.0539
8,2062448.0,2002.561011,1.0,1.17,-2.82,-9.58,-3.69,-3.56,41.0,0.0,2.56,-0.81,0.05747288713693195,-0.03844908201085695,-0.2478474282823644,-162.60463181843892,-1.0313379546174166,-6.271288310584378,0.1406,-0.9885,-0.009000000000000001,-0.0547
9,2062448.0,2002.561011,1.0,1.17,-2.82,-9.58,-3.69,-3.56,41.0,0.0,2.56,-0.81,0.05747288713693195,-0.03844908201085695,-0.2478474282823644,-162.60463181843892,-1.0313379546174166,-6.271288310584378,0.1406,-0.9885,-0.009000000000000001,-0.0547
10,2062483.0,2002.609095,1.0,1.13,-2.8,-9.33,-4.38,-3.88,41.0,1.12,-0.31,-0.63,0.04264084129449454,-0.07929287962349463,0.0006470223390859786,-162.60463181843892,-1.0427975798203954,-6.282764679968377,0.1411,-0.9885,-0.0091,-0.0548
11,2062483.0,2002.609095,1.0,1.13,-2.8,-9.33,-4.38,-3.88,41.0,1.12,-0.31,-0.63,0.04264084129449454,-0.07929287962349463,0.0006470223390859786,-162.60463181843892,-1.0427975798203954,-6.282764679968377,0.1411,-0.9885,-0.0091,-0.0548
12,2062518.0,2002.626537,1.0,1.06,-2.84,-9.32,-4.38,-3.88,41.0,-2.31,1.56,-1.06,-0.031466760929730817,-0.11816943519083,0.00682113274199736,-162.52901727888843,-1.0542572154525014,-6.3057176080928565,0.1412,-0.9884,-0.0092,-0.055
13,2062518.0,2002.626537,1.0,1.06,-2.84,-9.32,-4.38,-3.88,41.0,-2.31,1.56,-1.06,-0.031466760929730817,-0.11816943519083,0.00682113274199736,-162.52901727888843,-1.0542572154525014,-6.3057176080928565,0.1412,-0.9884,-0.0092,-0.055
14,2062553.0,2002.699195,1.0,1.05,-2.85,-9.41,-4.0,-3.56,41.38,-0.94,0.5,-1.31,-0.059976462574823926,-0.1128111371982563,-0.08055266158538288,-162.60463181843892,-1.0886361860699356,-6.351624225020216,0.1407,-0.9885,-0.0095,-0.0554
15,2062553.0,2002.699195,1.0,1.05,-2.85,-9.41,-4.0,-3.56,41.38,-0.94,0.5,-1.31,-0.059976462574823926,-0.1128111371982563,-0.08055266158538288,-162.60463181843892,-1.0886361860699356,-6.351624225020216,0.1407,-0.9885,-0.0095,-0.0554
16,2062587.0,2002.7069329999997,1.0,1.15,-2.68,-9.31,-4.38,-4.25,41.5,-1.12,-1.25,2.56,0.06305665845787556,0.022728224583724588,0.050805224398486,-162.60463181843892,-1.0313379546174166,-6.317194167065648,0.1407,-0.9885,-0.009000000000000001,-0.0551
17,2062587.0,2002.7069329999997,1.0,1.15,-2.68,-9.31,-4.38,-4.25,41.5,-1.12,-1.25,2.56,0.06305665845787556,0.022728224583724588,0.050805224398486,-162.60463181843892,-1.0313379546174166,-6.317194167065648,0.1407,-0.9885,-0.009000000000000001,-0.0551
18,2062622.0,2002.794059,1.0,1.08,-2.85,-9.3,-4.38,-4.25,41.5,0.81,0.94,-2.81,-0.01362484244770441,-0.14140390675597847,0.021011579394908608,-162.60463181843892,-1.0542572154525014,-6.328670789467022,0.1408,-0.9885,-0.0092,-0.0552
19,2062622.0,2002.794059,1.0,1.08,-2.85,-9.3,-4.38,-4.25,41.5,0.81,0.94,-2.81,-0.01362484244770441,-0.14140390675597847,0.021011579394908608,-162.60463181843892,-1.0542572154525014,-6.328670789467022,0.1408,-0.9885,-0.0092,-0.0552
20,2062657.0,2002.799648,1.0,1.18,-2.87,-9.57,-3.25,-4.25,41.75,0.88,1.94,-0.63,0.04053149284834525,-0.08177185018693467,-0.2534628503911165,-162.52901727888843,-1.1230152546764245,-6.409008932036036,0.141,-0.9884,-0.0098,-0.0559
21,2062657.0,2002.799648,1.0,1.18,-2.87,-9.57,-3.25,-4.25,41.75,0.88,1.94,-0.63,0.04053149284834525,-0.08177185018693467,-0.2534628503911165,-162.52901727888843,-1.1230152546764245,-6.409008932036036,0.141,-0.9884,-0.0098,-0.0559
22,2062690.0,2002.815452,1.0,1.09,-2.91,-9.46,-4.0,-5.0,41.38,3.38,-1.19,2.0,-0.03298173468956507,-0.12595976399037734,-0.14979747603443094,-162.37875406030932,-1.0657168616283692,-6.386054856968827,0.1422,-0.9882,-0.0093,-0.0557
23,2062690.0,2002.815452,1.0,1.09,-2.91,-9.46,-4.0,-5.0,41.38,3.38,-1.19,2.0,-0.03298173468956507,-0.12595976399037734,-0.14979747603443094,-162.37875406030932,-1.0657168616283692,-6.386054856968827,0.1422,-0.9882,-0.0093,-0.0557
24,2062727.0,2002.860114,1.0,0.99,-2.72,-9.29,-4.38,-4.25,41.75,-1.06,0.69,-1.12,-0.10426039884854092,0.010340148435881602,0.07671562968884693,-162.37875406030932,-1.0886361860699356,-6.3631010384043885,0.1423,-0.9882,-0.0095,-0.0555
25,2062727.0,2002.860114,1.0,0.99,-2.72,-9.29,-4.38,-4.25,41.75,-1.06,0.69,-1.12,-0.10426039884854092,0.010340148435881602,0.07671562968884693,-162.37875406030932,-1.0886361860699356,-6.3631010384043885,0.1423,-0.9882,-0.0095,-0.0555
26,2062761.0,2002.877172,1.0,1.19,-2.76,-9.37,-4.38,-4.25,41.75,1.37,3.63,0.75,0.06373779557918742,-0.0016798155178046061,-0.033397493362747,-162.37875406030932,-1.0657168616283692,-6.48935022815341,0.1425,-0.9882,-0.0093,-0.0566
27,2062761.0,2002.877172,1.0,1.19,-2.76,-9.37,-4.38,-4.25,41.75,1.37,3.63,0.75,0.06373779557918742,-0.0016798155178046061,-0.033397493362747,-162.37875406030932,-1.0657168616283692,-6.48935022815341,0.1425,-0.9882,-0.0093,-0.0566
28,2062798.0,2002.918931,1.0,1.29,-2.66,-9.34,-3.69,-4.25,41.38,2.69,4.06,0.12,0.1532807402671455,0.0965416571072939,0.011626532794513977,-162.22975145954382,-1.0198783397289315,-6.592650878252481,0.14300000000000002,-0.988,-0.0089,-0.0575
29,2062798.0,2002.918931,1.0,1.29,-2.66,-9.34,-3.69,-4.25,41.38,2.69,4.06,0.12,0.1532807402671455,0.0965416571072939,0.011626532794513977,-162.22975145954382,-1.0198783397289315,-6.592650878252481,0.14300000000000002,-0.988,-0.0089,-0.0575
30,2062833.0,2002.935432,1.0,1.26,-3.05,-9.18,-3.69,-3.88,42.19,6.88,1.37,-2.69,0.11279884059696214,-0.2996628412958293,0.0567793032621946,-162.08197802585826,-1.0771765184626354,-6.6729995322127,0.1442,-0.9878,-0.0094,-0.0582
31,2062833.0,2002.935432,1.0,1.26,-3.05,-9.18,-3.69,-3.88,42.19,6.88,1.37,-2.69,0.11279884059696214,-0.2996628412958293,0.0567793032621946,-162.08197802585826,-1.0771765184626354,-6.6729995322127,0.1442,-0.9878,-0.0094,-0.0582
32,2062866.0,2002.987744,1.0,1.08,-3.28,-9.2,-3.69,-3.88,42.19,6.06,1.94,3.63,-0.07765933976057332,-0.4680526699078695,-0.00862868810356332,-161.7899992062843,-1.0542572154525014,-6.684478178549483,0.1465,-0.9874,-0.0092,-0.0583
33,2062866.0,2002.987744,1.0,1.08,-3.28,-9.2,-3.69,-3.88,42.19,6.06,1.94,3.63,-0.07765933976057332,-0.4680526699078695,-0.00862868810356332,-161.7899992062843,-1.0542572154525014,-6.684478178549483,0.1465,-0.9874,-0.0092,-0.0583
34,2062901.0,2003.0344289999998,1.0,1.18,-2.54,-9.9,-3.25,-3.56,41.75,-1.88,-9.25,5.25,0.025528007804467973,0.4503216530713596,-0.4719957634064134,-161.86255690793462,-0.8823637238721431,-6.386054856968827,0.1468,-0.9875,-0.0077,-0.0557
35,2062901.0,2003.0344289999998,1.0,1.18,-2.54,-9.9,-3.25,-3.56,41.75,-1.88,-9.25,5.25,0.025528007804467973,0.4503216530713596,-0.4719957634064134,-161.86255690793462,-0.8823637238721431,-6.386054856968827,0.1468,-0.9875,-0.0077,-0.0557
36,2062938.0,2003.092509,1.0,0.52,-2.75,-8.96,-3.25,-4.25,41.75,4.06,-8.0,-3.13,-0.4870790144496853,0.01824618011268964,0.4323809025933088,-161.7899992062843,-0.9511208605830096,-6.076199569788739,0.1491,-0.9874,-0.0083,-0.053
37,2062938.0,2003.092509,1.0,0.52,-2.75,-8.96,-3.25,-4.25,41.75,4.06,-8.0,-3.13,-0.4870790144496853,0.01824618011268964,0.4323809025933088,-161.7899992062843,-0.9511208605830096,-6.076199569788739,0.1491,-0.9874,-0.0083,-0.053
38,2062972.0,2003.109622,1.0,0.85,-2.92,-9.4,-3.25,-4.25,41.75,-1.0,9.13,-11.75,-0.2437357814607074,-0.03325256322609671,-0.0700087030166543,-161.7899992062843,-1.2146932735575866,-6.236859579751598,0.1482,-0.9874,-0.0106,-0.0544
39,2062972.0,2003.109622,1.0,0.85,-2.92,-9.4,-3.25,-4.25,41.75,-1.0,9.13,-11.75,-0.2437357814607074,-0.03325256322609671,-0.0700087030166543,-161.7899992062843,-1.2146932735575866,-6.236859579751598,0.1482,-0.9874,-0.0106,-0.0544
40,2063005.0,2003.1489829999998,1.0,1.21,-3.0,-9.48,-4.0,-4.25,41.38,1.75,9.94,0.0,0.027640041963182697,-0.0777974040995606,-0.20972077947874726,-161.57402592832648,-1.3522117780748235,-6.650042440520529,0.1487,-0.9871,-0.0118,-0.057999999999999996
41,2063005.0,2003.1489829999998,1.0,1.21,-3.0,-9.48,-4.0,-4.25,41.38,1.75,9.94,0.0,0.027640041963182697,-0.0777974040995606,-0.20972077947874726,-161.57402592832648,-1.3522117780748235,-6.650042440520529,0.1487,-0.9871,-0.0118,-0.057999999999999996
42,2063040.0,2003.156259,1.0,1.4,-3.0,-9.42,-4.0,-3.88,41.75,1.94,7.63,2.38,0.1747675219383226,-0.07768797558676854,-0.17632655470174718,-161.36053358743402,-1.237612897472461,-6.948505812979428,0.1495,-0.9868,-0.0108,-0.0606
43,2063040.0,2003.156259,1.0,1.4,-3.0,-9.42,-4.0,-3.88,41.75,1.94,7.63,2.38,0.1747675219383226,-0.07768797558676854,-0.17632655470174718,-161.36053358743402,-1.237612897472461,-6.948505812979428,0.1495,-0.9868,-0.0108,-0.0606
44,2063077.0,2003.220225,1.0,1.5,-3.17,-9.32,-4.0,-4.25,41.75,3.38,2.06,4.0,0.25826576312022925,-0.2402198249979812,-0.1450781530032721,-161.21954183361512,-1.1459346897143057,-7.086273935339353,0.1509,-0.9866,-0.01,-0.0618
45,2063077.0,2003.220225,1.0,1.5,-3.17,-9.32,-4.0,-4.25,41.75,3.38,2.06,4.0,0.25826576312022925,-0.2402198249979812,-0.1450781530032721,-161.21954183361512,-1.1459346897143057,-7.086273935339353,0.1509,-0.9866,-0.01,-0.0618
46,2063112.0,2003.236662,1.0,1.08,-3.29,-9.19,-4.0,-4.25,41.75,5.06,0.25,1.69,-0.14932787027720348,-0.358727047168808,-0.006382971145464822,-161.00999937311443,-1.0771765184626354,-7.109236280779951,0.1526,-0.9863,-0.0094,-0.062
47,2063112.0,2003.236662,1.0,1.08,-3.29,-9.19,-4.0,-4.25,41.75,5.06,0.25,1.69,-0.14932787027720348,-0.358727047168808,-0.006382971145464822,-161.00999937311443,-1.0771765184626354,-7.109236280779951,0.1526,-0.9863,-0.0094,-0.062
48,2063147.0,2003.277589,1.0,0.7,-3.31,-8.84,-3.69,-2.75,41.38,1.19,2.13,-2.94,-0.4928150336476153,-0.4760324740503983,0.3661931028863705,-160.94065918134044,-1.1344749665222489,-7.143680335170353,0.153,-0.9862,-0.0099,-0.0623
49,2063147.0,2003.277589,1.0,0.7,-3.31,-8.84,-3.69,-2.75,41.38,1.19,2.13,-2.94,-0.4928150336476153,-0.4760324740503983,0.3661931028863705,-160.94065918134044,-1.1344749665222489,-7.143680335170353,0.153,-0.9862,-0.0099,-0.0623
50,2063183.0,2003.2951489999998,1.0,0.58,-3.27,-8.42,-4.0,-3.19,41.75,-5.0,5.19,-3.13,-0.5830318206808893,-0.5814622406953334,0.7929007490656765,-161.00999937311443,-1.1917736982377245,-7.281463046960031,0.1521,-0.9863,-0.0104,-0.0635
51,2063183.0,2003.2951489999998,1.0,0.58,-3.27,-8.42,-4.0,-3.19,41.75,-5.0,5.19,-3.13,-0.5830318206808893,-0.5814622406953334,0.7929007490656765,-161.00999937311443,-1.1917736982377245,-7.281463046960031,0.1521,-0.9863,-0.0104,-0.0635
52,2063216.0,2003.369477,1.0,0.27,-3.27,-7.74,-4.0,-3.19,41.75,-7.88,10.44,-5.38,-0.8527630404431116,-0.8259213568011718,1.4841474250989943,-161.14943788464137,-1.283452294756085,-7.580028689727107,0.1497,-0.9865,-0.0112,-0.0661
53,2063216.0,2003.369477,1.0,0.27,-3.27,-7.74,-4.0,-3.19,41.75,-7.88,10.44,-5.38,-0.8527630404431116,-0.8259213568011718,1.4841474250989943,-161.14943788464137,-1.283452294756085,-7.580028689727107,0.1497,-0.9865,-0.0112,-0.0661
54,2063251.0,2003.376064,1.0,-0.44,-3.52,-6.97,-4.75,-3.56,41.0,-9.75,14.81,-5.94,-1.5566429510603648,-1.3298685366863785,2.258589825488557,-161.14943788464137,-1.432431792389882,-8.22327089407658,0.1471,-0.9865,-0.0125,-0.0717
55,2063251.0,2003.376064,1.0,-0.44,-3.52,-6.97,-4.75,-3.56,41.0,-9.75,14.81,-5.94,-1.5566429510603648,-1.3298685366863785,2.258589825488557,-161.14943788464137,-1.432431792389882,-8.22327089407658,0.1471,-0.9865,-0.0125,-0.0717
56,2063288.0,2003.4376140000002,1.0,-0.37,-3.79,-6.41,-4.75,-3.06,41.75,-54.63,40.19,-6.31,-1.5437158953047927,-1.885296748197344,2.760253942026828,-161.57402592832648,-1.4668120111410634,-9.257605761151561,0.1379,-0.9871,-0.0128,-0.0807
57,2063288.0,2003.4376140000002,1.0,-0.37,-3.79,-6.41,-4.75,-3.06,41.75,-54.63,40.19,-6.31,-1.5437158953047927,-1.885296748197344,2.760253942026828,-161.57402592832648,-1.4668120111410634,-9.257605761151561,0.1379,-0.9871,-0.0128,-0.0807
58,2063323.0,2003.4541629999999,1.0,0.59,-2.81,-6.87,-4.75,-3.06,41.75,-54.75,47.0,0.25,-0.8233454507251569,-1.09463008325517,2.4878394921645217,-162.37875406030932,-1.1803139285143014,-10.971708923508501,0.1193,-0.9882,-0.0103,-0.0956
59,2063323.0,2003.4541629999999,1.0,0.59,-2.81,-6.87,-4.75,-3.06,41.75,-54.75,47.0,0.25,-0.8233454507251569,-1.09463008325517,2.4878394921645217,-162.37875406030932,-1.1803139285143014,-10.971708923508501,0.1193,-0.9882,-0.0103,-0.0956
60,2063357.0,2003.4952079999998,1.0,0.98,-3.83,-6.74,-5.19,-5.0,41.75,-46.0,55.31,18.56,-0.6026679056968813,-2.281063421006478,2.3574593684757152,-162.37875406030932,-0.5385823103159236,-12.423127669242316,0.10800000000000001,-0.9882,-0.0047,-0.1082
61,2063357.0,2003.4952079999998,1.0,0.98,-3.83,-6.74,-5.19,-5.0,41.75,-46.0,55.31,18.56,-0.6026679056968813,-2.281063421006478,2.3574593684757152,-162.37875406030932,-0.5385823103159236,-12.423127669242316,0.10800000000000001,-0.9882,-0.0047,-0.1082
62,2063392.0,2003.5095410000001,1.0,1.51,-2.47,-7.16,-7.75,-6.5,38.5,-57.5,85.5,29.44,-0.4605380910598896,-1.1075157076754711,2.17723890713477,-161.36053358743402,1.1459346897143057,-15.39003407585724,0.0902,-0.9868,0.01,-0.1339
63,2063392.0,2003.5095410000001,1.0,1.51,-2.47,-7.16,-7.75,-6.5,38.5,-57.5,85.5,29.44,-0.4605380910598896,-1.1075157076754711,2.17723890713477,-161.36053358743402,1.1459346897143057,-15.39003407585724,0.0902,-0.9868,0.01,-0.1339
64,2063429.0,2003.556193,1.0,3.21,-1.52,-8.02,-10.0,-8.75,40.56,-70.06,104.0,12.75,0.5268306580440549,-0.16001271329548486,1.0526940148851145,-159.53822461146382,2.1544482337672357,-18.332536130219392,0.0756,-0.9841,0.0188,-0.1593
65,2063429.0,2003.556193,1.0,3.21,-1.52,-8.02,-10.0,-8.75,40.56,-70.06,104.0,12.75,0.5268306580440549,-0.16001271329548486,1.0526940148851145,-159.53822461146382,2.1544482337672357,-18.332536130219392,0.0756,-0.9841,0.0188,-0.1593
66,2063464.0,2003.573793,1.0,3.59,-1.25,-8.12,-10.0,-8.75,40.56,-60.69,104.12,1.63,0.2614619821011292,-0.2091576376077928,0.847136022414718,-156.70033876277134,2.9911793597011727,-22.267504416511226,0.0538,-0.9794,0.0261,-0.1931
67,2063464.0,2003.573793,1.0,3.59,-1.25,-8.12,-10.0,-8.75,40.56,-60.69,104.12,1.63,0.2614619821011292,-0.2091576376077928,0.847136022414718,-156.70033876277134,2.9911793597011727,-22.267504416511226,0.0538,-0.9794,0.0261,-0.1931
68,2063499.0,2003.626946,1.0,4.56,-0.63,-8.12,-13.0,-9.5,39.25,-61.81,118.5,7.75,0.6187113765129985,0.2071520869696444,0.4954103271402417,-153.81215335885898,3.6560909909367436,-25.535549170145078,0.0373,-0.9740000000000001,0.0319,-0.221
69,2063499.0,2003.626946,1.0,4.56,-0.63,-8.12,-13.0,-9.5,39.25,-61.81,118.5,7.75,0.6187113765129985,0.2071520869696444,0.4954103271402417,-153.81215335885898,3.6560909909367436,-25.535549170145078,0.0373,-0.9740000000000001,0.0319,-0.221
70,2063538.0,2003.670465,1.0,5.58,-0.42,-8.34,-16.37,-9.75,36.5,-70.69,116.87,14.63,0.6504214051349351,0.16281312196473718,-0.21427031118192372,-149.46197984083236,4.871608567013157,-30.09265778200395,0.0162,-0.9647,0.0425,-0.2596
71,2063538.0,2003.670465,1.0,5.58,-0.42,-8.34,-16.37,-9.75,36.5,-70.69,116.87,14.63,0.6504214051349351,0.16281312196473718,-0.21427031118192372,-149.46197984083236,4.871608567013157,-30.09265778200395,0.0162,-0.9647,0.0425,-0.2596
72,2063570.0,2003.690586,1.0,6.65,1.0,-8.42,-16.37,-9.75,36.5,-53.81,110.37,2.19,0.8218388390569429,1.4006314570121472,-0.8461295642379483,-146.23408088100356,5.5598717686300585,-33.2731430190265,0.0011,-0.9569,0.0485,-0.2863
73,2063570.0,2003.690586,1.0,6.65,1.0,-8.42,-16.37,-9.75,36.5,-53.81,110.37,2.19,0.8218388390569429,1.4006314570121472,-0.8461295642379483,-146.23408088100356,5.5598717686300585,-33.2731430190265,0.0011,-0.9569,0.0485,-0.2863
74,2063605.0,2003.7353690000002,1.0,7.77,1.64,-9.06,-19.75,-12.0,32.5,-41.44,110.06,-3.19,0.456460160231141,1.6924757027753792,-2.112799237176887,-141.95828650840244,6.04177399090254,-37.47102265081461,-0.0183,-0.9454,0.0527,-0.3212
75,2063605.0,2003.7353690000002,1.0,7.77,1.64,-9.06,-19.75,-12.0,32.5,-41.44,110.06,-3.19,0.456460160231141,1.6924757027753792,-2.112799237176887,-141.95828650840244,6.04177399090254,-37.47102265081461,-0.0183,-0.9454,0.0527,-0.3212
76,2063640.0,2003.789616,1.0,8.39,1.05,-9.31,-22.87,-12.88,30.87,-35.44,81.44,1.75,0.29582088389982125,0.9041271542994476,-2.7339139463904143,-139.2717303873644,6.386054856968827,-40.0341291935956,-0.0284,-0.9375,0.0557,-0.3423
77,2063640.0,2003.789616,1.0,8.39,1.05,-9.31,-22.87,-12.88,30.87,-35.44,81.44,1.75,0.29582088389982125,0.9041271542994476,-2.7339139463904143,-139.2717303873644,6.386054856968827,-40.0341291935956,-0.0284,-0.9375,0.0557,-0.3423
78,2063677.0,2003.7967609999998,1.0,8.48,1.42,-8.72,-25.5,-14.0,28.0,-31.25,57.25,0.69,0.20536036070087585,1.0703215504470902,-2.3907857510462573,-136.83846436491558,6.89110540785609,-42.286383276048326,-0.0405,-0.9299,0.0601,-0.3607
79,2063677.0,2003.7967609999998,1.0,8.48,1.42,-8.72,-25.5,-14.0,28.0,-31.25,57.25,0.69,0.20536036070087585,1.0703215504470902,-2.3907857510462573,-136.83846436491558,6.89110540785609,-42.286383276048326,-0.0405,-0.9299,0.0601,-0.3607
80,2063712.0,2003.811166,1.0,9.02,1.02,-8.97,-25.5,-14.0,28.0,-21.5,47.56,6.56,0.06752892678114861,0.5116009793120346,-2.94464029871153,-134.7969534952698,7.315910364212048,-44.17226486112258,-0.0483,-0.9232,0.0638,-0.376
81,2063712.0,2003.811166,1.0,9.02,1.02,-8.97,-25.5,-14.0,28.0,-21.5,47.56,6.56,0.06752892678114861,0.5116009793120346,-2.94464029871153,-134.7969534952698,7.315910364212048,-44.17226486112258,-0.0483,-0.9232,0.0638,-0.376
82,2063749.0,2003.8606379999999,1.0,8.16,1.03,-8.27,-27.0,-14.38,27.06,-14.75,30.19,6.69,-0.2594255606073915,0.4713428122990339,-1.8445273796383983,-133.73534909546765,7.694875241065197,-45.11370802914807,-0.0524,-0.9196,0.0671,-0.3836
83,2063749.0,2003.8606379999999,1.0,8.16,1.03,-8.27,-27.0,-14.38,27.06,-14.75,30.19,6.69,-0.2594255606073915,0.4713428122990339,-1.8445273796383983,-133.73534909546765,7.694875241065197,-45.11370802914807,-0.0524,-0.9196,0.0671,-0.3836
84,2063785.0,2003.902466,1.0,7.48,1.47,-7.7,-28.87,-15.5,25.37,-18.75,27.44,1.12,-0.6169606997290076,0.8135932154666436,-0.9803201758527412,-132.49673400768697,7.970538771598189,-46.19537604537457,-0.0583,-0.9153,0.0695,-0.3923
85,2063785.0,2003.902466,1.0,7.48,1.47,-7.7,-28.87,-15.5,25.37,-18.75,27.44,1.12,-0.6169606997290076,0.8135932154666436,-0.9803201758527412,-132.49673400768697,7.970538771598189,-46.19537604537457,-0.0583,-0.9153,0.0695,-0.3923
86,2063818.0,2003.96057,1.0,8.41,0.78,-7.5,-28.87,-15.5,25.37,-2.63,34.81,3.75,0.07872740146366243,0.20752454782677027,-1.4865884885075396,-131.48269259246572,8.004999928704901,-47.21887922414317,-0.0593,-0.9117,0.0698,-0.4005
87,2063818.0,2003.96057,1.0,8.41,0.78,-7.5,-28.87,-15.5,25.37,-2.63,34.81,3.75,0.07872740146366243,0.20752454782677027,-1.4865884885075396,-131.48269259246572,8.004999928704901,-47.21887922414317,-0.0593,-0.9117,0.0698,-0.4005
88,2063853.0,2003.977559,1.0,8.47,1.15,-7.28,-29.25,-14.75,25.0,-6.81,19.0,6.19,0.042915622720469455,0.5775950710582747,-1.4061258464715447,-130.57034285366944,8.292204739238791,-48.058128241744505,-0.0614,-0.9084,0.0723,-0.4072
89,2063853.0,2003.977559,1.0,8.47,1.15,-7.28,-29.25,-14.75,25.0,-6.81,19.0,6.19,0.042915622720469455,0.5775950710582747,-1.4061258464715447,-130.57034285366944,8.292204739238791,-48.058128241744505,-0.0614,-0.9084,0.0723,-0.4072
90,2063890.0,2004.0172760000003,1.0,8.28,1.62,-6.93,-29.25,-14.75,24.56,-1.69,11.38,1.88,0.02383636091913388,1.0781968842061749,-1.0581842512339408,-130.24247093533856,8.326672787534774,-48.397106226699925,-0.0615,-0.9072,0.0726,-0.4099
91,2063890.0,2004.0172760000003,1.0,8.28,1.62,-6.93,-29.25,-14.75,24.56,-1.69,11.38,1.88,0.02383636091913388,1.0781968842061749,-1.0581842512339408,-130.24247093533856,8.326672787534774,-48.397106226699925,-0.0615,-0.9072,0.0726,-0.4099
92,2063925.0,2004.064682,1.0,7.84,0.98,-6.94,-29.25,-14.75,24.56,3.88,0.19,-10.0,-0.16729545043679092,0.3887239384076846,-0.7009903598511098,-130.18802216268048,7.970538771598189,-48.51019892418311,-0.0613,-0.907,0.0695,-0.4108
93,2063925.0,2004.064682,1.0,7.84,0.98,-6.94,-29.25,-14.75,24.56,3.88,0.19,-10.0,-0.16729545043679092,0.3887239384076846,-0.7009903598511098,-130.18802216268048,7.970538771598189,-48.51019892418311,-0.0613,-0.907,0.0695,-0.4108
94,2063960.0,2004.092066,1.0,7.33,-0.18,-7.1,-30.37,-14.69,23.69,12.31,-17.19,1.94,-0.3580574606640403,-0.7843129461240027,-0.3633031983881399,-130.5977575270689,7.729330710703709,-48.1836233337003,-0.059000000000000004,-0.9085,0.0674,-0.4082
95,2063960.0,2004.092066,1.0,7.33,-0.18,-7.1,-30.37,-14.69,23.69,12.31,-17.19,1.94,-0.3580574606640403,-0.7843129461240027,-0.3633031983881399,-130.5977575270689,7.729330710703709,-48.1836233337003,-0.059000000000000004,-0.9085,0.0674,-0.4082
96,2063996.0,2004.131016,1.0,6.95,0.03,-6.31,-29.19,-14.69,22.06,0.69,-31.0,15.94,0.12788231314098028,-0.3382033451062876,0.426417347696292,-131.7904095910964,8.257737442475136,-46.943892407350866,-0.0539,-0.9128,0.07200000000000001,-0.3983
97,2063996.0,2004.131016,1.0,6.95,0.03,-6.31,-29.19,-14.69,22.06,0.69,-31.0,15.94,0.12788231314098028,-0.3382033451062876,0.426417347696292,-131.7904095910964,8.257737442475136,-46.943892407350866,-0.0539,-0.9128,0.07200000000000001,-0.3983
98,2064031.0,2004.148436,1.0,7.88,0.15,-7.23,-30.0,-14.0,24.75,1.31,2.94,4.75,0.08619083059998334,-0.2426716894973289,-0.8855659345870368,-131.90276546625157,8.384121213370948,-46.84396830154976,-0.0525,-0.9132,0.0731,-0.3975
99,2064031.0,2004.148436,1.0,7.88,0.15,-7.23,-30.0,-14.0,24.75,1.31,2.94,4.75,0.08619083059998334,-0.2426716894973289,-0.8855659345870368,-131.90276546625157,8.384121213370948,-46.84396830154976,-0.0525,-0.9132,0.0731,-0.3975
100,2064064.0,2004.192693,1.0,7.37,0.58,-7.24,-30.0,-14.0,24.75,-9.25,-8.63,5.88,-0.3043494255968128,0.13162096960422093,-0.5355425793082844,-132.01536875371886,8.705871826379285,-46.61927683962218,-0.0538,-0.9136,0.0759,-0.3957
101,2064064.0,2004.192693,1.0,7.37,0.58,-7.24,-30.0,-14.0,24.75,-9.25,-8.63,5.88,-0.3043494255968128,0.13162096960422093,-0.5355425793082844,-132.01536875371886,8.705871826379285,-46.61927683962218,-0.0538,-0.9136,0.0759,-0.3957
102,2064101.0,2004.2103489999997,1.0,7.58,0.18,-7.45,-30.0,-14.0,24.5,-3.56,0.37,7.94,-0.23800864523183976,-0.2539844624630525,-0.8173861340510467,-132.01536875371886,8.912747665103913,-46.59432285421078,-0.0535,-0.9136,0.0777,-0.3955
103,2064101.0,2004.2103489999997,1.0,7.58,0.18,-7.45,-30.0,-14.0,24.5,-3.56,0.37,7.94,-0.23800864523183976,-0.2539844624630525,-0.8173861340510467,-132.01536875371886,8.912747665103913,-46.59432285421078,-0.0535,-0.9136,0.0777,-0.3955
104,2064138.0,2004.265562,1.0,7.82,-0.4,-7.44,-29.56,-14.38,24.5,-3.5,-9.81,13.5,0.06124963209268852,-0.7331062157697195,-0.9694719257657028,-132.09998463629478,9.303593121383253,-46.44464801216442,-0.0518,-0.9139,0.0811,-0.3943
105,2064138.0,2004.265562,1.0,7.82,-0.4,-7.44,-29.56,-14.38,24.5,-3.5,-9.81,13.5,0.06124963209268852,-0.7331062157697195,-0.9694719257657028,-132.09998463629478,9.303593121383253,-46.44464801216442,-0.0518,-0.9139,0.0811,-0.3943
106,2064171.0,2004.302236,1.0,7.9,0.27,-7.78,-29.56,-14.38,24.5,-3.19,-26.62,14.56,-0.15069125289017585,-0.07310632297888886,-1.2831312247060502,-132.55366749345725,9.821056182581472,-45.87166763185487,-0.0518,-0.9155,0.0856,-0.3897
107,2064171.0,2004.302236,1.0,7.9,0.27,-7.78,-29.56,-14.38,24.5,-3.19,-26.62,14.56,-0.15069125289017585,-0.07310632297888886,-1.2831312247060502,-132.55366749345725,9.821056182581472,-45.87166763185487,-0.0518,-0.9155,0.0856,-0.3897
108,2064205.0,2004.3235940000002,1.0,7.77,-0.38,-7.93,-28.87,-13.56,24.5,-9.81,-33.5,14.75,0.007185374683446834,-0.6559049027658944,-1.2826212623020616,-133.61881240543406,10.373238415502241,-44.679754048391246,-0.0503,-0.9192,0.0904,-0.3801
109,2064205.0,2004.3235940000002,1.0,7.77,-0.38,-7.93,-28.87,-13.56,24.5,-9.81,-33.5,14.75,0.007185374683446834,-0.6559049027658944,-1.2826212623020616,-133.61881240543406,10.373238415502241,-44.679754048391246,-0.0503,-0.9192,0.0904,-0.3801
110,2064240.0,2004.362195,1.0,8.07,0.39,-8.06,-29.56,-13.88,24.75,-8.19,-33.25,18.31,0.15636150829545806,0.1785650638255918,-1.6031819705727717,-134.4108976122917,11.052294827398207,-43.665686030942155,-0.0507,-0.9219,0.0963,-0.3719
111,2064240.0,2004.362195,1.0,8.07,0.39,-8.06,-29.56,-13.88,24.75,-8.19,-33.25,18.31,0.15636150829545806,0.1785650638255918,-1.6031819705727717,-134.4108976122917,11.052294827398207,-43.665686030942155,-0.0507,-0.9219,0.0963,-0.3719
112,2064277.0,2004.417437,1.0,8.54,-0.06,-8.9,-28.5,-12.88,25.69,-2.69,-46.56,25.19,0.3111029063775802,-0.16639312189035266,-2.523018621282203,-135.6089218903229,11.939110700430106,-42.20039204818604,-0.048,-0.9259,0.10400000000000001,-0.36
113,2064277.0,2004.417437,1.0,8.54,-0.06,-8.9,-28.5,-12.88,25.69,-2.69,-46.56,25.19,0.3111029063775802,-0.16639312189035266,-2.523018621282203,-135.6089218903229,11.939110700430106,-42.20039204818604,-0.048,-0.9259,0.10400000000000001,-0.36
114,2064312.0,2004.4344760000001,1.0,7.58,-0.68,-8.34,-28.5,-12.88,25.69,8.75,-54.94,34.44,0.4856250184375994,-0.5376545178751255,-1.4605366923769356,-137.21387841569043,13.138038375794716,-40.241528009296225,-0.0403,-0.9311,0.1144,-0.344
115,2064312.0,2004.4344760000001,1.0,7.58,-0.68,-8.34,-28.5,-12.88,25.69,8.75,-54.94,34.44,0.4856250184375994,-0.5376545178751255,-1.4605366923769356,-137.21387841569043,13.138038375794716,-40.241528009296225,-0.0403,-0.9311,0.1144,-0.344
116,2064349.0,2004.475237,1.0,7.51,-0.66,-8.7,-28.5,-12.5,27.25,4.44,-49.06,38.25,0.4412018139659844,-0.3508825576886786,-1.6915203931565976,-138.1664535645985,14.211377245158012,-38.91408254537286,-0.0344,-0.9341,0.1237,-0.3331
117,2064349.0,2004.475237,1.0,7.51,-0.66,-8.7,-28.5,-12.5,27.25,4.44,-49.06,38.25,0.4412018139659844,-0.3508825576886786,-1.6915203931565976,-138.1664535645985,14.211377245158012,-38.91408254537286,-0.0344,-0.9341,0.1237,-0.3331
118,2064386.0,2004.5315489999998,1.0,7.04,-0.58,-8.52,-26.25,-10.88,27.75,-5.5,-56.13,33.0,0.549793196412259,-0.09316315280797838,-1.2467407950518812,-139.66874405322235,15.517239777173634,-36.830309031624424,-0.028999999999999998,-0.9387,0.135,-0.3159
119,2064386.0,2004.5315489999998,1.0,7.04,-0.58,-8.52,-26.25,-10.88,27.75,-5.5,-56.13,33.0,0.549793196412259,-0.09316315280797838,-1.2467407950518812,-139.66874405322235,15.517239777173634,-36.830309031624424,-0.028999999999999998,-0.9387,0.135,-0.3159
120,2064420.0,2004.5482969999998,1.0,5.96,0.05,-8.38,-26.25,-10.88,27.75,-3.5,-58.38,39.63,-0.09073636857290657,0.4610177212097217,-0.4660190578519501,-140.78037862226373,16.686140017359815,-35.10745640434998,-0.0249,-0.9420000000000001,0.1451,-0.3016
121,2064420.0,2004.5482969999998,1.0,5.96,0.05,-8.38,-26.25,-10.88,27.75,-3.5,-58.38,39.63,-0.09073636857290657,0.4610177212097217,-0.4660190578519501,-140.78037862226373,16.686140017359815,-35.10745640434998,-0.0249,-0.9420000000000001,0.1451,-0.3016
122,2064453.0,2004.592005,1.0,6.16,0.04,-8.97,-25.87,-10.5,26.87,3.88,-56.69,42.88,0.07377496334593102,0.7407893472576983,-1.0494030764073212,-141.9231418994875,18.37896716762953,-32.98621503760272,-0.0168,-0.9453,0.1597,-0.2839
123,2064453.0,2004.592005,1.0,6.16,0.04,-8.97,-25.87,-10.5,26.87,3.88,-56.69,42.88,0.07377496334593102,0.7407893472576983,-1.0494030764073212,-141.9231418994875,18.37896716762953,-32.98621503760272,-0.0168,-0.9453,0.1597,-0.2839
124,2064490.0,2004.609225,1.0,6.03,-0.01,-8.86,-25.06,-9.5,29.37,14.25,-70.44,42.13,0.3373851596720909,0.9503392235409268,-0.8631028844033075,-142.95536907296346,19.57563811342796,-31.114368796125287,-0.0088,-0.9482,0.17,-0.2682
125,2064490.0,2004.609225,1.0,6.03,-0.01,-8.86,-25.06,-9.5,29.37,14.25,-70.44,42.13,0.3373851596720909,0.9503392235409268,-0.8631028844033075,-142.95536907296346,19.57563811342796,-31.114368796125287,-0.0088,-0.9482,0.17,-0.2682
126,2064527.0,2004.647393,1.0,5.28,-0.13,-8.52,-23.56,-9.06,31.06,9.94,-79.75,44.63,0.3693120264435317,1.0287737134197656,-0.1578335929264636,-144.46400874868328,21.07744476440248,-28.257305549296962,0.0038,-0.9523,0.1829,-0.2441
127,2064527.0,2004.647393,1.0,5.28,-0.13,-8.52,-23.56,-9.06,31.06,9.94,-79.75,44.63,0.3693120264435317,1.0287737134197656,-0.1578335929264636,-144.46400874868328,21.07744476440248,-28.257305549296962,0.0038,-0.9523,0.1829,-0.2441
128,2064562.0,2004.707644,1.0,3.97,-0.34,-8.21,-23.56,-9.06,31.06,18.12,-65.69,39.13,-0.22480479293914069,0.6573855111311602,0.7073144695985398,-145.29964361056955,22.11569761985897,-26.335166138238048,0.0135,-0.9545,0.1918,-0.2278
129,2064562.0,2004.707644,1.0,3.97,-0.34,-8.21,-23.56,-9.06,31.06,18.12,-65.69,39.13,-0.22480479293914069,0.6573855111311602,0.7073144695985398,-145.29964361056955,22.11569761985897,-26.335166138238048,0.0135,-0.9545,0.1918,-0.2278
130,2064599.0,2004.7286100000001,1.0,3.3,-0.52,-7.95,-22.5,-7.56,32.75,16.62,-60.19,31.19,-0.32936077286656745,0.5322671937803091,1.2060039128899174,-146.07660730478975,23.21428107252436,-24.197824520118107,0.0247,-0.9565,0.2012,-0.2096
131,2064599.0,2004.7286100000001,1.0,3.3,-0.52,-7.95,-22.5,-7.56,32.75,16.62,-60.19,31.19,-0.32936077286656745,0.5322671937803091,1.2060039128899174,-146.07660730478975,23.21428107252436,-24.197824520118107,0.0247,-0.9565,0.2012,-0.2096
132,2064633.0,2004.76835,1.0,2.09,-0.73,-6.92,-20.19,-6.88,32.25,15.75,-58.31,26.56,-0.6516747644990883,0.07158164213432483,2.570795104424469,-146.71084020226166,23.91663071897709,-22.51281453874211,0.0332,-0.9581,0.2072,-0.1952
133,2064633.0,2004.76835,1.0,2.09,-0.73,-6.92,-20.19,-6.88,32.25,15.75,-58.31,26.56,-0.6516747644990883,0.07158164213432483,2.570795104424469,-146.71084020226166,23.91663071897709,-22.51281453874211,0.0332,-0.9581,0.2072,-0.1952
134,2064668.0,2004.7843239999997,1.0,1.64,-0.66,-7.03,-20.19,-6.88,32.25,16.0,-23.12,18.75,-0.9701297737017534,0.10281173634030816,2.623727337946057,-146.9114591288739,24.61989330860375,-21.25230621784773,0.0414,-0.9586,0.2132,-0.1844
135,2064668.0,2004.7843239999997,1.0,1.64,-0.66,-7.03,-20.19,-6.88,32.25,16.0,-23.12,18.75,-0.9701297737017534,0.10281173634030816,2.623727337946057,-146.9114591288739,24.61989330860375,-21.25230621784773,0.0414,-0.9586,0.2132,-0.1844
136,2064703.0,2004.844509,1.0,1.64,-1.06,-7.27,-18.69,-6.5,34.0,5.94,-18.19,10.0,-0.8421304900967223,-0.16650438743747065,2.328067746215964,-146.951724947316,24.93666734562011,-20.657978898652157,0.0464,-0.9587,0.2159,-0.1793
137,2064703.0,2004.844509,1.0,1.64,-1.06,-7.27,-18.69,-6.5,34.0,5.94,-18.19,10.0,-0.8421304900967223,-0.16650438743747065,2.328067746215964,-146.951724947316,24.93666734562011,-20.657978898652157,0.0464,-0.9587,0.2159,-0.1793
138,2064740.0,2004.8710809999998,1.0,1.83,-1.35,-7.32,-18.87,-6.06,34.5,3.94,-8.0,9.13,-0.5400965173949366,-0.3025848589298502,2.1665886026652714,-146.951724947316,25.21840683143225,-20.27371434520358,0.0483,-0.9587,0.2183,-0.17600000000000002
139,2064740.0,2004.8710809999998,1.0,1.83,-1.35,-7.32,-18.87,-6.06,34.5,3.94,-8.0,9.13,-0.5400965173949366,-0.3025848589298502,2.1665886026652714,-146.951724947316,25.21840683143225,-20.27371434520358,0.0483,-0.9587,0.2183,-0.17600000000000002
140,2064773.0,2004.89187,1.0,2.04,-1.59,-7.88,-18.87,-6.06,34.5,8.56,-3.0,12.88,-0.4310734764246942,-0.3671618050332485,1.5323846025856849,-146.79094642726758,25.570799441600013,-19.971122857066124,0.0505,-0.9583,0.2213,-0.1734
141,2064773.0,2004.89187,1.0,2.04,-1.59,-7.88,-18.87,-6.06,34.5,8.56,-3.0,12.88,-0.4310734764246942,-0.3671618050332485,1.5323846025856849,-146.79094642726758,25.570799441600013,-19.971122857066124,0.0505,-0.9583,0.2213,-0.1734
142,2064807.0,2004.948689,1.0,1.91,-1.43,-8.36,-17.75,-5.88,34.75,-2.69,-4.63,0.12,-0.7604635624938634,-0.2437013189580541,1.1495774672521524,-146.67085725236174,25.8058643261674,-19.84314584545369,0.0517,-0.958,0.2233,-0.1723
143,2064807.0,2004.948689,1.0,1.91,-1.43,-8.36,-17.75,-5.88,34.75,-2.69,-4.63,0.12,-0.7604635624938634,-0.2437013189580541,1.1495774672521524,-146.67085725236174,25.8058643261674,-19.84314584545369,0.0517,-0.958,0.2233,-0.1723
144,2064842.0,2004.9673030000001,1.0,2.11,-1.56,-8.42,-17.69,-5.5,34.5,-5.19,3.81,-3.56,-0.5621721502351809,-0.28781904978385103,1.0098765762905142,-146.7508698708792,25.71182517460623,-19.878046180611587,0.0508,-0.9582,0.2225,-0.1726
145,2064842.0,2004.9673030000001,1.0,2.11,-1.56,-8.42,-17.69,-5.5,34.5,-5.19,3.81,-3.56,-0.5621721502351809,-0.28781904978385103,1.0098765762905142,-146.7508698708792,25.71182517460623,-19.878046180611587,0.0508,-0.9582,0.2225,-0.1726
146,2064879.0,2005.0052690000002,1.0,2.59,-1.49,-8.83,-17.69,-5.5,35.25,2.38,11.06,8.81,-0.359993133174505,-0.007636606642817957,0.4917454580142806,-146.4319313048688,25.970475433904987,-20.064212846329454,0.0506,-0.9574,0.2247,-0.1742
147,2064879.0,2005.0052690000002,1.0,2.59,-1.49,-8.83,-17.69,-5.5,35.25,2.38,11.06,8.81,-0.359993133174505,-0.007636606642817957,0.4917454580142806,-146.4319313048688,25.970475433904987,-20.064212846329454,0.0506,-0.9574,0.2247,-0.1742
148,2064912.0,2005.060768,1.0,2.78,-1.39,-8.89,-17.69,-5.5,35.25,3.31,14.06,7.44,-0.3536582853513421,0.16494686514415735,0.3970634868273031,-145.84171829017612,26.26455976697084,-20.611388956075047,0.0511,-0.9559,0.2272,-0.1789
149,2064912.0,2005.060768,1.0,2.78,-1.39,-8.89,-17.69,-5.5,35.25,3.31,14.06,7.44,-0.3536582853513421,0.16494686514415735,0.3970634868273031,-145.84171829017612,26.26455976697084,-20.611388956075047,0.0511,-0.9559,0.2272,-0.1789
150,2064949.0,2005.0822660000001,1.0,4.01,-1.47,-9.64,-18.06,-6.56,34.38,6.38,28.56,5.81,0.29190355434825144,0.6320587629513003,-0.7140863827412449,-145.22287322309495,26.441094791301843,-21.38056975127936,0.0507,-0.9543,0.2287,-0.1855
151,2064949.0,2005.0822660000001,1.0,4.01,-1.47,-9.64,-18.06,-6.56,34.38,6.38,28.56,5.81,0.29190355434825144,0.6320587629513003,-0.7140863827412449,-145.22287322309495,26.441094791301843,-21.38056975127936,0.0507,-0.9543,0.2287,-0.1855
152,2064986.0,2005.119054,1.0,4.49,-2.03,-9.72,-18.5,-5.06,33.56,10.25,23.62,3.0,0.7334923518535267,0.35068546716326177,-1.0606591735209658,-144.50157885257724,26.676574330601248,-22.2091125181558,0.0516,-0.9524,0.2307,-0.1926
153,2064986.0,2005.119054,1.0,4.49,-2.03,-9.72,-18.5,-5.06,33.56,10.25,23.62,3.0,0.7334923518535267,0.35068546716326177,-1.0606591735209658,-144.50157885257724,26.676574330601248,-22.2091125181558,0.0516,-0.9524,0.2307,-0.1926
154,2065018.0,2005.1298510000001,1.0,2.91,-2.33,-8.6,-18.5,-5.06,33.56,9.88,2.31,-1.06,-0.07715533707941241,-0.6297870390629462,0.4549434530969965,-144.20208645663692,26.617693729981983,-22.64135196781312,0.0538,-0.9516,0.2302,-0.1963
155,2065018.0,2005.1298510000001,1.0,2.91,-2.33,-8.6,-18.5,-5.06,33.56,9.88,2.31,-1.06,-0.07715533707941241,-0.6297870390629462,0.4549434530969965,-144.20208645663692,26.617693729981983,-22.64135196781312,0.0538,-0.9516,0.2302,-0.1963
156,2065053.0,2005.179994,1.0,2.62,-1.76,-8.42,-19.56,-5.06,32.75,1.94,12.13,-0.56,-0.5373924240661436,-0.2703373816895991,0.8346643177433943,-143.83109490597238,26.770798221316568,-23.027138205337288,0.0537,-0.9506,0.2315,-0.1996
157,2065053.0,2005.179994,1.0,2.62,-1.76,-8.42,-19.56,-5.06,32.75,1.94,12.13,-0.56,-0.5373924240661436,-0.2703373816895991,0.8346643177433943,-143.83109490597238,26.770798221316568,-23.027138205337288,0.0537,-0.9506,0.2315,-0.1996
158,2065090.0,2005.23814,1.0,3.04,-2.55,-8.13,-19.56,-4.38,34.0,1.31,21.19,-5.56,0.15245467985984476,-0.8063135521150825,0.7973428109724008,-143.46374555627918,26.700128578583914,-23.68241421184977,0.0536,-0.9496,0.2309,-0.2052
159,2065090.0,2005.23814,1.0,3.04,-2.55,-8.13,-19.56,-4.38,34.0,1.31,21.19,-5.56,0.15245467985984476,-0.8063135521150825,0.7973428109724008,-143.46374555627918,26.700128578583914,-23.68241421184977,0.0536,-0.9496,0.2309,-0.2052
160,2065125.0,2005.309906,1.0,2.52,-2.14,-7.64,-19.56,-4.38,34.0,-3.44,23.5,-5.63,-0.3353612581662881,-0.7742955079156012,1.5248869453755312,-143.06373822672285,26.59414349441812,-24.50261820231894,0.0498,-0.9485,0.23,-0.2122
161,2065125.0,2005.309906,1.0,2.52,-2.14,-7.64,-19.56,-4.38,34.0,-3.44,23.5,-5.63,-0.3353612581662881,-0.7742955079156012,1.5248869453755312,-143.06373822672285,26.59414349441812,-24.50261820231894,0.0498,-0.9485,0.23,-0.2122
162,2065160.0,2005.314627,1.0,2.65,-2.41,-6.92,-20.0,-4.75,34.0,3.06,46.06,10.13,0.06826234471613396,-0.9974430750701698,2.0789435120251594,-142.16981440543415,26.87682214392707,-25.512050354420897,0.0481,-0.946,0.2324,-0.2208
163,2065160.0,2005.314627,1.0,2.65,-2.41,-6.92,-20.0,-4.75,34.0,3.06,46.06,10.13,0.06826234471613396,-0.9974430750701698,2.0789435120251594,-142.16981440543415,26.87682214392707,-25.512050354420897,0.0481,-0.946,0.2324,-0.2208
164,2065195.0,2005.354365,1.0,4.02,-2.76,-7.56,-20.0,-4.75,33.56,-9.56,63.44,4.13,0.7253518389140952,-0.8412669991375753,0.8792912334920704,-140.44035437538835,27.253986698732728,-27.714063693203613,0.0417,-0.941,0.2356,-0.2395
165,2065195.0,2005.354365,1.0,4.02,-2.76,-7.56,-20.0,-4.75,33.56,-9.56,63.44,4.13,0.7253518389140952,-0.8412669991375753,0.8792912334920704,-140.44035437538835,27.253986698732728,-27.714063693203613,0.0417,-0.941,0.2356,-0.2395
166,2065231.0,2005.412304,1.0,3.27,-1.91,-6.57,-21.5,-4.0,32.0,-26.62,51.94,-14.13,0.13268718808360952,-0.5687911537686581,2.2459112309700195,-139.60231554875963,27.324738438026902,-28.93135507220408,0.0322,-0.9385,0.2362,-0.2498
167,2065231.0,2005.412304,1.0,3.27,-1.91,-6.57,-21.5,-4.0,32.0,-26.62,51.94,-14.13,0.13268718808360952,-0.5687911537686581,2.2459112309700195,-139.60231554875963,27.324738438026902,-28.93135507220408,0.0322,-0.9385,0.2362,-0.2498
168,2065264.0,2005.4325850000002,1.0,4.23,-2.78,-6.95,-21.5,-4.0,32.0,-16.44,80.25,-21.12,0.7273501055875673,-1.244065451302417,1.330385316970245,-138.00625925895054,26.829697512461113,-31.626171458397582,0.0184,-0.9336,0.23199999999999998,-0.2725
169,2065264.0,2005.4325850000002,1.0,4.23,-2.78,-6.95,-21.5,-4.0,32.0,-16.44,80.25,-21.12,0.7273501055875673,-1.244065451302417,1.330385316970245,-138.00625925895054,26.829697512461113,-31.626171458397582,0.0184,-0.9336,0.23199999999999998,-0.2725
170,2065301.0,2005.4682309999998,1.0,6.12,-2.67,-7.62,-24.06,-4.38,30.25,-28.44,85.81,0.31,1.3877670239507534,-0.6331231162407911,-0.2093850342296868,-135.88272800413355,27.183245547895737,-34.039340850884635,0.006999999999999999,-0.9268,0.235,-0.2927
171,2065301.0,2005.4682309999998,1.0,6.12,-2.67,-7.62,-24.06,-4.38,30.25,-28.44,85.81,0.31,1.3877670239507534,-0.6331231162407911,-0.2093850342296868,-135.88272800413355,27.183245547895737,-34.039340850884635,0.006999999999999999,-0.9268,0.235,-0.2927
172,2065338.0,2005.474798,1.0,6.3,-1.51,-7.38,-26.0,-5.5,28.19,-44.63,68.31,-2.0,0.8497658875070023,0.1363286906734289,0.024328576915973343,-133.58972143720712,27.938368456027646,-36.263125888125366,-0.0124,-0.9191,0.2414,-0.3112
173,2065338.0,2005.474798,1.0,6.3,-1.51,-7.38,-26.0,-5.5,28.19,-44.63,68.31,-2.0,0.8497658875070023,0.1363286906734289,0.024328576915973343,-133.58972143720712,27.938368456027646,-36.263125888125366,-0.0124,-0.9191,0.2414,-0.3112
174,2065373.0,2005.4906809999998,1.0,5.56,-1.03,-6.94,-26.0,-5.5,28.19,-44.75,68.94,-10.88,0.21344175106631952,0.010577648772510884,0.8572125466039378,-132.2130251212284,28.056467420340038,-37.71311628724267,-0.0282,-0.9143,0.2424,-0.3232
175,2065373.0,2005.4906809999998,1.0,5.56,-1.03,-6.94,-26.0,-5.5,28.19,-44.75,68.94,-10.88,0.21344175106631952,0.010577648772510884,0.8572125466039378,-132.2130251212284,28.056467420340038,-37.71311628724267,-0.0282,-0.9143,0.2424,-0.3232
176,2065405.0,2005.53262,1.0,6.74,-1.72,-7.44,-27.06,-6.19,27.87,-32.69,88.56,3.0,0.6381337683062341,-0.6115877066532338,-0.3401892009934748,-129.45833846115224,28.422768181257144,-40.52234562197142,-0.046,-0.9043,0.2455,-0.3463
177,2065405.0,2005.53262,1.0,6.74,-1.72,-7.44,-27.06,-6.19,27.87,-32.69,88.56,3.0,0.6381337683062341,-0.6115877066532338,-0.3401892009934748,-129.45833846115224,28.422768181257144,-40.52234562197142,-0.046,-0.9043,0.2455,-0.3463
178,2065442.0,2005.550511,1.0,7.23,-0.75,-7.45,-29.0,-7.0,24.0,-49.25,64.37,3.69,0.22883891918538676,0.1201898522578051,-0.5986893576798042,-127.24853393391231,29.274683969227155,-42.22495842729175,-0.0619,-0.8959,0.2527,-0.3602
179,2065442.0,2005.550511,1.0,7.23,-0.75,-7.45,-29.0,-7.0,24.0,-49.25,64.37,3.69,0.22883891918538676,0.1201898522578051,-0.5986893576798042,-127.24853393391231,29.274683969227155,-42.22495842729175,-0.0619,-0.8959,0.2527,-0.3602
180,2065479.0,2005.60189,1.0,7.04,-0.63,-6.96,-30.06,-7.38,24.0,-49.63,61.06,-0.31,0.1506179584544093,-0.1247327210460687,-0.11110458351795847,-125.07180537967443,29.83168618976498,-43.887975339090566,-0.0831,-0.8873,0.2574,-0.3737
181,2065479.0,2005.60189,1.0,7.04,-0.63,-6.96,-30.06,-7.38,24.0,-49.63,61.06,-0.31,0.1506179584544093,-0.1247327210460687,-0.11110458351795847,-125.07180537967443,29.83168618976498,-43.887975339090566,-0.0831,-0.8873,0.2574,-0.3737
182,2065512.0,2005.640859,1.0,7.63,0.21,-6.93,-30.06,-7.38,24.0,-60.56,61.0,16.44,-0.12580823068850547,0.5305713809839404,-0.4884248563947669,-123.11607559607694,30.52004779633356,-45.23782004339508,-0.0983,-0.8793,0.2632,-0.3846
183,2065512.0,2005.640859,1.0,7.63,0.21,-6.93,-30.06,-7.38,24.0,-60.56,61.0,16.44,-0.12580823068850547,0.5305713809839404,-0.4884248563947669,-123.11607559607694,30.52004779633356,-45.23782004339508,-0.0983,-0.8793,0.2632,-0.3846
184,2065549.0,2005.694273,1.0,8.18,1.67,-7.3,-31.56,-7.69,21.5,-63.0,61.38,9.75,-1.1531633897129352,1.365733302320468,-1.1384990050870734,-120.20074735368748,31.99554685526558,-46.85645674888645,-0.1206,-0.8669,0.2756,-0.3976
185,2065549.0,2005.694273,1.0,8.18,1.67,-7.3,-31.56,-7.69,21.5,-63.0,61.38,9.75,-1.1531633897129352,1.365733302320468,-1.1384990050870734,-120.20074735368748,31.99554685526558,-46.85645674888645,-0.1206,-0.8669,0.2756,-0.3976
186,2065584.0,2005.7015920000001,1.0,8.26,1.02,-7.18,-33.06,-7.69,19.0,-49.44,51.69,-12.25,-0.7973654842408127,0.5367748612184036,-1.1430751578706495,-118.43136127193769,32.592035674709635,-47.79478761247317,-0.1384,-0.8591,0.2806,-0.4051
187,2065584.0,2005.7015920000001,1.0,8.26,1.02,-7.18,-33.06,-7.69,19.0,-49.44,51.69,-12.25,-0.7973654842408127,0.5367748612184036,-1.1430751578706495,-118.43136127193769,32.592035674709635,-47.79478761247317,-0.1384,-0.8591,0.2806,-0.4051
188,2065618.0,2005.7747989999998,1.0,9.22,1.97,-7.06,-33.06,-7.69,19.0,-50.44,39.56,6.06,-0.9416996232362926,1.285879967885664,-1.86350914749182,-116.6848576958755,33.02206936424729,-48.7113769507911,-0.1567,-0.8512,0.2842,-0.4124
189,2065618.0,2005.7747989999998,1.0,9.22,1.97,-7.06,-33.06,-7.69,19.0,-50.44,39.56,6.06,-0.9416996232362926,1.285879967885664,-1.86350914749182,-116.6848576958755,33.02206936424729,-48.7113769507911,-0.1567,-0.8512,0.2842,-0.4124
190,2065653.0,2005.8212239999998,1.0,9.35,2.26,-7.33,-33.06,-8.5,18.19,-32.0,38.94,12.0,-1.4455723197511663,1.0996123171212489,-2.149945394191628,-114.76759373176695,33.823690775726206,-49.77021027536523,-0.1699,-0.8423,0.2909,-0.4208
191,2065653.0,2005.8212239999998,1.0,9.35,2.26,-7.33,-33.06,-8.5,18.19,-32.0,38.94,12.0,-1.4455723197511663,1.0996123171212489,-2.149945394191628,-114.76759373176695,33.823690775726206,-49.77021027536523,-0.1699,-0.8423,0.2909,-0.4208
192,2065690.0,2005.85764,1.0,9.2,1.58,-6.72,-34.19,-8.88,16.37,-25.69,28.5,-6.75,-0.8092659594812879,0.648274412186181,-1.6484636569363411,-113.75411958451244,34.07529458830543,-50.33930781936822,-0.1782,-0.8375,0.293,-0.4253
193,2065690.0,2005.85764,1.0,9.2,1.58,-6.72,-34.19,-8.88,16.37,-25.69,28.5,-6.75,-0.8092659594812879,0.648274412186181,-1.6484636569363411,-113.75411958451244,34.07529458830543,-50.33930781936822,-0.1782,-0.8375,0.293,-0.4253
194,2065727.0,2005.86415,1.0,9.8,1.78,-6.69,-34.19,-8.88,16.37,-25.0,22.87,1.19,-0.7087088068784909,0.8383161900582408,-2.141548935092233,-113.02370899765695,34.13522516911611,-50.808228717792346,-0.1853,-0.8340000000000001,0.2935,-0.429
195,2065727.0,2005.86415,1.0,9.8,1.78,-6.69,-34.19,-8.88,16.37,-25.0,22.87,1.19,-0.7087088068784909,0.8383161900582408,-2.141548935092233,-113.02370899765695,34.13522516911611,-50.808228717792346,-0.1853,-0.8340000000000001,0.2935,-0.429
196,2065760.0,2005.8832260000001,1.0,8.87,1.55,-6.26,-34.19,-9.56,15.19,-10.88,10.69,-3.94,-0.7747999007560359,0.4662860770287776,-1.1226346247207584,-112.2796992436405,34.44701981345315,-51.0874785737173,-0.1918,-0.8304,0.2961,-0.4312
197,2065760.0,2005.8832260000001,1.0,8.87,1.55,-6.26,-34.19,-9.56,15.19,-10.88,10.69,-3.94,-0.7747999007560359,0.4662860770287776,-1.1226346247207584,-112.2796992436405,34.44701981345315,-51.0874785737173,-0.1918,-0.8304,0.2961,-0.4312
198,2065797.0,2005.925984,1.0,7.77,0.38,-5.21,-34.19,-8.75,14.75,-10.0,30.12,-9.13,0.04948454753903453,-0.3377748922646264,0.4501090044338252,-111.44102705802788,34.23113412634732,-51.837991208733065,-0.1987,-0.8263,0.2943,-0.4371
199,2065797.0,2005.925984,1.0,7.77,0.38,-5.21,-34.19,-8.75,14.75,-10.0,30.12,-9.13,0.04948454753903453,-0.3377748922646264,0.4501090044338252,-111.44102705802788,34.23113412634732,-51.837991208733065,-0.1987,-0.8263,0.2943,-0.4371
200,2065831.0,2005.987078,1.0,10.29,2.6,-6.46,-34.56,-8.75,13.88,-21.94,57.0,10.38,-1.3377403971092687,1.077637801438725,-2.49883038066179,-109.63083923692189,34.50701040671306,-53.26933184501482,-0.2078,-0.8173,0.2966,-0.4483
201,2065831.0,2005.987078,1.0,10.29,2.6,-6.46,-34.56,-8.75,13.88,-21.94,57.0,10.38,-1.3377403971092687,1.077637801438725,-2.49883038066179,-109.63083923692189,34.50701040671306,-53.26933184501482,-0.2078,-0.8173,0.2966,-0.4483
202,2065866.0,2006.006532,1.0,9.26,1.89,-5.54,-34.56,-8.75,13.88,1.69,0.0,-0.81,-0.8174811825890745,0.7478188144247571,-1.0921477106149258,-109.19450172299595,34.42302630295278,-53.76984303048103,-0.2086,-0.8151,0.2959,-0.4522
203,2065866.0,2006.006532,1.0,9.26,1.89,-5.54,-34.56,-8.75,13.88,1.69,0.0,-0.81,-0.8174811825890745,0.7478188144247571,-1.0921477106149258,-109.19450172299595,34.42302630295278,-53.76984303048103,-0.2086,-0.8151,0.2959,-0.4522
204,2065901.0,2006.062026,1.0,8.61,0.48,-5.46,-36.5,-8.75,12.56,10.25,-3.75,1.69,-0.05139092016358848,-0.4014809074112158,-0.3918926436481094,-109.45205367310278,34.44701981345315,-53.500200054022216,-0.2078,-0.8164,0.2961,-0.4501
205,2065901.0,2006.062026,1.0,8.61,0.48,-5.46,-36.5,-8.75,12.56,10.25,-3.75,1.69,-0.05139092016358848,-0.4014809074112158,-0.3918926436481094,-109.45205367310278,34.44701981345315,-53.500200054022216,-0.2078,-0.8164,0.2961,-0.4501
206,2065938.0,2006.104143,1.0,9.6,0.39,-6.25,-34.56,-9.06,12.56,13.63,-7.0,28.31,-0.18933166785158684,-0.498337385808701,-1.6428221873741349,-109.13518228345345,35.095437786143385,-53.808389685397145,-0.2012,-0.8148,0.3015,-0.4525
207,2065938.0,2006.104143,1.0,9.6,0.39,-6.25,-34.56,-9.06,12.56,13.63,-7.0,28.31,-0.18933166785158684,-0.498337385808701,-1.6428221873741349,-109.13518228345345,35.095437786143385,-53.808389685397145,-0.2012,-0.8148,0.3015,-0.4525
208,2065973.0,2006.1219620000002,1.0,9.21,0.0,-6.23,-34.56,-9.06,12.56,5.25,-35.5,15.63,-0.05011040687716145,-0.7060859213813502,-1.2900130848534683,-109.49174968741804,35.64870955741132,-53.34626194049607,-0.1951,-0.8166,0.3061,-0.4489
209,2065973.0,2006.1219620000002,1.0,9.21,0.0,-6.23,-34.56,-9.06,12.56,5.25,-35.5,15.63,-0.05011040687716145,-0.7060859213813502,-1.2900130848534683,-109.49174968741804,35.64870955741132,-53.34626194049607,-0.1951,-0.8166,0.3061,-0.4489
210,2066006.0,2006.125063,1.0,9.81,-1.49,-7.19,-35.25,-8.75,13.88,12.19,-39.75,17.31,0.7514401741311199,-1.8341885975080057,-2.285636378244332,-110.47046523443146,36.34754136011127,-52.169483053710955,-0.1855,-0.8215,0.3119,-0.4397
211,2066006.0,2006.125063,1.0,9.81,-1.49,-7.19,-35.25,-8.75,13.88,12.19,-39.75,17.31,0.7514401741311199,-1.8341885975080057,-2.285636378244332,-110.47046523443146,36.34754136011127,-52.169483053710955,-0.1855,-0.8215,0.3119,-0.4397
212,2066042.0,2006.1640739999998,1.0,9.69,-0.01,-6.7,-34.88,-7.56,14.56,-6.75,-70.31,46.5,0.13728710862568014,-0.09154723571906942,-1.9729497959793785,-111.15670835013724,37.846342205002045,-50.70676349859697,-0.1761,-0.8249,0.3243,-0.4282
213,2066042.0,2006.1640739999998,1.0,9.69,-0.01,-6.7,-34.88,-7.56,14.56,-6.75,-70.31,46.5,0.13728710862568014,-0.09154723571906942,-1.9729497959793785,-111.15670835013724,37.846342205002045,-50.70676349859697,-0.1761,-0.8249,0.3243,-0.4282
214,2066079.0,2006.2247579999998,1.0,9.88,-0.23,-7.51,-34.5,-6.5,15.0,-6.0,-44.88,29.37,0.032080983068311864,-0.2447459680549944,-2.6032843359119417,-111.5428205011455,39.48578948035391,-49.26544461496822,-0.1687,-0.8268,0.3378,-0.4168
215,2066079.0,2006.2247579999998,1.0,9.88,-0.23,-7.51,-34.5,-6.5,15.0,-6.0,-44.88,29.37,0.032080983068311864,-0.2447459680549944,-2.6032843359119417,-111.5428205011455,39.48578948035391,-49.26544461496822,-0.1687,-0.8268,0.3378,-0.4168
216,2066114.0,2006.235864,1.0,8.51,-0.03,-7.53,-34.5,-6.5,15.0,-4.06,-45.0,17.25,-0.562364434641402,-0.43581190365404665,-1.5342368360143634,-112.13586614925856,40.351383033032214,-48.08322235291628,-0.1631,-0.8297,0.3449,-0.4074
217,2066114.0,2006.235864,1.0,8.51,-0.03,-7.53,-34.5,-6.5,15.0,-4.06,-45.0,17.25,-0.562364434641402,-0.43581190365404665,-1.5342368360143634,-112.13586614925856,40.351383033032214,-48.08322235291628,-0.1631,-0.8297,0.3449,-0.4074
218,2066151.0,2006.285879,1.0,9.42,0.32,-8.0,-33.38,-5.0,16.25,3.38,-36.13,20.56,-0.5246898281313861,0.273877964586408,-2.54197305865595,-112.77489865498623,41.341837382049434,-46.744081927482135,-0.1562,-0.8328,0.353,-0.3967
219,2066151.0,2006.285879,1.0,9.42,0.32,-8.0,-33.38,-5.0,16.25,3.38,-36.13,20.56,-0.5246898281313861,0.273877964586408,-2.54197305865595,-112.77489865498623,41.341837382049434,-46.744081927482135,-0.1562,-0.8328,0.353,-0.3967
220,2066186.0,2006.301448,1.0,10.02,-0.15,-8.42,-32.69,-6.0,17.5,23.56,-42.13,34.13,-0.13541727912843204,0.3202519517727072,-3.277630677511441,-113.10682738081556,42.138984987118995,-46.058375063609425,-0.147,-0.8344,0.3595,-0.3912
221,2066186.0,2006.301448,1.0,10.02,-0.15,-8.42,-32.69,-6.0,17.5,23.56,-42.13,34.13,-0.13541727912843204,0.3202519517727072,-3.277630677511441,-113.10682738081556,42.138984987118995,-46.058375063609425,-0.147,-0.8344,0.3595,-0.3912
222,2066221.0,2006.3818760000001,1.0,9.85,-0.53,-8.06,-32.69,-6.0,17.5,19.94,-84.44,44.81,0.3580154872048777,0.8826490471573476,-2.8960959854345525,-114.13255001123673,43.52992762326994,-44.345450751183655,-0.1252,-0.8393,0.3708,-0.3774
223,2066221.0,2006.3818760000001,1.0,9.85,-0.53,-8.06,-32.69,-6.0,17.5,19.94,-84.44,44.81,0.3580154872048777,0.8826490471573476,-2.8960959854345525,-114.13255001123673,43.52992762326994,-44.345450751183655,-0.1252,-0.8393,0.3708,-0.3774
224,2066253.0,2006.391857,1.0,8.27,-1.15,-7.54,-32.69,-4.19,19.19,23.06,-68.75,26.5,0.5709713710827929,0.4592347561572171,-1.4196626240160042,-115.36530326577595,44.679754048391246,-42.286383276048326,-0.1066,-0.8451,0.3801,-0.3607
225,2066253.0,2006.391857,1.0,8.27,-1.15,-7.54,-32.69,-4.19,19.19,23.06,-68.75,26.5,0.5709713710827929,0.4592347561572171,-1.4196626240160042,-115.36530326577595,44.679754048391246,-42.286383276048326,-0.1066,-0.8451,0.3801,-0.3607
226,2066292.0,2006.437421,1.0,7.97,-0.96,-7.49,-30.75,-3.75,20.37,15.25,-65.87,37.13,0.4377124667129565,0.8478283102578464,-1.1310003396666222,-115.94637091735842,45.67265480727474,-40.84009791641019,-0.0939,-0.8478,0.3881,-0.3489
227,2066292.0,2006.437421,1.0,7.97,-0.96,-7.49,-30.75,-3.75,20.37,15.25,-65.87,37.13,0.4377124667129565,0.8478283102578464,-1.1310003396666222,-115.94637091735842,45.67265480727474,-40.84009791641019,-0.0939,-0.8478,0.3881,-0.3489
228,2066327.0,2006.4552219999998,1.0,7.56,-1.81,-7.68,-30.75,-3.75,20.37,15.63,-78.37,43.13,0.956445403688737,0.5711759105512918,-1.064001786759091,-116.77224597329428,47.2313854664036,-38.52541202617238,-0.0746,-0.8516,0.4006,-0.3299
229,2066327.0,2006.4552219999998,1.0,7.56,-1.81,-7.68,-30.75,-3.75,20.37,15.63,-78.37,43.13,0.956445403688737,0.5711759105512918,-1.064001786759091,-116.77224597329428,47.2313854664036,-38.52541202617238,-0.0746,-0.8516,0.4006,-0.3299
230,2066362.0,2006.519779,1.0,4.49,-0.51,-6.17,-29.25,-2.69,22.06,-5.31,-88.31,27.0,-0.4516692554638083,0.3982796522504615,2.1825783711213704,-117.63003319551184,48.40966960291665,-36.09435595913239,-0.0637,-0.8555,0.41,-0.3098
231,2066362.0,2006.519779,1.0,4.49,-0.51,-6.17,-29.25,-2.69,22.06,-5.31,-88.31,27.0,-0.4516692554638083,0.3982796522504615,2.1825783711213704,-117.63003319551184,48.40966960291665,-36.09435595913239,-0.0637,-0.8555,0.41,-0.3098
232,2066399.0,2006.577083,1.0,4.48,-1.28,-6.33,-28.56,-2.25,22.56,2.56,-46.44,24.56,0.1791581085962957,0.12409113702125475,1.9497928826892224,-118.25247900079262,49.32848435315842,-34.21914415630217,-0.0521,-0.8583,0.4173,-0.2942
233,2066399.0,2006.577083,1.0,4.48,-1.28,-6.33,-28.56,-2.25,22.56,2.56,-46.44,24.56,0.1791581085962957,0.12409113702125475,1.9497928826892224,-118.25247900079262,49.32848435315842,-34.21914415630217,-0.0521,-0.8583,0.4173,-0.2942
234,2066434.0,2006.618371,1.0,4.2,-1.25,-6.35,-26.19,-2.25,25.06,4.25,-48.88,18.37,0.097485035314974,0.12426275475604598,2.093022096369304,-118.65562547806576,49.79547555361781,-33.069880307180426,-0.0446,-0.8601,0.42100000000000004,-0.2846
235,2066434.0,2006.618371,1.0,4.2,-1.25,-6.35,-26.19,-2.25,25.06,4.25,-48.88,18.37,0.097485035314974,0.12426275475604598,2.093022096369304,-118.65562547806576,49.79547555361781,-33.069880307180426,-0.0446,-0.8601,0.42100000000000004,-0.2846
236,2066468.0,2006.6699489999999,1.0,3.58,-0.62,-6.05,-26.19,-2.25,25.06,-8.56,-52.38,15.81,-0.3910041745285181,0.3978233954667859,2.7715840954387225,-119.19690467351394,50.56731827609278,-31.209539394286914,-0.037000000000000005,-0.8625,0.4271,-0.26899999999999996
237,2066468.0,2006.6699489999999,1.0,3.58,-0.62,-6.05,-26.19,-2.25,25.06,-8.56,-52.38,15.81,-0.3910041745285181,0.3978233954667859,2.7715840954387225,-119.19690467351394,50.56731827609278,-31.209539394286914,-0.037000000000000005,-0.8625,0.4271,-0.26899999999999996
238,2066503.0,2006.7315350000001,1.0,3.94,-0.5,-6.93,-26.06,-0.75,24.56,8.0,-31.81,24.19,-0.6305907262628845,0.6267386564507547,1.868888729184308,-119.08377982565194,51.34162455414572,-30.294427058078604,-0.0311,-0.862,0.4332,-0.2613
239,2066503.0,2006.7315350000001,1.0,3.94,-0.5,-6.93,-26.06,-0.75,24.56,8.0,-31.81,24.19,-0.6305907262628845,0.6267386564507547,1.868888729184308,-119.08377982565194,51.34162455414572,-30.294427058078604,-0.0311,-0.862,0.4332,-0.2613
240,2066540.0,2006.74129,1.0,3.92,-0.22,-7.0,-25.25,-1.56,26.25,15.25,-44.0,14.63,-0.8258150139225353,1.0021433849380663,1.886515013852036,-119.17426448564116,52.08018919976154,-29.10890564472929,-0.0204,-0.8624,0.439,-0.2513
241,2066540.0,2006.74129,1.0,3.92,-0.22,-7.0,-25.25,-1.56,26.25,15.25,-44.0,14.63,-0.8258150139225353,1.0021433849380663,1.886515013852036,-119.17426448564116,52.08018919976154,-29.10890564472929,-0.0204,-0.8624,0.439,-0.2513
242,2066575.0,2006.760002,1.0,2.92,-1.22,-7.12,-25.25,-1.56,26.25,9.69,-39.25,6.31,-0.5456741865983994,-0.2267677743588681,2.0374791266961765,-119.58296175366009,52.19500183844674,-28.23367294753045,-0.0125,-0.8642,0.4399,-0.2439
243,2066575.0,2006.760002,1.0,2.92,-1.22,-7.12,-25.25,-1.56,26.25,9.69,-39.25,6.31,-0.5456741865983994,-0.2267677743588681,2.0374791266961765,-119.58296175366009,52.19500183844674,-28.23367294753045,-0.0125,-0.8642,0.4399,-0.2439
244,2066608.0,2006.7632649999998,1.0,1.77,-0.13,-7.28,-24.37,-0.88,26.25,20.56,-26.06,7.38,-1.960881021635338,-0.29131803347581875,2.580428343950264,-119.83395800048694,52.527000178757774,-27.230405140191408,-0.0038,-0.8653,0.4425,-0.2354
245,2066608.0,2006.7632649999998,1.0,1.77,-0.13,-7.28,-24.37,-0.88,26.25,20.56,-26.06,7.38,-1.960881021635338,-0.29131803347581875,2.580428343950264,-119.83395800048694,52.527000178757774,-27.230405140191408,-0.0038,-0.8653,0.4425,-0.2354
246,2066644.0,2006.805339,1.0,2.98,-1.98,-7.67,-23.69,-1.0,28.0,2.56,-10.25,-2.56,-0.10566913049039113,-0.4904203673605675,1.3580985325507218,-120.108859015364,52.360941896715254,-27.006438787370872,0.0014,-0.8665,0.4412,-0.2335
247,2066644.0,2006.805339,1.0,2.98,-1.98,-7.67,-23.69,-1.0,28.0,2.56,-10.25,-2.56,-0.10566913049039113,-0.4904203673605675,1.3580985325507218,-120.108859015364,52.360941896715254,-27.006438787370872,0.0014,-0.8665,0.4412,-0.2335
248,2066681.0,2006.809759,1.0,2.3,-1.64,-7.97,-24.25,-1.37,26.0,5.06,-14.81,-1.88,-0.8314459303965633,-0.8020626231138623,1.4301415857840445,-120.40796619724487,52.14396705080251,-26.817917077101303,0.005,-0.8678,0.4395,-0.2319
249,2066681.0,2006.809759,1.0,2.3,-1.64,-7.97,-24.25,-1.37,26.0,5.06,-14.81,-1.88,-0.8314459303965633,-0.8020626231138623,1.4301415857840445,-120.40796619724487,52.14396705080251,-26.817917077101303,0.005,-0.8678,0.4395,-0.2319
250,2066714.0,2006.867845,1.0,2.04,-1.4,-8.05,-24.25,-1.37,26.0,17.0,-7.0,3.63,-1.195524586735719,-0.791596389795008,1.50796359080403,-120.45410373713348,52.14396705080251,-26.676574330601248,0.0096,-0.868,0.4395,-0.2307
251,2066714.0,2006.867845,1.0,2.04,-1.4,-8.05,-24.25,-1.37,26.0,17.0,-7.0,3.63,-1.195524586735719,-0.791596389795008,1.50796359080403,-120.45410373713348,52.14396705080251,-26.676574330601248,0.0096,-0.868,0.4395,-0.2307
252,2066751.0,2006.885433,1.0,3.67,-2.66,-8.64,-22.37,-1.88,28.5,13.38,10.06,2.06,0.2547413403529277,-0.4133857698745198,0.061994077147696565,-120.24673960552259,52.10569825761032,-27.124302654398626,0.0122,-0.8671,0.4392,-0.2345
253,2066751.0,2006.885433,1.0,3.67,-2.66,-8.64,-22.37,-1.88,28.5,13.38,10.06,2.06,0.2547413403529277,-0.4133857698745198,0.061994077147696565,-120.24673960552259,52.10569825761032,-27.124302654398626,0.0122,-0.8671,0.4392,-0.2345
254,2066788.0,2006.928131,1.0,4.49,-3.82,-9.16,-22.69,-0.75,27.06,12.63,0.5,1.69,1.2534253044297792,-0.5620107283696163,-0.9994209301490606,-120.15478718177204,52.054682916137764,-27.395500797517954,0.0152,-0.8667,0.4388,-0.2368
255,2066788.0,2006.928131,1.0,4.49,-3.82,-9.16,-22.69,-0.75,27.06,12.63,0.5,1.69,1.2534253044297792,-0.5620107283696163,-0.9994209301490606,-120.15478718177204,52.054682916137764,-27.395500797517954,0.0152,-0.8667,0.4388,-0.2368
256,2066821.0,2006.982397,1.0,3.41,-2.42,-8.53,-22.69,-0.75,27.06,-3.31,-13.19,-5.75,-0.010518154011906422,-0.3774789389717266,0.3144005817077815,-120.40796619724487,52.04193081398262,-26.923951406436,0.0156,-0.8678,0.4387,-0.2328
257,2066821.0,2006.982397,1.0,3.41,-2.42,-8.53,-22.69,-0.75,27.06,-3.31,-13.19,-5.75,-0.010518154011906422,-0.3774789389717266,0.3144005817077815,-120.40796619724487,52.04193081398262,-26.923951406436,0.0156,-0.8678,0.4387,-0.2328
258,2066855.0,2006.994545,1.0,3.41,-2.68,-8.87,-23.0,-0.37,28.75,-11.06,0.88,-8.13,0.08982370798453626,-0.6366661021410291,-0.04596325618073927,-120.70844309282913,51.79977218612414,-26.770798221316568,0.0132,-0.8691,0.4368,-0.2315
259,2066855.0,2006.994545,1.0,3.41,-2.68,-8.87,-23.0,-0.37,28.75,-11.06,0.88,-8.13,0.08982370798453626,-0.6366661021410291,-0.04596325618073927,-120.70844309282913,51.79977218612414,-26.770798221316568,0.0132,-0.8691,0.4368,-0.2315
260,2066892.0,2007.011143,1.0,3.7,-2.07,-9.14,-23.0,-0.37,27.0,-10.44,1.75,-3.69,-0.3024075499194135,-0.1375880544529816,-0.263311231356532,-120.80117633509359,51.736087563875465,-26.74724052277769,0.0103,-0.8695,0.4363,-0.2313
261,2066892.0,2007.011143,1.0,3.7,-2.07,-9.14,-23.0,-0.37,27.0,-10.44,1.75,-3.69,-0.3024075499194135,-0.1375880544529816,-0.263311231356532,-120.80117633509359,51.736087563875465,-26.74724052277769,0.0103,-0.8695,0.4363,-0.2313
262,2066927.0,2007.050372,1.0,3.61,-2.06,-8.78,-23.0,-1.5,28.69,0.94,-7.06,-1.0,-0.18282851814864948,-0.11385055583437352,0.09491937235758564,-121.10347629286508,51.51968798135092,-26.558820285317804,0.0111,-0.8708,0.4346,-0.2297
263,2066927.0,2007.050372,1.0,3.61,-2.06,-8.78,-23.0,-1.5,28.69,0.94,-7.06,-1.0,-0.18282851814864948,-0.11385055583437352,0.09491937235758564,-121.10347629286508,51.51968798135092,-26.558820285317804,0.0111,-0.8708,0.4346,-0.2297
264,2066962.0,2007.1085920000003,1.0,4.51,-1.96,-9.22,-23.0,-1.5,28.69,0.56,3.94,-1.31,0.01895766560861284,0.5466330463805606,-0.6284318357844896,-121.08017234591215,51.51968798135092,-26.617693729981983,0.0109,-0.8707,0.4346,-0.2302
265,2066962.0,2007.1085920000003,1.0,4.51,-1.96,-9.22,-23.0,-1.5,28.69,0.56,3.94,-1.31,0.01895766560861284,0.5466330463805606,-0.6284318357844896,-121.08017234591215,51.51968798135092,-26.617693729981983,0.0109,-0.8707,0.4346,-0.2302
266,2066997.0,2007.126709,1.0,4.38,-1.93,-8.97,-21.87,-0.75,28.25,-5.38,-6.56,-3.25,0.07152081757666898,0.5140865519794482,-0.3472063998968924,-121.38378152894909,51.2907737294374,-26.41755310589251,0.0107,-0.872,0.4328,-0.2285
267,2066997.0,2007.126709,1.0,4.38,-1.93,-8.97,-21.87,-0.75,28.25,-5.38,-6.56,-3.25,0.07152081757666898,0.5140865519794482,-0.3472063998968924,-121.38378152894909,51.2907737294374,-26.41755310589251,0.0107,-0.872,0.4328,-0.2285
268,2067034.0,2007.171468,1.0,3.5,-1.81,-8.75,-22.56,-0.37,28.25,-0.94,-22.31,-1.0,-0.3234266331981193,0.013320811527269605,0.21583054757997466,-121.66531355494112,51.252642719818056,-25.93519704664329,0.0119,-0.8732,0.4325,-0.2244
269,2067034.0,2007.171468,1.0,3.5,-1.81,-8.75,-22.56,-0.37,28.25,-0.94,-22.31,-1.0,-0.3234266331981193,0.013320811527269605,0.21583054757997466,-121.66531355494112,51.252642719818056,-25.93519704664329,0.0119,-0.8732,0.4325,-0.2244
270,2067066.0,2007.193189,1.0,2.57,-1.95,-8.07,-22.56,-0.37,28.25,3.19,-9.13,-1.56,-0.3962865113625896,-0.6025453994512071,1.1456918519362258,-121.92447762133864,51.17639894970855,-25.523799625853453,0.0143,-0.8743,0.4319,-0.2209
271,2067066.0,2007.193189,1.0,2.57,-1.95,-8.07,-22.56,-0.37,28.25,3.19,-9.13,-1.56,-0.3962865113625896,-0.6025453994512071,1.1456918519362258,-121.92447762133864,51.17639894970855,-25.523799625853453,0.0143,-0.8743,0.4319,-0.2209
272,2067103.0,2007.2779899999998,1.0,4.13,-2.44,-9.09,-21.87,-1.06,28.25,10.0,16.62,-0.19,0.31459599964003865,0.07048303358578689,-0.4663564488925065,-121.8536919796764,50.998591161570644,-25.99399574998519,0.0145,-0.8740000000000001,0.4305,-0.2249
273,2067103.0,2007.2779899999998,1.0,4.13,-2.44,-9.09,-21.87,-1.06,28.25,10.0,16.62,-0.19,0.31459599964003865,0.07048303358578689,-0.4663564488925065,-121.8536919796764,50.998591161570644,-25.99399574998519,0.0145,-0.8740000000000001,0.4305,-0.2249
274,2067140.0,2007.2843940000002,1.0,4.32,-2.36,-9.24,-21.87,-0.37,28.25,2.75,1.56,0.94,0.2555544730222489,0.24120869594677094,-0.6569110705112209,-121.73589034408552,51.02398420663922,-26.1821984911941,0.0153,-0.8735,0.4307,-0.2265
275,2067140.0,2007.2843940000002,1.0,4.32,-2.36,-9.24,-21.87,-0.37,28.25,2.75,1.56,0.94,0.2555544730222489,0.24120869594677094,-0.6569110705112209,-121.73589034408552,51.02398420663922,-26.1821984911941,0.0153,-0.8735,0.4307,-0.2265
276,2067173.0,2007.304509,1.0,4.0,-2.59,-8.88,-21.87,-0.37,28.25,-9.31,-26.56,5.75,0.49085232428008707,-0.005835455510477815,-0.2592096226655123,-121.92447762133864,51.163694017238186,-25.547298987438325,0.0169,-0.8743,0.4318,-0.2211
277,2067173.0,2007.304509,1.0,4.0,-2.59,-8.88,-21.87,-0.37,28.25,-9.31,-26.56,5.75,0.49085232428008707,-0.005835455510477815,-0.2592096226655123,-121.92447762133864,51.163694017238186,-25.547298987438325,0.0169,-0.8743,0.4318,-0.2211
278,2067208.0,2007.3470140000002,1.0,3.44,-2.24,-8.88,-21.87,-1.5,27.87,-4.44,-26.69,16.31,0.048261170412268975,-0.0695467338715241,0.024092353288262203,-122.06628574219845,51.53241190190736,-24.57298013035922,0.0205,-0.8749,0.4347,-0.2128
279,2067208.0,2007.3470140000002,1.0,3.44,-2.24,-8.88,-21.87,-1.5,27.87,-4.44,-26.69,16.31,0.048261170412268975,-0.0695467338715241,0.024092353288262203,-122.06628574219845,51.53241190190736,-24.57298013035922,0.0205,-0.8749,0.4347,-0.2128
280,2067243.0,2007.359255,1.0,3.52,-2.76,-9.17,-21.5,-0.75,30.0,-3.5,-4.56,-1.94,0.3826649926342919,-0.3273845715451644,-0.3837026359849993,-122.20841159701892,51.45607859919252,-24.373645675055762,0.0225,-0.8755,0.4341,-0.2111
281,2067243.0,2007.359255,1.0,3.52,-2.76,-9.17,-21.5,-0.75,30.0,-3.5,-4.56,-1.94,0.3826649926342919,-0.3273845715451644,-0.3837026359849993,-122.20841159701892,51.45607859919252,-24.373645675055762,0.0225,-0.8755,0.4341,-0.2111
282,2067279.0,2007.4079809999998,1.0,3.08,-1.93,-9.23,-21.06,-0.75,28.37,-15.88,-11.13,-6.69,-0.3812523716159261,-0.17286062215173215,-0.10440271070871354,-122.63671936413529,51.303485419526396,-23.79950985538602,0.0195,-0.8773,0.4329,-0.2062
283,2067279.0,2007.4079809999998,1.0,3.08,-1.93,-9.23,-21.06,-0.75,28.37,-15.88,-11.13,-6.69,-0.3812523716159261,-0.17286062215173215,-0.10440271070871354,-122.63671936413529,51.303485419526396,-23.79950985538602,0.0195,-0.8773,0.4329,-0.2062
284,2067314.0,2007.5085170000002,1.0,2.98,-1.68,-9.26,-21.06,-0.75,28.37,-3.69,-7.0,0.12,-0.5916391498963809,-0.08480167969844521,-0.04693674754681787,-122.7801400993836,51.278062716299324,-23.541932535122797,0.0192,-0.8779,0.4327,-0.204
285,2067314.0,2007.5085170000002,1.0,2.98,-1.68,-9.26,-21.06,-0.75,28.37,-3.69,-7.0,0.12,-0.5916391498963809,-0.08480167969844521,-0.04693674754681787,-122.7801400993836,51.278062716299324,-23.541932535122797,0.0192,-0.8779,0.4327,-0.204
286,2067351.0,2007.5153920000002,1.0,2.8,-1.86,-8.97,-20.75,-1.06,29.56,-0.12,1.81,2.56,-0.4461200195676744,-0.26650804476322953,0.2415859442700317,-122.85197400573631,51.2272254279677,-23.47170516617001,0.0206,-0.8782,0.4323,-0.2034
287,2067351.0,2007.5153920000002,1.0,2.8,-1.86,-8.97,-20.75,-1.06,29.56,-0.12,1.81,2.56,-0.4461200195676744,-0.26650804476322953,0.2415859442700317,-122.85197400573631,51.2272254279677,-23.47170516617001,0.0206,-0.8782,0.4323,-0.2034
288,2067386.0,2007.564324,1.0,3.18,-1.89,-9.2,-19.56,0.0,30.0,-3.0,8.75,0.19,-0.31354974464647195,-0.05506893783228717,-0.10410950519021613,-122.82802018843607,51.20181083863504,-23.600462193143148,0.0195,-0.8781,0.4321,-0.2045
289,2067386.0,2007.564324,1.0,3.18,-1.89,-9.2,-19.56,0.0,30.0,-3.0,8.75,0.19,-0.31354974464647195,-0.05506893783228717,-0.10410950519021613,-122.82802018843607,51.20181083863504,-23.600462193143148,0.0195,-0.8781,0.4321,-0.2045
290,2067421.0,2007.5852989999998,1.0,3.62,-2.06,-9.43,-19.56,0.0,30.0,-1.37,-3.5,2.19,-0.045203316241689474,0.1292200017291837,-0.5013157959926247,-122.73229666048941,51.26535237984769,-23.694122645249475,0.019,-0.8777,0.4326,-0.2053
291,2067421.0,2007.5852989999998,1.0,3.62,-2.06,-9.43,-19.56,0.0,30.0,-1.37,-3.5,2.19,-0.045203316241689474,0.1292200017291837,-0.5013157959926247,-122.73229666048941,51.26535237984769,-23.694122645249475,0.019,-0.8777,0.4326,-0.2053
292,2067453.0,2007.668624,1.0,3.41,-1.99,-9.08,-20.75,-0.37,29.19,-0.19,1.94,-2.19,-0.07806029372865328,0.05503719339440294,-0.09413166095416337,-122.7801400993836,51.2272254279677,-23.705831329603118,0.0187,-0.8779,0.4323,-0.2054
293,2067453.0,2007.668624,1.0,3.41,-1.99,-9.08,-20.75,-0.37,29.19,-0.19,1.94,-2.19,-0.07806029372865328,0.05503719339440294,-0.09413166095416337,-122.7801400993836,51.2272254279677,-23.705831329603118,0.0187,-0.8779,0.4323,-0.2054
294,2067490.0,2007.67425,1.0,4.01,-2.44,-9.88,-21.5,-1.06,29.19,3.75,0.31,5.0,0.2490001605512601,0.12200978277679453,-1.1282122548687017,-122.6606000192726,51.252642719818056,-23.858067126010045,0.0195,-0.8774,0.4325,-0.2067
295,2067490.0,2007.67425,1.0,4.01,-2.44,-9.88,-21.5,-1.06,29.19,3.75,0.31,5.0,0.2490001605512601,0.12200978277679453,-1.1282122548687017,-122.6606000192726,51.252642719818056,-23.858067126010045,0.0195,-0.8774,0.4325,-0.2067
