acc_x,acc_y,acc_z,lin_x,lin_y,lin_z,eul_x,eul_y,eul_z
7.99,3.85,3.83,-0.1521177669650846,-0.1020408120915741,0.1475637151777551,-57.97253764637914,28.54099280947513,-62.44997546195721
7.99,3.85,3.83,-0.1521177669650846,-0.1020408120915741,0.1475637151777551,-57.97253764637914,28.54099280947513,-62.44997546195721
8.03,3.72,4.03,0.024395764650869,0.0613047737673593,0.0826669389606387,-58.02494481779507,28.505522169511824,-62.44997546195721
8.03,3.72,4.03,0.024395764650869,0.0613047737673593,0.0826669389606387,-58.02494481779507,28.505522169511824,-62.44997546195721
8.02,3.68,4.02,0.0634192134418747,0.0589356581033349,0.1104804165216695,-58.07736528499432,28.45823232032684,-62.46337629162338
8.02,3.68,4.02,0.0634192134418747,0.0589356581033349,0.1104804165216695,-58.07736528499432,28.45823232032684,-62.46337629162338
8.13,3.61,3.86,0.1360523234342101,-0.1372961303447666,0.1117420820319008,-58.06425892056141,28.434589251931108,-62.49018080239912
8.13,3.61,3.86,0.1360523234342101,-0.1372961303447666,0.1117420820319008,-58.06425892056141,28.434589251931108,-62.49018080239912
8.19,3.64,3.89,0.1290084257025798,-0.1394570865876889,0.038246417679181,-58.03804868729153,28.446410631571,-62.51698911767068
8.19,3.64,3.89,0.1290084257025798,-0.1394570865876889,0.038246417679181,-58.03804868729153,28.446410631571,-62.51698911767068
8.17,3.78,3.93,-0.0052362134743599,-0.0939458615613184,-0.0154346441661257,-58.0118417792849,28.48187662578674,-62.51698911767068
8.17,3.78,3.93,-0.0052362134743599,-0.0939458615613184,-0.0154346441661257,-58.0118417792849,28.48187662578674,-62.51698911767068
8.13,3.84,3.82,-0.1003298820675113,-0.1738716644893725,0.0396339480498433,-57.97253764637914,28.54099280947513,-62.49018080239912
8.13,3.84,3.82,-0.1003298820675113,-0.1738716644893725,0.0396339480498433,-57.97253764637914,28.54099280947513,-62.49018080239912
8.03,3.87,3.99,-0.1324885204867802,0.0265343411080385,0.0414238008440843,-57.97253764637914,28.576466242296,-62.44997546195721
8.03,3.87,3.99,-0.1324885204867802,0.0265343411080385,0.0414238008440843,-57.97253764637914,28.576466242296,-62.44997546195721
7.97,3.86,4.02,-0.1340102644009881,0.0822510110023608,0.0826499989600844,-57.98563819390608,28.588291341239625,-62.396381639113685
7.97,3.86,4.02,-0.1340102644009881,0.0822510110023608,0.0826499989600844,-57.98563819390608,28.588291341239625,-62.396381639113685
8.04,3.83,3.84,-0.1108124126391518,-0.1155099602556606,0.1097186267104692,-57.97253764637914,28.552816976564145,-62.396381639113685
8.04,3.83,3.84,-0.1108124126391518,-0.1155099602556606,0.1097186267104692,-57.97253764637914,28.552816976564145,-62.396381639113685
8.19,3.81,3.79,-0.0476390025911876,-0.2268865999531613,0.0136651130416947,-57.98563819390608,28.54099280947513,-62.396381639113685
8.19,3.81,3.79,-0.0476390025911876,-0.2268865999531613,0.0136651130416947,-57.98563819390608,28.54099280947513,-62.396381639113685
8.2,3.75,3.9,0.0321125905841572,-0.1296874514725492,-0.0165190378643362,-58.0118417792849,28.54099280947513,-62.396381639113685
8.2,3.75,3.9,0.0321125905841572,-0.1296874514725492,-0.0165190378643362,-58.0118417792849,28.54099280947513,-62.396381639113685
8.13,3.81,3.89,-0.052021074033566,-0.1041208068345649,0.0223997647780631,-58.0118417792849,28.56464145412097,-62.396381639113685
8.13,3.81,3.89,-0.052021074033566,-0.1041208068345649,0.0223997647780631,-58.0118417792849,28.56464145412097,-62.396381639113685
8.06,3.81,3.85,-0.0828087015659153,-0.1051251405999866,0.0966401429628387,-58.02494481779507,28.576466242296,-62.3829855554336
8.06,3.81,3.85,-0.0828087015659153,-0.1051251405999866,0.0966401429628387,-58.02494481779507,28.576466242296,-62.3829855554336
8.04,3.86,3.97,-0.1140735036510449,0.0138647210883233,0.0450469039263889,-58.03804868729153,28.576466242296,-62.3829855554336
8.04,3.86,3.97,-0.1140735036510449,0.0138647210883233,0.0450469039263889,-58.03804868729153,28.576466242296,-62.3829855554336
8.05,3.76,4.03,-0.0025932397307026,0.0652542615377438,0.0507935457229642,-58.07736528499432,28.552816976564145,-62.3829855554336
8.05,3.76,4.03,-0.0025932397307026,0.0652542615377438,0.0507935457229642,-58.07736528499432,28.552816976564145,-62.3829855554336
8.05,3.69,3.97,0.0590302138391976,0.01168536114088,0.102224262936053,-58.11668937344475,28.505522169511824,-62.3829855554336
8.05,3.69,3.97,0.0590302138391976,0.01168536114088,0.102224262936053,-58.11668937344475,28.505522169511824,-62.3829855554336
8.15,3.65,3.93,0.1226696053720652,-0.0732204383264973,0.0511648282963843,-58.10358051110581,28.48187662578674,-62.40977867122138
8.15,3.65,3.93,0.1226696053720652,-0.0732204383264973,0.0511648282963843,-58.10358051110581,28.48187662578674,-62.40977867122138
8.18,3.68,3.93,0.1022724911452741,-0.0893749620010984,0.0147527142988153,-58.07736528499432,28.48187662578674,-62.423176652141294
8.18,3.68,3.93,0.1022724911452741,-0.0893749620010984,0.0147527142988153,-58.07736528499432,28.48187662578674,-62.423176652141294
8.19,3.78,3.85,-0.0064028906246706,-0.1656611890280466,0.0005541727381928,-58.05115338810375,28.505522169511824,-62.43657558225824
8.19,3.78,3.85,-0.0064028906246706,-0.1656611890280466,0.0005541727381928,-58.05115338810375,28.505522169511824,-62.43657558225824
8.1,3.88,3.86,-0.1331303325798492,-0.1144186344005504,0.0325421281454492,-58.02494481779507,28.56464145412097,-62.40977867122138
8.1,3.88,3.86,-0.1331303325798492,-0.1144186344005504,0.0325421281454492,-58.02494481779507,28.56464145412097,-62.40977867122138
8.05,3.91,3.97,-0.1608032979676803,0.008707682980021,0.0175965996134319,-58.0118417792849,28.61194247203445,-62.36959041979664
8.05,3.91,3.97,-0.1608032979676803,0.008707682980021,0.0175965996134319,-58.0118417792849,28.61194247203445,-62.36959041979664
8.01,3.88,3.91,-0.1519984772572182,-0.0244871098586594,0.0866244421960349,-58.03804868729153,28.61194247203445,-62.32941069730318
8.01,3.88,3.91,-0.1519984772572182,-0.0244871098586594,0.0866244421960349,-58.03804868729153,28.61194247203445,-62.32941069730318
8.07,3.84,3.78,-0.1114454473382664,-0.1685817514680849,0.1052037106398646,-58.05115338810375,28.588291341239625,-62.30262894881712
8.07,3.84,3.78,-0.1114454473382664,-0.1685817514680849,0.1052037106398646,-58.05115338810375,28.588291341239625,-62.30262894881712
8.15,3.76,3.93,0.0239693556566125,-0.072797441381621,0.0087356299660523,-58.06425892056141,28.552816976564145,-62.27585098329318
8.15,3.76,3.93,0.0239693556566125,-0.072797441381621,0.0087356299660523,-58.06425892056141,28.552816976564145,-62.27585098329318
8.19,3.75,3.91,0.044424383841177,-0.1072334888726298,-0.0123737525420288,-58.07736528499432,28.552816976564145,-62.27585098329318
8.19,3.75,3.91,0.044424383841177,-0.1072334888726298,-0.0123737525420288,-58.07736528499432,28.552816976564145,-62.27585098329318
8.19,3.85,3.76,-0.0735528407755512,-0.2350745543787081,0.0099398413039946,-58.10358051110581,28.56464145412097,-62.262463418184296
8.19,3.85,3.76,-0.0735528407755512,-0.2350745543787081,0.0099398413039946,-58.10358051110581,28.56464145412097,-62.262463418184296
8.06,3.8,3.97,-0.0338869854323289,0.0154862841573513,0.0514917825633762,-58.12979906907962,28.576466242296,-62.24907679766712
8.06,3.8,3.97,-0.0338869854323289,0.0154862841573513,0.0514917825633762,-58.12979906907962,28.576466242296,-62.24907679766712
8.02,3.84,3.97,-0.080155220992951,0.0360169351045305,0.0691360502829976,-58.15602096155954,28.576466242296,-62.22230638887762
8.02,3.84,3.97,-0.080155220992951,0.0360169351045305,0.0691360502829976,-58.15602096155954,28.576466242296,-62.22230638887762
8.04,3.73,3.97,0.036851841418134,0.0285158540419569,0.0951501782498969,-58.20847476062468,28.52916895270361,-62.22230638887762
8.04,3.73,3.97,0.036851841418134,0.0285158540419569,0.0951501782498969,-58.20847476062468,28.52916895270361,-62.22230638887762
8.08,3.71,3.9,0.0574603396707396,-0.0521659796138767,0.0981755050066741,-58.20847476062468,28.517345406099267,-62.22230638887762
8.08,3.71,3.9,0.0574603396707396,-0.0521659796138767,0.0981755050066741,-58.20847476062468,28.517345406099267,-62.22230638887762
8.16,3.69,3.94,0.1109821824276304,-0.0594173865174434,0.0235292029657987,-58.1822461911917,28.48187662578674,-62.24907679766712
8.16,3.69,3.94,0.1109821824276304,-0.0594173865174434,0.0235292029657987,-58.1822461911917,28.48187662578674,-62.24907679766712
8.24,3.75,3.82,0.0591185896802846,-0.2045274199704059,-0.0171564683112723,-58.15602096155954,28.493699242791056,-62.24907679766712
8.24,3.75,3.82,0.0591185896802846,-0.2045274199704059,-0.0171564683112723,-58.15602096155954,28.493699242791056,-62.24907679766712
8.16,3.86,3.78,-0.079505969063321,-0.2061847400353333,0.02274655332495,-58.12979906907962,28.517345406099267,-62.235691121359
8.16,3.86,3.78,-0.079505969063321,-0.2061847400353333,0.02274655332495,-58.12979906907962,28.517345406099267,-62.235691121359
8.03,3.88,3.9,-0.123797456118968,-0.0354980696323679,0.0737822788753135,-58.12979906907962,28.56464145412097,-62.19553975386646
8.03,3.88,3.9,-0.123797456118968,-0.0354980696323679,0.0737822788753135,-58.12979906907962,28.56464145412097,-62.19553975386646
8.01,3.91,3.99,-0.1447012052158853,0.0544171834335414,0.0422042742377719,-58.11668937344475,28.588291341239625,-62.182157850572864
8.01,3.91,3.99,-0.1447012052158853,0.0544171834335414,0.0422042742377719,-58.11668937344475,28.588291341239625,-62.182157850572864
8.02,3.89,3.85,-0.1480733011403892,-0.0816046605618627,0.0985907203672304,-58.09047248173243,28.576466242296,-62.19553975386646
8.02,3.89,3.85,-0.1480733011403892,-0.0816046605618627,0.0985907203672304,-58.09047248173243,28.576466242296,-62.19553975386646
8.13,3.83,3.87,-0.0479853794111537,-0.1179607371456312,0.022658857942746,-58.07736528499432,28.54099280947513,-62.19553975386646
8.13,3.83,3.87,-0.0479853794111537,-0.1179607371456312,0.022658857942746,-58.07736528499432,28.54099280947513,-62.19553975386646
8.09,3.78,4.03,0.0146767139558274,0.0434838700891255,0.0099518956839563,-58.10358051110581,28.517345406099267,-62.22230638887762
8.09,3.78,4.03,0.0146767139558274,0.0434838700891255,0.0099518956839563,-58.10358051110581,28.517345406099267,-62.22230638887762
8.18,3.69,3.82,0.089564044195094,-0.1903550808807256,0.0559247333764769,-58.07736528499432,28.48187662578674,-62.262463418184296
8.18,3.69,3.82,0.089564044195094,-0.1903550808807256,0.0559247333764769,-58.07736528499432,28.48187662578674,-62.262463418184296
8.11,3.86,3.79,-0.1045396440511206,-0.1861398542416057,0.0603571961958504,-58.05115338810375,28.505522169511824,-62.30262894881712
8.11,3.86,3.79,-0.1045396440511206,-0.1861398542416057,0.0603571961958504,-58.05115338810375,28.505522169511824,-62.30262894881712
8.06,3.9,3.97,-0.1344867318261879,0.0011024027366266,0.012957534761421,-58.05115338810375,28.54099280947513,-62.34280299111539
8.06,3.9,3.97,-0.1344867318261879,0.0011024027366266,0.012957534761421,-58.05115338810375,28.54099280947513,-62.34280299111539
8.06,3.85,3.92,-0.0982966202775026,-0.0449982198009486,0.0526347788381631,-58.05115338810375,28.52916895270361,-62.36959041979664
8.06,3.85,3.92,-0.0982966202775026,-0.0449982198009486,0.0526347788381631,-58.05115338810375,28.52916895270361,-62.36959041979664
8.06,3.73,3.85,0.0042104217739784,-0.1090650673010227,0.1274409887510348,-58.07736528499432,28.48187662578674,-62.396381639113685
8.06,3.73,3.85,0.0042104217739784,-0.1090650673010227,0.1274409887510348,-58.07736528499432,28.48187662578674,-62.396381639113685
8.08,3.65,4.0,0.1132649239136478,0.0163543539932329,0.0806125955831174,-58.09047248173243,28.45823232032684,-62.40977867122138
8.08,3.65,4.0,0.1132649239136478,0.0163543539932329,0.0806125955831174,-58.09047248173243,28.45823232032684,-62.40977867122138
8.15,3.72,3.92,0.0575116450052961,-0.0915834956515904,0.028326786175814,-58.07736528499432,28.434589251931108,-62.44997546195721
8.15,3.72,3.92,0.0575116450052961,-0.0915834956515904,0.028326786175814,-58.07736528499432,28.434589251931108,-62.44997546195721
8.17,3.71,3.89,0.0677777071076108,-0.132541848323165,0.027951781890275,-58.05115338810375,28.41094741939909,-62.46337629162338
8.17,3.71,3.89,0.0677777071076108,-0.132541848323165,0.027951781890275,-58.05115338810375,28.41094741939909,-62.46337629162338
8.12,3.77,4.01,0.016989064054566,-0.0017780329817818,-0.0028916921638764,-58.05115338810375,28.422768181257144,-62.44997546195721
8.12,3.77,4.01,0.016989064054566,-0.0017780329817818,-0.0028916921638764,-58.05115338810375,28.422768181257144,-62.44997546195721
8.07,3.82,3.98,-0.0567433870597347,-0.0087274621953299,0.0314567016846858,-58.0118417792849,28.446410631571,-62.44997546195721
8.07,3.82,3.98,-0.0567433870597347,-0.0087274621953299,0.0314567016846858,-58.0118417792849,28.446410631571,-62.44997546195721
8.03,3.84,3.9,-0.1033071867411488,-0.060352337288138,0.089542137032156,-58.0118417792849,28.47005431834872,-62.423176652141294
8.03,3.84,3.9,-0.1033071867411488,-0.060352337288138,0.089542137032156,-58.0118417792849,28.47005431834872,-62.423176652141294
7.99,3.85,3.89,-0.1302676954406725,-0.0516936960923894,0.122897726768878,-57.99873957143164,28.48187662578674,-62.423176652141294
7.99,3.85,3.89,-0.1302676954406725,-0.0516936960923894,0.122897726768878,-57.99873957143164,28.48187662578674,-62.423176652141294
8.15,3.77,3.91,0.0051163972328955,-0.1141630395062931,0.013262403111474,-57.97253764637914,28.446410631571,-62.423176652141294
8.15,3.77,3.91,0.0051163972328955,-0.1141630395062931,0.013262403111474,-57.97253764637914,28.446410631571,-62.423176652141294
8.06,3.84,4.01,-0.0757011401842311,0.018414585313933,0.0197592659403564,-57.97253764637914,28.45823232032684,-62.43657558225824
8.06,3.84,4.01,-0.0757011401842311,0.018414585313933,0.0197592659403564,-57.97253764637914,28.45823232032684,-62.43657558225824
8.24,3.77,3.7,-0.003853634517948,-0.3483011381686642,0.0250769431419435,-57.94633904000565,28.422768181257144,-62.46337629162338
8.24,3.77,3.7,-0.003853634517948,-0.3483011381686642,0.0250769431419435,-57.94633904000565,28.422768181257144,-62.46337629162338
8.11,3.82,3.91,-0.0561564118956929,-0.095489269814144,0.0270626745167117,-57.97253764637914,28.446410631571,-62.43657558225824
8.11,3.82,3.91,-0.0561564118956929,-0.095489269814144,0.0270626745167117,-57.97253764637914,28.446410631571,-62.43657558225824
7.99,3.84,4.01,-0.0941844815622829,0.0566976688038163,0.0776359359858549,-58.02494481779507,28.45823232032684,-62.40977867122138
7.99,3.84,4.01,-0.0941844815622829,0.0566976688038163,0.0776359359858549,-58.02494481779507,28.45823232032684,-62.40977867122138
8.09,3.74,3.89,0.0182127993639424,-0.0969501798073122,0.0825526662329867,-58.05115338810375,28.422768181257144,-62.396381639113685
8.09,3.74,3.89,0.0182127993639424,-0.0969501798073122,0.0825526662329867,-58.05115338810375,28.422768181257144,-62.396381639113685
7.95,3.64,4.12,0.1086418504950459,0.1824097952447729,0.1432435811992345,-58.12979906907962,28.422768181257144,-62.3829855554336
7.95,3.64,4.12,0.1086418504950459,0.1824097952447729,0.1432435811992345,-58.12979906907962,28.422768181257144,-62.3829855554336
8.15,3.62,3.97,0.1672498578524595,-0.0504420585798188,0.0466662354758717,-58.09047248173243,28.387306821530828,-62.423176652141294
8.15,3.62,3.97,0.1672498578524595,-0.0504420585798188,0.0466662354758717,-58.09047248173243,28.387306821530828,-62.423176652141294
8.16,3.71,3.91,0.0681197852639814,-0.1096143027416682,0.0280435348900489,-58.05115338810375,28.422768181257144,-62.44997546195721
8.16,3.71,3.91,0.0681197852639814,-0.1096143027416682,0.0280435348900489,-58.05115338810375,28.422768181257144,-62.44997546195721
8.16,3.79,3.79,-0.0329635917155231,-0.215900724533622,0.0462145446134396,-58.02494481779507,28.45823232032684,-62.44997546195721
8.16,3.79,3.79,-0.0329635917155231,-0.215900724533622,0.0462145446134396,-58.02494481779507,28.45823232032684,-62.44997546195721
8.19,3.85,3.83,-0.0758829231333735,-0.1892546049594579,-0.0181107846948798,-58.0118417792849,28.517345406099267,-62.423176652141294
8.19,3.85,3.83,-0.0758829231333735,-0.1892546049594579,-0.0181107846948798,-58.0118417792849,28.517345406099267,-62.423176652141294
8.03,3.92,3.94,-0.1743022373391387,-0.0078588704854389,0.0424062009025387,-58.05115338810375,28.576466242296,-62.35619623181861
8.03,3.92,3.94,-0.1743022373391387,-0.0078588704854389,0.0424062009025387,-58.05115338810375,28.576466242296,-62.35619623181861
8.01,3.86,3.9,-0.1257999771113673,-0.034995716881615,0.0982696167662062,-58.06425892056141,28.56464145412097,-62.30262894881712
8.01,3.86,3.9,-0.1257999771113673,-0.034995716881615,0.0982696167662062,-58.06425892056141,28.56464145412097,-62.30262894881712
8.05,3.87,3.94,-0.1068509921537494,-0.0180562801601478,0.0449259291084978,-58.07736528499432,28.54099280947513,-62.262463418184296
8.05,3.87,3.94,-0.1068509921537494,-0.0180562801601478,0.0449259291084978,-58.07736528499432,28.54099280947513,-62.262463418184296
8.17,3.76,3.85,0.0307503338600507,-0.1522063702758789,0.0247847567135774,-58.11668937344475,28.505522169511824,-62.22230638887762
8.17,3.76,3.85,0.0307503338600507,-0.1522063702758789,0.0247847567135774,-58.11668937344475,28.505522169511824,-62.22230638887762
8.14,3.73,3.85,0.0485688363671572,-0.1368436837094715,0.061193885771031,-58.12979906907962,28.505522169511824,-62.22230638887762
8.14,3.73,3.85,0.0485688363671572,-0.1368436837094715,0.061193885771031,-58.12979906907962,28.505522169511824,-62.22230638887762
8.22,3.8,3.85,0.0111191690332927,-0.1709476213966261,-0.0321280376842967,-58.12979906907962,28.505522169511824,-62.22230638887762
8.22,3.8,3.85,0.0111191690332927,-0.1709476213966261,-0.0321280376842967,-58.12979906907962,28.505522169511824,-62.22230638887762
8.05,3.81,3.95,-0.0376263876054874,0.0004713216817466,0.063976648562436,-58.16913315906611,28.52916895270361,-62.208922599840776
8.05,3.81,3.95,-0.0376263876054874,0.0004713216817466,0.063976648562436,-58.16913315906611,28.52916895270361,-62.208922599840776
8.0,3.93,3.9,-0.1749992171266017,-0.0185856316602359,0.0791667772799069,-58.16913315906611,28.552816976564145,-62.182157850572864
8.0,3.93,3.9,-0.1749992171266017,-0.0185856316602359,0.0791667772799069,-58.16913315906611,28.552816976564145,-62.182157850572864
8.02,3.81,3.81,-0.0656102155340225,-0.1075191264483572,0.1455561210924276,-58.20847476062468,28.517345406099267,-62.16877688957837
8.02,3.81,3.81,-0.0656102155340225,-0.1075191264483572,0.1455561210924276,-58.20847476062468,28.517345406099267,-62.16877688957837
7.98,3.71,4.05,0.0685335055917069,0.1268719488954552,0.1202571385063695,-58.26094192949911,28.47005431834872,-62.115262460964935
7.98,3.71,4.05,0.0685335055917069,0.1268719488954552,0.1202571385063695,-58.26094192949911,28.47005431834872,-62.115262460964935
8.09,3.67,3.99,0.1377457302423326,0.0223912933079915,0.0692158028521721,-58.2740608132382,28.434589251931108,-62.115262460964935
8.09,3.67,3.99,0.1377457302423326,0.0223912933079915,0.0692158028521721,-58.2740608132382,28.434589251931108,-62.115262460964935
8.21,3.7,3.8,0.1155739202443557,-0.2101538219721288,0.0354383023613742,-58.23470667250937,28.41094741939909,-62.15539687050149
8.21,3.7,3.8,0.1155739202443557,-0.2101538219721288,0.0354383023613742,-58.23470667250937,28.41094741939909,-62.15539687050149
8.21,3.8,3.82,0.0203968147299347,-0.1918842899731296,-0.0116627058171463,-58.19536005826746,28.45823232032684,-62.14201779296097
8.21,3.8,3.82,0.0203968147299347,-0.1918842899731296,-0.0116627058171463,-58.19536005826746,28.45823232032684,-62.14201779296097
8.18,3.84,3.85,-0.0260343284075566,-0.146275159277609,-0.0146750527371626,-58.1822461911917,28.517345406099267,-62.101886205747824
8.18,3.84,3.85,-0.0260343284075566,-0.146275159277609,-0.0146750527371626,-58.1822461911917,28.517345406099267,-62.101886205747824
8.03,3.99,3.87,-0.2141595213805025,-0.0559723776419645,0.042997876314768,-58.1822461911917,28.588291341239625,-62.03501902225592
8.03,3.99,3.87,-0.2141595213805025,-0.0559723776419645,0.042997876314768,-58.1822461911917,28.588291341239625,-62.03501902225592
7.96,3.9,4.01,-0.1202306633633034,0.1039597877728006,0.0790379112027981,-58.22159029859478,28.576466242296,-61.95480935564663
7.96,3.9,4.01,-0.1202306633633034,0.1039597877728006,0.0790379112027981,-58.22159029859478,28.576466242296,-61.95480935564663
8.0,3.89,3.99,-0.0933835128510392,0.0634243403840839,0.0578317704618953,-58.22159029859478,28.54099280947513,-61.92808029086676
8.0,3.89,3.99,-0.0933835128510392,0.0634243403840839,0.0578317704618953,-58.22159029859478,28.54099280947513,-61.92808029086676
8.1,3.88,3.88,-0.0663520360593301,-0.0828630235293244,0.023627403346019,-58.22159029859478,28.517345406099267,-61.94144435552603
8.1,3.88,3.88,-0.0663520360593301,-0.0828630235293244,0.023627403346019,-58.22159029859478,28.517345406099267,-61.94144435552603
8.18,3.87,3.78,-0.0466027590176243,-0.2139786797184155,0.0020724309520652,-58.19536005826746,28.493699242791056,-61.95480935564663
8.18,3.87,3.78,-0.0466027590176243,-0.2139786797184155,0.0020724309520652,-58.19536005826746,28.493699242791056,-61.95480935564663
8.23,3.94,3.81,-0.0870611810495263,-0.2099843831902121,-0.0787395679214615,-58.19536005826746,28.48187662578674,-61.95480935564663
8.23,3.94,3.81,-0.0870611810495263,-0.2099843831902121,-0.0787395679214615,-58.19536005826746,28.48187662578674,-61.95480935564663
8.08,3.91,3.86,-0.100085148779754,-0.0926225410145951,0.0365167343843371,-58.23470667250937,28.48187662578674,-61.94144435552603
8.08,3.91,3.86,-0.100085148779754,-0.0926225410145951,0.0365167343843371,-58.23470667250937,28.48187662578674,-61.94144435552603
8.04,3.93,3.81,-0.1337695179777662,-0.1169251688720403,0.0818860326358432,-58.2740608132382,28.45823232032684,-61.91471716129068
8.04,3.93,3.81,-0.1337695179777662,-0.1169251688720403,0.0818860326358432,-58.2740608132382,28.45823232032684,-61.91471716129068
7.99,3.8,4.04,0.0181450957466979,0.1159315831281144,0.0810173407056034,-58.33966779766776,28.422768181257144,-61.9013549664198
7.99,3.8,4.04,0.0181450957466979,0.1159315831281144,0.0810173407056034,-58.33966779766776,28.422768181257144,-61.9013549664198
8.0,3.71,4.05,0.1111630719683951,0.1215272852293818,0.1041001346102117,-58.36591646165882,28.387306821530828,-61.9013549664198
8.0,3.71,4.05,0.1111630719683951,0.1215272852293818,0.1041001346102117,-58.36591646165882,28.387306821530828,-61.9013549664198
8.12,3.72,3.89,0.1159715129168437,-0.0822649551426275,0.0657730843754542,-58.352791710028974,28.34002932498839,-61.95480935564663
8.12,3.72,3.89,0.1159715129168437,-0.0822649551426275,0.0657730843754542,-58.352791710028974,28.34002932498839,-61.95480935564663
8.21,3.72,3.85,0.1375003281249185,-0.1662865584283608,0.0077499372250127,-58.31342248941901,28.31639242391693,-61.99490997256027
8.21,3.72,3.85,0.1375003281249185,-0.1662865584283608,0.0077499372250127,-58.31342248941901,28.31639242391693,-61.99490997256027
8.14,3.81,3.95,0.0431651421873877,-0.0434095961453586,-0.0103990666728588,-58.30030109286572,28.35184823709937,-61.99490997256027
8.14,3.81,3.95,0.0431651421873877,-0.0434095961453586,-0.0103990666728588,-58.30030109286572,28.35184823709937,-61.99490997256027
8.11,3.86,3.84,-0.0404905093701499,-0.1293380865517459,0.0394123056455679,-58.26094192949911,28.399126966206964,-61.99490997256027
8.11,3.86,3.84,-0.0404905093701499,-0.1293380865517459,0.0394123056455679,-58.26094192949911,28.399126966206964,-61.99490997256027
8.07,3.91,3.86,-0.0980865687085479,-0.0928177025726268,0.0447667852136195,-58.24782388270019,28.422768181257144,-61.96817529160685
8.07,3.91,3.86,-0.0980865687085479,-0.0928177025726268,0.0447667852136195,-58.24782388270019,28.422768181257144,-61.96817529160685
7.96,3.95,4.01,-0.1472643467674199,0.0919641646789943,0.0591346342985428,-58.24782388270019,28.434589251931108,-61.95480935564663
7.96,3.95,4.01,-0.1472643467674199,0.0919641646789943,0.0591346342985428,-58.24782388270019,28.434589251931108,-61.95480935564663
8.11,3.83,3.94,0.0059061240774094,-0.0387770253050376,0.0105762222047935,-58.26094192949911,28.41094741939909,-61.96817529160685
8.11,3.83,3.94,0.0059061240774094,-0.0387770253050376,0.0105762222047935,-58.26094192949911,28.41094741939909,-61.96817529160685
8.06,3.85,3.87,-0.0452803094158009,-0.0824130913097136,0.0724752647715423,-58.23470667250937,28.41094741939909,-61.98154216378515
8.06,3.85,3.87,-0.0452803094158009,-0.0824130913097136,0.0724752647715423,-58.23470667250937,28.41094741939909,-61.98154216378515
8.24,3.87,3.78,-0.0171087915251615,-0.2470036844429897,-0.0473642312219215,-58.22159029859478,28.387306821530828,-62.00827871831106
8.24,3.87,3.78,-0.0171087915251615,-0.2470036844429897,-0.0473642312219215,-58.22159029859478,28.387306821530828,-62.00827871831106
8.06,3.86,3.95,-0.0453851031761161,-0.0051204394552923,0.0361017055843024,-58.26094192949911,28.422768181257144,-62.03501902225592
8.06,3.86,3.95,-0.0453851031761161,-0.0051204394552923,0.0361017055843024,-58.26094192949911,28.422768181257144,-62.03501902225592
8.05,3.89,3.81,-0.1072015571378013,-0.122169374765888,0.0894342223187933,-58.26094192949911,28.446410631571,-62.06176307865436
8.05,3.89,3.81,-0.1072015571378013,-0.122169374765888,0.0894342223187933,-58.26094192949911,28.446410631571,-62.06176307865436
8.07,3.87,3.82,-0.077316429745629,-0.1204367779565718,0.0766080087130749,-58.2740608132382,28.434589251931108,-62.04839058120868
8.07,3.87,3.82,-0.077316429745629,-0.1204367779565718,0.0766080087130749,-58.2740608132382,28.434589251931108,-62.04839058120868
7.97,3.82,4.07,-0.0180942603858895,0.1570130689270472,0.0776613838114084,-58.33966779766776,28.434589251931108,-62.04839058120868
7.97,3.82,4.07,-0.0180942603858895,0.1570130689270472,0.0776613838114084,-58.33966779766776,28.434589251931108,-62.04839058120868
8.06,3.7,3.97,0.1116790569343029,0.026512136244102,0.0906155777228701,-58.37904205289053,28.387306821530828,-62.07513651497276
8.06,3.7,3.97,0.1116790569343029,0.026512136244102,0.0906155777228701,-58.37904205289053,28.387306821530828,-62.07513651497276
8.11,3.7,3.84,0.106777229082857,-0.1117073268734163,0.1018151175060086,-58.37904205289053,28.387306821530828,-62.06176307865436
8.11,3.7,3.84,0.106777229082857,-0.1117073268734163,0.1018151175060086,-58.37904205289053,28.387306821530828,-62.06176307865436
8.22,3.72,3.9,0.1348410867427227,-0.1042856535615723,-0.021256307234891,-58.37904205289053,28.41094741939909,-62.06176307865436
8.22,3.72,3.9,0.1348410867427227,-0.1042856535615723,-0.021256307234891,-58.37904205289053,28.41094741939909,-62.06176307865436
8.43,3.95,3.62,-0.0539746670800591,-0.4450904020368807,-0.1718659853220803,-58.37904205289053,28.422768181257144,-62.04839058120868
8.43,3.95,3.62,-0.0539746670800591,-0.4450904020368807,-0.1718659853220803,-58.37904205289053,28.422768181257144,-62.04839058120868
8.43,3.84,3.58,0.0497595035823115,-0.447183719428359,-0.1142597724392935,-58.58916597096109,28.446410631571,-62.02164840141652
8.43,3.84,3.58,0.0497595035823115,-0.447183719428359,-0.1142597724392935,-58.58916597096109,28.446410631571,-62.02164840141652
8.64,3.5,3.92,0.4854419490978004,-0.2139354083491738,-0.2920913946051033,-58.73375160745704,28.434589251931108,-62.208922599840776
8.64,3.5,3.92,0.4854419490978004,-0.2139354083491738,-0.2920913946051033,-58.73375160745704,28.434589251931108,-62.208922599840776
8.99,3.5,3.82,0.4790879563180489,-0.4268245597984695,-0.5495459968544392,-58.69430899208943,28.65924846946876,-62.90613913443401
8.99,3.5,3.82,0.4790879563180489,-0.4268245597984695,-0.5495459968544392,-58.69430899208943,28.65924846946876,-62.90613913443401
8.73,4.41,3.21,-0.6890183797060916,-0.8113278447781327,-0.432104846206391,-58.40529575549325,29.1681050221712,-63.32302309417771
8.73,4.41,3.21,-0.6890183797060916,-0.8113278447781327,-0.432104846206391,-58.40529575549325,29.1681050221712,-63.32302309417771
8.21,4.46,3.45,-0.9054350271905768,-0.2936327746794198,-0.1075906267535469,-58.484077048449976,29.74868303296809,-63.12118872806756
8.21,4.46,3.45,-0.9054350271905768,-0.2936327746794198,-0.1075906267535469,-58.484077048449976,29.74868303296809,-63.12118872806756
7.25,3.73,4.39,-0.3293501483129366,1.0282995177917025,0.6098229068381631,-58.970568079244025,29.902844499943303,-62.75843566799939
7.25,3.73,4.39,-0.3293501483129366,1.0282995177917025,0.6098229068381631,-58.970568079244025,29.902844499943303,-62.75843566799939
6.98,4.24,4.73,-0.7949936245461107,1.4910955577682896,0.5214187603089435,-59.19448243873018,29.95028992789253,-62.3829855554336
6.98,4.24,4.73,-0.7949936245461107,1.4910955577682896,0.5214187603089435,-59.19448243873018,29.95028992789253,-62.3829855554336
7.58,3.45,4.03,0.0827126987067154,0.5608426865005294,0.5720187626158246,-59.39226049534915,29.487919662093987,-62.32941069730318
7.58,3.45,4.03,0.0827126987067154,0.5608426865005294,0.5720187626158246,-59.39226049534915,29.487919662093987,-62.32941069730318
7.91,3.45,3.96,0.2468538727562408,0.329295627497389,0.3207221299803091,-59.53742151899626,29.0497142065708,-62.262463418184296
7.91,3.45,3.96,0.2468538727562408,0.329295627497389,0.3207221299803091,-59.53742151899626,29.0497142065708,-62.262463418184296
8.13,3.36,3.86,0.4107091934526184,0.1231055050654368,0.209657606909543,-59.590233417807454,28.801196435314267,-62.34280299111539
8.13,3.36,3.86,0.4107091934526184,0.1231055050654368,0.209657606909543,-59.590233417807454,28.801196435314267,-62.34280299111539
8.5,3.36,3.56,0.4912403001774863,-0.3449665835062363,0.0162015412344072,-59.550623188016026,28.505522169511824,-62.557208730764245
8.5,3.36,3.56,0.4912403001774863,-0.3449665835062363,0.0162015412344072,-59.550623188016026,28.505522169511824,-62.557208730764245
8.77,3.38,3.41,0.5425573466770353,-0.6235539850603669,-0.1573959630253671,-59.471426215105645,28.36366745712689,-62.61084822614068
8.77,3.38,3.41,0.5425573466770353,-0.6235539850603669,-0.1573959630253671,-59.471426215105645,28.36366745712689,-62.61084822614068
8.86,3.37,3.47,0.5795158778210727,-0.6199323241692121,-0.252040037017915,-59.35268933204871,28.41094741939909,-62.63767369990508
8.86,3.37,3.47,0.5795158778210727,-0.6199323241692121,-0.252040037017915,-59.35268933204871,28.41094741939909,-62.63767369990508
9.16,4.79,3.24,-0.7282333013491729,-0.9164998165729028,-0.9626120148749244,-59.089080085565726,28.76570522000204,-62.63767369990508
9.16,4.79,3.24,-0.7282333013491729,-0.9164998165729028,-0.9626120148749244,-59.089080085565726,28.76570522000204,-62.63767369990508
10.58,4.72,2.99,-0.2395658397103508,-1.7893048466438402,-2.021109566977204,-58.891598569681705,28.824858813433643,-62.5706171740576
10.58,4.72,2.99,-0.2395658397103508,-1.7893048466438402,-2.021109566977204,-58.891598569681705,28.824858813433643,-62.5706171740576
12.02,7.0,2.01,-1.9258788942239533,-3.345041789369162,-3.7071276329254648,-58.56288867530428,28.95502437185985,-61.7944910115485
12.02,7.0,2.01,-1.9258788942239533,-3.345041789369162,-3.7071276329254648,-58.56288867530428,28.95502437185985,-61.7944910115485
13.05,6.06,1.22,-0.2953490746056457,-4.522433683069389,-3.903742500084344,-59.577029137074135,27.832105272694303,-60.15884633673368
13.05,6.06,1.22,-0.2953490746056457,-4.522433683069389,-3.903742500084344,-59.577029137074135,27.832105272694303,-60.15884633673368
13.85,7.87,1.02,-1.2543185263148178,-4.737458130805055,-5.384892893775223,-60.9683017245208,28.22185710635222,-58.26094192949911
13.85,7.87,1.02,-1.2543185263148178,-4.737458130805055,-5.384892893775223,-60.9683017245208,28.22185710635222,-58.26094192949911
13.48,12.04,1.72,-4.547632953399291,-2.9336056152755767,-7.523768131573759,-64.06497040012911,31.15005518797356,-54.24571355108697
13.48,12.04,1.72,-4.547632953399291,-2.9336056152755767,-7.523768131573759,-64.06497040012911,31.15005518797356,-54.24571355108697
12.86,9.71,2.15,-2.205426298670207,-0.8550410297947222,-6.277230118879941,-69.207831623394,31.70954918748255,-52.258810985064926
12.86,9.71,2.15,-2.205426298670207,-0.8550410297947222,-6.277230118879941,-69.207831623394,31.70954918748255,-52.258810985064926
10.87,9.52,2.04,-2.4368520692316675,1.475008533525454,-4.505407916970167,-76.47170213704182,33.29706335021371,-48.96307461903554
10.87,9.52,2.04,-2.4368520692316675,1.475008533525454,-4.505407916970167,-76.47170213704182,33.29706335021371,-48.96307461903554
9.81,11.89,1.37,-4.674010338759546,3.202617391482532,-4.594112799134724,-83.27262296307823,35.46820114810156,-45.37440798509372
9.81,11.89,1.37,-4.674010338759546,3.202617391482532,-4.594112799134724,-83.27262296307823,35.46820114810156,-45.37440798509372
9.25,8.96,0.0,-2.390292396846204,2.81988818171772,-2.5294285057565205,-89.61062519853644,35.504295540348124,-43.90032983148112
9.25,8.96,0.0,-2.390292396846204,2.81988818171772,-2.5294285057565205,-89.61062519853644,35.504295540348124,-43.90032983148112
7.98,6.94,-0.59,-0.9868818395700238,3.1639010782911847,-0.2535634272347717,-98.15564818979227,34.77108519878443,-41.30509675325747
7.98,6.94,-0.59,-0.9868818395700238,3.1639010782911847,-0.2535634272347717,-98.15564818979227,34.77108519878443,-41.30509675325747
5.45,5.8,-0.63,-1.1795994032220671,3.1541645995991336,2.567921456495016,-104.35233464317456,33.8955603834521,-38.999166163078655
5.45,5.8,-0.63,-1.1795994032220671,3.1541645995991336,2.567921456495016,-104.35233464317456,33.8955603834521,-38.999166163078655
4.2,3.83,-1.12,-0.1899951544824201,2.24061099516932,4.467468020557872,-112.38260211278735,31.79294414962257,-35.793182116680164
4.2,3.83,-1.12,-0.1899951544824201,2.24061099516932,4.467468020557872,-112.38260211278735,31.79294414962257,-35.793182116680164
3.81,1.86,-1.99,0.8452645605619284,0.6383521971421088,5.244431866782135,-118.00727569803878,29.464221664430085,-33.823690775726206
3.81,1.86,-1.99,0.8452645605619284,0.6383521971421088,5.244431866782135,-118.00727569803878,29.464221664430085,-33.823690775726206
2.84,1.57,-2.58,0.2943349829248822,0.1120931960406327,5.672922622290144,-123.6719537539127,27.3719121623715,-31.924028325694472
2.84,1.57,-2.58,0.2943349829248822,0.1120931960406327,5.672922622290144,-123.6719537539127,27.3719121623715,-31.924028325694472
2.51,2.11,-3.93,-0.6752361591634775,-0.2656804270713606,4.740036728787233,-126.32740410450675,26.288094094940124,-31.24523405697452
2.51,2.11,-3.93,-0.6752361591634775,-0.2656804270713606,4.740036728787233,-126.32740410450675,26.288094094940124,-31.24523405697452
3.66,0.33,-3.61,1.2108495646002528,-0.9162308641247908,4.884154257438861,-129.2975202216285,24.37364567505576,-31.79294414962257
3.66,0.33,-3.61,1.2108495646002528,-0.9162308641247908,4.884154257438861,-129.2975202216285,24.37364567505576,-31.79294414962257
4.83,1.38,-5.16,0.7813036898512931,-0.4832576817334308,2.6641765798695203,-130.62518646665285,23.296175790566195,-33.0340215452869
4.83,1.38,-5.16,0.7813036898512931,-0.4832576817334308,2.6641765798695203,-130.62518646665285,23.296175790566195,-33.0340215452869
4.91,2.88,-5.42,-0.0506303902617984,0.7764371093334794,1.9853021635442003,-131.53850453910292,22.73485185773412,-33.380796277367786
4.91,2.88,-5.42,-0.0506303902617984,0.7764371093334794,1.9853021635442003,-131.53850453910292,22.73485185773412,-33.380796277367786
4.26,0.55,-4.72,0.7203294790154914,-0.7734708948562987,3.51289371170352,-132.98273895587266,20.94924459772563,-34.723057470664465
4.26,0.55,-4.72,0.7203294790154914,-0.7734708948562987,3.51289371170352,-132.98273895587266,20.94924459772563,-34.723057470664465
4.07,-1.67,-4.04,1.6480678623657288,-2.3608787458634426,4.573532012760698,-132.75344370342964,20.087487431641744,-36.73370161256758
4.07,-1.67,-4.04,1.6480678623657288,-2.3608787458634426,4.573532012760698,-132.75344370342964,20.087487431641744,-36.73370161256758
5.67,-0.07,-4.92,1.4647120408517844,-1.3028722163313309,2.559764970879164,-130.76254599505174,18.959614614971,-38.87762497174376
5.67,-0.07,-4.92,1.4647120408517844,-1.3028722163313309,2.559764970879164,-130.76254599505174,18.959614614971,-38.87762497174376
7.4,1.33,-6.27,1.2109934898163623,-0.6135123292256899,0.1113471481283525,-129.43150224575868,18.506668239532367,-40.15611188549902
7.4,1.33,-6.27,1.2109934898163623,-0.6135123292256899,0.1113471481283525,-129.43150224575868,18.506668239532367,-40.15611188549902
6.73,0.72,-4.98,1.3416009652395826,-0.3396462254849141,1.5183180030550094,-128.2110774660985,19.83151281371854,-42.24952684009253
6.73,0.72,-4.98,1.3416009652395826,-0.3396462254849141,1.5183180030550094,-128.2110774660985,19.83151281371854,-42.24952684009253
7.29,0.34,-4.35,2.0603618584931565,-0.249075453940497,1.5680171989637142,-127.1197096819897,20.285355318851703,-43.5175891368055
7.29,0.34,-4.35,2.0603618584931565,-0.249075453940497,1.5680171989637142,-127.1197096819897,20.285355318851703,-43.5175891368055
7.83,1.32,-4.85,1.4875218322211594,0.2307865579328484,0.6247212068028478,-124.972501010871,20.83272200177108,-44.77888374446125
7.83,1.32,-4.85,1.4875218322211594,0.2307865579328484,0.6247212068028478,-124.972501010871,20.83272200177108,-44.77888374446125
7.45,2.55,-4.65,0.4801912690916961,1.3771653350902904,0.7788965704410291,-123.09201996316364,22.41935080242252,-46.18291852714496
7.45,2.55,-4.65,0.4801912690916961,1.3771653350902904,0.7788965704410291,-123.09201996316364,22.41935080242252,-46.18291852714496
8.57,-1.69,-3.82,3.114485627663992,-1.3994199026560628,0.9052454360491762,-120.82438029207812,22.98036223475966,-49.833378319901584
8.57,-1.69,-3.82,3.114485627663992,-1.3994199026560628,0.9052454360491762,-120.82438029207812,22.98036223475966,-49.833378319901584
10.24,-1.38,-4.42,3.0538924806836967,-0.9705513510637898,-0.9650801670331416,-117.4973779425748,25.394572616004385,-52.00367866289412
10.24,-1.38,-4.42,3.0538924806836967,-0.9705513510637898,-0.9650801670331416,-117.4973779425748,25.394572616004385,-52.00367866289412
11.26,3.39,-3.87,0.9642945002081302,3.6674723583075166,-1.977932411690228,-115.0018244008949,28.399126966206964,-52.73154278918168
11.26,3.39,-3.87,0.9642945002081302,3.6674723583075166,-1.977932411690228,-115.0018244008949,28.399126966206964,-52.73154278918168
11.79,1.08,-4.49,1.6495506347441204,1.4973726473490334,-2.6579983246975782,-112.54753437473772,29.523469077350697,-54.60650529245762
11.79,1.08,-4.49,1.6495506347441204,1.4973726473490334,-2.6579983246975782,-112.54753437473772,29.523469077350697,-54.60650529245762
9.36,2.43,-4.75,-0.416270953051425,1.5394769172835123,-0.8485707539213774,-111.42068428698192,30.425034873037013,-54.348737347604505
9.36,2.43,-4.75,-0.416270953051425,1.5394769172835123,-0.8485707539213774,-111.42068428698192,30.425034873037013,-54.348737347604505
8.47,1.41,-2.94,0.9600975562795122,1.5135429316559843,0.9094594054100238,-110.69183416222988,31.328533702747045,-54.15560663572669
8.47,1.41,-2.94,0.9600975562795122,1.5135429316559843,0.9094594054100238,-110.69183416222988,31.328533702747045,-54.15560663572669
6.94,3.59,-4.74,-2.1674975181377927,1.4944978190810845,1.0552083600398523,-110.2096390648013,31.495183998739208,-53.667084063629616
6.94,3.59,-4.74,-2.1674975181377927,1.4944978190810845,1.0552083600398523,-110.2096390648013,31.495183998739208,-53.667084063629616
8.84,0.38,-3.02,1.7511463247215582,0.2768317937282207,0.6269304668445645,-110.22967237255024,28.93135507220408,-55.18758242160568
8.84,0.38,-3.02,1.7511463247215582,0.2768317937282207,0.6269304668445645,-110.22967237255024,28.93135507220408,-55.18758242160568
11.8,2.74,-6.43,-0.6211193575626955,0.2107570322158907,-3.8923387297213488,-109.13518228345345,28.588291341239625,-55.62764107730477
11.8,2.74,-6.43,-0.6211193575626955,0.2107570322158907,-3.8923387297213488,-109.13518228345345,28.588291341239625,-55.62764107730477
13.33,2.32,-9.55,-1.5243383193295583,-1.6816830247078616,-6.598292392237555,-110.22967237255024,27.60785191517117,-55.23930804894636
13.33,2.32,-9.55,-1.5243383193295583,-1.6816830247078616,-6.598292392237555,-110.22967237255024,27.60785191517117,-55.23930804894636
8.74,0.72,-4.15,1.1721832712149325,0.0944734394305766,0.1762003143453316,-113.52379683838042,27.855717200127582,-52.85947382737936
8.74,0.72,-4.15,1.1721832712149325,0.0944734394305766,0.1762003143453316,-113.52379683838042,27.855717200127582,-52.85947382737936
8.02,2.68,-4.56,-0.2314278134977656,1.431743197683157,0.3096529702527704,-115.66601281547123,27.89113735405041,-50.47862213735133
8.02,2.68,-4.56,-0.2314278134977656,1.431743197683157,0.3096529702527704,-115.66601281547123,27.89113735405041,-50.47862213735133
12.35,2.9,-8.59,-0.5297733366031223,0.2661581395077195,-5.5024681998375735,-116.59757736800644,25.923438140144057,-50.782858416372434
12.35,2.9,-8.59,-0.5297733366031223,0.2661581395077195,-5.5024681998375735,-116.59757736800644,25.923438140144057,-50.782858416372434
11.97,0.31,-10.08,-0.0521771156457034,-2.3054418989063867,-5.674487400054617,-118.92572331092975,24.56125248965988,-49.88392440352733
11.97,0.31,-10.08,-0.0521771156457034,-2.3054418989063867,-5.674487400054617,-118.92572331092975,24.56125248965988,-49.88392440352733
9.32,1.41,-8.5,-0.3403555211046199,-0.5707748632493437,-2.8684781719253767,-123.11607559607694,24.02206117401117,-46.2701332926198
9.32,1.41,-8.5,-0.3403555211046199,-0.5707748632493437,-2.8684781719253767,-123.11607559607694,24.02206117401117,-46.2701332926198
9.12,1.84,-9.97,-0.9912930106466092,-0.4877921069235875,-3.7852702847672033,-126.2513038466384,23.506817731301982,-43.56694626623634
9.12,1.84,-9.97,-0.9912930106466092,-0.4877921069235875,-3.7852702847672033,-126.2513038466384,23.506817731301982,-43.56694626623634
7.78,1.03,-9.25,-0.3922327021019232,-0.5597873725425034,-2.3046914453124803,-130.57034285366944,22.676412633281863,-40.14391148287503
7.78,1.03,-9.25,-0.3922327021019232,-0.5597873725425034,-2.3046914453124803,-130.57034285366944,22.676412633281863,-40.14391148287503
7.33,0.22,-10.02,-0.361140729492708,-1.1645545154619366,-2.550173627211752,-133.444524198005,22.314222150985408,-37.79789028318413
7.33,0.22,-10.02,-0.361140729492708,-1.1645545154619366,-2.550173627211752,-133.444524198005,22.314222150985408,-37.79789028318413
6.15,0.63,-9.78,-0.6548021418289656,-0.3436164448495238,-1.7398196723234527,-137.30822333899698,22.232468575814032,-34.267106355147284
6.15,0.63,-9.78,-0.6548021418289656,-0.3436164448495238,-1.7398196723234527,-137.30822333899698,22.232468575814032,-34.267106355147284
4.67,-1.51,-7.68,0.424880938141772,-1.6977580565513704,0.861903286435739,-139.9355135446495,21.928912393640328,-32.114772865183184
4.67,-1.51,-7.68,0.424880938141772,-1.6977580565513704,0.861903286435739,-139.9355135446495,21.928912393640328,-32.114772865183184
4.94,-1.5,-8.49,0.5342805100535528,-1.3505952432464887,-0.0231077195725877,-142.09917876057762,22.11569761985897,-29.8198276164604
4.94,-1.5,-8.49,0.5342805100535528,-1.3505952432464887,-0.0231077195725877,-142.09917876057762,22.11569761985897,-29.8198276164604
3.77,-0.98,-7.34,0.1369234423859374,-0.7982291257432412,1.5366450281913158,-143.3907030739344,22.51281453874211,-28.15096848573949
3.77,-0.98,-7.34,0.1369234423859374,-0.7982291257432412,1.5366450281913158,-143.3907030739344,22.51281453874211,-28.15096848573949
4.29,-2.08,-8.64,0.4488482710711338,-1.453352515932418,0.0564499151817692,-143.64697188895283,23.272776070440536,-27.44268161964677
4.29,-2.08,-8.64,0.4488482710711338,-1.453352515932418,0.0564499151817692,-143.64697188895283,23.272776070440536,-27.44268161964677
4.29,-2.03,-9.63,0.1922395390171171,-1.3439665946844233,-0.8431714892086788,-143.83109490597238,24.37364567505576,-26.26455976697084
4.29,-2.03,-9.63,0.1922395390171171,-1.3439665946844233,-0.8431714892086788,-143.83109490597238,24.37364567505576,-26.26455976697084
1.55,-2.81,-7.38,-0.6552867097238374,-2.72689146438358,2.2635960913015283,-143.57357451370328,25.418065988790868,-25.65305965168436
1.55,-2.81,-7.38,-0.6552867097238374,-2.72689146438358,2.2635960913015283,-143.57357451370328,25.418065988790868,-25.65305965168436
5.39,-1.41,-11.69,0.2675562385040444,-0.2580604640790696,-3.1377742226572938,-142.95536907296346,27.218614801739264,-24.608164621444825
5.39,-1.41,-11.69,0.2675562385040444,-0.2580604640790696,-3.1377742226572938,-142.95536907296346,27.218614801739264,-24.608164621444825
1.32,0.04,-7.21,-1.5714449584095849,-0.1102443296669077,2.6479834390778203,-143.46374555627918,28.6474215027532,-22.174080183171977
1.32,0.04,-7.21,-1.5714449584095849,-0.1102443296669077,2.6479834390778203,-143.46374555627918,28.6474215027532,-22.174080183171977
-0.44,0.33,-5.08,-2.318976532957272,-0.3368680977778883,5.265970786017473,-142.63208125401738,30.306298828005648,-21.34558610673021
-0.44,0.33,-5.08,-2.318976532957272,-0.3368680977778883,5.265970786017473,-142.63208125401738,30.306298828005648,-21.34558610673021
2.99,-2.02,-4.31,1.5312081074326636,-0.4745763948038165,4.418999400970076,-140.20399733163396,30.91220422108664,-24.24470448957822
2.99,-2.02,-4.31,1.5312081074326636,-0.4745763948038165,4.418999400970076,-140.20399733163396,30.91220422108664,-24.24470448957822
5.18,-0.86,-7.71,0.6250097901382916,1.157381399463263,0.5716117727695487,-137.1510918031107,31.304732073341743,-28.422768181257144
5.18,-0.86,-7.71,0.6250097901382916,1.157381399463263,0.5716117727695487,-137.1510918031107,31.304732073341743,-28.422768181257144
1.67,3.53,-6.34,-3.4927454912906244,3.131186807383799,4.0237616118037804,-136.9320256088512,31.41185033184749,-28.6474215027532
1.67,3.53,-6.34,-3.4927454912906244,3.131186807383799,4.0237616118037804,-136.9320256088512,31.41185033184749,-28.6474215027532
4.62,-8.52,0.13,7.026738175432787,-4.678686429550912,5.0436106438901165,-132.72485553305756,31.00732816596471,-33.18943360011411
4.62,-8.52,0.13,7.026738175432787,-4.678686429550912,5.0436106438901165,-132.72485553305756,31.00732816596471,-33.18943360011411
6.19,5.43,-8.45,-3.3154963007638427,7.406241589505436,1.2416882489177912,-131.1213744286973,33.6081640231361,-33.775785318620265
6.19,5.43,-8.45,-3.3154963007638427,7.406241589505436,1.2416882489177912,-131.1213744286973,33.6081640231361,-33.775785318620265
5.49,-2.89,-4.28,2.3640344287357817,0.2920768009030508,2.655661791218912,-130.3788376016962,31.91210981272961,-36.20284159032565
5.49,-2.89,-4.28,2.3640344287357817,0.2920768009030508,2.655661791218912,-130.3788376016962,31.91210981272961,-36.20284159032565
6.42,-5.84,-4.31,3.5223507096616933,-1.6234772443797685,0.926589914892082,-128.31613447366578,29.357596603435567,-39.88781236546699
6.42,-5.84,-4.31,3.5223507096616933,-1.6234772443797685,0.926589914892082,-128.31613447366578,29.357596603435567,-39.88781236546699
5.31,1.76,-6.93,-2.0657402972661343,3.797917073132584,2.020306639355105,-127.6108060653337,29.677550179192284,-41.34183738204944
5.31,1.76,-6.93,-2.0657402972661343,3.797917073132584,2.020306639355105,-127.6108060653337,29.677550179192284,-41.34183738204944
6.99,-7.66,-3.88,3.7648510460940834,-3.528011855892612,0.0102665374457995,-125.59589546247182,25.35933459116607,-45.821900740364754
6.99,-7.66,-3.88,3.7648510460940834,-3.528011855892612,0.0102665374457995,-125.59589546247182,25.35933459116607,-45.821900740364754
7.13,-2.34,-6.35,0.1386932833393183,1.1972299321662665,0.0505029806751196,-124.60157138168796,25.018825462277388,-47.11885074218369
7.13,-2.34,-6.35,0.1386932833393183,1.1972299321662665,0.0505029806751196,-124.60157138168796,25.018825462277388,-47.11885074218369
5.42,2.77,-5.42,-1.7478971155766303,4.6650096694766345,3.356205018679068,-125.19616916396942,26.205728877683853,-46.41971036641082
5.42,2.77,-5.42,-1.7478971155766303,4.6650096694766345,3.356205018679068,-125.19616916396942,26.205728877683853,-46.41971036641082
6.34,-2.69,-4.75,1.0124558393914496,0.0214879973094646,1.5019121089372265,-126.12469119973764,22.104021805228783,-47.53171485619927
6.34,-2.69,-4.75,1.0124558393914496,0.0214879973094646,1.5019121089372265,-126.12469119973764,22.104021805228783,-47.53171485619927
7.61,-3.73,-4.39,2.146817021738398,-0.6687219965741054,0.5308164759186056,-126.658333240647,18.76214012304259,-48.371981330891565
7.61,-3.73,-4.39,2.146817021738398,-0.6687219965741054,0.5308164759186056,-126.658333240647,18.76214012304259,-48.371981330891565
9.79,-3.11,-6.89,1.2576239946043597,0.8170156422597894,-2.470938009397372,-125.79677910995709,18.88991127772655,-49.15201312727976
9.79,-3.11,-6.89,1.2576239946043597,0.8170156422597894,-2.470938009397372,-125.79677910995709,18.88991127772655,-49.15201312727976
8.65,-2.33,-7.29,0.2554959334666003,1.0364861125236744,-1.6936073174050126,-126.78612125881504,18.15844670797989,-48.44736344772761
8.65,-2.33,-7.29,0.2554959334666003,1.0364861125236744,-1.6936073174050126,-126.78612125881504,18.15844670797989,-48.44736344772761
7.32,-3.12,-5.34,1.3009562456784012,-0.3213415268130477,0.3178854613482009,-128.55324310023371,16.859885280956842,-47.11885074218369
7.32,-3.12,-5.34,1.3009562456784012,-0.3213415268130477,0.3178854613482009,-128.55324310023371,16.859885280956842,-47.11885074218369
7.86,-4.3,-5.84,1.6572461968987564,-0.9658161513932072,-0.7145635328854798,-129.51205087236005,16.43138337904295,-45.77214298203665
7.86,-4.3,-5.84,1.6572461968987564,-0.9658161513932072,-0.7145635328854798,-129.51205087236005,16.43138337904295,-45.77214298203665
9.12,0.07,-7.5,0.7583743543894856,3.707055718057132,-1.3786933671847716,-130.70755912152916,17.717608294742977,-44.12280269978493
9.12,0.07,-7.5,0.7583743543894856,3.707055718057132,-1.3786933671847716,-130.70755912152916,17.717608294742977,-44.12280269978493
8.38,-3.15,-7.69,1.1116195902997783,0.2414904058735034,-1.9402212545227469,-133.18424101457546,14.996972698908555,-42.53221028877852
8.38,-3.15,-7.69,1.1116195902997783,0.2414904058735034,-1.9402212545227469,-133.18424101457546,14.996972698908555,-42.53221028877852
6.82,-5.81,-6.19,1.5966784905087,-2.9562985418921346,-0.551704923884067,-135.2162310052641,12.58451568698019,-40.96239758351413
6.82,-5.81,-6.19,1.5966784905087,-2.9562985418921346,-0.551704923884067,-135.2162310052641,12.58451568698019,-40.96239758351413
5.56,-2.46,-6.82,0.243640011974478,-0.2991498612942356,0.6781918111790244,-137.81479293008655,13.06883146764636,-38.62253627833281
5.56,-2.46,-6.82,0.243640011974478,-0.2991498612942356,0.6781918111790244,-137.81479293008655,13.06883146764636,-38.62253627833281
3.66,-0.76,-6.18,-0.8577951546363064,0.5967385525560848,2.6600640617651736,-139.60231554875963,12.58451568698019,-37.26537941343616
3.66,-0.76,-6.18,-0.8577951546363064,0.5967385525560848,2.6600640617651736,-139.60231554875963,12.58451568698019,-37.26537941343616
5.05,-1.73,-6.43,0.135401022561896,-0.0867834167934263,1.4511467116481356,-139.5359915492729,11.31711591010567,-37.81000260574194
5.05,-1.73,-6.43,0.135401022561896,-0.0867834167934263,1.4511467116481356,-139.5359915492729,11.31711591010567,-37.81000260574194
7.03,0.09,-9.11,-0.5151112774775324,2.014797406798702,-1.5113158853246509,-138.5209607780903,11.271055753655435,-39.181563633405815
7.03,0.09,-9.11,-0.5151112774775324,2.014797406798702,-1.5113158853246509,-138.5209607780903,11.271055753655435,-39.181563633405815
6.9,-0.98,-9.22,-0.8159109537963316,0.8756240164652825,-1.6888435473543026,-137.5291383748013,9.568049817899787,-40.68118093937297
6.9,-0.98,-9.22,-0.8159109537963316,0.8756240164652825,-1.6888435473543026,-137.5291383748013,9.568049817899787,-40.68118093937297
7.07,-4.07,-7.25,0.7319719078167198,-2.168906931163932,-0.8644492803045445,-137.02578084639396,7.878645873813733,-41.34183738204944
7.07,-4.07,-7.25,0.7319719078167198,-2.168906931163932,-0.8644492803045445,-137.02578084639396,7.878645873813733,-41.34183738204944
6.21,0.36,-9.39,-1.6479764650272022,1.8255200639298668,-1.1850491437587092,-137.4975120486347,8.154340029708836,-41.182660023882
6.21,0.36,-9.39,-1.6479764650272022,1.8255200639298668,-1.1850491437587092,-137.4975120486347,8.154340029708836,-41.182660023882
4.73,0.54,-7.52,-1.3226110757532012,1.5153390536970148,1.136624192965998,-138.87838831455554,8.61393617408195,-39.814679382357845
4.73,0.54,-7.52,-1.3226110757532012,1.5153390536970148,1.136624192965998,-138.87838831455554,8.61393617408195,-39.814679382357845
5.07,-0.63,-6.78,-0.4021974811247762,0.3640398879696747,1.3345834193985515,-139.46977154097462,7.396290017779932,-39.47361489538528
5.07,-0.63,-6.78,-0.4021974811247762,0.3640398879696747,1.3345834193985515,-139.46977154097462,7.396290017779932,-39.47361489538528
5.73,0.83,-8.02,-0.7891017582615605,1.8588018471096743,0.1234493871710871,-139.76858389100772,6.4778727055513645,-39.41274892746301
5.73,0.83,-8.02,-0.7891017582615605,1.8588018471096743,0.1234493871710871,-139.76858389100772,6.4778727055513645,-39.41274892746301
6.19,-2.08,-7.1,0.3158755078611933,-0.8650029152640224,0.2043329556550173,-139.5028685781741,5.812283928177061,-39.61974059674283
6.19,-2.08,-7.1,0.3158755078611933,-0.8650029152640224,0.2043329556550173,-139.5028685781741,5.812283928177061,-39.61974059674283
6.02,-1.61,-7.13,0.0496705672067963,-0.3634855090820738,0.3443663898221327,-139.14021367291954,4.825730880475589,-40.02193352838936
6.02,-1.61,-7.13,0.0496705672067963,-0.3634855090820738,0.3443663898221327,-139.14021367291954,4.825730880475589,-40.02193352838936
5.04,-1.61,-5.95,0.0169474159604951,-0.6023352777274961,1.867310921821189,-138.91102916961097,4.355527902560735,-40.32696746513329
5.04,-1.61,-5.95,0.0169474159604951,-0.6023352777274961,1.867310921821189,-138.91102916961097,4.355527902560735,-40.32696746513329
6.81,-1.6,-5.55,1.5226132814719815,-0.4327983287727596,1.0184229659676711,-138.26285199839916,4.4702044875913645,-40.98686336329807
6.81,-1.6,-5.55,1.5226132814719815,-0.4327983287727596,1.0184229659676711,-138.26285199839916,4.4702044875913645,-40.98686336329807
9.97,-0.32,-10.07,0.6430572671325303,1.2994934237927966,-4.293207949380459,-137.4343266309111,4.733977821845079,-41.94256744155725
9.97,-0.32,-10.07,0.6430572671325303,1.2994934237927966,-4.293207949380459,-137.4343266309111,4.733977821845079,-41.94256744155725
9.05,-2.5,-9.12,0.479950016858112,-1.1647064391518052,-3.221780714860337,-136.77619735313192,3.369477361207863,-42.76593619701882
9.05,-2.5,-9.12,0.479950016858112,-1.1647064391518052,-3.221780714860337,-136.77619735313192,3.369477361207863,-42.76593619701882
8.51,-2.06,-6.63,2.0367513039724243,-0.7737294345829733,-0.9578094331450996,-138.1664535645985,3.15166519950434,-41.23162880897231
8.51,-2.06,-6.63,2.0367513039724243,-0.7737294345829733,-0.9578094331450996,-138.1664535645985,3.15166519950434,-41.23162880897231
6.34,1.5,-5.89,1.1573846231317877,2.480130992392752,1.4611655266628745,-140.8145368825897,5.6516548202737225,-38.44045190034536
6.34,1.5,-5.89,1.1573846231317877,2.480130992392752,1.4611655266628745,-140.8145368825897,5.6516548202737225,-38.44045190034536
10.91,-2.3,-9.91,2.6154950313866694,-0.4412024765603157,-4.872952382744182,-141.5038163967487,5.078067932263361,-37.73733524113148
10.91,-2.3,-9.91,2.6154950313866694,-0.4412024765603157,-4.872952382744182,-141.5038163967487,5.078067932263361,-37.73733524113148
9.34,-0.68,-8.05,3.0234859806037853,0.8484533923821538,-2.136513708416945,-144.23939029133862,5.089538374458754,-34.9512454084058
9.34,-0.68,-8.05,3.0234859806037853,0.8484533923821538,-2.136513708416945,-144.23939029133862,5.089538374458754,-34.9512454084058
5.52,0.13,-5.38,1.6490714908497814,0.9848278358058952,2.3405682061881783,-146.19464572787078,5.169832905126534,-33.0459740960127
5.52,0.13,-5.38,1.6490714908497814,0.9848278358058952,2.3405682061881783,-146.19464572787078,5.169832905126534,-33.0459740960127
6.28,-0.71,-6.32,1.7898960909139,0.3724861856397135,1.0577971594706366,-145.9981360073074,4.344060485976967,-33.2133487153414
6.28,-0.71,-6.32,1.7898960909139,0.3724861856397135,1.0577971594706366,-145.9981360073074,4.344060485976967,-33.2133487153414
10.29,0.18,-10.54,2.836811921881357,2.5000251899238943,-4.43099278838382,-145.84171829017612,5.020716482682318,-32.8547775548023
10.29,0.18,-10.54,2.836811921881357,2.5000251899238943,-4.43099278838382,-145.84171829017612,5.020716482682318,-32.8547775548023
7.67,-1.4,-7.91,2.894735523661644,0.7663892243695316,-0.8886832722651334,-148.98694437514695,4.986306217889054,-28.81302746748213
7.67,-1.4,-7.91,2.894735523661644,0.7663892243695316,-0.8886832722651334,-148.98694437514695,4.986306217889054,-28.81302746748213
3.86,-1.88,-4.08,1.7671841162451647,-0.8142932844378891,4.212511393725559,-152.33556563307292,4.091788128472596,-25.418065988790868
3.86,-1.88,-4.08,1.7671841162451647,-0.8142932844378891,4.212511393725559,-152.33556563307292,4.091788128472596,-25.418065988790868
1.19,2.58,-4.29,-0.6366244487115913,3.0543220691255786,5.714899028917436,-156.36226771891504,2.9338644268256844,-22.617979384064764
1.19,2.58,-4.29,-0.6366244487115913,3.0543220691255786,5.714899028917436,-156.36226771891504,2.9338644268256844,-22.617979384064764
1.55,-0.08,-4.12,-0.1218066441916377,0.4021594351830501,5.424101548456764,-156.92843283344138,1.0657168616283692,-22.174080183171977
1.55,-0.08,-4.12,-0.1218066441916377,0.4021594351830501,5.424101548456764,-156.92843283344138,1.0657168616283692,-22.174080183171977
2.05,-1.34,-4.78,0.064356744551481,-0.9338635731471476,4.517958570527148,-157.44996317553057,-1.1688541705956874,-22.033971792326973
2.05,-1.34,-4.78,0.064356744551481,-0.9338635731471476,4.517958570527148,-157.44996317553057,-1.1688541705956874,-22.033971792326973
-0.24,-0.8,-3.54,-1.601700745605462,-0.6444564113456814,6.60533298111506,-157.56748354792904,-3.495584654482353,-22.09234622296079
-0.24,-0.8,-3.54,-1.601700745605462,-0.6444564113456814,6.60533298111506,-157.56748354792904,-3.495584654482353,-22.09234622296079
1.06,0.78,-3.97,-0.5333745045279338,0.7299552451807814,5.7230759553728365,-156.25063177900063,-4.699571210920838,-23.22597958095469
1.06,0.78,-3.97,-0.5333745045279338,0.7299552451807814,5.7230759553728365,-156.25063177900063,-4.699571210920838,-23.22597958095469
3.41,-1.02,-7.57,-0.3566768095396533,-1.5791821883937582,1.5998013192092717,-153.3110465719337,-5.915551513947968,-25.86464777060069
3.41,-1.02,-7.57,-0.3566768095396533,-1.5791821883937582,1.5998013192092717,-153.3110465719337,-5.915551513947968,-25.86464777060069
0.51,0.92,-5.28,-1.8886127448688577,0.4348980151974765,4.783811597632647,-151.7661453802759,-5.8581800447136345,-26.888604025029306
0.51,0.92,-5.28,-1.8886127448688577,0.4348980151974765,4.783811597632647,-151.7661453802759,-5.8581800447136345,-26.888604025029306
2.42,2.47,-9.12,-2.3221805469838523,0.9138306113821196,0.377753398546,-148.5189029496625,-5.422203865470181,-29.511618949559608
2.42,2.47,-9.12,-2.3221805469838523,0.9138306113821196,0.377753398546,-148.5189029496625,-5.422203865470181,-29.511618949559608
3.5,-0.35,-8.78,-1.5445948966741847,-2.09669928938143,0.7138518225919324,-147.15377378773437,-5.387788121139308,-30.650725683430657
3.5,-0.35,-8.78,-1.5445948966741847,-2.09669928938143,0.7138518225919324,-147.15377378773437,-5.387788121139308,-30.650725683430657
2.1,1.3,-6.94,-1.9696233672375656,-0.4758204689989857,2.724434338745864,-144.3515283507124,-4.49314033842009,-32.3533321925502
2.1,1.3,-6.94,-1.9696233672375656,-0.4758204689989857,2.724434338745864,-144.3515283507124,-4.49314033842009,-32.3533321925502
4.04,3.85,-7.72,-1.2295447691011212,1.0598251028655357,0.4200909706159024,-140.64403039131906,-4.1720543955147065,-34.97527349807247
4.04,3.85,-7.72,-1.2295447691011212,1.0598251028655357,0.4200909706159024,-140.64403039131906,-4.1720543955147065,-34.97527349807247
8.25,3.87,-11.28,-0.8185295295312204,-1.341524944587246,-4.6089013329298485,-135.73041492290912,-3.713416405127687,-38.54969038931157
8.25,3.87,-11.28,-0.8185295295312204,-1.341524944587246,-4.6089013329298485,-135.73041492290912,-3.713416405127687,-38.54969038931157
5.51,4.89,-7.77,-1.0524780874826387,0.8860095234168783,-0.8118422187560856,-134.1160248878201,-3.082884815106741,-39.40057712393039
5.51,4.89,-7.77,-1.0524780874826387,0.8860095234168783,-0.8118422187560856,-134.1160248878201,-3.082884815106741,-39.40057712393039
6.4,2.41,-7.53,-0.4303578394036455,-1.5944446648877832,-0.2303584358176547,-131.73432389141507,-2.87655022805785,-41.70948903373751
6.4,2.41,-7.53,-0.4303578394036455,-1.5944446648877832,-0.2303584358176547,-131.73432389141507,-2.87655022805785,-41.70948903373751
8.15,6.8,-9.53,-1.3890826934459997,1.0752177062264143,-4.349541442439104,-129.43150224575868,-1.741858774764144,-43.33257535076985
8.15,6.8,-9.53,-1.3890826934459997,1.0752177062264143,-4.349541442439104,-129.43150224575868,-1.741858774764144,-43.33257535076985
8.05,5.21,-8.72,-1.018200745188867,-0.2041863396174417,-3.1125827628698826,-127.87100362286014,-1.959611168911186,-44.71692355018706
8.05,5.21,-8.72,-1.018200745188867,-0.2041863396174417,-3.1125827628698826,-127.87100362286014,-1.959611168911186,-44.71692355018706
8.06,4.27,-7.86,-0.533042785405785,-0.6815359138994004,-2.2028243509860665,-126.9655039569828,-2.2346770389286066,-45.971228872033386
8.06,4.27,-7.86,-0.533042785405785,-0.6815359138994004,-2.2028243509860665,-126.9655039569828,-2.2346770389286066,-45.971228872033386
8.52,4.76,-8.37,-1.1600908988284828,-0.5071182975861022,-2.987955118514161,-124.84860239500853,-3.1287382797377283,-48.522767881927
8.52,4.76,-8.37,-1.1600908988284828,-0.5071182975861022,-2.987955118514161,-124.84860239500853,-3.1287382797377283,-48.522767881927
9.55,3.01,-8.81,-0.9564390136890112,-2.4021100160176982,-3.2774545503328643,-123.69623657185858,-4.103254614165427,-50.187419272308674
9.55,3.01,-8.81,-0.9564390136890112,-2.4021100160176982,-3.2774545503328643,-123.69623657185858,-4.103254614165427,-50.187419272308674
8.6,3.21,-8.0,-1.0758117524445043,-1.3558631894392534,-2.24608263973054,-123.96398525409832,-3.7592774051414257,-50.808228717792346
8.6,3.21,-8.0,-1.0758117524445043,-1.3558631894392534,-2.24608263973054,-123.96398525409832,-3.7592774051414257,-50.808228717792346
8.85,3.97,-7.21,-0.374619389562996,-0.252700996732196,-2.2707380669296207,-124.40467458524144,-3.4611913427691,-50.795543233726846
8.85,3.97,-7.21,-0.374619389562996,-0.252700996732196,-2.2707380669296207,-124.40467458524144,-3.4611913427691,-50.795543233726846
10.15,2.96,-7.84,0.0825283096939101,-1.55828399725374,-3.262957494565475,-124.6508963314865,-3.5987664920103746,-50.74480796197109
10.15,2.96,-7.84,0.0825283096939101,-1.55828399725374,-3.262957494565475,-124.6508963314865,-3.5987664920103746,-50.74480796197109
9.32,4.59,-8.08,-0.6324589162067371,0.1501958528225513,-3.3384759760074414,-125.47069041747116,-2.922401528803221,-49.98504770101025
9.32,4.59,-8.08,-0.6324589162067371,0.1501958528225513,-3.3384759760074414,-125.47069041747116,-2.922401528803221,-49.98504770101025
6.79,3.22,-5.96,-0.3100467329892012,0.1058832821055026,0.2208918268593204,-126.83731618493428,-2.7619239753850606,-48.862365423932296
6.79,3.22,-5.96,-0.3100467329892012,0.1058832821055026,0.2208918268593204,-126.83731618493428,-2.7619239753850606,-48.862365423932296
7.53,3.35,-6.09,0.3160200263643086,0.1958202602666645,-0.4341158780291323,-128.44773606463812,-2.486832027635776,-47.46911772602086
7.53,3.35,-6.09,0.3160200263643086,0.1958202602666645,-0.4341158780291323,-128.44773606463812,-2.486832027635776,-47.46911772602086
6.7,2.98,-5.94,0.0348426962508674,0.172830225584111,0.3714544164605389,-129.51205087236005,-2.2346770389286066,-46.66919183707166
6.7,2.98,-5.94,0.0348426962508674,0.172830225584111,0.3714544164605389,-129.51205087236005,-2.2346770389286066,-46.66919183707166
6.2,1.67,-5.49,0.2440586991623683,-0.6297389155648471,1.3856723697253326,-130.84513444406196,-2.2117544130994498,-46.008573794141824
6.2,1.67,-5.49,0.2440586991623683,-0.6297389155648471,1.3856723697253326,-130.84513444406196,-2.2117544130994498,-46.008573794141824
6.83,2.63,-5.82,0.4325949601037029,0.2267053642705352,0.4685738449076737,-131.3990875860209,-1.9137679978932431,-45.635356121986106
6.83,2.63,-5.82,0.4325949601037029,0.2267053642705352,0.4685738449076737,-131.3990875860209,-1.9137679978932431,-45.635356121986106
7.73,2.78,-6.2,0.7748530805711851,0.2231911655245952,-0.4535199989406173,-131.48269259246572,-2.1773706400327653,-45.74726752330664
7.73,2.78,-6.2,0.7748530805711851,0.2231911655245952,-0.4535199989406173,-131.48269259246572,-2.1773706400327653,-45.74726752330664
6.99,2.08,-7.25,-0.4272864066913613,-0.5171754346940417,-0.4548779513533372,-131.67829939723129,-2.360753104216733,-45.69752343772229
6.99,2.08,-7.25,-0.4272864066913613,-0.5171754346940417,-0.4548779513533372,-131.67829939723129,-2.360753104216733,-45.69752343772229
6.27,3.01,-6.05,-0.0378659026543341,0.8083944761555191,0.6240270335302682,-132.38305943270692,-2.1659094260652934,-45.11370802914807
6.27,3.01,-6.05,-0.0378659026543341,0.8083944761555191,0.6240270335302682,-132.38305943270692,-2.1659094260652934,-45.11370802914807
7.77,2.88,-7.94,-0.2663836903824465,0.2437706656267422,-1.6642050506088282,-132.81066902216784,-2.0627594617091103,-44.952445815509726
7.77,2.88,-7.94,-0.2663836903824465,0.2437706656267422,-1.6642050506088282,-132.81066902216784,-2.0627594617091103,-44.952445815509726
7.76,3.23,-7.32,0.3009379762880977,0.9498229640542228,-1.294709046143085,-133.88141126071122,-2.0398374773549266,-44.24647435383947
7.76,3.23,-7.32,0.3009379762880977,0.9498229640542228,-1.294709046143085,-133.88141126071122,-2.0398374773549266,-44.24647435383947
8.32,1.82,-8.63,-0.0994983274281212,-0.7633440992442841,-2.293726269727646,-134.05726525899885,-2.8421620551927376,-44.07334918943469
8.32,1.82,-8.63,-0.0994983274281212,-0.7633440992442841,-2.293726269727646,-134.05726525899885,-2.8421620551927376,-44.07334918943469
6.43,2.23,-7.0,-0.0810655393714461,0.2159067095091247,0.0462907509192884,-135.54829362030736,-3.1287382797377283,-42.64289936464318
6.43,2.23,-7.0,-0.0810655393714461,0.2159067095091247,0.0462907509192884,-135.54829362030736,-3.1287382797377283,-42.64289936464318
6.33,1.26,-6.13,0.6445601405349919,-0.5340339264717356,0.944779430497718,-136.77619735313192,-3.610231319265168,-41.47659109099214
6.33,1.26,-6.13,0.6445601405349919,-0.5340339264717356,0.944779430497718,-136.77619735313192,-3.610231319265168,-41.47659109099214
6.75,3.28,-7.82,0.0187537319439088,0.9653413243980092,-0.9887686776126312,-137.6241524258607,-3.793673550039814,-40.32696746513329
6.75,3.28,-7.82,0.0187537319439088,0.9653413243980092,-0.9887686776126312,-137.6241524258607,-3.793673550039814,-40.32696746513329
6.33,3.06,-8.28,-0.3388568651703804,0.646381558393696,-1.0311665192946204,-138.7806141249359,-4.194987989089829,-38.97485427752672
6.33,3.06,-8.28,-0.3388568651703804,0.646381558393696,-1.0311665192946204,-138.7806141249359,-4.194987989089829,-38.97485427752672
8.43,2.63,-10.49,0.235876995330638,-0.2527186387024533,-3.9010994627209374,-140.37268573421258,-4.217921750764655,-37.59204770944774
8.43,2.63,-10.49,0.235876995330638,-0.2527186387024533,-3.9010994627209374,-140.37268573421258,-4.217921750764655,-37.59204770944774
6.08,2.42,-7.95,0.4982267874815552,0.6789046341694344,-0.455716129014256,-144.09039985888563,-3.0599582684028324,-34.44701981345315
6.08,2.42,-7.95,0.4982267874815552,0.6789046341694344,-0.455716129014256,-144.09039985888563,-3.0599582684028324,-34.44701981345315
4.8,2.1,-7.97,-0.3069421224425442,0.5993989796554628,0.2925863363146241,-145.84171829017612,-2.738999060214957,-32.86672457746944
4.8,2.1,-7.97,-0.3069421224425442,0.5993989796554628,0.2925863363146241,-145.84171829017612,-2.738999060214957,-32.86672457746944
4.15,3.9,-8.11,-0.7020800054492191,2.3346188976314344,0.2013786207639789,-147.23493252348757,-2.223215714892369,-31.28093182906108
4.15,3.9,-8.11,-0.7020800054492191,2.3346188976314344,0.2013786207639789,-147.23493252348757,-2.223215714892369,-31.28093182906108
5.31,1.43,-8.84,0.1503014393997326,0.0117317892303673,-0.6031469164838086,-148.85861645005238,-2.2919839967771853,-30.10452391311007
5.31,1.43,-8.84,0.1503014393997326,0.0117317892303673,-0.6031469164838086,-148.85861645005238,-2.2919839967771853,-30.10452391311007
4.32,0.97,-7.9,0.1221182529457628,-0.030375476739575,0.7514048645710112,-151.34635737161238,-2.3034454566839293,-27.89113735405041
4.32,0.97,-7.9,0.1221182529457628,-0.030375476739575,0.7514048645710112,-151.34635737161238,-2.3034454566839293,-27.89113735405041
6.01,1.64,-8.9,1.3599280217112393,0.574953279559114,-0.9562364391523116,-152.57624392499284,-2.085681528609333,-26.806136930452627
6.01,1.64,-8.9,1.3599280217112393,0.574953279559114,-0.9562364391523116,-152.57624392499284,-2.085681528609333,-26.806136930452627
7.48,2.45,-9.94,2.3699237998643885,1.1920534043585496,-2.5916954486473145,-153.3110465719337,-2.051298459271143,-26.06456338881546
7.48,2.45,-9.94,2.3699237998643885,1.1920534043585496,-2.5916954486473145,-153.3110465719337,-2.051298459271143,-26.06456338881546
6.04,1.89,-9.67,1.422170958131961,0.7623076566909637,-1.6370782737050504,-154.42620867150097,-2.200293133435064,-24.9131959920262
6.04,1.89,-9.67,1.422170958131961,0.7623076566909637,-1.6370782737050504,-154.42620867150097,-2.200293133435064,-24.9131959920262
5.49,1.99,-8.28,1.7990513248236255,1.1276844402177555,-0.100435451026513,-156.19500732541923,-2.085681528609333,-23.272776070440536
5.49,1.99,-8.28,1.7990513248236255,1.1276844402177555,-0.100435451026513,-156.19500732541923,-2.085681528609333,-23.272776070440536
7.19,2.83,-10.92,2.37728012285282,1.5531978807394504,-3.2657451730643188,-156.19500732541923,-2.521217704700676,-23.10900551875196
7.19,2.83,-10.92,2.37728012285282,1.5531978807394504,-3.2657451730643188,-156.19500732541923,-2.521217704700676,-23.10900551875196
6.17,1.14,-10.0,1.8355621223756144,0.141610001124433,-1.854360175044082,-156.6436585308699,-3.174592245464794,-22.79329707445838
6.17,1.14,-10.0,1.8355621223756144,0.141610001124433,-1.854360175044082,-156.6436585308699,-3.174592245464794,-22.79329707445838
4.7,-0.06,-8.49,0.9935650932773364,-0.6834455395628052,0.1775570728405284,-156.58711361479934,-3.644626018390772,-22.95697570537593
4.7,-0.06,-8.49,0.9935650932773364,-0.6834455395628052,0.1775570728405284,-156.58711361479934,-3.644626018390772,-22.95697570537593
5.76,0.75,-12.07,0.4329028855904746,-0.2903085591317975,-3.5781666230300733,-155.591382770185,-4.779853967883568,-23.694122645249475
5.76,0.75,-12.07,0.4329028855904746,-0.2903085591317975,-3.5781666230300733,-155.591382770185,-4.779853967883568,-23.694122645249475
3.89,-0.49,-8.15,0.4049957449843232,-1.0374476008606204,0.83144075887291,-156.75715530060586,-5.307486603594608,-22.51281453874211
3.89,-0.49,-8.15,0.4049957449843232,-1.0374476008606204,0.83144075887291,-156.75715530060586,-5.307486603594608,-22.51281453874211
1.86,0.52,-7.41,-0.8280205369480759,0.3690308722509035,2.202947072760012,-158.71585002764485,-5.307486603594608,-20.588095276846204
1.86,0.52,-7.41,-0.8280205369480759,0.3690308722509035,2.202947072760012,-158.71585002764485,-5.307486603594608,-20.588095276846204
2.25,-1.6,-6.83,-0.3095169659462248,-1.6034893688061171,2.6230282747198324,-159.73268910086296,-5.915551513947968,-19.343110284151184
2.25,-1.6,-6.83,-0.3095169659462248,-1.6034893688061171,2.6230282747198324,-159.73268910086296,-5.915551513947968,-19.343110284151184
3.45,-1.15,-8.42,0.4923886910632481,-1.06462727299574,0.7101934290869778,-160.59764077497127,-5.6516548202737225,-18.437010245615284
3.45,-1.15,-8.42,0.4923886910632481,-1.06462727299574,0.7101934290869778,-160.59764077497127,-5.6516548202737225,-18.437010245615284
2.67,-0.41,-8.91,-0.0231735999096579,-0.2557767645151817,0.4997095128688294,-162.37875406030932,-5.628708719478254,-16.59349169701811
2.67,-0.41,-8.91,-0.0231735999096579,-0.2557767645151817,0.4997095128688294,-162.37875406030932,-5.628708719478254,-16.59349169701811
1.66,0.09,-7.03,-0.1839184001993253,0.2922848767310716,2.5910181099364253,-163.94405112777469,-5.686074397008276,-14.881400387429183
1.66,0.09,-7.03,-0.1839184001993253,0.2922848767310716,2.5910181099364253,-163.94405112777469,-5.686074397008276,-14.881400387429183
2.53,-0.84,-8.56,0.408097563414719,-0.46588559599586,0.8625733573175012,-165.04848521846108,-5.674601147870103,-13.380300633180664
2.53,-0.84,-8.56,0.408097563414719,-0.46588559599586,0.8625733573175012,-165.04848521846108,-5.674601147870103,-13.380300633180664
1.2,-0.84,-8.41,-0.6607175120575871,-0.3323072342863348,1.3021380051056788,-166.05072408085044,-5.777862453568277,-12.134996086138983
1.2,-0.84,-8.41,-0.6607175120575871,-0.3323072342863348,1.3021380051056788,-166.05072408085044,-5.777862453568277,-12.134996086138983
1.83,0.14,-9.39,0.1604812482728168,0.5436182703734107,0.2557691534461561,-167.75915046700433,-5.904077101832591,-10.269686237501055
1.83,0.14,-9.39,0.1604812482728168,0.5436182703734107,0.2557691534461561,-167.75915046700433,-5.904077101832591,-10.269686237501055
1.73,-0.38,-9.63,0.216694387556834,0.0665821276725289,0.0177373758789727,-168.7678701513817,-6.076199569788739,-8.797813093528106
1.73,-0.38,-9.63,0.216694387556834,0.0665821276725289,0.0177373758789727,-168.7678701513817,-6.076199569788739,-8.797813093528106
0.39,-0.37,-8.69,-0.6443884394002686,0.1816945338012182,1.1258176300279814,-170.00697332479714,-6.569694717687418,-6.730393436549607
0.39,-0.37,-8.69,-0.6443884394002686,0.1816945338012182,1.1258176300279814,-170.00697332479714,-6.569694717687418,-6.730393436549607
-0.75,-1.27,-8.56,-1.6905834172137686,-0.5281390684860063,1.303003909423289,-170.00697332479714,-7.304427851725569,-5.525454047712893
-0.75,-1.27,-8.56,-1.6905834172137686,-0.5281390684860063,1.303003909423289,-170.00697332479714,-7.304427851725569,-5.525454047712893
-0.76,-2.3,-8.61,-1.7418503144101598,-1.3876238109261942,1.144077769909222,-169.00454610436458,-8.69437956401469,-4.63075925768904
-0.76,-2.3,-8.61,-1.7418503144101598,-1.3876238109261942,1.144077769909222,-169.00454610436458,-8.69437956401469,-4.63075925768904
0.8,-0.86,-10.16,-0.0351897907297108,-0.0579755154167785,-0.4207934986579413,-168.6513771745933,-9.3380846266553,-4.252322710481399
0.8,-0.86,-10.16,-0.0351897907297108,-0.0579755154167785,-0.4207934986579413,-168.6513771745933,-9.3380846266553,-4.252322710481399
0.19,-2.07,-9.7,-0.6680898794588511,-0.9785591371231486,-0.0425671226000226,-167.54604215985927,-10.327214181692757,-3.3924056518954067
0.19,-2.07,-9.7,-0.6680898794588511,-0.9785591371231486,-0.0425671226000226,-167.54604215985927,-10.327214181692757,-3.3924056518954067
-0.52,-2.44,-9.34,-1.3057752683705175,-1.1271519071007805,0.2943380030756461,-166.62885834304856,-11.09834637461124,-2.6473004867786654
-0.52,-2.44,-9.34,-1.3057752683705175,-1.1271519071007805,0.2943380030756461,-166.62885834304856,-11.09834637461124,-2.6473004867786654
-0.03,-3.03,-9.5,-0.8612775020207204,-1.63936703670456,0.0085646368548371,-165.6781993872616,-11.92758912667584,-2.016915574628728
-0.03,-3.03,-9.5,-0.8612775020207204,-1.63936703670456,0.0085646368548371,-165.6781993872616,-11.92758912667584,-2.016915574628728
0.09,-1.96,-9.42,-0.4401782619321856,-0.6176901693738721,0.2144238792092032,-165.49550626988113,-12.07737906844118,-1.5355728478655368
0.09,-1.96,-9.42,-0.4401782619321856,-0.6176901693738721,0.2144238792092032,-165.49550626988113,-12.07737906844118,-1.5355728478655368
-0.74,-1.81,-8.91,-1.0872256000739915,-0.3976802218183005,0.758357844254899,-165.4050127335264,-12.307865676783145,-0.687553479519944
-0.74,-1.81,-8.91,-1.0872256000739915,-0.3976802218183005,0.758357844254899,-165.4050127335264,-12.307865676783145,-0.687553479519944
-1.54,-2.56,-8.23,-2.00269518443459,-1.0169959093470602,1.3442016947745046,-165.13681976050614,-12.58451568698019,-0.4583674584234223
-1.54,-2.56,-8.23,-2.00269518443459,-1.0169959093470602,1.3442016947745046,-165.13681976050614,-12.58451568698019,-0.4583674584234223
0.48,-1.34,-10.13,0.1496453070278252,-0.0718226534239029,-0.4215144388687673,-165.13681976050614,-12.734398426775371,-0.9625804159917916
0.48,-1.34,-10.13,0.1496453070278252,-0.0718226534239029,-0.4215144388687673,-165.13681976050614,-12.734398426775371,-0.9625804159917916
0.1,-2.19,-9.79,-0.4334050859317024,-0.8291894566624348,-0.1820838975692229,-164.87335484809628,-12.965030073382623,-1.0886361860699356
0.1,-2.19,-9.79,-0.4334050859317024,-0.8291894566624348,-0.1820838975692229,-164.87335484809628,-12.965030073382623,-1.0886361860699356
-0.53,-2.94,-9.38,-1.2347094860495258,-1.4453877066997167,0.1477035324818842,-164.61437509688025,-13.253393932396618,-1.1573944243672372
-0.53,-2.94,-9.38,-1.2347094860495258,-1.4453877066997167,0.1477035324818842,-164.61437509688025,-13.253393932396618,-1.1573944243672372
0.74,-1.03,-10.01,0.3784175231157332,0.1059195957904163,-0.2757198214966561,-165.04848521846108,-13.091899903813276,-1.4438918508267422
0.74,-1.03,-10.01,0.3784175231157332,0.1059195957904163,-0.2757198214966561,-165.04848521846108,-13.091899903813276,-1.4438918508267422
0.88,-1.31,-9.85,0.3954484810933611,-0.2760942325152296,-0.1573046603531249,-165.13681976050614,-13.126503557539667,-1.7303983035632713
0.88,-1.31,-9.85,0.3954484810933611,-0.2760942325152296,-0.1573046603531249,-165.13681976050614,-13.126503557539667,-1.7303983035632713
0.96,-1.02,-9.66,0.5223894589585962,-0.0507244072458213,0.0597460665615177,-165.2256794561049,-13.034229810442689,-1.8450038134157023
0.96,-1.02,-9.66,0.5223894589585962,-0.0507244072458213,0.0597460665615177,-165.2256794561049,-13.034229810442689,-1.8450038134157023
0.77,-0.38,-10.12,0.4685844611788648,0.6266785189950977,-0.3195241361963461,-165.86324083896642,-12.492290914481536,-1.8450038134157023
0.77,-0.38,-10.12,0.4685844611788648,0.6266785189950977,-0.3195241361963461,-165.86324083896642,-12.492290914481536,-1.8450038134157023
-0.66,-0.99,-9.05,-1.018767061738561,0.193567086553926,0.7378658776978497,-165.77042087262134,-12.665219075015518,-1.6960169933572922
-0.66,-0.99,-9.05,-1.018767061738561,0.193567086553926,0.7378658776978497,-165.77042087262134,-12.665219075015518,-1.6960169933572922
-0.03,-1.39,-8.97,-0.5374726036926337,-0.3123741299291295,0.7508537565308018,-165.5865648948541,-12.803582439206052,-1.9939937526124856
-0.03,-1.39,-8.97,-0.5374726036926337,-0.3123741299291295,0.7508537565308018,-165.5865648948541,-12.803582439206052,-1.9939937526124856
1.3,-1.17,-11.01,0.7060287041970309,-0.1553818524386738,-1.3179344843204177,-165.5865648948541,-12.699808169946316,-2.2919839967771853
1.3,-1.17,-11.01,0.7060287041970309,-0.1553818524386738,-1.3179344843204177,-165.5865648948541,-12.699808169946316,-2.2919839967771853
-0.3,-1.54,-9.03,-0.8192761086460589,-0.4255603323135429,0.6879776700298628,-165.6781993872616,-12.711338126294772,-1.8793858210517669
-0.3,-1.54,-9.03,-0.8192761086460589,-0.4255603323135429,0.6879776700298628,-165.6781993872616,-12.711338126294772,-1.8793858210517669
-0.09,-1.05,-9.41,-0.5564884908475449,-0.0053180499379021,0.3541904111998928,-165.86324083896642,-12.607573156584117,-2.1086036789736795
-0.09,-1.05,-9.41,-0.5564884908475449,-0.0053180499379021,0.3541904111998928,-165.86324083896642,-12.607573156584117,-2.1086036789736795
1.5,-1.35,-10.21,0.7691978144927233,-0.5817778897274493,-0.5560942894825853,-166.05072408085044,-12.423127669242316,-2.87655022805785
1.5,-1.35,-10.21,0.7691978144927233,-0.5817778897274493,-0.5560942894825853,-166.05072408085044,-12.423127669242316,-2.87655022805785
0.98,-0.18,-10.31,0.5198186665702432,0.5364517678493953,-0.5244151945797135,-166.43342218753332,-12.377021364647929,-2.750461504037132
0.98,-0.18,-10.31,0.5198186665702432,0.5364517678493953,-0.5244151945797135,-166.43342218753332,-12.377021364647929,-2.750461504037132
0.12,-0.36,-9.21,-0.3213020938552483,0.4288879984862444,0.6044263530090905,-166.62885834304856,-12.123472436717575,-2.7733864743736323
0.12,-0.36,-9.21,-0.3213020938552483,0.4288879984862444,0.6044263530090905,-166.62885834304856,-12.123472436717575,-2.7733864743736323
1.17,-1.02,-10.23,0.4648336466962145,-0.3027690297681637,-0.5255550209774853,-166.62885834304856,-12.06585603312212,-3.1287382797377283
1.17,-1.02,-10.23,0.4648336466962145,-0.3027690297681637,-0.5255550209774853,-166.62885834304856,-12.06585603312212,-3.1287382797377283
1.1,-0.78,-9.9,0.4327432034145765,-0.1023750391654414,-0.1748655498177918,-166.62885834304856,-11.985198208002226,-3.2892294003721183
1.1,-0.78,-9.9,0.4327432034145765,-0.1023750391654414,-0.1748655498177918,-166.62885834304856,-11.985198208002226,-3.2892294003721183
0.51,-0.37,-9.96,-0.0729700256479121,0.3985643385460381,-0.165030993864395,-166.62885834304856,-12.054333120262198,-3.346549205454908
0.51,-0.37,-9.96,-0.0729700256479121,0.3985643385460381,-0.165030993864395,-166.62885834304856,-12.054333120262198,-3.346549205454908
0.99,-1.25,-9.83,0.2179922205128267,-0.4171438784641825,-0.1407099701858474,-166.53078742603913,-11.800859775906506,-3.4497269749928665
0.99,-1.25,-9.83,0.2179922205128267,-0.4171438784641825,-0.1407099701858474,-166.53078742603913,-11.800859775906506,-3.4497269749928665
0.72,-0.98,-9.81,0.001879393704897,-0.0900579817304469,-0.0780243005425322,-166.62885834304856,-11.651107384541652,-3.5185137037623337
0.72,-0.98,-9.81,0.001879393704897,-0.0900579817304469,-0.0780243005425322,-166.62885834304856,-11.651107384541652,-3.5185137037623337
