,TIME,ELAPSED_SECONDS,PSTATE,acc_x,acc_y,acc_z,mag_x,mag_y,mag_z,gyr_x,gyr_y,gyr_z,lin_x,lin_y,lin_z,eul_x,eul_y,eul_z,qua_w,qua_x,qua_y,qua_z
0,2369570.0,620.243804,1.0,10.76,3.79,-1.09,-36.06,-25.87,4.06,-5.63,-86.37,-30.37,0.24348571509034375,0.4647764736317504,-1.6412536306262346,-93.78955612253351,-17.358172932119437,-83.15002129330095,-0.0612,-0.7301,-0.1509,-0.6636
1,2369570.0,620.243804,1.0,10.76,3.79,-1.09,-36.06,-25.87,4.06,-5.63,-86.37,-30.37,0.24348571509034375,0.4647764736317504,-1.6412536306262346,-93.78955612253351,-17.358172932119437,-83.15002129330095,-0.0612,-0.7301,-0.1509,-0.6636
2,2369605.0,620.2481769999999,1.0,13.64,5.98,-3.46,-35.0,-27.0,6.19,-28.44,-190.44,-107.5,-0.7217254908893977,1.305412066018912,-5.410334315352785,-97.1114810592852,-18.170051350104252,-79.28569137845204,-0.0784,-0.7496,-0.1579,-0.638
3,2369605.0,620.2481769999999,1.0,13.64,5.98,-3.46,-35.0,-27.0,6.19,-28.44,-190.44,-107.5,-0.7217254908893977,1.305412066018912,-5.410334315352785,-97.1114810592852,-18.170051350104252,-79.28569137845204,-0.0784,-0.7496,-0.1579,-0.638
4,2369640.0,620.278533,1.0,12.26,9.4,-5.27,-35.0,-27.0,6.19,-14.69,-343.38,-261.38,0.01856135864627606,2.6964361376947434,-6.292088696907253,-104.8019451062217,-22.104021805228786,-68.44387353354183,-0.1384,-0.7923,-0.1917,-0.5624
5,2369640.0,620.278533,1.0,12.26,9.4,-5.27,-35.0,-27.0,6.19,-14.69,-343.38,-261.38,0.01856135864627606,2.6964361376947434,-6.292088696907253,-104.8019451062217,-22.104021805228786,-68.44387353354183,-0.1384,-0.7923,-0.1917,-0.5624
6,2369677.0,620.324292,1.0,10.34,11.16,-5.92,-31.56,-29.25,10.25,9.06,-474.81,-274.44,2.0182531383503,2.597917446760487,-6.183505696845378,-113.02370899765695,-26.65302123047702,-54.96788438262905,-0.1959,-0.8340000000000001,-0.2305,-0.4615
7,2369677.0,620.324292,1.0,10.34,11.16,-5.92,-31.56,-29.25,10.25,9.06,-474.81,-274.44,2.0182531383503,2.597917446760487,-6.183505696845378,-113.02370899765695,-26.65302123047702,-54.96788438262905,-0.1959,-0.8340000000000001,-0.2305,-0.4615
8,2369714.0,620.349951,1.0,2.56,10.11,-4.68,-20.0,-34.06,17.75,36.81,-460.69,-292.88,1.908457622462698,4.006516967143376,-0.7277560722594227,-121.94809034282369,-32.09092481112806,-34.18317656247093,-0.2696,-0.8744,-0.2764,-0.2939
9,2369714.0,620.349951,1.0,2.56,10.11,-4.68,-20.0,-34.06,17.75,36.81,-460.69,-292.88,1.908457622462698,4.006516967143376,-0.7277560722594227,-121.94809034282369,-32.09092481112806,-34.18317656247093,-0.2696,-0.8744,-0.2764,-0.2939
10,2369751.0,620.353165,1.0,1.25,6.94,-5.76,-20.0,-34.06,17.75,23.5,-279.5,-309.88,1.277219744064761,0.5478195301937188,0.8081888266821142,-120.54647637591215,-39.75374814015767,-19.68030213963965,-0.3179,-0.8684,-0.34,-0.1709
11,2369751.0,620.353165,1.0,1.25,6.94,-5.76,-20.0,-34.06,17.75,23.5,-279.5,-309.88,1.277219744064761,0.5478195301937188,0.8081888266821142,-120.54647637591215,-39.75374814015767,-19.68030213963965,-0.3179,-0.8684,-0.34,-0.1709
12,2369785.0,620.4415280000001,1.0,-0.88,6.79,-7.35,-3.56,-36.88,22.69,-110.06,-252.63,-367.31,0.11507042621836072,-0.5631163803502295,-0.22184234626976185,-113.60746869012196,-46.10818553492847,-10.603384906468607,-0.3713,-0.8368,-0.3916,-0.0924
13,2369785.0,620.4415280000001,1.0,-0.88,6.79,-7.35,-3.56,-36.88,22.69,-110.06,-252.63,-367.31,0.11507042621836072,-0.5631163803502295,-0.22184234626976185,-113.60746869012196,-46.10818553492847,-10.603384906468607,-0.3713,-0.8368,-0.3916,-0.0924
14,2369822.0,620.447768,1.0,-2.38,2.7,-4.66,11.06,-36.19,21.56,-99.5,-195.0,-318.81,-1.2977457261454677,-0.878466300796957,4.130898685095929,-102.08271174423224,-54.37450072399204,0.10313241704642767,-0.4318,-0.7776,-0.4569,0.0009
15,2369822.0,620.447768,1.0,-2.38,2.7,-4.66,11.06,-36.19,21.56,-99.5,-195.0,-318.81,-1.2977457261454677,-0.878466300796957,4.130898685095929,-102.08271174423224,-54.37450072399204,0.10313241704642767,-0.4318,-0.7776,-0.4569,0.0009
16,2369857.0,620.507612,1.0,-4.24,1.31,-4.96,25.37,-31.69,14.88,-216.38,-125.56,-237.56,-3.276447626194064,-0.7311345471803635,4.059856700539279,-92.88779417994404,-58.74690084345127,4.435801047006329,-0.4825,-0.7247,-0.4905,0.0387
17,2369857.0,620.507612,1.0,-4.24,1.31,-4.96,25.37,-31.69,14.88,-216.38,-125.56,-237.56,-3.276447626194064,-0.7311345471803635,4.059856700539279,-92.88779417994404,-58.74690084345127,4.435801047006329,-0.4825,-0.7247,-0.4905,0.0387
18,2369892.0,620.511749,1.0,-4.35,4.49,-3.38,25.37,-31.69,14.88,-234.5,-61.75,-203.69,-0.3348810347102006,-0.6365079022728359,2.736309669935565,-79.95698362722979,-63.83532215478704,5.949975106955117,-0.5522,-0.6425,-0.5287,0.0519
19,2369892.0,620.511749,1.0,-4.35,4.49,-3.38,25.37,-31.69,14.88,-234.5,-61.75,-203.69,-0.3348810347102006,-0.6365079022728359,2.736309669935565,-79.95698362722979,-63.83532215478704,5.949975106955117,-0.5522,-0.6425,-0.5287,0.0519
20,2369927.0,620.576076,1.0,-4.68,1.71,-2.34,35.56,-26.06,7.06,-178.75,-57.31,-139.13,-1.9571763322427405,0.3356780389950407,4.6725599093758285,-70.63403485049959,-67.11863507977819,6.7992683543101915,-0.5972,-0.5781,-0.5528,0.0593
21,2369927.0,620.576076,1.0,-4.68,1.71,-2.34,35.56,-26.06,7.06,-178.75,-57.31,-139.13,-1.9571763322427405,0.3356780389950407,4.6725599093758285,-70.63403485049959,-67.11863507977819,6.7992683543101915,-0.5972,-0.5781,-0.5528,0.0593
22,2369964.0,620.594316,1.0,-4.58,3.92,-2.54,37.0,-20.19,0.19,-136.06,-14.38,-70.56,-0.659018476729303,-0.9919240552191128,3.3742180092202254,-65.39450949953873,-68.41615870880295,6.030298919379606,-0.624,-0.5402,-0.5622,0.0526
23,2369964.0,620.594316,1.0,-4.58,3.92,-2.54,37.0,-20.19,0.19,-136.06,-14.38,-70.56,-0.659018476729303,-0.9919240552191128,3.3742180092202254,-65.39450949953873,-68.41615870880295,6.030298919379606,-0.624,-0.5402,-0.5622,0.0526
24,2370000.0,620.64255,1.0,-4.97,2.89,-2.07,39.38,-16.37,-4.06,-88.12,-15.06,-42.63,-1.2843304226746768,-0.2442454787356645,3.837668553261413,-61.40760741658022,-69.45861698196556,5.341901218009245,-0.6423,-0.5106,-0.5697,0.0466
25,2370000.0,620.64255,1.0,-4.97,2.89,-2.07,39.38,-16.37,-4.06,-88.12,-15.06,-42.63,-1.2843304226746768,-0.2442454787356645,3.837668553261413,-61.40760741658022,-69.45861698196556,5.341901218009245,-0.6423,-0.5106,-0.5697,0.0466
26,2370035.0,620.660508,1.0,-4.81,6.47,-2.14,39.38,-16.37,-4.06,-173.81,31.37,-35.63,0.6709723391765355,-2.3955056887447506,1.8449951082547216,-57.37080402823785,-70.76047732673608,3.082884815106741,-0.6585,-0.48,-0.579,0.0269
27,2370035.0,620.660508,1.0,-4.81,6.47,-2.14,39.38,-16.37,-4.06,-173.81,31.37,-35.63,0.6709723391765355,-2.3955056887447506,1.8449951082547216,-57.37080402823785,-70.76047732673608,3.082884815106741,-0.6585,-0.48,-0.579,0.0269
28,2370072.0,620.706293,1.0,-5.94,4.46,-3.54,39.88,-15.0,-4.88,174.0,-27.44,26.5,-1.875109097902474,-1.6937978712542456,1.9758253536234776,-56.966262181573775,-71.18267056189946,3.3121572228147254,-0.6581,-0.4769,-0.5820000000000001,0.0289
29,2370072.0,620.706293,1.0,-5.94,4.46,-3.54,39.88,-15.0,-4.88,174.0,-27.44,26.5,-1.875109097902474,-1.6937978712542456,1.9758253536234776,-56.966262181573775,-71.18267056189946,3.3121572228147254,-0.6581,-0.4769,-0.5820000000000001,0.0289
30,2370109.0,620.7738820000001,1.0,-7.96,4.36,-1.28,39.88,-13.06,-6.06,73.94,-45.5,8.56,-0.9148381266858566,0.9425373056743096,0.7355808993165454,-59.445034172974474,-69.59810663742078,5.169832905126534,-0.653,-0.4958,-0.5707,0.0451
31,2370109.0,620.7738820000001,1.0,-7.96,4.36,-1.28,39.88,-13.06,-6.06,73.94,-45.5,8.56,-0.9148381266858566,0.9425373056743096,0.7355808993165454,-59.445034172974474,-69.59810663742078,5.169832905126534,-0.653,-0.4958,-0.5707,0.0451
32,2370142.0,620.78787,1.0,-7.48,3.47,-2.46,39.88,-13.06,-6.06,7.0,4.19,7.25,-2.0165638768132284,0.3614775509895489,1.449275764579964,-60.955004938931104,-69.33317685680693,6.271288310584378,-0.6451,-0.5072,-0.5688,0.0547
33,2370142.0,620.78787,1.0,-7.48,3.47,-2.46,39.88,-13.06,-6.06,7.0,4.19,7.25,-2.0165638768132284,0.3614775509895489,1.449275764579964,-60.955004938931104,-69.33317685680693,6.271288310584378,-0.6451,-0.5072,-0.5688,0.0547
34,2370177.0,620.8400519999999,1.0,-7.26,7.38,-0.63,40.0,-14.56,-6.06,-1.88,-3.38,-13.0,1.859912503071152,-0.3770547388659749,-0.38979326247237545,-60.609606145201504,-69.51439870357002,6.454917855397503,-0.6459,-0.5046,-0.5701,0.0563
35,2370177.0,620.8400519999999,1.0,-7.26,7.38,-0.63,40.0,-14.56,-6.06,-1.88,-3.38,-13.0,1.859912503071152,-0.3770547388659749,-0.38979326247237545,-60.609606145201504,-69.51439870357002,6.454917855397503,-0.6459,-0.5046,-0.5701,0.0563
36,2370213.0,620.854264,1.0,-8.17,5.35,-0.18,39.19,-14.56,-4.38,116.56,9.0,-10.81,0.7771246890407185,1.5404900858754318,0.1927658987117553,-62.34280299111539,-69.72374829540703,8.108387763620353,-0.6328,-0.5176,-0.5716,0.0707
37,2370213.0,620.854264,1.0,-8.17,5.35,-0.18,39.19,-14.56,-4.38,116.56,9.0,-10.81,0.7771246890407185,1.5404900858754318,0.1927658987117553,-62.34280299111539,-69.72374829540703,8.108387763620353,-0.6328,-0.5176,-0.5716,0.0707
38,2370248.0,620.905742,1.0,-9.67,2.92,-1.03,39.19,-14.56,-4.38,43.5,56.0,-54.06,-1.5972269661379697,2.851674543017431,0.1934809949659151,-63.17498984222817,-70.97143532628913,9.464560757916416,-0.6179,-0.5238,-0.5805,0.0825
39,2370248.0,620.905742,1.0,-9.67,2.92,-1.03,39.19,-14.56,-4.38,43.5,56.0,-54.06,-1.5972269661379697,2.851674543017431,0.1934809949659151,-63.17498984222817,-70.97143532628913,9.464560757916416,-0.6179,-0.5238,-0.5805,0.0825
40,2370283.0,620.928182,1.0,-7.4,1.31,-5.53,40.0,-14.56,-4.38,-2.81,70.5,-16.56,-4.437816278713671,-0.5501079324076762,1.617622711054988,-63.25572065292907,-74.50086547711395,9.142643881088318,-0.5934,-0.5244,-0.6053,0.0797
41,2370283.0,620.928182,1.0,-7.4,1.31,-5.53,40.0,-14.56,-4.38,-2.81,70.5,-16.56,-4.437816278713671,-0.5501079324076762,1.617622711054988,-63.25572065292907,-74.50086547711395,9.142643881088318,-0.5934,-0.5244,-0.6053,0.0797
42,2370318.0,620.935158,1.0,-8.14,5.85,-1.56,40.25,-12.69,-1.56,-91.0,31.87,-23.87,1.1813008773862252,0.6436528610518866,-0.24849491350305364,-60.75566190693615,-76.53006953196333,6.833706733841952,-0.5977,-0.5057,-0.6193,0.0596
43,2370318.0,620.935158,1.0,-8.14,5.85,-1.56,40.25,-12.69,-1.56,-91.0,31.87,-23.87,1.1813008773862252,0.6436528610518866,-0.24849491350305364,-60.75566190693615,-76.53006953196333,6.833706733841952,-0.5977,-0.5057,-0.6193,0.0596
44,2370355.0,621.020217,1.0,-8.17,4.46,-3.28,41.5,-13.38,-1.06,53.94,85.0,-24.44,-0.6540298182189459,0.3583392634666525,-0.03422079323464722,-60.68925941563211,-78.55841408450421,6.523783187455053,-0.5837,-0.5052,-0.6331,0.0569
45,2370355.0,621.020217,1.0,-8.17,4.46,-3.28,41.5,-13.38,-1.06,53.94,85.0,-24.44,-0.6540298182189459,0.3583392634666525,-0.03422079323464722,-60.68925941563211,-78.55841408450421,6.523783187455053,-0.5837,-0.5052,-0.6331,0.0569
46,2370387.0,621.025565,1.0,-7.27,2.78,-5.12,41.5,-13.38,-1.06,-14.38,79.44,-40.63,-2.539339290459385,-0.26954079845591394,0.8470292643942212,-59.8677251126705,-81.89997406921938,5.823757869537403,-0.5647,-0.499,-0.6554,0.0508
47,2370387.0,621.025565,1.0,-7.27,2.78,-5.12,41.5,-13.38,-1.06,-14.38,79.44,-40.63,-2.539339290459385,-0.26954079845591394,0.8470292643942212,-59.8677251126705,-81.89997406921938,5.823757869537403,-0.5647,-0.499,-0.6554,0.0508
48,2370424.0,621.083127,1.0,-7.46,4.09,-3.87,42.19,-11.19,2.19,-42.38,41.25,-27.75,-0.6917372328136302,0.018519719734896526,0.4858261833666066,-57.94633904000565,-83.91820775613573,4.6192907619204595,-0.5627,-0.4844,-0.6686,0.0403
49,2370424.0,621.083127,1.0,-7.46,4.09,-3.87,42.19,-11.19,2.19,-42.38,41.25,-27.75,-0.6917372328136302,0.018519719734896526,0.4858261833666066,-57.94633904000565,-83.91820775613573,4.6192907619204595,-0.5627,-0.4844,-0.6686,0.0403
50,2370461.0,621.102882,1.0,-8.37,5.89,-2.69,42.56,-9.69,3.38,-43.38,27.12,-37.63,1.3852617925602706,0.21078824274611385,-0.6824737995741419,-55.860974209079195,-85.7654543452423,3.6331610823402585,-0.5625,-0.4684,-0.6805,0.0317
51,2370461.0,621.102882,1.0,-8.37,5.89,-2.69,42.56,-9.69,3.38,-43.38,27.12,-37.63,1.3852617925602706,0.21078824274611385,-0.6824737995741419,-55.860974209079195,-85.7654543452423,3.6331610823402585,-0.5625,-0.4684,-0.6805,0.0317
52,2370496.0,621.148704,1.0,-9.41,0.7,-4.28,42.56,-9.69,3.38,110.19,0.81,-50.38,-3.0751934626643034,2.646608767582713,0.2727553499348385,-56.3283987391895,-86.47121429796438,5.789336220308418,-0.5526,-0.47200000000000003,-0.685,0.0505
53,2370496.0,621.148704,1.0,-9.41,0.7,-4.28,42.56,-9.69,3.38,110.19,0.81,-50.38,-3.0751934626643034,2.646608767582713,0.2727553499348385,-56.3283987391895,-86.47121429796438,5.789336220308418,-0.5526,-0.47200000000000003,-0.685,0.0505
54,2370529.0,621.156107,1.0,-7.98,-2.18,-5.53,41.5,-9.69,4.25,46.63,-10.5,-20.19,-5.713173153930672,2.3434239499273786,2.0039763105450445,-57.37080402823785,-86.64435486876549,8.395611151395807,-0.5418,-0.48,-0.6861,0.0732
55,2370529.0,621.156107,1.0,-7.98,-2.18,-5.53,41.5,-9.69,4.25,46.63,-10.5,-20.19,-5.713173153930672,2.3434239499273786,2.0039763105450445,-57.37080402823785,-86.64435486876549,8.395611151395807,-0.5418,-0.48,-0.6861,0.0732
56,2370566.0,621.221006,1.0,-8.7,5.37,-2.14,43.0,-7.75,5.06,-167.63,-102.5,36.38,1.350724241509198,0.5249487784065221,-0.5377433028210454,-55.032478664205094,-84.55159136755906,6.225383461526625,-0.5753,-0.462,-0.6727,0.0543
57,2370566.0,621.221006,1.0,-8.7,5.37,-2.14,43.0,-7.75,5.06,-167.63,-102.5,36.38,1.350724241509198,0.5249487784065221,-0.5377433028210454,-55.032478664205094,-84.55159136755906,6.225383461526625,-0.5753,-0.462,-0.6727,0.0543
58,2370603.0,621.2855509999999,1.0,-8.16,6.74,-2.6,42.56,-8.88,2.56,-58.75,-69.06,13.25,1.095968526945703,-1.195849691829861,-0.9702696203040766,-53.25651268144825,-81.38512714905085,4.573417240623146,-0.6102,-0.4482,-0.652,0.0399
59,2370603.0,621.2855509999999,1.0,-8.16,6.74,-2.6,42.56,-8.88,2.56,-58.75,-69.06,13.25,1.095968526945703,-1.195849691829861,-0.9702696203040766,-53.25651268144825,-81.38512714905085,4.573417240623146,-0.6102,-0.4482,-0.652,0.0399
60,2370637.0,621.30438,1.0,-8.15,3.69,-1.94,42.56,-8.88,2.56,-39.44,-62.44,-11.94,-0.585039128565239,0.7710562024209975,0.7036064677106086,-52.258810985064926,-80.04673804640113,4.802792327898413,-0.6251,-0.4404,-0.6431,0.0419
61,2370637.0,621.30438,1.0,-8.15,3.69,-1.94,42.56,-8.88,2.56,-39.44,-62.44,-11.94,-0.585039128565239,0.7710562024209975,0.7036064677106086,-52.258810985064926,-80.04673804640113,4.802792327898413,-0.6251,-0.4404,-0.6431,0.0419
62,2370674.0,621.307517,1.0,-8.99,3.88,-1.23,42.19,-8.56,-1.06,-64.56,-58.38,-1.75,-0.4657886807480254,1.1732799058701735,0.01921646677136657,-50.17476615256415,-78.48441476201302,4.344060485976967,-0.6471,-0.424,-0.6326,0.0379
63,2370674.0,621.307517,1.0,-8.99,3.88,-1.23,42.19,-8.56,-1.06,-64.56,-58.38,-1.75,-0.4657886807480254,1.1732799058701735,0.01921646677136657,-50.17476615256415,-78.48441476201302,4.344060485976967,-0.6471,-0.424,-0.6326,0.0379
64,2370709.0,621.35184,1.0,-8.45,3.18,-0.16,42.19,-8.56,-3.19,-54.56,-36.19,3.0,-0.16581671537780796,1.8220132270745732,0.9639539961069216,-49.000850954751044,-77.34969619182397,3.942727502383202,-0.6606,-0.4147,-0.6249,0.0344
65,2370709.0,621.35184,1.0,-8.45,3.18,-0.16,42.19,-8.56,-3.19,-54.56,-36.19,3.0,-0.16581671537780796,1.8220132270745732,0.9639539961069216,-49.000850954751044,-77.34969619182397,3.942727502383202,-0.6606,-0.4147,-0.6249,0.0344
66,2370744.0,621.376259,1.0,-8.64,5.21,-0.78,42.19,-8.56,-3.19,-77.94,-31.56,4.25,0.0349851875889876,0.03071003205959677,-0.3126351985987785,-46.60679955433233,-76.6176646234629,1.9252287616436876,-0.6774,-0.3956,-0.6199,0.0168
67,2370744.0,621.376259,1.0,-8.64,5.21,-0.78,42.19,-8.56,-3.19,-77.94,-31.56,4.25,0.0349851875889876,0.03071003205959677,-0.3126351985987785,-46.60679955433233,-76.6176646234629,1.9252287616436876,-0.6774,-0.3956,-0.6199,0.0168
68,2370777.0,621.421605,1.0,-9.26,5.01,1.11,42.56,-8.19,-4.88,-48.19,-51.13,-17.69,1.0812389071514443,1.2621992775266628,-0.6488545506887498,-45.2750645639147,-75.526483262398,1.707477412974553,-0.6903,-0.3849,-0.6124,0.0149
69,2370777.0,621.421605,1.0,-9.26,5.01,1.11,42.56,-8.19,-4.88,-48.19,-51.13,-17.69,1.0812389071514443,1.2621992775266628,-0.6488545506887498,-45.2750645639147,-75.526483262398,1.707477412974553,-0.6903,-0.3849,-0.6124,0.0149
70,2370816.0,621.440436,1.0,-7.41,4.5,0.21,41.75,-7.06,-6.5,-74.69,-1.69,-2.19,0.43792435043910855,0.19523934436799276,1.14799514709685,-44.11043851170447,-75.43953757831886,1.0084187350403075,-0.6962,-0.3755,-0.6118,0.0088
71,2370816.0,621.440436,1.0,-7.41,4.5,0.21,41.75,-7.06,-6.5,-74.69,-1.69,-2.19,0.43792435043910855,0.19523934436799276,1.14799514709685,-44.11043851170447,-75.43953757831886,1.0084187350403075,-0.6962,-0.3755,-0.6118,0.0088
72,2370850.0,621.4886740000001,1.0,-7.01,6.96,0.23,41.75,-7.06,-6.5,-81.37,-6.06,-0.25,1.483338388966195,-1.8778441957036531,0.21978354633114527,-42.55680426104336,-75.30921462142838,-0.27502000568243146,-0.7036,-0.3629,-0.6109,-0.0024
73,2370850.0,621.4886740000001,1.0,-7.01,6.96,0.23,41.75,-7.06,-6.5,-81.37,-6.06,-0.25,1.483338388966195,-1.8778441957036531,0.21978354633114527,-42.55680426104336,-75.30921462142838,-0.27502000568243146,-0.7036,-0.3629,-0.6109,-0.0024
74,2370883.0,621.507979,1.0,-8.43,5.58,2.96,41.06,-7.06,-7.0,-22.81,-14.44,-32.25,2.748600250364126,0.8682596647087157,-0.3251919755905277,-40.889011943209034,-75.04891103546538,-0.3666936147093117,-0.7120000000000001,-0.3493,-0.6091,-0.0032
75,2370883.0,621.507979,1.0,-8.43,5.58,2.96,41.06,-7.06,-7.0,-22.81,-14.44,-32.25,2.748600250364126,0.8682596647087157,-0.3251919755905277,-40.889011943209034,-75.04891103546538,-0.3666936147093117,-0.7120000000000001,-0.3493,-0.6091,-0.0032
76,2370918.0,621.5650099999999,1.0,-8.61,5.55,1.48,41.06,-6.25,-8.25,16.37,19.37,-20.75,1.589551784633766,0.16245829718476834,-0.4193918748234875,-40.668959944372276,-75.91837365235722,0.4010712754482724,-0.7078,-0.3475,-0.6151,0.0035
77,2370918.0,621.5650099999999,1.0,-8.61,5.55,1.48,41.06,-6.25,-8.25,16.37,19.37,-20.75,1.589551784633766,0.16245829718476834,-0.4193918748234875,-40.668959944372276,-75.91837365235722,0.4010712754482724,-0.7078,-0.3475,-0.6151,0.0035
78,2370955.0,621.603699,1.0,-8.24,2.66,-2.39,40.25,-5.19,-7.5,104.69,44.25,-19.94,-2.598709952650218,0.3119389112852702,1.213937931181281,-42.32324429701836,-77.2029916928957,1.9023072532875973,-0.6929,-0.361,-0.6239,0.0166
79,2370955.0,621.603699,1.0,-8.24,2.66,-2.39,40.25,-5.19,-7.5,104.69,44.25,-19.94,-2.598709952650218,0.3119389112852702,1.213937931181281,-42.32324429701836,-77.2029916928957,1.9023072532875973,-0.6929,-0.361,-0.6239,0.0166
80,2370990.0,621.611344,1.0,-9.32,1.32,0.53,40.25,-5.19,-7.5,48.44,23.62,-24.87,-0.7123952962347821,3.304307614001577,1.0055282457033492,-43.45590465390315,-78.55841408450421,3.5873017007906127,-0.6791,-0.3702,-0.6331,0.0313
81,2370990.0,621.611344,1.0,-9.32,1.32,0.53,40.25,-5.19,-7.5,48.44,23.62,-24.87,-0.7123952962347821,3.304307614001577,1.0055282457033492,-43.45590465390315,-78.55841408450421,3.5873017007906127,-0.6791,-0.3702,-0.6331,0.0313
82,2371026.0,621.6685610000001,1.0,-9.11,3.32,-0.97,41.5,-5.56,-5.38,86.25,64.75,37.13,-0.6554177801514876,1.2343559758200136,0.16288554526456167,-45.54834570673154,-79.4196881806162,3.919795697049856,-0.6639,-0.3871,-0.6389,0.0342
83,2371026.0,621.6685610000001,1.0,-9.11,3.32,-0.97,41.5,-5.56,-5.38,86.25,64.75,37.13,-0.6554177801514876,1.2343559758200136,0.16288554526456167,-45.54834570673154,-79.4196881806162,3.919795697049856,-0.6639,-0.3871,-0.6389,0.0342
84,2371063.0,621.7343639999999,1.0,-7.02,4.1,-4.44,43.0,-6.0,-5.0,56.31,130.88,31.37,-2.1690656668086548,-1.583871110559316,0.941521324216014,-48.28406366468798,-82.52350218370225,2.7963115557322795,-0.6302,-0.409,-0.6595,0.0244
85,2371063.0,621.7343639999999,1.0,-7.02,4.1,-4.44,43.0,-6.0,-5.0,56.31,130.88,31.37,-2.1690656668086548,-1.583871110559316,0.941521324216014,-48.28406366468798,-82.52350218370225,2.7963115557322795,-0.6302,-0.409,-0.6595,0.0244
86,2371096.0,621.752323,1.0,-7.5,5.9,-1.66,43.0,-6.0,-5.0,36.19,97.37,11.5,1.360162863996511,-0.6934177723170531,0.24188503809739714,-48.91271498969397,-84.73757407583452,1.6272548279067642,-0.6118,-0.414,-0.6739,0.0142
87,2371096.0,621.752323,1.0,-7.5,5.9,-1.66,43.0,-6.0,-5.0,36.19,97.37,11.5,1.360162863996511,-0.6934177723170531,0.24188503809739714,-48.91271498969397,-84.73757407583452,1.6272548279067642,-0.6118,-0.414,-0.6739,0.0142
88,2371131.0,621.755196,1.0,-6.68,3.98,-2.37,43.25,-7.38,-0.75,173.25,158.0,33.81,0.639225988750677,0.4254467613027195,1.7140555341563832,-53.59004542379221,-88.51752516910072,2.4639083675369537,-0.5561,-0.4508,-0.6979,0.0215
89,2371131.0,621.755196,1.0,-6.68,3.98,-2.37,43.25,-7.38,-0.75,173.25,158.0,33.81,0.639225988750677,0.4254467613027195,1.7140555341563832,-53.59004542379221,-88.51752516910072,2.4639083675369537,-0.5561,-0.4508,-0.6979,0.0215
90,2371166.0,621.7968089999999,1.0,-4.22,-5.27,-2.38,42.19,-7.38,3.25,411.06,274.63,155.69,-5.506673109543509,4.086407366822726,7.7515280822035475,-62.396381639113685,-90.95906154292842,4.584885551911774,-0.4709,-0.518,-0.713,0.04
91,2371166.0,621.7968089999999,1.0,-4.22,-5.27,-2.38,42.19,-7.38,3.25,411.06,274.63,155.69,-5.506673109543509,4.086407366822726,7.7515280822035475,-62.396381639113685,-90.95906154292842,4.584885551911774,-0.4709,-0.518,-0.713,0.04
92,2371205.0,621.8833099999999,1.0,-3.0,-8.42,-3.45,40.69,-9.69,13.69,376.31,320.44,366.44,-9.215416885696776,2.33287434049231,8.609700153812879,-80.73683070850339,-87.45034897247223,4.481672390551605,-0.3182,-0.6477,-0.6912,0.0391
93,2371205.0,621.8833099999999,1.0,-3.0,-8.42,-3.45,40.69,-9.69,13.69,376.31,320.44,366.44,-9.215416885696776,2.33287434049231,8.609700153812879,-80.73683070850339,-87.45034897247223,4.481672390551605,-0.3182,-0.6477,-0.6912,0.0391
94,2371237.0,621.9324389999999,1.0,-0.94,-9.02,-4.61,40.69,-9.69,13.69,117.5,318.38,476.06,-9.933997918044183,-1.9344508884791085,8.772394168807272,-99.76062013582626,-74.84676629523163,-4.481672390551605,-0.2108,-0.7647,-0.6077,-0.0391
95,2371237.0,621.9324389999999,1.0,-0.94,-9.02,-4.61,40.69,-9.69,13.69,117.5,318.38,476.06,-9.933997918044183,-1.9344508884791085,8.772394168807272,-99.76062013582626,-74.84676629523163,-4.481672390551605,-0.2108,-0.7647,-0.6077,-0.0391
96,2371276.0,621.950269,1.0,2.7,2.27,-3.37,32.5,-13.75,26.69,-265.5,252.06,549.63,1.4282979647929233,-2.086884719002992,5.63475869108983,-110.97447448991244,-61.19448635278197,-17.404541942676424,-0.1974,-0.8240000000000001,-0.509,-0.1513
97,2371276.0,621.950269,1.0,2.7,2.27,-3.37,32.5,-13.75,26.69,-265.5,252.06,549.63,1.4282979647929233,-2.086884719002992,5.63475869108983,-110.97447448991244,-61.19448635278197,-17.404541942676424,-0.1974,-0.8240000000000001,-0.509,-0.1513
98,2371313.0,621.999651,1.0,5.79,12.9,-4.2,17.06,-25.06,30.75,-171.63,104.5,386.06,7.604812153062737,3.0570861191372685,-2.456920303007502,-119.81110097439955,-43.209298755684706,-30.318170931025325,-0.2177,-0.8652,-0.3682,-0.2615
99,2371313.0,621.999651,1.0,5.79,12.9,-4.2,17.06,-25.06,30.75,-171.63,104.5,386.06,7.604812153062737,3.0570861191372685,-2.456920303007502,-119.81110097439955,-43.209298755684706,-30.318170931025325,-0.2177,-0.8652,-0.3682,-0.2615
100,2371348.0,622.017693,1.0,8.52,7.82,-4.37,17.06,-25.06,30.75,92.44,425.44,308.0,5.140122888708797,0.0028440235764124466,-1.4369627912918546,-120.91727899971443,-36.44404119171296,-40.36359153375482,-0.162,-0.87,-0.3127,-0.345
101,2371348.0,622.017693,1.0,8.52,7.82,-4.37,17.06,-25.06,30.75,92.44,425.44,308.0,5.140122888708797,0.0028440235764124466,-1.4369627912918546,-120.91727899971443,-36.44404119171296,-40.36359153375482,-0.162,-0.87,-0.3127,-0.345
102,2371383.0,622.021026,1.0,14.74,7.17,-4.44,1.37,-33.19,27.5,-145.19,437.06,81.44,4.061739865713034,-1.6228025145051899,-6.602459703521186,-110.16958750511162,-31.769115255908964,-59.04956837226242,-0.099,-0.82,-0.2737,-0.4928
103,2371383.0,622.021026,1.0,14.74,7.17,-4.44,1.37,-33.19,27.5,-145.19,437.06,81.44,4.061739865713034,-1.6228025145051899,-6.602459703521186,-110.16958750511162,-31.769115255908964,-59.04956837226242,-0.099,-0.82,-0.2737,-0.4928
104,2371418.0,622.059218,1.0,13.74,12.2,-6.01,-15.88,-31.37,24.06,-167.38,381.38,-60.44,0.12755119164080175,3.683453938416688,-9.171326651294356,-99.0872085325556,-30.555683180576786,-71.18267056189946,-0.1131,-0.7609,-0.2635,-0.5820000000000001
105,2371418.0,622.059218,1.0,13.74,12.2,-6.01,-15.88,-31.37,24.06,-167.38,381.38,-60.44,0.12755119164080175,3.683453938416688,-9.171326651294356,-99.0872085325556,-30.555683180576786,-71.18267056189946,-0.1131,-0.7609,-0.2635,-0.5820000000000001
106,2371454.0,622.07532,1.0,9.57,7.39,0.57,-23.25,-33.69,12.56,56.75,440.0,-3.5,1.7021947975730576,1.2243802089722444,-2.114982689149265,-83.87198638988208,-33.4525819599508,-85.93759911863056,-0.0772,-0.6683,-0.2878,-0.6816
107,2371454.0,622.07532,1.0,9.57,7.39,0.57,-23.25,-33.69,12.56,56.75,440.0,-3.5,1.7021947975730576,1.2243802089722444,-2.114982689149265,-83.87198638988208,-33.4525819599508,-85.93759911863056,-0.0772,-0.6683,-0.2878,-0.6816
108,2371489.0,622.13025,1.0,13.08,7.99,-0.34,-23.25,-33.69,12.56,21.37,353.94,-37.81,-2.29544117238087,1.157429591980684,-5.307363582227131,-70.42351668923327,-35.841352697842005,-98.1906423635664,-0.0402,-0.5766,-0.3077,-0.7558
109,2371489.0,622.13025,1.0,13.08,7.99,-0.34,-23.25,-33.69,12.56,21.37,353.94,-37.81,-2.29544117238087,1.157429591980684,-5.307363582227131,-70.42351668923327,-35.841352697842005,-98.1906423635664,-0.0402,-0.5766,-0.3077,-0.7558
110,2371526.0,622.19011,1.0,10.41,3.97,-0.41,-26.37,-34.38,6.38,106.94,160.63,18.94,-3.4981273805580733,-0.4754789411364488,-0.7685154647067199,-64.49803318236535,-38.209956332458226,-102.46623177403809,-0.01,-0.5336,-0.3273,-0.7797
111,2371526.0,622.19011,1.0,10.41,3.97,-0.41,-26.37,-34.38,6.38,106.94,160.63,18.94,-3.4981273805580733,-0.4754789411364488,-0.7685154647067199,-64.49803318236535,-38.209956332458226,-102.46623177403809,-0.01,-0.5336,-0.3273,-0.7797
112,2371563.0,622.197665,1.0,8.65,4.39,1.88,-25.87,-35.5,0.56,-35.88,82.62,-11.5,-1.1460133386333966,-0.44943887081487,0.002892652478847069,-61.2077995443589,-38.73183555708117,-105.17837759673445,0.0031,-0.5091,-0.3316,-0.7943
113,2371563.0,622.197665,1.0,8.65,4.39,1.88,-25.87,-35.5,0.56,-35.88,82.62,-11.5,-1.1460133386333966,-0.44943887081487,0.002892652478847069,-61.2077995443589,-38.73183555708117,-105.17837759673445,0.0031,-0.5091,-0.3316,-0.7943
114,2371598.0,622.26198,1.0,7.24,6.48,2.53,-25.87,-35.5,0.56,-19.87,135.25,52.44,0.4060573657793967,1.7050829910014236,-0.07953780974213133,-58.70745568211353,-37.26537941343616,-108.36791454974384,0.0139,-0.4902,-0.3195,-0.8109
115,2371598.0,622.26198,1.0,7.24,6.48,2.53,-25.87,-35.5,0.56,-19.87,135.25,52.44,0.4060573657793967,1.7050829910014236,-0.07953780974213133,-58.70745568211353,-37.26537941343616,-108.36791454974384,0.0139,-0.4902,-0.3195,-0.8109
116,2371633.0,622.279177,1.0,8.22,4.89,2.8,-26.69,-35.5,-0.56,68.12,123.5,15.56,-0.9795512145568498,0.3692919370815124,-0.10418260292831327,-53.73130294840485,-38.40404714248387,-111.76723539379441,0.0476,-0.4519,-0.3289,-0.8279
117,2371633.0,622.279177,1.0,8.22,4.89,2.8,-26.69,-35.5,-0.56,68.12,123.5,15.56,-0.9795512145568498,0.3692919370815124,-0.10418260292831327,-53.73130294840485,-38.40404714248387,-111.76723539379441,0.0476,-0.4519,-0.3289,-0.8279
118,2371667.0,622.330507,1.0,6.73,4.6,2.43,-27.25,-34.69,-5.19,40.06,22.06,1.56,-0.5922935292605926,0.6995188307437648,1.3498384388600149,-52.08018919976154,-39.48578948035391,-112.2796992436405,0.0599,-0.439,-0.3378,-0.8304
119,2371667.0,622.330507,1.0,6.73,4.6,2.43,-27.25,-34.69,-5.19,40.06,22.06,1.56,-0.5922935292605926,0.6995188307437648,1.3498384388600149,-52.08018919976154,-39.48578948035391,-112.2796992436405,0.0599,-0.439,-0.3378,-0.8304
120,2371704.0,622.3507490000001,1.0,10.42,8.17,6.92,-27.0,-34.69,-4.69,-96.94,160.13,108.87,0.8824046275376154,1.304331239423928,-5.050394864008557,-48.799442594654714,-35.095437786143385,-117.80730258048688,0.07200000000000001,-0.4131,-0.3015,-0.8563
121,2371704.0,622.3507490000001,1.0,10.42,8.17,6.92,-27.0,-34.69,-4.69,-96.94,160.13,108.87,0.8824046275376154,1.304331239423928,-5.050394864008557,-48.799442594654714,-35.095437786143385,-117.80730258048688,0.07200000000000001,-0.4131,-0.3015,-0.8563
122,2371739.0,622.392806,1.0,5.91,0.15,2.83,-27.0,-34.69,-4.69,115.56,-139.06,110.25,-1.4654674614238503,-2.1968691792924835,3.8078442081291937,-52.769914659011285,-36.45610555039494,-112.6714672903495,0.1096,-0.4444,-0.3128,-0.8323
123,2371739.0,622.392806,1.0,5.91,0.15,2.83,-27.0,-34.69,-4.69,115.56,-139.06,110.25,-1.4654674614238503,-2.1968691792924835,3.8078442081291937,-52.769914659011285,-36.45610555039494,-112.6714672903495,0.1096,-0.4444,-0.3128,-0.8323
124,2371776.0,622.4195440000001,1.0,8.93,3.97,4.49,-28.06,-32.38,-6.75,-28.75,61.19,-26.37,-0.50572005274935,-0.5647956102690752,-0.9214044903010272,-51.95268548055449,-36.79407807568971,-113.19003713661381,0.1078,-0.43799999999999994,-0.3156,-0.8348
125,2371776.0,622.4195440000001,1.0,8.93,3.97,4.49,-28.06,-32.38,-6.75,-28.75,61.19,-26.37,-0.50572005274935,-0.5647956102690752,-0.9214044903010272,-51.95268548055449,-36.79407807568971,-113.19003713661381,0.1078,-0.43799999999999994,-0.3156,-0.8348
126,2371813.0,622.466634,1.0,9.33,5.21,4.62,-30.0,-32.0,-5.19,-16.31,-26.06,21.37,-0.13462320591152632,0.5821394326751306,-1.8200602085394184,-51.85073225942561,-35.16755548021839,-114.34362489902875,0.1077,-0.4372,-0.3021,-0.8403
127,2371813.0,622.466634,1.0,9.33,5.21,4.62,-30.0,-32.0,-5.19,-16.31,-26.06,21.37,-0.13462320591152632,0.5821394326751306,-1.8200602085394184,-51.85073225942561,-35.16755548021839,-114.34362489902875,0.1077,-0.4372,-0.3021,-0.8403
128,2371848.0,622.480946,1.0,7.7,4.27,3.1,-30.0,-32.0,-5.19,8.19,-26.06,-5.44,-0.4648710223011213,0.814025755683669,0.5193383867446162,-52.821087070408176,-35.299808644002006,-113.46110408162376,0.1061,-0.4448,-0.3032,-0.8361
129,2371848.0,622.480946,1.0,7.7,4.27,3.1,-30.0,-32.0,-5.19,8.19,-26.06,-5.44,-0.4648710223011213,0.814025755683669,0.5193383867446162,-52.821087070408176,-35.299808644002006,-113.46110408162376,0.1061,-0.4448,-0.3032,-0.8361
130,2371883.0,622.534771,1.0,7.41,3.34,2.58,-30.25,-32.0,-6.0,16.62,-3.63,-9.63,-1.0619139936955184,0.309493481657688,1.351080684170043,-52.85947382737936,-36.03410062770514,-113.00294363849156,0.1046,-0.4451,-0.3093,-0.8339
131,2371883.0,622.534771,1.0,7.41,3.34,2.58,-30.25,-32.0,-6.0,16.62,-3.63,-9.63,-1.0619139936955184,0.309493481657688,1.351080684170043,-52.85947382737936,-36.03410062770514,-113.00294363849156,0.1046,-0.4451,-0.3093,-0.8339
132,2371917.0,622.553028,1.0,7.79,4.86,3.78,-30.69,-30.87,-5.19,-24.87,12.75,-15.5,0.12000294355539713,0.7404361551393182,-0.09433245598387964,-52.6036825036909,-35.793182116680164,-113.52379683838042,0.0989,-0.4431,-0.3073,-0.8364
133,2371917.0,622.553028,1.0,7.79,4.86,3.78,-30.69,-30.87,-5.19,-24.87,12.75,-15.5,0.12000294355539713,0.7404361551393182,-0.09433245598387964,-52.6036825036909,-35.793182116680164,-113.52379683838042,0.0989,-0.4431,-0.3073,-0.8364
134,2371954.0,622.603233,1.0,7.75,4.79,4.45,-29.56,-31.56,-6.0,-19.5,5.31,11.94,0.5413251977938914,0.4100659462127085,-0.3100645333843488,-52.55255813835036,-34.9993031752255,-114.09040704091221,0.0978,-0.4427,-0.3007,-0.8391
135,2371954.0,622.603233,1.0,7.75,4.79,4.45,-29.56,-31.56,-6.0,-19.5,5.31,11.94,0.5413251977938914,0.4100659462127085,-0.3100645333843488,-52.55255813835036,-34.9993031752255,-114.09040704091221,0.0978,-0.4427,-0.3007,-0.8391
136,2371989.0,622.622302,1.0,7.96,3.56,4.0,-29.56,-31.56,-6.0,1.19,0.75,27.06,-0.38523847434482217,-0.2286688667427961,0.2236180232576164,-52.6036825036909,-34.56701075551299,-114.19580936910464,0.1024,-0.4431,-0.2971,-0.8396
137,2371989.0,622.622302,1.0,7.96,3.56,4.0,-29.56,-31.56,-6.0,1.19,0.75,27.06,-0.38523847434482217,-0.2286688667427961,0.2236180232576164,-52.6036825036909,-34.56701075551299,-114.19580936910464,0.1024,-0.4431,-0.2971,-0.8396
138,2372026.0,622.670644,1.0,8.35,3.89,4.03,-30.0,-31.19,-6.38,-11.06,11.5,2.06,-0.4094883359923309,0.08836155086291743,-0.23924525821443865,-52.73154278918168,-34.039340850884635,-114.32249031100716,0.1057,-0.4441,-0.2927,-0.8402
139,2372026.0,622.670644,1.0,8.35,3.89,4.03,-30.0,-31.19,-6.38,-11.06,11.5,2.06,-0.4094883359923309,0.08836155086291743,-0.23924525821443865,-52.73154278918168,-34.039340850884635,-114.32249031100716,0.1057,-0.4441,-0.2927,-0.8402
140,2372061.0,622.737424,1.0,8.6,4.19,4.56,-29.19,-31.19,-6.75,-4.94,5.5,2.06,-0.11331653738660225,0.05257494777170324,-0.7902408287865974,-52.51422225376784,-33.69196539056284,-114.74633713830113,0.1042,-0.4424,-0.2898,-0.8422
141,2372061.0,622.737424,1.0,8.6,4.19,4.56,-29.19,-31.19,-6.75,-4.94,5.5,2.06,-0.11331653738660225,0.05257494777170324,-0.7902408287865974,-52.51422225376784,-33.69196539056284,-114.74633713830113,0.1042,-0.4424,-0.2898,-0.8422
142,2372096.0,622.746013,1.0,7.9,4.01,4.06,-29.19,-31.19,-6.75,6.13,-21.0,-3.06,-0.053393135942999104,0.20598381876449867,0.06352833189786011,-53.000280019764396,-33.79973728659347,-114.30136176070127,0.1027,-0.4462,-0.2907,-0.8401
143,2372096.0,622.746013,1.0,7.9,4.01,4.06,-29.19,-31.19,-6.75,6.13,-21.0,-3.06,-0.053393135942999104,0.20598381876449867,0.06352833189786011,-53.000280019764396,-33.79973728659347,-114.30136176070127,0.1027,-0.4462,-0.2907,-0.8401
144,2372128.0,622.767193,1.0,7.89,3.89,3.53,-30.25,-31.19,-6.38,2.88,-6.0,-1.88,-0.41913339573321534,0.3611678582251863,0.3441458401717892,-53.320615694584525,-34.039340850884635,-113.90105869290855,0.1017,-0.4487,-0.2927,-0.8382
145,2372128.0,622.767193,1.0,7.89,3.89,3.53,-30.25,-31.19,-6.38,2.88,-6.0,-1.88,-0.41913339573321534,0.3611678582251863,0.3441458401717892,-53.320615694584525,-34.039340850884635,-113.90105869290855,0.1017,-0.4487,-0.2927,-0.8382
146,2372165.0,622.818407,1.0,7.85,4.02,3.74,-29.56,-31.19,-6.5,1.44,-5.44,-1.63,-0.1823524428630852,0.3275392627333238,0.2342957640792456,-53.461705766242936,-34.06330962524581,-113.81705808343624,0.1003,-0.4498,-0.2929,-0.8378
147,2372165.0,622.818407,1.0,7.85,4.02,3.74,-29.56,-31.19,-6.5,1.44,-5.44,-1.63,-0.1823524428630852,0.3275392627333238,0.2342957640792456,-53.461705766242936,-34.06330962524581,-113.81705808343624,0.1003,-0.4498,-0.2929,-0.8378
148,2372200.0,622.838363,1.0,8.03,4.12,3.88,-29.56,-31.19,-6.5,-1.44,3.25,0.63,-0.13795715346731094,0.2974985825451826,-0.011810287498787986,-53.513032931572866,-34.111251783016854,-113.73315185618263,0.1,-0.4502,-0.2933,-0.8374
149,2372200.0,622.838363,1.0,8.03,4.12,3.88,-29.56,-31.19,-6.5,-1.44,3.25,0.63,-0.13795715346731094,0.2974985825451826,-0.011810287498787986,-53.513032931572866,-34.111251783016854,-113.73315185618263,0.1,-0.4502,-0.2933,-0.8374
150,2372235.0,622.880983,1.0,8.04,3.92,3.79,-31.06,-30.87,-6.88,2.75,0.12,5.63,-0.2734118146022666,0.2009620595059507,0.0980476170472908,-53.55153591306849,-34.111251783016854,-113.64933964888505,0.1018,-0.4505,-0.2933,-0.8370000000000001
151,2372235.0,622.880983,1.0,8.04,3.92,3.79,-31.06,-30.87,-6.88,2.75,0.12,5.63,-0.2734118146022666,0.2009620595059507,0.0980476170472908,-53.55153591306849,-34.111251783016854,-113.64933964888505,0.1018,-0.4505,-0.2933,-0.8370000000000001
152,2372270.0,622.9086990000001,1.0,8.19,3.86,3.8,-30.69,-31.19,-5.56,0.75,1.94,1.12,-0.3796505631386455,0.14455974543519726,-0.004092475975417287,-53.513032931572866,-34.09926566702287,-113.69123402259356,0.1027,-0.4502,-0.2932,-0.8372
153,2372270.0,622.9086990000001,1.0,8.19,3.86,3.8,-30.69,-31.19,-5.56,0.75,1.94,1.12,-0.3796505631386455,0.14455974543519726,-0.004092475975417287,-53.513032931572866,-34.09926566702287,-113.69123402259356,0.1027,-0.4502,-0.2932,-0.8372
154,2372306.0,622.958113,1.0,8.12,4.12,3.91,-31.06,-31.19,-6.06,0.19,-3.19,-2.69,-0.15291953225948568,0.2923914831080125,-0.0972897634102896,-53.525866533741606,-34.07529458830543,-113.69123402259356,0.1019,-0.4503,-0.293,-0.8372
155,2372306.0,622.958113,1.0,8.12,4.12,3.91,-31.06,-31.19,-6.06,0.19,-3.19,-2.69,-0.15291953225948568,0.2923914831080125,-0.0972897634102896,-53.525866533741606,-34.07529458830543,-113.69123402259356,0.1019,-0.4503,-0.293,-0.8372
156,2372339.0,622.96277,1.0,7.89,3.91,3.62,-31.06,-31.19,-6.06,1.63,-1.25,-0.94,-0.2992155108977161,0.28676779472485303,0.2949291089126849,-53.628561471418074,-34.20715457242007,-113.54470605704358,0.1015,-0.4511,-0.2941,-0.8365
157,2372339.0,622.96277,1.0,7.89,3.91,3.62,-31.06,-31.19,-6.06,1.63,-1.25,-0.94,-0.2992155108977161,0.28676779472485303,0.2949291089126849,-53.628561471418074,-34.20715457242007,-113.54470605704358,0.1015,-0.4511,-0.2941,-0.8365
158,2372376.0,623.025146,1.0,7.96,3.96,3.75,-30.0,-30.87,-6.88,-1.5,4.06,-1.63,-0.23226266332493425,0.2343318923128903,0.16316294295106815,-53.64140160793269,-34.20715457242007,-113.54470605704358,0.1004,-0.4512,-0.2941,-0.8365
159,2372376.0,623.025146,1.0,7.96,3.96,3.75,-30.0,-30.87,-6.88,-1.5,4.06,-1.63,-0.23226266332493425,0.2343318923128903,0.16316294295106815,-53.64140160793269,-34.20715457242007,-113.54470605704358,0.1004,-0.4512,-0.2941,-0.8365
160,2372411.0,623.048755,1.0,8.22,4.25,4.14,-30.0,-30.5,-6.06,0.31,1.31,4.63,-0.008882146452914241,0.23976825281203065,-0.3280888862475351,-53.513032931572866,-34.087279935508434,-113.75411958451244,0.1003,-0.4502,-0.2931,-0.8375
161,2372411.0,623.048755,1.0,8.22,4.25,4.14,-30.0,-30.5,-6.06,0.31,1.31,4.63,-0.008882146452914241,0.23976825281203065,-0.3280888862475351,-53.513032931572866,-34.087279935508434,-113.75411958451244,0.1003,-0.4502,-0.2931,-0.8375
