acc_x,acc_y,acc_z,lin_x,lin_y,lin_z,eul_x,eul_y,eul_z
0.95,3.53,-8.75,-0.2879028297278402,-0.2649948615915929,0.3317996220803181,-153.91350924378722,-7.763786880218299,-8.981712713320505
0.95,3.53,-8.75,-0.2879028297278402,-0.2649948615915929,0.3317996220803181,-153.91350924378722,-7.763786880218299,-8.981712713320505
1.09,4.03,-8.8,-0.1534917343305097,0.0973711322803136,0.0682744090664329,-153.61058909469406,-7.568544455864769,-9.17713147157167
1.09,4.03,-8.8,-0.1534917343305097,0.0973711322803136,0.0682744090664329,-153.61058909469406,-7.568544455864769,-9.17713147157167
1.18,3.89,-8.71,-0.1205332493002201,-0.0440635390929717,0.1956079055996368,-153.36074062083046,-7.442222882076424,-9.48755765518811
1.18,3.89,-8.71,-0.1205332493002201,-0.0440635390929717,0.1956079055996368,-153.36074062083046,-7.442222882076424,-9.48755765518811
1.52,4.29,-9.11,0.0175940884191514,-0.0306250539107448,-0.3769325009731048,-152.28767595523584,-7.3733240323499585,-10.304202691653051
1.52,4.29,-9.11,0.0175940884191514,-0.0306250539107448,-0.3769325009731048,-152.28767595523584,-7.3733240323499585,-10.304202691653051
1.79,4.73,-9.11,0.1899143013720683,0.1170272702890846,-0.6106115008044704,-150.9325061978301,-7.660420468145224,-11.00624507066077
1.79,4.73,-9.11,0.1899143013720683,0.1170272702890846,-0.6106115008044704,-150.9325061978301,-7.660420468145224,-11.00624507066077
1.22,5.28,-8.07,-0.2418076335612239,0.7957365418620883,0.1216083158203744,-148.73080219796103,-7.94756506816392,-11.823900394126868
1.22,5.28,-8.07,-0.2418076335612239,0.7957365418620883,0.1216083158203744,-148.73080219796103,-7.94756506816392,-11.823900394126868
-0.01,5.07,-7.0,-1.342115776814527,1.1206119928730471,1.3421385549693614,-146.83107004149562,-8.579461739762628,-12.918899554710151
-0.01,5.07,-7.0,-1.342115776814527,1.1206119928730471,1.3421385549693614,-146.83107004149562,-8.579461739762628,-12.918899554710151
-0.8,5.58,-4.84,-1.9204495904400067,2.3516859196475286,3.0255404517099604,-140.54206620040912,-10.937173775974523,-17.92639313237552
-0.8,5.58,-4.84,-1.9204495904400067,2.3516859196475286,3.0255404517099604,-140.54206620040912,-10.937173775974523,-17.92639313237552
1.8,9.51,-4.22,0.5084490119658582,4.150607691676103,0.1111646902266887,-131.31561745343842,-14.823619947246296,-24.38536915234885
1.8,9.51,-4.22,0.5084490119658582,4.150607691676103,0.1111646902266887,-131.31561745343842,-14.823619947246296,-24.38536915234885
3.4,11.64,-0.94,3.2300341446637666,5.167183067789562,-0.7195220757479106,-117.94055354353924,-22.606293449751373,-34.91520624744418
3.4,11.64,-0.94,3.2300341446637666,5.167183067789562,-0.7195220757479106,-117.94055354353924,-22.606293449751373,-34.91520624744418
5.92,10.34,-1.87,2.834280284648956,0.9698035401431612,-1.8760396030655588,-103.01690791684815,-33.94348108559176,-49.89656254432079
5.92,10.34,-1.87,2.834280284648956,0.9698035401431612,-1.8760396030655588,-103.01690791684815,-33.94348108559176,-49.89656254432079
7.51,6.87,-4.37,-0.5235992374116707,-2.8487223285345067,-0.8846794277882459,-94.59753382343494,-41.78307317970489,-58.31342248941901
7.51,6.87,-4.37,-0.5235992374116707,-2.8487223285345067,-0.8846794277882459,-94.59753382343494,-41.78307317970489,-58.31342248941901
8.22,8.55,-2.76,0.3049940821912408,-2.321427327712444,-2.143515428644836,-86.64435486876549,-47.619376147320615,-65.38089307689471
8.22,8.55,-2.76,0.3049940821912408,-2.321427327712444,-2.143515428644836,-86.64435486876549,-47.619376147320615,-65.38089307689471
7.04,6.51,-1.24,0.5582035062482202,-2.405911311162542,0.4589604668355421,-81.86963350668476,-51.49424218516168,-69.4307331793357
7.04,6.51,-1.24,0.5582035062482202,-2.405911311162542,0.4589604668355421,-81.86963350668476,-51.49424218516168,-69.4307331793357
8.29,5.32,-1.36,-0.8680809851566238,-3.525139493482489,0.5494405417075328,-75.87477874230648,-55.40750082753502,-75.02001646610674
8.29,5.32,-1.36,-0.8680809851566238,-3.525139493482489,0.5494405417075328,-75.87477874230648,-55.40750082753502,-75.02001646610674
9.83,6.12,-2.24,-2.0119300382984875,-3.514623005542392,-1.270374088170275,-74.05524812454561,-55.70539088046685,-77.64355736158599
9.83,6.12,-2.24,-2.0119300382984875,-3.514623005542392,-1.270374088170275,-74.05524812454561,-55.70539088046685,-77.64355736158599
7.66,5.5,-0.23,0.2131352417801029,-2.7937945121370884,0.7995535981253088,-75.3236892986672,-54.40026707594486,-77.5847366999739
7.66,5.5,-0.23,0.2131352417801029,-2.7937945121370884,0.7995535981253088,-75.3236892986672,-54.40026707594486,-77.5847366999739
7.11,6.23,0.04,0.940098215502586,-1.7147232683062317,0.5577290111311851,-77.34969619182397,-51.11288102782698,-78.12975943011051
7.11,6.23,0.04,0.940098215502586,-1.7147232683062317,0.5577290111311851,-77.34969619182397,-51.11288102782698,-78.12975943011051
6.79,7.33,-0.05,1.2224671330516776,-0.4389069219688357,-0.1003391905894517,-78.46961958186714,-48.29662147902253,-79.10723062788524
6.79,7.33,-0.05,1.2224671330516776,-0.4389069219688357,-0.1003391905894517,-78.46961958186714,-48.29662147902253,-79.10723062788524
6.75,6.42,-0.2,0.7856687182428423,-0.4737608799084132,0.5342622118494731,-79.76271757028876,-45.12611671542185,-80.27138293274172
6.75,6.42,-0.2,0.7856687182428423,-0.4737608799084132,0.5342622118494731,-79.76271757028876,-45.12611671542185,-80.27138293274172
7.15,5.47,-0.15,0.4983408871789874,-0.9898660405460308,0.8714543344345582,-80.75187187324588,-42.32324429701836,-81.43047462829705
7.15,5.47,-0.15,0.4983408871789874,-0.9898660405460308,0.8714543344345582,-80.75187187324588,-42.32324429701836,-81.43047462829705
7.69,5.56,-0.37,0.0531127526607162,-0.5780889764756529,0.3277475228783935,-81.41535708644898,-37.616257937648726,-83.94903131476774
7.69,5.56,-0.37,0.0531127526607162,-0.5780889764756529,0.3277475228783935,-81.41535708644898,-37.616257937648726,-83.94903131476774
7.99,5.53,-0.43,-0.1846274572065609,-0.2829410804782428,0.0859629333866909,-82.11255362771533,-33.751834870470574,-85.5310977047494
7.99,5.53,-0.43,-0.1846274572065609,-0.2829410804782428,0.0859629333866909,-82.11255362771533,-33.751834870470574,-85.5310977047494
7.86,6.41,-0.05,0.0836336177582418,0.8842993424417713,-0.2968751319001406,-83.05814635391897,-28.777535311725245,-86.67586147437744
7.86,6.41,-0.05,0.0836336177582418,0.8842993424417713,-0.2968751319001406,-83.05814635391897,-28.777535311725245,-86.67586147437744
7.44,6.12,-0.08,-0.11608011146569,1.0423485630713305,0.2298846337197311,-83.36465078667902,-26.288094094940124,-87.10200448418625
7.44,6.12,-0.08,-0.11608011146569,1.0423485630713305,0.2298846337197311,-83.36465078667902,-26.288094094940124,-87.10200448418625
7.82,6.6,-0.17,-0.5211762009988385,1.4075604417231808,-0.3170078848955811,-83.30329159943979,-22.98036223475966,-87.815613588484
7.82,6.6,-0.17,-0.5211762009988385,1.4075604417231808,-0.3170078848955811,-83.30329159943979,-22.98036223475966,-87.815613588484
9.57,6.52,-0.63,-1.2420157643456378,0.6524179938143506,-1.7052546036033611,-83.53353964844825,-20.134039115213792,-88.27776872555569
9.57,6.52,-0.63,-1.2420157643456378,0.6524179938143506,-1.7052546036033611,-83.53353964844825,-20.134039115213792,-88.27776872555569
6.99,7.09,0.18,-0.4090839252228413,2.5530819730223566,0.1902565606095034,-84.89277022411406,-17.914792407087575,-86.99137867169705
6.99,7.09,0.18,-0.4090839252228413,2.5530819730223566,0.1902565606095034,-84.89277022411406,-17.914792407087575,-86.99137867169705
9.05,7.34,-1.4,-1.812237498623128,1.5095627587461369,-1.6900936922804777,-86.59711027164688,-16.419805484293857,-85.00152199363876
9.05,7.34,-1.4,-1.812237498623128,1.5095627587461369,-1.6900936922804777,-86.59711027164688,-16.419805484293857,-85.00152199363876
8.32,5.97,-1.98,-1.6538457532210231,0.5059760450574364,-0.4788972613945415,-90.32347191708826,-15.563501157916,-80.79700544480976
8.32,5.97,-1.98,-1.6538457532210231,0.5059760450574364,-0.4788972613945415,-90.32347191708826,-15.563501157916,-80.79700544480976
6.32,6.47,-1.11,-0.2484578109806306,1.8838732644260987,0.8945969122012496,-97.07686147940808,-13.98044914927855,-72.68345997623392
6.32,6.47,-1.11,-0.2484578109806306,1.8838732644260987,0.8945969122012496,-97.07686147940808,-13.98044914927855,-72.68345997623392
6.55,7.03,-1.05,0.3277055333226988,2.181039794618742,0.3959340603002399,-100.76167247514276,-13.357225465957494,-68.19460380315536
6.55,7.03,-1.05,0.3277055333226988,2.181039794618742,0.3959340603002399,-100.76167247514276,-13.357225465957494,-68.19460380315536
7.52,7.03,-3.44,-0.7102388151611573,0.9124383565896704,-0.9853802571324568,-104.98995994505609,-13.634163660769715,-63.33648650708331
7.52,7.03,-3.44,-0.7102388151611573,0.9124383565896704,-0.9853802571324568,-104.98995994505609,-13.634163660769715,-63.33648650708331
7.9,6.2,-3.24,0.5047987375684528,0.0900092258813223,-0.7330215591049392,-108.76048947633528,-14.153639819523336,-59.01006437322476
7.9,6.2,-3.24,0.5047987375684528,0.0900092258813223,-0.7330215591049392,-108.76048947633528,-14.153639819523336,-59.01006437322476
7.17,6.49,-3.31,1.1941339626975769,0.7530691236140812,-0.3171847958760807,-114.8952629410071,-13.922726077012074,-52.24604776210595
7.17,6.49,-3.31,1.1941339626975769,0.7530691236140812,-0.3171847958760807,-114.8952629410071,-13.922726077012074,-52.24604776210595
5.81,5.98,-2.78,1.5086249894048342,1.0835066001626992,1.2162504697833114,-118.16321281406336,-15.274409087771584,-48.04558210494044
5.81,5.98,-2.78,1.5086249894048342,1.0835066001626992,1.2162504697833114,-118.16321281406336,-15.274409087771584,-48.04558210494044
5.76,6.57,-4.72,0.2653233658659609,0.7689867481295211,-0.090782136303174,-118.94828017259012,-16.69772182857332,-46.744081927482135
5.76,6.57,-4.72,0.2653233658659609,0.7689867481295211,-0.090782136303174,-118.94828017259012,-16.69772182857332,-46.744081927482135
5.43,5.77,-5.12,-0.0195842792443661,0.16067134874275,0.3744709742552246,-119.74257704437856,-18.4137924426918,-45.7970207204561
5.43,5.77,-5.12,-0.0195842792443661,0.16067134874275,0.3744709742552246,-119.74257704437856,-18.4137924426918,-45.7970207204561
5.24,5.09,-5.49,-0.1846155623150592,-0.3590617934113376,0.6774226656269899,-120.70844309282911,-20.4017767128752,-44.64258950046725
5.24,5.09,-5.49,-0.1846155623150592,-0.3590617934113376,0.6774226656269899,-120.70844309282911,-20.4017767128752,-44.64258950046725
5.68,5.31,-6.19,-0.1246673159799868,-0.6113384184122559,-0.1122876144070748,-121.66531355494112,-21.71884947041321,-43.38190073527359
5.68,5.31,-6.19,-0.1246673159799868,-0.6113384184122559,-0.1122876144070748,-121.66531355494112,-21.71884947041321,-43.38190073527359
4.83,5.27,-6.03,-0.311422356163119,-0.1193729142443,0.4604493696140537,-122.80407555685306,-22.38430579933233,-42.02848420080716
4.83,5.27,-6.03,-0.311422356163119,-0.1193729142443,0.4604493696140537,-122.80407555685306,-22.38430579933233,-42.02848420080716
4.17,5.22,-5.49,-0.1792328524077327,0.2933461211030659,1.1660930944613526,-123.30885743015295,-23.30787601995589,-40.93793375462537
4.17,5.22,-5.49,-0.1792328524077327,0.2933461211030659,1.1660930944613526,-123.30885743015295,-23.30787601995589,-40.93793375462537
5.28,7.59,-4.93,1.3634438248867613,1.6670104126771772,-0.4477879280584638,-122.6606000192726,-23.83464346005029,-41.24387223496928
5.28,7.59,-4.93,1.3634438248867613,1.6670104126771772,-0.4477879280584638,-122.6606000192726,-23.83464346005029,-41.24387223496928
5.04,5.1,-6.75,-0.562040338604338,-0.1850144587716147,-0.0230997581488274,-123.06797364519969,-25.15969838503005,-42.396980116115046
5.04,5.1,-6.75,-0.562040338604338,-0.1850144587716147,-0.0230997581488274,-123.06797364519969,-25.15969838503005,-42.396980116115046
5.49,3.29,-7.27,-1.1743762789450805,-1.6399224980239937,0.3330765160433895,-122.82802018843608,-26.029278313836883,-43.64099789729804
5.49,3.29,-7.27,-1.1743762789450805,-1.6399224980239937,0.3330765160433895,-122.82802018843608,-26.029278313836883,-43.64099789729804
6.63,4.88,-6.74,0.2536316274864589,-0.5655327505573178,-0.8147785152980092,-123.38130576448056,-24.88972570037191,-44.28358642561688
6.63,4.88,-6.74,0.2536316274864589,-0.5655327505573178,-0.8147785152980092,-123.38130576448056,-24.88972570037191,-44.28358642561688
7.15,3.98,-7.12,0.1279025298363467,-1.1688021779234057,-0.9764313041422898,-124.74966789127242,-23.506817731301982,-44.605429900527255
7.15,3.98,-7.12,0.1279025298363467,-1.1688021779234057,-0.9764313041422898,-124.74966789127242,-23.506817731301982,-44.605429900527255
6.19,2.98,-6.77,-0.3714706596024467,-1.1327238398743482,0.2354250913671034,-126.07412316645296,-22.25582556887037,-44.63020241766851
6.19,2.98,-6.77,-0.3714706596024467,-1.1327238398743482,0.2354250913671034,-126.07412316645296,-22.25582556887037,-44.63020241766851
6.16,4.65,-6.5,0.1983981853547364,0.416921130671279,-0.2732763355863739,-126.55630673438098,-21.473869337236096,-44.43208368482341
6.16,4.65,-6.5,0.1983981853547364,0.416921130671279,-0.2732763355863739,-126.55630673438098,-21.473869337236096,-44.43208368482341
5.65,4.9,-6.37,0.0711348957933782,0.9529682233614092,0.0293195160762902,-127.48115670522915,-20.39013361769746,-43.92504042696694
5.65,4.9,-6.37,0.0711348957933782,0.9529682233614092,0.0293195160762902,-127.48115670522915,-20.39013361769746,-43.92504042696694
5.57,3.6,-6.4,-0.1888089831481173,-0.0111768334895661,0.5920351818822258,-128.2635811405088,-20.01766618340029,-43.65334169783373
5.57,3.6,-6.4,-0.1888089831481173,-0.0111768334895661,0.5920351818822258,-128.2635811405088,-20.01766618340029,-43.65334169783373
6.28,4.12,-6.67,0.2135728607837212,0.3058544298446124,-0.2314045775006175,-128.81789729217328,-19.40123466474733,-43.69037629572606
6.28,4.12,-6.67,0.2135728607837212,0.3058544298446124,-0.2314045775006175,-128.81789729217328,-19.40123466474733,-43.69037629572606
6.55,4.13,-6.93,0.2087421817697453,0.3448338421584585,-0.5770784403460922,-129.19057220176188,-18.86667840059343,-43.8262109221212
6.55,4.13,-6.93,0.2087421817697453,0.3448338421584585,-0.5770784403460922,-129.19057220176188,-18.86667840059343,-43.8262109221212
6.62,3.07,-7.02,0.0245959879401451,-0.5011818532915561,-0.3066042629614749,-129.67350949211158,-18.564721836939235,-43.75211129257185
6.62,3.07,-7.02,0.0245959879401451,-0.5011818532915561,-0.3066042629614749,-129.67350949211158,-18.564721836939235,-43.75211129257185
6.39,2.91,-6.89,0.0042497505974959,-0.4126784588679524,-0.0219805469890488,-130.40615307468192,-17.996001378555594,-43.44356934572808
6.39,2.91,-6.89,0.0042497505974959,-0.4126784588679524,-0.0219805469890488,-130.40615307468192,-17.996001378555594,-43.44356934572808
6.09,3.38,-6.9,-0.0843515508540078,0.143833560649117,0.0038597481023536,-130.6800872399157,-17.752401631441728,-43.24627621237414
6.09,3.38,-6.9,-0.0843515508540078,0.143833560649117,0.0038597481023536,-130.6800872399157,-17.752401631441728,-43.24627621237414
6.15,3.35,-6.55,0.2423169437110003,0.1429812541003889,0.2218527220307642,-130.9830718545965,-17.613238149656624,-42.97521768410124
6.15,3.35,-6.55,0.2423169437110003,0.1429812541003889,0.2218527220307642,-130.9830718545965,-17.613238149656624,-42.97521768410124
6.29,4.06,-7.02,0.1513541261171174,0.6934766961717878,-0.4317230152975941,-131.03834889093932,-17.578451378167774,-42.91364872106161
6.29,4.06,-7.02,0.1513541261171174,0.6934766961717878,-0.4317230152975941,-131.03834889093932,-17.578451378167774,-42.91364872106161
5.65,2.9,-6.65,-0.177285105811677,0.0255634124079831,0.6130154356286592,-131.3990875860209,-17.93799404290059,-42.69210790112656
5.65,2.9,-6.65,-0.177285105811677,0.0255634124079831,0.6130154356286592,-131.3990875860209,-17.93799404290059,-42.69210790112656
6.27,3.14,-6.73,0.1831732644984049,0.0775331618380585,0.0893542772184616,-131.0660093808112,-18.08882279446736,-43.135358011103925
6.27,3.14,-6.73,0.1831732644984049,0.0775331618380585,0.0893542772184616,-131.0660093808112,-18.08882279446736,-43.135358011103925
6.49,2.56,-6.95,-0.115556104708252,-0.4145849764662701,-0.0315899891420183,-130.10645331555745,-18.4137924426918,-44.32070338877077
6.49,2.56,-6.95,-0.115556104708252,-0.4145849764662701,-0.0315899891420183,-130.10645331555745,-18.4137924426918,-44.32070338877077
5.46,3.71,-4.16,1.026570470651716,1.2212191515338922,2.1688442383487683,-126.81171301116376,-18.91314493847748,-47.74465793118145
5.46,3.71,-4.16,1.026570470651716,1.2212191515338922,2.1688442383487683,-126.81171301116376,-18.91314493847748,-47.74465793118145
8.68,3.88,-5.69,-0.2160969313621703,0.4351755176763335,-1.2629852417354304,-115.472556014324,-20.83272200177108,-59.39226049534915
8.68,3.88,-5.69,-0.2160969313621703,0.4351755176763335,-1.2629852417354304,-115.472556014324,-20.83272200177108,-59.39226049534915
9.61,2.46,-4.68,-0.3082386390916831,-0.8123584731260529,-1.1272954293732056,-109.86983734458828,-21.602179804976902,-65.3264377646757
9.61,2.46,-4.68,-0.3082386390916831,-0.8123584731260529,-1.1272954293732056,-109.86983734458828,-21.602179804976902,-65.3264377646757
7.7,2.84,-1.72,1.0916695491847703,0.0493083437690535,1.4928165711527814,-104.8395159971152,-21.963930115303267,-70.45156998938438
7.7,2.84,-1.72,1.0916695491847703,0.0493083437690535,1.4928165711527814,-104.8395159971152,-21.963930115303267,-70.45156998938438
9.52,3.89,-1.83,0.1212184072378413,0.6765274277727753,-0.6163542088266389,-95.44579560430292,-22.92189772810272,-79.8224623931032
9.52,3.89,-1.83,0.1212184072378413,0.6765274277727753,-0.6163542088266389,-95.44579560430292,-22.92189772810272,-79.8224623931032
9.77,2.76,-1.74,-0.7702525491060959,-0.163228765143363,-0.4636064418239005,-90.97540577406772,-23.63558298502357,-84.14956663775601
9.77,2.76,-1.74,-0.7702525491060959,-0.163228765143363,-0.4636064418239005,-90.97540577406772,-23.63558298502357,-84.14956663775601
8.49,2.63,-0.11,0.2767178701362936,-0.0960807533984835,0.922771584061742,-87.62490137692915,-24.04549296367276,-87.40278790753678
8.49,2.63,-0.11,0.2767178701362936,-0.0960807533984835,0.922771584061742,-87.62490137692915,-24.04549296367276,-87.40278790753678
9.05,3.31,0.35,0.1841718709322728,0.3637163194011206,0.1726014657150187,-83.13470426786654,-24.479166312304468,-91.69691933728232
9.05,3.31,0.35,0.1841718709322728,0.3637163194011206,0.1726014657150187,-83.13470426786654,-24.479166312304468,-91.69691933728232
10.51,2.87,0.68,-0.7024545220437844,-0.1927358331060839,-1.0850353857930166,-77.99699333524984,-24.67854067669555,-96.66234520218386
10.51,2.87,0.68,-0.7024545220437844,-0.1927358331060839,-1.0850353857930166,-77.99699333524984,-24.67854067669555,-96.66234520218386
9.34,2.61,1.31,-0.1307461084906113,-0.2807612848044256,0.0256542144948497,-76.85151070141964,-24.631622257728548,-97.78895026657293
9.34,2.61,1.31,-0.1307461084906113,-0.2807612848044256,0.0256542144948497,-76.85151070141964,-24.631622257728548,-97.78895026657293
8.63,3.6,1.34,0.1966686862185653,0.7117763789335796,0.389262049285998,-76.09288289681452,-24.737194611496925,-98.5412654656515
8.63,3.6,1.34,0.1966686862185653,0.7117763789335796,0.389262049285998,-76.09288289681452,-24.737194611496925,-98.5412654656515
9.27,3.15,1.42,-0.1910205185375652,0.1736980051654013,-0.0829981314806733,-74.96224409700284,-24.772390131710253,-99.61846035279729
9.27,3.15,1.42,-0.1910205185375652,0.1736980051654013,-0.0829981314806733,-74.96224409700284,-24.772390131710253,-99.61846035279729
8.47,3.35,2.32,0.9015510871825836,0.2353565476515025,0.4537032486987016,-75.02001646610674,-24.608164621444825,-99.61846035279729
8.47,3.35,2.32,0.9015510871825836,0.2353565476515025,0.4537032486987016,-75.02001646610674,-24.608164621444825,-99.61846035279729
9.3,3.19,1.82,0.0884970597268307,0.0843261993585315,-0.1915277020875905,-74.50086547711395,-24.54952511022461,-100.15264374261456
9.3,3.19,1.82,0.0884970597268307,0.0843261993585315,-0.1915277020875905,-74.50086547711395,-24.54952511022461,-100.15264374261456
9.05,3.29,1.89,0.0862601886257316,0.2571294011904685,-0.0027915565261285,-73.53939139013687,-24.45571546342066,-101.13979730318007
9.05,3.29,1.89,0.0862601886257316,0.2571294011904685,-0.0027915565261285,-73.53939139013687,-24.45571546342066,-101.13979730318007
8.95,3.41,1.62,-0.0885520724715305,0.4765936347238213,0.105102853394893,-73.61093410103018,-24.479166312304468,-101.06765675595229
8.95,3.41,1.62,-0.0885520724715305,0.4765936347238213,0.105102853394893,-73.61093410103018,-24.479166312304468,-101.06765675595229
8.62,3.33,2.17,0.5487466817550857,0.2703712632468182,0.3341647685903943,-74.02654356765952,-24.45571546342066,-100.67186484879734
8.62,3.33,2.17,0.5487466817550857,0.2703712632468182,0.3341647685903943,-74.02654356765952,-24.45571546342066,-100.67186484879734
9.01,3.25,2.0,0.2415525983165305,0.1669218882342311,0.0262415511940492,-73.9261202682898,-24.40881688456287,-100.79761933768772
9.01,3.25,2.0,0.2415525983165305,0.1669218882342311,0.0262415511940492,-73.9261202682898,-24.40881688456287,-100.79761933768772
9.03,3.28,1.96,0.1815315681177634,0.2443412222607888,0.0062294142863041,-73.84009584056888,-24.080642561887807,-101.01358752510708
9.03,3.28,1.96,0.1815315681177634,0.2443412222607888,0.0062294142863041,-73.84009584056888,-24.080642561887807,-101.01358752510708
9.12,3.42,2.15,0.3641386067053578,0.2752626504463536,-0.1575325328712207,-73.81143181449299,-24.127512270969643,-101.01358752510708
9.12,3.42,2.15,0.3641386067053578,0.2752626504463536,-0.1575325328712207,-73.81143181449299,-24.127512270969643,-101.01358752510708
9.05,3.06,1.87,0.0909602065482357,0.0473924228188735,0.0725614345983025,-74.17012064859728,-24.174386077512,-100.65391350970894
9.05,3.06,1.87,0.0909602065482357,0.0473924228188735,0.0725614345983025,-74.17012064859728,-24.174386077512,-100.65391350970894
8.85,3.18,1.79,0.1417737787352236,0.2212336543949606,0.237430812112926,-74.40012733902506,-24.18610517042096,-100.42085372385358
8.85,3.18,1.79,0.1417737787352236,0.2212336543949606,0.237430812112926,-74.40012733902506,-24.18610517042096,-100.42085372385358
9.03,3.37,1.95,0.2807865503967737,0.2893807651208569,-0.0187109443060347,-74.35697442762857,-24.18610517042096,-100.474586173471
9.03,3.37,1.95,0.2807865503967737,0.2893807651208569,-0.0187109443060347,-74.35697442762857,-24.18610517042096,-100.474586173471
8.74,3.26,1.75,0.1836335483353848,0.3124556098180824,0.3226450331192368,-74.60167100356149,-24.20954412674289,-100.2240929390682
8.74,3.26,1.75,0.1836335483353848,0.3124556098180824,0.3226450331192368,-74.60167100356149,-24.20954412674289,-100.2240929390682
8.98,3.17,1.75,0.0681789166472553,0.1707581428034088,0.1258445948701609,-74.44329258880299,-24.22126399043484,-100.3671515088305
8.98,3.17,1.75,0.0681789166472553,0.1707581428034088,0.1258445948701609,-74.44329258880299,-24.22126399043484,-100.3671515088305
8.84,3.11,1.74,0.0595094634412734,0.1502908616170963,0.2767406992419197,-74.35697442762857,-24.150948661500923,-100.474586173471
8.84,3.11,1.74,0.0595094634412734,0.1502908616170963,0.2767406992419197,-74.35697442762857,-24.150948661500923,-100.474586173471
8.97,3.38,2.04,0.2997090404729475,0.2560343149052078,0.0142283934386355,-73.96915070870061,-24.13923033811999,-100.86955398800988
8.97,3.38,2.04,0.2997090404729475,0.2560343149052078,0.0142283934386355,-73.96915070870061,-24.13923033811999,-100.86955398800988
9.07,3.18,1.94,0.0755991259801104,0.0826003277684583,0.0021427733208536,-73.668192340648,-24.174386077512,-101.15784107033816
9.07,3.18,1.94,0.0755991259801104,0.0826003277684583,0.0021427733208536,-73.668192340648,-24.174386077512,-101.15784107033816
9.11,3.31,1.89,0.042238176505268,0.2113967994554344,-0.0662334354318971,-73.61093410103018,-24.150948661500923,-101.21199312357184
9.11,3.31,1.89,0.042238176505268,0.2113967994554344,-0.0662334354318971,-73.61093410103018,-24.150948661500923,-101.21199312357184
8.6,3.23,1.92,0.2125477009702676,0.2278924521976728,0.4267678842672211,-73.73979529168805,-24.232984111333423,-101.04963023736497
8.6,3.23,1.92,0.2125477009702676,0.2278924521976728,0.4267678842672211,-73.73979529168805,-24.232984111333423,-101.04963023736497
8.91,3.32,2.02,0.2158919038158045,0.1936508608068108,0.0903343387024726,-73.58231300844331,-24.2915885788112,-101.17588829449863
8.91,3.32,2.02,0.2158919038158045,0.1936508608068108,0.0903343387024726,-73.58231300844331,-24.2915885788112,-101.17588829449863
8.85,3.26,2.0,0.1581307444854458,0.1496660809883943,0.1680456024821701,-73.35353629089147,-24.350199497398,-101.39272551986971
8.85,3.26,2.0,0.1581307444854458,0.1496660809883943,0.1680456024821701,-73.35353629089147,-24.350199497398,-101.39272551986971
8.8,3.36,2.08,0.2411853601195293,0.2253912124701313,0.1657460785097892,-73.15363536728181,-24.38536915234885,-101.55568290678625
8.8,3.36,2.08,0.2411853601195293,0.2253912124701313,0.1657460785097892,-73.15363536728181,-24.38536915234885,-101.55568290678625
9.1,3.3,1.97,-0.0137591969958954,0.1478202137781228,-0.0705388646971112,-72.82578699012866,-24.42054113976365,-101.86426876300013
9.1,3.3,1.97,-0.0137591969958954,0.1478202137781228,-0.0705388646971112,-72.82578699012866,-24.42054113976365,-101.86426876300013
8.99,3.13,1.87,-0.1095220928694647,0.0528270326272546,0.1061802064385926,-72.86851051764684,-24.44399042905254,-101.827911474709
8.99,3.13,1.87,-0.1095220928694647,0.0528270326272546,0.1061802064385926,-72.86851051764684,-24.44399042905254,-101.827911474709
8.75,3.39,1.95,0.1068716831732752,0.2989430446503827,0.22769851774523,-72.91124580679356,-24.50261820231894,-101.75523946512084
8.75,3.39,1.95,0.1068716831732752,0.2989430446503827,0.22769851774523,-72.91124580679356,-24.50261820231894,-101.75523946512084
8.82,3.47,2.21,0.3279482721581406,0.2451472598573141,0.0829802836957185,-72.81154842528053,-24.596436196111345,-101.80973815523876
8.82,3.47,2.21,0.3279482721581406,0.2451472598573141,0.0829802836957185,-72.81154842528053,-24.596436196111345,-101.80973815523876
8.89,3.2,2.08,0.1113218452179693,0.0265841974608824,0.1326952385168418,-72.75460720541858,-24.64335146895964,-101.84608834311696
8.89,3.2,2.08,0.1113218452179693,0.0265841974608824,0.1326952385168418,-72.75460720541858,-24.64335146895964,-101.84608834311696
8.83,3.39,1.95,0.0554010058838084,0.2529425129672658,0.1528191120218576,-72.75460720541858,-24.631622257728548,-101.86426876300013
8.83,3.39,1.95,0.0554010058838084,0.2529425129672658,0.1528191120218576,-72.75460720541858,-24.631622257728548,-101.86426876300013
8.83,3.46,2.15,0.2337202248398412,0.2324878099151366,0.087888542142231,-72.62656558446132,-24.690270937756782,-101.95522422355891
8.83,3.46,2.15,0.2337202248398412,0.2324878099151366,0.087888542142231,-72.62656558446132,-24.690270937756782,-101.95522422355891
8.91,3.23,2.04,0.0386129356728228,0.0458382930402037,0.1123729309200243,-72.54126289658385,-24.725463298356363,-102.0280527784433
8.91,3.23,2.04,0.0386129356728228,0.0458382930402037,0.1123729309200243,-72.54126289658385,-24.725463298356363,-102.0280527784433
8.85,3.37,1.98,0.011584611628456,0.2056074194957208,0.1341430144340698,-72.42759839996175,-24.64335146895964,-102.1556405634774
8.85,3.37,1.98,0.011584611628456,0.2056074194957208,0.1341430144340698,-72.42759839996175,-24.64335146895964,-102.1556405634774
