acc_x,acc_y,acc_z,lin_x,lin_y,lin_z,eul_x,eul_y,eul_z
8.37,3.83,-2.61,-0.0548988215293298,-0.1356029995493419,0.240224442566964,-104.97114038563048,4.275256896440698,-65.02722926644273
8.37,3.83,-2.61,-0.0548988215293298,-0.1356029995493419,0.240224442566964,-104.97114038563048,4.275256896440698,-65.02722926644273
8.73,3.58,-2.72,0.1092777164776544,-0.440602936561356,-0.0026123286858297,-105.15951761656832,4.4587366294239885,-64.9185496744115
8.73,3.58,-2.72,0.1092777164776544,-0.440602936561356,-0.0026123286858297,-105.15951761656832,4.4587366294239885,-64.9185496744115
8.72,3.42,-2.58,0.2614160502256233,-0.4533969453287268,0.1052432536229002,-105.19724163612636,4.71104003397371,-64.98646672733051
8.72,3.42,-2.58,0.2614160502256233,-0.4533969453287268,0.1052432536229002,-105.19724163612636,4.71104003397371,-64.98646672733051
9.89,1.67,-2.79,1.1718069857300673,-2.1620620864799776,-0.3095477008360259,-105.25385814101205,5.341901218009245,-65.17677108886933
9.89,1.67,-2.79,1.1718069857300673,-2.1620620864799776,-0.3095477008360259,-105.25385814101205,5.341901218009245,-65.17677108886933
9.6,1.52,-3.03,0.9495270328899948,-2.20023655020647,-0.0882303700169426,-105.31051129197044,7.005907963772472,-64.7285179210035
9.6,1.52,-3.03,0.9495270328899948,-2.20023655020647,-0.0882303700169426,-105.31051129197044,7.005907963772472,-64.7285179210035
8.63,3.51,-2.65,0.1086699401901373,-0.1575678152218844,0.1224947333954169,-105.27273844868162,8.315183354403652,-63.92984840946279
8.63,3.51,-2.65,0.1086699401901373,-0.1575678152218844,0.1224947333954169,-105.27273844868162,8.315183354403652,-63.92984840946279
8.5,4.25,-2.65,-0.2894524995857745,0.5309271826698359,-0.0406508269873544,-105.1029620001446,10.154638119587414,-63.26917919273301
8.5,4.25,-2.65,-0.2894524995857745,0.5309271826698359,-0.0406508269873544,-105.1029620001446,10.154638119587414,-63.26917919273301
7.74,4.46,-2.76,-0.7903039671979203,0.780101363827993,0.5231344212127826,-105.140661692498,11.489857897732715,-62.51698911767068
7.74,4.46,-2.76,-0.7903039671979203,0.780101363827993,0.5231344212127826,-105.140661692498,11.489857897732715,-62.51698911767068
7.96,4.94,-2.85,-1.0331185106282177,1.084364639323086,0.1296401585260849,-104.89590236711722,12.330917071488784,-62.32941069730318
7.96,4.94,-2.85,-1.0331185106282177,1.084364639323086,0.1296401585260849,-104.89590236711722,12.330917071488784,-62.32941069730318
7.81,4.46,-2.83,-0.8870897330428547,0.7461367966124284,0.4496765744595129,-104.70808777910833,12.918899554710151,-62.262463418184296
7.81,4.46,-2.83,-0.8870897330428547,0.7461367966124284,0.4496765744595129,-104.70808777910833,12.918899554710151,-62.262463418184296
7.83,4.81,-2.9,-1.0924902900943114,0.9107902947761476,0.2760715283126061,-104.55812296797365,12.792051445699697,-62.19553975386646
7.83,4.81,-2.9,-1.0924902900943114,0.9107902947761476,0.2760715283126061,-104.55812296797365,12.792051445699697,-62.19553975386646
7.83,5.09,-2.64,-1.0698232016296798,1.2232282060396762,0.2386935267919501,-104.20296893682892,12.515346343653173,-62.51698911767068
7.83,5.09,-2.64,-1.0698232016296798,1.2232282060396762,0.2386935267919501,-104.20296893682892,12.515346343653173,-62.51698911767068
7.51,4.64,-2.07,-0.6264478375823983,1.22750314772464,0.8447640863591417,-103.73780360335893,11.881504040605064,-63.34995089580225
7.51,4.64,-2.07,-0.6264478375823983,1.22750314772464,0.8447640863591417,-103.73780360335893,11.881504040605064,-63.34995089580225
7.08,4.68,-1.5,-0.4923811223943326,1.517654118979164,1.3371112400995957,-102.63108741620243,10.52282880334764,-64.80993560444892
7.08,4.68,-1.5,-0.4923811223943326,1.517654118979164,1.3371112400995957,-102.63108741620243,10.52282880334764,-64.80993560444892
9.44,4.22,-2.38,-0.4488887235904341,-0.0785027431537459,-0.7942337477424797,-100.09909176327572,8.303694005010767,-68.23612322826888
9.44,4.22,-2.38,-0.4488887235904341,-0.0785027431537459,-0.7942337477424797,-100.09909176327572,8.303694005010767,-68.23612322826888
8.75,4.03,-1.5,-0.1117967399239052,0.2664637684776885,0.061399949384004,-98.75223846738032,6.340147475413156,-70.479628139678
8.75,4.03,-1.5,-0.1117967399239052,0.2664637684776885,0.061399949384004,-98.75223846738032,6.340147475413156,-70.479628139678
8.59,2.47,-0.66,1.0671503572005117,-0.7022028231097438,0.9357593282385944,-97.82381585601728,4.699571210920838,-71.93128239622219
8.59,2.47,-0.66,1.0671503572005117,-0.7022028231097438,0.9357593282385944,-97.82381585601728,4.699571210920838,-71.93128239622219
9.73,1.87,-0.61,1.0923036090141207,-1.692878930172946,0.0864167850245891,-94.88517495078123,2.7619239753850606,-75.97652033503749
9.73,1.87,-0.61,1.0923036090141207,-1.692878930172946,0.0864167850245891,-94.88517495078123,2.7619239753850606,-75.97652033503749
10.87,3.34,-1.54,-0.4518908024672038,-1.4446382808123035,-1.5684506562692526,-92.605449400739,1.5699534720315549,-78.36609695169302
10.87,3.34,-1.54,-0.4518908024672038,-1.4446382808123035,-1.5684506562692526,-92.605449400739,1.5699534720315549,-78.36609695169302
8.8,3.87,-0.13,0.2470358569727901,0.1283592010739835,0.1964316257449478,-92.42314314089434,0.5042044866238587,-78.41045445111573
8.8,3.87,-0.13,0.2470358569727901,0.1283592010739835,0.1964316257449478,-92.42314314089434,0.5042044866238587,-78.41045445111573
9.21,3.43,0.07,0.5793454628346736,-0.336152553165191,0.0012810474468434,-91.92747384583168,-0.1718874029970642,-79.25593194400129
9.21,3.43,0.07,0.5793454628346736,-0.336152553165191,0.0012810474468434,-91.92747384583168,-0.1718874029970642,-79.25593194400129
9.37,2.72,-0.31,0.3457290376452691,-1.2098792465714343,0.1263574609676911,-91.05716253041412,-1.2146932735575866,-80.51141416133366
9.37,2.72,-0.31,0.3457290376452691,-1.2098792465714343,0.1263574609676911,-91.05716253041412,-1.2146932735575866,-80.51141416133366
10.3,2.13,-0.08,0.8054261705788721,-1.985159049206948,-0.4911037469633879,-90.58379565299514,-1.5011923619341792,-81.14353390206055
10.3,2.13,-0.08,0.8054261705788721,-1.985159049206948,-0.4911037469633879,-90.58379565299514,-1.5011923619341792,-81.14353390206055
10.34,2.43,-0.23,0.5577302942004783,-1.8139559575618551,-0.646670080383883,-90.42102349007357,-1.306372069959298,-81.15862069013602
10.34,2.43,-0.23,0.5577302942004783,-1.8139559575618551,-0.646670080383883,-90.42102349007357,-1.306372069959298,-81.15862069013602
9.97,2.43,-0.09,0.6699857533277236,-1.6022794370633395,-0.307583519941188,-90.56750793260044,-0.8021474641450599,-80.8120533305175
9.97,2.43,-0.09,0.6699857533277236,-1.6022794370633395,-0.307583519941188,-90.56750793260044,-0.8021474641450599,-80.8120533305175
10.22,2.2,-0.04,0.8479464096286096,-1.7419442524344184,-0.4664516303650306,-90.68157114407572,0.5042044866238587,-80.51141416133366
10.22,2.2,-0.04,0.8479464096286096,-1.7419442524344184,-0.4664516303650306,-90.68157114407572,0.5042044866238587,-80.51141416133366
9.01,3.08,0.31,0.6919707494283766,-0.3747696649429546,0.3122661769088939,-90.91004306520378,1.856464464018338,-79.68807312130106
9.01,3.08,0.31,0.6919707494283766,-0.3747696649429546,0.3122661769088939,-90.91004306520378,1.856464464018338,-79.68807312130106
8.97,2.94,0.09,0.5257515982436494,-0.446828465431109,0.3919524701042682,-90.926380189859,3.77074274897392,-79.09236926487023
8.97,2.94,0.09,0.5257515982436494,-0.446828465431109,0.3919524701042682,-90.926380189859,3.77074274897392,-79.09236926487023
8.86,3.16,-0.25,0.0681914905105824,-0.2982272703673863,0.4016454590212373,-90.69787526655077,5.800810045139373,-78.51400980443368
8.86,3.16,-0.25,0.0681914905105824,-0.2982272703673863,0.4016454590212373,-90.69787526655077,5.800810045139373,-78.51400980443368
8.66,3.95,0.03,-0.1372628940730258,0.5815079372030816,0.3070706715833697,-90.46983065734317,7.522608280519941,-77.83489260364539
8.66,3.95,0.03,-0.1372628940730258,0.5815079372030816,0.3070706715833697,-90.46983065734317,7.522608280519941,-77.83489260364539
8.78,4.41,-0.03,-0.4985926333816422,0.90559262015063,0.035841057426909,-89.93409723395683,9.464560757916416,-77.26165547882309
8.78,4.41,-0.03,-0.4985926333816422,0.90559262015063,0.035841057426909,-89.93409723395683,9.464560757916416,-77.26165547882309
8.38,4.55,-0.28,-0.9264938574364164,0.9953999963561336,0.3643998455406922,-89.62677723650367,10.6148933492606,-76.91003135987752
8.38,4.55,-0.28,-0.9264938574364164,0.9953999963561336,0.3643998455406922,-89.62677723650367,10.6148933492606,-76.91003135987752
8.4,4.6,-0.25,-1.0020847674950315,1.0332257012696349,0.335073005170134,-89.19146210713116,11.812380025110386,-76.54466504445786
8.4,4.6,-0.25,-1.0020847674950315,1.0332257012696349,0.335073005170134,-89.19146210713116,11.812380025110386,-76.54466504445786
8.98,3.98,-0.48,-0.7888586847146078,0.2821358479803173,0.0082163834041946,-88.78984149659982,12.492290914481536,-76.6030617698578
8.98,3.98,-0.48,-0.7888586847146078,0.2821358479803173,0.0082163834041946,-88.78984149659982,12.492290914481536,-76.6030617698578
8.93,3.46,-0.45,-0.5134797490990364,-0.0473583108681237,0.2330876673227387,-88.61356466933819,13.045763563399612,-76.54466504445786
8.93,3.46,-0.45,-0.5134797490990364,-0.0473583108681237,0.2330876673227387,-88.61356466933819,13.045763563399612,-76.54466504445786
9.02,3.69,-0.32,-0.5556501768119144,0.179263073200659,0.0733043454167035,-88.38959436761328,13.541842119876778,-76.42794195968905
9.02,3.69,-0.32,-0.5556501768119144,0.179263073200659,0.0733043454167035,-88.38959436761328,13.541842119876778,-76.42794195968905
9.11,3.75,-0.14,-0.4359754520084627,0.3085338281108993,-0.0314866265242148,-88.34165611190303,13.645704477358525,-76.38419493533601
9.11,3.75,-0.14,-0.4359754520084627,0.3085338281108993,-0.0314866265242148,-88.34165611190303,13.645704477358525,-76.38419493533601
8.81,3.4,-0.22,-0.3167334490837003,0.0709170969371111,0.366356006294426,-88.51752516910072,13.507223821905177,-76.20933800398176
8.81,3.4,-0.22,-0.3167334490837003,0.0709170969371111,0.366356006294426,-88.51752516910072,13.507223821905177,-76.20933800398176
9.29,3.36,-0.28,-0.2553363251204871,-0.1268234027796453,-0.0721565668673438,-88.42156403973308,13.530302549412,-76.29674027277146
9.29,3.36,-0.28,-0.2553363251204871,-0.1268234027796453,-0.0721565668673438,-88.42156403973308,13.530302549412,-76.29674027277146
9.35,2.96,-0.2,0.056124727747035,-0.3742654550425301,0.004564743071393,-88.48552943090411,13.461068017168213,-76.34046104575957
9.35,2.96,-0.2,0.056124727747035,-0.3742654550425301,0.004564743071393,-88.48552943090411,13.461068017168213,-76.34046104575957
8.99,3.0,-0.22,-0.0161719672746958,-0.2841043568125574,0.3310221484054363,-88.67763467052185,13.161108413553292,-76.20933800398176
8.99,3.0,-0.22,-0.0161719672746958,-0.2841043568125574,0.3310221484054363,-88.67763467052185,13.161108413553292,-76.20933800398176
9.67,3.19,-0.17,0.0229153095534083,-0.2870857421212538,-0.3732791090487844,-88.56553510664364,13.138038375794716,-76.44252722312795
9.67,3.19,-0.17,0.0229153095534083,-0.2870857421212538,-0.3732791090487844,-88.56553510664364,13.138038375794716,-76.44252722312795
9.37,2.75,-0.03,0.3406905137278632,-0.4503287858309689,0.0577303696764506,-88.61356466933819,13.114968872872083,-76.35503755065555
9.37,2.75,-0.03,0.3406905137278632,-0.4503287858309689,0.0577303696764506,-88.61356466933819,13.114968872872083,-76.35503755065555
9.13,3.07,-0.06,0.1050650377996145,-0.177446765054384,0.1763398293251246,-88.72571015189867,12.999629346780694,-76.25303259821837
9.13,3.07,-0.06,0.1050650377996145,-0.177446765054384,0.1763398293251246,-88.72571015189867,12.999629346780694,-76.25303259821837
9.14,2.97,-0.17,0.0916226646188791,-0.3366592544704181,0.2010440413054848,-88.77380536718846,12.815113562902274,-76.25303259821837
9.14,2.97,-0.17,0.0916226646188791,-0.3366592544704181,0.2010440413054848,-88.77380536718846,12.815113562902274,-76.25303259821837
9.31,3.14,-0.14,0.0467365524382372,-0.2421158257251121,-0.0165111827150479,-88.69365764034536,12.988096123558291,-76.19477604284661
9.31,3.14,-0.14,0.0467365524382372,-0.2421158257251121,-0.0165111827150479,-88.69365764034536,12.988096123558291,-76.19477604284661
9.1,3.13,-0.09,0.0846987695798889,-0.1656494681726621,0.1847797882310971,-88.90215600126406,12.780520582262024,-76.06378359355024
9.1,3.13,-0.09,0.0846987695798889,-0.1656494681726621,0.1847797882310971,-88.90215600126406,12.780520582262024,-76.06378359355024
8.93,3.07,-0.14,0.0700000219990538,-0.2022622848443744,0.3650616820817856,-89.04671926027092,12.619102083523115,-75.97652033503749
8.93,3.07,-0.14,0.0700000219990538,-0.2022622848443744,0.3650616820817856,-89.04671926027092,12.619102083523115,-75.97652033503749
9.06,3.15,-0.27,-0.0398891621521175,-0.250882474825368,0.2142328469270413,-89.12710972399763,12.596044357776794,-75.93290816428274
9.06,3.15,-0.27,-0.0398891621521175,-0.250882474825368,0.2142328469270413,-89.12710972399763,12.596044357776794,-75.93290816428274
9.2,3.14,-0.13,0.1214959656248666,-0.2206289539595558,0.0879535032978022,-89.14319448171844,12.596044357776794,-75.81667229763626
9.2,3.14,-0.13,0.1214959656248666,-0.2206289539595558,0.0879535032978022,-89.14319448171844,12.596044357776794,-75.81667229763626
9.23,3.65,-0.15,-0.1544519214163958,0.1034525928280003,-0.1182349950519832,-89.19146210713116,12.446181578242712,-75.70052817172606
9.23,3.65,-0.15,-0.1544519214163958,0.1034525928280003,-0.1182349950519832,-89.19146210713116,12.446181578242712,-75.70052817172606
9.0,3.4,-0.25,-0.0907021697066218,-0.1004574135140221,0.18354335897806,-89.40085398971644,12.215665087929844,-75.48300403742995
9.0,3.4,-0.25,-0.0907021697066218,-0.1004574135140221,0.18354335897806,-89.40085398971644,12.215665087929844,-75.48300403742995
9.01,3.24,-0.16,0.0867555451805268,-0.1745209616091025,0.2324494636972698,-89.46535844715626,12.054333120262198,-75.48300403742995
9.01,3.24,-0.16,0.0867555451805268,-0.1745209616091025,0.2324494636972698,-89.46535844715626,12.054333120262198,-75.48300403742995
9.28,2.92,-0.11,0.3655135258146004,-0.4482814165151943,0.0946809085101723,-89.51376040615051,11.881504040605064,-75.61348008001588
9.28,2.92,-0.11,0.3655135258146004,-0.4482814165151943,0.0946809085101723,-89.51376040615051,11.881504040605064,-75.61348008001588
9.07,3.22,0.0,0.2387162297771668,-0.1092214265806936,0.1856113221016144,-89.51376040615051,11.823900394126868,-75.61348008001588
9.07,3.22,0.0,0.2387162297771668,-0.1092214265806936,0.1856113221016144,-89.51376040615051,11.823900394126868,-75.61348008001588
