acc_x,acc_y,acc_z,lin_x,lin_y,lin_z,eul_x,eul_y,eul_z
9.46,3.03,3.08,-0.6309320669137329,-0.0434538959967858,-0.574050192465954,-65.3264377646757,-21.25230621784773,-110.45037134177934
9.46,3.03,3.08,-0.6309320669137329,-0.0434538959967858,-0.574050192465954,-65.3264377646757,-21.25230621784773,-110.45037134177934
8.69,3.15,3.12,0.0336054175142873,0.1371391722828259,0.0520068223466392,-67.2424412315755,-20.94924459772563,-108.68182460772248
8.69,3.15,3.12,0.0336054175142873,0.1371391722828259,0.0520068223466392,-67.2424412315755,-20.94924459772563,-108.68182460772248
8.99,3.1,2.61,-0.3225365884368836,0.1200859537675991,-0.048488229006594,-68.5825161330216,-21.08910064572278,-107.31714138517356
8.99,3.1,2.61,-0.3225365884368836,0.1200859537675991,-0.048488229006594,-68.5825161330216,-21.08910064572278,-107.31714138517356
11.17,3.64,2.07,-0.9204809253354096,0.2811458429403784,-2.083559076424644,-71.36596675624855,-21.112413070583106,-104.61433000481748
11.17,3.64,2.07,-0.9204809253354096,0.2811458429403784,-2.083559076424644,-71.36596675624855,-21.112413070583106,-104.61433000481748
11.04,2.47,0.87,-0.2849089796932124,-0.7021333691421849,-1.5143585948747178,-81.24917717727452,-21.08910064572278,-94.8682331378412
11.04,2.47,0.87,-0.2849089796932124,-0.7021333691421849,-1.5143585948747178,-81.24917717727452,-21.08910064572278,-94.8682331378412
10.39,2.61,-0.97,0.3031381800009798,-0.402445947391006,-0.9381740796792144,-93.52158145031368,-20.56480245757989,-82.73709614997145
10.39,2.61,-0.97,0.3031381800009798,-0.402445947391006,-0.9381740796792144,-93.52158145031368,-20.56480245757989,-82.73709614997145
11.0,3.02,-3.56,2.172017975423508,-0.5291476822841943,-1.9320186061397293,-114.44938861164486,-19.250121718432275,-61.64765035653756
11.0,3.02,-3.56,2.172017975423508,-0.5291476822841943,-1.9320186061397293,-114.44938861164486,-19.250121718432275,-61.64765035653756
6.56,2.22,-5.85,0.8483482723415868,-0.1314325181404376,0.7818214308807896,-131.98719464152978,-17.230672895970507,-43.65334169783373
6.56,2.22,-5.85,0.8483482723415868,-0.1314325181404376,0.7818214308807896,-131.98719464152978,-17.230672895970507,-43.65334169783373
3.31,1.2,-5.78,0.5671563362942539,-0.4941517349340516,3.0806818352624536,-148.73080219796103,-14.84673166768115,-25.241892093139462
3.31,1.2,-5.78,0.5671563362942539,-0.4941517349340516,3.0806818352624536,-148.73080219796103,-14.84673166768115,-25.241892093139462
2.58,2.81,-9.4,0.0532447793421277,0.3547924143302548,-0.3315839357605341,-155.214797761141,-13.322613734970494,-16.686140017359815
2.58,2.81,-9.4,0.0532447793421277,0.3547924143302548,-0.3315839357605341,-155.214797761141,-13.322613734970494,-16.686140017359815
1.15,2.94,-9.46,0.1030387037164504,0.4740619710139382,-0.15439152552206,-160.06096636558732,-12.019765115233204,-8.200293609338797
1.15,2.94,-9.46,0.1030387037164504,0.4740619710139382,-0.15439152552206,-160.06096636558732,-12.019765115233204,-8.200293609338797
-0.62,1.74,-6.77,-0.7026184216514503,0.2290064562441536,2.8281986390923013,-162.0085427715158,-11.512892133606984,-2.3263684457528235
-0.62,1.74,-6.77,-0.7026184216514503,0.2290064562441536,2.8281986390923013,-162.0085427715158,-11.512892133606984,-2.3263684457528235
-0.05,1.94,-9.92,0.1417463771059565,-0.4548624349015328,-0.2901568283934601,-162.45372607444324,-11.086833319532731,0.2635608181333149
-0.05,1.94,-9.92,0.1417463771059565,-0.4548624349015328,-0.2901568283934601,-162.45372607444324,-11.086833319532731,0.2635608181333149
-0.33,2.55,-9.33,0.4126476941717948,0.1984953314077457,0.1396638365722289,-162.22975145954382,-10.48830635783265,2.910938660030132
-0.33,2.55,-9.33,0.4126476941717948,0.1984953314077457,0.1396638365722289,-162.22975145954382,-10.48830635783265,2.910938660030132
-1.18,1.49,-8.59,-0.4487785692647649,-0.4785469466161697,1.0333843243434746,-162.22975145954382,-10.258180960550504,4.1720543955147065
-1.18,1.49,-8.59,-0.4487785692647649,-0.4785469466161697,1.0333843243434746,-162.22975145954382,-10.258180960550504,4.1720543955147065
-1.63,2.05,-8.32,-0.752268774996133,0.1509880087562402,1.117973788322086,-162.15571301144445,-9.91307033213892,4.561948975165956
-1.63,2.05,-8.32,-0.752268774996133,0.1509880087562402,1.117973788322086,-162.15571301144445,-9.91307033213892,4.561948975165956
-1.04,2.55,-9.6,-0.0589131515343917,0.2145290064049965,-0.1780686513184832,-162.30409717935632,-9.752049739225924,4.298191253728037
-1.04,2.55,-9.6,-0.0589131515343917,0.2145290064049965,-0.1780686513184832,-162.30409717935632,-9.752049739225924,4.298191253728037
-0.76,2.43,-9.85,0.1883623405070472,0.0443403090358314,-0.3652501944412201,-162.52901727888843,-9.76355056625781,4.160587661476331
-0.76,2.43,-9.85,0.1883623405070472,0.0443403090358314,-0.3652501944412201,-162.52901727888843,-9.76355056625781,4.160587661476331
-0.99,1.63,-9.24,-0.2376343381140903,-0.4618304966259854,0.3862018942178054,-162.91040944456057,-9.844059122531188,3.954193464226632
-0.99,1.63,-9.24,-0.2376343381140903,-0.4618304966259854,0.3862018942178054,-162.91040944456057,-9.844059122531188,3.954193464226632
-1.14,1.59,-9.14,-0.4920349531300682,-0.3914471962976499,0.4807735962828108,-163.22171672296716,-9.92457255015729,3.335085177891311
-1.14,1.59,-9.14,-0.4920349531300682,-0.3914471962976499,0.4807735962828108,-163.22171672296716,-9.92457255015729,3.335085177891311
-0.7,2.0,-9.72,-0.0426552971279178,-0.1850221850682785,-0.1398241148137273,-163.37954086931006,-9.91307033213892,2.87655022805785
-0.7,2.0,-9.72,-0.0426552971279178,-0.1850221850682785,-0.1398241148137273,-163.37954086931006,-9.91307033213892,2.87655022805785
-0.6,2.17,-9.61,0.0461520605836371,0.0099987439776678,-0.0634447316843296,-163.45901362866948,-9.970582425862728,2.6473004867786654
-0.6,2.17,-9.61,0.0461520605836371,0.0099987439776678,-0.0634447316843296,-163.45901362866948,-9.970582425862728,2.6473004867786654
-0.8,1.68,-9.52,-0.2476486494811421,-0.3542375781907234,0.1161399058611109,-163.61910772281004,-10.074110549810433,2.5670656278548973
-0.8,1.68,-9.52,-0.2476486494811421,-0.3542375781907234,0.1161399058611109,-163.61910772281004,-10.074110549810433,2.5670656278548973
-0.79,1.71,-9.63,-0.2494092294872273,-0.3096722368844856,0.0022123240315501,-163.86220596785728,-10.097117916179354,2.4295230620087382
-0.79,1.71,-9.63,-0.2494092294872273,-0.3096722368844856,0.0022123240315501,-163.86220596785728,-10.097117916179354,2.4295230620087382
-0.49,1.8,-9.88,0.0578353278179458,-0.2923802228533279,-0.2435076544918146,-163.86220596785728,-10.338720083250598,2.337829975144579
-0.49,1.8,-9.88,0.0578353278179458,-0.2923802228533279,-0.2435076544918146,-163.86220596785728,-10.338720083250598,2.337829975144579
-0.74,1.69,-9.25,-0.2206481432067803,-0.1970941804149104,0.3791016293499716,-163.94405112777469,-10.384744735841709,2.3263684457528235
-0.74,1.69,-9.25,-0.2206481432067803,-0.1970941804149104,0.3791016293499716,-163.94405112777469,-10.384744735841709,2.3263684457528235
-0.87,1.46,-9.25,-0.4073554096983103,-0.3694640331171474,0.4179036567216627,-164.1089976777972,-10.361732200036483,2.2117544130994498
-0.87,1.46,-9.25,-0.4073554096983103,-0.3694640331171474,0.4179036567216627,-164.1089976777972,-10.361732200036483,2.2117544130994498
-0.65,1.9,-9.64,-0.1401349780504328,-0.0591411125890769,-0.0391087070133178,-164.19211217641143,-10.22366575133618,2.0054546535892377
-0.65,1.9,-9.64,-0.1401349780504328,-0.0591411125890769,-0.0391087070133178,-164.19211217641143,-10.22366575133618,2.0054546535892377
-0.7,1.62,-9.36,-0.2567029296144442,-0.236605879774294,0.2881353436272107,-164.35965769726891,-10.120125690641803,1.925228761643688
-0.7,1.62,-9.36,-0.2567029296144442,-0.236605879774294,0.2881353436272107,-164.35965769726891,-10.120125690641803,1.925228761643688
-0.66,1.7,-9.37,-0.2143285380105954,-0.1468246928335455,0.2643753347344582,-164.61437509688025,-9.993587967554063,1.856464464018338
-0.66,1.7,-9.37,-0.2143285380105954,-0.1468246928335455,0.2643753347344582,-164.61437509688025,-9.993587967554063,1.856464464018338
-0.5,1.67,-9.89,-0.0683897699062171,-0.2753432296366879,-0.2318015212887978,-164.87335484809628,-9.786552516199244,1.7762402933693409
-0.5,1.67,-9.89,-0.0683897699062171,-0.2753432296366879,-0.2318015212887978,-164.87335484809628,-9.786552516199244,1.7762402933693409
-0.54,1.71,-9.66,-0.0889364124250284,-0.1534658174855128,-0.0167831349792599,-165.2256794561049,-9.418568108565768,1.8793858210517669
-0.54,1.71,-9.66,-0.0889364124250284,-0.1534658174855128,-0.0167831349792599,-165.2256794561049,-9.418568108565768,1.8793858210517669
-0.6,1.73,-9.49,-0.128889310669702,-0.076660170135352,0.1427734091121628,-165.4050127335264,-9.165635515674056,2.0054546535892377
-0.6,1.73,-9.49,-0.128889310669702,-0.076660170135352,0.1427734091121628,-165.4050127335264,-9.165635515674056,2.0054546535892377
-0.6,1.5,-9.68,-0.140051593142018,-0.3356731190974812,-0.0004958186555885,-165.6781993872616,-8.866772764864926,2.154448233767236
-0.6,1.5,-9.68,-0.140051593142018,-0.3356731190974812,-0.0004958186555885,-165.6781993872616,-8.866772764864926,2.154448233767236
-0.67,1.86,-9.37,-0.1495229442698474,0.0486497924775629,0.2316473322808541,-165.5865648948541,-8.602444609340731,2.2575997541901875
-0.67,1.86,-9.37,-0.1495229442698474,0.0486497924775629,0.2316473322808541,-165.5865648948541,-8.602444609340731,2.2575997541901875
-0.38,1.26,-9.58,0.0155185725436398,-0.5962682415915732,0.155089330451501,-165.6781993872616,-8.659903302137069,2.0398374773549266
-0.38,1.26,-9.58,0.0155185725436398,-0.5962682415915732,0.155089330451501,-165.6781993872616,-8.659903302137069,2.0398374773549266
-0.04,1.92,-10.21,0.4289495844720768,-0.1639337873456484,-0.5722337534364836,-165.5865648948541,-8.602444609340731,1.856464464018338
-0.04,1.92,-10.21,0.4289495844720768,-0.1639337873456484,-0.5722337534364836,-165.5865648948541,-8.602444609340731,1.856464464018338
-0.33,1.58,-10.05,0.104169353371835,-0.4471887518667977,-0.3617801131503082,-165.49550626988113,-8.602444609340731,1.959611168911186
-0.33,1.58,-10.05,0.104169353371835,-0.4471887518667977,-0.3617801131503082,-165.49550626988113,-8.602444609340731,1.959611168911186
-0.7,1.68,-9.5,-0.2156331139135079,-0.2234238398655104,0.1388692749336826,-165.2256794561049,-8.69437956401469,2.2117544130994498
-0.7,1.68,-9.5,-0.2156331139135079,-0.2234238398655104,0.1388692749336826,-165.2256794561049,-8.69437956401469,2.2117544130994498
-0.89,1.84,-9.32,-0.3234062180542496,-0.0604446879934867,0.2708304307224249,-165.04848521846108,-8.499024412896564,2.6129139620146145
-0.89,1.84,-9.32,-0.3234062180542496,-0.0604446879934867,0.2708304307224249,-165.04848521846108,-8.499024412896564,2.6129139620146145
-1.16,1.95,-8.92,-0.5471665657242883,0.1347626251765072,0.6198688561929337,-164.87335484809628,-8.41859128124216,2.87655022805785
-1.16,1.95,-8.92,-0.5471665657242883,0.1347626251765072,0.6198688561929337,-164.87335484809628,-8.41859128124216,2.87655022805785
-1.12,1.75,-8.85,-0.523926446320881,-0.054263216157591,0.7313011591995657,-164.70021747025422,-8.556479215940191,2.968253297538604
-1.12,1.75,-8.85,-0.523926446320881,-0.054263216157591,0.7313011591995657,-164.70021747025422,-8.556479215940191,2.968253297538604
-0.71,2.04,-9.48,-0.0907786036914847,0.0236028291566263,0.0841347826517839,-164.70021747025422,-8.602444609340731,2.738999060214957
-0.71,2.04,-9.48,-0.0907786036914847,0.0236028291566263,0.0841347826517839,-164.70021747025422,-8.602444609340731,2.738999060214957
-0.49,1.95,-10.07,0.0935359845328017,-0.2132913317909686,-0.4594718494317647,-164.70021747025422,-8.648411389524659,2.521217704700676
-0.49,1.95,-10.07,0.0935359845328017,-0.2132913317909686,-0.4594718494317647,-164.70021747025422,-8.648411389524659,2.521217704700676
-0.73,1.57,-9.6,-0.2220237646318005,-0.4414074449010464,0.0642855582679686,-164.70021747025422,-8.705871826379285,2.47537018520181
-0.73,1.57,-9.6,-0.2220237646318005,-0.4414074449010464,0.0642855582679686,-164.70021747025422,-8.705871826379285,2.47537018520181
-0.65,1.96,-9.62,-0.103000873100704,-0.1144033484841062,-0.0312767477449771,-164.52900617164656,-8.774827247055486,2.360753104216733
-0.65,1.96,-9.62,-0.103000873100704,-0.1144033484841062,-0.0312767477449771,-164.52900617164656,-8.774827247055486,2.360753104216733
-0.49,2.12,-9.78,0.0784078669987341,-0.0324029150299265,-0.2121175019181027,-164.44410289964102,-8.751841754333862,2.337829975144579
-0.49,2.12,-9.78,0.0784078669987341,-0.0324029150299265,-0.2121175019181027,-164.44410289964102,-8.751841754333862,2.337829975144579
-0.78,1.79,-9.33,-0.2565606344402025,-0.2155902648024064,0.280417928578581,-164.44410289964102,-8.797813093528106,2.4180613422720283
-0.78,1.79,-9.33,-0.2565606344402025,-0.2155902648024064,0.280417928578581,-164.44410289964102,-8.797813093528106,2.4180613422720283
-0.72,1.79,-9.5,-0.2058961898539349,-0.2623483032452336,0.1184468576836739,-164.44410289964102,-8.855279263547427,2.337829975144579
-0.72,1.79,-9.5,-0.2058961898539349,-0.2623483032452336,0.1184468576836739,-164.44410289964102,-8.855279263547427,2.337829975144579
-0.48,2.13,-9.79,0.0726581927550532,-0.0591043786074068,-0.2234361142591883,-164.35965769726891,-8.809306149715164,2.24613838532295
-0.48,2.13,-9.79,0.0726581927550532,-0.0591043786074068,-0.2234361142591883,-164.35965769726891,-8.809306149715164,2.24613838532295
-0.71,1.74,-9.54,-0.2112713726068977,-0.3440945763715859,0.0916994942265194,-164.35965769726891,-8.797813093528106,2.3034454566839293
-0.71,1.74,-9.54,-0.2112713726068977,-0.3440945763715859,0.0916994942265194,-164.35965769726891,-8.797813093528106,2.3034454566839293
-0.85,1.8,-9.4,-0.3421242519890852,-0.2400349698815461,0.2072836558377506,-164.35965769726891,-8.636919564056372,2.3263684457528235
-0.85,1.8,-9.4,-0.3421242519890852,-0.2400349698815461,0.2072836558377506,-164.35965769726891,-8.636919564056372,2.3263684457528235
-0.66,2.1,-9.67,-0.11811635715798,-0.0497635653592556,-0.109905456091317,-164.35965769726891,-8.556479215940191,2.24613838532295
-0.66,2.1,-9.67,-0.11811635715798,-0.0497635653592556,-0.109905456091317,-164.35965769726891,-8.556479215940191,2.24613838532295
-0.48,2.19,-9.88,0.0630628859122665,-0.0449448688011924,-0.3242385607921339,-164.35965769726891,-8.544988083393589,2.1659094260652934
-0.48,2.19,-9.88,0.0630628859122665,-0.0449448688011924,-0.3242385607921339,-164.35965769726891,-8.544988083393589,2.1659094260652934
-0.72,1.66,-9.53,-0.266244330315718,-0.4281511349307987,0.1195090098919191,-164.44410289964102,-8.579461739762628,2.1315259137202647
-0.72,1.66,-9.53,-0.266244330315718,-0.4281511349307987,0.1195090098919191,-164.44410289964102,-8.579461739762628,2.1315259137202647
-0.71,1.82,-9.56,-0.2723609689924981,-0.297054416781466,0.057410123166516,-164.19211217641143,-8.797813093528106,1.8793858210517669
-0.71,1.82,-9.56,-0.2723609689924981,-0.297054416781466,0.057410123166516,-164.19211217641143,-8.797813093528106,1.8793858210517669
-0.37,2.16,-9.94,0.0921014341849917,-0.1300085490920366,-0.3708111324722853,-164.1089976777972,-8.809306149715164,1.7189378496716434
-0.37,2.16,-9.94,0.0921014341849917,-0.1300085490920366,-0.3708111324722853,-164.1089976777972,-8.809306149715164,1.7189378496716434
-0.56,2.09,-9.67,-0.1018524890409566,-0.1292102499514807,-0.1011010456098802,-163.94405112777469,-9.016196458354324,1.7533192633889718
-0.56,2.09,-9.67,-0.1018524890409566,-0.1292102499514807,-0.1011010456098802,-163.94405112777469,-9.016196458354324,1.7533192633889718
-0.88,1.7,-9.29,-0.4821334848391363,-0.3608348732412221,0.3406135804075951,-163.94405112777469,-9.004701785923347,1.7647797695524667
-0.88,1.7,-9.29,-0.4821334848391363,-0.3608348732412221,0.3406135804075951,-163.94405112777469,-9.004701785923347,1.7647797695524667
-0.61,2.17,-9.48,-0.1595178617637782,-0.0197528783950298,0.0636748960816149,-163.86220596785728,-8.92424161449454,1.6616358358374437
-0.61,2.17,-9.48,-0.1595178617637782,-0.0197528783950298,0.0636748960816149,-163.86220596785728,-8.92424161449454,1.6616358358374437
-0.4,2.34,-9.58,0.0533690497207449,0.0665722138228779,-0.0627329536034633,-163.78077108801162,-8.878266355561609,1.5470330404085568
-0.4,2.34,-9.58,0.0533690497207449,0.0665722138228779,-0.0627329536034633,-163.78077108801162,-8.878266355561609,1.5470330404085568
-0.55,1.68,-9.75,-0.2089233719222781,-0.5617144957783802,-0.0841653278633778,-163.94405112777469,-8.855279263547427,1.4668120111410634
-0.55,1.68,-9.75,-0.2089233719222781,-0.5617144957783802,-0.0841653278633778,-163.94405112777469,-8.855279263547427,1.4668120111410634
-0.48,1.94,-9.84,-0.1113579592879936,-0.3482641851350865,-0.227586964625436,-163.94405112777469,-8.832292528579133,1.3980517025844337
-0.48,1.94,-9.84,-0.1113579592879936,-0.3482641851350865,-0.227586964625436,-163.94405112777469,-8.832292528579133,1.3980517025844337
