,TIME,ELAPSED_SECONDS,PSTATE,acc_x,acc_y,acc_z,mag_x,mag_y,mag_z,gyr_x,gyr_y,gyr_z,lin_x,lin_y,lin_z,eul_x,eul_y,eul_z,qua_w,qua_x,qua_y,qua_z
0,3477704.0,1730.310414,1.0,7.66,2.85,-5.44,-31.87,-25.5,15.5,6.63,-1.12,-4.5,-0.22922975236758636,-0.06513011343631825,-0.008384986639287106,-121.2668396082864,10.120125690641805,-51.51968798135092,-0.2095,-0.8715,0.0882,-0.4346
1,3477704.0,1730.310414,1.0,7.66,2.85,-5.44,-31.87,-25.5,15.5,6.63,-1.12,-4.5,-0.22922975236758636,-0.06513011343631825,-0.008384986639287106,-121.2668396082864,10.120125690641805,-51.51968798135092,-0.2095,-0.8715,0.0882,-0.4346
2,3477741.0,1730.3574219999998,1.0,7.83,3.08,-5.4,-31.56,-25.19,15.5,10.19,0.25,-4.25,-0.15950525330124787,0.15540275576245555,-0.1886342909879648,-121.38378152894909,9.844059122531188,-51.50696474252449,-0.2084,-0.872,0.0858,-0.4345
3,3477741.0,1730.3574219999998,1.0,7.83,3.08,-5.4,-31.56,-25.19,15.5,10.19,0.25,-4.25,-0.15950525330124787,0.15540275576245555,-0.1886342909879648,-121.38378152894909,9.844059122531188,-51.50696474252449,-0.2084,-0.872,0.0858,-0.4345
4,3477774.0,1730.39834,1.0,7.72,3.38,-5.36,-31.56,-25.19,15.5,7.5,-0.06,-7.56,-0.26871833850481197,0.4399570971524505,-0.16764838170166207,-121.54785831198568,9.556550648732504,-51.43063961098535,-0.2078,-0.8727,0.0833,-0.4339
5,3477774.0,1730.39834,1.0,7.72,3.38,-5.36,-31.56,-25.19,15.5,7.5,-0.06,-7.56,-0.26871833850481197,0.4399570971524505,-0.16764838170166207,-121.54785831198568,9.556550648732504,-51.43063961098535,-0.2078,-0.8727,0.0833,-0.4339
6,3477809.0,1730.429279,1.0,7.39,4.0,-5.3,-31.87,-26.69,15.88,14.69,-2.63,-16.94,-0.5646485782778732,1.0429954693126742,-0.057194708532369624,-121.92447762133864,8.947229783297066,-51.278062716299324,-0.2056,-0.8743,0.078,-0.4327
7,3477809.0,1730.429279,1.0,7.39,4.0,-5.3,-31.87,-26.69,15.88,14.69,-2.63,-16.94,-0.5646485782778732,1.0429954693126742,-0.057194708532369624,-121.92447762133864,8.947229783297066,-51.278062716299324,-0.2056,-0.8743,0.078,-0.4327
8,3477843.0,1730.446091,1.0,6.89,2.84,-5.01,-31.56,-26.69,16.37,70.94,3.56,0.37,-0.2533495897463899,0.2549797281704933,0.8339915687658443,-122.6606000192726,7.94756506816392,-51.303485419526396,-0.1951,-0.8774,0.0693,-0.4329
9,3477843.0,1730.446091,1.0,6.89,2.84,-5.01,-31.56,-26.69,16.37,70.94,3.56,0.37,-0.2533495897463899,0.2549797281704933,0.8339915687658443,-122.6606000192726,7.94756506816392,-51.303485419526396,-0.1951,-0.8774,0.0693,-0.4329
10,3477880.0,1730.4977,1.0,7.29,2.52,-5.4,-31.19,-26.0,16.75,53.56,3.44,-14.75,-0.20304324758110606,0.02630013709872392,0.3932243885448212,-123.50224233828399,6.592650878252481,-51.659688661303676,-0.1758,-0.8809,0.0575,-0.4357
11,3477880.0,1730.4977,1.0,7.29,2.52,-5.4,-31.19,-26.0,16.75,53.56,3.44,-14.75,-0.20304324758110606,0.02630013709872392,0.3932243885448212,-123.50224233828399,6.592650878252481,-51.659688661303676,-0.1758,-0.8809,0.0575,-0.4357
12,3477915.0,1730.5181440000001,1.0,7.41,1.82,-5.31,-31.19,-26.0,16.75,74.94,17.31,-9.38,0.09501355884995358,-0.4766465793630472,0.5233111360989202,-123.96398525409832,5.364844561963229,-51.97818068894303,-0.163,-0.8828,0.0468,-0.4382
13,3477915.0,1730.5181440000001,1.0,7.41,1.82,-5.31,-31.19,-26.0,16.75,74.94,17.31,-9.38,0.09501355884995358,-0.4766465793630472,0.5233111360989202,-123.96398525409832,5.364844561963229,-51.97818068894303,-0.163,-0.8828,0.0468,-0.4382
14,3477952.0,1730.567032,1.0,7.14,1.2,-4.24,-31.87,-25.25,17.56,41.56,58.75,-11.69,0.6672805066321065,-0.5886535544898627,1.4636635012541674,-123.26060567533968,3.82807003686826,-53.61572206207956,-0.1458,-0.8799,0.0334,-0.451
15,3477952.0,1730.567032,1.0,7.14,1.2,-4.24,-31.87,-25.25,17.56,41.56,58.75,-11.69,0.6672805066321065,-0.5886535544898627,1.4636635012541674,-123.26060567533968,3.82807003686826,-53.61572206207956,-0.1458,-0.8799,0.0334,-0.451
16,3477987.0,1730.623548,1.0,6.84,1.38,-2.93,-30.75,-24.0,19.69,25.25,172.0,-22.37,1.0561413582506851,-0.15585283915840875,2.314308888977447,-120.04002661398823,2.337829975144579,-57.148862161344155,-0.1431,-0.8662,0.0204,-0.4783
17,3477987.0,1730.623548,1.0,6.84,1.38,-2.93,-30.75,-24.0,19.69,25.25,172.0,-22.37,1.0561413582506851,-0.15585283915840875,2.314308888977447,-120.04002661398823,2.337829975144579,-57.148862161344155,-0.1431,-0.8662,0.0204,-0.4783
18,3478022.0,1730.633673,1.0,11.93,-0.07,-4.31,-30.75,-24.0,19.69,14.5,246.56,26.37,0.8073767176727329,-2.713659563401856,-2.5582234166475644,-110.9542523014697,0.6417160846123932,-66.80264364391536,-0.1349,-0.8239,0.0056,-0.5505
19,3478022.0,1730.633673,1.0,11.93,-0.07,-4.31,-30.75,-24.0,19.69,14.5,246.56,26.37,0.8073767176727329,-2.713659563401856,-2.5582234166475644,-110.9542523014697,0.6417160846123932,-66.80264364391536,-0.1349,-0.8239,0.0056,-0.5505
20,3478056.0,1730.6846649999998,1.0,12.04,1.65,-3.09,-33.75,-24.87,14.25,-46.69,116.75,-11.81,0.4909569667113632,-1.0992360740293554,-2.674649664313412,-105.25385814101205,0.7104722177704716,-72.20051661196997,-0.1453,-0.7947,0.0062,-0.5892
21,3478056.0,1730.6846649999998,1.0,12.04,1.65,-3.09,-33.75,-24.87,14.25,-46.69,116.75,-11.81,0.4909569667113632,-1.0992360740293554,-2.674649664313412,-105.25385814101205,0.7104722177704716,-72.20051661196997,-0.1453,-0.7947,0.0062,-0.5892
22,3478093.0,1730.696872,1.0,9.86,0.35,-2.23,-35.38,-24.0,8.38,-46.44,41.88,12.38,0.6748786827594435,-1.88561150354224,-0.10818777079918007,-103.81206807438305,1.4438918508267422,-73.28211333587478,-0.1558,-0.787,0.0126,-0.5968
23,3478093.0,1730.696872,1.0,9.86,0.35,-2.23,-35.38,-24.0,8.38,-46.44,41.88,12.38,0.6748786827594435,-1.88561150354224,-0.10818777079918007,-103.81206807438305,1.4438918508267422,-73.28211333587478,-0.1558,-0.787,0.0126,-0.5968
24,3478130.0,1730.7141739999997,1.0,9.69,1.96,-1.91,-35.38,-24.37,5.5,-117.62,35.31,11.69,0.22835584129028616,-0.3717244323016564,-0.252946142797116,-101.33846927981493,4.000057708800217,-74.71696010988838,-0.1796,-0.7735,0.0349,-0.6068
25,3478130.0,1730.7141739999997,1.0,9.69,1.96,-1.91,-35.38,-24.37,5.5,-117.62,35.31,11.69,0.22835584129028616,-0.3717244323016564,-0.252946142797116,-101.33846927981493,4.000057708800217,-74.71696010988838,-0.1796,-0.7735,0.0349,-0.6068
26,3478165.0,1730.757667,1.0,9.21,2.09,-2.6,-35.38,-24.37,5.5,-75.62,-31.81,16.12,-0.5157160088491456,-0.5016218215645499,0.037585943175159287,-101.17588829449863,5.97292446733722,-73.85442987393886,-0.1985,-0.7726,0.0521,-0.6008
27,3478165.0,1730.757667,1.0,9.21,2.09,-2.6,-35.38,-24.37,5.5,-75.62,-31.81,16.12,-0.5157160088491456,-0.5016218215645499,0.037585943175159287,-101.17588829449863,5.97292446733722,-73.85442987393886,-0.1985,-0.7726,0.0521,-0.6008
28,3478202.0,1730.83236,1.0,9.9,3.3,-1.88,-36.88,-24.37,0.5,-109.06,-42.75,8.25,-0.06910228618127842,0.8424697128950489,-0.7631120435324412,-101.12175699059144,9.62554711472919,-72.38499549855874,-0.2187,-0.7723,0.0839,-0.5905
29,3478202.0,1730.83236,1.0,9.9,3.3,-1.88,-36.88,-24.37,0.5,-109.06,-42.75,8.25,-0.06910228618127842,0.8424697128950489,-0.7631120435324412,-101.12175699059144,9.62554711472919,-72.38499549855874,-0.2187,-0.7723,0.0839,-0.5905
30,3478237.0,1730.852015,1.0,9.37,4.19,-2.23,-36.56,-23.25,2.25,-84.56,-62.38,-14.13,-0.7361919598415096,1.4383343819690784,-0.5719392877553631,-101.64633756490149,11.351662230904264,-70.50769114431371,-0.2369,-0.7752,0.0989,-0.5772
31,3478237.0,1730.852015,1.0,9.37,4.19,-2.23,-36.56,-23.25,2.25,-84.56,-62.38,-14.13,-0.7361919598415096,1.4383343819690784,-0.5719392877553631,-101.64633756490149,11.351662230904264,-70.50769114431371,-0.2369,-0.7752,0.0989,-0.5772
32,3478272.0,1730.9003089999999,1.0,8.47,3.12,-3.09,-36.56,-23.25,2.25,-62.75,-87.87,7.19,-0.8943615162061804,0.2595767013598722,0.31159142122121963,-103.68214546357069,13.161108413553293,-67.32502809337325,-0.2477,-0.7863,0.1146,-0.5543
33,3478272.0,1730.9003089999999,1.0,8.47,3.12,-3.09,-36.56,-23.25,2.25,-62.75,-87.87,7.19,-0.8943615162061804,0.2595767013598722,0.31159142122121963,-103.68214546357069,13.161108413553293,-67.32502809337325,-0.2477,-0.7863,0.1146,-0.5543
34,3478306.0,1730.919355,1.0,8.78,3.49,-3.15,-36.25,-24.0,3.38,-50.25,-102.19,-6.0,-0.4763349125315108,0.6336969559301862,-0.12121649885807352,-106.33663306993485,15.02008899858815,-63.376882602273,-0.2578,-0.8004,0.1307,-0.5253
35,3478306.0,1730.919355,1.0,8.78,3.49,-3.15,-36.25,-24.0,3.38,-50.25,-102.19,-6.0,-0.4763349125315108,0.6336969559301862,-0.12121649885807352,-106.33663306993485,15.02008899858815,-63.376882602273,-0.2578,-0.8004,0.1307,-0.5253
36,3478343.0,1730.983677,1.0,8.28,3.58,-3.79,-36.56,-23.87,3.75,-22.12,-120.12,-8.38,-0.7352451351121378,0.5370214676122949,0.06447762754540952,-108.97720765299681,16.095692494623034,-59.96030828751041,-0.2611,-0.8140000000000001,0.14,-0.4997
37,3478343.0,1730.983677,1.0,8.28,3.58,-3.79,-36.56,-23.87,3.75,-22.12,-120.12,-8.38,-0.7352451351121378,0.5370214676122949,0.06447762754540952,-108.97720765299681,16.095692494623034,-59.96030828751041,-0.2611,-0.8140000000000001,0.14,-0.4997
38,3478378.0,1730.986966,1.0,8.09,4.01,-4.15,-36.56,-23.87,3.75,-13.63,-112.0,0.5,-0.8357631263877725,0.9096690749622872,-0.053608727367542734,-111.6651483609591,17.172725448331995,-56.67963771453915,-0.2604,-0.8274,0.1493,-0.4747
39,3478378.0,1730.986966,1.0,8.09,4.01,-4.15,-36.56,-23.87,3.75,-13.63,-112.0,0.5,-0.8357631263877725,0.9096690749622872,-0.053608727367542734,-111.6651483609591,17.172725448331995,-56.67963771453915,-0.2604,-0.8274,0.1493,-0.4747
40,3478413.0,1731.030373,1.0,7.75,3.41,-4.79,-35.88,-24.69,6.69,21.81,-100.06,0.69,-0.6160418064902579,0.4079210580636503,0.10671222169211704,-115.21541543771308,17.961196420173227,-53.02589040849175,-0.2518,-0.8444,0.1561,-0.4464
41,3478413.0,1731.030373,1.0,7.75,3.41,-4.79,-35.88,-24.69,6.69,21.81,-100.06,0.69,-0.6160418064902579,0.4079210580636503,0.10671222169211704,-115.21541543771308,17.961196420173227,-53.02589040849175,-0.2518,-0.8444,0.1561,-0.4464
42,3478448.0,1731.0925260000001,1.0,7.5,2.86,-5.03,-35.5,-24.56,10.75,33.19,-90.12,4.63,-0.1883537435469909,0.21755732965884625,0.3384035057644663,-118.72304914641389,18.251289114029838,-49.99769103660335,-0.2368,-0.8604,0.1586,-0.4226
43,3478448.0,1731.0925260000001,1.0,7.5,2.86,-5.03,-35.5,-24.56,10.75,33.19,-90.12,4.63,-0.1883537435469909,0.21755732965884625,0.3384035057644663,-118.72304914641389,18.251289114029838,-49.99769103660335,-0.2368,-0.8604,0.1586,-0.4226
44,3478484.0,1731.100768,1.0,7.38,3.2,-5.41,-33.56,-23.5,14.56,28.0,-49.63,-10.06,-0.4127352600244624,0.4915773979496767,0.13398225697493693,-120.66212588661213,17.92639313237552,-48.51019892418311,-0.228,-0.8689,0.1558,-0.4108
45,3478484.0,1731.100768,1.0,7.38,3.2,-5.41,-33.56,-23.5,14.56,28.0,-49.63,-10.06,-0.4127352600244624,0.4915773979496767,0.13398225697493693,-120.66212588661213,17.92639313237552,-48.51019892418311,-0.228,-0.8689,0.1558,-0.4108
46,3478519.0,1731.154206,1.0,6.99,3.32,-5.74,-33.56,-23.5,14.56,36.38,-48.81,-14.38,-0.6261784205178997,0.6418786280458058,0.2136321008956852,-123.01990890666336,17.346581127291525,-46.85645674888645,-0.2161,-0.8789,0.1508,-0.3976
47,3478519.0,1731.154206,1.0,6.99,3.32,-5.74,-33.56,-23.5,14.56,36.38,-48.81,-14.38,-0.6261784205178997,0.6418786280458058,0.2136321008956852,-123.01990890666336,17.346581127291525,-46.85645674888645,-0.2161,-0.8789,0.1508,-0.3976
48,3478554.0,1731.1690899999999,1.0,7.39,1.75,-6.19,-34.06,-23.37,16.69,29.0,-29.69,-2.25,0.1205552551288823,-0.6172759006230549,0.02937344193073344,-124.55228684017095,17.033669594732867,-46.220292814904006,-0.2009,-0.8852,0.1481,-0.3925
49,3478554.0,1731.1690899999999,1.0,7.39,1.75,-6.19,-34.06,-23.37,16.69,29.0,-29.69,-2.25,0.1205552551288823,-0.6172759006230549,0.02937344193073344,-124.55228684017095,17.033669594732867,-46.220292814904006,-0.2009,-0.8852,0.1481,-0.3925
50,3478591.0,1731.187957,1.0,6.63,3.36,-5.93,-33.0,-22.56,16.69,11.06,-47.06,-33.81,-0.5443282524700522,0.8757924881629036,0.35423791253574605,-126.47990511760632,16.30403579859025,-44.345450751183655,-0.2003,-0.8929,0.1418,-0.3774
51,3478591.0,1731.187957,1.0,6.63,3.36,-5.93,-33.0,-22.56,16.69,11.06,-47.06,-33.81,-0.5443282524700522,0.8757924881629036,0.35423791253574605,-126.47990511760632,16.30403579859025,-44.345450751183655,-0.2003,-0.8929,0.1418,-0.3774
52,3478626.0,1731.2325739999999,1.0,6.45,1.47,-6.15,-33.0,-22.56,16.69,58.06,-26.87,-13.69,0.13897292152117538,-0.7934745865730786,0.8101515362894354,-128.1324147334415,15.459416628401115,-43.27093047786308,-0.1929,-0.8993,0.1345,-0.3687
53,3478626.0,1731.2325739999999,1.0,6.45,1.47,-6.15,-33.0,-22.56,16.69,58.06,-26.87,-13.69,0.13897292152117538,-0.7934745865730786,0.8101515362894354,-128.1324147334415,15.459416628401115,-43.27093047786308,-0.1929,-0.8993,0.1345,-0.3687
54,3478661.0,1731.29411,1.0,8.13,0.61,-7.35,-32.19,-24.06,19.56,-6.88,5.75,-12.94,0.7044110027258599,-1.6902414805749095,-1.0163989639741846,-128.39505791682004,14.950741939900693,-44.12280269978493,-0.1772,-0.9003,0.1301,-0.3756
55,3478661.0,1731.29411,1.0,8.13,0.61,-7.35,-32.19,-24.06,19.56,-6.88,5.75,-12.94,0.7044110027258599,-1.6902414805749095,-1.0163989639741846,-128.39505791682004,14.950741939900693,-44.12280269978493,-0.1772,-0.9003,0.1301,-0.3756
56,3478695.0,1731.3009809999999,1.0,6.58,2.72,-6.1,-31.06,-22.56,19.56,-20.37,0.06,-45.38,-0.2111497148853456,0.34267138231493505,0.4395377383877701,-128.55324310023371,13.957359493385505,-43.61631189309636,-0.1885,-0.9009,0.1215,-0.3715
57,3478695.0,1731.3009809999999,1.0,6.58,2.72,-6.1,-31.06,-22.56,19.56,-20.37,0.06,-45.38,-0.2111497148853456,0.34267138231493505,0.4395377383877701,-128.55324310023371,13.957359493385505,-43.61631189309636,-0.1885,-0.9009,0.1215,-0.3715
58,3478732.0,1731.362975,1.0,6.99,1.81,-6.46,-30.56,-23.0,20.0,27.75,17.19,7.63,0.10635205498629947,-0.5669399086283843,0.13529702430913024,-128.47409395200597,13.576461659580188,-44.07334918943469,-0.1847,-0.9006,0.1182,-0.3752
59,3478732.0,1731.362975,1.0,6.99,1.81,-6.46,-30.56,-23.0,20.0,27.75,17.19,7.63,0.10635205498629947,-0.5669399086283843,0.13529702430913024,-128.47409395200597,13.576461659580188,-44.07334918943469,-0.1847,-0.9006,0.1182,-0.3752
60,3478767.0,1731.3805989999998,1.0,7.09,2.43,-6.49,-30.56,-23.0,20.0,-3.31,22.81,-9.69,-0.19092370200634648,-0.04879827539106496,-0.10567903349818586,-127.87100362286014,13.172643633299911,-44.927644585005865,-0.184,-0.8983,0.1147,-0.3821
61,3478767.0,1731.3805989999998,1.0,7.09,2.43,-6.49,-30.56,-23.0,20.0,-3.31,22.81,-9.69,-0.19092370200634648,-0.04879827539106496,-0.10567903349818586,-127.87100362286014,13.172643633299911,-44.927644585005865,-0.184,-0.8983,0.1147,-0.3821
62,3478804.0,1731.427931,1.0,6.9,2.58,-6.33,-31.0,-23.37,19.56,8.25,15.06,-17.25,-0.3074177554046113,0.05615963318065398,0.0990426521895742,-127.55891058236664,12.688278342697654,-45.287480525770206,-0.1866,-0.8971,0.1105,-0.385
63,3478804.0,1731.427931,1.0,6.9,2.58,-6.33,-31.0,-23.37,19.56,8.25,15.06,-17.25,-0.3074177554046113,0.05615963318065398,0.0990426521895742,-127.55891058236664,12.688278342697654,-45.287480525770206,-0.1866,-0.8971,0.1105,-0.385
64,3478839.0,1731.488076,1.0,7.2,2.41,-5.94,-31.37,-24.06,20.0,16.56,20.62,3.44,0.1018599850870718,0.10981223765233028,0.16770473529910213,-127.24853393391231,12.204140573704526,-46.033473279550854,-0.1821,-0.8959,0.1063,-0.391
65,3478839.0,1731.488076,1.0,7.2,2.41,-5.94,-31.37,-24.06,20.0,16.56,20.62,3.44,0.1018599850870718,0.10981223765233028,0.16770473529910213,-127.24853393391231,12.204140573704526,-46.033473279550854,-0.1821,-0.8959,0.1063,-0.391
66,3478874.0,1731.506647,1.0,6.82,2.81,-5.72,-31.37,-24.06,20.0,10.06,30.87,-13.0,-0.2333154992384124,0.5063726890860291,0.4891368887903944,-126.76054091134182,11.674144907935558,-46.769049990136345,-0.1815,-0.894,0.1017,-0.3969
67,3478874.0,1731.506647,1.0,6.82,2.81,-5.72,-31.37,-24.06,20.0,10.06,30.87,-13.0,-0.2333154992384124,0.5063726890860291,0.4891368887903944,-126.76054091134182,11.674144907935558,-46.769049990136345,-0.1815,-0.894,0.1017,-0.3969
68,3478908.0,1731.509784,1.0,7.11,2.16,-6.5,-31.37,-23.69,19.56,21.56,37.75,-19.31,-0.5434708965816061,-0.4524785020255434,-0.04056293512908127,-125.92268154117136,10.557352206642195,-48.08322235291628,-0.1793,-0.8907,0.092,-0.4074
69,3478908.0,1731.509784,1.0,7.11,2.16,-6.5,-31.37,-23.69,19.56,21.56,37.75,-19.31,-0.5434708965816061,-0.4524785020255434,-0.04056293512908127,-125.92268154117136,10.557352206642195,-48.08322235291628,-0.1793,-0.8907,0.092,-0.4074
70,3478943.0,1731.5515059999998,1.0,8.65,1.36,-6.16,-31.37,-23.37,19.19,15.0,42.63,17.69,0.6868712521699134,-0.9184547842790164,-0.8377075988491463,-125.17127559163816,10.292697102933527,-49.45461164689416,-0.1702,-0.8877,0.0897,-0.4183
71,3478943.0,1731.5515059999998,1.0,8.65,1.36,-6.16,-31.37,-23.37,19.19,15.0,42.63,17.69,0.6868712521699134,-0.9184547842790164,-0.8377075988491463,-125.17127559163816,10.292697102933527,-49.45461164689416,-0.1702,-0.8877,0.0897,-0.4183
72,3478980.0,1731.5735339999999,1.0,8.02,2.7,-5.69,-31.75,-23.0,17.5,-26.81,17.94,-21.5,0.10603256483257018,0.27785895567691465,-0.3863893649757433,-124.1105266335135,10.200656128703407,-50.111510359679706,-0.1802,-0.8834,0.0889,-0.4235
73,3478980.0,1731.5735339999999,1.0,8.02,2.7,-5.69,-31.75,-23.0,17.5,-26.81,17.94,-21.5,0.10603256483257018,0.27785895567691465,-0.3863893649757433,-124.1105266335135,10.200656128703407,-50.111510359679706,-0.1802,-0.8834,0.0889,-0.4235
74,3479015.0,1731.618216,1.0,7.34,2.59,-5.76,-31.75,-23.0,17.5,5.75,8.31,-2.69,-0.3632360985074786,0.0992524042163827,0.13093253321758702,-123.84213593724544,10.085614182042526,-50.30132682508742,-0.1821,-0.8823,0.0879,-0.425
75,3479015.0,1731.618216,1.0,7.34,2.59,-5.76,-31.75,-23.0,17.5,5.75,8.31,-2.69,-0.3632360985074786,0.0992524042163827,0.13093253321758702,-123.84213593724544,10.085614182042526,-50.30132682508742,-0.1821,-0.8823,0.0879,-0.425
76,3479052.0,1731.676908,1.0,7.01,2.52,-5.49,-31.75,-24.06,17.5,6.19,13.19,-4.69,-0.3933585139942306,0.13562805846557224,0.5623288183650228,-123.6719537539127,9.717547848465047,-50.64336935396991,-0.1807,-0.8816,0.0847,-0.4277
77,3479052.0,1731.676908,1.0,7.01,2.52,-5.49,-31.75,-24.06,17.5,6.19,13.19,-4.69,-0.3933585139942306,0.13562805846557224,0.5623288183650228,-123.6719537539127,9.717547848465047,-50.64336935396991,-0.1807,-0.8816,0.0847,-0.4277
78,3479087.0,1731.692943,1.0,7.76,1.83,-5.56,-32.06,-24.87,17.87,7.88,32.19,6.5,0.09528488506075722,-0.5156985441795233,0.10072007019883243,-123.09201996316364,9.499056247386587,-51.48152030899618,-0.1777,-0.8792,0.0828,-0.4343
79,3479087.0,1731.692943,1.0,7.76,1.83,-5.56,-32.06,-24.87,17.87,7.88,32.19,6.5,0.09528488506075722,-0.5156985441795233,0.10072007019883243,-123.09201996316364,9.499056247386587,-51.48152030899618,-0.1777,-0.8792,0.0828,-0.4343
80,3479121.0,1731.736936,1.0,8.33,2.38,-5.86,-32.06,-24.87,17.87,-8.0,8.06,-6.5,-0.05926361279939599,-0.21815935646307327,-0.6500126759872861,-122.32709422851921,9.349581983346614,-52.15672470466425,-0.1808,-0.8759999999999999,0.0815,-0.4396
81,3479121.0,1731.736936,1.0,8.33,2.38,-5.86,-32.06,-24.87,17.87,-8.0,8.06,-6.5,-0.05926361279939599,-0.21815935646307327,-0.6500126759872861,-122.32709422851921,9.349581983346614,-52.15672470466425,-0.1808,-0.8759999999999999,0.0815,-0.4396
82,3479156.0,1731.754943,1.0,7.54,2.53,-5.25,-32.88,-23.37,16.25,5.81,20.25,-1.81,-0.18362426332373796,0.14278885049915302,0.27979881641935656,-121.97171183603344,9.315090195791667,-52.51422225376784,-0.1817,-0.8745,0.0812,-0.4424
83,3479156.0,1731.754943,1.0,7.54,2.53,-5.25,-32.88,-23.37,16.25,5.81,20.25,-1.81,-0.18362426332373796,0.14278885049915302,0.27979881641935656,-121.97171183603344,9.315090195791667,-52.51422225376784,-0.1817,-0.8745,0.0812,-0.4424
84,3479193.0,1731.7991329999998,1.0,8.19,2.15,-5.68,-32.88,-24.5,16.69,5.69,24.12,3.63,-0.1743575589639095,-0.403161454734811,-0.3800108995807978,-121.12678863705332,9.073671186517632,-53.538700860812206,-0.1801,-0.8709,0.0791,-0.4504
85,3479193.0,1731.7991329999998,1.0,8.19,2.15,-5.68,-32.88,-24.5,16.69,5.69,24.12,3.63,-0.1743575589639095,-0.403161454734811,-0.3800108995807978,-121.12678863705332,9.073671186517632,-53.538700860812206,-0.1801,-0.8709,0.0791,-0.4504
86,3479228.0,1731.8575739999999,1.0,8.44,2.18,-5.46,-32.88,-24.5,16.69,-10.69,9.63,-1.56,0.05490362285264792,-0.32873159290288745,-0.4737449891054872,-120.68528037991206,9.096661717453259,-53.949783779378244,-0.1813,-0.8690000000000001,0.0793,-0.4536
87,3479228.0,1731.8575739999999,1.0,8.44,2.18,-5.46,-32.88,-24.5,16.69,-10.69,9.63,-1.56,0.05490362285264792,-0.32873159290288745,-0.4737449891054872,-120.68528037991206,9.096661717453259,-53.949783779378244,-0.1813,-0.8690000000000001,0.0793,-0.4536
88,3479261.0,1731.865836,1.0,8.34,2.56,-5.56,-33.25,-23.37,16.25,-11.0,-10.69,-5.56,-0.17152831661878454,-0.09451346402079096,-0.5366785378410324,-120.5695899160874,9.119652615329127,-53.808389685397145,-0.1858,-0.8685,0.0795,-0.4525
89,3479261.0,1731.865836,1.0,8.34,2.56,-5.56,-33.25,-23.37,16.25,-11.0,-10.69,-5.56,-0.17152831661878454,-0.09451346402079096,-0.5366785378410324,-120.5695899160874,9.119652615329127,-53.808389685397145,-0.1858,-0.8685,0.0795,-0.4525
90,3479296.0,1731.926476,1.0,7.58,2.8,-4.97,-32.88,-23.37,15.0,-0.63,0.25,-2.38,-0.2092340713625378,0.3653888728646171,0.3293079635971896,-120.68528037991206,9.119652615329127,-53.628561471418074,-0.187,-0.8690000000000001,0.0795,-0.4511
91,3479296.0,1731.926476,1.0,7.58,2.8,-4.97,-32.88,-23.37,15.0,-0.63,0.25,-2.38,-0.2092340713625378,0.3653888728646171,0.3293079635971896,-120.68528037991206,9.119652615329127,-53.628561471418074,-0.187,-0.8690000000000001,0.0795,-0.4511
92,3479332.0,1731.9465059999998,1.0,7.76,2.31,-5.13,-32.5,-24.06,15.75,2.38,-2.19,1.5,-0.07922430942601391,-0.14074196464031807,0.22309558589115494,-120.70844309282913,9.06217605835773,-53.667084063629616,-0.18600000000000003,-0.8691,0.079,-0.4514
93,3479332.0,1731.9465059999998,1.0,7.76,2.31,-5.13,-32.5,-24.06,15.75,2.38,-2.19,1.5,-0.07922430942601391,-0.14074196464031807,0.22309558589115494,-120.70844309282913,9.06217605835773,-53.667084063629616,-0.18600000000000003,-0.8691,0.079,-0.4514
94,3479367.0,1731.993171,1.0,8.06,2.35,-5.31,-32.5,-24.06,15.75,0.5,4.25,-2.25,-0.06651645704929053,-0.1934307372210311,-0.12513534357442602,-120.63897960324066,9.016196458354324,-53.75699560652143,-0.1862,-0.8688,0.0786,-0.4521
95,3479367.0,1731.993171,1.0,8.06,2.35,-5.31,-32.5,-24.06,15.75,0.5,4.25,-2.25,-0.06651645704929053,-0.1934307372210311,-0.12513534357442602,-120.63897960324066,9.016196458354324,-53.75699560652143,-0.1862,-0.8688,0.0786,-0.4521
96,3479404.0,1732.000165,1.0,7.98,2.44,-5.35,-33.25,-24.87,16.69,-5.13,-0.12,-6.0,-0.1674240529478486,-0.14152144437114078,-0.1033671981322879,-120.63897960324066,8.878266355561609,-53.76984303048103,-0.1866,-0.8688,0.0774,-0.4522
97,3479404.0,1732.000165,1.0,7.98,2.44,-5.35,-33.25,-24.87,16.69,-5.13,-0.12,-6.0,-0.1674240529478486,-0.14152144437114078,-0.1033671981322879,-120.63897960324066,8.878266355561609,-53.76984303048103,-0.1866,-0.8688,0.0774,-0.4522
98,3479439.0,1732.065175,1.0,7.99,2.63,-5.25,-33.25,-23.69,16.25,-2.31,0.75,2.5,-0.1393139935082676,0.05548300531351025,-0.10783502179181248,-120.61584152012749,8.866772764864926,-53.74414891259134,-0.1875,-0.8687,0.0773,-0.452
99,3479439.0,1732.065175,1.0,7.99,2.63,-5.25,-33.25,-23.69,16.25,-2.31,0.75,2.5,-0.1393139935082676,0.05548300531351025,-0.10783502179181248,-120.61584152012749,8.866772764864926,-53.74414891259134,-0.1875,-0.8687,0.0773,-0.452
100,3479472.0,1732.0864010000003,1.0,8.19,2.41,-5.35,-33.25,-23.69,16.25,-1.56,-0.69,0.63,-0.04016494914192231,-0.1880761245295461,-0.2665676660808014,-120.5695899160874,8.878266355561609,-53.78269118475608,-0.1872,-0.8685,0.0774,-0.4523
101,3479472.0,1732.0864010000003,1.0,8.19,2.41,-5.35,-33.25,-23.69,16.25,-1.56,-0.69,0.63,-0.04016494914192231,-0.1880761245295461,-0.2665676660808014,-120.5695899160874,8.878266355561609,-53.78269118475608,-0.1872,-0.8685,0.0774,-0.4523
102,3479506.0,1732.1397,1.0,7.88,2.28,-5.39,-32.88,-24.06,16.25,-2.0,-5.69,-6.5,-0.1835653960954054,-0.32317950418293706,-0.0018544096147685707,-120.70844309282913,8.820799294692952,-53.64140160793269,-0.1878,-0.8691,0.0769,-0.4512
103,3479506.0,1732.1397,1.0,7.88,2.28,-5.39,-32.88,-24.06,16.25,-2.0,-5.69,-6.5,-0.1835653960954054,-0.32317950418293706,-0.0018544096147685707,-120.70844309282913,8.820799294692952,-53.64140160793269,-0.1878,-0.8691,0.0769,-0.4512
104,3479543.0,1732.162548,1.0,7.8,2.58,-5.27,-33.56,-24.06,15.0,-4.0,-3.69,-1.75,-0.1813049052813913,-0.0367802060786373,0.04780397458481467,-120.82438029207813,8.889760035755181,-53.320615694584525,-0.1907,-0.8696,0.0775,-0.4487
105,3479543.0,1732.162548,1.0,7.8,2.58,-5.27,-33.56,-24.06,15.0,-4.0,-3.69,-1.75,-0.1813049052813913,-0.0367802060786373,0.04780397458481467,-120.82438029207813,8.889760035755181,-53.320615694584525,-0.1907,-0.8696,0.0775,-0.4487
106,3479578.0,1732.213984,1.0,7.51,2.35,-5.12,-33.56,-24.06,15.0,-4.38,-2.69,-4.63,-0.14664563469381625,-0.18580701501968888,0.4215037139267359,-120.94052444578816,8.832292528579133,-53.20524321404206,-0.1912,-0.8701,0.077,-0.4478
107,3479578.0,1732.213984,1.0,7.51,2.35,-5.12,-33.56,-24.06,15.0,-4.38,-2.69,-4.63,-0.14664563469381625,-0.18580701501968888,0.4215037139267359,-120.94052444578816,8.832292528579133,-53.20524321404206,-0.1912,-0.8701,0.077,-0.4478
108,3479611.0,1732.2247899999998,1.0,8.28,2.93,-5.38,-32.88,-24.06,17.06,4.31,9.13,8.19,-0.12533116771049022,0.2125399390470546,-0.490282498210826,-120.63897960324066,8.820799294692952,-53.538700860812206,-0.1906,-0.8688,0.0769,-0.4504
109,3479611.0,1732.2247899999998,1.0,8.28,2.93,-5.38,-32.88,-24.06,17.06,4.31,9.13,8.19,-0.12533116771049022,0.2125399390470546,-0.490282498210826,-120.63897960324066,8.820799294692952,-53.538700860812206,-0.1906,-0.8688,0.0769,-0.4504
110,3479646.0,1732.250344,1.0,7.82,2.32,-5.16,-32.88,-24.5,14.19,-1.06,-3.69,-4.81,-0.03401330337385447,-0.233559938149126,0.15757269434608645,-120.68528037991206,8.935735653853007,-53.47453647164073,-0.1908,-0.8690000000000001,0.0779,-0.4499
111,3479646.0,1732.250344,1.0,7.82,2.32,-5.16,-32.88,-24.5,14.19,-1.06,-3.69,-4.81,-0.03401330337385447,-0.233559938149126,0.15757269434608645,-120.68528037991206,8.935735653853007,-53.47453647164073,-0.1908,-0.8690000000000001,0.0779,-0.4499
112,3479683.0,1732.314649,1.0,8.1,2.52,-5.4,-32.06,-25.19,17.06,-1.31,-2.0,0.5,-0.10683092919606127,-0.1848303283292501,-0.2469476099253569,-120.68528037991206,8.648411389524659,-53.500200054022216,-0.1911,-0.8690000000000001,0.0754,-0.4501
113,3479683.0,1732.314649,1.0,8.1,2.52,-5.4,-32.06,-25.19,17.06,-1.31,-2.0,0.5,-0.10683092919606127,-0.1848303283292501,-0.2469476099253569,-120.68528037991206,8.648411389524659,-53.500200054022216,-0.1911,-0.8690000000000001,0.0754,-0.4501
114,3479717.0,1732.3380710000001,1.0,8.19,2.65,-5.39,-32.06,-25.19,17.06,-2.0,0.12,2.06,-0.08220003940300052,-0.056380028916534826,-0.3491741637920001,-120.70844309282913,8.774827247055486,-53.448875784329395,-0.1912,-0.8691,0.0765,-0.4497
115,3479717.0,1732.3380710000001,1.0,8.19,2.65,-5.39,-32.06,-25.19,17.06,-2.0,0.12,2.06,-0.08220003940300052,-0.056380028916534826,-0.3491741637920001,-120.70844309282913,8.774827247055486,-53.448875784329395,-0.1912,-0.8691,0.0765,-0.4497
116,3479752.0,1732.393206,1.0,7.65,2.73,-5.25,-32.88,-24.06,15.75,-2.13,-2.88,-2.44,-0.291758352392357,0.07921891942471504,0.1398769382893601,-120.80117633509359,8.786320126014099,-53.29497233017572,-0.1923,-0.8695,0.0766,-0.4485
117,3479752.0,1732.393206,1.0,7.65,2.73,-5.25,-32.88,-24.06,15.75,-2.13,-2.88,-2.44,-0.291758352392357,0.07921891942471504,0.1398769382893601,-120.80117633509359,8.786320126014099,-53.29497233017572,-0.1923,-0.8695,0.0766,-0.4485
118,3479789.0,1732.403307,1.0,7.7,2.6,-5.2,-32.88,-24.5,16.69,0.12,0.75,-1.5,-0.18366577860060976,-0.023719077764110308,0.16011153860769234,-120.82438029207813,8.636919564056372,-53.320615694584525,-0.1918,-0.8696,0.0753,-0.4487
119,3479789.0,1732.403307,1.0,7.7,2.6,-5.2,-32.88,-24.5,16.69,0.12,0.75,-1.5,-0.18366577860060976,-0.023719077764110308,0.16011153860769234,-120.82438029207813,8.636919564056372,-53.320615694584525,-0.1918,-0.8696,0.0753,-0.4487
120,3479822.0,1732.475602,1.0,8.16,2.61,-5.41,-32.88,-24.5,16.69,-1.19,-1.12,1.63,-0.08119545090843633,-0.11131270815926507,-0.3248265350245969,-120.80117633509359,8.68288738926451,-53.34626194049607,-0.1916,-0.8695,0.0757,-0.4489
121,3479822.0,1732.475602,1.0,8.16,2.61,-5.41,-32.88,-24.5,16.69,-1.19,-1.12,1.63,-0.08119545090843633,-0.11131270815926507,-0.3248265350245969,-120.80117633509359,8.68288738926451,-53.34626194049607,-0.1916,-0.8695,0.0757,-0.4489
122,3479857.0,1732.48636,1.0,7.93,2.59,-5.37,-32.88,-24.5,15.38,-1.12,-1.12,-0.81,-0.1684555157805333,-0.10503692155480904,-0.11254805147136616,-120.87081305028902,8.69437956401469,-53.28215172783013,-0.1918,-0.8698,0.0758,-0.4484
123,3479857.0,1732.48636,1.0,7.93,2.59,-5.37,-32.88,-24.5,15.38,-1.12,-1.12,-0.81,-0.1684555157805333,-0.10503692155480904,-0.11254805147136616,-120.87081305028902,8.69437956401469,-53.28215172783013,-0.1918,-0.8698,0.0758,-0.4484
124,3479894.0,1732.5119719999998,1.0,7.81,2.43,-5.24,-32.88,-24.06,15.75,0.37,-1.94,-0.75,-0.08849972978823922,-0.189508761089954,0.09506649228625896,-120.89404187117351,8.68288738926451,-53.25651268144825,-0.1915,-0.8699,0.0757,-0.4482
125,3479894.0,1732.5119719999998,1.0,7.81,2.43,-5.24,-32.88,-24.06,15.75,0.37,-1.94,-0.75,-0.08849972978823922,-0.189508761089954,0.09506649228625896,-120.89404187117351,8.68288738926451,-53.25651268144825,-0.1915,-0.8699,0.0757,-0.4482
126,3479928.0,1732.5432260000002,1.0,7.94,2.69,-5.27,-32.88,-24.06,15.75,-2.94,3.44,0.44,-0.1102035524412546,0.024581111263480167,-0.09485750875837162,-120.89404187117351,8.705871826379285,-53.23087651093563,-0.192,-0.8699,0.0759,-0.44799999999999995
127,3479928.0,1732.5432260000002,1.0,7.94,2.69,-5.27,-32.88,-24.06,15.75,-2.94,3.44,0.44,-0.1102035524412546,0.024581111263480167,-0.09485750875837162,-120.89404187117351,8.705871826379285,-53.23087651093563,-0.192,-0.8699,0.0759,-0.44799999999999995
128,3479961.0,1732.5779920000002,1.0,7.92,2.55,-5.43,-32.5,-24.06,15.75,-1.19,0.44,1.5,-0.21094370862963627,-0.16271680000492772,-0.12525948381960106,-120.82438029207813,8.76333445653462,-53.28215172783013,-0.1919,-0.8696,0.0764,-0.4484
129,3479961.0,1732.5779920000002,1.0,7.92,2.55,-5.43,-32.5,-24.06,15.75,-1.19,0.44,1.5,-0.21094370862963627,-0.16271680000492772,-0.12525948381960106,-120.82438029207813,8.76333445653462,-53.28215172783013,-0.1919,-0.8696,0.0764,-0.4484
130,3479996.0,1732.6008100000001,1.0,7.91,2.66,-5.33,-32.88,-24.87,15.0,-0.44,1.37,-1.25,-0.17846831917403938,-0.03284188891371054,-0.09383839549765582,-120.777980646449,8.786320126014099,-53.29497233017572,-0.1926,-0.8694,0.0766,-0.4485
131,3479996.0,1732.6008100000001,1.0,7.91,2.66,-5.33,-32.88,-24.87,15.0,-0.44,1.37,-1.25,-0.17846831917403938,-0.03284188891371054,-0.09383839549765582,-120.777980646449,8.786320126014099,-53.29497233017572,-0.1926,-0.8694,0.0766,-0.4485
132,3480033.0,1732.6561370000002,1.0,7.87,2.6,-5.2,-32.5,-24.87,15.75,-4.19,1.81,-0.25,-0.0924496340631191,-0.0463258126225321,0.022672946457483082,-120.70844309282913,8.774827247055486,-53.33343845721146,-0.1932,-0.8691,0.0765,-0.4488
133,3480033.0,1732.6561370000002,1.0,7.87,2.6,-5.2,-32.5,-24.87,15.75,-4.19,1.81,-0.25,-0.0924496340631191,-0.0463258126225321,0.022672946457483082,-120.70844309282913,8.774827247055486,-53.33343845721146,-0.1932,-0.8691,0.0765,-0.4488
134,3480066.0,1732.7283,1.0,8.2,2.7,-5.46,-32.5,-24.87,15.75,2.94,3.31,1.0,-0.1461171454193137,-0.07747315242537202,-0.40678466667642255,-120.61584152012749,8.76333445653462,-53.461705766242936,-0.1932,-0.8687,0.0764,-0.4498
135,3480066.0,1732.7283,1.0,8.2,2.7,-5.46,-32.5,-24.87,15.75,2.94,3.31,1.0,-0.1461171454193137,-0.07747315242537202,-0.40678466667642255,-120.61584152012749,8.76333445653462,-53.461705766242936,-0.1932,-0.8687,0.0764,-0.4498
