,TIME,ELAPSED_SECONDS,PSTATE,acc_x,acc_y,acc_z,mag_x,mag_y,mag_z,gyr_x,gyr_y,gyr_z,lin_x,lin_y,lin_z,eul_x,eul_y,eul_z,qua_w,qua_x,qua_y,qua_z
0,3719909.0,1972.984188,1.0,7.49,5.92,-3.33,-20.25,-36.5,10.56,-1.06,9.44,1.06,-0.5727448266118198,-0.059627292121381625,-0.28809159895257963,-98.50614716044564,-29.215470253177052,-68.81847155097867,-0.2075,-0.7576,-0.2522,-0.5651
1,3719909.0,1972.984188,1.0,7.49,5.92,-3.33,-20.25,-36.5,10.56,-1.06,9.44,1.06,-0.5727448266118198,-0.059627292121381625,-0.28809159895257963,-98.50614716044564,-29.215470253177052,-68.81847155097867,-0.2075,-0.7576,-0.2522,-0.5651
2,3719944.0,1972.989707,1.0,7.37,5.95,-3.08,-20.56,-37.56,9.69,-0.69,3.25,3.38,-0.3806539835291398,0.0627094178526475,-0.14608681324569162,-98.4710413426878,-29.014203146635065,-68.94352388945018,-0.2078,-0.7574,-0.2505,-0.5660000000000001
3,3719944.0,1972.989707,1.0,7.37,5.95,-3.08,-20.56,-37.56,9.69,-0.69,3.25,3.38,-0.3806539835291398,0.0627094178526475,-0.14608681324569162,-98.4710413426878,-29.014203146635065,-68.94352388945018,-0.2078,-0.7574,-0.2505,-0.5660000000000001
4,3719979.0,1972.995322,1.0,7.36,5.96,-3.0,-20.56,-37.56,9.69,2.0,2.88,-0.69,-0.3004762041710647,0.07999734247047785,-0.12282704946865053,-98.4710413426878,-29.073389830335397,-68.94352388945018,-0.2074,-0.7574,-0.251,-0.5660000000000001
5,3719979.0,1972.995322,1.0,7.36,5.96,-3.0,-20.56,-37.56,9.69,2.0,2.88,-0.69,-0.3004762041710647,0.07999734247047785,-0.12282704946865053,-98.4710413426878,-29.073389830335397,-68.94352388945018,-0.2074,-0.7574,-0.251,-0.5660000000000001
6,3720015.0,1973.0347129999998,1.0,7.24,5.81,-2.95,-20.25,-37.56,10.06,-0.25,-0.06,0.12,-0.2917098919896381,0.035656930897377766,0.07064291689892066,-98.52370475107857,-29.09706672256259,-68.8879335180276,-0.2073,-0.7577,-0.2512,-0.5656
7,3720015.0,1973.0347129999998,1.0,7.24,5.81,-2.95,-20.25,-37.56,10.06,-0.25,-0.06,0.12,-0.2917098919896381,0.035656930897377766,0.07064291689892066,-98.52370475107857,-29.09706672256259,-68.8879335180276,-0.2073,-0.7577,-0.2512,-0.5656
8,3720050.0,1973.1039010000002,1.0,7.31,5.79,-3.07,-21.0,-37.56,10.19,-0.19,-0.5,0.56,-0.386004431325924,-0.026009687427839268,-0.0033155491319991626,-98.57639627494255,-29.06155185997118,-68.83236163614916,-0.2074,-0.758,-0.2509,-0.5652
9,3720050.0,1973.1039010000002,1.0,7.31,5.79,-3.07,-21.0,-37.56,10.19,-0.19,-0.5,0.56,-0.386004431325924,-0.026009687427839268,-0.0033155491319991626,-98.57639627494255,-29.06155185997118,-68.83236163614916,-0.2074,-0.758,-0.2509,-0.5652
10,3720085.0,1973.107109,1.0,7.1,5.7,-3.09,-21.0,-37.56,10.19,-2.75,2.38,2.69,-0.4584432188633002,0.03903303889804111,0.20267133296035134,-98.66427811303318,-28.990530688715445,-68.77680821232158,-0.2073,-0.7585,-0.2503,-0.5648
11,3720085.0,1973.107109,1.0,7.1,5.7,-3.09,-21.0,-37.56,10.19,-2.75,2.38,2.69,-0.4584432188633002,0.03903303889804111,0.20267133296035134,-98.66427811303318,-28.990530688715445,-68.77680821232158,-0.2073,-0.7585,-0.2503,-0.5648
12,3720120.0,1973.1822920000002,1.0,7.08,5.62,-3.3,-21.0,-37.25,9.69,-7.5,4.19,3.56,-0.6862939194138257,-0.008974541287210869,0.20822720696862085,-98.75223846738031,-28.694731241152283,-68.77680821232158,-0.2084,-0.759,-0.2478,-0.5648
13,3720120.0,1973.1822920000002,1.0,7.08,5.62,-3.3,-21.0,-37.25,9.69,-7.5,4.19,3.56,-0.6862939194138257,-0.008974541287210869,0.20822720696862085,-98.75223846738031,-28.694731241152283,-68.77680821232158,-0.2084,-0.759,-0.2478,-0.5648
14,3720157.0,1973.200889,1.0,6.86,6.16,-3.61,-21.0,-36.5,9.69,-9.25,1.63,3.38,-1.0054429877376243,0.5418757026850844,-0.028631140935869936,-98.6818638942124,-28.36366745712689,-68.92962456147485,-0.2103,-0.7586,-0.245,-0.5659
15,3720157.0,1973.200889,1.0,6.86,6.16,-3.61,-21.0,-36.5,9.69,-9.25,1.63,3.38,-1.0054429877376243,0.5418757026850844,-0.028631140935869936,-98.6818638942124,-28.36366745712689,-68.92962456147485,-0.2103,-0.7586,-0.245,-0.5659
16,3720192.0,1973.2482510000002,1.0,7.16,6.56,-4.6,-21.0,-36.5,9.69,-2.88,5.44,8.75,-1.8769853307470024,0.6544445758527155,-0.7530767183056177,-98.57639627494255,-28.12734139012517,-69.15215299440362,-0.2106,-0.758,-0.243,-0.5675
17,3720192.0,1973.2482510000002,1.0,7.16,6.56,-4.6,-21.0,-36.5,9.69,-2.88,5.44,8.75,-1.8769853307470024,0.6544445758527155,-0.7530767183056177,-98.57639627494255,-28.12734139012517,-69.15215299440362,-0.2106,-0.758,-0.243,-0.5675
18,3720224.0,1973.3105050000001,1.0,7.22,7.46,-5.03,-20.25,-36.5,9.0,-0.69,9.44,21.87,-2.2258726726407474,1.4532456883171174,-1.4189665895054018,-98.64669547249987,-27.43088596976693,-69.59810663742078,-0.2074,-0.7584,-0.2371,-0.5707
19,3720224.0,1973.3105050000001,1.0,7.22,7.46,-5.03,-20.25,-36.5,9.0,-0.69,9.44,21.87,-2.2258726726407474,1.4532456883171174,-1.4189665895054018,-98.64669547249987,-27.43088596976693,-69.59810663742078,-0.2074,-0.7584,-0.2371,-0.5707
20,3720259.0,1973.327837,1.0,7.06,9.03,-4.83,-21.75,-36.5,8.88,24.0,10.56,12.25,-1.8323820330296976,2.9851825431787566,-2.1283598981496787,-98.78744465249004,-27.395500797517954,-69.83551038215226,-0.1999,-0.7592,-0.2368,-0.5724
21,3720259.0,1973.327837,1.0,7.06,9.03,-4.83,-21.75,-36.5,8.88,24.0,10.56,12.25,-1.8323820330296976,2.9851825431787566,-2.1283598981496787,-98.78744465249004,-27.395500797517954,-69.83551038215226,-0.1999,-0.7592,-0.2368,-0.5724
22,3720296.0,1973.331598,1.0,7.94,10.16,-5.03,-22.06,-36.06,10.5,60.75,12.75,-18.69,-1.4487445256062743,3.441978131513803,-3.5209163885687165,-98.80505247705544,-28.576466242296,-69.66789572403633,-0.1906,-0.7593,-0.2468,-0.5712
23,3720296.0,1973.331598,1.0,7.94,10.16,-5.03,-22.06,-36.06,10.5,60.75,12.75,-18.69,-1.4487445256062743,3.441978131513803,-3.5209163885687165,-98.80505247705544,-28.576466242296,-69.66789572403633,-0.1906,-0.7593,-0.2468,-0.5712
24,3720331.0,1973.378806,1.0,8.03,9.64,-5.54,-22.06,-36.06,10.5,69.12,-9.5,-52.88,-1.4676224264097937,2.77456232328792,-3.544379485687241,-99.01659326269069,-31.530903656573717,-68.23612322826888,-0.182,-0.7605,-0.2717,-0.5609
25,3720331.0,1973.378806,1.0,8.03,9.64,-5.54,-22.06,-36.06,10.5,69.12,-9.5,-52.88,-1.4676224264097937,2.77456232328792,-3.544379485687241,-99.01659326269069,-31.530903656573717,-68.23612322826888,-0.182,-0.7605,-0.2717,-0.5609
26,3720368.0,1973.398381,1.0,5.7,7.87,-3.36,-21.0,-36.88,11.25,74.31,-46.06,-99.87,0.17928132459533075,2.3595544948552933,-0.19919133356408736,-99.54745870347031,-34.591013631336175,-65.76254695121683,-0.184,-0.7635,-0.2973,-0.5429
27,3720368.0,1973.398381,1.0,5.7,7.87,-3.36,-21.0,-36.88,11.25,74.31,-46.06,-99.87,0.17928132459533075,2.3595544948552933,-0.19919133356408736,-99.54745870347031,-34.591013631336175,-65.76254695121683,-0.184,-0.7635,-0.2973,-0.5429
28,3720404.0,1973.448059,1.0,2.44,4.42,-0.81,-19.5,-36.88,13.38,100.75,10.81,-89.19,1.2312409634237331,1.5071512492788597,5.0781575550674125,-98.87551537138796,-39.47361489538528,-63.63292917864976,-0.1757,-0.7597,-0.3377,-0.5272
29,3720404.0,1973.448059,1.0,2.44,4.42,-0.81,-19.5,-36.88,13.38,100.75,10.81,-89.19,1.2312409634237331,1.5071512492788597,5.0781575550674125,-98.87551537138796,-39.47361489538528,-63.63292917864976,-0.1757,-0.7597,-0.3377,-0.5272
30,3720439.0,1973.480402,1.0,4.04,-2.11,-1.02,-19.5,-36.88,13.38,177.94,117.25,79.12,-1.0325731339301654,-4.078193381481029,7.777800210998857,-98.17314373529331,-41.881213444145885,-64.26784056455223,-0.1353,-0.7557,-0.3574,-0.5319
31,3720439.0,1973.480402,1.0,4.04,-2.11,-1.02,-19.5,-36.88,13.38,177.94,117.25,79.12,-1.0325731339301654,-4.078193381481029,7.777800210998857,-98.17314373529331,-41.881213444145885,-64.26784056455223,-0.1353,-0.7557,-0.3574,-0.5319
32,3720474.0,1973.520492,1.0,9.29,-2.06,-1.01,-16.06,-36.06,17.56,-19.31,112.75,158.19,-0.3694554433836368,-6.795302710327929,3.079454168870652,-98.01579456165285,-39.15723801119543,-67.94570061664109,-0.0756,-0.7548,-0.3351,-0.5588
33,3720474.0,1973.520492,1.0,9.29,-2.06,-1.01,-16.06,-36.06,17.56,-19.31,112.75,158.19,-0.3694554433836368,-6.795302710327929,3.079454168870652,-98.01579456165285,-39.15723801119543,-67.94570061664109,-0.0756,-0.7548,-0.3351,-0.5588
34,3720509.0,1973.5765760000002,1.0,9.94,1.6,-1.83,-20.25,-33.88,19.69,-63.5,125.0,138.13,0.1556757903656254,-3.3532275446183,0.13999959345755994,-96.67958303327644,-34.97527349807247,-72.31401640199769,-0.057999999999999996,-0.7471,-0.3005,-0.59
35,3720509.0,1973.5765760000002,1.0,9.94,1.6,-1.83,-20.25,-33.88,19.69,-63.5,125.0,138.13,0.1556757903656254,-3.3532275446183,0.13999959345755994,-96.67958303327644,-34.97527349807247,-72.31401640199769,-0.057999999999999996,-0.7471,-0.3005,-0.59
36,3720546.0,1973.641524,1.0,10.27,-0.62,-1.39,-25.5,-30.87,15.88,-2.31,73.25,171.25,-0.5486849475707679,-4.322721851288234,0.3831463721180377,-95.34364080956615,-30.24694330618832,-76.69070095907627,-0.0186,-0.7393,-0.2609,-0.6204
37,3720546.0,1973.641524,1.0,10.27,-0.62,-1.39,-25.5,-30.87,15.88,-2.31,73.25,171.25,-0.5486849475707679,-4.322721851288234,0.3831463721180377,-95.34364080956615,-30.24694330618832,-76.69070095907627,-0.0186,-0.7393,-0.2609,-0.6204
38,3720581.0,1973.6493050000001,1.0,8.97,2.86,1.21,-25.5,-30.87,15.88,-164.88,-0.56,126.56,2.969758472168225,-0.5473746100601184,0.8074547219072628,-96.59342299000929,-22.99205586322248,-78.73617218118244,-0.0211,-0.7466,-0.1993,-0.6343
39,3720581.0,1973.6493050000001,1.0,8.97,2.86,1.21,-25.5,-30.87,15.88,-164.88,-0.56,126.56,2.969758472168225,-0.5473746100601184,0.8074547219072628,-96.59342299000929,-22.99205586322248,-78.73617218118244,-0.0211,-0.7466,-0.1993,-0.6343
40,3720617.0,1973.6690670000003,1.0,9.12,6.96,1.51,-30.37,-27.87,14.69,-88.31,38.81,42.06,3.866257560399015,3.630872276378004,-0.4775572611012198,-96.09511993474894,-19.180388694494322,-80.54144798375755,-0.0356,-0.7437,-0.1666,-0.6464
41,3720617.0,1973.6690670000003,1.0,9.12,6.96,1.51,-30.37,-27.87,14.69,-88.31,38.81,42.06,3.866257560399015,3.630872276378004,-0.4775572611012198,-96.09511993474894,-19.180388694494322,-80.54144798375755,-0.0356,-0.7437,-0.1666,-0.6464
42,3720654.0,1973.720884,1.0,12.19,3.55,-3.07,-32.56,-27.87,9.25,87.87,40.5,38.94,-1.061200489954014,0.7402743299632195,-3.1914016784831567,-95.1226475867278,-19.30823806837105,-81.5968810686458,-0.0129,-0.738,-0.1677,-0.6534
43,3720654.0,1973.720884,1.0,12.19,3.55,-3.07,-32.56,-27.87,9.25,87.87,40.5,38.94,-1.061200489954014,0.7402743299632195,-3.1914016784831567,-95.1226475867278,-19.30823806837105,-81.5968810686458,-0.0129,-0.738,-0.1677,-0.6534
44,3720689.0,1973.72992,1.0,10.64,1.43,-2.52,-32.56,-27.87,9.25,-14.75,-61.94,14.5,-0.9104087335802672,-0.8429532854567217,-1.1507897418538686,-96.26667534097011,-19.505871262305693,-80.42135265062157,-0.0033,-0.7447,-0.1694,-0.6456
45,3720689.0,1973.72992,1.0,10.64,1.43,-2.52,-32.56,-27.87,9.25,-14.75,-61.94,14.5,-0.9104087335802672,-0.8429532854567217,-1.1507897418538686,-96.26667534097011,-19.505871262305693,-80.42135265062157,-0.0033,-0.7447,-0.1694,-0.6456
46,3720724.0,1973.818986,1.0,8.35,3.5,-1.01,-34.5,-26.0,10.06,-75.37,-88.37,-5.88,1.118872694729505,1.2698660400109532,0.8552163643517066,-99.22859240723112,-18.088822794467358,-77.83489260364539,-0.0211,-0.7617,-0.1572,-0.6282
47,3720724.0,1973.818986,1.0,8.35,3.5,-1.01,-34.5,-26.0,10.06,-75.37,-88.37,-5.88,1.118872694729505,1.2698660400109532,0.8552163643517066,-99.22859240723112,-18.088822794467358,-77.83489260364539,-0.0211,-0.7617,-0.1572,-0.6282
48,3720759.0,1973.838354,1.0,9.03,3.45,-1.73,-34.06,-25.56,12.56,25.62,-26.5,4.19,0.7268005869051708,1.1571938886415194,0.0819925144653535,-100.20622564478924,-18.506668239532367,-76.74915654963284,-0.0166,-0.7672,-0.1608,-0.6208
49,3720759.0,1973.838354,1.0,9.03,3.45,-1.73,-34.06,-25.56,12.56,25.62,-26.5,4.19,0.7268005869051708,1.1571938886415194,0.0819925144653535,-100.20622564478924,-18.506668239532367,-76.74915654963284,-0.0166,-0.7672,-0.1608,-0.6208
50,3720796.0,1973.9332780000002,1.0,8.07,-4.04,-2.28,-32.88,-25.19,13.0,17.5,42.06,-10.75,-1.8646124536918205,-5.473927611438321,2.5125265501075766,-99.79619278642058,-20.14567756040377,-76.6176646234629,-0.0012,-0.7649,-0.1749,-0.6199
51,3720796.0,1973.9332780000002,1.0,8.07,-4.04,-2.28,-32.88,-25.19,13.0,17.5,42.06,-10.75,-1.8646124536918205,-5.473927611438321,2.5125265501075766,-99.79619278642058,-20.14567756040377,-76.6176646234629,-0.0012,-0.7649,-0.1749,-0.6199
52,3720830.0,1973.9685780000002,1.0,10.53,2.6,-4.42,-32.88,-25.19,13.0,80.31,55.88,42.38,-1.872744416775976,1.1956693501567437,-1.692937086262278,-98.27818181792992,-19.889680039418103,-78.15927995925256,0.0272,-0.7563,-0.1727,-0.6304
53,3720830.0,1973.9685780000002,1.0,10.53,2.6,-4.42,-32.88,-25.19,13.0,80.31,55.88,42.38,-1.872744416775976,1.1956693501567437,-1.692937086262278,-98.27818181792992,-19.889680039418103,-78.15927995925256,0.0272,-0.7563,-0.1727,-0.6304
54,3720867.0,1973.985693,1.0,3.29,2.98,-4.07,-32.88,-24.37,14.25,66.69,41.06,27.56,-2.4031098719990642,3.3042436473242685,5.382123261215629,-97.1980818820334,-20.599742008899195,-78.839968934118,0.0473,-0.7501,-0.1788,-0.635
55,3720867.0,1973.985693,1.0,3.29,2.98,-4.07,-32.88,-24.37,14.25,66.69,41.06,27.56,-2.4031098719990642,3.3042436473242685,5.382123261215629,-97.1980818820334,-20.599742008899195,-78.839968934118,0.0473,-0.7501,-0.1788,-0.635
56,3720904.0,1974.040059,1.0,7.52,1.33,-1.29,-35.19,-21.75,13.38,83.06,15.19,-42.13,0.2542233083177035,-0.05669026004443721,2.0661360168123144,-96.66234520218386,-23.55363796786013,-78.07073688001653,0.061,-0.747,-0.2041,-0.6298
57,3720904.0,1974.040059,1.0,7.52,1.33,-1.29,-35.19,-21.75,13.38,83.06,15.19,-42.13,0.2542233083177035,-0.05669026004443721,2.0661360168123144,-96.66234520218386,-23.55363796786013,-78.07073688001653,0.061,-0.747,-0.2041,-0.6298
58,3720939.0,1974.0509969999998,1.0,10.39,2.02,-1.73,-35.19,-21.75,13.38,108.87,-26.94,-25.31,0.6822690019993513,-0.12386739178841345,-0.8958995036539008,-96.86939197442554,-26.288094094940124,-76.47170213704182,0.0735,-0.7482,-0.2274,-0.6189
59,3720939.0,1974.0509969999998,1.0,10.39,2.02,-1.73,-35.19,-21.75,13.38,108.87,-26.94,-25.31,0.6822690019993513,-0.12386739178841345,-0.8958995036539008,-96.86939197442554,-26.288094094940124,-76.47170213704182,0.0735,-0.7482,-0.2274,-0.6189
60,3720974.0,1974.09842,1.0,10.01,3.07,-2.61,-34.38,-21.75,15.06,51.06,-60.88,5.0,0.7632886332972515,1.1049633969291377,-0.9000556723217148,-98.12066633896302,-28.387306821530828,-73.94046239689769,0.0869,-0.7554,-0.2452,-0.6014
61,3720974.0,1974.09842,1.0,10.01,3.07,-2.61,-34.38,-21.75,15.06,51.06,-60.88,5.0,0.7632886332972515,1.1049633969291377,-0.9000556723217148,-98.12066633896302,-28.387306821530828,-73.94046239689769,0.0869,-0.7554,-0.2452,-0.6014
62,3721009.0,1974.120559,1.0,8.43,1.83,-2.92,-33.69,-22.19,15.88,-12.31,-83.75,-37.5,-0.057200649790359076,0.27115453896847364,0.7037162255698934,-100.06340703701152,-29.357596603435567,-71.64837292642449,0.0771,-0.7664,-0.2534,-0.5853
63,3721009.0,1974.120559,1.0,8.43,1.83,-2.92,-33.69,-22.19,15.88,-12.31,-83.75,-37.5,-0.057200649790359076,0.27115453896847364,0.7037162255698934,-100.06340703701152,-29.357596603435567,-71.64837292642449,0.0771,-0.7664,-0.2534,-0.5853
64,3721046.0,1974.1259469999998,1.0,7.82,1.21,-2.8,-32.19,-22.19,18.75,-36.94,-84.19,-55.69,-0.0963231622187226,-0.682841911564334,1.4411883407589876,-102.50284081699965,-30.57944178497209,-68.86014526786532,0.0502,-0.7799,-0.2637,-0.5654
65,3721046.0,1974.1259469999998,1.0,7.82,1.21,-2.8,-32.19,-22.19,18.75,-36.94,-84.19,-55.69,-0.0963231622187226,-0.682841911564334,1.4411883407589876,-102.50284081699965,-30.57944178497209,-68.86014526786532,0.0502,-0.7799,-0.2637,-0.5654
66,3721080.0,1974.17445,1.0,8.11,1.69,-3.51,-32.19,-22.19,18.75,-57.38,-66.25,-26.75,-0.2740566729897232,-0.4630506386432206,0.8256268374621191,-103.92358004914206,-30.888426648702456,-67.39388076848982,0.0313,-0.7876,-0.2663,-0.5548
67,3721080.0,1974.17445,1.0,8.11,1.69,-3.51,-32.19,-22.19,18.75,-57.38,-66.25,-26.75,-0.2740566729897232,-0.4630506386432206,0.8256268374621191,-103.92358004914206,-30.888426648702456,-67.39388076848982,0.0313,-0.7876,-0.2663,-0.5548
68,3721117.0,1974.1939719999998,1.0,8.4,2.29,-2.68,-30.69,-24.0,21.25,-82.69,29.06,-9.13,0.6432576470437901,-0.4737577039312508,0.7320550648260049,-104.22162596433716,-29.250997524768877,-68.08393507833873,0.0087,-0.7892,-0.2525,-0.5598
69,3721117.0,1974.1939719999998,1.0,8.4,2.29,-2.68,-30.69,-24.0,21.25,-82.69,29.06,-9.13,0.6432576470437901,-0.4737577039312508,0.7320550648260049,-104.22162596433716,-29.250997524768877,-68.08393507833873,0.0087,-0.7892,-0.2525,-0.5598
70,3721152.0,1974.1970579999997,1.0,7.91,1.73,-1.86,-28.37,-26.69,20.87,-40.13,35.31,-73.06,0.719091980288491,-1.2075878977362318,1.618534331964664,-102.46623177403809,-29.665695841620533,-69.68185709018104,-0.0081,-0.7797,-0.256,-0.5713
71,3721152.0,1974.1970579999997,1.0,7.91,1.73,-1.86,-28.37,-26.69,20.87,-40.13,35.31,-73.06,0.719091980288491,-1.2075878977362318,1.618534331964664,-102.46623177403809,-29.665695841620533,-69.68185709018104,-0.0081,-0.7797,-0.256,-0.5713
72,3721187.0,1974.2418260000002,1.0,8.5,3.18,-1.36,-28.37,-26.69,20.87,17.62,22.75,-11.63,1.5493620890740307,-0.5574341368594968,0.7788737344956385,-100.38504889165013,-31.00732816596471,-71.11222790088254,-0.0178,-0.7682,-0.2673,-0.5815
73,3721187.0,1974.2418260000002,1.0,8.5,3.18,-1.36,-28.37,-26.69,20.87,17.62,22.75,-11.63,1.5493620890740307,-0.5574341368594968,0.7788737344956385,-100.38504889165013,-31.00732816596471,-71.11222790088254,-0.0178,-0.7682,-0.2673,-0.5815
74,3721222.0,1974.262636,1.0,9.2,4.9,-2.54,-27.25,-27.37,18.0,4.19,-11.88,-23.56,1.2967339465100074,0.8158577451315527,-0.8119401706242275,-100.2240929390682,-31.757201337874307,-70.85889000761452,-0.0199,-0.7673,-0.2736,-0.5797
75,3721222.0,1974.262636,1.0,9.2,4.9,-2.54,-27.25,-27.37,18.0,4.19,-11.88,-23.56,1.2967339465100074,0.8158577451315527,-0.8119401706242275,-100.2240929390682,-31.757201337874307,-70.85889000761452,-0.0199,-0.7673,-0.2736,-0.5797
76,3721259.0,1974.312791,1.0,8.51,4.51,-2.8,-28.75,-28.19,18.37,-57.81,-43.06,-66.81,0.7507623527235718,0.4822101911972005,-0.18354665578403484,-100.31347946564678,-32.49653690025889,-70.19926439078702,-0.0392,-0.7678,-0.2798,-0.575
77,3721259.0,1974.312791,1.0,8.51,4.51,-2.8,-28.75,-28.19,18.37,-57.81,-43.06,-66.81,0.7507623527235718,0.4822101911972005,-0.18354665578403484,-100.31347946564678,-32.49653690025889,-70.19926439078702,-0.0392,-0.7678,-0.2798,-0.575
78,3721295.0,1974.331053,1.0,7.35,4.66,-2.34,-26.19,-30.0,18.0,-76.5,-53.38,-82.75,0.91667437932594,0.4590112549873533,0.8532865677426944,-100.56420761524464,-33.02206936424729,-69.082580917068,-0.0781,-0.7692,-0.2842,-0.5670000000000001
79,3721295.0,1974.331053,1.0,7.35,4.66,-2.34,-26.19,-30.0,18.0,-76.5,-53.38,-82.75,0.91667437932594,0.4590112549873533,0.8532865677426944,-100.56420761524464,-33.02206936424729,-69.082580917068,-0.0781,-0.7692,-0.2842,-0.5670000000000001
80,3721328.0,1974.378284,1.0,7.4,3.83,-3.41,-26.19,-30.0,18.0,-58.5,-50.75,-64.0,-0.3676145175564467,-0.4920245179264478,0.824458093775716,-100.76167247514276,-33.24922417976444,-68.09776471776088,-0.1063,-0.7703,-0.2861,-0.5599
81,3721328.0,1974.378284,1.0,7.4,3.83,-3.41,-26.19,-30.0,18.0,-58.5,-50.75,-64.0,-0.3676145175564467,-0.4920245179264478,0.824458093775716,-100.76167247514276,-33.24922417976444,-68.09776471776088,-0.1063,-0.7703,-0.2861,-0.5599
82,3721365.0,1974.3956280000002,1.0,6.98,4.75,-3.74,-24.25,-31.87,17.19,-61.06,-52.19,-27.75,-0.4768284847875458,0.08305387348584459,0.585140543832086,-101.23005073336391,-33.0459740960127,-66.8300983122929,-0.1356,-0.7729,-0.2844,-0.5507
83,3721365.0,1974.3956280000002,1.0,6.98,4.75,-3.74,-24.25,-31.87,17.19,-61.06,-52.19,-27.75,-0.4768284847875458,0.08305387348584459,0.585140543832086,-101.23005073336391,-33.0459740960127,-66.8300983122929,-0.1356,-0.7729,-0.2844,-0.5507
84,3721402.0,1974.439934,1.0,8.87,4.99,-6.55,-22.0,-34.5,16.25,-47.19,-12.19,-21.87,-2.576773610928055,-0.8668968286682928,-1.9869172146500984,-101.6281995958626,-32.3533321925502,-66.22709184452836,-0.1519,-0.7751,-0.2786,-0.5463
85,3721402.0,1974.439934,1.0,8.87,4.99,-6.55,-22.0,-34.5,16.25,-47.19,-12.19,-21.87,-2.576773610928055,-0.8668968286682928,-1.9869172146500984,-101.6281995958626,-32.3533321925502,-66.22709184452836,-0.1519,-0.7751,-0.2786,-0.5463
86,3721437.0,1974.5053920000003,1.0,7.95,6.45,-3.71,-22.0,-34.5,16.25,-44.94,-2.31,117.81,0.19044052995065724,0.969159704857101,-1.037406522862346,-102.2651416958551,-30.710138215163173,-66.74774731388283,-0.1451,-0.7786,-0.2648,-0.5501
87,3721437.0,1974.5053920000003,1.0,7.95,6.45,-3.71,-22.0,-34.5,16.25,-44.94,-2.31,117.81,0.19044052995065724,0.969159704857101,-1.037406522862346,-102.2651416958551,-30.710138215163173,-66.74774731388283,-0.1451,-0.7786,-0.2648,-0.5501
88,3721472.0,1974.5233670000002,1.0,9.12,3.83,-2.55,-20.87,-36.0,15.0,67.12,135.75,158.19,0.4299648810391552,-0.7313959985936729,-0.37303516675806137,-101.26617635567743,-26.13514108768563,-71.2954433395492,-0.1074,-0.7731,-0.2261,-0.5828
89,3721472.0,1974.5233670000002,1.0,9.12,3.83,-2.55,-20.87,-36.0,15.0,67.12,135.75,158.19,0.4299648810391552,-0.7313959985936729,-0.37303516675806137,-101.26617635567743,-26.13514108768563,-71.2954433395492,-0.1074,-0.7731,-0.2261,-0.5828
90,3721508.0,1974.5274530000002,1.0,10.13,-4.96,-1.68,-25.75,-32.88,13.25,-51.0,56.81,12.75,-0.9587722564879084,-8.817131954536533,2.6386767957755404,-99.03424230026712,-26.170433719349266,-73.84009584056888,-0.0969,-0.7606,-0.2264,-0.6007
91,3721508.0,1974.5274530000002,1.0,10.13,-4.96,-1.68,-25.75,-32.88,13.25,-51.0,56.81,12.75,-0.9587722564879084,-8.817131954536533,2.6386767957755404,-99.03424230026712,-26.170433719349266,-73.84009584056888,-0.0969,-0.7606,-0.2264,-0.6007
92,3721543.0,1974.5660679999999,1.0,10.14,0.51,-0.45,-25.75,-32.88,13.25,-317.06,-32.13,34.88,1.5061783040161008,-4.043415108442963,0.6053228578249996,-97.96340007132606,-18.69245669557365,-75.97652033503749,-0.16,-0.7545,-0.1624,-0.6155
93,3721543.0,1974.5660679999999,1.0,10.14,0.51,-0.45,-25.75,-32.88,13.25,-317.06,-32.13,34.88,1.5061783040161008,-4.043415108442963,0.6053228578249996,-97.96340007132606,-18.69245669557365,-75.97652033503749,-0.16,-0.7545,-0.1624,-0.6155
94,3721578.0,1974.6253370000002,1.0,4.27,3.28,1.17,-27.25,-31.87,10.38,-335.25,-58.81,-24.0,1.6627389538213788,1.2074194672114769,4.694151843360358,-96.45571791729996,-12.365495103087909,-76.02014547215987,-0.23,-0.7458,-0.1077,-0.6158
95,3721578.0,1974.6253370000002,1.0,4.27,3.28,1.17,-27.25,-31.87,10.38,-335.25,-58.81,-24.0,1.6627389538213788,1.2074194672114769,4.694151843360358,-96.45571791729996,-12.365495103087909,-76.02014547215987,-0.23,-0.7458,-0.1077,-0.6158
96,3721615.0,1974.642707,1.0,4.43,3.51,3.61,-29.19,-33.0,1.69,-252.5,-3.81,-5.56,3.4221697204215986,2.1756060830634274,4.465059171794702,-93.471410399605,-6.661520952908496,-75.84572265044491,-0.2977,-0.7282,-0.0581,-0.6146
97,3721615.0,1974.642707,1.0,4.43,3.51,3.61,-29.19,-33.0,1.69,-252.5,-3.81,-5.56,3.4221697204215986,2.1756060830634274,4.465059171794702,-93.471410399605,-6.661520952908496,-75.84572265044491,-0.2977,-0.7282,-0.0581,-0.6146
98,3721650.0,1974.687013,1.0,4.86,8.17,1.24,-28.37,-34.25,-4.0,-326.31,54.38,-107.94,-1.1602357724999055,4.236832583136744,1.285546631616164,-88.32568102255905,-2.807774138332147,-76.31131240749009,-0.3639,-0.6967,-0.0245,-0.6178
99,3721650.0,1974.687013,1.0,4.86,8.17,1.24,-28.37,-34.25,-4.0,-326.31,54.38,-107.94,-1.1602357724999055,4.236832583136744,1.285546631616164,-88.32568102255905,-2.807774138332147,-76.31131240749009,-0.3639,-0.6967,-0.0245,-0.6178
100,3721684.0,1974.7944059999998,1.0,1.67,3.77,0.34,-28.37,-34.25,-4.0,-278.25,68.06,-141.31,-1.3491295584786798,1.473079421025293,6.183490266591754,-80.37634433071155,-1.707477412974553,-76.2239014164758,-0.45,-0.6453,-0.0149,-0.6172
101,3721684.0,1974.7944059999998,1.0,1.67,3.77,0.34,-28.37,-34.25,-4.0,-278.25,68.06,-141.31,-1.3491295584786798,1.473079421025293,6.183490266591754,-80.37634433071155,-1.707477412974553,-76.2239014164758,-0.45,-0.6453,-0.0149,-0.6172
102,3721721.0,1974.8050280000002,1.0,-1.51,1.41,3.91,-25.75,-33.88,-13.5,-136.25,24.0,1.69,1.8939429310910556,3.9620105709415827,9.285351228164329,-77.84962137759723,-1.0427975798203954,-76.15109886090754,-0.4742,-0.6283,-0.0091,-0.6167
103,3721721.0,1974.8050280000002,1.0,-1.51,1.41,3.91,-25.75,-33.88,-13.5,-136.25,24.0,1.69,1.8939429310910556,3.9620105709415827,9.285351228164329,-77.84962137759723,-1.0427975798203954,-76.15109886090754,-0.4742,-0.6283,-0.0091,-0.6167
104,3721758.0,1974.807876,1.0,0.93,7.65,7.94,-22.0,-34.38,-18.87,-328.0,94.94,7.5,0.017133655671824673,8.076000837456867,2.242992358935106,-69.59810663742078,5.525454047712893,-78.07073688001653,-0.5247,-0.5707,0.0482,-0.6298
105,3721758.0,1974.807876,1.0,0.93,7.65,7.94,-22.0,-34.38,-18.87,-328.0,94.94,7.5,0.017133655671824673,8.076000837456867,2.242992358935106,-69.59810663742078,5.525454047712893,-78.07073688001653,-0.5247,-0.5707,0.0482,-0.6298
106,3721793.0,1974.8487850000001,1.0,1.64,6.44,7.96,-22.0,-34.38,-18.87,-233.56,210.94,-43.69,-0.2454767536196081,6.34897117362576,1.6118280861386882,-60.68925941563211,7.1781250358345785,-80.64661893327633,-0.5676,-0.5052,0.0626,-0.6471
107,3721793.0,1974.8487850000001,1.0,1.64,6.44,7.96,-22.0,-34.38,-18.87,-233.56,210.94,-43.69,-0.2454767536196081,6.34897117362576,1.6118280861386882,-60.68925941563211,7.1781250358345785,-80.64661893327633,-0.5676,-0.5052,0.0626,-0.6471
108,3721828.0,1974.910462,1.0,2.01,4.93,14.44,-22.75,-26.87,-27.56,-223.38,215.44,18.44,2.9120048138239274,8.187813719383191,-2.895260661823544,-49.24023317275956,6.9140653613570215,-84.33495776110861,-0.6101,-0.4166,0.0603,-0.6713
109,3721828.0,1974.910462,1.0,2.01,4.93,14.44,-22.75,-26.87,-27.56,-223.38,215.44,18.44,2.9120048138239274,8.187813719383191,-2.895260661823544,-49.24023317275956,6.9140653613570215,-84.33495776110861,-0.6101,-0.4166,0.0603,-0.6713
110,3721863.0,1974.917739,1.0,3.71,8.27,20.99,-15.69,-23.56,-35.88,-303.25,199.38,98.12,-1.308518186639402,9.334154864039256,-11.023578830460947,-35.612600576556765,10.741493332748478,-90.11239605684216,-0.6299,-0.3058,0.0936,-0.7078
111,3721863.0,1974.917739,1.0,3.71,8.27,20.99,-15.69,-23.56,-35.88,-303.25,199.38,98.12,-1.308518186639402,9.334154864039256,-11.023578830460947,-35.612600576556765,10.741493332748478,-90.11239605684216,-0.6299,-0.3058,0.0936,-0.7078
112,3721900.0,1974.936154,1.0,7.3,9.77,16.54,-9.69,-15.69,-40.75,-195.5,346.13,76.19,-7.110663510198983,1.8372887063884868,-9.38650853772125,-24.291588578811197,10.64941932234672,-94.91906676360666,-0.6357,-0.2104,0.0928,-0.7368
113,3721900.0,1974.936154,1.0,7.3,9.77,16.54,-9.69,-15.69,-40.75,-195.5,346.13,76.19,-7.110663510198983,1.8372887063884868,-9.38650853772125,-24.291588578811197,10.64941932234672,-94.91906676360666,-0.6357,-0.2104,0.0928,-0.7368
114,3721934.0,1974.9847149999998,1.0,8.29,7.07,12.68,-9.69,-15.69,-40.75,-52.69,355.0,-56.75,-6.5150811699195845,-4.702191627576667,-4.853994980590285,-12.088902226339815,3.931261580029344,-96.50733558762144,-0.6566,-0.1053,0.0343,-0.7461
115,3721934.0,1974.9847149999998,1.0,8.29,7.07,12.68,-9.69,-15.69,-40.75,-52.69,355.0,-56.75,-6.5150811699195845,-4.702191627576667,-4.853994980590285,-12.088902226339815,3.931261580029344,-96.50733558762144,-0.6566,-0.1053,0.0343,-0.7461
116,3721971.0,1975.0034079999998,1.0,5.78,3.32,11.32,2.25,-9.56,-43.25,24.31,216.06,-132.5,-2.5250651097711687,-4.823527513198128,-2.148718188426365,-6.650042440520529,-1.3865917007687605,-93.68898731021123,-0.6814,-0.057999999999999996,-0.0121,-0.7295
117,3721971.0,1975.0034079999998,1.0,5.78,3.32,11.32,2.25,-9.56,-43.25,24.31,216.06,-132.5,-2.5250651097711687,-4.823527513198128,-2.148718188426365,-6.650042440520529,-1.3865917007687605,-93.68898731021123,-0.6814,-0.057999999999999996,-0.0121,-0.7295
118,3722008.0,1975.0505629999998,1.0,2.74,3.3,12.83,15.75,-7.56,-41.19,-15.06,77.56,-101.56,-1.861965588635476,-3.058833598968301,-3.2387752962699516,-3.495584654482353,-5.422203865470181,-89.57832790416415,-0.7075,-0.0305,-0.0473,-0.7045
119,3722008.0,1975.0505629999998,1.0,2.74,3.3,12.83,15.75,-7.56,-41.19,-15.06,77.56,-101.56,-1.861965588635476,-3.058833598968301,-3.2387752962699516,-3.495584654482353,-5.422203865470181,-89.57832790416415,-0.7075,-0.0305,-0.0473,-0.7045
120,3722043.0,1975.114913,1.0,1.08,3.82,12.05,15.75,-7.56,-41.19,-51.75,29.75,-70.06,-2.747999539623065,-1.7886166261070318,-2.449395410124953,-1.4897322301406863,-5.215716631990905,-87.27605051042755,-0.7222,-0.013000000000000001,-0.0455,-0.6901
121,3722043.0,1975.114913,1.0,1.08,3.82,12.05,15.75,-7.56,-41.19,-51.75,29.75,-70.06,-2.747999539623065,-1.7886166261070318,-2.449395410124953,-1.4897322301406863,-5.215716631990905,-87.27605051042755,-0.7222,-0.013000000000000001,-0.0455,-0.6901
122,3722078.0,1975.1237640000002,1.0,1.63,2.97,10.43,19.56,-7.19,-39.5,66.94,47.69,38.13,-1.7653403647927135,-2.5192336771409614,-0.7194953094849641,-1.2605325708995527,-7.4192563007107175,-87.54552779768291,-0.7191,-0.011000000000000001,-0.0647,-0.6918
123,3722078.0,1975.1237640000002,1.0,1.63,2.97,10.43,19.56,-7.19,-39.5,66.94,47.69,38.13,-1.7653403647927135,-2.5192336771409614,-0.7194953094849641,-1.2605325708995527,-7.4192563007107175,-87.54552779768291,-0.7191,-0.011000000000000001,-0.0647,-0.6918
124,3722113.0,1975.179316,1.0,1.64,2.58,9.9,21.06,-5.69,-38.19,61.13,33.19,19.75,-1.02804796844171,-2.656499964214581,-0.15538419562042982,-2.142987063023817,-10.074110549810433,-88.21391588431885,-0.7124,-0.0187,-0.0878,-0.696
125,3722113.0,1975.179316,1.0,1.64,2.58,9.9,21.06,-5.69,-38.19,61.13,33.19,19.75,-1.02804796844171,-2.656499964214581,-0.15538419562042982,-2.142987063023817,-10.074110549810433,-88.21391588431885,-0.7124,-0.0187,-0.0878,-0.696
126,3722149.0,1975.1973469999998,1.0,0.3,1.22,10.07,23.0,-8.56,-37.69,76.69,-2.75,-10.5,0.6749142243826342,-1.3073981757713349,-0.2341916380160001,-3.495584654482353,-11.524409426521867,-87.75200894857093,-0.7132,-0.0305,-0.1004,-0.6931
127,3722149.0,1975.1973469999998,1.0,0.3,1.22,10.07,23.0,-8.56,-37.69,76.69,-2.75,-10.5,0.6749142243826342,-1.3073981757713349,-0.2341916380160001,-3.495584654482353,-11.524409426521867,-87.75200894857093,-0.7132,-0.0305,-0.1004,-0.6931
128,3722184.0,1975.2360800000001,1.0,-0.36,1.24,10.65,23.0,-8.56,-37.69,56.38,-6.88,-28.5,1.2039899981406377,-0.6695650935048257,-0.8325130624752237,-5.318958088351593,-13.114968872872085,-86.5026760902236,-0.7179,-0.0464,-0.1142,-0.6852
129,3722184.0,1975.2360800000001,1.0,-0.36,1.24,10.65,23.0,-8.56,-37.69,56.38,-6.88,-28.5,1.2039899981406377,-0.6695650935048257,-0.8325130624752237,-5.318958088351593,-13.114968872872085,-86.5026760902236,-0.7179,-0.0464,-0.1142,-0.6852
130,3722219.0,1975.249641,1.0,-1.24,1.07,10.69,23.69,-11.19,-36.38,49.69,3.75,-5.31,1.5847829475273714,0.2840413096165633,-0.8875719700012681,-6.48935022815341,-13.807290567361374,-85.7654543452423,-0.7206,-0.0566,-0.1202,-0.6805
131,3722219.0,1975.249641,1.0,-1.24,1.07,10.69,23.69,-11.19,-36.38,49.69,3.75,-5.31,1.5847829475273714,0.2840413096165633,-0.8875719700012681,-6.48935022815341,-13.807290567361374,-85.7654543452423,-0.7206,-0.0566,-0.1202,-0.6805
132,3722256.0,1975.3020809999998,1.0,0.03,1.59,8.99,23.25,-12.19,-36.5,11.44,5.19,11.31,0.8630104716296454,-0.9432676968320672,0.7670394454478444,-6.822227205491183,-14.812064314477515,-85.89062667972252,-0.718,-0.0595,-0.1289,-0.6813
133,3722256.0,1975.3020809999998,1.0,0.03,1.59,8.99,23.25,-12.19,-36.5,11.44,5.19,11.31,0.8630104716296454,-0.9432676968320672,0.7670394454478444,-6.822227205491183,-14.812064314477515,-85.89062667972252,-0.718,-0.0595,-0.1289,-0.6813
134,3722293.0,1975.325038,1.0,-1.35,1.39,10.23,23.25,-12.19,-36.5,-21.75,17.06,7.63,1.2933478177240156,0.2889152613795738,-0.5205606298908467,-6.48935022815341,-14.788953503219902,-86.26691017894268,-0.7161,-0.0566,-0.1287,-0.6837
135,3722293.0,1975.325038,1.0,-1.35,1.39,10.23,23.25,-12.19,-36.5,-21.75,17.06,7.63,1.2933478177240156,0.2889152613795738,-0.5205606298908467,-6.48935022815341,-14.788953503219902,-86.26691017894268,-0.7161,-0.0566,-0.1287,-0.6837
136,3722326.0,1975.380761,1.0,-2.82,2.47,9.53,24.37,-12.56,-34.75,-66.75,67.37,8.38,-0.3209655338561579,1.366009218546659,-0.3375700262475565,-3.335085177891311,-14.84673166768115,-87.0229756995197,-0.713,-0.0291,-0.1292,-0.6885
137,3722326.0,1975.380761,1.0,-2.82,2.47,9.53,24.37,-12.56,-34.75,-66.75,67.37,8.38,-0.3209655338561579,1.366009218546659,-0.3375700262475565,-3.335085177891311,-14.84673166768115,-87.0229756995197,-0.713,-0.0291,-0.1292,-0.6885
138,3722362.0,1975.421891,1.0,-1.23,3.23,7.6,24.75,-11.06,-34.75,34.25,71.06,58.81,-1.4316204965478565,-0.19807282338715004,1.5836925082881823,-2.0398374773549266,-16.30403579859025,-88.19795806279829,-0.7038,-0.0178,-0.1418,-0.6959
139,3722362.0,1975.421891,1.0,-1.23,3.23,7.6,24.75,-11.06,-34.75,34.25,71.06,58.81,-1.4316204965478565,-0.19807282338715004,1.5836925082881823,-2.0398374773549266,-16.30403579859025,-88.19795806279829,-0.7038,-0.0178,-0.1418,-0.6959
140,3722399.0,1975.429171,1.0,-0.93,2.22,8.61,26.69,-11.75,-33.19,41.0,-25.31,42.56,-0.0010898251582288634,-0.6304313689057726,0.8888052434805882,-2.910938660030132,-17.404541942676424,-89.59447542151321,-0.6928,-0.0254,-0.1513,-0.7046
141,3722399.0,1975.429171,1.0,-0.93,2.22,8.61,26.69,-11.75,-33.19,41.0,-25.31,42.56,-0.0010898251582288634,-0.6304313689057726,0.8888052434805882,-2.910938660030132,-17.404541942676424,-89.59447542151321,-0.6928,-0.0254,-0.1513,-0.7046
142,3722432.0,1975.489834,1.0,-1.31,3.67,8.18,26.69,-11.75,-33.19,14.13,-29.25,29.37,-1.3335631767113092,0.06305285348979961,0.8447844804005005,-4.573417240623146,-17.09160645080068,-90.58379565299514,-0.6865,-0.0399,-0.1486,-0.7107
143,3722432.0,1975.489834,1.0,-1.31,3.67,8.18,26.69,-11.75,-33.19,14.13,-29.25,29.37,-1.3335631767113092,0.06305285348979961,0.8447844804005005,-4.573417240623146,-17.09160645080068,-90.58379565299514,-0.6865,-0.0399,-0.1486,-0.7107
144,3722469.0,1975.507613,1.0,-2.29,3.72,10.69,26.75,-13.69,-33.69,72.31,-56.06,49.38,-0.2989286282618123,0.9682106054378996,-1.6969064022054976,-6.776309776380446,-17.230672895970507,-91.87802897168402,-0.6766,-0.0591,-0.1498,-0.7186
145,3722469.0,1975.507613,1.0,-2.29,3.72,10.69,26.75,-13.69,-33.69,72.31,-56.06,49.38,-0.2989286282618123,0.9682106054378996,-1.6969064022054976,-6.776309776380446,-17.230672895970507,-91.87802897168402,-0.6766,-0.0591,-0.1498,-0.7186
146,3722506.0,1975.5567870000002,1.0,-0.83,2.77,9.47,24.06,-15.56,-34.06,80.06,-70.81,53.88,0.7274994792821697,0.12066717218210266,-0.06750231506997473,-10.891128461986716,-17.601642377536205,-93.53831032521614,-0.6609,-0.0949,-0.153,-0.7286
147,3722506.0,1975.5567870000002,1.0,-0.83,2.77,9.47,24.06,-15.56,-34.06,80.06,-70.81,53.88,0.7274994792821697,0.12066717218210266,-0.06750231506997473,-10.891128461986716,-17.601642377536205,-93.53831032521614,-0.6609,-0.0949,-0.153,-0.7286
148,3722541.0,1975.5757,1.0,-0.86,3.6,9.35,24.06,-15.56,-34.06,17.37,-44.69,29.81,0.14477573852407322,0.5504271595395172,-0.2331791782069725,-13.022696190101502,-17.137959104392678,-93.99097726205777,-0.6558,-0.1134,-0.149,-0.7313
149,3722541.0,1975.5757,1.0,-0.86,3.6,9.35,24.06,-15.56,-34.06,17.37,-44.69,29.81,0.14477573852407322,0.5504271595395172,-0.2331791782069725,-13.022696190101502,-17.137959104392678,-93.99097726205777,-0.6558,-0.1134,-0.149,-0.7313
150,3722575.0,1975.616291,1.0,-1.05,4.53,9.37,21.87,-19.69,-34.5,24.69,-49.06,28.69,-0.4832056103881066,1.1927879311542364,-0.5742974177158917,-14.89295693159816,-16.489275388774946,-95.30961142661364,-0.6453,-0.1296,-0.1434,-0.7391
151,3722575.0,1975.616291,1.0,-1.05,4.53,9.37,21.87,-19.69,-34.5,24.69,-49.06,28.69,-0.4832056103881066,1.1927879311542364,-0.5742974177158917,-14.89295693159816,-16.489275388774946,-95.30961142661364,-0.6453,-0.1296,-0.1434,-0.7391
152,3722610.0,1975.684022,1.0,-1.06,2.35,11.62,18.87,-20.5,-34.88,20.19,-26.94,36.25,2.6558524993696593,0.9931846752551337,-1.7532172874056062,-16.419805484293857,-16.709303811577858,-96.4901268036236,-0.634,-0.1428,-0.1453,-0.746
153,3722610.0,1975.684022,1.0,-1.06,2.35,11.62,18.87,-20.5,-34.88,20.19,-26.94,36.25,2.6558524993696593,0.9931846752551337,-1.7532172874056062,-16.419805484293857,-16.709303811577858,-96.4901268036236,-0.634,-0.1428,-0.1453,-0.746
154,3722647.0,1975.6938530000002,1.0,-4.03,0.43,16.86,18.19,-22.25,-34.88,-156.88,149.19,35.81,6.136924482669494,2.8817462959362743,-6.153271559326964,-12.849707716341904,-15.748572284340513,-98.91076580586659,-0.6255,-0.1119,-0.13699999999999998,-0.7599
155,3722647.0,1975.6938530000002,1.0,-4.03,0.43,16.86,18.19,-22.25,-34.88,-156.88,149.19,35.81,6.136924482669494,2.8817462959362743,-6.153271559326964,-12.849707716341904,-15.748572284340513,-98.91076580586659,-0.6255,-0.1119,-0.13699999999999998,-0.7599
156,3722682.0,1975.7373129999999,1.0,0.05,3.63,15.42,18.19,-22.25,-34.88,-277.88,312.81,29.94,-1.6059673148331082,-2.7517147171306178,-5.711234362863853,2.521217704700676,-14.777398324484167,-102.83298081073578,-0.6099,0.022000000000000002,-0.1286,-0.7817
157,3722682.0,1975.7373129999999,1.0,0.05,3.63,15.42,18.19,-22.25,-34.88,-277.88,312.81,29.94,-1.6059673148331082,-2.7517147171306178,-5.711234362863853,2.521217704700676,-14.777398324484167,-102.83298081073578,-0.6099,0.022000000000000002,-0.1286,-0.7817
158,3722721.0,1975.7639809999998,1.0,3.83,6.12,9.23,19.69,-19.25,-34.06,-188.75,1091.5,40.88,-8.104051552988214,-6.66090988014582,4.584310677906388,28.54099280947513,-24.70200146162693,-99.44105363347383,-0.5579999999999999,0.2465,-0.2139,-0.7629
159,3722721.0,1975.7639809999998,1.0,3.83,6.12,9.23,19.69,-19.25,-34.06,-188.75,1091.5,40.88,-8.104051552988214,-6.66090988014582,4.584310677906388,28.54099280947513,-24.70200146162693,-99.44105363347383,-0.5579999999999999,0.2465,-0.2139,-0.7629
160,3722756.0,1975.808965,1.0,2.72,1.82,-1.04,33.06,-10.69,-25.25,7.69,582.56,76.31,-1.9800620353690124,0.4605076426957795,12.57426396280426,49.59342555885964,-39.25455153393627,-88.46953482425532,-0.4739,0.4194,-0.3359,-0.6976
161,3722756.0,1975.808965,1.0,2.72,1.82,-1.04,33.06,-10.69,-25.25,7.69,582.56,76.31,-1.9800620353690124,0.4605076426957795,12.57426396280426,49.59342555885964,-39.25455153393627,-88.46953482425532,-0.4739,0.4194,-0.3359,-0.6976
162,3722790.0,1975.826943,1.0,-11.0,-0.58,3.29,33.06,-10.69,-25.25,-72.81,17.56,0.88,1.8287157746200309,1.0508982733158745,-1.4943194909241106,50.33930781936822,-38.80472209856705,-88.95032385550869,-0.4669,0.4253,-0.3322,-0.7006
163,3722790.0,1975.826943,1.0,-11.0,-0.58,3.29,33.06,-10.69,-25.25,-72.81,17.56,0.88,1.8287157746200309,1.0508982733158745,-1.4943194909241106,50.33930781936822,-38.80472209856705,-88.95032385550869,-0.4669,0.4253,-0.3322,-0.7006
164,3722825.0,1975.8742079999997,1.0,-8.57,0.25,4.8,43.56,-10.69,-2.06,-22.0,28.25,-4.13,-0.039910710883605205,-1.0143200154430734,0.03337204214837719,51.88895954474002,-38.44045190034536,-88.82192034919494,-0.4587,0.4375,-0.3292,-0.6998
165,3722825.0,1975.8742079999997,1.0,-8.57,0.25,4.8,43.56,-10.69,-2.06,-22.0,28.25,-4.13,-0.039910710883605205,-1.0143200154430734,0.03337204214837719,51.88895954474002,-38.44045190034536,-88.82192034919494,-0.4587,0.4375,-0.3292,-0.6998
166,3722860.0,1975.892766,1.0,-8.4,0.34,4.65,43.5,-10.69,-0.5,-5.75,35.13,-0.69,-0.2310462879026993,-1.05544190336544,0.26040675977891503,53.077119755232744,-38.47686069075838,-88.42156403973308,-0.4535,0.4468,-0.3295,-0.6973
167,3722860.0,1975.892766,1.0,-8.4,0.34,4.65,43.5,-10.69,-0.5,-5.75,35.13,-0.69,-0.2310462879026993,-1.05544190336544,0.26040675977891503,53.077119755232744,-38.47686069075838,-88.42156403973308,-0.4535,0.4468,-0.3295,-0.6973
168,3722897.0,1975.932921,1.0,-9.09,-0.42,3.99,43.88,-10.25,-0.88,-33.63,4.94,-12.69,0.6782573711164654,-0.6087363301237219,-0.08749003432909319,54.05267163514365,-38.18570299849585,-88.02256387479584,-0.4515,0.4544,-0.3271,-0.6948
169,3722897.0,1975.932921,1.0,-9.09,-0.42,3.99,43.88,-10.25,-0.88,-33.63,4.94,-12.69,0.6782573711164654,-0.6087363301237219,-0.08749003432909319,54.05267163514365,-38.18570299849585,-88.02256387479584,-0.4515,0.4544,-0.3271,-0.6948
170,3722932.0,1975.988446,1.0,-8.04,0.58,3.67,43.88,-10.25,-0.88,-15.38,-22.44,-1.94,-0.3689161662873297,-0.2224174881335632,0.9601065324515474,54.232838913987244,-37.41052638436744,-88.46953482425532,-0.4503,0.4558,-0.3207,-0.6976
171,3722932.0,1975.988446,1.0,-8.04,0.58,3.67,43.88,-10.25,-0.88,-15.38,-22.44,-1.94,-0.3689161662873297,-0.2224174881335632,0.9601065324515474,54.232838913987244,-37.41052638436744,-88.46953482425532,-0.4503,0.4558,-0.3207,-0.6976
172,3722969.0,1976.048939,1.0,-6.39,0.35,3.15,44.56,-10.0,-0.88,22.44,-184.31,13.25,-0.029250077906069368,0.04793773723979067,2.674052548419628,50.65604685467434,-35.72093850046968,-91.10624511400431,-0.4619,0.4278,-0.3067,-0.7139
173,3722969.0,1976.048939,1.0,-6.39,0.35,3.15,44.56,-10.0,-0.88,22.44,-184.31,13.25,-0.029250077906069368,0.04793773723979067,2.674052548419628,50.65604685467434,-35.72093850046968,-91.10624511400431,-0.4619,0.4278,-0.3067,-0.7139
174,3723003.0,1976.0569649999998,1.0,-5.39,0.21,6.05,43.0,-9.25,-2.19,39.94,-319.88,16.56,-0.4832471624516385,-1.8644141785752584,1.9333322780539337,43.480576858025245,-32.61591400140699,-95.80412942355949,-0.4831,0.3704,-0.2808,-0.742
175,3723003.0,1976.0569649999998,1.0,-5.39,0.21,6.05,43.0,-9.25,-2.19,39.94,-319.88,16.56,-0.4832471624516385,-1.8644141785752584,1.9333322780539337,43.480576858025245,-32.61591400140699,-95.80412942355949,-0.4831,0.3704,-0.2808,-0.742
176,3723038.0,1976.0762789999999,1.0,2.45,1.67,7.72,43.0,-9.25,-2.19,36.81,-386.06,29.94,-3.8034327685646634,-6.015303206026232,5.594782657053515,31.924028325694472,-26.994654003838164,-102.39305734069332,-0.5124,0.275,-0.2334,-0.7793
177,3723038.0,1976.0762789999999,1.0,2.45,1.67,7.72,43.0,-9.25,-2.19,36.81,-386.06,29.94,-3.8034327685646634,-6.015303206026232,5.594782657053515,31.924028325694472,-26.994654003838164,-102.39305734069332,-0.5124,0.275,-0.2334,-0.7793
178,3723073.0,1976.118369,1.0,3.7,3.4,11.21,41.75,-11.19,-12.56,70.94,-857.31,103.37,-4.0887430614091445,-4.822297432449615,-0.7262379064940454,5.7319679651977244,-14.118999098561428,-112.87847065921488,-0.5366,0.05,-0.1229,-0.8333
179,3723073.0,1976.118369,1.0,3.7,3.4,11.21,41.75,-11.19,-12.56,70.94,-857.31,103.37,-4.0887430614091445,-4.822297432449615,-0.7262379064940454,5.7319679651977244,-14.118999098561428,-112.87847065921488,-0.5366,0.05,-0.1229,-0.8333
180,3723110.0,1976.177518,1.0,14.22,4.83,7.62,35.06,-13.38,-27.0,265.94,-955.25,50.31,-6.971571973378213,-9.455767065886196,-2.259308454085172,-20.70457229377833,-3.2204467196467967,-111.6447470313604,-0.5316,-0.1797,-0.0281,-0.8273
181,3723110.0,1976.177518,1.0,14.22,4.83,7.62,35.06,-13.38,-27.0,265.94,-955.25,50.31,-6.971571973378213,-9.455767065886196,-2.259308454085172,-20.70457229377833,-3.2204467196467967,-111.6447470313604,-0.5316,-0.1797,-0.0281,-0.8273
182,3723147.0,1976.1956079999998,1.0,14.61,9.34,17.91,4.75,-20.56,-38.19,165.13,-974.06,20.87,2.2603682230499094,6.203002050332834,-14.232262227049556,-56.47142628686849,9.993587967554063,-94.17594734269699,-0.4819,-0.4731,0.0871,-0.7324
183,3723147.0,1976.1956079999998,1.0,14.61,9.34,17.91,4.75,-20.56,-38.19,165.13,-974.06,20.87,2.2603682230499094,6.203002050332834,-14.232262227049556,-56.47142628686849,9.993587967554063,-94.17594734269699,-0.4819,-0.4731,0.0871,-0.7324
184,3723182.0,1976.245885,1.0,10.38,7.12,10.41,4.75,-20.56,-38.19,305.5,-558.56,84.94,3.8129800737310533,7.591438068455338,-4.144627755465163,-77.65826632282992,14.165187015253306,-81.15862069013602,-0.4107,-0.627,0.1233,-0.6505
185,3723182.0,1976.245885,1.0,10.38,7.12,10.41,4.75,-20.56,-38.19,305.5,-558.56,84.94,3.8129800737310533,7.591438068455338,-4.144627755465163,-77.65826632282992,14.165187015253306,-81.15862069013602,-0.4107,-0.627,0.1233,-0.6505
186,3723220.0,1976.250735,1.0,8.23,2.39,3.99,-25.69,-28.06,-25.37,193.44,-410.38,10.0,4.378159939403221,2.9855818333417767,1.9782966187694155,-96.76581595045093,15.621331474060085,-68.09776471776088,-0.3304,-0.7476,0.1359,-0.5599
187,3723220.0,1976.250735,1.0,8.23,2.39,3.99,-25.69,-28.06,-25.37,193.44,-410.38,10.0,4.378159939403221,2.9855818333417767,1.9782966187694155,-96.76581595045093,15.621331474060085,-68.09776471776088,-0.3304,-0.7476,0.1359,-0.5599
188,3723255.0,1976.320432,1.0,5.83,2.79,6.26,-35.06,-31.37,-5.69,71.75,-210.5,13.13,5.64207766718385,5.741917964410341,5.7869562694470025,-106.45140340836085,17.172725448331995,-60.18533311886693,-0.2909,-0.8009999999999999,0.1493,-0.5014
189,3723255.0,1976.320432,1.0,5.83,2.79,6.26,-35.06,-31.37,-5.69,71.75,-210.5,13.13,5.64207766718385,5.741917964410341,5.7869562694470025,-106.45140340836085,17.172725448331995,-60.18533311886693,-0.2909,-0.8009999999999999,0.1493,-0.5014
190,3723290.0,1976.339007,1.0,7.64,4.87,-5.03,-35.06,-31.37,-5.69,61.31,-115.19,1.81,-2.269810842344583,0.7693465202819598,-0.27518835774533024,-109.86983734458828,17.740803669389525,-57.26633156409672,-0.2769,-0.8185,0.1542,-0.4792
191,3723290.0,1976.339007,1.0,7.64,4.87,-5.03,-35.06,-31.37,-5.69,61.31,-115.19,1.81,-2.269810842344583,0.7693465202819598,-0.27518835774533024,-109.86983734458828,17.740803669389525,-57.26633156409672,-0.2769,-0.8185,0.1542,-0.4792
192,3723325.0,1976.3868530000002,1.0,7.58,2.01,-2.79,-36.06,-29.87,2.69,76.62,-75.06,8.25,1.1009628294146383,0.2704056521868301,1.5607199959608715,-113.85904656766621,17.300215695418142,-54.890396236957464,-0.2504,-0.838,0.1504,-0.4609
193,3723325.0,1976.3868530000002,1.0,7.58,2.01,-2.79,-36.06,-29.87,2.69,76.62,-75.06,8.25,1.1009628294146383,0.2704056521868301,1.5607199959608715,-113.85904656766621,17.300215695418142,-54.890396236957464,-0.2504,-0.838,0.1504,-0.4609
194,3723360.0,1976.406561,1.0,7.59,3.04,-4.52,-35.25,-29.5,8.88,16.25,-28.75,-1.63,-0.43757698934340905,0.27440934718649657,0.4785566316543601,-115.04449255970869,17.26544349477142,-53.88550274467078,-0.24600000000000002,-0.8436,0.1501,-0.4531
195,3723360.0,1976.406561,1.0,7.59,3.04,-4.52,-35.25,-29.5,8.88,16.25,-28.75,-1.63,-0.43757698934340905,0.27440934718649657,0.4785566316543601,-115.04449255970869,17.26544349477142,-53.88550274467078,-0.24600000000000002,-0.8436,0.1501,-0.4531
196,3723397.0,1976.454635,1.0,8.01,2.66,-6.04,-35.25,-29.5,8.88,13.81,-36.81,3.94,-0.8924927731846701,-0.7140848756630779,-0.508912972526625,-116.29293986048515,17.439320584956548,-52.7571233277472,-0.2412,-0.8494,0.1516,-0.4443
197,3723397.0,1976.454635,1.0,8.01,2.66,-6.04,-35.25,-29.5,8.88,13.81,-36.81,3.94,-0.8924927731846701,-0.7140848756630779,-0.508912972526625,-116.29293986048515,17.439320584956548,-52.7571233277472,-0.2412,-0.8494,0.1516,-0.4443
198,3723431.0,1976.4849980000001,1.0,7.36,3.74,-5.43,-34.0,-27.56,9.69,-14.38,-50.69,-6.81,-1.1689469733315372,0.5833295754661441,0.011988720510769824,-117.32089688772969,17.856791554733764,-51.494242185161674,-0.2402,-0.8541,0.1552,-0.4344
199,3723431.0,1976.4849980000001,1.0,7.36,3.74,-5.43,-34.0,-27.56,9.69,-14.38,-50.69,-6.81,-1.1689469733315372,0.5833295754661441,0.011988720510769824,-117.32089688772969,17.856791554733764,-51.494242185161674,-0.2402,-0.8541,0.1552,-0.4344
200,3723468.0,1976.523605,1.0,7.25,1.94,-4.21,-34.0,-28.69,11.25,-0.81,-0.37,-3.31,0.5407789614895999,-0.2011954195573797,1.2207733110439225,-118.23015155570127,17.59004678708234,-50.833601687099254,-0.2367,-0.8582,0.1529,-0.4292
201,3723468.0,1976.523605,1.0,7.25,1.94,-4.21,-34.0,-28.69,11.25,-0.81,-0.37,-3.31,0.5407789614895999,-0.2011954195573797,1.2207733110439225,-118.23015155570127,17.59004678708234,-50.833601687099254,-0.2367,-0.8582,0.1529,-0.4292
202,3723503.0,1976.542123,1.0,7.51,3.32,-5.91,-32.5,-28.69,12.25,-22.0,8.88,-6.75,-1.1049757250014958,-0.05310883658825039,-0.2495325808123461,-117.69645604638977,17.694413651857158,-50.973200800075034,-0.2425,-0.8558,0.1538,-0.4303
203,3723503.0,1976.542123,1.0,7.51,3.32,-5.91,-32.5,-28.69,12.25,-22.0,8.88,-6.75,-1.1049757250014958,-0.05310883658825039,-0.2495325808123461,-117.69645604638977,17.694413651857158,-50.973200800075034,-0.2425,-0.8558,0.1538,-0.4303
204,3723536.0,1976.582486,1.0,7.89,2.95,-5.9,-32.5,-28.69,12.25,2.81,9.88,-9.63,-0.7247581304118496,-0.4148346776071881,-0.4435811116704329,-117.45321573278471,17.300215695418142,-51.2272254279677,-0.2448,-0.8547,0.1504,-0.4323
205,3723536.0,1976.582486,1.0,7.89,2.95,-5.9,-32.5,-28.69,12.25,2.81,9.88,-9.63,-0.7247581304118496,-0.4148346776071881,-0.4435811116704329,-117.45321573278471,17.300215695418142,-51.2272254279677,-0.2448,-0.8547,0.1504,-0.4323
206,3723573.0,1976.6389120000001,1.0,7.51,2.3,-4.73,-33.69,-29.06,11.38,13.69,15.44,-12.81,0.13581830644379886,-0.3709280056364839,0.6465754477777691,-117.4973779425748,16.778799324271787,-51.39248622701663,-0.2447,-0.8549,0.1459,-0.4336
207,3723573.0,1976.6389120000001,1.0,7.51,2.3,-4.73,-33.69,-29.06,11.38,13.69,15.44,-12.81,0.13581830644379886,-0.3709280056364839,0.6465754477777691,-117.4973779425748,16.778799324271787,-51.39248622701663,-0.2447,-0.8549,0.1459,-0.4336
208,3723610.0,1976.656293,1.0,6.05,2.67,-0.12,-34.0,-29.5,11.38,-37.94,74.56,-23.69,2.130586175988588,2.2329575037892253,3.9568377523327545,-116.16277934389494,16.03782888845279,-52.55255813835036,-0.2533,-0.8488,0.1395,-0.4427
209,3723610.0,1976.656293,1.0,6.05,2.67,-0.12,-34.0,-29.5,11.38,-37.94,74.56,-23.69,2.130586175988588,2.2329575037892253,3.9568377523327545,-116.16277934389494,16.03782888845279,-52.55255813835036,-0.2533,-0.8488,0.1395,-0.4427
210,3723644.0,1976.697605,1.0,4.97,2.1,14.05,-34.0,-29.5,11.38,-168.31,472.69,-52.06,11.60384518601095,9.576266287099596,9.407524834606743,-107.627107150319,14.2344732300193,-59.76196847937517,-0.2916,-0.8071,0.1239,-0.4982
211,3723644.0,1976.697605,1.0,4.97,2.1,14.05,-34.0,-29.5,11.38,-168.31,472.69,-52.06,11.60384518601095,9.576266287099596,9.407524834606743,-107.627107150319,14.2344732300193,-59.76196847937517,-0.2916,-0.8071,0.1239,-0.4982
212,3723679.0,1976.705255,1.0,14.29,7.49,18.73,-32.5,-29.06,9.75,-458.88,1263.75,-134.44,8.758689038820728,7.123917042612328,-12.185445677566054,-67.53166897221763,5.812283928177061,-91.33558129123823,-0.4206,-0.5558,0.0507,-0.7153
213,3723679.0,1976.705255,1.0,14.29,7.49,18.73,-32.5,-29.06,9.75,-458.88,1263.75,-134.44,8.758689038820728,7.123917042612328,-12.185445677566054,-67.53166897221763,5.812283928177061,-91.33558129123823,-0.4206,-0.5558,0.0507,-0.7153
214,3723716.0,1976.772616,1.0,16.31,9.06,14.4,-31.37,-31.25,-13.06,-477.56,1150.56,-124.37,-9.940882512686711,-8.105056297190059,-9.965720047324599,-19.6570420373131,-2.7160742546883188,-113.9220736351645,-0.5173,-0.1707,-0.0237,-0.8383
215,3723716.0,1976.772616,1.0,16.31,9.06,14.4,-31.37,-31.25,-13.06,-477.56,1150.56,-124.37,-9.940882512686711,-8.105056297190059,-9.965720047324599,-19.6570420373131,-2.7160742546883188,-113.9220736351645,-0.5173,-0.1707,-0.0237,-0.8383
216,3723753.0,1976.796484,1.0,10.07,5.99,3.25,0.5,-23.5,-38.19,-114.19,560.5,62.81,-9.720471747095916,-6.3929764181209086,6.272561499232077,-1.5470330404085568,-6.89110540785609,-117.56367389565743,-0.5145,-0.0135,-0.0601,-0.8552
217,3723753.0,1976.796484,1.0,10.07,5.99,3.25,0.5,-23.5,-38.19,-114.19,560.5,62.81,-9.720471747095916,-6.3929764181209086,6.272561499232077,-1.5470330404085568,-6.89110540785609,-117.56367389565743,-0.5145,-0.0135,-0.0601,-0.8552
218,3723788.0,1976.841847,1.0,2.01,1.56,9.23,0.5,-23.5,-38.19,74.62,388.19,39.69,-2.7585866446282674,-4.063118808537623,1.587899165975017,12.273289521851867,-16.234582036054892,-117.21082255070309,-0.4899,0.1069,-0.1412,-0.8536
219,3723788.0,1976.841847,1.0,2.01,1.56,9.23,0.5,-23.5,-38.19,74.62,388.19,39.69,-2.7585866446282674,-4.063118808537623,1.587899165975017,12.273289521851867,-16.234582036054892,-117.21082255070309,-0.4899,0.1069,-0.1412,-0.8536
220,3723823.0,1976.899803,1.0,-2.59,1.55,10.43,22.19,-15.19,-35.0,-102.19,181.25,-20.75,-1.238837107532743,-1.4481555531928394,-0.8827666405261159,17.416134643761747,-17.416134643761747,-115.98960027739392,-0.4848,0.1514,-0.1514,-0.848
221,3723823.0,1976.899803,1.0,-2.59,1.55,10.43,22.19,-15.19,-35.0,-102.19,181.25,-20.75,-1.238837107532743,-1.4481555531928394,-0.8827666405261159,17.416134643761747,-17.416134643761747,-115.98960027739392,-0.4848,0.1514,-0.1514,-0.848
222,3723859.0,1976.906947,1.0,-3.65,1.77,7.41,30.0,-16.56,-29.69,-11.31,166.44,24.69,-1.2913247765766611,-0.0515002401343595,1.4583970063093208,24.43226565454688,-19.30823806837105,-114.09040704091221,-0.4724,0.2116,-0.1677,-0.8391
223,3723859.0,1976.906947,1.0,-3.65,1.77,7.41,30.0,-16.56,-29.69,-11.31,166.44,24.69,-1.2913247765766611,-0.0515002401343595,1.4583970063093208,24.43226565454688,-19.30823806837105,-114.09040704091221,-0.4724,0.2116,-0.1677,-0.8391
224,3723896.0,1976.924699,1.0,-4.67,0.63,8.93,30.0,-16.56,-29.69,16.44,92.94,11.94,-0.3268323874918629,-1.1873078884353545,-0.2150355153484824,27.018223861950197,-21.462206102543455,-113.08603923231148,-0.4634,0.2336,-0.1862,-0.8343
225,3723896.0,1976.924699,1.0,-4.67,0.63,8.93,30.0,-16.56,-29.69,16.44,92.94,11.94,-0.3268323874918629,-1.1873078884353545,-0.2150355153484824,27.018223861950197,-21.462206102543455,-113.08603923231148,-0.4634,0.2336,-0.1862,-0.8343
226,3723929.0,1976.971249,1.0,-6.3,0.65,7.78,34.56,-13.56,-25.37,-50.44,145.94,3.06,0.19969886496544,0.003856225715551664,-0.2233552588647605,30.93598315774567,-22.57123707542117,-111.6447470313604,-0.45399999999999996,0.2667,-0.1957,-0.8273
227,3723929.0,1976.971249,1.0,-6.3,0.65,7.78,34.56,-13.56,-25.37,-50.44,145.94,3.06,0.19969886496544,0.003856225715551664,-0.2233552588647605,30.93598315774567,-22.57123707542117,-111.6447470313604,-0.45399999999999996,0.2667,-0.1957,-0.8273
228,3723966.0,1977.0381489999997,1.0,-5.09,1.14,6.11,36.88,-14.38,-21.69,-22.75,133.94,3.38,-0.7933259387199089,-0.1424089797199608,1.813518346045505,36.04615086901799,-24.06892577380089,-109.45205367310278,-0.4407,0.3094,-0.2085,-0.8164
229,3723966.0,1977.0381489999997,1.0,-5.09,1.14,6.11,36.88,-14.38,-21.69,-22.75,133.94,3.38,-0.7933259387199089,-0.1424089797199608,1.813518346045505,36.04615086901799,-24.06892577380089,-109.45205367310278,-0.4407,0.3094,-0.2085,-0.8164
230,3724003.0,1977.056586,1.0,-8.01,0.11,8.2,39.0,-13.56,-19.19,-19.06,55.13,-0.56,0.4359267882645452,-0.4831697175631256,-1.6383801379814322,37.519427463611905,-24.537797991913113,-108.70148376565115,-0.4372,0.3216,-0.2125,-0.8126
231,3724003.0,1977.056586,1.0,-8.01,0.11,8.2,39.0,-13.56,-19.19,-19.06,55.13,-0.56,0.4359267882645452,-0.4831697175631256,-1.6383801379814322,37.519427463611905,-24.537797991913113,-108.70148376565115,-0.4372,0.3216,-0.2125,-0.8126
232,3724036.0,1977.104243,1.0,-6.49,0.48,5.67,39.0,-13.56,-19.19,-31.87,143.69,-3.19,-0.1289555127640294,-0.0976689618984914,1.1768625605777832,42.08986846540722,-25.617803632217928,-106.33663306993485,-0.4257,0.3591,-0.2217,-0.8004
233,3724036.0,1977.104243,1.0,-6.49,0.48,5.67,39.0,-13.56,-19.19,-31.87,143.69,-3.19,-0.1289555127640294,-0.0976689618984914,1.1768625605777832,42.08986846540722,-25.617803632217928,-106.33663306993485,-0.4257,0.3591,-0.2217,-0.8004
234,3724072.0,1977.1230480000002,1.0,-6.96,0.49,6.23,40.19,-13.19,-16.37,-14.75,25.62,-5.5,-0.3919072525329748,-0.4349461260879575,0.4711355217929647,43.93739653048951,-25.99399574998519,-105.34830046023008,-0.42100000000000004,0.3741,-0.2249,-0.7952
235,3724072.0,1977.1230480000002,1.0,-6.96,0.49,6.23,40.19,-13.19,-16.37,-14.75,25.62,-5.5,-0.3919072525329748,-0.4349461260879575,0.4711355217929647,43.93739653048951,-25.99399574998519,-105.34830046023008,-0.42100000000000004,0.3741,-0.2249,-0.7952
236,3724109.0,1977.184722,1.0,-9.66,0.01,8.5,41.25,-12.5,-13.38,-14.13,56.0,-12.5,-0.10771215540025547,-0.9553809791816326,-3.0246143677931063,44.85325420187507,-25.876405289927124,-104.83951599711521,-0.4199,0.3815,-0.2239,-0.7925
237,3724109.0,1977.184722,1.0,-9.66,0.01,8.5,41.25,-12.5,-13.38,-14.13,56.0,-12.5,-0.10771215540025547,-0.9553809791816326,-3.0246143677931063,44.85325420187507,-25.876405289927124,-104.83951599711521,-0.4199,0.3815,-0.2239,-0.7925
238,3724144.0,1977.18842,1.0,-6.44,0.35,5.13,41.25,-12.5,-13.38,-11.94,109.06,-2.44,-0.4541982149662531,-0.4472078112279705,1.590403341391328,47.982860599138895,-26.817917077101303,-102.75951351944929,-0.413,0.4066,-0.2319,-0.7813
239,3724144.0,1977.18842,1.0,-6.44,0.35,5.13,41.25,-12.5,-13.38,-11.94,109.06,-2.44,-0.4541982149662531,-0.4472078112279705,1.590403341391328,47.982860599138895,-26.817917077101303,-102.75951351944929,-0.413,0.4066,-0.2319,-0.7813
240,3724179.0,1977.232248,1.0,-7.72,0.12,5.4,42.0,-12.06,-13.38,-1.0,-9.38,-4.94,-0.08229051993791836,-0.27987388302849325,0.389235339918022,48.91271498969397,-26.9593013980579,-102.11916897408959,-0.4115,0.414,-0.2331,-0.7778
241,3724179.0,1977.232248,1.0,-7.72,0.12,5.4,42.0,-12.06,-13.38,-1.0,-9.38,-4.94,-0.08229051993791836,-0.27987388302849325,0.389235339918022,48.91271498969397,-26.9593013980579,-102.11916897408959,-0.4115,0.414,-0.2331,-0.7778
242,3724214.0,1977.2503,1.0,-8.01,0.25,5.7,42.0,-11.69,-11.0,-2.44,36.5,0.44,-0.3057715076954265,-0.37486618370421604,-0.01570099807559977,49.492462296741046,-27.183245547895737,-101.64633756490149,-0.4106,0.4186,-0.235,-0.7752
243,3724214.0,1977.2503,1.0,-8.01,0.25,5.7,42.0,-11.69,-11.0,-2.44,36.5,0.44,-0.3057715076954265,-0.37486618370421604,-0.01570099807559977,49.492462296741046,-27.183245547895737,-101.64633756490149,-0.4106,0.4186,-0.235,-0.7752
244,3724251.0,1977.314137,1.0,-8.29,-0.24,4.9,42.38,-11.38,-9.69,10.13,31.12,-0.19,0.4813072117336885,-0.0974300149706624,0.18633031923491927,50.187419272308674,-27.784885032921768,-100.86955398800987,-0.41,0.4241,-0.2401,-0.7709
245,3724251.0,1977.314137,1.0,-8.29,-0.24,4.9,42.38,-11.38,-9.69,10.13,31.12,-0.19,0.4813072117336885,-0.0974300149706624,0.18633031923491927,50.187419272308674,-27.784885032921768,-100.86955398800987,-0.41,0.4241,-0.2401,-0.7709
246,3724285.0,1977.317191,1.0,-8.47,0.06,5.03,42.38,-11.38,-9.69,-1.06,14.25,-2.88,0.1578951796838074,-0.04683633887870675,-0.043135554497778734,50.75749078075491,-28.115528300006982,-100.33136679814685,-0.4094,0.4286,-0.2429,-0.7679
247,3724285.0,1977.317191,1.0,-8.47,0.06,5.03,42.38,-11.38,-9.69,-1.06,14.25,-2.88,0.1578951796838074,-0.04683633887870675,-0.043135554497778734,50.75749078075491,-28.115528300006982,-100.33136679814685,-0.4094,0.4286,-0.2429,-0.7679
248,3724322.0,1977.362257,1.0,-8.62,0.09,5.28,42.75,-11.75,-8.5,-1.88,-0.88,-5.19,0.04008480365556055,-0.14889683808230034,-0.3011253704821204,50.858977326379346,-28.080090858618394,-100.2240929390682,-0.4099,0.4294,-0.2426,-0.7673
249,3724322.0,1977.362257,1.0,-8.62,0.09,5.28,42.75,-11.75,-8.5,-1.88,-0.88,-5.19,0.04008480365556055,-0.14889683808230034,-0.3011253704821204,50.858977326379346,-28.080090858618394,-100.2240929390682,-0.4099,0.4294,-0.2426,-0.7673
250,3724357.0,1977.430336,1.0,-8.28,-0.06,5.18,43.19,-11.75,-8.5,7.56,12.94,2.56,0.11542791842309395,-0.3292552086004257,0.045878134862590514,50.88435563772038,-28.26912231018425,-100.09909176327572,-0.41,0.4296,-0.2442,-0.7666
251,3724357.0,1977.430336,1.0,-8.28,-0.06,5.18,43.19,-11.75,-8.5,7.56,12.94,2.56,0.11542791842309395,-0.3292552086004257,0.045878134862590514,50.88435563772038,-28.26912231018425,-100.09909176327572,-0.41,0.4296,-0.2442,-0.7666
252,3724392.0,1977.445191,1.0,-8.68,-0.32,5.1,43.19,-11.75,-8.5,17.44,11.44,-3.13,0.4951229647098223,-0.2868948464197289,-0.2495592558237245,50.87166614791169,-28.65924846946876,-99.77840482252957,-0.4116,0.4295,-0.2475,-0.7648
253,3724392.0,1977.445191,1.0,-8.68,-0.32,5.1,43.19,-11.75,-8.5,17.44,11.44,-3.13,0.4951229647098223,-0.2868948464197289,-0.2495592558237245,50.87166614791169,-28.65924846946876,-99.77840482252957,-0.4116,0.4295,-0.2475,-0.7648
254,3724427.0,1977.500711,1.0,-8.79,0.03,5.18,42.75,-12.19,-8.88,6.31,2.69,-5.5,0.16155757201539933,-0.15861126495918376,-0.3936510552410919,51.138286174965344,-28.81302746748213,-99.49424158104073,-0.4114,0.4316,-0.2488,-0.7632
255,3724427.0,1977.500711,1.0,-8.79,0.03,5.18,42.75,-12.19,-8.88,6.31,2.69,-5.5,0.16155757201539933,-0.15861126495918376,-0.3936510552410919,51.138286174965344,-28.81302746748213,-99.49424158104073,-0.4114,0.4316,-0.2488,-0.7632
256,3724462.0,1977.5188739999999,1.0,-8.76,0.05,5.55,42.75,-12.5,-8.5,10.0,-0.69,-6.25,-0.04343264485977039,-0.4439572316723346,-0.5540264056120527,51.23993373594613,-28.81302746748213,-99.47650902646944,-0.4109,0.4324,-0.2488,-0.7631
257,3724462.0,1977.5188739999999,1.0,-8.76,0.05,5.55,42.75,-12.5,-8.5,10.0,-0.69,-6.25,-0.04343264485977039,-0.4439572316723346,-0.5540264056120527,51.23993373594613,-28.81302746748213,-99.47650902646944,-0.4109,0.4324,-0.2488,-0.7631
258,3724496.0,1977.574134,1.0,-8.57,-0.09,5.35,42.75,-12.5,-8.5,10.31,5.56,-3.69,0.11001825621881656,-0.4690635702698276,-0.2850978838080547,51.20181083863504,-29.06155185997118,-99.17554944715711,-0.4131,0.4321,-0.2509,-0.7614
259,3724496.0,1977.574134,1.0,-8.57,-0.09,5.35,42.75,-12.5,-8.5,10.31,5.56,-3.69,0.11001825621881656,-0.4690635702698276,-0.2850978838080547,51.20181083863504,-29.06155185997118,-99.17554944715711,-0.4131,0.4321,-0.2509,-0.7614
260,3724531.0,1977.581936,1.0,-8.8,0.03,5.32,42.38,-11.0,-7.5,-1.37,6.13,-7.06,0.03968499551589433,-0.2918174040529464,-0.4722880630404962,51.37976979085595,-29.06155185997118,-98.84027760077332,-0.4151,0.4335,-0.2509,-0.7595
261,3724531.0,1977.581936,1.0,-8.8,0.03,5.32,42.38,-11.0,-7.5,-1.37,6.13,-7.06,0.03968499551589433,-0.2918174040529464,-0.4722880630404962,51.37976979085595,-29.06155185997118,-98.84027760077332,-0.4151,0.4335,-0.2509,-0.7595
262,3724566.0,1977.6026760000002,1.0,-8.13,0.16,5.25,42.38,-11.38,-8.38,0.25,9.13,-1.56,-0.2709753045940784,-0.4775258796313915,0.14313400329453785,51.723352699323634,-29.02603985005446,-98.69945281813551,-0.414,0.4362,-0.2506,-0.7587
263,3724566.0,1977.6026760000002,1.0,-8.13,0.16,5.25,42.38,-11.38,-8.38,0.25,9.13,-1.56,-0.2709753045940784,-0.4775258796313915,0.14313400329453785,51.723352699323634,-29.02603985005446,-98.69945281813551,-0.414,0.4362,-0.2506,-0.7587
264,3724603.0,1977.642718,1.0,-8.87,-0.11,5.54,42.38,-10.56,-7.06,10.56,-6.31,-5.81,0.04808960337638979,-0.5097841760211552,-0.6393256597421519,51.50696474252449,-29.09706672256259,-98.59396637382844,-0.4163,0.4345,-0.2512,-0.7581
265,3724603.0,1977.642718,1.0,-8.87,-0.11,5.54,42.38,-10.56,-7.06,10.56,-6.31,-5.81,0.04808960337638979,-0.5097841760211552,-0.6393256597421519,51.50696474252449,-29.09706672256259,-98.59396637382844,-0.4163,0.4345,-0.2512,-0.7581
266,3724636.0,1977.707098,1.0,-8.57,0.01,5.04,42.38,-10.56,-7.06,4.13,11.0,-3.81,0.06307770721333095,-0.2307352932851652,-0.13263480461674249,51.634227840640925,-29.310216034057568,-98.22564887658442,-0.4179,0.4355,-0.253,-0.7559999999999999
267,3724636.0,1977.707098,1.0,-8.57,0.01,5.04,42.38,-10.56,-7.06,4.13,11.0,-3.81,0.06307770721333095,-0.2307352932851652,-0.13263480461674249,51.634227840640925,-29.310216034057568,-98.22564887658442,-0.4179,0.4355,-0.253,-0.7559999999999999
268,3724673.0,1977.7240980000001,1.0,-8.11,0.17,5.17,42.38,-12.5,-7.06,-3.19,4.44,-4.25,-0.29835297023503216,-0.4572239822832029,0.20290949251141832,51.9909293300881,-29.19178700040293,-98.20814407664992,-0.4159,0.4383,-0.252,-0.7559
269,3724673.0,1977.7240980000001,1.0,-8.11,0.17,5.17,42.38,-12.5,-7.06,-3.19,4.44,-4.25,-0.29835297023503216,-0.4572239822832029,0.20290949251141832,51.9909293300881,-29.19178700040293,-98.20814407664992,-0.4159,0.4383,-0.252,-0.7559
270,3724709.0,1977.782348,1.0,-8.33,0.25,5.41,43.19,-11.69,-8.0,2.06,-9.13,-3.5,-0.4130557944016914,-0.456843610505621,-0.11001167751281926,51.88895954474002,-28.93135507220408,-98.41840599370691,-0.41600000000000004,0.4375,-0.2498,-0.7571
271,3724709.0,1977.782348,1.0,-8.33,0.25,5.41,43.19,-11.69,-8.0,2.06,-9.13,-3.5,-0.4130557944016914,-0.456843610505621,-0.11001167751281926,51.88895954474002,-28.93135507220408,-98.41840599370691,-0.41600000000000004,0.4375,-0.2498,-0.7571
272,3724742.0,1977.802007,1.0,-8.6,-0.11,5.0,43.19,-11.69,-8.0,10.0,-2.63,-7.19,0.1754182802834613,-0.18913172392109368,-0.13847733040402055,51.583314406764714,-28.93135507220408,-98.40086710313936,-0.4186,0.4351,-0.2498,-0.757
273,3724742.0,1977.802007,1.0,-8.6,-0.11,5.0,43.19,-11.69,-8.0,10.0,-2.63,-7.19,0.1754182802834613,-0.18913172392109368,-0.13847733040402055,51.583314406764714,-28.93135507220408,-98.40086710313936,-0.4186,0.4351,-0.2498,-0.757
274,3724777.0,1977.8539420000002,1.0,-8.4,0.21,5.13,43.88,-10.56,-6.25,0.94,-0.56,-2.19,-0.22196526551961027,-0.2124421531700198,-0.03340080029871295,51.64695790877244,-29.002366759572602,-98.26066774517868,-0.4193,0.4356,-0.2504,-0.7562
275,3724777.0,1977.8539420000002,1.0,-8.4,0.21,5.13,43.88,-10.56,-6.25,0.94,-0.56,-2.19,-0.22196526551961027,-0.2124421531700198,-0.03340080029871295,51.64695790877244,-29.002366759572602,-98.26066774517868,-0.4193,0.4356,-0.2504,-0.7562
276,3724812.0,1977.862321,1.0,-8.52,0.05,5.42,43.5,-11.0,-7.5,2.38,-9.0,-1.94,-0.16599811475463866,-0.4265284108400049,-0.28095715634010965,51.48152030899618,-28.860354735501215,-98.43594799577524,-0.4194,0.4343,-0.2492,-0.7572
277,3724812.0,1977.862321,1.0,-8.52,0.05,5.42,43.5,-11.0,-7.5,2.38,-9.0,-1.94,-0.16599811475463866,-0.4265284108400049,-0.28095715634010965,51.48152030899618,-28.860354735501215,-98.43594799577524,-0.4194,0.4343,-0.2492,-0.7572
278,3724847.0,1977.9284519999999,1.0,-8.57,0.07,5.09,43.5,-11.0,-7.5,0.75,1.81,0.37,-0.010523229903488085,-0.13221952290096814,-0.16031078347839234,51.35433895468569,-28.848522447292034,-98.4534931114122,-0.4203,0.4333,-0.2491,-0.7573
279,3724847.0,1977.9284519999999,1.0,-8.57,0.07,5.09,43.5,-11.0,-7.5,0.75,1.81,0.37,-0.010523229903488085,-0.13221952290096814,-0.16031078347839234,51.35433895468569,-28.848522447292034,-98.4534931114122,-0.4203,0.4333,-0.2491,-0.7573
280,3724879.0,1977.936798,1.0,-8.4,0.05,5.02,43.5,-10.19,-7.06,4.31,0.06,0.06,-0.007905864173640142,-0.1777461017057771,0.022415547543328532,51.37976979085595,-28.943189564308163,-98.38333132200674,-0.4203,0.4335,-0.2499,-0.7569
281,3724879.0,1977.936798,1.0,-8.4,0.05,5.02,43.5,-10.19,-7.06,4.31,0.06,0.06,-0.007905864173640142,-0.1777461017057771,0.022415547543328532,51.37976979085595,-28.943189564308163,-98.38333132200674,-0.4203,0.4335,-0.2499,-0.7569
282,3724914.0,1977.956116,1.0,-8.92,0.0,5.32,43.5,-10.56,-6.69,2.94,-6.38,-0.37,0.06394612809454414,-0.1857026547865144,-0.5774833493319029,51.20181083863504,-28.93135507220408,-98.4710413426878,-0.42100000000000004,0.4321,-0.2498,-0.7574
283,3724914.0,1977.956116,1.0,-8.92,0.0,5.32,43.5,-10.56,-6.69,2.94,-6.38,-0.37,0.06394612809454414,-0.1857026547865144,-0.5774833493319029,51.20181083863504,-28.93135507220408,-98.4710413426878,-0.42100000000000004,0.4321,-0.2498,-0.7574
284,3724951.0,1978.002664,1.0,-8.36,0.05,5.08,43.19,-10.56,-7.06,0.75,7.44,-0.25,-0.03859460242017998,-0.24464350449166286,0.02722465837720733,51.34162455414572,-29.02603985005446,-98.34826907979405,-0.4207,0.4332,-0.2506,-0.7567
285,3724951.0,1978.002664,1.0,-8.36,0.05,5.08,43.19,-10.56,-7.06,0.75,7.44,-0.25,-0.03859460242017998,-0.24464350449166286,0.02722465837720733,51.34162455414572,-29.02603985005446,-98.34826907979405,-0.4207,0.4332,-0.2506,-0.7567
286,3724984.0,1978.069118,1.0,-8.23,-0.09,5.06,43.19,-10.56,-7.06,0.31,1.37,1.06,0.0467660877915016,-0.3714951814981011,0.15240718851258528,51.41792113681584,-29.073389830335397,-98.27818181792992,-0.4205,0.4338,-0.251,-0.7563
287,3724984.0,1978.069118,1.0,-8.23,-0.09,5.06,43.19,-10.56,-7.06,0.31,1.37,1.06,0.0467660877915016,-0.3714951814981011,0.15240718851258528,51.41792113681584,-29.073389830335397,-98.27818181792992,-0.4205,0.4338,-0.251,-0.7563
288,3725021.0,1978.073746,1.0,-8.59,-0.16,5.02,44.25,-11.0,-5.06,4.06,0.44,-0.88,0.2330724074027528,-0.2083617353836662,-0.13902054753652315,51.278062716299324,-29.073389830335397,-98.27818181792992,-0.4216,0.4327,-0.251,-0.7563
289,3725021.0,1978.073746,1.0,-8.59,-0.16,5.02,44.25,-11.0,-5.06,4.06,0.44,-0.88,0.2330724074027528,-0.2083617353836662,-0.13902054753652315,51.278062716299324,-29.073389830335397,-98.27818181792992,-0.4216,0.4327,-0.251,-0.7563
