TIME,ELAPSED_SECONDS,PSTATE,acc_x,acc_y,acc_z,mag_x,mag_y,mag_z,gyr_x,gyr_y,gyr_z,lin_x,lin_y,lin_z,eul_x,eul_y,eul_z,qua_w,qua_x,qua_y,qua_z
1171339.0,60.910745,1.0,-6.09,-1.37,-7.25,8.5,-8.06,39.06,-1.12,-0.44,1.44,-0.17477434576226025,-0.18672287401927834,0.2430686364949377,-116.79410996273165,47.431566664841,30.425034873037013,0.2098,-0.8517,0.4022,0.2624
1171372.0,60.963601000000004,1.0,-6.03,-1.33,-7.54,8.5,-8.06,39.06,-0.12,1.44,1.63,-0.0933325651960326,0.02803695324727684,0.0612971094410053,-116.79410996273165,47.46911772602086,30.401284991821623,0.2095,-0.8517,0.4025,0.2622
1171408.0,60.984292,1.0,-6.04,-1.23,-7.5,8.75,-8.06,39.06,-0.94,3.06,-0.06,-0.1895469004077478,0.03967572316826407,0.10062105869054072,-116.83785829536993,47.50667419847937,30.353789240195113,0.2087,-0.8519,0.4028,0.2618
1171443.0,60.98751800000001,1.0,-6.03,-1.36,-7.41,8.75,-8.06,38.25,-0.5,3.25,-0.63,-0.11749159942913225,-0.08992887846996434,0.15798643861074702,-116.88163381383896,47.50667419847937,30.270684516880635,0.2086,-0.8521,0.4028,0.2611
1171476.0,61.032056000000004,1.0,-5.94,-1.21,-7.93,8.75,-8.06,38.25,-0.69,5.5,-0.63,-0.06566331655563074,0.31535539337085905,-0.16976415062199912,-117.013124056645,47.53171485619927,30.09265778200395,0.2078,-0.8527,0.40299999999999997,0.2596
1171513.0,61.050484,1.0,-5.88,-1.46,-8.13,7.69,-8.5,39.5,0.5,-0.75,-2.56,0.2111100515133332,0.3117786007744993,-0.32553271895296554,-117.07896160834984,47.46911772602086,30.045196559032803,0.2077,-0.853,0.4025,0.2592
1171550.0,61.09057900000001,1.0,-6.03,-1.68,-7.66,7.0,-8.5,39.88,3.94,-1.75,-0.75,0.16778037400677634,-0.14646994146924674,-0.0832082549167108,-117.03506304367224,47.4440830843744,30.057061369867114,0.2089,-0.8528,0.4023,0.2593
1171582.0,61.098170999999994,1.0,-6.06,-1.4,-7.41,7.0,-8.5,39.88,-1.94,-1.94,1.06,-0.12799188148259033,-0.13777708164287938,0.13419759360127334,-117.013124056645,47.431566664841,30.12825716684205,0.2087,-0.8527,0.4022,0.2599
1171617.0,61.115159999999996,1.0,-6.01,-1.38,-7.55,9.19,-8.06,39.06,0.25,-1.75,0.25,-0.06884149000738092,-0.009175448444534995,0.05871808290089753,-116.96926663704076,47.431566664841,30.19946487135094,0.2089,-0.8525,0.4022,0.2605
1171652.0,61.199543999999996,1.0,-6.1,-1.56,-7.39,8.06,-8.06,38.69,1.06,-2.0,-0.75,-0.015528686503655909,-0.2465043796250612,0.10125487920655553,-116.9473481900315,47.40653562717492,30.24694330618832,0.2093,-0.8524,0.402,0.2609
1171687.0,61.20454300000001,1.0,-6.02,-1.39,-7.51,8.06,-8.06,38.69,0.0,-0.69,1.5,-0.06812567846836147,-0.028496158340701294,0.0820859038107482,-116.90353178561008,47.431566664841,30.28255562108873,0.2094,-0.8522,0.4022,0.2612
1171720.0,61.254853000000004,1.0,-6.1,-1.55,-7.45,9.19,-8.5,38.25,1.06,-0.63,0.0,0.0005489398223057496,-0.18603701141194606,0.0557326109001437,-116.81598073438593,47.4440830843744,30.318170931025325,0.2102,-0.8518,0.4023,0.2615
1171755.0,61.317,1.0,-6.02,-1.28,-7.68,8.06,-7.69,40.25,-2.0,0.63,1.37,-0.1031859935074244,0.13967325463290448,-0.033626623788789445,-116.83785829536993,47.46911772602086,30.318170931025325,0.2097,-0.8519,0.4025,0.2615
1171789.0,61.324698,1.0,-5.92,-1.49,-7.92,8.5,-8.06,39.5,3.5,-1.37,0.88,0.1838534589773088,0.22352133895384765,-0.18880577333291804,-116.72853831267862,47.50667419847937,30.33004336729311,0.2104,-0.8514,0.4028,0.2616
1171824.0,61.385652,1.0,-5.96,-1.5,-7.72,8.5,-8.06,39.5,2.25,-1.81,1.63,0.11477172515551105,0.0956476899377049,-0.05984273908993565,-116.66302751124852,47.544236088592434,30.353789240195113,0.2112,-0.8511,0.4031,0.2618
1171861.0,61.40315699999999,1.0,-6.04,-1.27,-7.38,8.06,-7.25,39.88,3.94,-1.06,1.31,-0.20232868684427965,0.0020205504649681853,0.1880243694925081,-116.55397754456402,47.619376147320615,30.377536447956228,0.2119,-0.8506,0.4037,0.262
1171894.0,61.446752000000004,1.0,-5.92,-1.22,-7.51,8.5,-7.69,39.06,4.88,0.81,-1.06,-0.15444406333415014,0.18451197646848416,0.1693784793962294,-116.4886280777146,47.66948159847917,30.318170931025325,0.2128,-0.8503,0.4041,0.2615
1171929.0,61.463483999999994,1.0,-6.08,-1.77,-7.52,8.5,-7.69,39.06,12.5,-0.5,-3.88,0.15064280004175512,-0.18244069645530314,-0.021560525781003648,-116.42333876589676,47.66948159847917,30.116390374671145,0.2159,-0.85,0.4041,0.2598
1171963.0,61.508098,1.0,-5.94,-1.59,-7.83,8.5,-8.5,39.06,8.0,3.0,1.63,0.13374297655243114,0.19654906405304207,-0.1464440557016129,-116.35810942215919,47.74465793118145,29.96215210560615,0.2175,-0.8497,0.4047,0.2585
1172000.0,61.52950600000001,1.0,-6.0,-1.77,-7.68,9.56,-7.25,37.88,11.81,-2.0,0.12,0.16892738632689575,0.009943847320387113,-0.09722119555021358,-116.18445627109944,47.88253794953186,29.80796936990455,0.2205,-0.8489,0.4058,0.2572
1172035.0,61.571684,1.0,-6.07,-1.72,-7.5,9.56,-7.25,37.88,7.25,-0.12,0.69,0.0267286420489512,-0.07882216658474063,0.0063248704061305006,-116.05449328856251,47.94523502960248,29.748683032968092,0.2224,-0.8483,0.4063,0.2567
1172068.0,61.589167,1.0,-6.08,-1.54,-7.42,9.19,-6.19,39.06,10.81,0.19,2.94,-0.17312943108783052,-0.00018771792652261246,0.09251462082943897,-115.81683895855758,48.14596836117922,29.59457663056109,0.225,-0.8472,0.4079,0.2554
1172103.0,61.633998,1.0,-6.05,-1.71,-7.5,8.75,-6.19,38.75,7.06,1.56,0.69,-0.02839832095791317,-0.02269384362968574,0.02016551757077245,-115.73061389075428,48.25894988610853,29.428677083635286,0.2264,-0.8468,0.4088,0.254
1172137.0,61.69911,1.0,-6.24,-1.54,-7.03,8.75,-6.19,38.75,7.5,1.81,0.37,-0.4036937056378459,-0.2994691892496657,0.29468650150409026,-115.64449198892322,48.3342986251064,29.32206069578229,0.2279,-0.8464,0.4094,0.2531
1172172.0,61.718949,1.0,-6.1,-1.77,-7.4,9.19,-6.56,39.19,11.88,9.81,-2.44,-0.12247366110586046,-0.13724842458556075,0.05631343799947785,-115.70907375985723,48.42223359833176,28.89585348706327,0.2294,-0.8467,0.4101,0.2495
1172205.0,61.82080600000001,1.0,-5.89,-1.99,-7.44,9.19,-5.75,38.88,9.94,12.75,-2.0,0.10874323376653784,-0.12569914613072095,0.1124159078309841,-115.77371350268422,48.522767881927,28.45823232032684,0.2308,-0.847,0.4109,0.2458
1172242.0,61.824272,1.0,-5.66,-2.07,-7.87,7.25,-4.25,40.0,9.69,14.94,2.31,0.30390476776402564,0.16661260013719706,-0.09977630485918,-115.88157571501448,48.79944259465472,27.784885032921768,0.2311,-0.8475,0.4131,0.2401
1172277.0,61.865469,1.0,-5.73,-2.71,-7.6,7.25,-4.25,40.0,15.0,7.75,7.63,0.6694214679998037,-0.3877722386225284,-0.05937795400128287,-115.60146959454927,49.27805128980349,27.312945744821853,0.2333,-0.8462,0.4169,0.2361
1172312.0,61.884138,1.0,-5.7,-1.91,-7.29,7.0,-4.25,40.0,1.06,22.37,17.69,-0.037155070351386654,-0.19653221820362649,0.3598413013994417,-115.42963584973434,49.84601386938241,26.94751777725,0.231,-0.8454,0.4214,0.233
1172348.0,61.924861,1.0,-5.56,-2.05,-7.72,7.25,-3.56,39.56,12.75,44.25,19.0,0.16529172709447434,-0.07981250666708406,0.07624360516049045,-115.23680905302649,50.820914868829576,25.970475433904987,0.228,-0.8445,0.4291,0.2247
1172381.0,61.949286,1.0,-5.36,-1.73,-7.9,7.25,-3.56,39.56,1.12,42.69,17.81,-0.07948783965686834,0.05975227416609561,0.10496914825689883,-115.34387175567551,52.00367866289412,24.467440757791284,0.2214,-0.845,0.4384,0.2119
1172416.0,61.952439,1.0,-5.31,-1.55,-7.96,4.0,-5.06,40.38,4.5,40.5,14.25,-0.2996768194391569,-0.00793039611784363,0.117979765509185,-115.30102772408483,53.06431134668802,23.12070182440919,0.2158,-0.8448,0.4467,0.2004
1172453.0,62.015948,1.0,-5.1,-1.63,-8.0,2.19,-3.56,40.75,9.69,46.06,12.13,-0.2228589043449188,-0.05321994617464798,0.18301235376230984,-115.04449255970869,54.12986845766676,21.90556839778225,0.2129,-0.8436,0.455,0.19
1172486.0,62.019202,1.0,-4.9,-1.66,-7.88,2.19,-3.56,40.75,15.0,61.63,9.13,-0.2459199933733736,-0.19105956477811592,0.3852371760353249,-115.1726470817956,54.864572903487776,20.48328434708745,0.2087,-0.8442,0.4607,0.1778
1172520.0,62.10915,1.0,-4.53,-1.74,-8.08,1.37,-4.69,40.75,21.56,95.69,9.56,-0.2789324938415213,-0.26371016464720376,0.3892430525998272,-115.51550165897758,56.14650176459217,17.439320584956548,0.2007,-0.8458,0.4706,0.1516
1172555.0,62.119027,1.0,-3.9,-2.25,-8.7,-0.75,-2.5,41.19,21.25,112.12,12.69,0.2103797057300939,-0.1452096052105012,0.01394074515272159,-115.45109275023191,57.63221366567701,14.419262116395176,0.1924,-0.8455,0.48200000000000004,0.1255
1172592.0,62.16708199999999,1.0,-3.1,-2.14,-9.3,-6.06,-2.75,40.0,10.31,109.12,13.13,0.144883206446751,0.19113721774035164,-0.2244055486690506,-115.38674111389929,59.43183945325738,10.545844298925708,0.1777,-0.8452,0.4957,0.0919
1172627.0,62.193349,1.0,-2.63,-2.16,-9.15,-6.06,-2.75,40.0,15.44,103.37,17.25,0.12664081873975996,0.08956567182499198,0.04545437172476774,-115.23680905302649,60.55652194040018,7.786758050274272,0.1672,-0.8445,0.5042,0.0679
1172664.0,62.197315,1.0,-2.15,-2.05,-9.29,-9.75,-1.69,40.38,11.19,111.62,13.75,-0.08455423679111422,0.023112876202561417,0.0536291153717734,-114.57650555012708,62.30262894881712,4.149120969117045,0.1523,-0.8414,0.5173,0.0362
1172699.0,62.263645,1.0,-1.26,-2.27,-9.86,-14.25,-2.19,40.06,7.69,110.25,12.69,0.1121188988567252,0.2380685254713366,-0.3860362371849284,-113.98515404910734,63.713859708187826,0.4469082131192447,0.1351,-0.8386,0.5278,0.0039
1172733.0,62.268262,1.0,-0.78,-1.83,-9.88,-14.25,-2.19,40.06,13.56,86.94,18.75,-0.2951728097421984,0.4678608739708868,-0.25643497504598045,-113.3567321523323,64.63357693133646,-1.856464464018338,0.1251,-0.8356,0.5346,-0.0162
1172766.0,62.31824,1.0,-0.45,-2.04,-10.0,-18.19,-0.69,38.88,14.81,86.62,11.69,-0.30735222022744463,0.2266423193813891,-0.4020848810607589,-112.19747600626744,65.9810040052897,-4.928956774809122,0.1135,-0.83,0.5445,-0.043
1172803.0,62.337469999999996,1.0,0.1,-2.1,-9.87,-22.0,-1.06,38.19,4.69,73.31,12.44,-0.19175032049494167,0.3627717085784004,-0.2764312999819261,-111.58357510903522,66.61058219226842,-6.868145731332586,0.1046,-0.8270000000000001,0.5491,-0.0599
1172840.0,62.39201600000001,1.0,0.25,-2.04,-9.93,-24.5,0.75,37.06,2.25,57.38,10.19,-0.3680791281704615,0.17789877792208084,-0.32556939064778945,-110.87341536801529,67.29749473790226,-8.809306149715164,0.0943,-0.8235,0.5541,-0.0768
1172875.0,62.395015,1.0,0.84,-2.0,-10.51,-24.5,0.75,37.06,-2.75,26.94,6.13,-0.3873246606231899,0.6021726537927032,-0.9009672747393882,-110.51066825702887,67.64197933171232,-9.660046657878476,0.0889,-0.8217,0.5566,-0.0842
1172910.0,62.47379100000001,1.0,0.44,-2.06,-9.99,-26.75,0.69,35.5,5.13,2.88,10.81,-0.389554342672174,0.14945676932414198,-0.39448768597446815,-110.10954773943891,68.0148037838229,-9.936074868420336,0.0883,-0.8197,0.5593,-0.0866
1172946.0,62.48270600000001,1.0,0.44,-1.99,-9.86,-27.37,1.37,35.56,2.44,10.19,8.75,-0.4543335780870034,0.15013153061572448,-0.25040431641579985,-109.77016866117764,68.31919267545712,-10.166142467644526,0.0883,-0.818,0.5615,-0.0886
1172979.0,62.528886,1.0,0.64,-1.88,-10.34,-27.37,1.37,35.56,-2.44,9.75,3.0,-0.6156230224139534,0.3361718223973462,-0.6989483551675892,-109.57120014176904,68.51318055335086,-10.430771068314456,0.0862,-0.8170000000000001,0.5629,-0.0909
1173016.0,62.546576,1.0,0.49,-1.99,-10.1,-27.69,0.69,35.69,0.94,1.37,3.0,-0.5198535255566488,0.1427149319049814,-0.4850740907526099,-109.43221295455638,68.63800520067792,-10.499813733449363,0.0862,-0.8163,0.5638,-0.0915
1173051.0,62.589438,1.0,0.5,-1.8,-9.88,-26.87,1.37,35.38,-6.56,5.38,0.75,-0.6071879734005575,0.1759402166285854,-0.2285265208754765,-109.37271990346242,68.73515523864087,-10.48830635783265,0.084,-0.816,0.5645,-0.0914
1173086.0,62.653503,1.0,0.44,-1.88,-10.04,-26.87,1.37,35.38,1.88,3.13,-3.88,-0.595230175380171,0.06886811772150514,-0.3997479062487273,-109.43221295455638,68.67963404083082,-10.580368342525214,0.0829,-0.8163,0.5641,-0.0922
1173118.0,62.672245999999994,1.0,0.58,-1.82,-9.95,-27.25,1.06,34.88,-3.69,-0.12,-3.63,-0.5406588641963672,0.20062529501797546,-0.3086224868668204,-109.63083923692189,68.55477847008558,-10.453784866884499,0.0812,-0.8173,0.5632,-0.0911
1173155.0,62.718814,1.0,0.7,-1.83,-10.09,-27.56,1.0,35.69,-1.25,-1.94,-7.81,-0.4862068718595264,0.28619400333458345,-0.4563269497067442,-109.53146516582777,68.69351261670525,-10.373238415502241,0.079,-0.8168,0.5642,-0.0904
1173188.0,62.780921,1.0,0.61,-2.23,-10.03,-27.56,1.0,35.69,-1.56,-9.94,-10.75,-0.1053739741643579,0.07477562850231201,-0.4855414542506882,-109.90973941260323,68.36074272349704,-10.14313387414705,0.0789,-0.8187,0.5618,-0.0884
1173223.0,62.788895999999994,1.0,0.39,-1.75,-9.79,-27.56,1.25,34.88,-3.31,-21.37,-3.94,-0.5091288550519746,0.12294156013609492,-0.1323828091693482,-109.86983734458828,68.47159291816318,-9.60254790532585,0.0811,-0.8185,0.5626,-0.0837
1173258.0,62.847849,1.0,0.3,-2.27,-9.77,-27.56,0.56,36.06,4.88,-20.25,-9.56,-0.026700103847702827,-0.025602848653015764,-0.2280115089197369,-110.02956467321043,68.31919267545712,-9.016196458354324,0.0851,-0.8193,0.5615,-0.0786
1173295.0,62.852499,1.0,0.47,-2.08,-10.18,-26.56,0.19,36.06,-5.44,-21.62,-8.56,-0.175670425011346,0.30106354632073296,-0.5884546479991304,-110.2096390648013,68.18076625802583,-8.510515201802361,0.0869,-0.8202,0.5605,-0.0742
1173327.0,62.91820300000001,1.0,0.26,-2.2,-10.24,-26.56,0.19,36.06,-1.37,-36.06,-6.06,-0.058948534556996564,0.2638994956007066,-0.6667487858046997,-110.63139954579823,67.80757842682634,-7.430739554030821,0.0924,-0.8223,0.5578,-0.0648
1173364.0,62.978156999999996,1.0,-0.12,-1.91,-10.08,-25.37,0.19,35.69,-1.31,-38.75,-6.06,-0.3486535510088461,0.18224111243555569,-0.4458681725421574,-110.71198928258144,67.72475880644298,-6.48935022815341,0.0975,-0.8227,0.5572,-0.0566
1173401.0,63.003473,1.0,-0.24,-1.95,-9.96,-24.69,-0.06,37.69,-2.44,-45.44,-7.81,-0.2125334530337261,0.2992955026671906,-0.3386420969987256,-111.0351722213916,67.35256585531921,-5.089538374458754,0.1047,-0.8243,0.5545,-0.0444
1173436.0,63.045973,1.0,-0.57,-1.92,-9.74,-24.69,-0.06,37.69,1.69,-45.69,-4.13,-0.24941581598764084,0.18988465103898167,-0.1321947804578869,-111.27843287427478,67.03614692743177,-4.022990071019942,0.1115,-0.8255,0.5522,-0.0351
1173469.0,63.067576,1.0,-0.74,-2.24,-9.94,-22.37,-0.5,37.69,7.06,-41.31,-11.0,0.004132897563503907,0.2132669816945368,-0.40722781959803095,-111.60396041024364,66.50092772303125,-2.8192367490322434,0.1207,-0.8271,0.5483,-0.0246
1173506.0,63.11100500000001,1.0,-0.89,-2.14,-9.73,-21.69,0.19,37.69,3.44,-44.63,-5.06,-0.05145768898102804,0.29078616905944643,-0.1912195485652628,-111.52245118481588,66.41873200300768,-1.856464464018338,0.128,-0.8267,0.5477,-0.0162
1173542.0,63.129181,1.0,-1.11,-2.45,-9.77,-19.06,-0.5,39.25,2.38,-43.63,-5.81,0.20959201148521409,0.24162135577965185,-0.3217847413187602,-111.74680725300392,65.94002274269204,-0.6302567522155992,0.1366,-0.8278,0.5442,-0.0055
1173577.0,63.132335999999995,1.0,-1.44,-2.19,-9.55,-19.06,-0.5,39.25,0.75,-45.0,-4.0,-0.05211192361792923,0.18964474051456887,-0.09453776813226612,-111.86945684906635,65.59888072386629,0.3896120513439707,0.1429,-0.8284,0.5417,0.0034
1173614.0,63.16976700000001,1.0,-1.84,-2.46,-9.52,-17.56,-0.06,39.75,0.31,-48.06,-4.38,0.12747973134449944,0.008213800452182562,-0.1959137439397729,-111.9308545002648,65.14957239662155,1.8220825674649568,0.152,-0.8287,0.5384,0.0159
1173649.0,63.193252,1.0,-2.11,-2.27,-9.19,-15.38,-0.5,41.38,-3.06,-42.06,-3.31,-0.02468657885085157,-0.06141271996097841,0.10836566458006837,-112.01279388618185,64.79636344196814,2.910938660030132,0.1575,-0.8291,0.5358,0.0254
1173682.0,63.234384,1.0,-2.13,-2.21,-9.52,-15.38,-0.5,41.38,-1.5,-42.81,-4.56,-0.02008157541941241,0.2758485677650793,-0.19209513616536888,-112.09482025042286,64.34905178938227,4.229388694927676,0.1643,-0.8295,0.5325,0.0369
1173716.0,63.34944100000001,1.0,-2.65,-2.26,-9.09,-13.88,-0.06,41.5,-7.19,-60.56,-8.44,0.006578663068885549,-0.020764383248943245,0.07229200568006,-112.25913519470078,63.63292917864976,6.11062569758793,0.1728,-0.8303,0.5272,0.0533
1173753.0,63.410842,1.0,-3.11,-1.7,-8.52,-13.06,-0.5,40.56,-9.31,-36.25,-11.69,-0.5446136229413049,-0.2272466848546696,0.5977274275201303,-112.44441011743349,63.09429398938783,7.269980754447582,0.1769,-0.8312,0.5232,0.0634
1173788.0,63.417868999999996,1.0,-3.01,-2.34,-8.91,-13.06,-0.5,40.56,9.44,-11.75,-16.81,0.04088120496436677,-0.17037647216308716,0.11680476982145473,-112.8163105430652,62.516989117670676,7.6374510050387485,0.18,-0.833,0.5189,0.0666
1173823.0,63.434931999999996,1.0,-2.97,-2.64,-8.98,-10.88,-0.88,41.38,1.0,-2.31,-8.63,0.2644877607138741,-0.18567505528642347,-0.007954984321935754,-113.06525678920107,62.115262460964935,7.568544455864768,0.1832,-0.8342,0.5159,0.066
1173858.0,63.472628,1.0,-2.9,-2.96,-9.21,-10.5,0.19,42.19,-1.75,6.13,-2.88,0.5523891711327719,-0.19796756146624567,-0.2755806583524656,-113.00294363849156,62.262463418184296,7.407773121999347,0.1823,-0.8339,0.517,0.0646
1173895.0,63.479142,1.0,-2.68,-2.5,-9.51,-10.88,-1.25,41.0,-10.06,-5.88,7.25,0.26901937055229885,0.27854049677033466,-0.3777765312253383,-112.85774497558256,62.43657558225824,7.602997386301143,0.18100000000000002,-0.8332,0.5183,0.0663
1173927.0,63.601957999999996,1.0,-3.07,-2.23,-8.88,-10.88,-1.25,41.0,-4.19,-9.75,3.75,-0.0330570738245608,-0.13887401902854754,0.1509873486482558,-112.73350926918677,62.516989117670676,8.039461810968866,0.1808,-0.8326,0.5189,0.0701
1173964.0,63.6558,1.0,-3.07,-2.61,-9.18,-9.69,-1.25,41.38,-1.88,-3.38,7.0,0.3158782972568689,-0.16054903707493473,-0.21252386354865216,-112.58882301862495,62.63767369990508,8.22327089407658,0.1807,-0.8319,0.5198,0.0717
1174001.0,63.761587,1.0,-3.06,-2.56,-9.34,-9.69,-1.25,41.38,-13.81,-6.38,12.75,0.3744374037843545,-0.06448682272571671,-0.34265727095903564,-112.2796992436405,62.973315569507676,8.717364176475899,0.1783,-0.8304,0.5223,0.076
1174036.0,63.856179000000004,1.0,-2.91,-2.35,-9.6,-9.69,-1.25,41.38,-7.06,-10.63,12.56,0.3436283845004309,0.2621279226386126,-0.4872223756193339,-112.03329231056664,63.22880649321045,9.246109154854068,0.1765,-0.8292,0.5242,0.0806
1174069.0,63.964076,1.0,-2.99,-2.85,-9.93,-8.88,-1.25,41.38,-12.44,-27.62,21.06,0.9221961507311912,0.2630064601136006,-0.9053937761201816,-111.2987386824523,63.74084444335865,10.361732200036483,0.1774,-0.8256,0.528,0.0903
1174106.0,63.967898,1.0,-3.38,-2.4,-9.3,-9.25,-2.0,41.75,-38.0,-46.56,38.13,0.6646196335574327,0.010316487237226337,-0.3536932182570034,-110.4101987714497,64.33551407206754,12.088902226339815,0.17600000000000002,-0.8212,0.5324,0.1053
1174142.0,64.013633,1.0,-3.61,-1.48,-9.01,-7.38,-2.38,41.75,-47.06,-39.13,50.56,0.21492904037237004,0.1731155269902207,-0.007953227941490226,-108.87862832095405,65.57161767194049,14.673408500442047,0.1691,-0.8135,0.5415,0.1277
1174177.0,64.032287,1.0,-3.8,-0.78,-9.36,-7.38,-2.38,41.75,-49.81,-44.75,49.88,-0.10596339854028336,0.4924933168638077,-0.31284712638993994,-107.66593345101973,66.51463076702889,16.674558377811383,0.1627,-0.8073,0.5484,0.145
1174214.0,64.03563100000001,1.0,-4.2,0.14,-8.57,-6.69,-4.56,40.56,-43.31,-55.31,39.69,-0.6597936460527033,0.3312173544981581,0.2903761804471117,-106.01228040091104,67.43520561710105,19.66867198617123,0.1576,-0.7987,0.5551,0.1708
1174249.0,64.074656,1.0,-4.64,0.16,-8.24,-5.19,-6.06,41.06,-22.19,-43.38,19.56,-0.5984091106093947,-0.02369566041873972,0.367680509000623,-105.19724163612636,67.65577312725135,21.42721774773248,0.1567,-0.7944,0.5567,0.1859
1174284.0,64.081696,1.0,-4.79,0.0,-8.38,-5.19,-6.06,41.06,-4.13,-31.06,12.75,-0.3181509947738106,0.062264890609303736,0.1597125052340118,-104.29629314706915,67.86281386047486,22.816676842803346,0.1609,-0.7896,0.5582,0.1978
1174319.0,64.10045699999999,1.0,-5.02,-0.09,-7.98,-3.0,-6.88,41.06,1.0,-18.5,6.25,-0.2974235261172,-0.25283372440816354,0.3866439302613021,-103.88639399112431,67.94570061664109,23.38978453262475,0.1634,-0.7874,0.5588,0.2027
1174355.0,64.103873,1.0,-5.1,-0.38,-8.03,-2.19,-7.25,41.88,-10.31,-5.5,8.69,0.02839112251760645,-0.3422835183358837,0.2925900917779689,-103.6079880821084,68.02862779063561,23.858067126010045,0.1634,-0.7859,0.5594,0.2067
1174388.0,64.146589,1.0,-4.95,-0.03,-8.38,-2.19,-7.25,41.88,-19.25,-4.88,13.19,-0.11184098444747437,0.05308018602148956,0.0746166005479747,-103.36739654993116,68.20844247958603,24.279867169785643,0.1603,-0.7846,0.5607,0.2103
1174423.0,64.159645,1.0,-4.88,0.84,-8.4,-2.56,-7.56,40.25,-9.44,-1.0,2.25,-0.7830890627269251,0.3702820839642713,0.09430410942687928,-103.33043920857979,68.22228228779733,24.819321185763364,0.155,-0.7844,0.5608,0.2149
1174458.0,64.169313,1.0,-5.11,-0.35,-8.14,-2.5,-8.0,40.69,8.69,0.75,-3.56,0.2140564076927464,-0.3132318336620088,0.1967454389387182,-103.36739654993116,68.16692984371839,24.76065802803315,0.1562,-0.7846,0.5604,0.2144
1174493.0,64.172487,1.0,-5.05,-0.3,-8.39,-2.5,-8.06,41.06,-5.56,7.06,1.44,0.20492340150791666,-0.16444610769146514,0.013000839591017057,-103.47835920176271,68.18076625802583,24.54952511022461,0.1552,-0.7852,0.5605,0.2126
1174528.0,64.21531,1.0,-4.76,0.44,-8.88,-2.5,-8.06,41.06,-8.44,11.5,-3.69,-0.3176850836142444,0.4852895004465051,-0.2615757765906981,-103.68214546357069,68.13926040565448,24.44399042905254,0.152,-0.7863,0.5602,0.2117
1174564.0,64.233623,1.0,-5.13,-0.59,-8.37,-2.06,-8.06,41.5,-1.81,-18.75,-2.63,0.4583225338781726,-0.35904923466310623,-0.010830537389789896,-103.77492816963002,67.93188335325443,24.54952511022461,0.1535,-0.7868,0.5587,0.2126
1174599.0,64.236737,1.0,-5.09,0.09,-8.21,-2.5,-8.5,39.88,-17.94,-4.31,1.75,-0.12155986808062325,-0.1496661305067679,0.14833113759690875,-103.83064378585505,67.69716119258844,25.06577882303193,0.1519,-0.7871,0.557,0.217
1174634.0,64.251859,1.0,-4.88,0.97,-8.63,-2.5,-8.5,39.88,-8.63,8.94,-9.0,-0.7487761131994921,0.4687631705856071,-0.11563781190126575,-104.12837981117883,67.47654041370244,25.265378432632108,0.1472,-0.7887,0.5554,0.2187
1174669.0,64.283346,1.0,-5.12,-0.65,-8.7,-1.69,-8.06,39.5,19.62,-10.56,-5.75,0.6481237039209639,-0.21436561556024591,-0.2859652729251145,-104.25895173526337,67.32502809337325,25.042301608577386,0.1502,-0.7894,0.5543,0.2168
1174706.0,64.300035,1.0,-5.39,-0.9,-8.05,-2.06,-8.88,39.88,-5.06,-1.0,2.44,0.6689147577235045,-0.7462421621610589,0.1288260874506033,-104.07247881840765,67.29749473790226,25.183180957237052,0.1544,-0.7884,0.5541,0.218
1174738.0,64.30419499999999,1.0,-5.02,-0.63,-8.91,-2.06,-8.88,39.88,-12.31,3.94,9.38,0.7372299293554209,0.012391237039705127,-0.4130240891530974,-104.03523089910144,67.40765461346972,25.335843929176026,0.1507,-0.7882,0.5549,0.2193
1174773.0,64.307059,1.0,-5.02,-0.52,-8.96,-1.37,-8.88,41.06,-22.94,-2.44,22.81,0.7848499245043907,0.04548643001678232,-0.4468538684680805,-103.5709322566378,67.82138560708218,25.841133562817532,0.1461,-0.7857,0.5579,0.2236
1174808.0,64.350949,1.0,-4.67,1.13,-8.69,-2.88,-8.06,40.69,-33.25,5.31,15.88,-0.5534718879287066,0.6695434263170735,-0.0851284280455964,-103.29349693464754,68.16692984371839,26.35870385587789,0.1381,-0.7842,0.5604,0.228
1174845.0,64.369998,1.0,-4.8,1.1,-8.19,-2.5,-10.25,40.69,2.94,1.94,-4.69,-0.5757179114173324,0.2774923373341364,0.27157543871868306,-103.36739654993116,68.09776471776088,26.65302123047702,0.1334,-0.7846,0.5599,0.2305
1174880.0,64.416607,1.0,-4.99,0.18,-8.15,-2.5,-10.25,40.69,16.94,-0.63,-8.5,0.12261540608830268,-0.17197967575820994,0.2510030594043027,-103.55241005030376,67.94570061664109,26.25279302590076,0.138,-0.7856,0.5588,0.2271
1174917.0,64.4345,1.0,-4.89,0.84,-8.18,-2.5,-9.88,39.88,-6.75,10.94,-9.94,-0.4775015643672112,0.11674058351736982,0.2521503327130272,-103.92358004914206,67.66956803559746,26.123377437941194,0.1364,-0.7876,0.5568,0.226
1174951.0,64.494168,1.0,-4.71,0.86,-8.51,-2.06,-9.88,39.88,5.31,12.63,-18.31,-0.4355041932141562,0.3818578158245817,0.05942882131596682,-104.50195155237604,67.26996578520281,25.747087788934113,0.1354,-0.7907,0.5539,0.2228
1174986.0,64.499209,1.0,-4.9,0.26,-8.02,-2.06,-9.88,39.88,19.56,9.5,-28.0,-0.2055317554476237,-0.20052537387088346,0.4090148574794839,-105.34830046023008,66.59687161580996,24.97187636961762,0.1399,-0.7952,0.5489999999999999,0.2162
1175019.0,64.54248299999999,1.0,-4.81,-0.14,-8.36,-2.88,-9.5,40.38,19.56,17.37,-29.87,0.02667615836293047,-0.13572671046809034,0.1616426572013161,-106.4131295533326,65.80348711235835,23.869779338261072,0.1445,-0.8008,0.5432,0.2068
1175056.0,64.690584,1.0,-4.65,-0.58,-8.7,-2.88,-8.88,40.25,15.69,20.25,-28.62,0.3795044015748651,-0.05868586529656473,-0.06763136009905503,-107.25914966329704,65.21757686713724,23.015443848374385,0.1465,-0.8052,0.5389,0.1995
1175091.0,64.835436,1.0,-4.46,-0.84,-8.78,-2.88,-8.88,40.25,13.63,24.0,-23.19,0.5402770770804081,-0.031000088005135432,-0.0621259967751353,-108.05519160220844,64.71495187215974,22.139049946746336,0.1476,-0.8093,0.5352,0.192
1175126.0,64.940641,1.0,-4.32,-0.75,-9.28,-4.38,-7.38,40.25,-0.88,17.19,-12.19,0.4499313424467983,0.2533444073257932,-0.4440416058557144,-108.62287531550987,64.45738978708853,21.298944377524897,0.1474,-0.8122,0.5333,0.1848
1175160.0,65.00380600000001,1.0,-4.3,-0.1,-8.8,-3.19,-8.88,40.69,-2.56,11.69,-10.94,-0.2621173374976271,0.2406357403590777,0.01821861689039217,-109.31327042212921,63.99739696031453,20.879328419459103,0.145,-0.8157,0.5299,0.1812
1175197.0,65.021203,1.0,-4.15,-0.15,-8.76,-4.0,-7.0,39.88,14.56,26.62,-21.75,-0.2840337775783779,0.2557188802147219,0.11972413740064525,-109.90973941260323,63.673390007198286,20.11076285425295,0.1448,-0.8187,0.5275,0.1746
1175230.0,65.024038,1.0,-4.13,-0.59,-8.78,-4.0,-7.0,39.88,12.44,24.75,-24.75,-0.07992125616028667,0.005418739180679033,0.08620848584646447,-110.91382347990452,63.05395914548726,18.855062255560348,0.1455,-0.8237,0.5229,0.1638
1175267.0,65.02683,1.0,-3.8,-0.71,-9.23,-3.56,-8.5,40.25,5.31,26.87,-17.31,0.0739201906946535,0.3152514951045766,-0.19495748581156924,-111.6651483609591,62.62426048552695,17.949595138790567,0.1448,-0.8274,0.5197,0.156
1175304.0,65.066223,1.0,-3.81,-0.17,-8.84,-5.88,-7.69,41.5,-2.06,16.81,-25.31,-0.5604786782780623,0.2825026330903002,0.1995351410273667,-112.73350926918677,61.86127398626197,17.230672895970507,0.1422,-0.8326,0.514,0.1498
1175339.0,65.08335600000001,1.0,-3.99,-1.57,-8.6,-5.88,-7.69,41.5,8.63,36.25,-25.87,0.43782585619537306,-0.6548497533729368,0.2293601787533764,-113.62840124543837,61.26106146367894,16.269308165184984,0.1417,-0.8369,0.5095,0.1415
1175371.0,65.086439,1.0,-3.59,-0.99,-8.94,-5.06,-7.69,40.69,4.13,63.94,-18.37,-0.11976895975576585,-0.2620428865906157,0.1263199993302777,-114.87396927454428,60.88853462317393,14.130545861300053,0.1339,-0.8428,0.5067,0.12300000000000001
1175408.0,65.124504,1.0,-2.9,-0.67,-9.62,-6.56,-6.19,39.88,17.12,57.38,-28.37,-0.27226035007061683,0.4458337174017693,-0.2497114989819789,-115.81683895855758,60.52998522199608,12.330917071488786,0.1293,-0.8472,0.504,0.1074
1175445.0,65.131618,1.0,-2.66,-0.93,-9.78,-9.56,-8.06,39.88,21.62,29.81,-38.0,-0.22154880354418585,0.4409907715196682,-0.3592411693507032,-117.21082255070309,59.445034172974474,10.580368342525214,0.1303,-0.8536,0.4958,0.0922
1175478.0,65.149817,1.0,-2.86,-1.93,-9.07,-9.56,-8.06,39.88,11.75,24.25,-36.31,0.3440873147382545,-0.4671902963463905,0.11992004883299145,-118.20783138151,58.536614758122084,9.648546712798435,0.1325,-0.8581,0.4889,0.0841
1175517.0,65.193748,1.0,-2.62,-1.15,-8.81,-9.56,-5.88,40.25,2.31,56.06,-37.81,-0.4195276083461926,-0.17986459627346585,0.5549125786913559,-119.74257704437856,57.423059802747964,8.027974436112627,0.1273,-0.8649,0.4804,0.07
1175552.0,65.201319,1.0,-2.21,-1.55,-8.72,-10.25,-6.56,40.25,29.75,84.12,-35.13,-0.16154747013176002,-0.32849474116524896,0.6857403074352924,-120.94052444578816,56.70567847737765,5.720494487173099,0.1227,-0.8701,0.4749,0.0499
1175584.0,65.220464,1.0,-1.13,-2.72,-10.44,-10.25,-6.56,40.25,19.62,76.69,-26.25,0.7950633397825341,0.016026856740997575,-1.0116917132939949,-121.8536919796764,56.133515021345396,2.2117544130994498,0.1199,-0.8740000000000001,0.4705,0.0193
1175621.0,65.223439,1.0,-0.36,-1.99,-11.41,-12.88,-5.5,39.88,-8.06,37.81,-34.88,0.32797099056218365,0.9188495067404644,-1.7400356982128216,-122.9958904624243,55.25224136431043,0.5385823103159236,0.11199999999999999,-0.8788,0.4637,0.0047
1175658.0,65.226435,1.0,-0.97,-2.53,-9.72,-15.5,-6.0,39.5,17.87,8.63,-17.12,0.4738972910002992,-0.23400728505867965,-0.2700985801781357,-123.57491843142247,54.63229852978135,0.02291831195802168,0.1137,-0.8812,0.4589,0.0002
1175693.0,65.269501,1.0,-0.73,-1.91,-9.77,-15.5,-6.0,39.5,8.0,23.62,-17.75,-0.046725839297896136,0.2299765925108156,-0.17226915303651502,-124.1105266335135,54.065535928953075,-0.9282017781870658,0.1136,-0.8834,0.4545,-0.0081
1175726.0,65.28121800000001,1.0,-0.64,-2.17,-9.86,-14.69,-5.56,39.06,0.31,21.81,-26.94,0.1007370818098022,0.0652475950892053,-0.3088675246590089,-124.79911472012829,53.42321798982236,-1.6616358358374437,0.1113,-0.8862,0.4495,-0.0145
1175762.0,65.290814,1.0,-0.56,-2.19,-10.02,-15.75,-6.69,38.25,0.31,17.06,-18.25,0.04875319323833546,0.03285063023389556,-0.464992710016853,-125.57083317422124,52.69317728708804,-2.349291527927613,0.1086,-0.8893,0.4438,-0.0205
1175797.0,65.33302900000001,1.0,-0.2,-2.65,-10.64,-15.75,-6.25,39.5,10.5,-12.88,-15.0,0.5064352140465106,0.18483855959974904,-1.1469547984605857,-125.94789456078651,52.22052340718582,-2.4180613422720283,0.1107,-0.8908,0.4401,-0.0211
1175832.0,65.493412,1.0,-0.8,-2.18,-9.29,-15.75,-6.25,39.5,3.0,-23.75,-7.13,-0.0020194322990269714,-0.1301234933116615,0.2317054153884772,-126.30202625936262,51.74882311470209,-1.79916139442209,0.1155,-0.8922,0.4364,-0.0157
1175869.0,65.497067,1.0,-0.84,-2.57,-9.67,-15.75,-6.69,39.0,1.12,3.0,-9.25,0.21750870729187413,-0.3048511051739322,-0.2272503266888428,-126.60729740721462,51.37976979085595,-1.7533192633889718,0.1164,-0.8934,0.4335,-0.0153
1175904.0,65.553267,1.0,-0.68,-2.39,-9.84,-14.69,-4.75,39.0,-2.75,8.44,-0.25,0.13403083219437373,-0.09641343750261866,-0.3409034088316183,-126.70941436503277,51.35433895468569,-2.0054546535892377,0.1144,-0.8938,0.4333,-0.0175
1175939.0,65.56102,1.0,-0.65,-2.14,-9.64,-14.69,-4.75,39.0,-2.88,8.69,-2.5,-0.024095436522283714,0.0004899175357424569,-0.08936531778925527,-126.76054091134182,51.34162455414572,-2.1544482337672357,0.1129,-0.894,0.4332,-0.0188
1175971.0,65.563962,1.0,-0.56,-2.1,-9.87,-14.56,-6.25,39.38,-2.94,7.63,-0.69,-0.05048863928304287,0.0813767729184498,-0.2993545872804137,-126.88855686312144,51.26535237984769,-2.3951379752687134,0.1109,-0.8945,0.4326,-0.0209
1176008.0,65.694218,1.0,-0.49,-2.24,-9.87,-16.37,-6.06,39.0,-1.56,8.13,-1.56,0.07957529718941518,0.011892700623022057,-0.3258781315054389,-126.93984342653314,51.252642719818056,-2.6014518395409367,0.1096,-0.8947,0.4325,-0.0227
1176041.0,65.846554,1.0,-0.27,-2.05,-10.04,-16.37,-6.06,39.0,-0.31,4.06,2.5,0.03090506671006685,0.3039786533225399,-0.4395025391327181,-126.88855686312144,51.31619778683095,-2.7504615040371316,0.1089,-0.8945,0.433,-0.024
1176076.0,65.898505,1.0,-0.29,-2.22,-10.31,-15.69,-7.19,38.56,-3.69,-6.63,-0.88,0.13044790087664654,0.2244638515472936,-0.7404443545843673,-127.01685959928787,51.20181083863503,-2.670224968889185,0.1082,-0.895,0.4321,-0.0233
1176111.0,66.014492,1.0,-0.7,-2.02,-9.4,-16.0,-6.75,39.0,-2.31,-8.81,3.88,-0.10697759453761532,-0.09723962674526798,0.16769257456972575,-126.99117600895984,51.2272254279677,-2.314906939637541,0.1087,-0.8949,0.4323,-0.0202
1176147.0,66.025966,1.0,-0.58,-1.91,-9.64,-15.69,-7.19,39.38,-3.0,1.0,-0.25,-0.1327447404946141,0.0988127688263256,-0.03645494054533138,-127.068261462492,51.17639894970855,-2.24613838532295,0.1081,-0.8952,0.4319,-0.0196
1176180.0,66.029005,1.0,-0.64,-2.09,-9.74,-15.69,-7.19,39.38,-2.0,-0.69,-1.44,-0.032150681344381926,-0.0483971703744579,-0.17543014632165033,-127.1197096819897,51.138286174965344,-2.200293133435064,0.1074,-0.8954,0.4316,-0.0192
1176217.0,66.074128,1.0,-0.52,-1.94,-9.81,-15.69,-6.06,39.0,0.19,3.13,1.94,-0.08572000480875941,0.14574454400115774,-0.2054182483026193,-127.068261462492,51.20181083863503,-2.2346770389286066,0.1074,-0.8952,0.4321,-0.0195
1176252.0,66.09338199999999,1.0,-0.48,-1.87,-9.74,-16.75,-6.75,38.19,-2.63,4.38,-0.88,-0.1065766295729953,0.17772902762006992,-0.12068367096976827,-127.068261462492,51.2272254279677,-2.314906939637541,0.1061,-0.8952,0.4323,-0.0202
1176287.0,66.096921,1.0,-0.58,-1.91,-9.83,-16.75,-6.75,38.19,-3.75,2.5,-3.06,-0.1481625049185114,0.06271625926142588,-0.22268270676372204,-127.17120439382437,51.17639894970855,-2.372214704126748,0.1048,-0.8956,0.4319,-0.0207
1176322.0,66.138032,1.0,-0.48,-2.09,-9.98,-15.69,-6.06,38.56,1.37,3.94,-4.5,0.023916424131583985,0.04053254478106538,-0.40102775341043895,-127.27433384194984,51.0747783558906,-2.452446574526375,0.1043,-0.8959999999999999,0.4311,-0.0214
1176356.0,66.228004,1.0,-0.46,-1.99,-9.86,-16.75,-7.19,38.56,-1.44,1.25,-1.44,-0.035093451699762516,0.07103764313953398,-0.26236296567369344,-127.40350962041992,50.94781312005565,-2.555603608821701,0.1034,-0.8965,0.4301,-0.0223
1176391.0,66.29253299999999,1.0,-0.38,-2.09,-9.98,-16.75,-7.19,38.56,2.69,2.06,1.56,0.0650826521610531,0.08915837579758157,-0.3963257929935704,-127.37765090836372,50.98589564550729,-2.6243761106355543,0.1035,-0.8964,0.4304,-0.0229
1176426.0,66.358522,1.0,-0.3,-1.99,-10.1,-15.38,-6.75,39.0,-3.5,-0.44,-1.06,0.025525360118496758,0.2215953234950021,-0.4894824762551462,-127.40350962041992,50.973200800075034,-2.6358382855186164,0.10300000000000001,-0.8965,0.4303,-0.023
1176461.0,66.362024,1.0,-0.44,-2.11,-9.79,-15.69,-6.75,39.38,-0.69,-2.06,-0.88,0.08008655539750748,-0.013565127654832088,-0.2174809913107314,-127.50706277493772,50.88435563772038,-2.578527672575933,0.1027,-0.8969,0.4296,-0.0225
1176496.0,66.406896,1.0,-0.48,-2.24,-9.78,-16.75,-6.38,38.19,2.69,-2.81,1.69,0.16063983311344715,-0.10237248661296494,-0.23626365680308936,-127.37765090836372,50.998591161570644,-2.509755787270372,0.1036,-0.8964,0.4305,-0.0219
1176530.0,66.420463,1.0,-0.65,-2.0,-9.61,-16.75,-6.38,38.19,-2.63,-1.12,1.56,-0.0894176858378776,-0.10961801843910046,-0.02974102351532615,-127.3259688536123,51.03668173616908,-2.3951379752687134,0.1035,-0.8962,0.4308,-0.0209
1176565.0,66.428223,1.0,-0.49,-1.91,-9.66,-15.69,-7.19,39.38,-2.81,0.94,0.56,-0.055929919397839666,0.06395370339204197,-0.05218267775341623,-127.37765090836372,51.02398420663922,-2.383676327772471,0.1027,-0.8964,0.4307,-0.0208
1176600.0,66.43114399999999,1.0,-0.51,-1.9,-9.67,-15.69,-5.69,39.75,-2.75,1.06,-0.75,-0.06847300774133633,0.04291900859929931,-0.06109895332829751,-127.37765090836372,51.04937993737921,-2.372214704126748,0.1019,-0.8964,0.4309,-0.0207
1176635.0,66.474016,1.0,-0.56,-1.9,-9.67,-15.69,-5.69,39.75,0.44,1.0,0.81,-0.10156780426200354,-0.005531807161455293,-0.06361612509748582,-127.37765090836372,51.06207881053215,-2.4065996467302937,0.1015,-0.8964,0.431,-0.021
1176670.0,66.493236,1.0,-0.35,-1.98,-10.07,-16.06,-6.75,37.38,-1.5,3.88,-0.63,0.030641470696728373,0.15106986505996478,-0.4609709024361752,-127.37765090836372,51.0874785737173,-2.521217704700676,0.1007,-0.8964,0.4312,-0.022000000000000002
1176707.0,66.496434,1.0,-0.41,-1.96,-9.89,-16.37,-7.56,38.19,-0.88,2.0,2.06,0.003161548905188189,0.07339399494870025,-0.28376145474821435,-127.351803991908,51.11288102782698,-2.544141615361497,0.1,-0.8963,0.4314,-0.0222
1176741.0,66.538195,1.0,-0.38,-2.11,-9.97,-16.37,-7.56,38.19,-0.31,1.94,-1.31,0.1268555744075893,0.004492067448177206,-0.3904715293616974,-127.37765090836372,51.1001794642751,-2.578527672575933,0.0994,-0.8964,0.4313,-0.0225
1176774.0,66.604353,1.0,-0.44,-1.95,-9.87,-15.69,-7.19,38.56,-1.63,0.56,0.81,-0.022966758620837163,0.038385250302624296,-0.2636528306281658,-127.37765090836372,51.1001794642751,-2.589989743099661,0.0994,-0.8964,0.4313,-0.0226
1176809.0,66.611834,1.0,-0.42,-1.91,-9.78,-16.0,-6.38,37.75,1.25,-0.06,1.63,-0.03342196487666752,0.06463757583815377,-0.16669472261204632,-127.3259688536123,51.16369401723818,-2.6129139620146145,0.0995,-0.8962,0.4318,-0.0228
1176844.0,66.63108199999999,1.0,-0.42,-1.93,-9.78,-16.75,-6.75,39.0,0.37,-0.37,2.5,-0.012421175385456146,0.05331777690953976,-0.17065940329442594,-127.24853393391231,51.252642719818056,-2.589989743099661,0.0994,-0.8959,0.4325,-0.0226
1176879.0,66.634502,1.0,-0.5,-1.88,-9.8,-16.75,-6.75,39.0,2.13,0.12,-0.12,-0.10245084148135604,0.02287203442217589,-0.1840146773436011,-127.22274573469288,51.26535237984769,-2.589989743099661,0.0993,-0.8958,0.4326,-0.0226
1176913.0,66.679686,1.0,-0.47,-1.8,-9.66,-17.5,-7.56,39.0,-0.94,-0.37,1.81,-0.1287348898029805,0.0765476402250137,-0.029714561509674563,-127.17120439382437,51.31619778683095,-2.589989743099661,0.0995,-0.8956,0.433,-0.0226
1176950.0,66.6885,1.0,-0.6,-1.74,-9.47,-16.06,-7.19,38.56,-2.19,-2.06,-0.12,-0.21810147181081999,-0.01627046600407689,0.1619277634641012,-127.17120439382437,51.328910831615794,-2.509755787270372,0.0993,-0.8956,0.4331,-0.0219
