TIME,ELAPSED_SECONDS,PSTATE,acc_x,acc_y,acc_z,mag_x,mag_y,mag_z,gyr_x,gyr_y,gyr_z,lin_x,lin_y,lin_z,eul_x,eul_y,eul_z,qua_w,qua_x,qua_y,qua_z
190408.0,87.262097,1.0,-3.38,0.7,-9.27,-10.06,-11.75,35.69,-2.63,-7.31,-0.88,-0.1218299531649608,0.06205776850186801,-0.08418445902722382,-111.6651483609591,64.44384400831176,18.634392500869453,0.0699,-0.8274,0.5332,0.1619
190443.0,87.310226,1.0,-3.3,0.58,-9.24,-10.06,-11.5,34.75,0.0,2.13,-0.81,0.014611196358847443,0.06543842822990664,-0.0218546840835252,-111.70596708251541,64.41675547774169,18.634392500869453,0.0695,-0.8276,0.5329999999999999,0.1619
190478.0,87.382848,1.0,-3.26,0.77,-9.28,-10.06,-11.5,34.75,1.25,-1.19,-0.5,-0.13117263198932216,0.1866613577584505,-0.05675971865899498,-111.70596708251541,64.41675547774169,18.634392500869453,0.0692,-0.8276,0.5329999999999999,0.1619
190511.0,87.396392,1.0,-3.34,0.69,-9.13,-9.75,-11.5,34.38,0.69,3.38,-3.0,-0.13719428437808562,0.03225146573883692,0.061459515905204036,-111.82855209706509,64.32197736057384,18.51827857520288,0.0692,-0.8282,0.5323,0.1609
190547.0,87.404036,1.0,-3.18,0.53,-9.61,-9.75,-11.75,33.19,2.31,4.38,-3.13,0.1341910811576486,0.2146056241614886,-0.3265300131950681,-111.97181334084304,64.25430887597265,18.320928845487863,0.0688,-0.8289,0.5318,0.1592
190582.0,87.40697800000002,1.0,-3.3,0.46,-9.32,-9.75,-11.75,33.19,2.19,-1.06,-2.19,0.08185377579733094,0.008780457076171144,-0.09068412909563683,-112.05379617607242,64.18666547503379,18.286108128329392,0.0695,-0.8293,0.5313,0.1589
190617.0,87.449569,1.0,-3.3,0.29,-9.35,-9.38,-11.5,34.75,2.38,-2.94,-1.25,0.2371500469031729,-0.03480278491996368,-0.1099597342496903,-112.07430548769129,64.11904710633912,18.332536130219392,0.0704,-0.8294,0.5308,0.1593
190652.0,87.468747,1.0,-3.3,0.76,-9.15,-9.75,-11.5,34.38,-4.0,1.88,-0.75,-0.21720018742058367,0.09908826358601712,0.05302987234462897,-112.11534046927383,64.07848807925822,18.34414360467089,0.0697,-0.8296,0.5305,0.1594
190687.0,87.511661,1.0,-3.15,0.48,-9.64,-10.06,-11.5,34.0,2.0,-4.56,-0.94,0.1738498979668367,0.2561168354034055,-0.3415853332783829,-112.13586614925856,64.07848807925822,18.30932175034793,0.0704,-0.8297,0.5305,0.1591
190722.0,87.531048,1.0,-3.45,0.71,-8.84,-10.06,-11.5,34.0,-2.31,-9.44,-1.37,-0.2707794601490432,-0.08248686076242595,0.2949690548797861,-112.07430548769129,63.98388526065868,18.62278024163795,0.0716,-0.8294,0.5298,0.1618
190758.0,87.534231,1.0,-3.33,0.57,-9.24,-9.0,-11.06,35.19,3.44,2.44,-1.31,-0.03526205564838813,0.07932469689666166,-0.0312290488546747,-112.11534046927383,63.97037455615307,18.564721836939235,0.0721,-0.8296,0.5297,0.1613
190793.0,87.571438,1.0,-3.24,0.44,-9.49,-9.0,-11.5,33.56,2.5,0.5,-0.88,0.14464118309032692,0.17779055116609446,-0.2282276498804521,-112.15639729539848,63.94335613096246,18.483448143006754,0.0728,-0.8298,0.5295,0.1606
190828.0,87.578041,1.0,-3.41,0.57,-9.05,-9.0,-11.5,33.56,-2.94,-4.63,0.5,-0.10198281595442983,-0.020095977441507932,0.11930280600820352,-112.11534046927383,63.929848409462785,18.646004953165537,0.0731,-0.8296,0.5294,0.162
190861.0,87.595412,1.0,-3.43,0.47,-9.09,-9.38,-10.69,34.75,-0.19,-0.75,0.19,-0.0020239986133755447,-0.06172308255655312,0.07987837913270468,-112.09482025042286,63.916341681484134,18.715683728517142,0.0731,-0.8295,0.5293,0.1626
190898.0,87.598191,1.0,-3.31,0.59,-9.35,-8.25,-11.75,35.56,0.75,5.0,-0.5,-0.01980907061586224,0.14814076288707134,-0.12835689054077015,-112.11534046927383,63.929848409462785,18.62278024163795,0.0724,-0.8296,0.5294,0.1618
190930.0,87.641818,1.0,-3.32,0.43,-9.31,-8.25,-11.75,35.56,0.75,2.56,-0.37,0.09904332732649104,0.04359690853205578,-0.0863621666193577,-112.15639729539848,63.929848409462785,18.506668239532367,0.0721,-0.8298,0.5294,0.1608
190965.0,87.695279,1.0,-3.38,0.51,-9.26,-9.75,-11.06,35.25,0.31,2.63,-0.06,-0.0057658964913345784,-0.003840557362105868,-0.06411754890706511,-112.19747600626744,63.929848409462785,18.460228812044047,0.0714,-0.83,0.5294,0.1604
191000.0,87.702448,1.0,-3.28,0.55,-9.3,-9.75,-11.75,34.75,-0.81,2.0,0.44,-0.0006465503431851705,0.09985091126779844,-0.06963115119712704,-112.21802358107666,63.94335613096246,18.402183827223173,0.0711,-0.8301,0.5295,0.1599
191035.0,87.762575,1.0,-3.2,0.53,-9.49,-9.38,-11.5,34.75,0.69,-2.25,0.56,0.08713607075080188,0.218308146720552,-0.21960298195939032,-112.19747600626744,63.94335613096246,18.42540124877966,0.0712,-0.83,0.5295,0.1601
191068.0,87.77924,1.0,-3.34,0.49,-9.17,-9.38,-11.5,34.75,-0.12,-1.94,0.44,0.017116625406241703,-4.464268930415294e-06,0.03504281279099075,-112.19747600626744,63.929848409462785,18.506668239532367,0.0714,-0.83,0.5294,0.1608
191105.0,87.78271600000002,1.0,-3.37,0.57,-9.18,-9.38,-12.19,35.19,-1.44,1.5,1.25,-0.058642528133520326,0.00714845525908725,0.011206673969191172,-112.13586614925856,63.97037455615307,18.51827857520288,0.0711,-0.8297,0.5297,0.1609
191139.0,87.844699,1.0,-3.31,0.57,-9.18,-9.0,-11.5,34.75,0.81,1.12,0.19,-0.03276514536405739,0.05067782490413486,0.031694337527035536,-112.13586614925856,63.98388526065868,18.506668239532367,0.0707,-0.8297,0.5298,0.1608
191176.0,87.884596,1.0,-3.4,0.71,-9.16,-9.0,-11.5,34.75,0.88,-0.94,-0.56,-0.19873255615445407,0.02946442746111066,0.01229768763964145,-112.13586614925856,63.98388526065868,18.506668239532367,0.0708,-0.8297,0.5298,0.1608
191211.0,87.96905500000004,1.0,-3.31,0.52,-9.36,-9.75,-12.19,34.75,1.94,2.06,-0.12,0.03303341124798315,0.08388332768128881,-0.13457589930832015,-112.15639729539848,63.98388526065868,18.44861943332721,0.0712,-0.8298,0.5298,0.1603
191246.0,88.024513,1.0,-3.23,0.56,-9.48,-8.56,-11.06,34.0,2.94,1.81,-0.81,0.03451991938358452,0.18830757975605789,-0.22232046713032186,-112.17693391272269,64.0109096555285,18.320928845487863,0.071,-0.8299,0.53,0.1592
191281.0,88.031487,1.0,-3.24,0.61,-9.41,-8.56,-11.06,34.0,1.12,-5.69,0.06,-0.03210343298543239,0.1995974391920668,-0.16214783283112588,-112.15639729539848,63.99739696031453,18.35575126897081,0.0719,-0.8298,0.5299,0.1595
191315.0,88.03497,1.0,-3.36,0.6,-9.22,-10.06,-12.19,34.0,1.19,-5.13,-2.0,-0.08934655255285699,0.08214355618043356,-0.024080879732439442,-112.13586614925856,63.929848409462785,18.576333132780547,0.0733,-0.8297,0.5294,0.1614
191350.0,88.12476,1.0,-3.3,0.52,-9.2,-8.56,-11.06,33.56,6.06,1.69,-0.37,-0.0178860233271036,0.10329586396624857,0.019443552057001767,-112.13586614925856,63.929848409462785,18.506668239532367,0.0743,-0.8297,0.5294,0.1608
191387.0,88.181788,1.0,-3.33,0.34,-9.2,-9.0,-11.5,35.19,7.19,-5.44,-1.25,0.09962089350427894,0.03608655350534118,0.017202955440561496,-112.09482025042286,63.94335613096246,18.44861943332721,0.0768,-0.8295,0.5295,0.1603
191420.0,88.24551,1.0,-3.51,0.23,-8.77,-9.0,-11.5,35.19,1.88,-0.94,-0.19,0.035973692702925934,-0.272708656651675,0.3615329609146425,-112.05379617607242,63.94335613096246,18.437010245615284,0.0781,-0.8293,0.5295,0.1602
191457.0,88.252948,1.0,-3.32,0.04,-9.2,-10.06,-10.69,34.75,10.44,7.88,3.19,0.31158303914104163,-0.07914765213563024,0.031137140876902336,-112.03329231056664,64.07848807925822,18.13523798699121,0.0789,-0.8292,0.5305,0.1576
191492.0,88.272245,1.0,-3.49,-0.09,-8.47,-9.0,-11.5,34.5,12.81,13.63,9.19,0.172623732771861,-0.5200025967758986,0.6617662748654762,-111.86945684906635,64.37613024312793,17.694413651857158,0.0801,-0.8284,0.5327,0.1538
191524.0,88.275439,1.0,-2.81,-0.38,-10.2,-9.0,-11.5,34.5,19.06,31.75,21.44,0.8267035927925153,0.2957263361488079,-0.7436868241858471,-111.52245118481588,65.17677108886933,16.408227758317484,0.0784,-0.8267,0.5386,0.1427
191561.0,88.365684,1.0,-3.18,-0.02,-9.06,-9.75,-10.25,35.69,14.75,4.5,24.87,0.1391492979875898,-0.2403603531643803,0.2087718817127957,-110.87341536801529,65.96734252761773,15.968397992715149,0.079,-0.8235,0.5444,0.1389
191598.0,88.421821,1.0,-2.98,0.02,-8.94,-10.5,-9.56,35.56,11.31,44.88,27.0,0.05418033026139407,-0.2381638265013665,0.3862072034240871,-110.00958136957878,67.22868060325891,14.800508833176535,0.0767,-0.8192,0.5536,0.1288
191631.0,88.478236,1.0,-2.6,0.02,-8.99,-10.5,-9.56,35.56,16.62,47.0,27.62,0.09126027571649824,-0.09515894062550456,0.4491334310542001,-109.5116049915234,68.16692984371839,13.495684664619233,0.0715,-0.8167,0.5604,0.1175
191666.0,88.484813,1.0,-2.16,0.21,-9.84,-12.38,-8.75,35.19,9.5,45.88,29.25,-0.014558823097081312,0.2995774428433775,-0.2653578135597918,-108.58359923261342,69.62601872527647,11.720221376139571,0.066,-0.812,0.5709,0.1021
191700.0,88.50274399999998,1.0,-2.22,-0.46,-9.04,-14.56,-8.75,33.56,14.25,43.0,24.81,0.4345243729410803,-0.3437511355826849,0.5031762548816872,-108.01618391845108,70.49365903494044,10.534336497867196,0.0613,-0.8091,0.5771,0.0918
191737.0,88.505839,1.0,-1.95,-0.33,-9.07,-16.37,-7.38,34.88,16.87,64.75,41.31,0.2517125812668207,-0.3367103945779198,0.5330548564423943,-106.85431724818577,72.11544554429472,8.602444609340731,0.0542,-0.8031,0.5886,0.075
191770.0,88.545381,1.0,-1.26,-0.27,-9.15,-16.37,-7.38,34.88,16.44,88.81,42.88,0.2449412866603056,0.0031135183768224444,0.5696053388493052,-105.822052873486,73.55369726095881,6.48935022815341,0.0449,-0.7977,0.5987,0.0566
191807.0,88.569914,1.0,-0.57,-0.64,-10.28,-18.19,-7.0,34.06,21.81,79.37,49.19,0.5828143345676959,0.15198052826099342,-0.4914143506657069,-104.25895173526337,75.526483262398,3.40386984812725,0.03,-0.7894,0.6124,0.0297
191844.0,88.666048,1.0,-0.92,-0.84,-8.43,-22.69,-5.56,32.5,31.31,76.06,61.69,0.4958848634638639,-0.6466638780714805,1.3241489519019236,-102.48453447446366,77.43779108064527,1.1803139285143014,0.0246,-0.7798,0.6255,0.0103
191877.0,88.711202,1.0,0.55,-0.27,-8.64,-22.69,-5.56,32.5,5.75,146.38,58.25,0.03567684301773637,0.2808023195661702,1.1495790623098987,-100.13478976112896,79.79258672651936,-2.5670656278548973,0.0027,-0.7668,0.6414,-0.0224
191911.0,88.730127,1.0,1.93,-0.2,-10.51,-26.06,-2.56,32.06,3.94,169.06,52.31,-0.15900058185384194,0.45596571783201595,-0.8700449042825102,-97.63220528770944,81.74834084363056,-7.602997386301143,-0.0314,-0.7526,0.6544,-0.0663
191948.0,88.733402,1.0,2.46,-0.74,-10.07,-32.38,-1.56,26.19,17.12,119.75,49.25,0.2519737506592615,0.28490739943009763,-0.5788898031459428,-95.76994903311295,82.90516622575332,-10.879617409371033,-0.0506,-0.7418,0.662,-0.0948
191985.0,88.772645,1.0,2.54,-0.55,-8.85,-36.5,0.56,23.5,7.69,105.31,54.44,-0.06099226734125851,0.001212989772918005,0.5831539994598369,-93.10419946060928,84.52062093689318,-14.349961892702815,-0.0701,-0.726,0.6725,-0.1249
192020.0,88.779831,1.0,3.71,-0.1,-9.39,-36.5,0.56,23.5,-1.75,121.81,51.19,-0.6053450223740885,0.4174242156568714,-0.26338050780235456,-90.94271968197992,85.65603262918377,-16.906223928806188,-0.0895,-0.7129,0.6798,-0.147
192057.0,88.83886700000002,1.0,4.45,-0.17,-9.91,-38.69,2.0,21.25,6.0,110.5,42.44,-0.7541839133807209,0.09299738473016306,-1.0313414242091543,-88.19795806279829,86.73889922301962,-20.401776712875193,-0.1135,-0.6959,0.6867,-0.1771
192092.0,88.865277,1.0,4.85,-0.43,-9.28,-42.69,3.0,18.0,7.94,92.0,43.5,-0.5961813509373487,0.1907410428224059,-0.6544200050892286,-86.32973658874529,87.35524570014307,-22.73485185773412,-0.1273,-0.6841,0.6906,-0.1971
192124.0,88.95602099999998,1.0,5.77,0.55,-9.31,-42.69,3.0,18.0,-6.75,86.5,31.44,-1.7434567322218302,0.3584816476779409,-1.0147801056352304,-84.08782976269961,87.99070189101793,-25.253635128091673,-0.1453,-0.6697,0.6946,-0.2186
192161.0,89.034153,1.0,6.21,-0.42,-9.83,-43.38,5.75,14.5,12.31,56.75,6.56,-0.9188444742659369,0.10704098720140907,-1.7913527185360625,-83.28795636892652,87.815613588484,-26.73546210533703,-0.1549,-0.6645,0.6935,-0.2312
192198.0,89.08977900000002,1.0,5.86,-0.84,-9.05,-45.56,5.25,13.0,-8.38,26.94,14.25,-0.4494904230192875,-0.0361041004571292,-0.9981801631050208,-82.47777750148487,87.87925222971974,-27.784885032921768,-0.1624,-0.6592,0.6939,-0.2401
192231.0,89.107416,1.0,5.75,-0.07,-8.12,-45.56,5.25,13.0,4.31,30.56,10.5,-1.1462304417707196,0.2287802090311253,-0.0744235950256833,-81.83929990977303,88.07037290502619,-28.34002932498839,-0.1669,-0.655,0.6951,-0.2448
192266.0,89.110603,1.0,6.15,-1.34,-9.24,-45.5,7.56,11.56,-4.63,27.12,6.75,-0.05716888302136192,-0.2792690783130343,-1.3698628953852303,-81.30958228614423,87.8633393777306,-29.32206069578229,-0.1732,-0.6515,0.6938,-0.2531
192301.0,89.145845,1.0,6.0,-0.08,-8.15,-46.19,6.0,9.69,-8.75,5.06,12.5,-1.1864243107476031,0.14560167209023267,-0.24323047232162945,-80.79700544480976,88.24583799153993,-29.357596603435567,-0.1761,-0.6481,0.6962,-0.2534
192337.0,89.158644,1.0,6.09,-0.39,-8.14,-45.38,6.56,8.5,7.06,17.31,-2.56,-0.916884789626867,0.13499527262454936,-0.3245344598210682,-80.54144798375755,88.16604887802973,-29.85540431723644,-0.1784,-0.6464,0.6957,-0.2576
192372.0,89.176748,1.0,6.09,-0.73,-8.28,-45.38,6.56,8.5,-5.88,8.75,3.63,-0.5833703178724521,0.005447082266787584,-0.4811607195612897,-80.39134544428752,88.13414829642569,-30.033332077879628,-0.1807,-0.6454,0.6955,-0.2591
192407.0,89.17985,1.0,6.19,-0.59,-8.41,-46.56,6.56,9.0,1.94,5.75,-2.19,-0.7451039461191438,-0.0446712552735018,-0.6257574205539918,-80.2414088510799,88.11820122886442,-30.21133398212997,-0.1823,-0.6444,0.6954,-0.2606
192442.0,89.182734,1.0,5.79,-1.36,-7.85,-46.56,6.25,8.56,-0.88,12.25,3.69,0.10098492443606456,-0.05499052423669548,-0.0413436071913047,-80.15152621424113,88.02256387479584,-30.4369103155404,-0.1838,-0.6438,0.6948,-0.2625
192477.0,89.223809,1.0,6.02,-0.77,-8.14,-46.56,6.25,8.56,-4.5,15.5,5.44,-0.54209214516232,-0.15939183612832952,-0.33108299849275896,-79.68807312130106,88.16604887802973,-30.781444422149054,-0.1871,-0.6407,0.6957,-0.2654
192512.0,89.24138,1.0,6.79,-0.38,-9.1,-47.19,7.75,8.19,2.88,2.06,-7.19,-1.0783584161134585,-0.1987445736307369,-1.5006991022807643,-79.6731491009361,88.03849807642652,-30.93598315774567,-0.1888,-0.6406,0.6949,-0.2667
192548.0,89.288767,1.0,6.45,-0.99,-8.48,-46.5,8.5,8.25,-0.69,-20.31,-7.0,-0.3683598563302424,0.03292763125852738,-0.8870970882447988,-80.21144137505003,87.815613588484,-30.57944178497209,-0.1856,-0.6442,0.6935,-0.2637
192583.0,89.30641999999996,1.0,6.33,-0.64,-8.46,-46.5,8.5,8.25,-5.94,-32.56,-6.25,-0.6659998985956292,0.0917753155160983,-0.7573512034518703,-80.6165617364412,87.92700356866892,-29.89098396291072,-0.1818,-0.6469,0.6942,-0.2579
192616.0,89.310896,1.0,6.24,-0.59,-8.91,-46.5,8.75,8.25,-9.44,-37.81,-10.38,-0.6402558070105233,-0.003120105989855793,-1.068268977469577,-80.8873180100222,88.46953482425532,-28.54099280947513,-0.1782,-0.6487,0.6976,-0.2465
192651.0,89.353319,1.0,5.57,-0.55,-8.09,-45.69,5.75,10.0,2.5,-42.69,-14.56,-0.5151097331878463,0.13572716731392687,-0.01637092529727191,-81.5968810686458,88.50152621211956,-27.548855827733,-0.1719,-0.6534,0.6978,-0.2381
192688.0,89.415047,1.0,5.3,-1.18,-8.59,-45.69,7.25,12.25,-8.31,-31.19,-8.06,0.13119400475613152,-0.13008750214142528,-0.35387977825972605,-82.12775101851454,88.64559529672633,-26.58236880563043,-0.1656,-0.6569,0.6987,-0.2299
192722.0,89.432477,1.0,5.36,-0.2,-8.79,-45.69,7.25,12.25,-4.06,-32.31,-7.19,-0.8175037619115204,-0.049541417330204895,-0.4579948183670464,-82.53874730166079,88.74173969605336,-25.770597576108926,-0.1615,-0.6596,0.6993,-0.223
192759.0,89.480262,1.0,4.88,-0.87,-8.82,-45.0,5.38,13.19,5.06,-37.75,-20.12,-0.07623329469840058,-0.2270492624286564,-0.3080095156342253,-83.48745702732505,88.48552943090411,-24.79585513058625,-0.1544,-0.6658,0.6977,-0.2147
192794.0,89.50341800000002,1.0,4.51,-0.88,-8.16,-45.0,5.0,14.25,-2.25,-37.38,-8.38,0.0256733873355669,-0.0303223025845224,0.4419011280254459,-84.16500554813028,88.37361278323944,-23.975200651636385,-0.1479,-0.6702,0.6970000000000001,-0.2077
192829.0,89.555805,1.0,4.68,-0.45,-8.62,-45.0,5.0,14.25,0.88,-18.81,-8.13,-0.4162230901017821,0.04419350138608436,-0.0032483314660982643,-84.62905076314031,88.37361278323944,-23.2493773342699,-0.1432,-0.6732,0.6970000000000001,-0.2015
192864.0,89.63159300000002,1.0,4.78,-0.75,-9.61,-45.0,4.25,14.69,-9.44,-36.81,-10.56,-0.11876149109991085,-0.0984776792568678,-0.9515653657063384,-85.2504534784823,88.34165611190303,-22.12737366698645,-0.1378,-0.6772,0.6968,-0.1919
192899.0,89.68774,1.0,4.18,-0.45,-8.46,-43.5,3.19,15.88,-0.88,-35.13,-7.63,-0.2803902429453504,0.07750405221588885,0.3640934376302933,-85.7341811031503,88.38959436761328,-21.20567161915569,-0.1318,-0.6803,0.6971,-0.184
192933.0,89.764206,1.0,4.24,-0.58,-8.85,-43.5,3.19,15.88,0.44,-22.87,-9.31,-0.1644902609939889,0.09125317119533782,-0.02193666405221073,-86.1727310203409,88.27776872555569,-20.65797889865216,-0.1274,-0.6831,0.6964,-0.1793
192968.0,89.813096,1.0,4.42,-0.3,-9.6,-41.56,3.5,17.5,-6.13,-28.94,-10.19,-0.4404060282006639,0.10688514450097897,-0.7565416623816663,-86.67586147437744,88.19795806279829,-19.81987998842397,-0.1235,-0.6863,0.6959,-0.1721
193003.0,89.831144,1.0,4.17,-0.57,-9.6,-43.06,2.75,17.5,0.12,-30.06,-16.0,-0.12306340058492785,0.035864142593695636,-0.6746366177160006,-87.27605051042755,87.94292494652382,-19.110662839696182,-0.1191,-0.6901,0.6943,-0.166
193040.0,89.872681,1.0,3.75,-0.36,-9.08,-42.0,2.38,18.25,-5.5,-45.75,-9.25,-0.2345620332298272,0.12022490296168252,-0.02030408686104046,-88.00663181338297,87.815613588484,-17.856791554733764,-0.1113,-0.6947,0.6935,-0.1552
193073.0,89.880269,1.0,3.49,-0.51,-9.1,-42.0,2.38,18.25,-0.5,-34.13,-9.38,-0.046256927737848286,0.10466055475907354,0.0476999301967016,-88.64559529672633,87.67255085031937,-16.778799324271787,-0.1037,-0.6987,0.6926,-0.1459
193110.0,89.941024,1.0,3.55,-0.07,-9.47,-40.75,2.0,20.25,-6.19,-18.87,-12.31,-0.4520264088389463,0.14913100574285265,-0.2959106689016391,-89.06279291382195,87.49792892560957,-16.16513427708501,-0.1016,-0.7013,0.6915,-0.1406
193146.0,89.948382,1.0,3.45,-0.21,-9.57,-39.69,2.0,21.19,-2.56,-16.75,-14.13,-0.2678944758882785,0.1343510282879502,-0.3639784147532677,-89.64293153668577,87.13363050750904,-15.563501157916,-0.0988,-0.7049,0.6892,-0.1354
193179.0,89.966823,1.0,3.18,0.01,-9.47,-39.69,2.0,21.19,-4.69,-28.12,-7.06,-0.4612960633764253,0.04380817316266139,-0.17226210432668232,-90.0151077513171,87.00717615200406,-14.996972698908555,-0.095,-0.7072,0.6884,-0.1305
193214.0,89.970281,1.0,3.09,0.21,-9.42,-39.25,0.88,22.69,0.88,-22.19,-15.0,-0.6189978020440371,0.1409570159833179,-0.08908508339374244,-90.6652693687788,86.62860462931063,-14.257569796129179,-0.0903,-0.7112,0.6859999999999999,-0.1241
193251.0,90.01235,1.0,2.93,-0.2,-9.55,-38.56,0.19,23.19,1.5,-22.0,-14.94,-0.2125319952652308,0.03597196731443597,-0.1823908032281114,-91.25362166916472,86.20411602380804,-13.865006554805133,-0.0864,-0.7148,0.6833,-0.1207
193286.0,90.017209,1.0,2.94,-0.55,-10.07,-38.56,0.19,23.19,4.75,-22.19,-12.69,0.12802400195881491,0.03453206931952546,-0.6973215056311409,-91.91098977027544,85.81237907644234,-13.24185777158118,-0.0811,-0.7188,0.6808,-0.1153
193320.0,90.036284,1.0,2.54,0.03,-9.55,-38.56,0.19,23.5,-9.31,-47.75,-5.13,-0.3808350270617381,0.03650875423645383,-0.06799590722254756,-92.2907466103262,85.7654543452423,-12.181091916848366,-0.0754,-0.7211,0.6805,-0.1061
193355.0,90.039478,1.0,2.38,0.16,-9.38,-37.06,-0.19,24.25,-2.88,-30.12,-12.81,-0.4560212328456029,0.1568153347591575,0.14011734418290267,-92.87116542998824,85.51548969920226,-11.086833319532733,-0.0687,-0.7246,0.6789,-0.0966
193392.0,90.08029300000001,1.0,2.37,-0.14,-9.69,-36.69,-0.5,24.37,0.81,-13.75,-9.06,-0.1804546365082305,0.13473536656128726,-0.16741048232916178,-93.30434180891346,85.18817401740314,-10.8450849117299,-0.0652,-0.7272,0.6768,-0.0945
193425.0,90.138384,1.0,2.28,0.15,-9.62,-36.69,-0.5,24.37,-4.13,-8.06,-14.13,-0.4223958590997847,0.1423735960857162,-0.07093125744116335,-93.80632675881121,84.75308505755767,-10.453784866884499,-0.0645,-0.7302,0.674,-0.0911
193462.0,90.194539,1.0,2.28,-0.02,-9.97,-36.0,-0.19,25.25,2.81,-4.88,-15.31,-0.2571182870572129,0.07277241761600406,-0.4172579789332573,-94.22644947426407,84.36588268573803,-10.361732200036483,-0.0639,-0.7327,0.6715,-0.0903
193497.0,90.20339799999999,1.0,2.2,-0.18,-9.66,-35.69,-0.88,26.06,4.63,-9.94,-10.94,-0.09209800207430564,0.1058168833139948,-0.10134277074926068,-94.7158793222747,83.94903131476774,-10.177646918437086,-0.0613,-0.7356,0.6688,-0.0887
193531.0,90.268649,1.0,2.36,-0.29,-10.59,-35.69,-0.88,26.06,4.56,-10.88,-11.75,0.0005894340308487122,0.093145869942882,-1.046604051181152,-95.08869000700686,83.61038082086074,-10.016593913069027,-0.0602,-0.7378,0.6666,-0.0873
193564.0,90.286523,1.0,1.91,-0.01,-9.42,-34.5,-2.0,25.56,-0.69,-28.19,-7.81,-0.2416155987584979,0.08245211827681609,0.1983502778520574,-95.54805066002704,83.34930824823599,-9.315090195791667,-0.0547,-0.7405,0.6649,-0.0812
193601.0,90.33595,1.0,2.14,0.05,-9.92,-34.88,-1.69,27.25,-0.12,-5.56,-17.31,-0.2732363557138776,0.26730104757803824,-0.3344738057662955,-95.97520098011694,82.98163371130366,-9.050681021579294,-0.0536,-0.743,0.6625,-0.0789
193636.0,90.39689399999999,1.0,1.84,-0.5,-9.75,-34.88,-1.69,27.25,2.44,-7.13,-17.62,0.26811426761740875,-0.02111852980395412,-0.12440073731873193,-96.69682377932163,82.29503842028417,-8.843785851491393,-0.0523,-0.7472,0.6579999999999999,-0.0771
193671.0,90.506191,1.0,1.69,-0.18,-9.55,-34.19,-2.75,26.75,1.31,-4.0,-4.69,-0.05524765486172178,-0.06460678742429328,0.1069709506885701,-96.90394078060578,82.12775101851454,-8.740349140335567,-0.0513,-0.7484,0.6569,-0.0762
193705.0,90.555851,1.0,1.66,-0.62,-9.74,-34.5,-2.0,26.37,2.94,2.81,-6.88,0.3623900604651967,-0.1875241347319253,-0.08481643036152953,-97.00765780551971,82.0214061143213,-8.774827247055486,-0.0511,-0.7490000000000001,0.6562,-0.0765
193740.0,90.56270500000001,1.0,1.95,-0.24,-10.11,-33.75,-2.38,27.25,-1.75,-0.31,4.25,-0.002090306215944915,0.06937792250162816,-0.4922519965474645,-96.95578604014551,82.05178160910839,-8.843785851491393,-0.0513,-0.7487,0.6564,-0.0771
193773.0,90.58041300000001,1.0,1.94,-0.26,-10.01,-33.75,-2.38,27.25,1.31,-4.75,-2.19,0.02197133719587846,0.10229594318756674,-0.3923868565050892,-96.99036426880295,82.05178160910839,-8.740349140335567,-0.0503,-0.7489,0.6564,-0.0762
193810.0,90.58378,1.0,1.77,-0.36,-9.83,-34.19,-2.38,26.37,-7.0,-6.31,3.44,0.13092526169093033,-0.013933056159473043,-0.18705123857008665,-96.97307368097871,82.09735799224998,-8.522006076442151,-0.0499,-0.7488,0.6567,-0.0743
193847.0,90.620184,1.0,1.96,0.31,-9.96,-33.0,-3.19,26.75,-8.0,-2.13,7.31,-0.4785497642430226,0.2485852247561848,-0.33477472777744666,-96.76581595045091,82.34069929138175,-8.303694005010767,-0.0508,-0.7476,0.6583,-0.0724
193880.0,90.627573,1.0,1.94,0.01,-10.37,-33.0,-3.19,26.75,-3.75,-9.06,-3.44,-0.15829326748323053,0.1521383281345376,-0.7409751910362221,-96.7830712993422,82.35592311764404,-8.016487142063689,-0.051,-0.7477,0.6584,-0.0699
193914.0,90.646322,1.0,1.47,-0.44,-9.8,-34.19,-2.75,26.37,-10.0,-15.81,9.88,0.30307668649892344,-0.17541266212761308,-0.1065671831381838,-96.54176184653713,82.69129653429431,-7.430739554030821,-0.0494,-0.7463,0.6606,-0.0648
193951.0,90.649408,1.0,1.57,-0.25,-9.98,-33.0,-2.75,27.56,-15.5,-6.44,13.38,0.1831968870138156,-0.04729303020667636,-0.2974087028125592,-96.16370776619527,83.11938905787156,-7.017388604693049,-0.0504,-0.7441,0.6634,-0.0612
193986.0,90.69250600000001,1.0,1.92,-0.28,-10.89,-33.0,-2.75,27.56,-18.31,-11.25,14.25,0.3258352681776773,0.190163006989643,-1.2484198509228914,-95.73577991639958,83.56427059214394,-6.48935022815341,-0.0523,-0.7416,0.6663,-0.0566
194021.0,90.79634,1.0,1.58,0.19,-10.25,-34.19,-2.38,27.25,-23.0,-32.81,18.56,-0.019457474488649595,0.16893127273746267,-0.5647570227610785,-95.02080781947748,84.42775523713395,-5.215716631990905,-0.0516,-0.7374,0.6719,-0.0455
194056.0,90.848101,1.0,1.37,0.23,-9.94,-33.0,-3.19,27.56,-21.94,-32.63,13.88,0.07273613762944689,0.2181410569038215,-0.2273185037165444,-94.46244378855972,85.1414848365832,-3.724881599063971,-0.0493,-0.7341,0.6765,-0.0325
194093.0,90.86645899999999,1.0,1.2,0.26,-10.36,-33.0,-2.0,28.0,-24.25,-38.13,20.19,0.1584070690424262,0.17985791330803794,-0.6231035124996058,-93.8734355552052,85.81237907644234,-2.544141615361497,-0.0473,-0.7306,0.6808,-0.0222
194125.0,90.91170600000001,1.0,0.99,1.18,-9.79,-33.0,-2.0,28.0,-30.37,-38.56,23.06,-0.6014965734345796,0.3159998706984753,-0.08046009111686736,-92.93769566525506,86.80196974664999,-0.7333909844413455,-0.0454,-0.725,0.6871,-0.0064
194162.0,90.92984200000001,1.0,0.73,0.82,-9.69,-31.87,-3.56,29.19,-21.25,-25.37,12.19,-0.14270819373458934,0.18087834284809584,0.057377340127903416,-92.5059720581388,87.27605051042755,0.3552344019497601,-0.0446,-0.7224,0.6901,0.0031
194199.0,90.93269599999999,1.0,0.58,1.05,-9.66,-30.75,-2.88,29.25,-21.37,-8.25,16.44,-0.2440033254358,0.12514771845976844,0.07632110392764879,-91.89450814603757,87.84742865430181,1.3178319771025526,-0.0463,-0.7187,0.6937,0.0115
194234.0,90.973844,1.0,0.81,0.84,-10.24,-30.75,-2.88,29.25,-11.44,-11.81,11.06,0.09692488455441134,0.34780278201383785,-0.4932984848992152,-91.46684165640444,88.24583799153993,1.7647797695524667,-0.0479,-0.7161,0.6962,0.0154
194267.0,91.125217,1.0,0.35,1.23,-9.58,-30.75,-4.75,30.0,-27.12,-20.44,12.38,-0.2118756077092239,0.046425359997654285,0.1441061624380211,-91.04080642783413,88.61356466933819,2.922401528803221,-0.0489,-0.7135,0.6985,0.0255
194304.0,91.13708199999999,1.0,0.6,1.26,-10.21,-29.19,-4.0,30.0,-18.0,-13.81,9.63,-0.05590385818740959,0.3395665491613934,-0.4925377989155262,-90.64896993931684,88.95032385550869,3.6560909909367436,-0.0505,-0.7111,0.7006,0.0319
194340.0,91.14058100000001,1.0,0.43,1.59,-9.99,-29.87,-5.88,29.69,-19.25,-25.37,9.0,-0.28863892497789234,0.3140210397545101,-0.30923742313689395,-90.50238041567628,89.01457860331709,4.699571210920838,-0.05,-0.7102,0.701,0.040999999999999995
194373.0,91.14421,1.0,-0.02,1.33,-9.67,-29.87,-5.88,29.69,-15.63,-28.06,5.06,0.010021845966956322,-0.001616242430679149,0.04560000779302165,-90.24224269381638,89.2075557704903,5.628708719478254,-0.0482,-0.7086,0.7022,0.0491
194410.0,91.18599300000001,1.0,-0.02,1.48,-9.87,-28.37,-4.75,31.25,-19.75,-23.31,7.81,0.017851636356742195,0.15139382588401218,-0.17255143240748616,-89.86932998605263,89.48149018225166,6.78778903124712,-0.0472,-0.7063,0.7039,0.0592
194445.0,91.203921,1.0,0.03,1.9,-10.21,-26.87,-5.5,30.06,-19.44,-24.19,8.13,-0.2539268406016461,0.32342814782527074,-0.5705324399890177,-89.61062519853644,89.62677723650367,7.614481849246593,-0.0463,-0.7047,0.7048,0.0664
194480.0,91.207011,1.0,-0.13,1.66,-9.91,-26.87,-5.5,30.06,-6.5,-42.38,0.69,0.03634417962836695,0.3851762024156372,-0.2348099732160396,-89.32027391021383,89.77224753073929,8.970218312913039,-0.0416,-0.7029,0.7057,0.0782
194514.0,91.301529,1.0,-0.92,1.48,-8.84,-26.56,-5.06,31.69,-15.13,-24.69,7.69,0.08989798407303265,-0.30812773312122577,0.8022413213281379,-89.06279291382195,89.93409723395683,9.878564278366849,-0.0374,-0.7013,0.7067,0.0861
194551.0,91.306803,1.0,-0.35,2.1,-10.07,-26.19,-6.25,32.5,-22.0,-11.38,18.25,-0.18646221761558107,0.3998146457512991,-0.4764808505943189,-88.50152621211956,90.32347191708826,10.637910557080565,-0.0396,-0.6978,0.7091,0.0927
194586.0,91.353187,1.0,-0.54,2.96,-9.15,-26.19,-6.25,32.5,-25.31,-19.06,9.81,-1.066163980615429,0.19924700027471376,0.2358979397217791,-87.97477410653165,90.6652693687788,11.535926836248436,-0.0414,-0.6945,0.7112,0.1005
194621.0,91.403357,1.0,-0.86,3.05,-8.56,-25.5,-6.56,31.69,-12.81,-0.75,-0.06,-1.1745934258494135,-0.11516410704542634,0.7555303171983301,-87.94292494652382,90.5512225500058,12.169567773976445,-0.0427,-0.6943,0.7105,0.106
194656.0,91.420898,1.0,-0.49,2.05,-9.97,-25.5,-7.38,32.19,9.13,10.44,-4.44,0.07113654978456274,0.3535659379822341,-0.3773291201073992,-88.2937373305732,90.24224269381638,11.927589126675839,-0.0439,-0.6965,0.7086,0.1039
194691.0,91.423785,1.0,-0.79,2.73,-8.96,-25.5,-6.56,31.37,-5.13,3.06,-6.69,-0.7664335419807633,-0.04714143877480725,0.4381411906708905,-88.51752516910072,89.99890106694885,11.985198208002224,-0.0457,-0.6979,0.7071,0.1044
194725.0,91.459474,1.0,-0.6,2.12,-9.7,-25.5,-6.56,31.37,7.63,6.69,-7.13,-0.074787683385027,0.1766287176168917,-0.1385804698547286,-88.83796307481566,89.75607508695732,11.616551985135152,-0.045,-0.6999,0.7056,0.1012
194762.0,91.48065,1.0,-0.69,2.52,-9.38,-25.06,-6.56,31.25,-4.0,-2.06,-4.0,-0.5395471459816599,0.06776078455935952,0.08475731630209005,-88.9824468050114,89.62677723650367,11.593515641253695,-0.0446,-0.7008,0.7048,0.10099999999999999
194797.0,91.521045,1.0,-0.57,1.78,-9.94,-25.06,-7.38,31.69,10.38,8.69,-8.81,0.2633323737518916,0.205094394274415,-0.3020340068513097,-89.38473348979856,89.27195273153545,11.34014667578332,-0.0445,-0.7033,0.7026,0.0988
194832.0,91.53754599999999,1.0,-0.56,1.72,-10.39,-25.06,-7.38,31.69,2.44,-9.06,-0.31,0.3764951542224839,0.2679801572225013,-0.729503853953636,-89.51376040615051,89.17537067204425,11.271055753655435,-0.0427,-0.7041,0.7020000000000001,0.0982
194865.0,91.584766,1.0,-0.81,1.4,-10.07,-25.87,-7.38,32.06,0.06,-8.63,-2.75,0.6160971041266643,0.057618961925066985,-0.3736301736255497,-89.61062519853644,89.04671926027092,11.489857897732715,-0.04,-0.7047,0.7012,0.1001
194902.0,91.603511,1.0,-1.09,1.7,-9.64,-24.69,-7.0,32.5,-7.88,-17.31,8.75,0.26852453581080904,-0.18046968872419566,-0.03728342445586641,-89.41697673415354,89.17537067204425,11.916067673936475,-0.0383,-0.7035,0.7020000000000001,0.1038
194936.0,91.69703100000001,1.0,-0.99,2.4,-9.14,-24.69,-7.0,32.5,-12.88,7.56,5.56,-0.4618993685929833,-0.11625633500493505,0.3170328613655524,-89.15928146398718,89.36861523314379,12.181091916848366,-0.04,-0.7019,0.7032,0.1061
194971.0,91.700018,1.0,-0.43,1.96,-10.38,-25.06,-6.25,32.5,5.88,-0.5,5.38,0.22141509891551134,0.4856661351849154,-0.7520432789577159,-89.12710972399763,89.41697673415354,11.939110700430104,-0.0424,-0.7017,0.7035,0.10400000000000001
195006.0,91.741069,1.0,-0.8,1.93,-9.31,-25.06,-7.75,30.87,-3.94,4.19,11.75,0.03708013465503107,0.012500754231129065,0.265189483142132,-89.01457860331709,89.54603964341463,11.904546342091734,-0.0428,-0.701,0.7043,0.1037
195043.0,91.745264,1.0,-0.38,2.48,-10.05,-24.69,-7.0,32.19,-5.94,-4.19,1.31,-0.29573274386800297,0.4761225643109863,-0.5366158985427933,-88.82192034919494,89.67524692878357,12.06585603312212,-0.0454,-0.6998,0.7051,0.1051
195076.0,91.832386,1.0,-0.67,1.71,-9.95,-24.69,-7.0,32.19,-0.44,-6.63,7.13,0.4500381342204157,0.21490676996113034,-0.2991295720059277,-88.56553510664364,89.90170904203455,12.261764386292771,-0.0443,-0.6982,0.7065,0.1068
195112.0,91.911011,1.0,-0.71,2.44,-9.97,-25.06,-7.0,31.69,-16.75,-9.75,9.0,-0.204022711175106,0.2034242977398213,-0.4780762135855508,-88.21391588431885,90.16107125343979,12.607573156584115,-0.0449,-0.696,0.7081,0.1098
195147.0,91.970939,1.0,-0.88,2.52,-8.98,-25.06,-7.0,31.69,-12.06,1.56,-3.38,-0.4168383356159279,-0.04083277023052423,0.4477089014121756,-88.24583799153993,90.03131672872559,12.999629346780695,-0.0472,-0.6962,0.7073,0.1132
195182.0,91.975018,1.0,-0.54,2.22,-10.25,-25.06,-7.0,31.69,-7.81,-13.31,10.81,0.1891736602850005,0.4378848449718831,-0.6840587553128811,-87.99070189101793,90.20976719290563,13.230321745568984,-0.0477,-0.6946,0.7084,0.1152
195217.0,92.018019,1.0,-1.04,2.73,-8.65,-24.69,-6.56,31.25,-7.75,6.06,-3.88,-0.6011123052085976,-0.2235788113708006,0.6991982975953785,-87.99070189101793,90.14484388488701,13.44952940908047,-0.0501,-0.6946,0.708,0.1171
195254.0,92.079187,1.0,-0.58,2.3,-9.53,-24.37,-6.25,31.69,0.31,20.62,-0.19,0.030962191101304992,0.2294301014118169,-0.011379495336035106,-88.1820023944288,89.98269667432403,13.138038375794716,-0.0544,-0.6958,0.7070000000000001,0.1144
195289.0,92.09778100000001,1.0,-0.7,2.9,-8.7,-24.37,-6.25,31.69,3.38,27.31,2.75,-0.7545979633202609,-0.07067734452238628,0.6406483293300589,-88.1820023944288,90.04752800047241,12.619102083523115,-0.0581,-0.6958,0.7074,0.1099
195321.0,92.196837,1.0,0.0,2.27,-9.81,-25.5,-7.75,31.69,7.75,56.19,-6.0,0.05319367253305008,0.3817136707977309,-0.25518209493820804,-88.67763467052185,89.7237370153758,11.017757342406151,-0.0683,-0.6989,0.7054,0.096
195356.0,92.259679,1.0,0.43,2.86,-10.22,-26.19,-7.38,30.87,5.88,43.19,-0.44,-0.4628195901555623,0.516498313313138,-0.7920257436631211,-89.01457860331709,89.48149018225166,9.648546712798435,-0.0778,-0.701,0.7039,0.0841
195393.0,92.28105,1.0,0.25,2.34,-9.63,-27.69,-7.75,29.37,19.44,21.62,-13.88,-0.160289693978939,0.22093488423137408,-0.10296628878403348,-89.54603964341463,89.030647823847,8.843785851491393,-0.0796,-0.7043,0.7011,0.0771
195428.0,92.324665,1.0,0.47,2.4,-10.04,-27.69,-7.75,29.37,9.31,17.37,-12.63,-0.215587330335874,0.3388996790719045,-0.5191027139925044,-90.19353290614056,88.50152621211956,8.027974436112627,-0.0804,-0.7083,0.6978,0.07
195465.0,92.331932,1.0,0.31,2.16,-9.67,-28.75,-7.38,29.0,17.5,10.25,-18.31,-0.12163292493806376,0.1413440210375554,-0.10474885683589896,-90.82839290633041,87.94292494652382,7.557060298129735,-0.0801,-0.7122,0.6943,0.0659
195500.0,92.350089,1.0,0.2,1.84,-9.38,-28.37,-7.75,29.5,22.12,15.38,-14.38,-0.006515029216695389,-0.03710024757867303,0.24586650041044145,-91.59825645648041,87.32356135651855,6.638563994932457,-0.0781,-0.7169,0.6904,0.0579
195534.0,92.353269,1.0,0.34,1.76,-9.56,-28.37,-7.75,29.5,11.88,24.81,-13.56,0.044054005584234064,-0.002779745980252546,0.08014746735219093,-92.10896087538231,86.88085409815075,5.915551513947968,-0.0795,-0.72,0.6876,0.0516
195567.0,92.39166999999999,1.0,0.77,1.76,-10.24,-28.75,-6.25,28.19,17.0,27.0,-8.0,0.08667284065350983,0.2342254018827237,-0.6089981449694708,-92.58886357052627,86.4397606253599,4.837200229263812,-0.0818,-0.7229,0.6848,0.0422
195604.0,92.39880600000001,1.0,0.59,1.83,-9.58,-29.87,-6.56,28.25,6.63,2.0,-12.19,-0.15381140817956807,0.07631979800282296,0.0371097171030268,-92.93769566525506,86.12566858375126,4.516076369343336,-0.0811,-0.725,0.6828,0.0394
195639.0,92.416151,1.0,0.62,1.61,-9.63,-29.87,-6.56,28.25,11.88,12.63,-12.81,0.00561825680464359,0.04534940529789744,0.0234341756082248,-93.48813148907244,85.62478707023612,4.000057708800217,-0.0806,-0.7283,0.6796,0.0349
195674.0,92.419267,1.0,0.67,1.73,-9.72,-30.25,-6.56,29.0,12.63,14.5,-8.94,-0.1557510029092935,0.03956441884665973,-0.08750869500050308,-93.80632675881121,85.32834664281017,3.4841201823987773,-0.0807,-0.7302,0.6777,0.0304
195708.0,92.457874,1.0,0.81,1.82,-9.68,-29.5,-6.56,28.56,8.38,22.25,-10.69,-0.3025063139336759,0.06984687243913458,-0.07133113707658012,-94.27697557969387,84.86171562810705,2.6931495578860725,-0.0831,-0.733,0.6747,0.0235
195743.0,92.464776,1.0,1.16,1.89,-10.25,-31.25,-7.0,29.0,7.0,10.69,-14.63,-0.2980108269916494,0.2991165140375881,-0.6719910787862062,-94.7327966552025,84.41228425907684,2.200293133435064,-0.0844,-0.7357,0.6718,0.0192
195778.0,92.525277,1.0,0.85,1.69,-9.6,-31.25,-7.0,29.0,15.63,4.0,-17.56,-0.3071729167097329,0.039797337149797496,0.02694341078190554,-95.44579560430292,83.7488111988913,1.7647797695524667,-0.0817,-0.7399,0.6675,0.0154
195815.0,92.53246899999999,1.0,0.8,1.61,-9.49,-29.75,-7.38,29.0,13.25,12.13,-18.69,-0.3121692890044165,-0.02975783218261685,0.15295304979350102,-96.06084314103792,83.1806607941667,1.3292918974264516,-0.0806,-0.7435,0.6638,0.0116
195850.0,92.59269599999999,1.0,1.13,1.03,-9.96,-29.75,-6.25,28.56,21.69,20.56,-19.94,0.2359581311329927,0.08240249110239461,-0.2669260080426419,-96.83485491073408,82.41683612578922,0.3666936147093117,-0.0803,-0.748,0.6588,0.0032
195885.0,92.609218,1.0,1.34,1.47,-10.0,-29.75,-6.25,28.56,12.56,22.37,-18.5,-0.22801995399893202,0.2489348962689655,-0.3836659086457157,-97.40622744619556,81.8089732715648,-0.29793838914592274,-0.0815,-0.7513,0.6548,-0.0026
195919.0,92.61202,1.0,1.17,1.05,-9.79,-30.19,-6.69,28.25,21.75,22.81,-19.44,0.010857171813084251,-0.06791900020843178,-0.10852872411944324,-98.20814407664992,80.9927594143726,-1.3865917007687605,-0.0818,-0.7559,0.6494,-0.0121
195954.0,92.653464,1.0,1.66,1.12,-10.31,-31.69,-7.06,27.75,11.19,25.69,-14.63,-0.02333584652358256,0.222806379845392,-0.6936315560044495,-98.69945281813551,80.45136650125512,-2.2575997541901875,-0.0835,-0.7587,0.6458,-0.0197
195991.0,92.753361,1.0,1.45,1.12,-9.66,-31.69,-6.69,27.0,15.56,16.12,-17.75,-0.1966717902367632,0.02651980347906091,-0.023564489366371788,-99.35247172605571,79.74778543159233,-3.0599582684028324,-0.084,-0.7624,0.6411,-0.0267
196024.0,92.809896,1.0,1.58,1.04,-9.79,-31.69,-6.69,27.0,17.44,20.0,-20.12,-0.17230461572533842,0.04303511076435379,-0.16283138564094024,-99.93861474574966,79.10723062788524,-3.7822081305683333,-0.084,-0.7657,0.6368,-0.033
196061.0,92.817192,1.0,1.72,0.44,-9.81,-32.5,-7.5,27.5,13.25,19.69,-23.69,0.3565242842696063,-0.042975551484319814,-0.1562383129693199,-100.85156520381315,78.11500148015571,-4.642227799866185,-0.085,-0.7708,0.6301,-0.0405
196096.0,92.83637900000001,1.0,1.98,1.06,-10.04,-32.5,-7.88,27.0,5.0,15.06,-12.0,-0.211854133608538,0.2037842945226896,-0.4772787136472712,-101.26617635567743,77.6288499193909,-5.089538374458754,-0.0871,-0.7731,0.6268,-0.0444
196130.0,92.899562,1.0,1.9,1.34,-9.45,-32.5,-7.88,27.0,10.94,14.88,-15.44,-0.5844144978667227,0.22232309831216854,0.09494921514052734,-101.827911474709,76.96857576197083,-5.720494487173099,-0.08800000000000001,-0.7762,0.6223,-0.0499
196165.0,92.966593,1.0,2.16,0.98,-9.84,-33.19,-8.56,27.0,7.63,38.81,-28.75,-0.20435664550644872,0.17085530230685864,-0.31168221569201826,-102.55778172371149,76.06378359355024,-6.523783187455053,-0.092,-0.7802,0.6161,-0.0569
196202.0,93.01078000000001,1.0,2.32,0.56,-9.89,-33.56,-7.5,26.56,26.56,30.81,-17.87,0.07700428761089427,0.033875495607159745,-0.3668952419737597,-103.25656970588601,75.13562834382228,-7.982025743589274,-0.0934,-0.784,0.6097,-0.0696
196237.0,93.031806,1.0,2.58,0.64,-10.37,-33.56,-7.5,26.56,8.06,23.62,-20.75,-0.018958275408626823,0.07049839317697343,-0.8983754815368368,-103.73780360335891,74.48647019368201,-8.786320126014099,-0.0948,-0.7866,0.6052,-0.0766
196270.0,93.034947,1.0,2.5,0.42,-9.98,-34.19,-7.5,25.75,2.94,15.44,-24.94,0.1714183972912402,-0.0761070580863571,-0.4885733316611239,-104.42711160225716,73.63956054350221,-9.246109154854068,-0.0983,-0.7903,0.5993,-0.0806
196306.0,93.072829,1.0,2.56,0.7,-9.94,-34.19,-9.38,25.37,10.38,7.63,-8.63,-0.14060885962341496,0.03481292284376747,-0.4805370406345038,-104.78316565832016,73.2392754532824,-9.648546712798435,-0.0974,-0.7922,0.5965,-0.0841
196341.0,93.079488,1.0,2.36,0.54,-9.31,-34.19,-9.38,25.0,9.19,14.69,-18.12,-0.07880244267589931,-0.10270165468619108,0.1878900723818316,-105.36720117412769,72.54126289658385,-10.189151472083807,-0.0983,-0.7953,0.5916,-0.0888
196376.0,93.146858,1.0,2.71,0.65,-9.52,-34.19,-9.38,25.0,9.25,26.19,-16.12,-0.12882890053512852,0.0811684319321464,-0.1117074648247378,-105.80305309851605,71.90296867479128,-10.833574298853826,-0.1013,-0.7976,0.5871,-0.0944
196413.0,93.202176,1.0,2.93,0.79,-9.51,-35.0,-9.69,23.75,5.25,33.06,-19.31,-0.27025083945301065,0.14824326667180188,-0.17102951067087702,-106.27930542410908,71.0981430834236,-11.869983070722633,-0.1057,-0.8001,0.5814,-0.1034
196448.0,93.301188,1.0,2.95,0.95,-9.23,-34.56,-9.69,23.75,7.38,14.69,-19.06,-0.4365468377695103,0.20299160151057025,0.08213863602136406,-106.7390046476622,70.4375427333033,-12.434654560583265,-0.1081,-0.8025,0.5767,-0.1083
196481.0,93.360398,1.0,2.92,0.38,-9.26,-34.56,-9.69,23.75,14.19,19.31,-23.44,0.028634690233586224,-0.1001358719428932,0.09029508358893423,-107.53011997485687,69.4307331793357,-13.149573327758748,-0.1089,-0.8066,0.5695,-0.1145
196517.0,93.37619699999999,1.0,3.37,0.32,-10.11,-35.69,-9.69,23.5,12.69,22.06,-16.81,0.11724250572362327,-0.09411890749713303,-0.8539689232193801,-107.9382233400721,68.81847155097867,-13.841919736512358,-0.111,-0.8087,0.5651,-0.1205
196554.0,93.380292,1.0,3.26,0.29,-9.5,-35.69,-10.38,22.56,12.25,20.19,-18.81,0.064400477591813,-0.1065956155042701,-0.2405481145611557,-108.46588317577202,68.02862779063561,-14.638747929971785,-0.1116,-0.8114,0.5594,-0.1274
196589.0,93.383193,1.0,3.34,0.52,-9.31,-35.69,-10.38,22.56,9.63,25.75,-14.06,-0.16663762092518794,-0.0001831082928770433,-0.0965985513473715,-108.8195376256316,67.43520561710105,-15.332219618835126,-0.1137,-0.8132,0.5551,-0.1334
196622.0,93.42504100000001,1.0,3.58,0.28,-9.32,-35.0,-10.75,21.75,21.31,40.31,-12.56,-0.033843921459846826,-0.0575698750952095,-0.1809793632904597,-109.05615676372436,66.69286830197329,-16.801965875210325,-0.1152,-0.8144,0.5497,-0.1461
196659.0,93.443352,1.0,3.91,0.23,-9.78,-36.06,-10.38,22.19,6.75,23.62,-11.94,-0.027360617542877,-0.119635627504455,-0.7277858516837199,-109.27366158489086,66.04932726333173,-17.845191938186247,-0.1182,-0.8155,0.545,-0.1551
196694.0,93.446407,1.0,3.89,0.39,-9.16,-36.75,-11.5,22.19,14.25,15.75,-8.0,-0.1690403266653394,0.10129379905905313,-0.15080775457938245,-109.45205367310278,65.69433435122963,-18.34414360467089,-0.1179,-0.8164,0.5424,-0.1594
196728.0,93.491844,1.0,4.04,0.31,-9.25,-36.75,-11.5,22.19,8.88,19.0,-12.06,-0.13633284572580207,0.06234203162854258,-0.2907618875219047,-109.75024971660669,65.08159370090408,-19.13390399645449,-0.11900000000000001,-0.8179,0.5379,-0.1662
196765.0,93.50986,1.0,4.27,0.49,-9.53,-37.38,-10.75,20.56,5.94,20.19,-13.81,-0.29472630061677074,0.10996865814761823,-0.6429884292448094,-109.90973941260323,64.60646007520779,-19.691932497848974,-0.1219,-0.8187,0.5344,-0.171
196800.0,93.513428,1.0,4.16,0.39,-8.96,-36.75,-10.75,21.06,11.5,17.31,-13.88,-0.21073884381689129,0.12916352333693315,-0.07657851723797647,-110.1896107771162,64.11904710633912,-20.227152563579647,-0.1226,-0.8201,0.5308,-0.1756
196835.0,93.55750400000001,1.0,4.54,-0.36,-9.81,-36.75,-10.75,21.06,15.13,29.31,-20.06,0.38559104176630055,-0.3403879171694616,-0.9967177903862314,-110.59113537677601,63.242263086553784,-21.147383365420364,-0.1245,-0.8221,0.5243,-0.1835
196870.0,93.577855,1.0,4.52,0.03,-9.69,-37.75,-10.0,18.25,5.0,10.94,-7.13,-0.02743954528352344,-0.2377448162417052,-0.8830705049386065,-110.53077739592041,63.01363300906978,-21.753854808314237,-0.126,-0.8218,0.5226,-0.1887
196904.0,93.622339,1.0,4.44,0.35,-8.88,-37.38,-11.88,18.56,11.13,8.75,-6.19,-0.2335664435359777,0.15420570395350275,-0.12371592061552228,-110.61126490677215,62.8792753053861,-21.940584737009782,-0.1252,-0.8222,0.5216,-0.1903
196941.0,93.67837,1.0,4.42,0.44,-8.76,-37.38,-11.88,18.56,4.88,15.19,-13.88,-0.35191322116937784,0.17412397844855687,-0.0072909986455194096,-110.91382347990452,62.36959041979664,-22.431032941974188,-0.1252,-0.8237,0.5178,-0.1945
196974.0,93.703089,1.0,4.65,0.08,-9.08,-37.38,-11.19,19.06,16.25,21.75,-11.81,-0.05221712668845746,-0.044473008382994735,-0.3948496703036657,-111.13643927299914,61.754432405476855,-23.097309457161245,-0.1277,-0.8248,0.5132,-0.2002
197009.0,93.799547,1.0,4.62,0.46,-8.66,-37.38,-12.69,19.06,11.13,18.56,-8.0,-0.3951204883507329,0.2047783943925424,-0.009334189518416023,-111.25813232752796,61.31433804552232,-23.740958889771715,-0.128,-0.8254,0.5099,-0.2057
197046.0,93.84868900000001,1.0,4.76,0.05,-8.8,-38.19,-12.25,17.75,7.25,25.06,-16.19,-0.08956165390987914,-0.057409689328671076,-0.1977881570241173,-111.52245118481588,60.52998522199608,-24.64335146895964,-0.1299,-0.8267,0.504,-0.2134
197079.0,93.868798,1.0,4.98,-0.54,-9.26,-38.19,-12.25,17.75,14.69,27.87,-11.69,0.2983053082185307,-0.5140988944597144,-0.7045971319917079,-111.6651483609591,59.80162063871753,-25.711825174606233,-0.132,-0.8274,0.4985,-0.2225
197115.0,93.915782,1.0,5.3,-0.03,-9.39,-38.19,-12.25,18.25,4.44,13.0,1.69,-0.12878716820090194,-0.15454125259965412,-0.9740054006030494,-111.4817285033188,59.695899058507344,-26.241026566581308,-0.1327,-0.8265,0.4977,-0.22699999999999998
197152.0,93.98230799999999,1.0,5.41,-0.61,-9.56,-38.88,-11.19,17.75,3.38,6.38,-4.5,0.3477799441698762,-0.4606495503600172,-1.1797348058488415,-111.4817285033188,59.52422071985297,-26.535272907054928,-0.1331,-0.8265,0.4964,-0.2295
197187.0,93.991668,1.0,5.15,0.24,-8.92,-38.88,-11.19,17.75,-12.94,-11.75,7.31,-0.30345380397705,0.05771721055350265,-0.4914607253931678,-111.40034681062792,59.775184989554425,-26.20572887768385,-0.1335,-0.8261,0.4983,-0.2267
197220.0,94.05510500000001,1.0,4.96,0.65,-8.66,-37.75,-12.69,17.5,-0.12,-6.5,5.06,-0.6553383660817154,0.26268038670775096,-0.16938281071090167,-111.31904975679159,60.02646555170329,-25.923438140144054,-0.1327,-0.8257,0.5002,-0.2243
197257.0,94.074246,1.0,4.77,-0.22,-8.66,-38.19,-11.56,17.75,0.25,1.31,-5.31,0.040990925322781264,-0.2906182700680243,-0.07822535405196085,-111.4817285033188,59.8677251126705,-25.94695623100749,-0.1326,-0.8265,0.499,-0.2245
197294.0,94.077477,1.0,5.02,0.37,-9.0,-38.19,-11.56,17.75,-2.75,2.13,5.75,-0.462209132212051,0.016815301516217573,-0.4949702591502447,-111.31904975679159,60.01323233461206,-25.94695623100749,-0.1332,-0.8257,0.5001,-0.2245
197326.0,94.080577,1.0,4.95,-0.03,-8.95,-37.75,-12.38,17.5,1.37,-2.0,-2.38,-0.13555352557817069,-0.1869703698571641,-0.4184449786541755,-111.35968772291412,59.99999999999999,-25.970475433904987,-0.1323,-0.8259,0.5,-0.2247
197363.0,94.127157,1.0,4.86,-0.13,-8.8,-38.56,-11.25,18.56,-0.19,-4.31,2.56,-0.03591374841045203,-0.2178147477183769,-0.24460698300225125,-111.42068428698192,59.99999999999999,-25.86464777060069,-0.1318,-0.8262,0.5,-0.2238
197398.0,94.190289,1.0,5.07,0.43,-8.63,-39.25,-12.75,17.5,1.31,3.0,0.88,-0.410384998299107,0.2740509584100037,-0.19950711576455585,-111.31904975679159,60.09264488671134,-25.876405289927124,-0.1321,-0.8257,0.5007,-0.2239
197431.0,94.198379,1.0,5.07,0.29,-8.91,-39.25,-12.75,17.5,0.94,2.63,-2.0,-0.3644935374682535,0.06910561057993259,-0.4422264689467408,-111.35968772291412,59.9867685475142,-25.99399574998519,-0.1323,-0.8259,0.4999,-0.2249
197468.0,94.264662,1.0,4.91,0.0,-8.92,-37.38,-12.38,17.5,1.44,-3.56,-0.25,-0.1759296066493593,-0.17829110165714668,-0.3723362489628155,-111.44102705802788,59.920624504637715,-25.970475433904987,-0.1315,-0.8263,0.4994,-0.2247
197502.0,94.32418,1.0,4.93,0.24,-8.64,-38.19,-11.56,18.25,0.56,0.25,-1.0,-0.29834768580651383,0.07532427449246804,-0.13907344839962302,-111.46137512854489,59.93385155178053,-25.88816308640127,-0.1318,-0.8264,0.4995,-0.22399999999999998
197537.0,94.340811,1.0,4.85,0.17,-8.76,-38.19,-11.56,18.25,-2.88,-1.81,0.06,-0.28331239144258824,-0.06732596738785135,-0.2035548581919837,-111.4817285033188,59.94707947928739,-25.8058643261674,-0.132,-0.8265,0.4996,-0.2233
197572.0,94.343699,1.0,4.84,0.18,-8.68,-38.19,-12.0,16.19,2.0,2.63,0.44,-0.2871420761898543,-0.03704343392614606,-0.12897163189019525,-111.4817285033188,59.93385155178053,-25.86464777060069,-0.1318,-0.8265,0.4995,-0.2238
197607.0,94.384536,1.0,4.99,0.15,-8.8,-38.19,-12.38,17.75,1.12,2.56,-0.25,-0.2376553194897996,-0.0022015649201143628,-0.3079985407170778,-111.46137512854489,59.90739833750701,-25.94695623100749,-0.1321,-0.8264,0.4993,-0.2245
197642.0,94.392126,1.0,4.87,0.0,-8.69,-38.19,-12.38,17.75,-0.94,2.13,-0.19,-0.1266557069603571,-0.1277749232167551,-0.15330140052858532,-111.44102705802788,59.88094864187493,-25.98223545272544,-0.1326,-0.8263,0.4991,-0.2248
197677.0,94.410966,1.0,5.14,0.0,-9.14,-37.38,-11.56,17.37,2.38,3.19,1.5,-0.14333403596674432,-0.13057291916302205,-0.6777005314785587,-111.38001462419376,59.89417305003661,-26.0880881691222,-0.1326,-0.826,0.4992,-0.2257
197711.0,94.455922,1.0,5.1,0.02,-8.9,-38.19,-12.0,17.75,-2.81,-0.37,0.75,-0.1169588667270136,-0.048338577089578116,-0.45026883586191424,-111.31904975679159,59.94707947928739,-26.076325639174165,-0.1329,-0.8257,0.4996,-0.2256
197748.0,94.463769,1.0,5.02,0.24,-8.59,-38.56,-12.0,17.5,0.88,3.31,1.0,-0.27805878505235426,0.1271621269297396,-0.14084280500016,-111.25813232752796,59.9867685475142,-26.123377437941194,-0.1329,-0.8254,0.4999,-0.226
197781.0,94.483772,1.0,5.07,0.03,-8.76,-38.56,-12.0,17.5,4.13,3.0,-0.31,-0.1371332247439251,-0.02194170289716091,-0.3138298819198955,-111.23783703748735,59.94707947928739,-26.288094094940124,-0.1328,-0.8253,0.4996,-0.2274
197818.0,94.534341,1.0,4.92,0.26,-8.79,-39.25,-12.38,17.5,-4.63,1.37,1.37,-0.4049877408521901,-0.04788626950944619,-0.2617059648510587,-111.15670835013724,60.01323233461206,-26.27632678993584,-0.1332,-0.8249,0.5001,-0.2273
197853.0,94.554187,1.0,5.03,0.1,-8.72,-38.56,-10.88,17.0,1.81,1.25,2.0,-0.20550402502749146,-0.011848640994024828,-0.2584842616680554,-111.11617542436285,60.0396996516268,-26.29986168212807,-0.1334,-0.8247,0.5003,-0.2275
197888.0,94.60039499999999,1.0,5.03,0.17,-8.65,-38.56,-10.88,17.0,2.88,3.81,1.81,-0.2584103061658731,0.040419204435686806,-0.1975436407478668,-111.07566339389359,60.0396996516268,-26.370473139201327,-0.1337,-0.8245,0.5003,-0.2281
197920.0,94.66012099999999,1.0,5.07,0.0,-8.93,-38.56,-12.75,17.75,0.56,2.44,-0.88,-0.1724144378692306,-0.14925077645023466,-0.4596929451457186,-111.0351722213916,60.01323233461206,-26.47640945025204,-0.134,-0.8243,0.5001,-0.22899999999999998
