,TIME,ELAPSED_SECONDS,PSTATE,acc_x,acc_y,acc_z,mag_x,mag_y,mag_z,gyr_x,gyr_y,gyr_z,lin_x,lin_y,lin_z,eul_x,eul_y,eul_z,qua_w,qua_x,qua_y,qua_z
0,2191403.0,2133.953492,1.0,7.21,0.91,-6.72,-24.75,-22.56,12.75,0.69,-0.63,-1.06,-0.11429531135106523,-0.03886181512565123,-0.09062368223837147,-128.0277034878583,18.88991127772655,-45.61049316943376,-0.1214,-0.8989,0.1641,-0.3876
1,2191403.0,2133.953492,1.0,7.21,0.91,-6.72,-24.75,-22.56,12.75,0.69,-0.63,-1.06,-0.11429531135106523,-0.03886181512565123,-0.09062368223837147,-128.0277034878583,18.88991127772655,-45.61049316943376,-0.1214,-0.8989,0.1641,-0.3876
2,2191437.0,2133.983278,1.0,7.35,1.01,-6.74,-27.06,-22.56,12.75,0.06,2.06,-0.81,-0.08059271599605017,0.07075403015923021,-0.21625869365498215,-128.0277034878583,18.855062255560348,-45.64778844933024,-0.1214,-0.8989,0.1638,-0.3879
3,2191437.0,2133.983278,1.0,7.35,1.01,-6.74,-27.06,-22.56,12.75,0.06,2.06,-0.81,-0.08059271599605017,0.07075403015923021,-0.21625869365498215,-128.0277034878583,18.855062255560348,-45.64778844933024,-0.1214,-0.8989,0.1638,-0.3879
4,2191472.0,2134.029627,1.0,7.19,1.22,-6.47,-25.87,-21.87,12.75,0.25,-1.37,-2.0,-0.07958208004872111,0.3166959930315507,0.06299717672407645,-128.05386288415187,18.796984460560502,-45.61049316943376,-0.1217,-0.899,0.1633,-0.3876
5,2191472.0,2134.029627,1.0,7.19,1.22,-6.47,-25.87,-21.87,12.75,0.25,-1.37,-2.0,-0.07958208004872111,0.3166959930315507,0.06299717672407645,-128.05386288415187,18.796984460560502,-45.61049316943376,-0.1217,-0.899,0.1633,-0.3876
6,2191507.0,2134.0927309999997,1.0,7.29,1.22,-6.67,-25.87,-21.87,12.75,4.75,1.5,-2.0,-0.14507957177566447,0.2651497896653027,-0.1447342005468677,-128.1324147334415,18.646004953165537,-45.635356121986106,-0.1213,-0.8993,0.162,-0.3878
7,2191507.0,2134.0927309999997,1.0,7.29,1.22,-6.67,-25.87,-21.87,12.75,4.75,1.5,-2.0,-0.14507957177566447,0.2651497896653027,-0.1447342005468677,-128.1324147334415,18.646004953165537,-45.635356121986106,-0.1213,-0.8993,0.162,-0.3878
8,2191542.0,2134.110754,1.0,7.31,1.14,-6.7,-26.69,-22.56,12.0,7.38,-0.31,-2.44,-0.12058095852587668,0.19657012638102234,-0.17195312958960685,-128.2110774660985,18.506668239532367,-45.64778844933024,-0.1202,-0.8996,0.1608,-0.3879
9,2191542.0,2134.110754,1.0,7.31,1.14,-6.7,-26.69,-22.56,12.0,7.38,-0.31,-2.44,-0.12058095852587668,0.19657012638102234,-0.17195312958960685,-128.2110774660985,18.506668239532367,-45.64778844933024,-0.1202,-0.8996,0.1608,-0.3879
10,2191577.0,2134.113976,1.0,7.17,1.15,-6.5,-25.56,-22.19,12.38,7.56,-1.19,-4.0,-0.07687699541405832,0.2545203680425877,0.0644372477641113,-128.31613447366578,18.30932175034793,-45.635356121986106,-0.1191,-0.9,0.1591,-0.3878
11,2191577.0,2134.113976,1.0,7.17,1.15,-6.5,-25.56,-22.19,12.38,7.56,-1.19,-4.0,-0.07687699541405832,0.2545203680425877,0.0644372477641113,-128.31613447366578,18.30932175034793,-45.635356121986106,-0.1191,-0.9,0.1591,-0.3878
12,2191611.0,2134.152519,1.0,7.46,0.81,-6.69,-25.56,-22.19,12.38,14.13,12.38,-5.0,0.07731446675346945,-0.06276221053848062,-0.24590606192569275,-128.31613447366578,17.93799404290059,-45.896554507042076,-0.1171,-0.9,0.1559,-0.3899
13,2191611.0,2134.152519,1.0,7.46,0.81,-6.69,-25.56,-22.19,12.38,14.13,12.38,-5.0,0.07731446675346945,-0.06276221053848062,-0.24590606192569275,-128.31613447366578,17.93799404290059,-45.896554507042076,-0.1171,-0.9,0.1559,-0.3899
14,2191646.0,2134.169069,1.0,7.42,0.5,-6.98,-25.56,-22.19,13.19,11.81,6.5,-5.06,-0.08712613035590414,-0.4395230231004851,-0.38285580497277216,-128.2110774660985,17.555261104447528,-46.25767230528911,-0.1144,-0.8996,0.1526,-0.3928
15,2191646.0,2134.169069,1.0,7.42,0.5,-6.98,-25.56,-22.19,13.19,11.81,6.5,-5.06,-0.08712613035590414,-0.4395230231004851,-0.38285580497277216,-128.2110774660985,17.555261104447528,-46.25767230528911,-0.1144,-0.8996,0.1526,-0.3928
16,2191683.0,2134.215725,1.0,7.5,0.3,-6.93,-26.69,-21.5,11.69,5.19,7.06,-3.13,0.033657342793422584,-0.594681988743546,-0.3918852142128806,-128.1324147334415,17.346581127291525,-46.48205884773244,-0.1133,-0.8993,0.1508,-0.3946
17,2191683.0,2134.215725,1.0,7.5,0.3,-6.93,-26.69,-21.5,11.69,5.19,7.06,-3.13,0.033657342793422584,-0.594681988743546,-0.3918852142128806,-128.1324147334415,17.346581127291525,-46.48205884773244,-0.1133,-0.8993,0.1508,-0.3946
18,2191718.0,2134.234534,1.0,7.63,0.44,-6.89,-26.69,-21.5,11.69,0.12,3.44,-1.81,0.07036407500304842,-0.43353152668945416,-0.473899562757591,-128.0277034878583,17.253853117357277,-46.61927683962218,-0.113,-0.8989,0.15,-0.3957
19,2191718.0,2134.234534,1.0,7.63,0.44,-6.89,-26.69,-21.5,11.69,0.12,3.44,-1.81,0.07036407500304842,-0.43353152668945416,-0.473899562757591,-128.0277034878583,17.253853117357277,-46.61927683962218,-0.113,-0.8989,0.15,-0.3957
20,2191753.0,2134.275918,1.0,7.38,0.78,-6.64,-26.69,-22.19,12.0,-4.06,-2.63,-0.69,-0.03415769644052677,-0.0865323905674743,-0.15094737070928588,-128.05386288415187,17.300215695418142,-46.569371208551814,-0.1135,-0.899,0.1504,-0.3953
21,2191753.0,2134.275918,1.0,7.38,0.78,-6.64,-26.69,-22.19,12.0,-4.06,-2.63,-0.69,-0.03415769644052677,-0.0865323905674743,-0.15094737070928588,-128.05386288415187,17.300215695418142,-46.569371208551814,-0.1135,-0.899,0.1504,-0.3953
22,2191788.0,2134.333797,1.0,7.48,0.84,-6.6,-26.25,-22.56,12.75,-2.0,0.88,-0.19,0.041156332259664814,-0.012976589228031798,-0.20405116247842514,-128.05386288415187,17.33498950133432,-46.54442190080458,-0.1144,-0.899,0.1507,-0.3951
23,2191788.0,2134.333797,1.0,7.48,0.84,-6.6,-26.25,-22.56,12.75,-2.0,0.88,-0.19,0.041156332259664814,-0.012976589228031798,-0.20405116247842514,-128.05386288415187,17.33498950133432,-46.54442190080458,-0.1144,-0.899,0.1507,-0.3951
24,2191824.0,2134.3401129999997,1.0,7.26,1.04,-6.43,-25.56,-21.87,13.69,-2.31,-1.94,-0.5,-0.043595294249598376,0.18121142540186494,0.05475983092902759,-128.0800345447506,17.381357078894993,-46.45711770819951,-0.1151,-0.8991,0.1511,-0.3944
25,2191824.0,2134.3401129999997,1.0,7.26,1.04,-6.43,-25.56,-21.87,13.69,-2.31,-1.94,-0.5,-0.043595294249598376,0.18121142540186494,0.05475983092902759,-128.0800345447506,17.381357078894993,-46.45711770819951,-0.1151,-0.8991,0.1511,-0.3944
26,2191857.0,2134.355765,1.0,7.3,0.76,-6.65,-25.56,-21.87,13.69,2.94,1.06,0.75,-0.07007201753482968,-0.13273323954580285,-0.09625723976945366,-128.0800345447506,17.358172932119437,-46.48205884773244,-0.1144,-0.8991,0.1509,-0.3946
27,2191857.0,2134.355765,1.0,7.3,0.76,-6.65,-25.56,-21.87,13.69,2.94,1.06,0.75,-0.07007201753482968,-0.13273323954580285,-0.09625723976945366,-128.0800345447506,17.358172932119437,-46.48205884773244,-0.1144,-0.8991,0.1509,-0.3946
28,2191894.0,2134.440479,1.0,7.3,0.97,-6.68,-26.69,-21.87,12.38,-0.75,0.69,0.06,-0.17027474059556846,0.048788516265264925,-0.1342717979720458,-128.05386288415187,17.36976491594495,-46.50700231874489,-0.1146,-0.899,0.151,-0.3948
29,2191894.0,2134.440479,1.0,7.3,0.97,-6.68,-26.69,-21.87,12.38,-0.75,0.69,0.06,-0.17027474059556846,0.048788516265264925,-0.1342717979720458,-128.05386288415187,17.36976491594495,-46.50700231874489,-0.1146,-0.899,0.151,-0.3948
30,2191929.0,2134.4517140000003,1.0,7.18,0.93,-6.5,-25.87,-22.56,13.19,-0.44,0.12,-0.75,-0.11044613724049453,0.045499247730901526,0.07767104693279947,-128.05386288415187,17.32339805412093,-46.50700231874489,-0.1146,-0.899,0.1506,-0.3948
31,2191929.0,2134.4517140000003,1.0,7.18,0.93,-6.5,-25.87,-22.56,13.19,-0.44,0.12,-0.75,-0.11044613724049453,0.045499247730901526,0.07767104693279947,-128.05386288415187,17.32339805412093,-46.50700231874489,-0.1146,-0.899,0.1506,-0.3948
32,2191964.0,2134.4552519999997,1.0,6.95,0.81,-6.47,-25.87,-22.56,13.19,2.75,1.0,-2.0,-0.18997398772537846,-0.10293004207719668,0.2791731414384575,-128.10621848828742,17.253853117357277,-46.494530291688996,-0.1147,-0.8992,0.15,-0.3947
33,2191964.0,2134.4552519999997,1.0,6.95,0.81,-6.47,-25.87,-22.56,13.19,2.75,1.0,-2.0,-0.18997398772537846,-0.10293004207719668,0.2791731414384575,-128.10621848828742,17.253853117357277,-46.494530291688996,-0.1147,-0.8992,0.15,-0.3947
34,2191998.0,2134.5433420000004,1.0,7.02,0.86,-6.58,-26.69,-22.19,11.69,1.25,4.44,-2.19,-0.2517885987766974,-0.08255591468289714,0.15024347259670812,-128.05386288415187,17.137959104392678,-46.59432285421078,-0.1143,-0.899,0.149,-0.3955
35,2191998.0,2134.5433420000004,1.0,7.02,0.86,-6.58,-26.69,-22.19,11.69,1.25,4.44,-2.19,-0.2517885987766974,-0.08255591468289714,0.15024347259670812,-128.05386288415187,17.137959104392678,-46.59432285421078,-0.1143,-0.899,0.149,-0.3955
36,2192033.0,2134.555025,1.0,7.28,0.84,-6.16,-26.25,-22.19,14.0,2.69,6.75,-4.44,0.1824827238052586,0.07175542738056429,0.23527856147803486,-127.97542141388577,16.998909587512788,-46.769049990136345,-0.114,-0.8987,0.1478,-0.3969
37,2192033.0,2134.555025,1.0,7.28,0.84,-6.16,-26.25,-22.19,14.0,2.69,6.75,-4.44,0.1824827238052586,0.07175542738056429,0.23527856147803486,-127.97542141388577,16.998909587512788,-46.769049990136345,-0.114,-0.8987,0.1478,-0.3969
38,2192068.0,2134.6071620000002,1.0,7.19,0.76,-6.32,-26.25,-22.19,14.0,3.0,16.5,-10.69,-0.021152808897315526,-0.13170764906873678,0.2046551211296439,-127.66274936627121,16.55875139620892,-47.25639974151138,-0.1151,-0.8975,0.14400000000000002,-0.4008
39,2192068.0,2134.6071620000002,1.0,7.19,0.76,-6.32,-26.25,-22.19,14.0,3.0,16.5,-10.69,-0.021152808897315526,-0.13170764906873678,0.2046551211296439,-127.66274936627121,16.55875139620892,-47.25639974151138,-0.1151,-0.8975,0.14400000000000002,-0.4008
40,2192103.0,2134.610184,1.0,8.02,1.81,-6.76,-26.25,-22.19,12.5,2.56,21.37,-14.5,-0.24220539708239816,0.7667629852550941,-0.8069031783690086,-127.22274573469288,16.13041264048083,-47.80732155074712,-0.1166,-0.8958,0.1403,-0.4052
41,2192103.0,2134.610184,1.0,8.02,1.81,-6.76,-26.25,-22.19,12.5,2.56,21.37,-14.5,-0.24220539708239816,0.7667629852550941,-0.8069031783690086,-127.22274573469288,16.13041264048083,-47.80732155074712,-0.1166,-0.8958,0.1403,-0.4052
42,2192138.0,2134.731441,1.0,9.14,2.6,-7.42,-26.69,-22.19,12.38,15.38,2.5,-33.56,-0.15257014402402594,1.3540124229255308,-2.1724723680917433,-127.81886761171008,14.661854827129085,-47.68200947327645,-0.1168,-0.8981,0.1276,-0.4042
43,2192138.0,2134.731441,1.0,9.14,2.6,-7.42,-26.69,-22.19,12.38,15.38,2.5,-33.56,-0.15257014402402594,1.3540124229255308,-2.1724723680917433,-127.81886761171008,14.661854827129085,-47.68200947327645,-0.1168,-0.8981,0.1276,-0.4042
44,2192175.0,2134.791769,1.0,9.28,2.51,-6.77,-25.19,-22.19,13.19,43.56,-52.56,-87.12,0.8456827268874431,1.3776590946682798,-1.8397346812786493,-129.99788861220236,12.273289521851867,-46.220292814904006,-0.1145,-0.9063,0.1069,-0.3925
45,2192175.0,2134.791769,1.0,9.28,2.51,-6.77,-25.19,-22.19,13.19,43.56,-52.56,-87.12,0.8456827268874431,1.3776590946682798,-1.8397346812786493,-129.99788861220236,12.273289521851867,-46.220292814904006,-0.1145,-0.9063,0.1069,-0.3925
46,2192209.0,2134.8952480000003,1.0,9.01,2.11,-7.21,-25.19,-22.19,13.19,53.5,-62.38,-100.94,1.1654380987460844,0.6649045386847032,-1.8473602965643396,-133.58972143720712,8.269226458088282,-43.628654629122934,-0.1093,-0.9191,0.0721,-0.3716
47,2192209.0,2134.8952480000003,1.0,9.01,2.11,-7.21,-25.19,-22.19,13.19,53.5,-62.38,-100.94,1.1654380987460844,0.6649045386847032,-1.8473602965643396,-133.58972143720712,8.269226458088282,-43.628654629122934,-0.1093,-0.9191,0.0721,-0.3716
48,2192244.0,2134.900241,1.0,8.55,2.76,-8.24,-22.19,-22.56,14.0,52.5,-82.37,-100.37,0.6485727928659796,0.9099606863220192,-2.332914443657048,-136.55893204947213,5.146891353190199,-41.23162880897231,-0.1046,-0.929,0.0449,-0.3521
49,2192244.0,2134.900241,1.0,8.55,2.76,-8.24,-22.19,-22.56,14.0,52.5,-82.37,-100.37,0.6485727928659796,0.9099606863220192,-2.332914443657048,-136.55893204947213,5.146891353190199,-41.23162880897231,-0.1046,-0.929,0.0449,-0.3521
50,2192283.0,2134.910066,1.0,7.01,3.23,-7.23,-18.5,-23.69,17.56,86.19,-88.44,-125.69,1.006271047440263,1.4780266932326898,-0.6168213830458225,-140.98575914579104,0.1145915781247664,-37.362137156703376,-0.094,-0.9426,0.001,-0.3203
51,2192283.0,2134.910066,1.0,7.01,3.23,-7.23,-18.5,-23.69,17.56,86.19,-88.44,-125.69,1.006271047440263,1.4780266932326898,-0.6168213830458225,-140.98575914579104,0.1145915781247664,-37.362137156703376,-0.094,-0.9426,0.001,-0.3203
52,2192318.0,2134.913041,1.0,2.86,1.24,-6.04,-18.5,-23.69,17.56,100.69,-26.62,-148.19,-1.1806505663765745,0.07196825951381157,3.1133933330450274,-142.91931394004666,-4.49314033842009,-35.504295540348124,-0.0818,-0.9481,-0.0392,-0.3049
53,2192318.0,2134.913041,1.0,2.86,1.24,-6.04,-18.5,-23.69,17.56,100.69,-26.62,-148.19,-1.1806505663765745,0.07196825951381157,3.1133933330450274,-142.91931394004666,-4.49314033842009,-35.504295540348124,-0.0818,-0.9481,-0.0392,-0.3049
54,2192351.0,2134.9551239999996,1.0,0.52,0.8,-7.56,-13.69,-24.06,18.87,53.13,11.44,-216.94,-3.864549162142573,0.01298415797583069,3.239375741601407,-141.78287468010964,-12.250239375241625,-34.843138613311,-0.0779,-0.9449,-0.1067,-0.2994
55,2192351.0,2134.9551239999996,1.0,0.52,0.8,-7.56,-13.69,-24.06,18.87,53.13,11.44,-216.94,-3.864549162142573,0.01298415797583069,3.239375741601407,-141.78287468010964,-12.250239375241625,-34.843138613311,-0.0779,-0.9449,-0.1067,-0.2994
56,2192388.0,2134.972215,1.0,-0.74,-0.19,-7.67,-9.19,-22.37,22.06,30.12,-8.19,-233.06,-5.030105295964697,-0.38261579867076856,3.9787648036259817,-138.4562899093435,-21.12406961438943,-33.644076625825655,-0.0917,-0.935,-0.1833,-0.2894
57,2192388.0,2134.972215,1.0,-0.74,-0.19,-7.67,-9.19,-22.37,22.06,30.12,-8.19,-233.06,-5.030105295964697,-0.38261579867076856,3.9787648036259817,-138.4562899093435,-21.12406961438943,-33.644076625825655,-0.0917,-0.935,-0.1833,-0.2894
58,2192424.0,2134.975399,1.0,-2.59,1.69,-5.64,-2.75,-22.56,23.37,-61.25,-73.94,-262.19,-4.449623651226584,2.2044233881698263,5.7182313707333146,-135.06606324188033,-27.560654449020664,-31.56662645811723,-0.1235,-0.9241,-0.2382,-0.272
59,2192424.0,2134.975399,1.0,-2.59,1.69,-5.64,-2.75,-22.56,23.37,-61.25,-73.94,-262.19,-4.449623651226584,2.2044233881698263,5.7182313707333146,-135.06606324188033,-27.560654449020664,-31.56662645811723,-0.1235,-0.9241,-0.2382,-0.272
60,2192459.0,2135.014079,1.0,-4.51,2.85,-3.81,-2.75,-22.56,23.37,-100.81,-104.25,-229.81,-3.957021869242079,4.274883641819004,6.7989851624145015,-129.86249210271768,-34.78309311529889,-27.643253148970494,-0.1819,-0.9058,-0.2989,-0.2389
61,2192459.0,2135.014079,1.0,-4.51,2.85,-3.81,-2.75,-22.56,23.37,-100.81,-104.25,-229.81,-3.957021869242079,4.274883641819004,6.7989851624145015,-129.86249210271768,-34.78309311529889,-27.643253148970494,-0.1819,-0.9058,-0.2989,-0.2389
62,2192496.0,2135.030545,1.0,-2.18,5.0,-2.33,5.88,-22.25,23.19,-152.5,9.25,-200.5,-0.3394638843398953,4.305001518346309,5.740567585898575,-124.18392994389635,-39.181563633405815,-27.006438787370872,-0.2281,-0.8837,-0.3353,-0.2335
63,2192496.0,2135.030545,1.0,-2.18,5.0,-2.33,5.88,-22.25,23.19,-152.5,9.25,-200.5,-0.3394638843398953,4.305001518346309,5.740567585898575,-124.18392994389635,-39.181563633405815,-27.006438787370872,-0.2281,-0.8837,-0.3353,-0.2335
64,2192533.0,2135.03354,1.0,-0.57,5.9,-2.34,15.0,-22.37,19.25,-201.56,126.12,-203.88,1.0613235089215411,2.9719390242266788,4.2702548871409975,-113.41933793772672,-45.54834570673154,-30.48441543516209,-0.2866,-0.8359,-0.3871,-0.2629
65,2192533.0,2135.03354,1.0,-0.57,5.9,-2.34,15.0,-22.37,19.25,-201.56,126.12,-203.88,1.0613235089215411,2.9719390242266788,4.2702548871409975,-113.41933793772672,-45.54834570673154,-30.48441543516209,-0.2866,-0.8359,-0.3871,-0.2629
66,2192568.0,2135.074879,1.0,1.76,7.77,-1.74,15.0,-22.37,19.25,-232.69,163.44,-191.81,3.127180452526336,1.3015472504615058,2.3887785281993947,-103.96078153770134,-50.073564719425185,-35.10745640434998,-0.3306,-0.7878,-0.4232,-0.3016
67,2192568.0,2135.074879,1.0,1.76,7.77,-1.74,15.0,-22.37,19.25,-232.69,163.44,-191.81,3.127180452526336,1.3015472504615058,2.3887785281993947,-103.96078153770134,-50.073564719425185,-35.10745640434998,-0.3306,-0.7878,-0.4232,-0.3016
68,2192603.0,2135.091655,1.0,2.8,9.65,-1.23,17.75,-23.5,16.19,-264.31,202.31,-225.69,3.3719169985693456,-0.4675801593488806,0.2731855431856598,-89.3686152331438,-55.97773522242152,-42.569102018017894,-0.3919,-0.7032,-0.4693,-0.363
69,2192603.0,2135.091655,1.0,2.8,9.65,-1.23,17.75,-23.5,16.19,-264.31,202.31,-225.69,3.3719169985693456,-0.4675801593488806,0.2731855431856598,-89.3686152331438,-55.97773522242152,-42.569102018017894,-0.3919,-0.7032,-0.4693,-0.363
70,2192640.0,2135.1454510000003,1.0,2.57,9.58,-0.76,21.25,-24.37,12.19,-268.94,165.44,-158.94,1.917730871791114,-1.5990252624118495,0.17730285112495106,-75.65699770780401,-59.82805979528858,-49.87128691094202,-0.4445,-0.6133,-0.4987,-0.4216
71,2192640.0,2135.1454510000003,1.0,2.57,9.58,-0.76,21.25,-24.37,12.19,-268.94,165.44,-158.94,1.917730871791114,-1.5990252624118495,0.17730285112495106,-75.65699770780401,-59.82805979528858,-49.87128691094202,-0.4445,-0.6133,-0.4987,-0.4216
72,2192676.0,2135.187634,1.0,3.04,13.12,1.88,23.87,-24.06,10.06,-243.88,176.88,-150.63,3.472285999779105,-2.6022449700289436,-3.0806286518992074,-66.17237591930831,-60.9683017245208,-55.200512683923186,-0.4796,-0.5459,-0.5073,-0.4633
73,2192676.0,2135.187634,1.0,3.04,13.12,1.88,23.87,-24.06,10.06,-243.88,176.88,-150.63,3.472285999779105,-2.6022449700289436,-3.0806286518992074,-66.17237591930831,-60.9683017245208,-55.200512683923186,-0.4796,-0.5459,-0.5073,-0.4633
74,2192711.0,2135.204988,1.0,1.37,10.35,1.71,23.87,-24.06,10.06,-207.63,162.44,-130.19,1.2858797128655302,-2.2639686561196144,-0.4473472346470242,-54.27146504851861,-63.713859708187826,-60.52998522199608,-0.5093,-0.4561,-0.5278,-0.504
75,2192711.0,2135.204988,1.0,1.37,10.35,1.71,23.87,-24.06,10.06,-207.63,162.44,-130.19,1.2858797128655302,-2.2639686561196144,-0.4473472346470242,-54.27146504851861,-63.713859708187826,-60.52998522199608,-0.5093,-0.4561,-0.5278,-0.504
76,2192746.0,2135.25825,1.0,0.76,11.52,2.63,24.69,-24.0,6.69,-193.94,98.94,-43.81,0.5166685782164611,-2.2886838132133343,-1.7993777435227187,-46.070826818198796,-62.677919076870104,-66.11767701122476,-0.528,-0.3913,-0.5201,-0.5455
77,2192746.0,2135.25825,1.0,0.76,11.52,2.63,24.69,-24.0,6.69,-193.94,98.94,-43.81,0.5166685782164611,-2.2886838132133343,-1.7993777435227187,-46.070826818198796,-62.677919076870104,-66.11767701122476,-0.528,-0.3913,-0.5201,-0.5455
78,2192783.0,2135.2628649999997,1.0,0.75,11.97,5.59,27.25,-23.37,4.56,-103.12,73.56,64.62,2.5183450904337756,-2.541552732087605,-2.9326571913470287,-43.764459893907535,-60.7025381110459,-70.08725387641728,-0.5255,-0.3727,-0.5053,-0.5742
79,2192783.0,2135.2628649999997,1.0,0.75,11.97,5.59,27.25,-23.37,4.56,-103.12,73.56,64.62,2.5183450904337756,-2.541552732087605,-2.9326571913470287,-43.764459893907535,-60.7025381110459,-70.08725387641728,-0.5255,-0.3727,-0.5053,-0.5742
80,2192820.0,2135.319097,1.0,0.9,12.07,5.97,27.25,-23.37,4.56,-135.31,126.44,48.88,1.6435321906819549,-2.5814344725068192,-3.3375805975795174,-39.23022039326242,-59.22084162921026,-76.44252722312795,-0.5104,-0.3357,-0.4941,-0.6187
81,2192820.0,2135.319097,1.0,0.9,12.07,5.97,27.25,-23.37,4.56,-135.31,126.44,48.88,1.6435321906819549,-2.5814344725068192,-3.3375805975795174,-39.23022039326242,-59.22084162921026,-76.44252722312795,-0.5104,-0.3357,-0.4941,-0.6187
82,2192855.0,2135.354597,1.0,4.21,15.57,4.91,27.19,-25.0,2.25,-113.37,68.94,32.06,-2.5637380031771198,-5.164437971389909,-6.036737513115098,-35.35993976529708,-57.867763106675405,-80.87226170457619,-0.5031,-0.3037,-0.4838,-0.6486
83,2192855.0,2135.354597,1.0,4.21,15.57,4.91,27.19,-25.0,2.25,-113.37,68.94,32.06,-2.5637380031771198,-5.164437971389909,-6.036737513115098,-35.35993976529708,-57.867763106675405,-80.87226170457619,-0.5031,-0.3037,-0.4838,-0.6486
84,2192889.0,2135.362455,1.0,1.66,14.49,6.49,25.87,-26.19,1.06,-24.44,-13.75,45.13,-0.2886951426832369,-2.742346311196938,-5.916962556408771,-35.408051904136364,-56.09455949870071,-82.96633660527758,-0.4977,-0.3041,-0.4702,-0.6624
85,2192889.0,2135.362455,1.0,1.66,14.49,6.49,25.87,-26.19,1.06,-24.44,-13.75,45.13,-0.2886951426832369,-2.742346311196938,-5.916962556408771,-35.408051904136364,-56.09455949870071,-82.96633660527758,-0.4977,-0.3041,-0.4702,-0.6624
86,2192926.0,2135.45657,1.0,1.43,14.21,6.16,23.87,-26.69,0.0,-3.19,25.0,25.94,-0.4453899606656999,-2.229786078158175,-5.579846736703589,-35.383995029265094,-55.744276234982536,-83.94903131476774,-0.4916,-0.3039,-0.4675,-0.6688
87,2192926.0,2135.45657,1.0,1.43,14.21,6.16,23.87,-26.69,0.0,-3.19,25.0,25.94,-0.4453899606656999,-2.229786078158175,-5.579846736703589,-35.383995029265094,-55.744276234982536,-83.94903131476774,-0.4916,-0.3039,-0.4675,-0.6688
88,2192959.0,2135.466518,1.0,0.71,12.78,5.6,23.87,-26.69,0.0,20.69,41.63,20.06,-0.010961630440416759,-1.5020845244501126,-4.0834947769296335,-35.04736729747761,-56.835930249050065,-84.69105261560557,-0.4786,-0.3011,-0.4759,-0.6736
89,2192959.0,2135.466518,1.0,0.71,12.78,5.6,23.87,-26.69,0.0,20.69,41.63,20.06,-0.010961630440416759,-1.5020845244501126,-4.0834947769296335,-35.04736729747761,-56.835930249050065,-84.69105261560557,-0.4786,-0.3011,-0.4759,-0.6736
90,2192996.0,2135.471009,1.0,1.46,11.31,4.22,23.75,-27.75,1.19,51.63,67.25,45.0,-0.6976550685990275,-1.848203246899008,-2.191413267186501,-34.96325925488904,-58.4972102111192,-85.32834664281017,-0.4603,-0.3004,-0.4886,-0.6777
91,2192996.0,2135.471009,1.0,1.46,11.31,4.22,23.75,-27.75,1.19,51.63,67.25,45.0,-0.6976550685990275,-1.848203246899008,-2.191413267186501,-34.96325925488904,-58.4972102111192,-85.32834664281017,-0.4603,-0.3004,-0.4886,-0.6777
92,2193033.0,2135.52254,1.0,1.43,11.33,3.73,20.75,-27.75,4.38,49.06,16.31,43.88,-0.6840767833967423,-1.5549790741814071,-2.086237749965335,-35.612600576556765,-60.304567590109755,-85.79673551557339,-0.4368,-0.3058,-0.5023,-0.6807
93,2193033.0,2135.52254,1.0,1.43,11.33,3.73,20.75,-27.75,4.38,49.06,16.31,43.88,-0.6840767833967423,-1.5549790741814071,-2.086237749965335,-35.612600576556765,-60.304567590109755,-85.79673551557339,-0.4368,-0.3058,-0.5023,-0.6807
94,2193068.0,2135.581162,1.0,0.33,11.56,4.54,20.75,-27.75,4.38,62.69,-8.75,44.81,0.8472100768078201,-0.7970094587627328,-2.56271178662416,-37.10820677500307,-61.088013713590534,-85.31276410779735,-0.4258,-0.3182,-0.5082,-0.6776
95,2193068.0,2135.581162,1.0,0.33,11.56,4.54,20.75,-27.75,4.38,62.69,-8.75,44.81,0.8472100768078201,-0.7970094587627328,-2.56271178662416,-37.10820677500307,-61.088013713590534,-85.31276410779735,-0.4258,-0.3182,-0.5082,-0.6776
96,2193102.0,2135.585889,1.0,0.81,12.47,4.91,18.56,-29.0,5.06,81.5,-11.63,82.69,1.5809130153272597,-1.0106865715611058,-3.4878724318903185,-40.09511461656773,-62.08851089054388,-84.64454836195905,-0.4041,-0.3428,-0.5157,-0.6733
97,2193102.0,2135.585889,1.0,0.81,12.47,4.91,18.56,-29.0,5.06,81.5,-11.63,82.69,1.5809130153272597,-1.0106865715611058,-3.4878724318903185,-40.09511461656773,-62.08851089054388,-84.64454836195905,-0.4041,-0.3428,-0.5157,-0.6733
98,2193137.0,2135.627253,1.0,2.73,13.09,3.82,17.75,-29.69,6.25,117.06,-32.5,127.12,1.085084351452422,-1.6234681749257565,-3.962167779142707,-45.26264916304815,-62.973315569507676,-83.45674446527082,-0.3688,-0.3848,-0.5223,-0.6656
99,2193137.0,2135.627253,1.0,2.73,13.09,3.82,17.75,-29.69,6.25,117.06,-32.5,127.12,1.085084351452422,-1.6234681749257565,-3.962167779142707,-45.26264916304815,-62.973315569507676,-83.45674446527082,-0.3688,-0.3848,-0.5223,-0.6656
100,2193174.0,2135.6788,1.0,3.59,12.03,2.34,13.75,-31.19,9.19,175.81,-130.69,174.63,1.0258994262301728,-1.412395699281288,-2.843933731824878,-52.054682916137764,-63.080848073266175,-80.75187187324588,-0.3379,-0.4388,-0.5231,-0.6478
101,2193174.0,2135.6788,1.0,3.59,12.03,2.34,13.75,-31.19,9.19,175.81,-130.69,174.63,1.0258994262301728,-1.412395699281288,-2.843933731824878,-52.054682916137764,-63.080848073266175,-80.75187187324588,-0.3379,-0.4388,-0.5231,-0.6478
102,2193209.0,2135.6951280000003,1.0,3.16,10.84,-0.5,13.75,-31.19,9.19,216.0,-241.56,195.63,0.9112203367142848,0.4414420663291381,-1.4501704391841184,-65.58524867553507,-61.56760277209649,-72.98249746822417,-0.3018,-0.5416,-0.5118,-0.5947
103,2193209.0,2135.6951280000003,1.0,3.16,10.84,-0.5,13.75,-31.19,9.19,216.0,-241.56,195.63,0.9112203367142848,0.4414420663291381,-1.4501704391841184,-65.58524867553507,-61.56760277209649,-72.98249746822417,-0.3018,-0.5416,-0.5118,-0.5947
104,2193246.0,2135.78058,1.0,6.44,10.43,-2.11,10.88,-30.5,13.56,268.38,-480.19,204.63,1.5019141030569427,-1.899218920750199,-2.3936705498094617,-80.45136650125512,-58.33966779766776,-61.78113721204743,-0.2859,-0.6458,-0.4874,-0.5134
105,2193246.0,2135.78058,1.0,6.44,10.43,-2.11,10.88,-30.5,13.56,268.38,-480.19,204.63,1.5019141030569427,-1.899218920750199,-2.3936705498094617,-80.45136650125512,-58.33966779766776,-61.78113721204743,-0.2859,-0.6458,-0.4874,-0.5134
106,2193283.0,2135.867558,1.0,4.63,9.53,-1.37,8.56,-29.37,17.19,312.13,-649.94,170.38,5.466889666196589,0.3241588322187541,0.6337148956221501,-104.40841146453569,-50.70676349859697,-39.449267117403366,-0.2799,-0.7902,-0.4282,-0.3375
107,2193283.0,2135.867558,1.0,4.63,9.53,-1.37,8.56,-29.37,17.19,312.13,-649.94,170.38,5.466889666196589,0.3241588322187541,0.6337148956221501,-104.40841146453569,-50.70676349859697,-39.449267117403366,-0.2799,-0.7902,-0.4282,-0.3375
108,2193319.0,2135.918384,1.0,0.39,7.52,0.34,8.56,-29.37,17.19,340.81,-621.69,119.69,4.629173737068254,4.146565028915708,5.541107950856558,-120.777980646449,-44.15989850900582,-20.54151049721856,-0.2665,-0.8694,-0.3759,-0.1783
109,2193319.0,2135.918384,1.0,0.39,7.52,0.34,8.56,-29.37,17.19,340.81,-621.69,119.69,4.629173737068254,4.146565028915708,5.541107950856558,-120.777980646449,-44.15989850900582,-20.54151049721856,-0.2665,-0.8694,-0.3759,-0.1783
110,2193354.0,2135.9361289999997,1.0,-3.17,2.41,-0.14,15.69,-24.69,17.56,341.06,-363.44,56.81,-1.0939139967264169,3.5211987336359742,8.296315055027053,-134.47008902668762,-37.676791133557344,-0.05729578190040675,-0.2134,-0.9221,-0.3229,-0.0005
111,2193354.0,2135.9361289999997,1.0,-3.17,2.41,-0.14,15.69,-24.69,17.56,341.06,-363.44,56.81,-1.0939139967264169,3.5211987336359742,8.296315055027053,-134.47008902668762,-37.676791133557344,-0.05729578190040675,-0.2134,-0.9221,-0.3229,-0.0005
112,2193389.0,2135.939288,1.0,-3.65,0.79,-2.51,23.37,-21.5,16.06,262.25,-216.06,42.81,-2.2573489398200515,1.6295247170768448,6.2717207276765885,-140.0359922172176,-33.6081640231361,11.570479767497385,-0.152,-0.9398,-0.2891,0.1008
113,2193389.0,2135.939288,1.0,-3.65,0.79,-2.51,23.37,-21.5,16.06,262.25,-216.06,42.81,-2.2573489398200515,1.6295247170768448,6.2717207276765885,-140.0359922172176,-33.6081640231361,11.570479767497385,-0.152,-0.9398,-0.2891,0.1008
114,2193426.0,2135.987088,1.0,-4.89,-0.78,-2.97,29.56,-17.06,15.56,181.44,-114.81,37.38,-3.7500488981605686,0.7881181469373344,5.487228389659934,-141.85294621850556,-31.12626391611525,16.96415115593626,-0.1147,-0.9451,-0.2683,0.1475
115,2193426.0,2135.987088,1.0,-4.89,-0.78,-2.97,29.56,-17.06,15.56,181.44,-114.81,37.38,-3.7500488981605686,0.7881181469373344,5.487228389659934,-141.85294621850556,-31.12626391611525,16.96415115593626,-0.1147,-0.9451,-0.2683,0.1475
116,2193461.0,2136.044752,1.0,-6.58,-0.85,0.03,29.56,-17.06,15.56,106.62,93.44,25.25,-5.908125176564015,2.3377220917707198,7.896437362700804,-145.18454955392758,-29.487919662093987,16.049401279911372,-0.0726,-0.9542,-0.2545,0.1396
117,2193461.0,2136.044752,1.0,-6.58,-0.85,0.03,29.56,-17.06,15.56,106.62,93.44,25.25,-5.908125176564015,2.3377220917707198,7.896437362700804,-145.18454955392758,-29.487919662093987,16.049401279911372,-0.0726,-0.9542,-0.2545,0.1396
118,2193496.0,2136.101385,1.0,-2.4,-1.7,-5.02,28.56,-16.25,18.0,40.13,393.75,18.06,-2.432160077177437,-0.82198073608309,4.5856017308788894,-149.59279181341395,-29.274683969227155,6.78778903124712,-0.0365,-0.965,-0.2527,0.0592
119,2193496.0,2136.101385,1.0,-2.4,-1.7,-5.02,28.56,-16.25,18.0,40.13,393.75,18.06,-2.432160077177437,-0.82198073608309,4.5856017308788894,-149.59279181341395,-29.274683969227155,6.78778903124712,-0.0365,-0.965,-0.2527,0.0592
120,2193534.0,2136.108743,1.0,0.0,-0.5,-7.2,24.0,-15.25,24.37,-59.19,437.06,9.81,-1.4339665595249087,-0.2599560792720083,2.7379752484632025,-149.11579237958978,-29.2983716924918,-9.568049817899789,-0.0092,-0.9639,-0.2529,-0.0834
121,2193534.0,2136.108743,1.0,0.0,-0.5,-7.2,24.0,-15.25,24.37,-59.19,437.06,9.81,-1.4339665595249087,-0.2599560792720083,2.7379752484632025,-149.11579237958978,-29.2983716924918,-9.568049817899789,-0.0092,-0.9639,-0.2529,-0.0834
122,2193569.0,2136.126543,1.0,4.93,0.33,-10.41,24.0,-15.25,24.37,-47.19,392.38,25.44,0.4575243390516055,-0.9577645317798568,-1.6674625400110958,-143.97904817901198,-28.48187662578674,-21.590514086807822,0.0046,-0.951,-0.24600000000000002,-0.1873
123,2193569.0,2136.126543,1.0,4.93,0.33,-10.41,24.0,-15.25,24.37,-47.19,392.38,25.44,0.4575243390516055,-0.9577645317798568,-1.6674625400110958,-143.97904817901198,-28.48187662578674,-21.590514086807822,0.0046,-0.951,-0.24600000000000002,-0.1873
124,2193604.0,2136.129539,1.0,11.12,0.8,-15.65,11.0,-15.69,32.0,-25.25,182.38,15.75,0.5169876064162552,-1.391091265610972,-9.350972214292485,-136.99450746728783,-27.36011828826252,-32.44879621422149,0.0205,-0.9304,-0.2365,-0.2794
125,2193604.0,2136.129539,1.0,11.12,0.8,-15.65,11.0,-15.69,32.0,-25.25,182.38,15.75,0.5169876064162552,-1.391091265610972,-9.350972214292485,-136.99450746728783,-27.36011828826252,-32.44879621422149,0.0205,-0.9304,-0.2365,-0.2794
126,2193639.0,2136.169602,1.0,8.48,1.72,-13.59,-0.75,-18.56,32.56,13.25,-249.06,68.5,1.7653352899462913,-0.1558322912036063,-6.2063512056169055,-143.09992952909138,-25.441560447887092,-26.217494492617092,0.0161,-0.9486,-0.2202,-0.2268
127,2193639.0,2136.169602,1.0,8.48,1.72,-13.59,-0.75,-18.56,32.56,13.25,-249.06,68.5,1.7653352899462913,-0.1558322912036063,-6.2063512056169055,-143.09992952909138,-25.441560447887092,-26.217494492617092,0.0161,-0.9486,-0.2202,-0.2268
128,2193676.0,2136.181943,1.0,2.46,1.25,-7.17,-0.69,-17.87,32.69,74.5,-513.75,106.31,1.2839515351915716,0.6755250272756979,2.262239195119121,-154.16860854190614,-22.82836708787642,-11.916067673936475,0.0123,-0.9747,-0.1979,-0.1038
129,2193676.0,2136.181943,1.0,2.46,1.25,-7.17,-0.69,-17.87,32.69,74.5,-513.75,106.31,1.2839515351915716,0.6755250272756979,2.262239195119121,-154.16860854190614,-22.82836708787642,-11.916067673936475,0.0123,-0.9747,-0.1979,-0.1038
130,2193711.0,2136.194274,1.0,-2.72,0.63,-3.91,-0.69,-17.87,32.69,47.56,-375.19,62.0,-2.0690250536172647,1.5368805309953542,5.7519572174390925,-159.2817477883131,-20.366848065448238,3.701951248377608,0.0057,-0.9837,-0.1768,0.0323
131,2193711.0,2136.194274,1.0,-2.72,0.63,-3.91,-0.69,-17.87,32.69,47.56,-375.19,62.0,-2.0690250536172647,1.5368805309953542,5.7519572174390925,-159.2817477883131,-20.366848065448238,3.701951248377608,0.0057,-0.9837,-0.1768,0.0323
132,2193747.0,2136.235656,1.0,-3.13,-0.3,-4.95,13.75,-16.37,29.19,4.69,31.19,-3.13,-2.5441871548513504,0.7764112465614825,4.580399212169183,-159.21811781644797,-19.982758376303032,5.5598717686300585,0.0073,-0.9836,-0.1735,0.0485
133,2193747.0,2136.235656,1.0,-3.13,-0.3,-4.95,13.75,-16.37,29.19,4.69,31.19,-3.13,-2.5441871548513504,0.7764112465614825,4.580399212169183,-159.21811781644797,-19.982758376303032,5.5598717686300585,0.0073,-0.9836,-0.1735,0.0485
134,2193784.0,2136.303112,1.0,-2.69,0.38,-2.04,19.0,-16.0,27.19,-87.56,435.31,-59.69,-2.5132447279074333,1.3783402832790987,7.9829507372004604,-158.16444882979192,-21.38056975127936,-4.527544452628878,0.0039,-0.9819,-0.1855,-0.0395
135,2193784.0,2136.303112,1.0,-2.69,0.38,-2.04,19.0,-16.0,27.19,-87.56,435.31,-59.69,-2.5132447279074333,1.3783402832790987,7.9829507372004604,-158.16444882979192,-21.38056975127936,-4.527544452628878,0.0039,-0.9819,-0.1855,-0.0395
136,2193819.0,2136.392106,1.0,9.32,1.88,-11.8,19.0,-16.0,27.19,-67.19,583.56,-73.37,4.521999792981637,-0.7400501970029422,-4.637748346009081,-148.35037934063973,-23.132398374270107,-21.275624852029367,0.0097,-0.9621,-0.2005,-0.1846
137,2193819.0,2136.392106,1.0,9.32,1.88,-11.8,19.0,-16.0,27.19,-67.19,583.56,-73.37,4.521999792981637,-0.7400501970029422,-4.637748346009081,-148.35037934063973,-23.132398374270107,-21.275624852029367,0.0097,-0.9621,-0.2005,-0.1846
138,2193852.0,2136.402729,1.0,14.95,1.57,-17.3,12.0,-17.19,30.87,14.75,122.31,-25.12,2.3549806041768635,-1.2256486131058937,-12.957559888136736,-137.27675296577294,-24.537797991913113,-34.267106355147284,0.0268,-0.9313,-0.2125,-0.2946
139,2193852.0,2136.402729,1.0,14.95,1.57,-17.3,12.0,-17.19,30.87,14.75,122.31,-25.12,2.3549806041768635,-1.2256486131058937,-12.957559888136736,-137.27675296577294,-24.537797991913113,-34.267106355147284,0.0268,-0.9313,-0.2125,-0.2946
140,2193889.0,2136.407196,1.0,5.64,0.35,-9.59,-3.0,-18.69,32.69,57.25,-326.63,56.75,1.0186203533769729,-0.4941864519529282,-1.2666689390711756,-145.41510886588998,-23.858067126010045,-24.49089212710032,0.0276,-0.9548,-0.2067,-0.2121
141,2193889.0,2136.407196,1.0,5.64,0.35,-9.59,-3.0,-18.69,32.69,57.25,-326.63,56.75,1.0186203533769729,-0.4941864519529282,-1.2666689390711756,-145.41510886588998,-23.858067126010045,-24.49089212710032,0.0276,-0.9548,-0.2067,-0.2121
142,2193926.0,2136.409934,1.0,0.73,-0.66,-6.75,-0.19,-17.56,32.88,61.25,-377.0,53.88,-1.056402491439545,-0.2239427144608971,3.07130565566836,-153.36074062083046,-22.711475449834968,-13.322613734970494,0.0267,-0.9731,-0.1969,-0.11599999999999999
143,2193926.0,2136.409934,1.0,0.73,-0.66,-6.75,-0.19,-17.56,32.88,61.25,-377.0,53.88,-1.056402491439545,-0.2239427144608971,3.07130565566836,-153.36074062083046,-22.711475449834968,-13.322613734970494,0.0267,-0.9731,-0.1969,-0.11599999999999999
144,2193960.0,2136.495778,1.0,-0.9,-0.14,-5.5,-0.19,-17.56,32.88,15.56,-231.81,33.25,-1.1462392079046806,0.4600391537063186,4.370281758672042,-157.98368078519854,-21.660511797125544,-3.163128706652845,0.0187,-0.9816,-0.1879,-0.0276
145,2193960.0,2136.495778,1.0,-0.9,-0.14,-5.5,-0.19,-17.56,32.88,15.56,-231.81,33.25,-1.1462392079046806,0.4600391537063186,4.370281758672042,-157.98368078519854,-21.660511797125544,-3.163128706652845,0.0187,-0.9816,-0.1879,-0.0276
146,2193997.0,2136.5063579999996,1.0,-2.14,0.07,-4.22,10.56,-15.75,30.5,-50.94,92.81,-41.25,-2.179394310588216,1.0215034236776983,5.732380593788563,-157.33304425296922,-22.38430579933233,-3.4611913427691,0.0114,-0.9805,-0.1941,-0.0302
147,2193997.0,2136.5063579999996,1.0,-2.14,0.07,-4.22,10.56,-15.75,30.5,-50.94,92.81,-41.25,-2.179394310588216,1.0215034236776983,5.732380593788563,-157.33304425296922,-22.38430579933233,-3.4611913427691,0.0114,-0.9805,-0.1941,-0.0302
148,2194034.0,2136.545873,1.0,0.49,1.08,-5.96,14.56,-16.5,29.56,-88.25,377.94,-102.37,-0.648710827613438,1.1613136172206195,3.877179117653494,-150.34469905459454,-25.19492264637575,-15.366907820940328,0.0037,-0.9667,-0.2181,-0.1337
149,2194034.0,2136.545873,1.0,0.49,1.08,-5.96,14.56,-16.5,29.56,-88.25,377.94,-102.37,-0.648710827613438,1.1613136172206195,3.877179117653494,-150.34469905459454,-25.19492264637575,-15.366907820940328,0.0037,-0.9667,-0.2181,-0.1337
150,2194069.0,2136.570005,1.0,10.21,2.93,-11.39,14.56,-16.5,29.56,-56.94,366.06,-115.5,4.334797432733405,-0.7056360404373734,-5.135662705722764,-140.91718374591224,-27.99741414521811,-26.676574330601248,0.0035,-0.9424,-0.2419,-0.2307
151,2194069.0,2136.570005,1.0,10.21,2.93,-11.39,14.56,-16.5,29.56,-56.94,366.06,-115.5,4.334797432733405,-0.7056360404373734,-5.135662705722764,-140.91718374591224,-27.99741414521811,-26.676574330601248,0.0035,-0.9424,-0.2419,-0.2307
152,2194104.0,2136.649191,1.0,10.11,-0.03,-12.03,6.75,-17.56,32.19,70.31,32.31,-28.62,0.8664261426963372,-2.6990227577188746,-5.649691154767772,-134.05726525899885,-31.114368796125287,-32.878671967526124,0.0177,-0.9207,-0.2682,-0.28300000000000003
153,2194104.0,2136.649191,1.0,10.11,-0.03,-12.03,6.75,-17.56,32.19,70.31,32.31,-28.62,0.8664261426963372,-2.6990227577188746,-5.649691154767772,-134.05726525899885,-31.114368796125287,-32.878671967526124,0.0177,-0.9207,-0.2682,-0.28300000000000003
154,2194139.0,2136.70347,1.0,3.94,-1.45,-7.36,-0.56,-18.37,32.19,28.44,-108.31,20.12,-1.2285396355064602,-1.829915901274296,1.6250976926286675,-136.7140156295355,-31.06679175207397,-29.262840587223426,0.024,-0.9295,-0.2678,-0.2526
155,2194139.0,2136.70347,1.0,3.94,-1.45,-7.36,-0.56,-18.37,32.19,28.44,-108.31,20.12,-1.2285396355064602,-1.829915901274296,1.6250976926286675,-136.7140156295355,-31.06679175207397,-29.262840587223426,0.024,-0.9295,-0.2678,-0.2526
156,2194176.0,2136.720675,1.0,3.13,-1.17,-7.14,0.5,-16.87,34.19,-4.13,-79.0,7.25,-1.2630705848708512,-1.3823044316451665,2.149020656927294,-138.61814821881748,-30.817102104618424,-26.817917077101303,0.0201,-0.9355,-0.2657,-0.2319
157,2194176.0,2136.720675,1.0,3.13,-1.17,-7.14,0.5,-16.87,34.19,-4.13,-79.0,7.25,-1.2630705848708512,-1.3823044316451665,2.149020656927294,-138.61814821881748,-30.817102104618424,-26.817917077101303,0.0201,-0.9355,-0.2657,-0.2319
158,2194210.0,2136.723806,1.0,3.2,-1.42,-7.74,0.5,-16.87,34.19,-21.37,-83.37,-6.81,-1.2326775062352036,-1.8683879621038315,1.611917997750794,-140.57602612666605,-30.900315264438852,-23.881491803544503,0.0064,-0.9414,-0.2664,-0.2069
159,2194210.0,2136.723806,1.0,3.2,-1.42,-7.74,0.5,-16.87,34.19,-21.37,-83.37,-6.81,-1.2326775062352036,-1.8683879621038315,1.611917997750794,-140.57602612666605,-30.900315264438852,-23.881491803544503,0.0064,-0.9414,-0.2664,-0.2069
160,2194247.0,2136.76039,1.0,1.66,-2.13,-5.92,4.19,-16.06,33.69,-39.69,-150.19,6.75,-1.7565414860187234,-2.238453691403368,3.954916318488362,-142.91931394004666,-30.61508221704001,-20.4134200209308,-0.0109,-0.9481,-0.264,-0.1772
161,2194247.0,2136.76039,1.0,1.66,-2.13,-5.92,4.19,-16.06,33.69,-39.69,-150.19,6.75,-1.7565414860187234,-2.238453691403368,3.954916318488362,-142.91931394004666,-30.61508221704001,-20.4134200209308,-0.0109,-0.9481,-0.264,-0.1772
162,2194284.0,2136.782677,1.0,0.62,-2.99,-4.9,7.88,-17.56,31.69,-55.31,-95.75,22.69,-2.373491702978173,-2.8793253686750044,5.400912541049645,-145.6083860120317,-29.428677083635286,-16.917809025605248,-0.0365,-0.9553,-0.254,-0.1471
163,2194284.0,2136.782677,1.0,0.62,-2.99,-4.9,7.88,-17.56,31.69,-55.31,-95.75,22.69,-2.373491702978173,-2.8793253686750044,5.400912541049645,-145.6083860120317,-29.428677083635286,-16.917809025605248,-0.0365,-0.9553,-0.254,-0.1471
164,2194319.0,2136.825228,1.0,0.85,-2.48,-4.28,7.88,-17.56,31.69,-111.62,-24.19,47.38,-1.6945512782471377,-2.7768793658372326,5.984512253531619,-146.63092085313292,-27.86752361625034,-16.628233533749974,-0.0602,-0.9579,-0.2408,-0.1446
165,2194319.0,2136.825228,1.0,0.85,-2.48,-4.28,7.88,-17.56,31.69,-111.62,-24.19,47.38,-1.6945512782471377,-2.7768793658372326,5.984512253531619,-146.63092085313292,-27.86752361625034,-16.628233533749974,-0.0602,-0.9579,-0.2408,-0.1446
166,2194352.0,2136.8967629999997,1.0,1.93,-0.84,-3.88,10.56,-18.37,30.56,-143.81,39.38,77.69,-0.05941091685941013,-2.0579625416663774,5.902016788025284,-146.71084020226166,-24.361922456785425,-19.145524872704485,-0.0992,-0.9581,-0.21100000000000002,-0.1663
167,2194352.0,2136.8967629999997,1.0,1.93,-0.84,-3.88,10.56,-18.37,30.56,-143.81,39.38,77.69,-0.05941091685941013,-2.0579625416663774,5.902016788025284,-146.71084020226166,-24.361922456785425,-19.145524872704485,-0.0992,-0.9581,-0.21100000000000002,-0.1663
168,2194388.0,2136.933952,1.0,4.36,-0.34,-4.73,9.75,-22.5,27.75,-141.5,114.44,112.0,1.5734721341881714,-2.8026864942878085,4.223887793200388,-145.22287322309495,-21.007514103633174,-23.34297818708293,-0.12300000000000001,-0.9543,-0.1823,-0.2023
169,2194388.0,2136.933952,1.0,4.36,-0.34,-4.73,9.75,-22.5,27.75,-141.5,114.44,112.0,1.5734721341881714,-2.8026864942878085,4.223887793200388,-145.22287322309495,-21.007514103633174,-23.34297818708293,-0.12300000000000001,-0.9543,-0.1823,-0.2023
170,2194425.0,2136.9532440000003,1.0,6.77,1.99,-4.13,4.56,-25.06,24.19,-178.56,78.81,133.69,3.95418919824526,-1.3992794407175146,2.7883663899379387,-142.4180463131718,-15.366907820940328,-28.505522169511824,-0.1592,-0.9467,-0.1337,-0.2462
171,2194425.0,2136.9532440000003,1.0,6.77,1.99,-4.13,4.56,-25.06,24.19,-178.56,78.81,133.69,3.95418919824526,-1.3992794407175146,2.7883663899379387,-142.4180463131718,-15.366907820940328,-28.505522169511824,-0.1592,-0.9467,-0.1337,-0.2462
172,2194460.0,2136.997438,1.0,6.53,2.74,-3.81,4.56,-25.06,24.19,-178.06,67.81,115.69,3.3727716089571977,-0.5687876985251561,2.5289105001402525,-138.03825139668672,-9.62554711472919,-32.795047946580326,-0.2037,-0.9337,-0.0839,-0.2823
173,2194460.0,2136.997438,1.0,6.53,2.74,-3.81,4.56,-25.06,24.19,-178.06,67.81,115.69,3.3727716089571977,-0.5687876985251561,2.5289105001402525,-138.03825139668672,-9.62554711472919,-32.795047946580326,-0.2037,-0.9337,-0.0839,-0.2823
174,2194497.0,2137.012176,1.0,6.19,3.72,-2.26,0.06,-29.56,21.0,-189.5,88.5,119.44,3.3974828371945462,0.9396228889266852,3.1106572283810228,-133.7645266360233,-5.5598717686300585,-36.35960237870008,-0.2336,-0.9197,-0.0485,-0.312
175,2194497.0,2137.012176,1.0,6.19,3.72,-2.26,0.06,-29.56,21.0,-189.5,88.5,119.44,3.3974828371945462,0.9396228889266852,3.1106572283810228,-133.7645266360233,-5.5598717686300585,-36.35960237870008,-0.2336,-0.9197,-0.0485,-0.312
176,2194534.0,2137.059776,1.0,8.39,7.55,-1.68,-5.69,-32.56,17.75,-231.06,103.0,122.44,3.5838391228486373,3.7836615690147433,-0.3450494770678869,-125.49571017669871,1.0313379546174166,-41.280605467484456,-0.2921,-0.889,0.009000000000000001,-0.3525
177,2194534.0,2137.059776,1.0,8.39,7.55,-1.68,-5.69,-32.56,17.75,-231.06,103.0,122.44,3.5838391228486373,3.7836615690147433,-0.3450494770678869,-125.49571017669871,1.0313379546174166,-41.280605467484456,-0.2921,-0.889,0.009000000000000001,-0.3525
178,2194569.0,2137.066357,1.0,8.1,5.25,-2.2,-5.69,-32.56,17.75,-123.0,128.0,124.06,2.5378408654209443,1.5010582712197968,0.35579354102221394,-119.65132148129857,4.71104003397371,-45.77214298203665,-0.3157,-0.8645,0.0411,-0.3889
179,2194569.0,2137.066357,1.0,8.1,5.25,-2.2,-5.69,-32.56,17.75,-123.0,128.0,124.06,2.5378408654209443,1.5010582712197968,0.35579354102221394,-119.65132148129857,4.71104003397371,-45.77214298203665,-0.3157,-0.8645,0.0411,-0.3889
180,2194604.0,2137.16792,1.0,8.6,4.78,0.03,-11.0,-34.06,12.25,-180.69,95.69,93.5,3.3251035466382857,2.191564972858846,0.8094265741940312,-112.54753437473772,9.050681021579294,-50.668725019229704,-0.345,-0.8317,0.0789,-0.4279
181,2194604.0,2137.16792,1.0,8.6,4.78,0.03,-11.0,-34.06,12.25,-180.69,95.69,93.5,3.3251035466382857,2.191564972858846,0.8094265741940312,-112.54753437473772,9.050681021579294,-50.668725019229704,-0.345,-0.8317,0.0789,-0.4279
182,2194638.0,2137.2238420000003,1.0,8.33,5.45,2.62,-15.06,-33.38,11.38,-218.88,101.69,81.37,3.560469804923817,4.208536089583877,1.1137173101135875,-106.12661834568745,12.826644816909525,-53.500200054022216,-0.3821,-0.7993,0.1117,-0.4501
183,2194638.0,2137.2238420000003,1.0,8.33,5.45,2.62,-15.06,-33.38,11.38,-218.88,101.69,81.37,3.560469804923817,4.208536089583877,1.1137173101135875,-106.12661834568745,12.826644816909525,-53.500200054022216,-0.3821,-0.7993,0.1117,-0.4501
184,2194675.0,2137.275252,1.0,12.16,7.21,4.2,-18.37,-32.38,9.75,-172.06,134.94,151.88,3.632785296926964,5.401422608705602,-3.426535738460533,-96.83485491073408,17.717608294742977,-58.825814107213525,-0.419,-0.748,0.154,-0.4911
185,2194675.0,2137.275252,1.0,12.16,7.21,4.2,-18.37,-32.38,9.75,-172.06,134.94,151.88,3.632785296926964,5.401422608705602,-3.426535738460533,-96.83485491073408,17.717608294742977,-58.825814107213525,-0.419,-0.748,0.154,-0.4911
186,2194710.0,2137.333752,1.0,13.89,9.79,3.4,-18.37,-32.38,9.75,-156.25,119.0,183.19,-0.7613804719300048,5.595369861920464,-6.577743058190341,-87.79970924377666,23.858067126010045,-65.02722926644273,-0.433,-0.6934,0.2067,-0.5375
187,2194710.0,2137.333752,1.0,13.89,9.79,3.4,-18.37,-32.38,9.75,-156.25,119.0,183.19,-0.7613804719300048,5.595369861920464,-6.577743058190341,-87.79970924377666,23.858067126010045,-65.02722926644273,-0.433,-0.6934,0.2067,-0.5375
188,2194749.0,2137.341395,1.0,11.77,3.95,3.42,-20.69,-29.0,9.88,-38.31,134.0,87.5,1.8725564637351249,2.5444535837955358,-2.6773833326226697,-83.37999515442539,25.07751783117069,-69.59810663742078,-0.4299,-0.6651,0.2171,-0.5707
189,2194749.0,2137.341395,1.0,11.77,3.95,3.42,-20.69,-29.0,9.88,-38.31,134.0,87.5,1.8725564637351249,2.5444535837955358,-2.6773833326226697,-83.37999515442539,25.07751783117069,-69.59810663742078,-0.4299,-0.6651,0.2171,-0.5707
190,2194786.0,2137.3587820000002,1.0,12.06,4.85,4.43,-23.5,-24.56,12.69,-145.06,138.81,76.19,0.24816390844899505,3.0320791437498604,-3.5849858500588088,-75.88930894202932,27.501664319152926,-73.94046239689769,-0.4512,-0.6149,0.2377,-0.6014
191,2194786.0,2137.3587820000002,1.0,12.06,4.85,4.43,-23.5,-24.56,12.69,-145.06,138.81,76.19,0.24816390844899505,3.0320791437498604,-3.5849858500588088,-75.88930894202932,27.501664319152926,-73.94046239689769,-0.4512,-0.6149,0.2377,-0.6014
192,2194821.0,2137.363478,1.0,13.23,6.36,4.37,-23.5,-24.56,12.69,-64.56,159.94,66.56,-2.1068796656405766,2.580091521595345,-5.142717405168094,-70.2973367467073,28.399126966206964,-77.70240232798936,-0.4636,-0.5757,0.2453,-0.6273
193,2194821.0,2137.363478,1.0,13.23,6.36,4.37,-23.5,-24.56,12.69,-64.56,159.94,66.56,-2.1068796656405766,2.580091521595345,-5.142717405168094,-70.2973367467073,28.399126966206964,-77.70240232798936,-0.4636,-0.5757,0.2453,-0.6273
194,2194855.0,2137.446512,1.0,13.3,4.18,2.66,-21.56,-19.37,15.25,-80.5,111.75,23.5,-2.144211184782786,-0.8961704712438132,-4.1946798254674045,-64.36259051293125,28.174596802852534,-81.8089732715648,-0.4778,-0.5326,0.2434,-0.6548
195,2194855.0,2137.446512,1.0,13.3,4.18,2.66,-21.56,-19.37,15.25,-80.5,111.75,23.5,-2.144211184782786,-0.8961704712438132,-4.1946798254674045,-64.36259051293125,28.174596802852534,-81.8089732715648,-0.4778,-0.5326,0.2434,-0.6548
196,2194890.0,2137.546538,1.0,12.28,5.22,4.09,-20.69,-15.19,17.0,-124.12,66.75,-2.25,-3.173622626897482,0.3089976057811841,-3.78038572901999,-59.550623188016026,29.85540431723644,-82.31025694358621,-0.5038,-0.4966,0.2576,-0.6581
197,2194890.0,2137.546538,1.0,12.28,5.22,4.09,-20.69,-15.19,17.0,-124.12,66.75,-2.25,-3.173622626897482,0.3089976057811841,-3.78038572901999,-59.550623188016026,29.85540431723644,-82.31025694358621,-0.5038,-0.4966,0.2576,-0.6581
198,2194927.0,2137.558227,1.0,10.16,4.74,3.97,-15.5,-14.0,19.0,-56.94,58.88,5.44,-3.1241255718656635,0.4541341164339352,-1.6601586935949992,-56.78381993878929,30.4369103155404,-82.70656128258872,-0.5182,-0.4755,0.2625,-0.6607
199,2194927.0,2137.558227,1.0,10.16,4.74,3.97,-15.5,-14.0,19.0,-56.94,58.88,5.44,-3.1241255718656635,0.4541341164339352,-1.6601586935949992,-56.78381993878929,30.4369103155404,-82.70656128258872,-0.5182,-0.4755,0.2625,-0.6607
200,2194962.0,2137.5984120000003,1.0,16.0,9.52,4.55,-15.5,-14.0,19.0,-132.06,77.31,80.81,-8.818845490378102,-0.8457285380224784,-7.188808436206193,-51.736087563875465,32.592035674709635,-84.83066872325854,-0.5253,-0.4363,0.2806,-0.6745
201,2194962.0,2137.5984120000003,1.0,16.0,9.52,4.55,-15.5,-14.0,19.0,-132.06,77.31,80.81,-8.818845490378102,-0.8457285380224784,-7.188808436206193,-51.736087563875465,32.592035674709635,-84.83066872325854,-0.5253,-0.4363,0.2806,-0.6745
202,2194999.0,2137.605052,1.0,16.08,5.61,0.54,-11.5,-15.75,21.69,167.94,138.44,5.13,-6.7176547394502935,-6.218353305894714,-4.56468594919447,-49.26544461496822,28.978694933911964,-88.5335263030476,-0.5258,-0.4168,0.2502,-0.698
203,2194999.0,2137.605052,1.0,16.08,5.61,0.54,-11.5,-15.75,21.69,167.94,138.44,5.13,-6.7176547394502935,-6.218353305894714,-4.56468594919447,-49.26544461496822,28.978694933911964,-88.5335263030476,-0.5258,-0.4168,0.2502,-0.698
204,2195036.0,2137.622228,1.0,11.35,-2.63,1.06,-8.75,-16.87,21.75,98.87,-76.0,17.81,1.5623821747323046,-6.252790600395326,0.043219678249011295,-53.37191107016693,23.834643460050298,-91.41760096012828,-0.4933,-0.4491,0.2065,-0.7158
205,2195036.0,2137.622228,1.0,11.35,-2.63,1.06,-8.75,-16.87,21.75,98.87,-76.0,17.81,1.5623821747323046,-6.252790600395326,0.043219678249011295,-53.37191107016693,23.834643460050298,-91.41760096012828,-0.4933,-0.4491,0.2065,-0.7158
206,2195070.0,2137.625174,1.0,6.57,-0.13,5.44,-8.75,-16.87,21.75,-84.94,-104.12,-15.13,1.8908093509858144,0.9735395662072254,1.5451452513931423,-55.200512683923186,25.99399574998519,-89.030647823847,-0.4932,-0.4633,0.2249,-0.7011
207,2195070.0,2137.625174,1.0,6.57,-0.13,5.44,-8.75,-16.87,21.75,-84.94,-104.12,-15.13,1.8908093509858144,0.9735395662072254,1.5451452513931423,-55.200512683923186,25.99399574998519,-89.030647823847,-0.4932,-0.4633,0.2249,-0.7011
208,2195105.0,2137.65624,1.0,5.19,2.45,8.67,-9.19,-11.38,25.87,-48.0,-5.44,-32.69,0.7741979235780443,5.520666440252278,1.0299558825888349,-55.42044409850313,28.777535311725245,-85.81237907644234,-0.5084,-0.465,0.2485,-0.6808
209,2195105.0,2137.65624,1.0,5.19,2.45,8.67,-9.19,-11.38,25.87,-48.0,-5.44,-32.69,0.7741979235780443,5.520666440252278,1.0299558825888349,-55.42044409850313,28.777535311725245,-85.81237907644234,-0.5084,-0.465,0.2485,-0.6808
210,2195140.0,2137.667688,1.0,6.7,-0.13,6.29,-7.06,-12.69,21.37,57.81,83.06,2.69,2.197849858417031,1.5169982205258448,1.012380706944569,-54.24571355108697,26.32339770363258,-87.815613588484,-0.5092,-0.4559,0.2277,-0.6935
211,2195140.0,2137.667688,1.0,6.7,-0.13,6.29,-7.06,-12.69,21.37,57.81,83.06,2.69,2.197849858417031,1.5169982205258448,1.012380706944569,-54.24571355108697,26.32339770363258,-87.815613588484,-0.5092,-0.4559,0.2277,-0.6935
212,2195177.0,2137.6841489999997,1.0,8.61,-0.03,4.56,-6.5,-13.5,22.25,12.25,69.12,26.37,1.0944289833482133,-1.0853439925858952,0.1863145787080196,-52.78270669863224,24.854522251558684,-90.07995743217865,-0.5054,-0.4445,0.2152,-0.7076
213,2195177.0,2137.6841489999997,1.0,8.61,-0.03,4.56,-6.5,-13.5,22.25,12.25,69.12,26.37,1.0944289833482133,-1.0853439925858952,0.1863145787080196,-52.78270669863224,24.854522251558684,-90.07995743217865,-0.5054,-0.4445,0.2152,-0.7076
214,2195212.0,2137.719881,1.0,9.28,0.68,4.74,-6.5,-13.5,22.25,7.56,42.0,13.0,0.2584855134032891,-1.2836551703217889,-0.5535534074175779,-51.34162455414572,23.998630403703213,-91.72982641130142,-0.5042,-0.4332,0.2079,-0.7177
215,2195212.0,2137.719881,1.0,9.28,0.68,4.74,-6.5,-13.5,22.25,7.56,42.0,13.0,0.2584855134032891,-1.2836551703217889,-0.5535534074175779,-51.34162455414572,23.998630403703213,-91.72982641130142,-0.5042,-0.4332,0.2079,-0.7177
216,2195249.0,2137.7883899999997,1.0,9.96,0.51,4.0,-8.69,-11.88,26.5,-15.94,41.38,-11.5,-0.048716334387408855,-2.488184993478805,-0.6464960411203862,-50.326646830888215,23.30787601995589,-92.34037663402384,-0.5078,-0.4252,0.20199999999999999,-0.7214
217,2195249.0,2137.7883899999997,1.0,9.96,0.51,4.0,-8.69,-11.88,26.5,-15.94,41.38,-11.5,-0.048716334387408855,-2.488184993478805,-0.6464960411203862,-50.326646830888215,23.30787601995589,-92.34037663402384,-0.5078,-0.4252,0.20199999999999999,-0.7214
218,2195286.0,2137.805318,1.0,9.2,1.73,4.5,-6.75,-12.19,26.25,-28.69,-11.0,-13.81,-0.9057386288514864,-1.3160619020619693,-0.4564157508440072,-49.42938107897726,23.705831329603118,-91.84507796689995,-0.5166,-0.4181,0.2054,-0.7184
219,2195286.0,2137.805318,1.0,9.2,1.73,4.5,-6.75,-12.19,26.25,-28.69,-11.0,-13.81,-0.9057386288514864,-1.3160619020619693,-0.4564157508440072,-49.42938107897726,23.705831329603118,-91.84507796689995,-0.5166,-0.4181,0.2054,-0.7184
220,2195320.0,2137.8812980000002,1.0,7.73,1.82,5.89,-6.75,-12.19,26.25,-7.81,-33.19,-13.31,-0.2215939682773158,0.6757014250175057,-0.05497885620080645,-49.934480858485706,24.26814601866472,-90.95906154292842,-0.519,-0.4221,0.2102,-0.713
221,2195320.0,2137.8812980000002,1.0,7.73,1.82,5.89,-6.75,-12.19,26.25,-7.81,-33.19,-13.31,-0.2215939682773158,0.6757014250175057,-0.05497885620080645,-49.934480858485706,24.26814601866472,-90.95906154292842,-0.519,-0.4221,0.2102,-0.713
222,2195353.0,2137.889993,1.0,7.42,1.76,5.91,-6.25,-12.5,25.0,-7.63,-25.75,-17.62,-0.013843433250601556,0.9686288136878316,0.20750073661996105,-50.782858416372434,24.725463298356363,-89.77224753073929,-0.5218,-0.4288,0.2141,-0.7057
223,2195353.0,2137.889993,1.0,7.42,1.76,5.91,-6.25,-12.5,25.0,-7.63,-25.75,-17.62,-0.013843433250601556,0.9686288136878316,0.20750073661996105,-50.782858416372434,24.725463298356363,-89.77224753073929,-0.5218,-0.4288,0.2141,-0.7057
224,2195390.0,2137.94775,1.0,7.72,1.36,5.44,-5.56,-13.5,24.75,5.69,-11.5,-8.81,0.224797436571162,0.3404361467066508,0.27380313547277346,-51.2272254279677,24.70200146162693,-89.30416461407226,-0.5229,-0.4323,0.2139,-0.7028
225,2195390.0,2137.94775,1.0,7.72,1.36,5.44,-5.56,-13.5,24.75,5.69,-11.5,-8.81,0.224797436571162,0.3404361467066508,0.27380313547277346,-51.2272254279677,24.70200146162693,-89.30416461407226,-0.5229,-0.4323,0.2139,-0.7028
226,2195427.0,2137.960627,1.0,8.02,1.4,5.19,-5.19,-12.38,24.37,8.13,-14.19,3.5,0.12888155865851192,0.06836139653372553,0.15288305319101347,-51.77429627625306,24.725463298356363,-89.07886878573439,-0.5211,-0.4366,0.2141,-0.7014
227,2195427.0,2137.960627,1.0,8.02,1.4,5.19,-5.19,-12.38,24.37,8.13,-14.19,3.5,0.12888155865851192,0.06836139653372553,0.15288305319101347,-51.77429627625306,24.725463298356363,-89.07886878573439,-0.5211,-0.4366,0.2141,-0.7014
228,2195460.0,2137.970576,1.0,8.21,1.64,5.01,-5.19,-12.38,24.37,10.88,-16.0,-1.25,-0.12780217737241914,-0.01015914258317685,0.05076134774075136,-52.28433952334372,24.807588026066757,-88.90215600126406,-0.519,-0.4406,0.2148,-0.7003
229,2195460.0,2137.970576,1.0,8.21,1.64,5.01,-5.19,-12.38,24.37,10.88,-16.0,-1.25,-0.12780217737241914,-0.01015914258317685,0.05076134774075136,-52.28433952334372,24.807588026066757,-88.90215600126406,-0.519,-0.4406,0.2148,-0.7003
230,2195496.0,2138.010232,1.0,8.08,1.24,5.15,-4.06,-13.88,25.0,5.63,-8.06,-5.88,0.3942855321258927,0.06921313693891418,0.15334753603300122,-52.92346596535568,24.666810678302642,-88.59755263252764,-0.5178,-0.4456,0.2136,-0.6984
231,2195496.0,2138.010232,1.0,8.08,1.24,5.15,-4.06,-13.88,25.0,5.63,-8.06,-5.88,0.3942855321258927,0.06921313693891418,0.15334753603300122,-52.92346596535568,24.666810678302642,-88.59755263252764,-0.5178,-0.4456,0.2136,-0.6984
232,2195531.0,2138.0821300000002,1.0,8.09,1.49,5.25,-3.69,-12.06,25.87,-1.44,-0.75,-8.0,0.23245759169482794,0.2286858639409421,0.05347788813316079,-53.000280019764396,24.61989330860375,-88.40557811938011,-0.519,-0.4462,0.2132,-0.6972
233,2195531.0,2138.0821300000002,1.0,8.09,1.49,5.25,-3.69,-12.06,25.87,-1.44,-0.75,-8.0,0.23245759169482794,0.2286858639409421,0.05347788813316079,-53.000280019764396,24.61989330860375,-88.40557811938011,-0.519,-0.4462,0.2132,-0.6972
234,2195566.0,2138.100148,1.0,8.19,1.48,5.11,-3.69,-12.06,25.87,-1.63,3.44,-12.5,0.21906856342574146,0.02171320139024191,0.0429346466417293,-52.98747589558396,24.39709288880459,-88.19795806279829,-0.5216,-0.4461,0.2113,-0.6959
235,2195566.0,2138.100148,1.0,8.19,1.48,5.11,-3.69,-12.06,25.87,-1.63,3.44,-12.5,0.21906856342574146,0.02171320139024191,0.0429346466417293,-52.98747589558396,24.39709288880459,-88.19795806279829,-0.5216,-0.4461,0.2113,-0.6959
236,2195601.0,2138.10348,1.0,8.27,1.67,4.88,-3.69,-12.75,25.37,-4.31,4.13,-15.81,-0.012878830747261816,-0.1717075591943278,0.0615717217184919,-52.936266526907346,24.22126399043484,-87.92700356866892,-0.5248,-0.4457,0.2098,-0.6942
237,2195601.0,2138.10348,1.0,8.27,1.67,4.88,-3.69,-12.75,25.37,-4.31,4.13,-15.81,-0.012878830747261816,-0.1717075591943278,0.0615717217184919,-52.936266526907346,24.22126399043484,-87.92700356866892,-0.5248,-0.4457,0.2098,-0.6942
238,2195638.0,2138.155094,1.0,8.23,1.62,5.11,-3.69,-12.69,24.56,-3.0,4.75,-19.37,0.19582927715783605,-0.06767653931212614,-0.013048100259224428,-52.88506854972636,23.89320452199912,-87.4820668406457,-0.5299,-0.4453,0.207,-0.6914
239,2195638.0,2138.155094,1.0,8.23,1.62,5.11,-3.69,-12.69,24.56,-3.0,4.75,-19.37,0.19582927715783605,-0.06767653931212614,-0.013048100259224428,-52.88506854972636,23.89320452199912,-87.4820668406457,-0.5299,-0.4453,0.207,-0.6914
240,2195671.0,2138.208843,1.0,8.08,1.67,5.45,-3.69,-12.69,24.56,-10.19,12.06,-22.56,0.3280181271663385,0.21444146274706144,-0.07384689880550432,-52.68039020015169,23.670706029265663,-87.11781645834128,-0.535,-0.4437,0.2051,-0.6891
241,2195671.0,2138.208843,1.0,8.08,1.67,5.45,-3.69,-12.69,24.56,-10.19,12.06,-22.56,0.3280181271663385,0.21444146274706144,-0.07384689880550432,-52.68039020015169,23.670706029265663,-87.11781645834128,-0.535,-0.4437,0.2051,-0.6891
242,2195705.0,2138.2136179999998,1.0,7.99,1.65,5.44,-4.06,-12.69,24.19,-10.06,25.94,-17.44,0.3649938966092918,0.0685667332401112,0.007758324992527931,-52.00367866289412,23.08561363949995,-86.94399862291918,-0.5426,-0.4384,0.2001,-0.688
243,2195705.0,2138.2136179999998,1.0,7.99,1.65,5.44,-4.06,-12.69,24.19,-10.06,25.94,-17.44,0.3649938966092918,0.0685667332401112,0.007758324992527931,-52.00367866289412,23.08561363949995,-86.94399862291918,-0.5426,-0.4384,0.2001,-0.688
244,2195740.0,2138.281876,1.0,7.87,1.92,5.43,-3.25,-13.0,24.56,-8.44,26.31,-9.19,0.0857131859091187,0.07498762937394042,0.054971677516109096,-51.303485419526396,22.699787605080815,-87.08619458392643,-0.5471,-0.4329,0.1968,-0.6889
245,2195740.0,2138.281876,1.0,7.87,1.92,5.43,-3.25,-13.0,24.56,-8.44,26.31,-9.19,0.0857131859091187,0.07498762937394042,0.054971677516109096,-51.303485419526396,22.699787605080815,-87.08619458392643,-0.5471,-0.4329,0.1968,-0.6889
246,2195777.0,2138.320099,1.0,7.73,2.11,5.47,-3.0,-13.5,24.19,-2.38,20.87,-4.56,-0.1133210148358591,0.09176953699118462,0.10589556028362246,-50.52930167815198,22.232468575814032,-87.40278790753678,-0.5507,-0.4268,0.1928,-0.6909
247,2195777.0,2138.320099,1.0,7.73,2.11,5.47,-3.0,-13.5,24.19,-2.38,20.87,-4.56,-0.1133210148358591,0.09176953699118462,0.10589556028362246,-50.52930167815198,22.232468575814032,-87.40278790753678,-0.5507,-0.4268,0.1928,-0.6909
248,2195812.0,2138.326823,1.0,7.58,1.96,5.74,-3.0,-13.5,24.19,1.37,15.25,-2.5,0.12048233301177845,0.2466022751589605,0.10251318494434614,-50.187419272308674,21.882225322200526,-87.6407824219454,-0.552,-0.4241,0.1898,-0.6924
249,2195812.0,2138.326823,1.0,7.58,1.96,5.74,-3.0,-13.5,24.19,1.37,15.25,-2.5,0.12048233301177845,0.2466022751589605,0.10251318494434614,-50.187419272308674,21.882225322200526,-87.6407824219454,-0.552,-0.4241,0.1898,-0.6924
250,2195849.0,2138.342748,1.0,7.69,1.91,5.68,-4.06,-13.88,24.56,4.81,15.25,-2.63,0.12757267723756496,0.024032364231495684,0.05832975200384105,-49.808109162272245,21.473869337236096,-87.92700356866892,-0.5532,-0.4211,0.1863,-0.6942
251,2195849.0,2138.342748,1.0,7.69,1.91,5.68,-4.06,-13.88,24.56,4.81,15.25,-2.63,0.12757267723756496,0.024032364231495684,0.05832975200384105,-49.808109162272245,21.473869337236096,-87.92700356866892,-0.5532,-0.4211,0.1863,-0.6942
252,2195881.0,2138.384293,1.0,7.71,1.89,5.87,-4.5,-13.5,23.75,4.13,13.0,-3.81,0.2199161316631385,0.07092967001894057,-0.06349214066572273,-49.59342555885964,21.112413070583106,-88.13414829642569,-0.5539,-0.4194,0.1832,-0.6955
253,2195881.0,2138.384293,1.0,7.71,1.89,5.87,-4.5,-13.5,23.75,4.13,13.0,-3.81,0.2199161316631385,0.07092967001894057,-0.06349214066572273,-49.59342555885964,21.112413070583106,-88.13414829642569,-0.5539,-0.4194,0.1832,-0.6955
254,2195916.0,2138.5104109999997,1.0,7.66,1.87,5.67,-4.5,-13.5,23.75,2.94,10.0,-4.25,0.16879931928103353,-0.12573640644913042,0.09701060680400177,-49.353704706731605,20.73951961095484,-88.29373733057318,-0.5551,-0.4175,0.18,-0.6965
255,2195916.0,2138.5104109999997,1.0,7.66,1.87,5.67,-4.5,-13.5,23.75,2.94,10.0,-4.25,0.16879931928103353,-0.12573640644913042,0.09701060680400177,-49.353704706731605,20.73951961095484,-88.29373733057318,-0.5551,-0.4175,0.18,-0.6965
256,2195951.0,2138.559447,1.0,7.66,2.03,5.68,-5.19,-13.06,24.19,-1.56,4.06,-4.81,0.029429941370697987,-0.10344531667489497,0.057427828718385136,-49.24023317275956,20.588095276846204,-88.30970809584517,-0.5561,-0.4166,0.1787,-0.6966
257,2195951.0,2138.559447,1.0,7.66,2.03,5.68,-5.19,-13.06,24.19,-1.56,4.06,-4.81,0.029429941370697987,-0.10344531667489497,0.057427828718385136,-49.24023317275956,20.588095276846204,-88.30970809584517,-0.5561,-0.4166,0.1787,-0.6966
258,2195988.0,2138.566257,1.0,7.48,2.23,5.92,-5.56,-13.88,25.75,0.56,0.81,-5.56,-0.03951535432213349,0.2213882055849743,0.012818992717882338,-49.21502427217554,20.49492914898236,-88.16604887802973,-0.5576,-0.4164,0.1779,-0.6957
259,2195988.0,2138.566257,1.0,7.48,2.23,5.92,-5.56,-13.88,25.75,0.56,0.81,-5.56,-0.03951535432213349,0.2213882055849743,0.012818992717882338,-49.21502427217554,20.49492914898236,-88.16604887802973,-0.5576,-0.4164,0.1779,-0.6957
260,2196021.0,2138.582879,1.0,7.48,2.16,5.91,-5.56,-13.88,25.75,4.06,2.13,-8.19,0.048192133484826094,0.16773177759042812,0.033541816363817034,-49.24023317275956,20.331921330362565,-88.07037290502619,-0.5588,-0.4166,0.1765,-0.6951
261,2196021.0,2138.582879,1.0,7.48,2.16,5.91,-5.56,-13.88,25.75,4.06,2.13,-8.19,0.048192133484826094,0.16773177759042812,0.033541816363817034,-49.24023317275956,20.331921330362565,-88.07037290502619,-0.5588,-0.4166,0.1765,-0.6951
262,2196056.0,2138.585966,1.0,7.54,2.02,5.71,-4.75,-13.06,24.87,2.0,1.75,-7.38,0.14758601644647984,-0.09360668601294896,0.13682289936975245,-49.31587513221956,20.01766618340029,-87.94292494652382,-0.5601,-0.4172,0.1738,-0.6943
263,2196056.0,2138.585966,1.0,7.54,2.02,5.71,-4.75,-13.06,24.87,2.0,1.75,-7.38,0.14758601644647984,-0.09360668601294896,0.13682289936975245,-49.31587513221956,20.01766618340029,-87.94292494652382,-0.5601,-0.4172,0.1738,-0.6943
264,2196090.0,2138.626245,1.0,7.5,2.19,5.87,-4.5,-13.06,25.75,2.44,-0.06,-5.75,0.08154780247962146,0.08415676076355894,0.034788990165255385,-49.378927610894635,19.889680039418103,-87.815613588484,-0.561,-0.4177,0.1727,-0.6935
265,2196090.0,2138.626245,1.0,7.5,2.19,5.87,-4.5,-13.06,25.75,2.44,-0.06,-5.75,0.08154780247962146,0.08415676076355894,0.034788990165255385,-49.378927610894635,19.889680039418103,-87.815613588484,-0.561,-0.4177,0.1727,-0.6935
266,2196125.0,2138.638925,1.0,7.44,2.22,5.92,-4.75,-13.06,26.06,4.44,-0.5,-6.31,0.11721929873372827,0.14980145925946964,0.04487663862717461,-49.505080460483725,19.691932497848974,-87.67255085031937,-0.562,-0.4187,0.171,-0.6926
267,2196125.0,2138.638925,1.0,7.44,2.22,5.92,-4.75,-13.06,26.06,4.44,-0.5,-6.31,0.11721929873372827,0.14980145925946964,0.04487663862717461,-49.505080460483725,19.691932497848974,-87.67255085031937,-0.562,-0.4187,0.171,-0.6926
268,2196160.0,2138.726462,1.0,7.43,2.41,5.84,-4.75,-13.06,26.06,11.5,6.06,-6.06,-0.04517798578328114,0.13068026738101945,0.05475369121380425,-49.618672793409424,19.377984308584086,-87.65666557935936,-0.5622,-0.4196,0.1683,-0.6925
269,2196160.0,2138.726462,1.0,7.43,2.41,5.84,-4.75,-13.06,26.06,11.5,6.06,-6.06,-0.04517798578328114,0.13068026738101945,0.05475369121380425,-49.618672793409424,19.377984308584086,-87.65666557935936,-0.5622,-0.4196,0.1683,-0.6925
270,2196195.0,2138.743884,1.0,7.46,2.23,5.86,-4.75,-12.06,25.0,21.37,14.75,-7.38,0.21386812036351188,-0.03128967884712042,0.06409482268179012,-49.74494758083664,18.448619433327213,-87.92700356866892,-0.5618,-0.4206,0.1603,-0.6942
271,2196195.0,2138.743884,1.0,7.46,2.23,5.86,-4.75,-12.06,25.0,21.37,14.75,-7.38,0.21386812036351188,-0.03128967884712042,0.06409482268179012,-49.74494758083664,18.448619433327213,-87.92700356866892,-0.5618,-0.4206,0.1603,-0.6942
