acc_x,acc_y,acc_z,lin_x,lin_y,lin_z,eul_x,eul_y,eul_z
6.11,6.49,3.91,-0.1267236598383986,0.0825007318533144,0.0743617416672837,-33.51241368583526,-54.58071505177939,-111.46137512854489
6.11,6.49,3.91,-0.1267236598383986,0.0825007318533144,0.0743617416672837,-33.51241368583526,-54.58071505177939,-111.46137512854489
6.11,6.56,3.92,-0.0786064297932336,0.1075318782122352,0.0232784991132373,-33.596193911040075,-54.56782105444786,-111.44102705802788
6.11,6.56,3.92,-0.0786064297932336,0.1075318782122352,0.0232784991132373,-33.596193911040075,-54.56782105444786,-111.44102705802788
6.17,6.5,4.09,-0.0958253330938258,-0.0884347499762694,-0.0437305408996291,-33.71591204499429,-54.60650529245762,-111.38001462419376
6.17,6.5,4.09,-0.0958253330938258,-0.0884347499762694,-0.0437305408996291,-33.71591204499429,-54.60650529245762,-111.38001462419376
6.17,6.44,3.8,-0.2186289436230249,0.0996712439002736,0.115170906066524,-33.83566809114509,-54.69679474885505,-111.27843287427478
6.17,6.44,3.8,-0.2186289436230249,0.0996712439002736,0.115170906066524,-33.83566809114509,-54.69679474885505,-111.27843287427478
5.93,6.5,3.63,-0.0204280600174039,0.2138176941143599,0.2911014247444701,-34.315074743396394,-54.8774841925425,-110.9542523014697
5.93,6.5,3.63,-0.0204280600174039,0.2138176941143599,0.2911014247444701,-34.315074743396394,-54.8774841925425,-110.9542523014697
6.23,6.53,3.5,-0.2565589457671368,0.2847533907976611,0.1341687767679733,-34.66303165808797,-54.99371982086026,-110.7321495345978
6.23,6.53,3.5,-0.2565589457671368,0.2847533907976611,0.1341687767679733,-34.66303165808797,-54.99371982086026,-110.7321495345978
5.94,6.55,4.1,0.2556581729337023,-0.2832094350331786,0.0675262553030275,-35.31183406453793,-55.20051268392319,-110.28980246010522
5.94,6.55,4.1,0.2556581729337023,-0.2832094350331786,0.0675262553030275,-35.31183406453793,-55.20051268392319,-110.28980246010522
6.67,6.61,3.43,-0.4904295207706347,0.2193034668404769,-0.1761995368100404,-35.66074669721593,-55.39455832418957,-109.96962968750276
6.67,6.61,3.43,-0.4904295207706347,0.2193034668404769,-0.1761995368100404,-35.66074669721593,-55.39455832418957,-109.96962968750276
7.19,6.5,1.87,-1.4446469916815592,1.230474424471947,0.1194456685044613,-36.914862771096224,-55.97773522242152,-108.93776167014931
7.19,6.5,1.87,-1.4446469916815592,1.230474424471947,0.1194456685044613,-36.914862771096224,-55.97773522242152,-108.93776167014931
7.01,6.48,2.81,-0.7174693952227311,0.0761634275530478,-0.1183707455310685,-39.497964529561656,-56.67963771453915,-107.104699496576
7.01,6.48,2.81,-0.7174693952227311,0.0761634275530478,-0.1183707455310685,-39.497964529561656,-56.67963771453915,-107.104699496576
8.27,6.61,2.19,-1.4481053403969917,-0.0930081760315424,-0.9066800332952044,-43.59162801664085,-57.29244480095832,-104.35233464317456
8.27,6.61,2.19,-1.4481053403969917,-0.0930081760315424,-0.9066800332952044,-43.59162801664085,-57.29244480095832,-104.35233464317456
6.9,6.99,2.37,0.4900506169573549,-0.3530142292804581,-0.2790939659524003,-50.326646830888215,-57.30550263837881,-99.93861474574966
6.9,6.99,2.37,0.4900506169573549,-0.3530142292804581,-0.2790939659524003,-50.326646830888215,-57.30550263837881,-99.93861474574966
8.63,6.33,0.15,-1.5989641945434718,-0.2562969221712716,-0.773800150738083,-55.66651249731456,-57.867763106675405,-95.39470569781707
8.63,6.33,0.15,-1.5989641945434718,-0.2562969221712716,-0.773800150738083,-55.66651249731456,-57.867763106675405,-95.39470569781707
9.33,5.22,-1.07,-2.211877021036816,-1.3872375018508405,-0.6156996466616356,-63.97037455615307,-58.28718053424962,-87.95884845875601
9.33,5.22,-1.07,-2.211877021036816,-1.3872375018508405,-0.6156996466616356,-63.97037455615307,-58.28718053424962,-87.95884845875601
6.96,6.95,0.02,1.3046588889234776,-0.5402436392472332,0.0726630473784837,-71.47886911000296,-57.01841747060314,-81.83929990977303
6.96,6.95,0.02,1.3046588889234776,-0.5402436392472332,0.0726630473784837,-71.47886911000296,-57.01841747060314,-81.83929990977303
9.13,6.36,-2.46,-0.4892389505358463,-1.5358828435475842,-1.4742989467940948,-79.38989987649909,-55.17465292180053,-75.13562834382228
9.13,6.36,-2.46,-0.4892389505358463,-1.5358828435475842,-1.4742989467940948,-79.38989987649909,-55.17465292180053,-75.13562834382228
6.06,6.33,-1.0,1.8326760183333697,-0.3899080049605925,1.1879627241155006,-85.60916725031366,-52.79549944688719,-69.94734861219692
6.06,6.33,-1.0,1.8326760183333697,-0.3899080049605925,1.1879627241155006,-85.60916725031366,-52.79549944688719,-69.94734861219692
5.39,7.41,-2.75,1.183541948081419,0.9087515195334236,0.3569886762870027,-90.8283929063304,-50.56731827609278,-64.93213103574271
5.39,7.41,-2.75,1.183541948081419,0.9087515195334236,0.3569886762870027,-90.8283929063304,-50.56731827609278,-64.93213103574271
7.18,5.17,-4.81,-1.171844049047146,-1.6237708240808384,-0.0628763227561535,-93.72249978101487,-49.24023317275956,-62.101886205747824
7.18,5.17,-4.81,-1.171844049047146,-1.6237708240808384,-0.0628763227561535,-93.72249978101487,-49.24023317275956,-62.101886205747824
4.17,6.79,-4.36,-0.1899361732794371,1.047072115525225,0.7861087615282436,-98.89313900458244,-45.90899880278562,-56.84895982984303
4.17,6.79,-4.36,-0.1899361732794371,1.047072115525225,0.7861087615282436,-98.89313900458244,-45.90899880278562,-56.84895982984303
4.65,7.62,-2.74,2.054793000390269,0.8461755911876052,0.7371234084724421,-102.64942299100883,-44.13516742855202,-52.32263756575615
4.65,7.62,-2.74,2.054793000390269,0.8461755911876052,0.7371234084724421,-102.64942299100883,-44.13516742855202,-52.32263756575615
3.64,5.79,-4.45,-0.1392618454649384,0.3188238990489287,1.6546467210634077,-105.93613916476912,-42.32324429701836,-48.96307461903554
3.64,5.79,-4.45,-0.1392618454649384,0.3188238990489287,1.6546467210634077,-105.93613916476912,-42.32324429701836,-48.96307461903554
4.83,7.64,-4.27,1.1648430510623378,0.7723592353273112,-0.0917338013079902,-107.74364009530142,-39.99754361581977,-48.66106748213056
4.83,7.64,-4.27,1.1648430510623378,0.7723592353273112,-0.0917338013079902,-107.74364009530142,-39.99754361581977,-48.66106748213056
5.41,6.88,-6.36,-0.5071035670499182,-0.3678247940152888,-0.994259725258928,-108.76048947633528,-39.10859227464813,-48.070674990989744
5.41,6.88,-6.36,-0.5071035670499182,-0.3678247940152888,-0.994259725258928,-108.76048947633528,-39.10859227464813,-48.070674990989744
4.89,5.42,-5.61,-0.2392816172130777,-0.6953551049793072,0.629513976945578,-111.82855209706509,-37.54363247388456,-45.92144367093
4.89,5.42,-5.61,-0.2392816172130777,-0.6953551049793072,0.629513976945578,-111.82855209706509,-37.54363247388456,-45.92144367093
5.38,6.04,-6.09,0.0060919292751411,-0.4790519440115704,-0.3069335450811632,-113.8590465676662,-35.97385559965812,-45.1509357631892
5.38,6.04,-6.09,0.0060919292751411,-0.4790519440115704,-0.3069335450811632,-113.8590465676662,-35.97385559965812,-45.1509357631892
4.31,6.26,-5.44,0.1633222962328329,0.6355029003759549,0.4831977482229259,-115.57996801372803,-34.61501807279963,-44.24647435383947
4.31,6.26,-5.44,0.1633222962328329,0.6355029003759549,0.4831977482229259,-115.57996801372803,-34.61501807279963,-44.24647435383947
4.1,5.22,-5.48,-0.2239340743435209,0.140564205020397,1.2032265398525848,-116.77224597329428,-33.85962386452365,-43.71506869334832
4.1,5.22,-5.48,-0.2239340743435209,0.140564205020397,1.2032265398525848,-116.77224597329428,-33.85962386452365,-43.71506869334832
4.38,6.12,-6.03,-0.1719328012062692,0.704115726295357,0.1902910135720841,-118.20783138151,-32.17439925332779,-43.49291375439449
4.38,6.12,-6.03,-0.1719328012062692,0.704115726295357,0.1902910135720841,-118.20783138151,-32.17439925332779,-43.49291375439449
4.39,6.5,-5.99,-0.0075955848255082,1.0448777209439868,-0.0071348384487262,-118.74553859011928,-31.56662645811723,-43.34490590574986
4.39,6.5,-5.99,-0.0075955848255082,1.0448777209439868,-0.0071348384487262,-118.74553859011928,-31.56662645811723,-43.34490590574986
4.14,5.93,-5.64,-0.0282755451923364,0.8811493488502684,0.6777466530165963,-119.33290625430892,-31.06679175207397,-43.07375512826057
4.14,5.93,-5.64,-0.0282755451923364,0.8811493488502684,0.6777466530165963,-119.33290625430892,-31.06679175207397,-43.07375512826057
4.23,5.16,-5.58,-0.1599464594477901,0.3282676871004466,1.1163359978642973,-119.46918424877704,-31.00732816596471,-43.24627621237414
4.23,5.16,-5.58,-0.1599464594477901,0.3282676871004466,1.1163359978642973,-119.46918424877704,-31.00732816596471,-43.24627621237414
5.35,6.0,-7.06,-0.4502623571456477,0.1239749071392517,-0.8820353275853101,-119.4919242535424,-30.48441543516209,-43.80150890567696
5.35,6.0,-7.06,-0.4502623571456477,0.1239749071392517,-0.8820353275853101,-119.4919242535424,-30.48441543516209,-43.80150890567696
4.95,5.95,-5.96,0.1663528297676627,0.5722220057567281,0.0561890512983431,-119.85682289966007,-30.270684516880635,-43.66568603094216
4.95,5.95,-5.96,0.1663528297676627,0.5722220057567281,0.0561890512983431,-119.85682289966007,-30.270684516880635,-43.66568603094216
4.94,4.96,-6.4,-0.4645625005544415,-0.1512383835122248,0.3342422472461521,-119.94836140851372,-30.306298828005648,-43.92504042696694
4.94,4.96,-6.4,-0.4645625005544415,-0.1512383835122248,0.3342422472461521,-119.94836140851372,-30.306298828005648,-43.92504042696694
5.88,5.5,-6.63,-0.0114247609752002,-0.2563722782059385,-0.6200197813733492,-119.74257704437856,-30.15199174363297,-44.50636177945312
5.88,5.5,-6.63,-0.0114247609752002,-0.2563722782059385,-0.6200197813733492,-119.74257704437856,-30.15199174363297,-44.50636177945312
5.87,4.85,-6.89,-0.4501706556378819,-0.7068591948680782,-0.4280554896285622,-119.85682289966007,-29.701259829199124,-44.84085774318776
5.87,4.85,-6.89,-0.4501706556378819,-0.7068591948680782,-0.4280554896285622,-119.85682289966007,-29.701259829199124,-44.84085774318776
4.5,4.76,-5.91,-0.4758906187205524,0.1905605155180114,0.9991012599169072,-120.2467396055226,-29.49976914452507,-44.51874337646561
4.5,4.76,-5.91,-0.4758906187205524,0.1905605155180114,0.9991012599169072,-120.2467396055226,-29.49976914452507,-44.51874337646561
5.64,5.59,-7.34,-0.6638438753665468,-0.0250304969066279,-0.986495268334112,-120.50027377126791,-29.014203146635065,-44.50636177945312
5.64,5.59,-7.34,-0.6638438753665468,-0.0250304969066279,-0.986495268334112,-120.50027377126791,-29.014203146635065,-44.50636177945312
5.29,5.46,-6.64,-0.2643950124630011,0.1775583904580098,-0.2821491503133142,-121.2668396082864,-28.63559484770936,-43.764459893907535
5.29,5.46,-6.64,-0.2643950124630011,0.1775583904580098,-0.2821491503133142,-121.2668396082864,-28.63559484770936,-43.764459893907535
5.24,4.92,-6.94,-0.4638324768672877,-0.2647425577882441,-0.1704423024445809,-122.37462983210789,-28.517345406099267,-42.59369907468167
5.24,4.92,-6.94,-0.4638324768672877,-0.2647425577882441,-0.1704423024445809,-122.37462983210789,-28.517345406099267,-42.59369907468167
4.94,5.21,-6.47,0.1227017293658184,0.1893664446673901,0.1444719517934416,-124.30646648477428,-28.210041571444727,-40.43685258518578
4.94,5.21,-6.47,0.1227017293658184,0.1893664446673901,0.1444719517934416,-124.30646648477428,-28.210041571444727,-40.43685258518578
4.43,4.83,-6.71,-0.2006998086077293,0.1030001571661172,0.4297096378963463,-125.821937957947,-28.09190303440269,-38.62253627833281
4.43,4.83,-6.71,-0.2006998086077293,0.1030001571661172,0.4297096378963463,-125.821937957947,-28.09190303440269,-38.62253627833281
5.33,4.98,-8.78,-0.5078696536179139,-0.6905247427133223,-1.5759219411139558,-127.84492955883974,-27.92656022686475,-36.28724251436374
5.33,4.98,-8.78,-0.5078696536179139,-0.6905247427133223,-1.5759219411139558,-127.84492955883974,-27.92656022686475,-36.28724251436374
4.11,4.49,-6.49,0.4752730024946914,-0.0024670724870827,0.9214707960304444,-130.4881841928668,-27.560654449020664,-33.02206936424729
4.11,4.49,-6.49,0.4752730024946914,-0.0024670724870827,0.9214707960304444,-130.4881841928668,-27.560654449020664,-33.02206936424729
3.11,4.62,-6.18,0.3517253641390731,0.6121214626776075,1.5174705120681151,-132.41145409892673,-27.44268161964677,-30.16385952856291
3.11,4.62,-6.18,0.3517253641390731,0.6121214626776075,1.5174705120681151,-132.41145409892673,-27.44268161964677,-30.16385952856291
3.39,3.94,-7.38,-0.3107880593761233,-0.3733934912460037,0.7930997514661655,-132.61066542040177,-27.43088596976693,-29.93842807862379
3.39,3.94,-7.38,-0.3107880593761233,-0.3733934912460037,0.7930997514661655,-132.61066542040177,-27.43088596976693,-29.93842807862379
4.03,5.03,-8.19,0.0456941422171285,-0.0416429167847427,-0.6151578044477812,-132.63918862221735,-27.124302654398623,-30.009604103998093
4.03,5.03,-8.19,0.0456941422171285,-0.0416429167847427,-0.6151578044477812,-132.63918862221735,-27.124302654398623,-30.009604103998093
3.39,4.81,-7.97,-0.3562334485154953,0.1202467608835173,-0.0932357794752238,-132.69628364910096,-27.11251495381608,-29.74868303296809
3.39,4.81,-7.97,-0.3562334485154953,0.1202467608835173,-0.0932357794752238,-132.69628364910096,-27.11251495381608,-29.74868303296809
2.96,4.76,-7.22,-0.2529274349664315,0.465609080810907,0.6815836497476528,-132.66772802198363,-27.195035005738163,-29.57087281914313
2.96,4.76,-7.22,-0.2529274349664315,0.465609080810907,0.6815836497476528,-132.66772802198363,-27.195035005738163,-29.57087281914313
3.56,5.03,-7.77,-0.0946911842541412,0.2360673206716033,-0.1071134528838513,-132.32631788342704,-27.253986698732728,-30.045196559032803
3.56,5.03,-7.77,-0.0946911842541412,0.2360673206716033,-0.1071134528838513,-132.32631788342704,-27.253986698732728,-30.045196559032803
3.51,4.99,-7.74,-0.2617615074877265,0.2437588529693575,-0.0422008230552872,-131.56643317341502,-27.50166431915293,-30.888426648702456
3.51,4.99,-7.74,-0.2617615074877265,0.2437588529693575,-0.0422008230552872,-131.56643317341502,-27.50166431915293,-30.888426648702456
3.46,4.5,-7.64,-0.4655885209924775,-0.0574143486873968,0.3002768260874138,-131.09368455172458,-27.86752361625034,-31.423754097001943
3.46,4.5,-7.64,-0.4655885209924775,-0.0574143486873968,0.3002768260874138,-131.09368455172458,-27.86752361625034,-31.423754097001943
3.85,4.39,-7.65,-0.3538209393543568,-0.2623080603455228,0.1929563693317036,-130.46082634681812,-28.17459680285253,-32.436861947325646
3.85,4.39,-7.65,-0.3538209393543568,-0.2623080603455228,0.1929563693317036,-130.46082634681812,-28.17459680285253,-32.436861947325646
4.46,4.94,-7.88,0.023159359501747,-0.1759162930456188,-0.5063571803479583,-129.97078188553854,-28.292756752714663,-33.11769717298479
4.46,4.94,-7.88,0.023159359501747,-0.1759162930456188,-0.5063571803479583,-129.97078188553854,-28.292756752714663,-33.11769717298479
4.05,4.72,-7.76,-0.3419758356824486,-0.0769628089975156,-0.1319429212258462,-129.64656611878056,-28.34002932498839,-33.57225481905068
4.05,4.72,-7.76,-0.3419758356824486,-0.0769628089975156,-0.1319429212258462,-129.64656611878056,-28.34002932498839,-33.57225481905068
3.72,4.14,-7.18,-0.4250496176487361,-0.2154370576356794,0.7345322926102877,-129.56581673326838,-28.41094741939909,-33.71591204499429
3.72,4.14,-7.18,-0.4250496176487361,-0.2154370576356794,0.7345322926102877,-129.56581673326838,-28.41094741939909,-33.71591204499429
4.21,4.75,-7.47,-0.2110810144332204,-0.0239528310170653,0.0065290279286802,-128.8444329155711,-28.47005431834872,-34.699045966979874
4.21,4.75,-7.47,-0.2110810144332204,-0.0239528310170653,0.0065290279286802,-128.8444329155711,-28.47005431834872,-34.699045966979874
4.4,5.32,-7.65,-0.0969553147752126,0.3194449111989863,-0.4925467946848112,-128.44773606463812,-28.48187662578674,-35.26373479080068
4.4,5.32,-7.65,-0.0969553147752126,0.3194449111989863,-0.4925467946848112,-128.44773606463812,-28.48187662578674,-35.26373479080068
4.07,4.27,-7.17,-0.3204428013180803,-0.1670395484095377,0.5289286094671635,-128.63250588646886,-28.70655945606141,-35.20361971980137
4.07,4.27,-7.17,-0.3204428013180803,-0.1670395484095377,0.5289286094671635,-128.63250588646886,-28.70655945606141,-35.20361971980137
4.13,4.27,-7.58,-0.5233113893177168,-0.2031047672657071,0.1925409074566708,-128.8444329155711,-28.682903338517608,-35.23968756061282
4.13,4.27,-7.58,-0.5233113893177168,-0.2031047672657071,0.1925409074566708,-128.8444329155711,-28.682903338517608,-35.23968756061282
4.72,5.15,-7.54,0.1820168766871598,0.2471399399057334,-0.4675064961170623,-128.8444329155711,-28.63559484770936,-35.4802322080149
4.72,5.15,-7.54,0.1820168766871598,0.2471399399057334,-0.4675064961170623,-128.8444329155711,-28.63559484770936,-35.4802322080149
4.34,4.22,-7.59,-0.4250095387209262,-0.2767545801736237,0.1115546526426989,-128.6854111372357,-28.943189564308163,-35.57649524988903
4.34,4.22,-7.59,-0.4250095387209262,-0.2767545801736237,0.1115546526426989,-128.6854111372357,-28.943189564308163,-35.57649524988903
3.8,4.45,-7.41,-0.5988712272480077,0.2635580606052317,0.3873883303220378,-128.60607229870925,-29.1444243172648,-35.63667282414923
3.8,4.45,-7.41,-0.5988712272480077,0.2635580606052317,0.3873883303220378,-128.60607229870925,-29.1444243172648,-35.63667282414923
4.4,4.98,-7.15,0.1337069726914354,0.425253929989958,0.055538189520039,-128.44773606463812,-29.227312357898,-35.877484931095594
4.4,4.98,-7.15,0.1337069726914354,0.425253929989958,0.055538189520039,-128.44773606463812,-29.227312357898,-35.877484931095594
4.61,4.3,-7.48,-0.2054771477599892,-0.1992885608505674,0.0285845874931602,-128.18484420355122,-29.55902139879445,-36.311360803930285
4.61,4.3,-7.48,-0.2054771477599892,-0.1992885608505674,0.0285845874931602,-128.18484420355122,-29.55902139879445,-36.311360803930285
4.32,3.93,-7.46,-0.5665884876707183,-0.2036333131231052,0.3516824717942288,-128.05386288415187,-29.606429021936968,-36.842386864351504
4.32,3.93,-7.46,-0.5665884876707183,-0.2036333131231052,0.3516824717942288,-128.05386288415187,-29.606429021936968,-36.842386864351504
5.08,4.74,-7.69,0.0029425072163505,0.0819185895569627,-0.5569102321951291,-127.81886761171008,-29.55902139879445,-37.41052638436744
5.08,4.74,-7.69,0.0029425072163505,0.0819185895569627,-0.5569102321951291,-127.81886761171008,-29.55902139879445,-37.41052638436744
5.13,4.61,-7.63,-0.009213281860733,0.0553337135550466,-0.4784242970375114,-127.68873899317936,-29.59457663056109,-37.81000260574194
5.13,4.61,-7.63,-0.009213281860733,0.0553337135550466,-0.4784242970375114,-127.68873899317936,-29.59457663056109,-37.81000260574194
4.32,3.97,-7.03,-0.3483897097558836,0.1423682969473183,0.6577399076359605,-127.89708982203928,-29.61828173729524,-37.83422856646789
4.32,3.97,-7.03,-0.3483897097558836,0.1423682969473183,0.6577399076359605,-127.89708982203928,-29.61828173729524,-37.83422856646789
4.9,3.96,-7.7,-0.449203538676185,-0.1039141687137754,-0.1316103118645131,-127.87100362286014,-29.55902139879445,-38.31911836146923
4.9,3.96,-7.7,-0.449203538676185,-0.1039141687137754,-0.1316103118645131,-127.87100362286014,-29.55902139879445,-38.31911836146923
5.22,3.83,-7.61,-0.2669221282070669,-0.2768002752547902,-0.1774140114680928,-127.81886761171008,-29.44052495534397,-38.707543665525726
5.22,3.83,-7.61,-0.2669221282070669,-0.2768002752547902,-0.1774140114680928,-127.81886761171008,-29.44052495534397,-38.707543665525726
5.27,3.75,-7.65,-0.3235374487701655,-0.2719629346255039,-0.202308970913668,-127.84492955883974,-29.227312357898,-39.04779541564693
5.27,3.75,-7.65,-0.3235374487701655,-0.2719629346255039,-0.202308970913668,-127.84492955883974,-29.227312357898,-39.04779541564693
4.9,3.81,-7.42,-0.4072009120084499,0.0265669432518405,0.1414556607854091,-127.89708982203928,-29.0023667595726,-39.181563633405815
4.9,3.81,-7.42,-0.4072009120084499,0.0265669432518405,0.1414556607854091,-127.89708982203928,-29.0023667595726,-39.181563633405815
4.82,4.02,-7.41,-0.4153184384405801,0.25135814776382,0.1079269048578375,-127.76677999527551,-28.91952089539617,-39.40057712393039
4.82,4.02,-7.41,-0.4153184384405801,0.25135814776382,0.1079269048578375,-127.76677999527551,-28.91952089539617,-39.40057712393039
5.44,4.5,-7.62,-0.0621673358700818,0.306363242830165,-0.5765227706801408,-127.40350962041992,-28.89585348706327,-39.82686703824351
5.44,4.5,-7.62,-0.0621673358700818,0.306363242830165,-0.5765227706801408,-127.40350962041992,-28.89585348706327,-39.82686703824351
5.33,3.65,-7.35,-0.2728577235460948,-0.3052045505691685,0.029825421180293,-127.09397976921672,-29.25099752476888,-40.02193352838936
5.33,3.65,-7.35,-0.2728577235460948,-0.3052045505691685,0.029825421180293,-127.09397976921672,-29.25099752476888,-40.02193352838936
5.02,3.62,-7.28,-0.4497295759546681,-0.1601467204063507,0.2633122014907858,-127.01685959928788,-29.2983716924918,-40.11951210127083
5.02,3.62,-7.28,-0.4497295759546681,-0.1601467204063507,0.2633122014907858,-127.01685959928788,-29.2983716924918,-40.11951210127083
5.43,4.17,-7.5,-0.1831852254396724,0.0582897611949206,-0.3465192331468838,-126.73497195223707,-29.393135398012305,-40.36359153375482
5.43,4.17,-7.5,-0.1831852254396724,0.0582897611949206,-0.3465192331468838,-126.73497195223707,-29.393135398012305,-40.36359153375482
5.48,3.9,-7.45,-0.2097511692629373,-0.1931678145024636,-0.226374999591755,-126.70941436503276,-29.464221664430085,-40.33917501022326
5.48,3.9,-7.45,-0.2097511692629373,-0.1931678145024636,-0.226374999591755,-126.70941436503276,-29.464221664430085,-40.33917501022326
5.03,3.82,-7.07,-0.2386412938289455,-0.0168868871958913,0.3292576811223817,-126.76054091134182,-29.57087281914313,-40.15611188549902
5.03,3.82,-7.07,-0.2386412938289455,-0.0168868871958913,0.3292576811223817,-126.76054091134182,-29.57087281914313,-40.15611188549902
5.05,4.1,-7.4,-0.3500694381898379,0.1662780847259108,-0.0382625433893721,-126.73497195223707,-29.59457663056109,-40.13171155486349
5.05,4.1,-7.4,-0.3500694381898379,0.1662780847259108,-0.0382625433893721,-126.73497195223707,-29.59457663056109,-40.13171155486349
4.86,3.83,-7.35,-0.5106364580844995,0.0470954212495251,0.2124834166550844,-126.76054091134182,-29.74868303296809,-40.009738335861776
4.86,3.83,-7.35,-0.5106364580844995,0.0470954212495251,0.2124834166550844,-126.76054091134182,-29.74868303296809,-40.009738335861776
5.26,4.18,-7.47,-0.2151849848111114,0.11780596211358,-0.2372893256631325,-126.76054091134182,-29.713115141941444,-40.0463253316736
5.26,4.18,-7.47,-0.2151849848111114,0.11780596211358,-0.2372893256631325,-126.76054091134182,-29.713115141941444,-40.0463253316736
5.13,3.82,-7.28,-0.2887154347111988,-0.0908005887745475,0.1207789162596366,-126.81171301116376,-29.736826743672204,-39.99754361581977
5.13,3.82,-7.28,-0.2887154347111988,-0.0908005887745475,0.1207789162596366,-126.81171301116376,-29.736826743672204,-39.99754361581977
4.95,3.94,-7.24,-0.3361302946677502,0.1176932492769631,0.1984834358691927,-126.78612125881504,-29.72497078004789,-40.0341291935956
4.95,3.94,-7.24,-0.3361302946677502,0.1176932492769631,0.1984834358691927,-126.78612125881504,-29.72497078004789,-40.0341291935956
5.3,4.18,-7.19,-0.0295774233379742,0.1501097668459898,-0.0541355789448214,-126.658333240647,-29.653841828798463,-40.27814205807221
5.3,4.18,-7.19,-0.0295774233379742,0.1501097668459898,-0.0541355789448214,-126.658333240647,-29.653841828798463,-40.27814205807221
5.38,3.89,-7.39,-0.2472433677017141,-0.1278618462374612,-0.1236632914024529,-126.505361092403,-29.701259829199124,-40.461276767806375
5.38,3.89,-7.39,-0.2472433677017141,-0.1278618462374612,-0.1236632914024529,-126.505361092403,-29.701259829199124,-40.461276767806375
4.98,3.72,-7.14,-0.4135032056521459,-0.0216412424186178,0.3490104025347857,-126.37819315148278,-29.736826743672204,-40.63229985656115
4.98,3.72,-7.14,-0.4135032056521459,-0.0216412424186178,0.3490104025347857,-126.37819315148278,-29.736826743672204,-40.63229985656115
5.49,4.29,-7.38,-0.094334910187905,0.1750742949679362,-0.3407166493313074,-126.20062569892964,-29.68940484166728,-40.90124166576177
5.49,4.29,-7.38,-0.094334910187905,0.1750742949679362,-0.3407166493313074,-126.20062569892964,-29.68940484166728,-40.90124166576177
5.63,3.94,-7.43,-0.1869074561842511,-0.1751436772960259,-0.3106515322825061,-126.12469119973764,-29.68940484166728,-41.03580078188174
5.63,3.94,-7.43,-0.1869074561842511,-0.1751436772960259,-0.3106515322825061,-126.12469119973764,-29.68940484166728,-41.03580078188174
5.18,3.83,-7.0,-0.2167405774160878,0.0067135725210039,0.2959045796848638,-126.09940169684566,-29.68940484166728,-41.0847460230468
5.18,3.83,-7.0,-0.2167405774160878,0.0067135725210039,0.2959045796848638,-126.09940169684566,-29.68940484166728,-41.0847460230468
5.62,4.15,-7.62,-0.2986981800649458,0.0221450673608036,-0.5268677453381052,-125.77163105081792,-29.85540431723644,-41.37858245579029
5.62,4.15,-7.62,-0.2986981800649458,0.0221450673608036,-0.5268677453381052,-125.77163105081792,-29.85540431723644,-41.37858245579029
5.15,3.75,-7.0,-0.2991742921844761,-0.0236217158007849,0.3464736402570931,-125.77163105081792,-29.9147053648035,-41.35408524581363
5.15,3.75,-7.0,-0.2991742921844761,-0.0236217158007849,0.3464736402570931,-125.77163105081792,-29.9147053648035,-41.35408524581363
5.35,4.03,-7.16,-0.2156851958425996,0.0964364892182447,0.0049572941536464,-125.64605206137207,-29.86726387171145,-41.53786260419432
5.35,4.03,-7.16,-0.2156851958425996,0.0964364892182447,0.0049572941536464,-125.64605206137207,-29.86726387171145,-41.53786260419432
5.45,4.05,-7.3,-0.262581770156359,0.054188520548565,-0.1594482544936983,-125.5457815403515,-29.89098396291072,-41.64818266123672
5.45,4.05,-7.3,-0.262581770156359,0.054188520548565,-0.1594482544936983,-125.5457815403515,-29.89098396291072,-41.64818266123672
5.31,3.92,-7.27,-0.3662956218902305,0.0339869130284749,-0.0055909472620925,-125.62096841990898,-29.85540431723644,-41.611404826079344
5.31,3.92,-7.27,-0.3662956218902305,0.0339869130284749,-0.0055909472620925,-125.62096841990898,-29.85540431723644,-41.611404826079344
