,TIME,ELAPSED_SECONDS,PSTATE,acc_x,acc_y,acc_z,mag_x,mag_y,mag_z,gyr_x,gyr_y,gyr_z,lin_x,lin_y,lin_z,eul_x,eul_y,eul_z,qua_w,qua_x,qua_y,qua_z
0,726231.0,690.388362,1.0,6.42,6.62,-1.34,-14.25,-39.5,5.38,-4.94,5.75,-3.44,-0.192595039054117,0.09362167791641872,0.4905058334278696,-85.81237907644234,-36.46817032738551,-76.57386047071425,-0.2341,-0.6808,-0.3129,-0.6196
1,726231.0,690.388362,1.0,6.42,6.62,-1.34,-14.25,-39.5,5.38,-4.94,5.75,-3.44,-0.192595039054117,0.09362167791641872,0.4905058334278696,-85.81237907644234,-36.46817032738551,-76.57386047071425,-0.2341,-0.6808,-0.3129,-0.6196
2,726265.0,690.407009,1.0,6.21,6.7,-1.42,-14.25,-39.5,5.38,-5.63,8.88,-6.88,-0.3050284884354365,0.2767802716324681,0.5708040559363017,-85.5310977047494,-36.57677217345314,-76.71992580426844,-0.2354,-0.679,-0.3138,-0.6206
3,726265.0,690.407009,1.0,6.21,6.7,-1.42,-14.25,-39.5,5.38,-5.63,8.88,-6.88,-0.3050284884354365,0.2767802716324681,0.5708040559363017,-85.5310977047494,-36.57677217345314,-76.71992580426844,-0.2354,-0.679,-0.3138,-0.6206
4,726300.0,690.455333,1.0,5.73,6.21,-1.29,-13.19,-38.5,5.38,-6.81,13.56,-12.25,-0.3300474591797793,0.2199479727724234,1.268278283802449,-84.89277022411406,-36.86654380200172,-77.07108573183801,-0.2376,-0.6749,-0.3162,-0.623
5,726300.0,690.455333,1.0,5.73,6.21,-1.29,-13.19,-38.5,5.38,-6.81,13.56,-12.25,-0.3300474591797793,0.2199479727724234,1.268278283802449,-84.89277022411406,-36.86654380200172,-77.07108573183801,-0.2376,-0.6749,-0.3162,-0.623
6,726337.0,690.474758,1.0,5.02,5.95,-1.23,-12.75,-39.56,4.88,-12.5,24.19,-15.38,-0.4104883829800825,0.5073142056119524,1.9523561689657465,-84.11869444886841,-37.084032798280944,-77.5847366999739,-0.24,-0.6699,-0.318,-0.6265
7,726337.0,690.474758,1.0,5.02,5.95,-1.23,-12.75,-39.56,4.88,-12.5,24.19,-15.38,-0.4104883829800825,0.5073142056119524,1.9523561689657465,-84.11869444886841,-37.084032798280944,-77.5847366999739,-0.24,-0.6699,-0.318,-0.6265
8,726370.0,690.512243,1.0,4.56,5.22,-1.11,-12.75,-39.56,4.88,-23.31,43.5,-30.25,-0.5700315980885395,0.24379612314698296,2.814531048815093,-82.34069929138175,-37.62836370499113,-78.73617218118244,-0.2455,-0.6583,-0.3225,-0.6343
9,726370.0,690.512243,1.0,4.56,5.22,-1.11,-12.75,-39.56,4.88,-23.31,43.5,-30.25,-0.5700315980885395,0.24379612314698296,2.814531048815093,-82.34069929138175,-37.62836370499113,-78.73617218118244,-0.2455,-0.6583,-0.3225,-0.6343
10,726405.0,690.578366,1.0,5.21,3.87,-1.37,-11.69,-39.88,4.88,-25.81,56.81,-31.19,-1.1938958404977904,-1.1886279198821341,3.3910692476348037,-80.37634433071155,-38.17357699786608,-80.09163739911392,-0.2506,-0.6453,-0.327,-0.6434
11,726405.0,690.578366,1.0,5.21,3.87,-1.37,-11.69,-39.88,4.88,-25.81,56.81,-31.19,-1.1938958404977904,-1.1886279198821341,3.3910692476348037,-80.37634433071155,-38.17357699786608,-80.09163739911392,-0.2506,-0.6453,-0.327,-0.6434
12,726441.0,690.5854509999999,1.0,4.65,4.76,0.12,-11.25,-40.69,1.69,-62.19,38.56,9.56,0.10838310417570833,-0.3240908975292758,3.1600179060092453,-78.36609695169302,-37.301660334972226,-82.14295016552349,-0.259,-0.6318,-0.3198,-0.657
13,726441.0,690.5854509999999,1.0,4.65,4.76,0.12,-11.25,-40.69,1.69,-62.19,38.56,9.56,0.10838310417570833,-0.3240908975292758,3.1600179060092453,-78.36609695169302,-37.301660334972226,-82.14295016552349,-0.259,-0.6318,-0.3198,-0.657
14,726476.0,690.6021509999999,1.0,6.23,6.88,-1.16,-11.25,-40.69,1.69,-67.06,57.69,3.13,-1.5361800071571092,0.09864134171265172,0.5804199534795913,-76.53006953196333,-36.10640826375515,-84.33495776110861,-0.2643,-0.6193,-0.3099,-0.6713
15,726476.0,690.6021509999999,1.0,6.23,6.88,-1.16,-11.25,-40.69,1.69,-67.06,57.69,3.13,-1.5361800071571092,0.09864134171265172,0.5804199534795913,-76.53006953196333,-36.10640826375515,-84.33495776110861,-0.2643,-0.6193,-0.3099,-0.6713
16,726511.0,690.642027,1.0,6.18,4.25,-0.29,-10.88,-41.38,0.88,-14.0,0.69,9.5,-0.9310149246160669,-1.694131308331377,2.5539173894404765,-75.3381653872281,-35.383995029265094,-85.54670767677331,-0.2701,-0.6111,-0.3039,-0.6791
17,726511.0,690.642027,1.0,6.18,4.25,-0.29,-10.88,-41.38,0.88,-14.0,0.69,9.5,-0.9310149246160669,-1.694131308331377,2.5539173894404765,-75.3381653872281,-35.383995029265094,-85.54670767677331,-0.2701,-0.6111,-0.3039,-0.6791
18,726546.0,690.7034620000001,1.0,6.13,5.34,0.8,-11.69,-41.0,-0.37,-62.5,-15.5,82.06,0.06640448706386776,-0.6197254234999945,1.6614654813064202,-76.12198798415724,-32.21017938044361,-86.81774250688417,-0.2662,-0.6165,-0.2774,-0.6872
19,726546.0,690.7034620000001,1.0,6.13,5.34,0.8,-11.69,-41.0,-0.37,-62.5,-15.5,82.06,0.06640448706386776,-0.6197254234999945,1.6614654813064202,-76.12198798415724,-32.21017938044361,-86.81774250688417,-0.2662,-0.6165,-0.2774,-0.6872
20,726583.0,690.757375,1.0,6.35,8.86,1.38,-12.38,-41.38,-1.56,-68.56,-45.94,69.62,0.3417091111025892,2.225988793272464,-0.947637925084342,-77.30566907284118,-28.517345406099267,-87.5137931126768,-0.2662,-0.6246,-0.2463,-0.6916
21,726583.0,690.757375,1.0,6.35,8.86,1.38,-12.38,-41.38,-1.56,-68.56,-45.94,69.62,0.3417091111025892,2.225988793272464,-0.947637925084342,-77.30566907284118,-28.517345406099267,-87.5137931126768,-0.2662,-0.6246,-0.2463,-0.6916
22,726618.0,690.772787,1.0,7.73,6.14,1.02,-12.38,-41.38,-1.56,-7.56,-30.62,26.44,0.12882999316496702,-0.4535127856632011,-0.10650434087965444,-78.57321863854627,-26.78257750270593,-87.14944663280797,-0.2648,-0.6332,-0.2316,-0.6893
23,726618.0,690.772787,1.0,7.73,6.14,1.02,-12.38,-41.38,-1.56,-7.56,-30.62,26.44,0.12882999316496702,-0.4535127856632011,-0.10650434087965444,-78.57321863854627,-26.78257750270593,-87.14944663280797,-0.2648,-0.6332,-0.2316,-0.6893
24,726654.0,690.8162179999999,1.0,8.34,9.07,1.6,-14.69,-40.25,-4.25,-24.81,-54.06,103.56,0.6145884476247668,1.9068564043663527,-2.455759212433467,-80.40634821732151,-24.690270937756786,-86.91242223942659,-0.2541,-0.6455,-0.2138,-0.6878
25,726654.0,690.8162179999999,1.0,8.34,9.07,1.6,-14.69,-40.25,-4.25,-24.81,-54.06,103.56,0.6145884476247668,1.9068564043663527,-2.455759212433467,-80.40634821732151,-24.690270937756786,-86.91242223942659,-0.2541,-0.6455,-0.2138,-0.6878
26,726689.0,690.8699389999999,1.0,8.45,10.94,1.77,-17.69,-40.25,-4.25,-32.44,-51.13,67.87,0.6699316139497085,4.06065446739535,-3.5080515336076115,-82.59974558341173,-21.298944377524897,-86.4554864472463,-0.2473,-0.66,-0.1848,-0.6849
27,726689.0,690.8699389999999,1.0,8.45,10.94,1.77,-17.69,-40.25,-4.25,-32.44,-51.13,67.87,0.6699316139497085,4.06065446739535,-3.5080515336076115,-82.59974558341173,-21.298944377524897,-86.4554864472463,-0.2473,-0.66,-0.1848,-0.6849
28,726724.0,690.876171,1.0,9.15,7.03,1.12,-17.69,-40.25,-4.25,33.88,16.19,-2.81,0.4479688764571016,0.4523038714865324,-1.76886489539727,-82.73709614997145,-21.672178876755066,-86.4083150637589,-0.2432,-0.6609,-0.188,-0.6846
29,726724.0,690.876171,1.0,9.15,7.03,1.12,-17.69,-40.25,-4.25,33.88,16.19,-2.81,0.4479688764571016,0.4523038714865324,-1.76886489539727,-82.73709614997145,-21.672178876755066,-86.4083150637589,-0.2432,-0.6609,-0.188,-0.6846
30,726759.0,690.894517,1.0,9.28,7.86,1.41,-19.87,-37.69,-4.69,12.5,19.5,17.5,0.6297502704459791,1.1451942852783752,-2.366190451013848,-82.38637607932448,-21.975603150496873,-87.0703867564452,-0.2354,-0.6586,-0.1906,-0.6888
31,726759.0,690.894517,1.0,9.28,7.86,1.41,-19.87,-37.69,-4.69,12.5,19.5,17.5,0.6297502704459791,1.1451942852783752,-2.366190451013848,-82.38637607932448,-21.975603150496873,-87.0703867564452,-0.2354,-0.6586,-0.1906,-0.6888
32,726794.0,690.936059,1.0,9.43,8.82,0.89,-19.87,-38.06,-3.5,15.94,38.44,-15.75,-0.06971655136915877,1.8031835603493909,-3.0094753368617986,-81.67258932855316,-22.337582426465424,-87.79970924377666,-0.2327,-0.6539,-0.1937,-0.6934
33,726794.0,690.936059,1.0,9.43,8.82,0.89,-19.87,-38.06,-3.5,15.94,38.44,-15.75,-0.06971655136915877,1.8031835603493909,-3.0094753368617986,-81.67258932855316,-22.337582426465424,-87.79970924377666,-0.2327,-0.6539,-0.1937,-0.6934
34,726831.0,690.98999,1.0,9.06,6.81,0.99,-19.87,-38.06,-3.5,41.31,46.19,-45.25,0.07978863138610902,0.02310206140814497,-1.5702080930351876,-80.06170285521922,-24.842788298368426,-88.46953482425532,-0.231,-0.6432,-0.2151,-0.6976
35,726831.0,690.98999,1.0,9.06,6.81,0.99,-19.87,-38.06,-3.5,41.31,46.19,-45.25,0.07978863138610902,0.02310206140814497,-1.5702080930351876,-80.06170285521922,-24.842788298368426,-88.46953482425532,-0.231,-0.6432,-0.2151,-0.6976
36,726863.0,690.99963,1.0,8.54,5.43,1.02,-19.37,-38.75,-3.5,42.69,36.06,-35.63,0.15564163625185995,-1.0037482669505828,-0.3138818584380001,-79.06265131180031,-26.817917077101303,-88.72571015189867,-0.2284,-0.6365,-0.2319,-0.6992
37,726863.0,690.99963,1.0,8.54,5.43,1.02,-19.37,-38.75,-3.5,42.69,36.06,-35.63,0.15564163625185995,-1.0037482669505828,-0.3138818584380001,-79.06265131180031,-26.817917077101303,-88.72571015189867,-0.2284,-0.6365,-0.2319,-0.6992
38,726900.0,691.058985,1.0,8.03,5.44,1.56,-16.75,-39.19,-3.5,38.56,32.19,-22.06,0.6935464207063178,-0.9224997508577476,0.050826735303528985,-78.07073688001653,-28.81302746748213,-88.99851159744894,-0.2241,-0.6298,-0.2488,-0.7009
39,726900.0,691.058985,1.0,8.03,5.44,1.56,-16.75,-39.19,-3.5,38.56,32.19,-22.06,0.6935464207063178,-0.9224997508577476,0.050826735303528985,-78.07073688001653,-28.81302746748213,-88.99851159744894,-0.2241,-0.6298,-0.2488,-0.7009
40,726935.0,691.07969,1.0,8.03,4.19,1.55,-14.88,-39.5,-1.06,35.25,33.38,-28.0,0.6138204817605293,-2.0439812561176383,0.8688166472902381,-77.21765539082577,-30.377536447956228,-89.25585014264172,-0.22,-0.624,-0.262,-0.7025
41,726935.0,691.07969,1.0,8.03,4.19,1.55,-14.88,-39.5,-1.06,35.25,33.38,-28.0,0.6138204817605293,-2.0439812561176383,0.8688166472902381,-77.21765539082577,-30.377536447956228,-89.25585014264172,-0.22,-0.624,-0.262,-0.7025
42,726970.0,691.1208059999999,1.0,7.6,4.12,1.81,-14.88,-39.5,-1.06,14.19,21.5,-16.62,0.8394735728817266,-1.9810271916376148,1.2403605240118356,-76.34046104575957,-31.56662645811723,-89.57832790416415,-0.2183,-0.618,-0.272,-0.7045
43,726970.0,691.1208059999999,1.0,7.6,4.12,1.81,-14.88,-39.5,-1.06,14.19,21.5,-16.62,0.8394735728817266,-1.9810271916376148,1.2403605240118356,-76.34046104575957,-31.56662645811723,-89.57832790416415,-0.2183,-0.618,-0.272,-0.7045
44,727005.0,691.137225,1.0,7.8,5.14,2.01,-14.19,-40.25,-1.88,1.31,19.87,8.63,0.9844692376360868,-1.3432404772489297,0.3978123810149494,-76.00560231797398,-31.6738137680446,-90.0151077513171,-0.2155,-0.6157,-0.2729,-0.7072
45,727005.0,691.137225,1.0,7.8,5.14,2.01,-14.19,-40.25,-1.88,1.31,19.87,8.63,0.9844692376360868,-1.3432404772489297,0.3978123810149494,-76.00560231797398,-31.6738137680446,-90.0151077513171,-0.2155,-0.6157,-0.2729,-0.7072
46,727042.0,691.184694,1.0,7.77,4.88,1.7,-13.38,-40.56,-1.0,-1.5,11.13,2.38,0.5789678704153525,-1.453372362901665,0.6072040938717223,-75.45402498067408,-31.614261757826505,-90.6652693687788,-0.2135,-0.6119,-0.2724,-0.7112
47,727042.0,691.184694,1.0,7.77,4.88,1.7,-13.38,-40.56,-1.0,-1.5,11.13,2.38,0.5789678704153525,-1.453372362901665,0.6072040938717223,-75.45402498067408,-31.614261757826505,-90.6652693687788,-0.2135,-0.6119,-0.2724,-0.7112
48,727076.0,691.202053,1.0,7.35,5.7,3.0,-13.38,-40.56,-1.0,-16.12,11.81,7.88,1.9014357307278889,-0.6910949480804001,0.2452991574333989,-75.23686238255408,-31.376141122007805,-91.0081013523764,-0.2133,-0.6104,-0.2704,-0.7133
49,727076.0,691.202053,1.0,7.35,5.7,3.0,-13.38,-40.56,-1.0,-16.12,11.81,7.88,1.9014357307278889,-0.6910949480804001,0.2452991574333989,-75.23686238255408,-31.376141122007805,-91.0081013523764,-0.2133,-0.6104,-0.2704,-0.7133
50,727111.0,691.240715,1.0,9.05,6.56,1.34,-14.19,-40.19,-0.75,-37.81,57.31,13.75,-0.4008204484285064,-0.7692297559381469,-1.4174013430178558,-73.45358416852795,-30.603201736078947,-93.17087251757091,-0.2125,-0.598,-0.2639,-0.7264
51,727111.0,691.240715,1.0,9.05,6.56,1.34,-14.19,-40.19,-0.75,-37.81,57.31,13.75,-0.4008204484285064,-0.7692297559381469,-1.4174013430178558,-73.45358416852795,-30.603201736078947,-93.17087251757091,-0.2125,-0.598,-0.2639,-0.7264
52,727146.0,691.305717,1.0,10.42,7.66,-0.3,-14.56,-40.25,-3.19,-44.69,48.63,17.75,-2.691288393533221,-0.4046922307364729,-2.839898579798957,-71.9737624996918,-29.487919662093987,-95.07171534119541,-0.2141,-0.5876,-0.2545,-0.7377
53,727146.0,691.305717,1.0,10.42,7.66,-0.3,-14.56,-40.25,-3.19,-44.69,48.63,17.75,-2.691288393533221,-0.4046922307364729,-2.839898579798957,-71.9737624996918,-29.487919662093987,-95.07171534119541,-0.2141,-0.5876,-0.2545,-0.7377
54,727183.0,691.3601179999999,1.0,9.62,7.78,0.21,-15.0,-39.75,-4.38,-27.37,-7.06,-0.81,-2.245511829429492,0.2148816808035625,-2.3600423396273658,-71.43652135500591,-28.28093937794029,-95.92384977618164,-0.2187,-0.5838,-0.2443,-0.7427
55,727183.0,691.3601179999999,1.0,9.62,7.78,0.21,-15.0,-39.75,-4.38,-27.37,-7.06,-0.81,-2.245511829429492,0.2148816808035625,-2.3600423396273658,-71.43652135500591,-28.28093937794029,-95.92384977618164,-0.2187,-0.5838,-0.2443,-0.7427
56,727218.0,691.3751639999999,1.0,7.88,6.16,1.93,-15.0,-39.75,-4.38,-30.56,-16.87,-14.81,-0.1645844891910483,-0.21738611367357266,-0.3762059463197538,-71.52122812984334,-27.548855827733,-95.65040635419015,-0.22899999999999998,-0.5844,-0.2381,-0.7411
57,727218.0,691.3751639999999,1.0,7.88,6.16,1.93,-15.0,-39.75,-4.38,-30.56,-16.87,-14.81,-0.1645844891910483,-0.21738611367357266,-0.3762059463197538,-71.52122812984334,-27.548855827733,-95.65040635419015,-0.22899999999999998,-0.5844,-0.2381,-0.7411
58,727255.0,691.431208,1.0,6.49,4.47,3.44,-15.38,-39.06,-5.56,-45.5,-4.19,-11.19,1.6421715108639483,-0.8049693934442959,1.4048706048644242,-71.2954433395492,-26.912168656137837,-95.68454734856134,-0.2382,-0.5828,-0.2327,-0.7413
59,727255.0,691.431208,1.0,6.49,4.47,3.44,-15.38,-39.06,-5.56,-45.5,-4.19,-11.19,1.6421715108639483,-0.8049693934442959,1.4048706048644242,-71.2954433395492,-26.912168656137837,-95.68454734856134,-0.2382,-0.5828,-0.2327,-0.7413
60,727289.0,691.473205,1.0,5.83,5.64,3.76,-14.25,-39.06,-6.38,-68.12,13.81,7.5,1.6920188577850601,0.6468126591613981,1.0513769849051382,-70.21327111376787,-24.97187636961762,-96.92121959185582,-0.2493,-0.5751,-0.2162,-0.7485
61,727289.0,691.473205,1.0,5.83,5.64,3.76,-14.25,-39.06,-6.38,-68.12,13.81,7.5,1.6920188577850601,0.6468126591613981,1.0513769849051382,-70.21327111376787,-24.97187636961762,-96.92121959185582,-0.2493,-0.5751,-0.2162,-0.7485
62,727324.0,691.49288,1.0,6.02,5.38,3.92,-14.25,-39.06,-6.38,-64.37,47.25,-2.75,1.5248992131153822,0.3806837993786929,0.9703067385184349,-68.62413121482328,-23.858067126010045,-98.50614716044564,-0.256,-0.5637,-0.2067,-0.7576
63,727324.0,691.49288,1.0,6.02,5.38,3.92,-14.25,-39.06,-6.38,-64.37,47.25,-2.75,1.5248992131153822,0.3806837993786929,0.9703067385184349,-68.62413121482328,-23.858067126010045,-98.50614716044564,-0.256,-0.5637,-0.2067,-0.7576
64,727357.0,691.53548,1.0,6.62,6.2,3.55,-14.69,-39.06,-8.38,-93.19,50.19,7.25,0.2702468505196645,0.7838634619384117,0.10204157344192133,-65.80348711235835,-21.625511921173292,-101.30231586461944,-0.268,-0.5432,-0.1876,-0.7733
65,727357.0,691.53548,1.0,6.62,6.2,3.55,-14.69,-39.06,-8.38,-93.19,50.19,7.25,0.2702468505196645,0.7838634619384117,0.10204157344192133,-65.80348711235835,-21.625511921173292,-101.30231586461944,-0.268,-0.5432,-0.1876,-0.7733
66,727394.0,691.550874,1.0,7.2,5.47,4.68,-14.25,-38.25,-11.69,-68.37,64.81,6.56,0.8506079370266799,-0.04992536559580429,-0.3391507863025485,-63.57899519003461,-20.122400879873982,-103.47835920176271,-0.2747,-0.5268,-0.1747,-0.7852
67,727394.0,691.550874,1.0,7.2,5.47,4.68,-14.25,-38.25,-11.69,-68.37,64.81,6.56,0.8506079370266799,-0.04992536559580429,-0.3391507863025485,-63.57899519003461,-20.122400879873982,-103.47835920176271,-0.2747,-0.5268,-0.1747,-0.7852
68,727431.0,691.596688,1.0,15.9,10.56,-5.45,-14.25,-38.25,-11.69,-143.81,3.25,-95.56,-13.038878870733859,-2.047494711619501,-5.0197286273054695,-61.16786271295341,-18.402183827223173,-104.98995994505607,-0.2938,-0.5088,-0.1599,-0.7933
69,727431.0,691.596688,1.0,15.9,10.56,-5.45,-14.25,-38.25,-11.69,-143.81,3.25,-95.56,-13.038878870733859,-2.047494711619501,-5.0197286273054695,-61.16786271295341,-18.402183827223173,-104.98995994505607,-0.2938,-0.5088,-0.1599,-0.7933
70,727463.0,691.654964,1.0,7.33,2.87,5.17,-13.88,-37.19,-14.56,-24.5,-14.94,16.19,1.4268885253054076,-2.2485863141529854,0.7732370943393931,-60.38409728444597,-18.599556301853195,-105.19724163612636,-0.3,-0.5029,-0.1616,-0.7944
71,727463.0,691.654964,1.0,7.33,2.87,5.17,-13.88,-37.19,-14.56,-24.5,-14.94,16.19,1.4268885253054076,-2.2485863141529854,0.7732370943393931,-60.38409728444597,-18.599556301853195,-105.19724163612636,-0.3,-0.5029,-0.1616,-0.7944
72,727500.0,691.6620519999999,1.0,6.19,4.11,6.03,-11.69,-37.19,-17.37,-100.0,14.25,28.69,1.8182104431733117,-0.16835219264651102,0.4133082983707741,-59.286754689259176,-15.644464720667994,-106.71980105429785,-0.3051,-0.4946,-0.1361,-0.8024
73,727500.0,691.6620519999999,1.0,6.19,4.11,6.03,-11.69,-37.19,-17.37,-100.0,14.25,28.69,1.8182104431733117,-0.16835219264651102,0.4133082983707741,-59.286754689259176,-15.644464720667994,-106.71980105429785,-0.3051,-0.4946,-0.1361,-0.8024
74,727535.0,691.679126,1.0,6.36,2.91,5.41,-12.0,-35.0,-19.75,-39.44,12.5,40.06,1.3978088476653434,-1.0790864143538659,1.1424995548758259,-58.14290959834098,-13.772662665221276,-107.87980072820757,-0.3098,-0.4859,-0.1199,-0.8084
75,727535.0,691.679126,1.0,6.36,2.91,5.41,-12.0,-35.0,-19.75,-39.44,12.5,40.06,1.3978088476653434,-1.0790864143538659,1.1424995548758259,-58.14290959834098,-13.772662665221276,-107.87980072820757,-0.3098,-0.4859,-0.1199,-0.8084
76,727570.0,691.717454,1.0,6.93,4.47,5.34,-12.0,-35.0,-19.75,-96.81,11.81,34.06,0.11902066292066132,0.12624784092253005,-0.016348298099229552,-56.71870005631496,-10.6148933492606,-109.47189924933485,-0.3148,-0.475,-0.0925,-0.8165
77,727570.0,691.717454,1.0,6.93,4.47,5.34,-12.0,-35.0,-19.75,-96.81,11.81,34.06,0.11902066292066132,0.12624784092253005,-0.016348298099229552,-56.71870005631496,-10.6148933492606,-109.47189924933485,-0.3148,-0.475,-0.0925,-0.8165
78,727607.0,691.769493,1.0,6.65,3.82,7.5,-13.19,-34.69,-20.56,-63.06,2.88,74.06,1.990568558380984,0.4856859698415981,-0.7226731479086119,-55.95178287128961,-8.1313637329408,-110.63139954579823,-0.3141,-0.4691,-0.0709,-0.8223
79,727607.0,691.769493,1.0,6.65,3.82,7.5,-13.19,-34.69,-20.56,-63.06,2.88,74.06,1.990568558380984,0.4856859698415981,-0.7226731479086119,-55.95178287128961,-8.1313637329408,-110.63139954579823,-0.3141,-0.4691,-0.0709,-0.8223
80,727644.0,691.776041,1.0,6.95,5.96,5.33,-13.5,-31.56,-23.0,-50.06,19.0,30.37,-1.3839727800684165,1.9998858986718704,-0.5044156935315414,-54.219965017577714,-4.974836229757033,-112.56817591001142,-0.3138,-0.4557,-0.0434,-0.8318
81,727644.0,691.776041,1.0,6.95,5.96,5.33,-13.5,-31.56,-23.0,-50.06,19.0,30.37,-1.3839727800684165,1.9998858986718704,-0.5044156935315414,-54.219965017577714,-4.974836229757033,-112.56817591001142,-0.3138,-0.4557,-0.0434,-0.8318
82,727676.0,691.8312530000001,1.0,7.1,2.06,6.82,-13.5,-31.56,-23.0,-30.75,12.75,12.94,1.447557990969274,-0.8062657817612836,-0.11406123216182705,-53.461705766242936,-4.149120969117045,-113.1484208155573,-0.316,-0.4498,-0.0362,-0.8346
83,727676.0,691.8312530000001,1.0,7.1,2.06,6.82,-13.5,-31.56,-23.0,-30.75,12.75,12.94,1.447557990969274,-0.8062657817612836,-0.11406123216182705,-53.461705766242936,-4.149120969117045,-113.1484208155573,-0.316,-0.4498,-0.0362,-0.8346
84,727711.0,691.847396,1.0,7.48,3.08,5.23,-14.69,-29.69,-25.87,-57.38,5.5,29.37,-0.7501911985100687,-0.3378989893075244,0.20911190741068172,-52.19500183844674,-2.1086036789736795,-114.38591221182236,-0.3159,-0.4399,-0.0184,-0.8405
85,727711.0,691.847396,1.0,7.48,3.08,5.23,-14.69,-29.69,-25.87,-57.38,5.5,29.37,-0.7501911985100687,-0.3378989893075244,0.20911190741068172,-52.19500183844674,-2.1086036789736795,-114.38591221182236,-0.3159,-0.4399,-0.0184,-0.8405
86,727746.0,691.885383,1.0,7.27,3.19,5.93,-15.0,-28.19,-27.56,-33.63,-11.94,11.56,-0.30169316642845123,0.21665067564317608,-0.09567011793568092,-52.00367866289412,-0.6760941207657828,-114.42822374638149,-0.3178,-0.4384,-0.0059,-0.8407
87,727746.0,691.885383,1.0,7.27,3.19,5.93,-15.0,-28.19,-27.56,-33.63,-11.94,11.56,-0.30169316642845123,0.21665067564317608,-0.09567011793568092,-52.00367866289412,-0.6760941207657828,-114.42822374638149,-0.3178,-0.4384,-0.0059,-0.8407
88,727783.0,691.940861,1.0,7.36,2.94,5.87,-16.5,-27.5,-28.0,-42.38,-17.69,24.19,-0.3495594315773382,0.206493485306156,-0.04755055835689959,-52.00367866289412,1.1344749665222489,-114.38591221182236,-0.3182,-0.4384,0.0099,-0.8405
89,727783.0,691.940861,1.0,7.36,2.94,5.87,-16.5,-27.5,-28.0,-42.38,-17.69,24.19,-0.3495594315773382,0.206493485306156,-0.04755055835689959,-52.00367866289412,1.1344749665222489,-114.38591221182236,-0.3182,-0.4384,0.0099,-0.8405
90,727818.0,691.960719,1.0,7.07,3.17,6.36,-16.5,-27.5,-28.0,-19.44,-13.44,14.38,-0.04056920990620533,0.8863629716694503,-0.17814418023530898,-52.19500183844674,2.337829975144579,-114.30136176070127,-0.3167,-0.4399,0.0204,-0.8401
91,727818.0,691.960719,1.0,7.07,3.17,6.36,-16.5,-27.5,-28.0,-19.44,-13.44,14.38,-0.04056920990620533,0.8863629716694503,-0.17814418023530898,-52.19500183844674,2.337829975144579,-114.30136176070127,-0.3167,-0.4399,0.0204,-0.8401
92,727855.0,692.004333,1.0,7.61,2.3,5.36,-15.75,-25.56,-29.56,-25.31,-12.38,19.62,-0.561431901407025,-0.27565151551470096,0.2389694836952767,-52.15672470466425,3.243374149708243,-114.30136176070127,-0.3165,-0.4396,0.0283,-0.8401
93,727855.0,692.004333,1.0,7.61,2.3,5.36,-15.75,-25.56,-29.56,-25.31,-12.38,19.62,-0.561431901407025,-0.27565151551470096,0.2389694836952767,-52.15672470466425,3.243374149708243,-114.30136176070127,-0.3165,-0.4396,0.0283,-0.8401
94,727891.0,692.063753,1.0,7.01,2.24,6.21,-16.5,-24.87,-31.19,-14.0,-18.56,14.38,0.3299565866913025,0.4445211964627722,0.19336078367064505,-52.527000178757774,4.424333322525307,-113.88004967231205,-0.3167,-0.4425,0.0386,-0.8381
95,727891.0,692.063753,1.0,7.01,2.24,6.21,-16.5,-24.87,-31.19,-14.0,-18.56,14.38,0.3299565866913025,0.4445211964627722,0.19336078367064505,-52.527000178757774,4.424333322525307,-113.88004967231205,-0.3167,-0.4425,0.0386,-0.8381
96,727926.0,692.080112,1.0,7.03,1.9,6.22,-16.5,-24.87,-31.19,-16.19,-2.75,13.38,0.4880437144716355,0.2632026295020509,0.2456961925293264,-52.539778806860255,5.020716482682318,-113.9220736351645,-0.3154,-0.4426,0.0438,-0.8383
97,727926.0,692.080112,1.0,7.03,1.9,6.22,-16.5,-24.87,-31.19,-16.19,-2.75,13.38,0.4880437144716355,0.2632026295020509,0.2456961925293264,-52.539778806860255,5.020716482682318,-113.9220736351645,-0.3154,-0.4426,0.0438,-0.8383
98,727959.0,692.119808,1.0,7.47,2.55,5.72,-17.25,-24.19,-29.19,-13.19,-1.06,8.69,-0.485948542441273,0.4763481322546184,0.08251782941548312,-52.348173087212714,5.663127955663872,-114.09040704091221,-0.3146,-0.4411,0.0494,-0.8391
99,727959.0,692.119808,1.0,7.47,2.55,5.72,-17.25,-24.19,-29.19,-13.19,-1.06,8.69,-0.485948542441273,0.4763481322546184,0.08251782941548312,-52.348173087212714,5.663127955663872,-114.09040704091221,-0.3146,-0.4411,0.0494,-0.8391
100,727996.0,692.178173,1.0,7.68,2.25,5.82,-17.69,-23.69,-29.56,0.75,0.63,1.12,-0.3378834946397657,0.1811282463031314,-0.0812379090754849,-52.322637565756146,5.720494487173099,-114.11147553645674,-0.3143,-0.4409,0.0499,-0.8392
101,727996.0,692.178173,1.0,7.68,2.25,5.82,-17.69,-23.69,-29.56,0.75,0.63,1.12,-0.3378834946397657,0.1811282463031314,-0.0812379090754849,-52.322637565756146,5.720494487173099,-114.11147553645674,-0.3143,-0.4409,0.0499,-0.8392
102,728033.0,692.185101,1.0,7.64,2.19,6.02,-18.0,-23.06,-30.37,9.81,-1.37,-1.06,-0.1115067087825017,0.2005599298641392,-0.16096967414634733,-52.463117579437494,5.491036825631306,-114.04828796434656,-0.3141,-0.442,0.0479,-0.8389
103,728033.0,692.185101,1.0,7.64,2.19,6.02,-18.0,-23.06,-30.37,9.81,-1.37,-1.06,-0.1115067087825017,0.2005599298641392,-0.16096967414634733,-52.463117579437494,5.491036825631306,-114.04828796434656,-0.3141,-0.442,0.0479,-0.8389
104,728066.0,692.2609160000001,1.0,7.57,1.84,6.05,-18.0,-23.06,-30.37,11.0,2.56,-4.5,0.17048834580557362,-0.08394672913376723,-0.05524062353726401,-52.55255813835036,5.089538374458754,-114.04828796434656,-0.3136,-0.4427,0.0444,-0.8389
105,728066.0,692.2609160000001,1.0,7.57,1.84,6.05,-18.0,-23.06,-30.37,11.0,2.56,-4.5,0.17048834580557362,-0.08394672913376723,-0.05524062353726401,-52.55255813835036,5.089538374458754,-114.04828796434656,-0.3136,-0.4427,0.0444,-0.8389
106,728102.0,692.304466,1.0,7.52,1.93,5.95,-18.37,-23.37,-29.19,5.81,4.5,-7.88,0.08445606678640005,-0.08423591893474458,0.02587439257784752,-52.51422225376784,4.733977821845079,-114.02723737175656,-0.3146,-0.4424,0.0413,-0.8388
107,728102.0,692.304466,1.0,7.52,1.93,5.95,-18.37,-23.37,-29.19,5.81,4.5,-7.88,0.08445606678640005,-0.08423591893474458,0.02587439257784752,-52.51422225376784,4.733977821845079,-114.02723737175656,-0.3146,-0.4424,0.0413,-0.8388
108,728137.0,692.3085940000001,1.0,7.51,1.67,5.95,-17.69,-23.69,-30.0,11.69,6.81,-15.94,0.2503206157352963,-0.35934243703001945,0.09069854878909568,-52.437569453805544,4.401398006442045,-113.9220736351645,-0.3172,-0.4418,0.0384,-0.8383
109,728137.0,692.3085940000001,1.0,7.51,1.67,5.95,-17.69,-23.69,-30.0,11.69,6.81,-15.94,0.2503206157352963,-0.35934243703001945,0.09069854878909568,-52.437569453805544,4.401398006442045,-113.9220736351645,-0.3172,-0.4418,0.0384,-0.8383
110,728170.0,692.325692,1.0,7.49,2.05,5.79,-17.69,-23.69,-30.0,-1.63,1.5,-3.44,-0.05912869271209499,-0.1523010726789158,0.1216095674071127,-52.39925252360182,4.137654318321577,-113.88004967231205,-0.3185,-0.4415,0.0361,-0.8381
111,728170.0,692.325692,1.0,7.49,2.05,5.79,-17.69,-23.69,-30.0,-1.63,1.5,-3.44,-0.05912869271209499,-0.1523010726789158,0.1216095674071127,-52.39925252360182,4.137654318321577,-113.88004967231205,-0.3185,-0.4415,0.0361,-0.8381
112,728207.0,692.368321,1.0,7.3,2.16,6.06,-18.75,-24.87,-29.19,6.88,1.37,-8.81,0.16606186071485934,0.1010700829455986,0.0782684132842899,-52.437569453805544,4.011523869819651,-113.77509319472591,-0.3192,-0.4418,0.035,-0.8376
113,728207.0,692.368321,1.0,7.3,2.16,6.06,-18.75,-24.87,-29.19,6.88,1.37,-8.81,0.16606186071485934,0.1010700829455986,0.0782684132842899,-52.437569453805544,4.011523869819651,-113.77509319472591,-0.3192,-0.4418,0.035,-0.8376
114,728244.0,692.424954,1.0,7.36,2.69,5.93,-16.87,-25.19,-28.37,3.19,4.81,-18.69,-0.23615846823161396,0.35560976586325355,-0.011107935104391231,-52.33540497698414,3.621696182670093,-113.62840124543837,-0.3227,-0.441,0.0316,-0.8369
115,728244.0,692.424954,1.0,7.36,2.69,5.93,-16.87,-25.19,-28.37,3.19,4.81,-18.69,-0.23615846823161396,0.35560976586325355,-0.011107935104391231,-52.33540497698414,3.621696182670093,-113.62840124543837,-0.3227,-0.441,0.0316,-0.8369
116,728276.0,692.432411,1.0,7.49,2.26,5.95,-16.87,-25.19,-28.37,6.0,9.75,-20.31,-0.010509508731275027,-0.15569180995576515,-0.021160010909804683,-52.19500183844674,3.117274866889664,-113.46110408162376,-0.3265,-0.4399,0.0272,-0.8361
117,728276.0,692.432411,1.0,7.49,2.26,5.95,-16.87,-25.19,-28.37,6.0,9.75,-20.31,-0.010509508731275027,-0.15569180995576515,-0.021160010909804683,-52.19500183844674,3.117274866889664,-113.46110408162376,-0.3265,-0.4399,0.0272,-0.8361
118,728311.0,692.45033,1.0,7.51,1.9,5.86,-17.69,-24.87,-29.56,6.5,5.88,-11.88,0.13653306063487675,-0.5846026466978531,0.1118421902067812,-52.04193081398262,2.6129139620146145,-113.37759496408128,-0.3297,-0.4387,0.0228,-0.8357
119,728311.0,692.45033,1.0,7.51,1.9,5.86,-17.69,-24.87,-29.56,6.5,5.88,-11.88,0.13653306063487675,-0.5846026466978531,0.1118421902067812,-52.04193081398262,2.6129139620146145,-113.37759496408128,-0.3297,-0.4387,0.0228,-0.8357
120,728346.0,692.542676,1.0,7.02,2.64,6.2,-16.5,-25.19,-29.19,1.94,-0.5,-7.19,0.15939505121907796,0.34431153558595073,0.0831710555013121,-52.02917940457078,2.544141615361497,-113.2733386110762,-0.331,-0.4386,0.0222,-0.8352
121,728346.0,692.542676,1.0,7.02,2.64,6.2,-16.5,-25.19,-29.19,1.94,-0.5,-7.19,0.15939505121907796,0.34431153558595073,0.0831710555013121,-52.02917940457078,2.544141615361497,-113.2733386110762,-0.331,-0.4386,0.0222,-0.8352
122,728383.0,692.5505860000001,1.0,7.09,2.52,6.24,-15.38,-25.19,-29.56,1.31,5.06,-12.75,0.2427116603357264,0.15001380666813335,0.03553507345522888,-51.93993891277072,2.2346770389286066,-113.10682738081556,-0.3344,-0.4379,0.0195,-0.8344
123,728383.0,692.5505860000001,1.0,7.09,2.52,6.24,-15.38,-25.19,-29.56,1.31,5.06,-12.75,0.2427116603357264,0.15001380666813335,0.03553507345522888,-51.93993891277072,2.2346770389286066,-113.10682738081556,-0.3344,-0.4379,0.0195,-0.8344
124,728418.0,692.55548,1.0,7.37,2.17,5.78,-15.38,-25.19,-29.56,3.19,9.69,-9.88,-0.008068271782815689,-0.4981716022973319,0.2052980140734899,-51.697885027971715,1.9137679978932431,-113.12762124009942,-0.3366,-0.436,0.0167,-0.8345
125,728418.0,692.55548,1.0,7.37,2.17,5.78,-15.38,-25.19,-29.56,3.19,9.69,-9.88,-0.008068271782815689,-0.4981716022973319,0.2052980140734899,-51.697885027971715,1.9137679978932431,-113.12762124009942,-0.3366,-0.436,0.0167,-0.8345
126,728455.0,692.595174,1.0,7.14,2.46,6.16,-15.75,-25.19,-29.56,-1.63,0.63,-0.37,0.18004195376691126,-0.05182189440084595,0.06284687256846766,-51.59604173997076,1.8220825674649568,-113.12762124009942,-0.3375,-0.4352,0.0159,-0.8345
127,728455.0,692.595174,1.0,7.14,2.46,6.16,-15.75,-25.19,-29.56,-1.63,0.63,-0.37,0.18004195376691126,-0.05182189440084595,0.06284687256846766,-51.59604173997076,1.8220825674649568,-113.12762124009942,-0.3375,-0.4352,0.0159,-0.8345
128,728489.0,692.6583019999999,1.0,7.1,2.69,6.22,-15.0,-25.56,-29.19,1.88,2.56,-3.0,0.1031051122981467,0.15574957219168215,-0.00658654084523036,-51.55786178927636,1.7877008349543104,-113.12762124009942,-0.33799999999999997,-0.4349,0.0156,-0.8345
129,728489.0,692.6583019999999,1.0,7.1,2.69,6.22,-15.0,-25.56,-29.19,1.88,2.56,-3.0,0.1031051122981467,0.15574957219168215,-0.00658654084523036,-51.55786178927636,1.7877008349543104,-113.12762124009942,-0.33799999999999997,-0.4349,0.0156,-0.8345
130,728524.0,692.675902,1.0,7.26,2.58,5.99,-15.0,-25.56,-29.19,4.5,2.44,-3.44,-0.058768184319516685,-0.13074024063528045,0.048394352088818586,-51.48152030899618,1.5699534720315549,-113.1484208155573,-0.3386,-0.4343,0.0137,-0.8346
131,728524.0,692.675902,1.0,7.26,2.58,5.99,-15.0,-25.56,-29.19,4.5,2.44,-3.44,-0.058768184319516685,-0.13074024063528045,0.048394352088818586,-51.48152030899618,1.5699534720315549,-113.1484208155573,-0.3386,-0.4343,0.0137,-0.8346
132,728557.0,692.722863,1.0,7.07,2.61,6.06,-15.0,-25.19,-30.75,4.13,1.37,-0.88,0.05996722732358228,-0.0016712117110904146,0.136231129097947,-51.494242185161674,1.5126525087430307,-113.00294363849156,-0.3403,-0.4344,0.0132,-0.8339
133,728557.0,692.722863,1.0,7.07,2.61,6.06,-15.0,-25.19,-30.75,4.13,1.37,-0.88,0.05996722732358228,-0.0016712117110904146,0.136231129097947,-51.494242185161674,1.5126525087430307,-113.00294363849156,-0.3403,-0.4344,0.0132,-0.8339
134,728594.0,692.741708,1.0,7.08,2.64,6.17,-15.75,-26.0,-28.37,2.5,2.31,-2.25,0.12106528102416166,0.029698782333859693,0.052196597576140036,-51.46879911376182,1.3178319771025526,-113.10682738081556,-0.3393,-0.4342,0.0115,-0.8344
135,728594.0,692.741708,1.0,7.08,2.64,6.17,-15.75,-26.0,-28.37,2.5,2.31,-2.25,0.12106528102416166,0.029698782333859693,0.052196597576140036,-51.46879911376182,1.3178319771025526,-113.10682738081556,-0.3393,-0.4342,0.0115,-0.8344
136,728629.0,692.746174,1.0,7.14,2.59,6.14,-15.75,-26.0,-28.37,2.88,3.19,-6.06,0.10663864475646397,-0.07885590767579442,0.04090835149889216,-51.41792113681584,1.1917736982377245,-113.08603923231148,-0.3401,-0.4338,0.0104,-0.8343
137,728629.0,692.746174,1.0,7.14,2.59,6.14,-15.75,-26.0,-28.37,2.88,3.19,-6.06,0.10663864475646397,-0.07885590767579442,0.04090835149889216,-51.41792113681584,1.1917736982377245,-113.08603923231148,-0.3401,-0.4338,0.0104,-0.8343
138,728662.0,692.7874429999999,1.0,7.23,2.4,5.97,-15.38,-25.19,-29.19,3.06,3.5,-3.88,0.05938069715750509,-0.3631002410724087,0.13512312221393152,-51.34162455414572,1.0198783397289315,-113.08603923231148,-0.3409,-0.4332,0.0089,-0.8343
139,728662.0,692.7874429999999,1.0,7.23,2.4,5.97,-15.38,-25.19,-29.19,3.06,3.5,-3.88,0.05938069715750509,-0.3631002410724087,0.13512312221393152,-51.34162455414572,1.0198783397289315,-113.08603923231148,-0.3409,-0.4332,0.0089,-0.8343
140,728696.0,692.840398,1.0,7.05,2.81,6.06,-15.0,-26.0,-29.56,-0.75,0.88,0.31,-0.052043721565226735,0.0826313072851721,0.09517928140634524,-51.2907737294374,1.0542572154525014,-113.12762124009942,-0.3409,-0.4328,0.0092,-0.8345
141,728696.0,692.840398,1.0,7.05,2.81,6.06,-15.0,-26.0,-29.56,-0.75,0.88,0.31,-0.052043721565226735,0.0826313072851721,0.09517928140634524,-51.2907737294374,1.0542572154525014,-113.12762124009942,-0.3409,-0.4328,0.0092,-0.8345
142,728733.0,692.860558,1.0,6.93,2.9,6.24,-15.0,-26.69,-30.0,0.5,0.63,-3.69,0.07682330724682511,0.2569924817413427,0.04444978469033245,-51.278062716299324,0.9854995558041141,-113.06525678920107,-0.3418,-0.4327,0.0086,-0.8342
143,728733.0,692.860558,1.0,6.93,2.9,6.24,-15.0,-26.69,-30.0,0.5,0.63,-3.69,0.07682330724682511,0.2569924817413427,0.04444978469033245,-51.278062716299324,0.9854995558041141,-113.06525678920107,-0.3418,-0.4327,0.0086,-0.8342
144,728766.0,692.903339,1.0,7.19,2.55,6.0,-15.0,-26.69,-30.0,4.19,5.38,-4.56,0.0059630849472306615,-0.2724394762441682,0.10487999791266313,-51.18910455675295,0.7792286067117273,-113.06525678920107,-0.3426,-0.43200000000000005,0.0068,-0.8342
145,728766.0,692.903339,1.0,7.19,2.55,6.0,-15.0,-26.69,-30.0,4.19,5.38,-4.56,0.0059630849472306615,-0.2724394762441682,0.10487999791266313,-51.18910455675295,0.7792286067117273,-113.06525678920107,-0.3426,-0.43200000000000005,0.0068,-0.8342
146,728801.0,692.971355,1.0,7.03,2.97,6.14,-14.69,-26.37,-29.19,0.56,-0.56,0.12,-0.07195004676236262,0.17288602665369135,0.013472088180016328,-51.17639894970855,0.7104722177704716,-113.08603923231148,-0.3425,-0.4319,0.0062,-0.8343
147,728801.0,692.971355,1.0,7.03,2.97,6.14,-14.69,-26.37,-29.19,0.56,-0.56,0.12,-0.07195004676236262,0.17288602665369135,0.013472088180016328,-51.17639894970855,0.7104722177704716,-113.08603923231148,-0.3425,-0.4319,0.0062,-0.8343
148,728836.0,692.98916,1.0,6.96,2.72,6.3,-13.5,-26.69,-29.19,3.25,4.38,-4.81,0.22027341957548394,0.03775401530158029,0.03526042353969494,-51.138286174965344,0.5271230305187238,-113.08603923231148,-0.34299999999999997,-0.4316,0.0046,-0.8343
149,728836.0,692.98916,1.0,6.96,2.72,6.3,-13.5,-26.69,-29.19,3.25,4.38,-4.81,0.22027341957548394,0.03775401530158029,0.03526042353969494,-51.138286174965344,0.5271230305187238,-113.08603923231148,-0.34299999999999997,-0.4316,0.0046,-0.8343
150,728870.0,693.033205,1.0,7.17,2.59,6.01,-13.5,-26.69,-29.19,1.94,5.94,-4.13,-0.008856958039420298,-0.31038718810020205,0.10403791109540884,-50.973200800075034,0.34377519274259805,-113.16922611259191,-0.3438,-0.4303,0.003,-0.8347
151,728870.0,693.033205,1.0,7.17,2.59,6.01,-13.5,-26.69,-29.19,1.94,5.94,-4.13,-0.008856958039420298,-0.31038718810020205,0.10403791109540884,-50.973200800075034,0.34377519274259805,-113.16922611259191,-0.3438,-0.4303,0.003,-0.8347
152,728907.0,693.042037,1.0,6.99,2.96,6.08,-14.25,-26.69,-29.56,-0.75,-0.37,-0.25,-0.10624786711717896,0.09156898081173924,0.08202010922851778,-50.935120284944745,0.3323159869732291,-113.19003713661381,-0.3439,-0.43,0.0029,-0.8348
153,728907.0,693.042037,1.0,6.99,2.96,6.08,-14.25,-26.69,-29.56,-0.75,-0.37,-0.25,-0.10624786711717896,0.09156898081173924,0.08202010922851778,-50.935120284944745,0.3323159869732291,-113.19003713661381,-0.3439,-0.43,0.0029,-0.8348
154,728942.0,693.102665,1.0,6.94,2.82,6.3,-14.69,-26.69,-28.37,1.06,2.44,-3.38,0.15242336190107406,0.05528840264263368,0.019939096367462383,-50.88435563772038,0.19480574417599014,-113.21085389304196,-0.3441,-0.4296,0.0017,-0.8349
155,728942.0,693.102665,1.0,6.94,2.82,6.3,-14.69,-26.69,-28.37,1.06,2.44,-3.38,0.15242336190107406,0.05528840264263368,0.019939096367462383,-50.88435563772038,0.19480574417599014,-113.21085389304196,-0.3441,-0.4296,0.0017,-0.8349
156,728975.0,693.170466,1.0,7.04,2.7,6.17,-14.69,-26.69,-28.37,1.12,2.94,-3.81,0.08476058601648259,-0.15608107239372734,0.06555384289845101,-50.808228717792346,0.10313241704642767,-113.21085389304196,-0.3449,-0.429,0.0009,-0.8349
157,728975.0,693.170466,1.0,7.04,2.7,6.17,-14.69,-26.69,-28.37,1.12,2.94,-3.81,0.08476058601648259,-0.15608107239372734,0.06555384289845101,-50.808228717792346,0.10313241704642767,-113.21085389304196,-0.3449,-0.429,0.0009,-0.8349
158,729010.0,693.1882870000001,1.0,7.02,2.73,6.05,-13.88,-26.69,-28.0,0.31,2.5,0.31,-0.022260948221678862,-0.1675841521362913,0.1470837570397574,-50.71944432115219,0.03437746822351143,-113.31502385151421,-0.3444,-0.4283,0.0003,-0.8354
159,729010.0,693.1882870000001,1.0,7.02,2.73,6.05,-13.88,-26.69,-28.0,0.31,2.5,0.31,-0.022260948221678862,-0.1675841521362913,0.1470837570397574,-50.71944432115219,0.03437746822351143,-113.31502385151421,-0.3444,-0.4283,0.0003,-0.8354
160,729047.0,693.191087,1.0,6.88,2.95,6.28,-13.88,-26.69,-28.75,-1.0,0.63,-1.06,0.06639249109512786,0.14982894319026596,0.03687808224733047,-50.69408334093136,0.05729578190040675,-113.31502385151421,-0.3445,-0.4281,0.0005,-0.8354
161,729047.0,693.191087,1.0,6.88,2.95,6.28,-13.88,-26.69,-28.75,-1.0,0.63,-1.06,0.06639249109512786,0.14982894319026596,0.03687808224733047,-50.69408334093136,0.05729578190040675,-113.31502385151421,-0.3445,-0.4281,0.0005,-0.8354
162,729079.0,693.232184,1.0,7.0,2.74,6.29,-13.88,-26.69,-28.75,0.63,3.25,-3.13,0.1414033327852637,-0.0929164690075468,0.006493285576274488,-50.630692516856975,0.0,-113.33587511663835,-0.3451,-0.4276,0.0,-0.8355
163,729079.0,693.232184,1.0,7.0,2.74,6.29,-13.88,-26.69,-28.75,0.63,3.25,-3.13,0.1414033327852637,-0.0929164690075468,0.006493285576274488,-50.630692516856975,0.0,-113.33587511663835,-0.3451,-0.4276,0.0,-0.8355
164,729114.0,693.251372,1.0,7.0,2.97,6.04,-14.25,-27.06,-28.75,-1.63,1.69,0.31,-0.18593102078982748,-0.0038809352682216414,0.09748347584101147,-50.51663080170575,-0.04583662483277591,-113.44021811063548,-0.3451,-0.4267,-0.0004,-0.836
165,729114.0,693.251372,1.0,7.0,2.97,6.04,-14.25,-27.06,-28.75,-1.63,1.69,0.31,-0.18593102078982748,-0.0038809352682216414,0.09748347584101147,-50.51663080170575,-0.04583662483277591,-113.44021811063548,-0.3451,-0.4267,-0.0004,-0.836
