acc_x,acc_y,acc_z,lin_x,lin_y,lin_z,eul_x,eul_y,eul_z
5.25,5.08,-6.86,-0.2034928714345315,-0.2082776682213647,-0.2105208113716195,-126.60729740721462,-21.368908312577144,-40.02193352838936
5.25,5.08,-6.86,-0.2034928714345315,-0.2082776682213647,-0.2105208113716195,-126.60729740721462,-21.368908312577144,-40.02193352838936
5.08,5.22,-6.64,-0.0918078835667422,-0.0174834294238834,-0.0490927747588152,-126.60729740721462,-21.63717831946885,-39.6684640703974
5.08,5.22,-6.64,-0.0918078835667422,-0.0174834294238834,-0.0490927747588152,-126.60729740721462,-21.63717831946885,-39.6684640703974
5.32,5.39,-7.2,-0.2599748749401706,-0.2059994971868195,-0.6377014528935021,-126.47990511760632,-21.90556839778225,-39.53449246452549
5.32,5.39,-7.2,-0.2599748749401706,-0.2059994971868195,-0.6377014528935021,-126.47990511760632,-21.90556839778225,-39.53449246452549
5.93,5.16,-7.61,-0.13762588636819,-1.0206640756087522,-1.0856364431745025,-125.8974793863132,-22.54786734834884,-39.24238573337944
5.93,5.16,-7.61,-0.13762588636819,-1.0206640756087522,-1.0856364431745025,-125.8974793863132,-22.54786734834884,-39.24238573337944
6.0,5.74,-6.56,0.7723927630892056,-0.8080073214365942,-0.7162646907134159,-124.30646648477428,-23.998630403703213,-38.61039417078352
6.0,5.74,-6.56,0.7723927630892056,-0.8080073214365942,-0.7162646907134159,-124.30646648477428,-23.998630403703213,-38.61039417078352
5.07,6.8,-5.36,1.1714970968425256,0.5612658603509675,-0.1425748535297462,-123.30885743015295,-24.51434453810049,-38.07658496090942
5.07,6.8,-5.36,1.1714970968425256,0.5612658603509675,-0.1425748535297462,-123.30885743015295,-24.51434453810049,-38.07658496090942
6.31,6.6,-3.34,3.196621764111608,0.5228076842465716,0.6393177041518411,-123.01990890666336,-23.448298031292182,-39.084272157289
6.31,6.6,-3.34,3.196621764111608,0.5228076842465716,0.6393177041518411,-123.01990890666336,-23.448298031292182,-39.084272157289
6.4,3.62,-5.07,1.1135223066323772,-1.8495923657331768,1.14014112079993,-122.87593702038136,-22.267504416511223,-42.55680426104336
6.4,3.62,-5.07,1.1135223066323772,-1.8495923657331768,1.14014112079993,-122.87593702038136,-22.267504416511223,-42.55680426104336
6.14,4.28,-4.9,0.1752343682821874,-0.8676040935244516,0.9047088603904854,-118.45375451496908,-20.63468349632429,-49.11421404634533
6.14,4.28,-4.9,0.1752343682821874,-0.8676040935244516,0.9047088603904854,-118.45375451496908,-20.63468349632429,-49.11421404634533
5.43,4.64,-1.65,1.7260066963876963,0.7682296711047993,2.723732235656054,-114.30136176070128,-19.08742247639564,-54.64519627292022
5.43,4.64,-1.65,1.7260066963876963,0.7682296711047993,2.723732235656054,-114.30136176070128,-19.08742247639564,-54.64519627292022
5.89,3.39,-0.06,2.218716062347731,0.1433495182391324,3.3844580104764264,-106.75821257049073,-17.184314583414665,-64.82350878733949
5.89,3.39,-0.06,2.218716062347731,0.1433495182391324,3.3844580104764264,-106.75821257049073,-17.184314583414665,-64.82350878733949
6.66,6.0,0.21,0.6766071514328911,2.314834048125197,1.1704791996817168,-93.30434180891346,-14.627194705880914,-79.88223328250281
6.66,6.0,0.21,0.6766071514328911,2.314834048125197,1.1704791996817168,-93.30434180891346,-14.627194705880914,-79.88223328250281
8.65,2.75,2.03,1.291538194266243,-1.0786688488071987,0.6592841164592915,-83.10407566239712,-13.957359493385503,-91.17172192038392
8.65,2.75,2.03,1.291538194266243,-1.0786688488071987,0.6592841164592915,-83.10407566239712,-13.957359493385503,-91.17172192038392
7.61,3.87,2.93,0.2032081424614008,0.4608452308505076,0.7944234091935005,-70.70426845211381,-13.4841456448157,-104.03523089910144
7.61,3.87,2.93,0.2032081424614008,0.4608452308505076,0.7944234091935005,-70.70426845211381,-13.4841456448157,-104.03523089910144
6.95,2.47,6.37,2.4535477095953904,-0.6125634442670287,0.394680510913938,-62.115262460964935,-12.434654560583263,-111.9308545002648
6.95,2.47,6.37,2.4535477095953904,-0.6125634442670287,0.394680510913938,-62.115262460964935,-12.434654560583263,-111.9308545002648
6.01,3.65,8.04,1.6212192514491828,0.9032359406378654,-0.7119056505762984,-49.1016156188802,-8.95872400294449,-123.09201996316364
6.01,3.65,8.04,1.6212192514491828,0.9032359406378654,-0.7119056505762984,-49.1016156188802,-8.95872400294449,-123.09201996316364
7.17,4.69,6.57,-2.239113128720895,1.1066572617306116,-0.6972341435846339,-40.40021990535208,-6.030298919379606,-129.21728949054742
7.17,4.69,6.57,-2.239113128720895,1.1066572617306116,-0.6972341435846339,-40.40021990535208,-6.030298919379606,-129.21728949054742
9.28,2.25,5.64,-4.475640415467857,-2.352152490448034,-0.0638374009903817,-32.890619725136126,-3.862466868736162,-133.7645266360233
9.28,2.25,5.64,-4.475640415467857,-2.352152490448034,-0.0638374009903817,-32.890619725136126,-3.862466868736162,-133.7645266360233
6.46,0.61,5.9,-2.059533648145985,-2.2208474771197166,1.5762273112478908,-29.274683969227155,-0.5500415954991054,-133.99857662596108
6.46,0.61,5.9,-2.059533648145985,-2.2208474771197166,1.5762273112478908,-29.274683969227155,-0.5500415954991054,-133.99857662596108
5.44,0.34,7.33,-0.743463973827706,-1.3787625852858698,0.8075180944751033,-28.210041571444727,2.6129139620146145,-132.98273895587266
5.44,0.34,7.33,-0.743463973827706,-1.3787625852858698,0.8075180944751033,-28.210041571444727,2.6129139620146145,-132.98273895587266
6.29,1.55,6.07,-2.932031918942002,-0.7840288145573681,1.4639892946704904,-26.617693729981983,7.488156943849511,-131.59437695002578
6.29,1.55,6.07,-2.932031918942002,-0.7840288145573681,1.4639892946704904,-26.617693729981983,7.488156943849511,-131.59437695002578
6.61,1.82,4.04,-4.174301828999405,-1.2420375487348196,3.1464212525811064,-26.00575632582789,10.327214181692757,-129.97078188553854
6.61,1.82,4.04,-4.174301828999405,-1.2420375487348196,3.1464212525811064,-26.00575632582789,10.327214181692757,-129.97078188553854
4.96,-0.24,4.54,-1.4089734269830836,-1.575745746276921,3.4189572064206364,-26.617693729981983,11.92758912667584,-127.17120439382435
4.96,-0.24,4.54,-1.4089734269830836,-1.575745746276921,3.4189572064206364,-26.617693729981983,11.92758912667584,-127.17120439382435
5.04,1.11,5.64,-1.916248704041832,-0.107496942708286,2.406667884375234,-27.90294467602473,13.922726077012074,-124.23291484122736
5.04,1.11,5.64,-1.916248704041832,-0.107496942708286,2.406667884375234,-27.90294467602473,13.922726077012074,-124.23291484122736
7.02,-0.5,5.46,-1.5191952998544158,-2.467370932358162,1.383697648059842,-29.843545089972302,14.477016351828802,-120.52337099749846
7.02,-0.5,5.46,-1.5191952998544158,-2.467370932358162,1.383697648059842,-29.843545089972302,14.477016351828802,-120.52337099749846
5.31,3.27,9.03,-1.7203091911908528,3.582370318061684,-0.4225757376096126,-35.805224148583044,19.52912606682039,-112.8163105430652
5.31,3.27,9.03,-1.7203091911908528,3.582370318061684,-0.4225757376096126,-35.805224148583044,19.52912606682039,-112.8163105430652
3.37,1.49,9.54,1.272644635120677,4.470895349939885,0.6973102652780359,-40.29034769423164,20.64633108966224,-106.85431724818577
3.37,1.49,9.54,1.272644635120677,4.470895349939885,0.6973102652780359,-40.29034769423164,20.64633108966224,-106.85431724818577
5.49,-1.87,9.31,4.0293050289404615,1.046897407627413,-0.3413452109595614,-42.76593619701882,17.659623057349798,-103.68214546357068
5.49,-1.87,9.31,4.0293050289404615,1.046897407627413,-0.3413452109595614,-42.76593619701882,17.659623057349798,-103.68214546357068
6.65,3.17,11.07,0.0826603625308441,4.010866994643544,-2.8709843698556554,-43.19697398702748,18.94799690115028,-100.43876117788852
6.65,3.17,11.07,0.0826603625308441,4.010866994643544,-2.8709843698556554,-43.19697398702748,18.94799690115028,-100.43876117788852
7.19,3.42,9.21,-0.9945053532793108,2.060739487141188,-2.1508126015905216,-41.93029563540066,18.68084346973021,-95.8212238508723
7.19,3.42,9.21,-0.9945053532793108,2.060739487141188,-2.1508126015905216,-41.93029563540066,18.68084346973021,-95.8212238508723
8.0,-1.56,8.86,3.6663425354716073,-1.1106940243242394,-1.6063904010904153,-41.39083180240233,15.517239777173634,-95.65040635419015
8.0,-1.56,8.86,3.6663425354716073,-1.1106940243242394,-1.6063904010904153,-41.39083180240233,15.517239777173634,-95.65040635419015
7.96,1.69,8.57,0.2264756612422332,-0.2762712655530082,-2.0058426650853285,-38.84117149116385,17.288624783675054,-93.35443526255776
7.96,1.69,8.57,0.2264756612422332,-0.2762712655530082,-2.0058426650853285,-38.84117149116385,17.288624783675054,-93.35443526255776
8.19,2.84,8.34,-0.9789580576548412,-0.7231308397747285,-2.160639706108036,-36.83030903162442,17.36976491594495,-90.534939503876
8.19,2.84,8.34,-0.9789580576548412,-0.7231308397747285,-2.160639706108036,-36.83030903162442,17.36976491594495,-90.534939503876
5.89,0.87,8.77,1.13264714955778,0.7766120939609191,-0.7041008813648624,-35.745018073663594,17.578451378167774,-87.92700356866892
5.89,0.87,8.77,1.13264714955778,0.7766120939609191,-0.7041008813648624,-35.745018073663594,17.578451378167774,-87.92700356866892
6.18,2.77,9.78,-0.9194275101010828,1.2018652635780864,-1.9926666302915057,-33.22530683110648,19.30823806837105,-84.95490252162044
6.18,2.77,9.78,-0.9194275101010828,1.2018652635780864,-1.9926666302915057,-33.22530683110648,19.30823806837105,-84.95490252162044
5.65,2.47,9.97,-0.8401846350109758,1.5105980983551053,-1.788024776134835,-31.66190266420909,19.796614956633128,-83.91820775613573
5.65,2.47,9.97,-0.8401846350109758,1.5105980983551053,-1.788024776134835,-31.66190266420909,19.796614956633128,-83.91820775613573
6.45,3.06,10.62,-1.6371086569632882,0.5421276248054077,-2.873116278749725,-28.12734139012517,19.447737797457524,-82.40160521651524
6.45,3.06,10.62,-1.6371086569632882,0.5421276248054077,-2.873116278749725,-28.12734139012517,19.447737797457524,-82.40160521651524
8.81,0.99,7.13,0.4651938518957015,-4.195747176363079,-0.7580270093647314,-24.748926188008948,16.489275388774946,-81.76349634670957
8.81,0.99,7.13,0.4651938518957015,-4.195747176363079,-0.7580270093647314,-24.748926188008948,16.489275388774946,-81.76349634670957
5.99,-0.01,6.92,1.0867124467730285,-2.052090052703943,0.9537079763774514,-23.08561363949995,15.841123321226055,-81.77865358515048
5.99,-0.01,6.92,1.0867124467730285,-2.052090052703943,0.9537079763774514,-23.08561363949995,15.841123321226055,-81.77865358515048
2.34,0.56,10.9,0.1108870807279234,3.2490158131231524,-0.8718705108855502,-23.015443848374385,17.891591511712036,-83.57963882568777
2.34,0.56,10.9,0.1108870807279234,3.2490158131231524,-0.8718705108855502,-23.015443848374385,17.891591511712036,-83.57963882568777
5.14,0.23,9.47,0.3583577330596983,-0.1960451137947448,-0.9630550121400052,-21.555518290408003,17.068431181009654,-86.32973658874529
5.14,0.23,9.47,0.3583577330596983,-0.1960451137947448,-0.9630550121400052,-21.555518290408003,17.068431181009654,-86.32973658874529
4.36,-0.15,9.42,0.2804154728121758,-0.0190278335375687,-0.5707054003010992,-17.949595138790567,16.894639006068054,-87.37109100921478
4.36,-0.15,9.42,0.2804154728121758,-0.0190278335375687,-0.5707054003010992,-17.949595138790567,16.894639006068054,-87.37109100921478
1.98,-4.41,11.03,4.170817028223831,2.471980289013255,-1.2170970384533053,-15.089441590206311,16.813549410004512,-87.29188537138376
1.98,-4.41,11.03,4.170817028223831,2.471980289013255,-1.2170970384533053,-15.089441590206311,16.813549410004512,-87.29188537138376
4.28,-2.02,9.01,1.017602871466219,-1.4805107969711662,-0.2109081942924345,-7.8212153932673,15.968397992715149,-89.40085398971644
4.28,-2.02,9.01,1.017602871466219,-1.4805107969711662,-0.2109081942924345,-7.8212153932673,15.968397992715149,-89.40085398971644
3.05,-1.84,8.82,0.1449457739855835,-0.7958553836967408,0.3289865257651936,-2.750461504037132,17.253853117357277,-90.0151077513171
3.05,-1.84,8.82,0.1449457739855835,-0.7958553836967408,0.3289865257651936,-2.750461504037132,17.253853117357277,-90.0151077513171
1.58,-4.09,11.26,1.1717589017562422,0.5306375310397784,-2.2082368029127526,2.0971425933011094,17.81039419409229,-92.10896087538232
1.58,-4.09,11.26,1.1717589017562422,0.5306375310397784,-2.2082368029127526,2.0971425933011094,17.81039419409229,-92.10896087538232
1.91,-0.97,10.19,-2.4955280280457965,-0.4349742551322881,-0.2932627351977644,7.648935698119245,18.669230437467,-94.14229255211988
1.91,-0.97,10.19,-2.4955280280457965,-0.4349742551322881,-0.2932627351977644,7.648935698119245,18.669230437467,-94.14229255211988
3.34,-0.89,8.53,-2.9256337095935585,-2.7805218072550546,1.53513466865539,13.957359493385503,17.845191938186247,-95.92384977618164
3.34,-0.89,8.53,-2.9256337095935585,-2.7805218072550546,1.53513466865539,13.957359493385503,17.845191938186247,-95.92384977618164
0.66,-4.4,11.73,-0.8297846641087083,-0.8120614659999883,-2.684967732969895,16.257732621833743,17.195903895593172,-96.57619970569807
0.66,-4.4,11.73,-0.8297846641087083,-0.8120614659999883,-2.684967732969895,16.257732621833743,17.195903895593172,-96.57619970569807
-0.34,-2.86,7.72,-1.0909386295707963,-0.4278822105338431,1.650647932784782,22.606293449751373,16.489275388774946,-96.11226260939416
-0.34,-2.86,7.72,-1.0909386295707963,-0.4278822105338431,1.650647932784782,22.606293449751373,16.489275388774946,-96.11226260939416
-0.36,-4.87,6.06,1.1618983353075094,-1.1864532440113802,2.203202034886769,26.52349964582953,15.112560354905924,-95.83832110194956
-0.36,-4.87,6.06,1.1618983353075094,-1.1864532440113802,2.203202034886769,26.52349964582953,15.112560354905924,-95.83832110194956
-1.82,-5.14,8.27,0.2905363942950715,0.0624525943425706,-0.094692751215609,26.90038619571759,16.43138337904295,-96.43851781128038
-1.82,-5.14,8.27,0.2905363942950715,0.0624525943425706,-0.094692751215609,26.90038619571759,16.43138337904295,-96.43851781128038
-1.08,-5.08,7.78,0.1141366204683731,-0.4996725281115366,0.4664947445174299,27.466273808985672,18.228077382152183,-96.86939197442554
-1.08,-5.08,7.78,0.1141366204683731,-0.4996725281115366,0.4664947445174299,27.466273808985672,18.228077382152183,-96.86939197442554
-2.16,-6.38,8.24,1.0066468909630748,0.3454122430143185,-0.7827292272866586,27.195035005738163,19.587266633669245,-97.84125321339737
-2.16,-6.38,8.24,1.0066468909630748,0.3454122430143185,-0.7827292272866586,27.195035005738163,19.587266633669245,-97.84125321339737
-1.6,-4.41,8.11,-0.8842716742310641,0.6989384061703225,0.5055883019715033,26.66479763712951,23.050527648721737,-99.12253530851764
-1.6,-4.41,8.11,-0.8842716742310641,0.6989384061703225,0.5055883019715033,26.66479763712951,23.050527648721737,-99.12253530851764
-0.09,-4.92,7.8,-0.7003791905123673,-0.7697751979248553,0.6430581750572824,26.06456338881546,23.96348615709585,-99.86737745872108
-0.09,-4.92,7.8,-0.7003791905123673,-0.7697751979248553,0.6430581750572824,26.06456338881546,23.96348615709585,-99.86737745872108
-0.84,-5.9,8.67,-0.1826545378910486,0.11872999349512,-0.7117643533344662,24.06892577380089,25.84113356281753,-101.33846927981492
-0.84,-5.9,8.67,-0.1826545378910486,0.11872999349512,-0.7117643533344662,24.06892577380089,25.84113356281753,-101.33846927981492
-0.34,-4.98,8.39,-0.8742432909885752,0.2454437278865305,0.0863847749867137,22.466080778094224,27.86752361625034,-102.30167093062992
-0.34,-4.98,8.39,-0.8742432909885752,0.2454437278865305,0.0863847749867137,22.466080778094224,27.86752361625034,-102.30167093062992
0.28,-5.89,7.82,-0.0088044194806193,-0.5198108079253614,0.0264342965422468,21.34558610673021,28.6474215027532,-102.83298081073578
0.28,-5.89,7.82,-0.0088044194806193,-0.5198108079253614,0.0264342965422468,21.34558610673021,28.6474215027532,-102.83298081073578
0.4,-4.99,8.24,-0.8767921711763146,-0.0104685237681931,0.2051487684959365,19.73845598070809,29.843545089972302,-103.44135652414452
0.4,-4.99,8.24,-0.8767921711763146,-0.0104685237681931,0.2051487684959365,19.73845598070809,29.843545089972302,-103.44135652414452
-0.33,-5.2,8.65,-0.5738691534258671,0.8980587306346592,-0.2350413272156117,18.541499822002773,30.567562314513644,-103.73780360335893
-0.33,-5.2,8.65,-0.5738691534258671,0.8980587306346592,-0.2350413272156117,18.541499822002773,30.567562314513644,-103.73780360335893
0.16,-3.72,8.26,-1.5842251399964975,0.8705819854236452,0.9283665109206556,17.787196618044018,30.74578979374247,-103.55241005030376
0.16,-3.72,8.26,-1.5842251399964975,0.8705819854236452,0.9283665109206556,17.787196618044018,30.74578979374247,-103.55241005030376
1.73,-5.35,7.44,-0.2870612437870317,-1.3223768158586418,0.5796290615174708,17.346581127291525,29.59457663056109,-103.14587806891129
1.73,-5.35,7.44,-0.2870612437870317,-1.3223768158586418,0.5796290615174708,17.346581127291525,29.59457663056109,-103.14587806891129
0.88,-6.88,8.54,0.976755156224688,-0.6377499170893786,-1.1331682986757574,16.026256661631813,28.70655945606141,-102.92489803406494
0.88,-6.88,8.54,0.976755156224688,-0.6377499170893786,-1.1331682986757574,16.026256661631813,28.70655945606141,-102.92489803406494
0.13,-4.23,8.3,-0.7702538079999051,0.8891901769489765,0.5645804319606444,15.436288478593855,29.665695841620533,-102.42963728896297
0.13,-4.23,8.3,-0.7702538079999051,0.8891901769489765,0.5645804319606444,15.436288478593855,29.665695841620533,-102.42963728896297
0.83,-5.79,8.63,0.2941453578560245,-0.042962250063919,-0.6145559164724901,14.523222401516824,29.0023667595726,-102.08271174423224
0.83,-5.79,8.63,0.2941453578560245,-0.042962250063919,-0.6145559164724901,14.523222401516824,29.0023667595726,-102.08271174423224
0.93,-6.24,8.41,0.8770907742196735,-0.3126428432650341,-0.6653873484023567,14.049721543626418,28.422768181257144,-101.97342600574191
0.93,-6.24,8.41,0.8770907742196735,-0.3126428432650341,-0.6653873484023567,14.049721543626418,28.422768181257144,-101.97342600574191
0.96,-5.13,8.2,0.0673691810442548,-0.0874360254108075,0.0872716075869455,13.841919736512358,28.576466242296,-101.91883135691955
0.96,-5.13,8.2,0.0673691810442548,-0.0874360254108075,0.0872716075869455,13.841919736512358,28.576466242296,-101.91883135691955
0.43,-4.74,8.79,-0.3077358648108895,0.7050012464659714,-0.1595364261105665,13.461068017168213,28.671075748006672,-101.7734021529752
0.43,-4.74,8.79,-0.3077358648108895,0.7050012464659714,-0.1595364261105665,13.461068017168213,28.671075748006672,-101.7734021529752
1.28,-5.43,8.4,0.2410358474315802,-0.3919575075651576,-0.2666598350302056,13.357225465957494,28.18641141984425,-101.61006514803414
1.28,-5.43,8.4,0.2410358474315802,-0.3919575075651576,-0.2666598350302056,13.357225465957494,28.18641141984425,-101.61006514803414
1.61,-4.62,8.04,-0.3272020940199029,-0.636534086371197,0.4223086194578069,13.322613734970494,27.86752361625034,-101.50133226645922
1.61,-4.62,8.04,-0.3272020940199029,-0.636534086371197,0.4223086194578069,13.322613734970494,27.86752361625034,-101.50133226645922
1.06,-5.06,8.61,0.0202542637721063,-0.0207465622330289,-0.2361812414853705,12.861239362009446,27.89113735405041,-101.30231586461944
1.06,-5.06,8.61,0.0202542637721063,-0.0207465622330289,-0.2361812414853705,12.861239362009446,27.89113735405041,-101.30231586461944
0.9,-5.47,8.78,0.4379410877439258,0.087368361044668,-0.5673499215902299,12.434654560583263,27.57245336826063,-101.30231586461944
0.9,-5.47,8.78,0.4379410877439258,0.087368361044668,-0.5673499215902299,12.434654560583263,27.57245336826063,-101.30231586461944
1.04,-4.16,8.54,-0.6195090910634378,0.2040931921605531,0.2728493698733434,12.434654560583263,27.737669605365127,-101.30231586461944
1.04,-4.16,8.54,-0.6195090910634378,0.2040931921605531,0.2728493698733434,12.434654560583263,27.737669605365127,-101.30231586461944
0.95,-4.89,8.52,0.1221605205997838,0.1171421132717505,-0.0612958111860866,12.123472436717575,27.348324709600163,-101.10372013014188
0.95,-4.89,8.52,0.1221605205997838,0.1171421132717505,-0.0612958111860866,12.123472436717575,27.348324709600163,-101.10372013014188
1.25,-4.81,8.3,0.0830949753752665,-0.2301308384313438,0.1356244586072836,12.134996086138983,27.124302654398623,-101.0856867194038
1.25,-4.81,8.3,0.0830949753752665,-0.2301308384313438,0.1356244586072836,12.134996086138983,27.124302654398623,-101.0856867194038
1.13,-4.17,8.6,-0.5989590425927164,0.1257360736568493,0.2018991700680903,12.227189726180756,27.44268161964677,-100.97755856330473
1.13,-4.17,8.6,-0.5989590425927164,0.1257360736568493,0.2018991700680903,12.227189726180756,27.44268161964677,-100.97755856330473
1.18,-5.19,8.61,0.2941334654049829,-0.1517763446749231,-0.3102195477270069,12.100425506938455,27.183245547895737,-100.90554181397611
1.18,-5.19,8.61,0.2941334654049829,-0.1517763446749231,-0.3102195477270069,12.100425506938455,27.183245547895737,-100.90554181397611
1.3,-4.63,8.56,-0.2049826844304972,-0.1667842819192651,-0.0081686484717238,12.169567773976445,27.183245547895737,-100.92354086053491
1.3,-4.63,8.56,-0.2049826844304972,-0.1667842819192651,-0.0081686484717238,12.169567773976445,27.183245547895737,-100.92354086053491
1.1,-4.35,8.69,-0.4326094923628756,0.1305374349599093,0.0370845539224902,12.07737906844118,27.242195772473625,-100.90554181397611
1.1,-4.35,8.69,-0.4326094923628756,0.1305374349599093,0.0370845539224902,12.07737906844118,27.242195772473625,-100.90554181397611
0.94,-5.01,8.81,0.198671397588409,0.1641810782522919,-0.3684850973500193,11.800859775906506,26.935734446758048,-100.86955398800988
0.94,-5.01,8.81,0.198671397588409,0.1641810782522919,-0.3684850973500193,11.800859775906506,26.935734446758048,-100.86955398800988
1.27,-4.72,8.32,0.069158881889412,-0.231400854742474,0.1601288294701657,11.904546342091734,26.78257750270593,-100.81559788103888
1.27,-4.72,8.32,0.069158881889412,-0.231400854742474,0.1601288294701657,11.904546342091734,26.78257750270593,-100.81559788103888
1.17,-4.41,8.59,-0.2932551522342346,-0.0039828494801534,0.0845573470472373,11.996720388635614,26.817917077101303,-100.54627658006508
1.17,-4.41,8.59,-0.2932551522342346,-0.0039828494801534,0.0845573470472373,11.996720388635614,26.817917077101303,-100.54627658006508
1.11,-4.57,8.84,-0.2133343046272325,0.092390232956542,-0.2037721948588906,11.835420883076136,26.74724052277769,-100.4029496292164
1.11,-4.57,8.84,-0.2133343046272325,0.092390232956542,-0.2037721948588906,11.835420883076136,26.74724052277769,-100.4029496292164
