,TIME,ELAPSED_SECONDS,PSTATE,acc_x,acc_y,acc_z,mag_x,mag_y,mag_z,gyr_x,gyr_y,gyr_z,lin_x,lin_y,lin_z,eul_x,eul_y,eul_z,qua_w,qua_x,qua_y,qua_z
0,759066.0,723.264047,1.0,4.81,3.23,7.88,-1.75,-27.25,-33.06,0.12,-0.25,0.69,-0.059956849141991536,0.0033794778982372264,0.026067514515295542,-35.43211039129503,-6.11062569758793,-121.01031078825766,-0.3834,-0.3043,-0.0533,-0.8704
1,759066.0,723.264047,1.0,4.81,3.23,7.88,-1.75,-27.25,-33.06,0.12,-0.25,0.69,-0.059956849141991536,0.0033794778982372264,0.026067514515295542,-35.43211039129503,-6.11062569758793,-121.01031078825766,-0.3834,-0.3043,-0.0533,-0.8704
2,759101.0,723.310679,1.0,4.86,3.09,7.88,-2.88,-27.69,-32.25,-1.12,-0.12,1.19,0.002456175798160876,-0.12836883180869466,0.047263983952651856,-35.43211039129503,-6.11062569758793,-121.03358960360973,-0.3832,-0.3043,-0.0533,-0.8705
3,759101.0,723.310679,1.0,4.86,3.09,7.88,-2.88,-27.69,-32.25,-1.12,-0.12,1.19,0.002456175798160876,-0.12836883180869466,0.047263983952651856,-35.43211039129503,-6.11062569758793,-121.03358960360973,-0.3832,-0.3043,-0.0533,-0.8705
4,759136.0,723.3657559999999,1.0,4.91,3.16,7.98,-3.25,-28.0,-32.75,0.12,-1.44,3.19,-0.009844264718956221,-0.08014246491174483,-0.08109899943207742,-35.4802322080149,-6.030298919379606,-121.08017234591215,-0.3824,-0.3047,-0.0526,-0.8707
5,759136.0,723.3657559999999,1.0,4.91,3.16,7.98,-3.25,-28.0,-32.75,0.12,-1.44,3.19,-0.009844264718956221,-0.08014246491174483,-0.08109899943207742,-35.4802322080149,-6.030298919379606,-121.08017234591215,-0.3824,-0.3047,-0.0526,-0.8707
6,759171.0,723.372186,1.0,5.42,3.22,7.83,-1.75,-27.69,-32.19,2.5,-8.56,6.44,-0.3784358945587437,-0.3884318814368908,-0.23125849466127235,-35.64870955741132,-5.97292446733722,-121.08017234591215,-0.3813,-0.3061,-0.0521,-0.8707
7,759171.0,723.372186,1.0,5.42,3.22,7.83,-1.75,-27.69,-32.19,2.5,-8.56,6.44,-0.3784358945587437,-0.3884318814368908,-0.23125849466127235,-35.64870955741132,-5.97292446733722,-121.08017234591215,-0.3813,-0.3061,-0.0521,-0.8707
8,759205.0,723.427827,1.0,6.19,3.93,7.06,-1.75,-27.69,-32.19,7.25,-15.38,11.06,-1.5742890183843288,-0.44579577464753584,-0.23961697902762855,-36.33548075823788,-5.8581800447136345,-120.98704033013556,-0.3779,-0.3118,-0.0511,-0.8703
9,759205.0,723.427827,1.0,6.19,3.93,7.06,-1.75,-27.69,-32.19,7.25,-15.38,11.06,-1.5742890183843288,-0.44579577464753584,-0.23961697902762855,-36.33548075823788,-5.8581800447136345,-120.98704033013556,-0.3779,-0.3118,-0.0511,-0.8703
10,759240.0,723.435942,1.0,6.44,3.76,7.36,-3.25,-27.25,-32.19,10.13,-49.19,14.81,-1.2184359040006385,-0.552396996574394,-0.5852252641675655,-37.676791133557344,-5.663127955663872,-120.43103091016366,-0.3742,-0.3229,-0.0494,-0.8679
11,759240.0,723.435942,1.0,6.44,3.76,7.36,-3.25,-27.25,-32.19,10.13,-49.19,14.81,-1.2184359040006385,-0.552396996574394,-0.5852252641675655,-37.676791133557344,-5.663127955663872,-120.43103091016366,-0.3742,-0.3229,-0.0494,-0.8679
12,759277.0,723.494037,1.0,6.23,4.46,8.1,-3.69,-27.69,-31.37,18.56,-58.63,14.69,-0.7302297558277802,0.4711565593039744,-1.3090720188491822,-39.96096228867753,-5.2271876941715805,-119.3556000073112,-0.3688,-0.3417,-0.0456,-0.8632
13,759277.0,723.494037,1.0,6.23,4.46,8.1,-3.69,-27.69,-31.37,18.56,-58.63,14.69,-0.7302297558277802,0.4711565593039744,-1.3090720188491822,-39.96096228867753,-5.2271876941715805,-119.3556000073112,-0.3688,-0.3417,-0.0456,-0.8632
14,759312.0,723.501621,1.0,6.77,4.46,7.49,-3.69,-27.69,-31.37,29.81,-57.31,-1.56,-1.0646591725601997,0.1191267758521759,-1.17865425876127,-41.709489033737505,-5.261601195679236,-118.20783138151,-0.3672,-0.35600000000000004,-0.0459,-0.8581
15,759312.0,723.501621,1.0,6.77,4.46,7.49,-3.69,-27.69,-31.37,29.81,-57.31,-1.56,-1.0646591725601997,0.1191267758521759,-1.17865425876127,-41.709489033737505,-5.261601195679236,-118.20783138151,-0.3672,-0.35600000000000004,-0.0459,-0.8581
16,759347.0,723.5534240000001,1.0,7.53,5.23,7.39,-5.56,-27.69,-31.37,32.13,-69.69,-7.94,-1.3813635485528708,0.30674449155746153,-1.8836726030605604,-44.617815884427785,-5.491036825631306,-116.05449328856251,-0.3661,-0.3796,-0.0479,-0.8483
17,759347.0,723.5534240000001,1.0,7.53,5.23,7.39,-5.56,-27.69,-31.37,32.13,-69.69,-7.94,-1.3813635485528708,0.30674449155746153,-1.8836726030605604,-44.617815884427785,-5.491036825631306,-116.05449328856251,-0.3661,-0.3796,-0.0479,-0.8483
18,759382.0,723.568724,1.0,9.23,5.52,7.17,-8.06,-28.75,-29.75,45.06,-77.87,-20.56,-1.8931690896818223,-0.5731674088354866,-2.9667438293361275,-47.0813498800656,-6.00734895779625,-114.09040704091221,-0.3657,-0.3994,-0.0524,-0.8391
19,759382.0,723.568724,1.0,9.23,5.52,7.17,-8.06,-28.75,-29.75,45.06,-77.87,-20.56,-1.8931690896818223,-0.5731674088354866,-2.9667438293361275,-47.0813498800656,-6.00734895779625,-114.09040704091221,-0.3657,-0.3994,-0.0524,-0.8391
20,759418.0,723.6107400000001,1.0,10.83,6.07,6.47,-9.25,-29.87,-28.25,58.44,-106.19,-11.06,-2.315872892469618,-1.1558747379780059,-3.9518159877483647,-51.48152030899618,-6.661520952908496,-110.67168416900331,-0.3627,-0.4343,-0.0581,-0.8225
21,759418.0,723.6107400000001,1.0,10.83,6.07,6.47,-9.25,-29.87,-28.25,58.44,-106.19,-11.06,-2.315872892469618,-1.1558747379780059,-3.9518159877483647,-51.48152030899618,-6.661520952908496,-110.67168416900331,-0.3627,-0.4343,-0.0581,-0.8225
22,759453.0,723.667155,1.0,9.76,5.44,7.34,-9.25,-29.87,-28.25,78.81,-162.56,-5.88,0.14536873369699352,-0.4169844520950088,-3.5549289447944488,-56.250423997675526,-6.971466463000762,-106.91203223110699,-0.3585,-0.4714,-0.0608,-0.8034
23,759453.0,723.667155,1.0,9.76,5.44,7.34,-9.25,-29.87,-28.25,78.81,-162.56,-5.88,0.14536873369699352,-0.4169844520950088,-3.5549289447944488,-56.250423997675526,-6.971466463000762,-106.91203223110699,-0.3585,-0.4714,-0.0608,-0.8034
24,759490.0,723.6744,1.0,9.11,6.01,6.87,-12.0,-31.75,-25.37,78.94,-168.19,5.94,1.1657397862619492,0.8963853473175831,-3.0053226841669574,-63.471174371632316,-6.959986103018456,-101.39272551986973,-0.3477,-0.526,-0.0607,-0.7738
25,759490.0,723.6744,1.0,9.11,6.01,6.87,-12.0,-31.75,-25.37,78.94,-168.19,5.94,1.1657397862619492,0.8963853473175831,-3.0053226841669574,-63.471174371632316,-6.959986103018456,-101.39272551986973,-0.3477,-0.526,-0.0607,-0.7738
26,759525.0,723.7472240000001,1.0,9.25,5.64,6.03,-15.25,-33.69,-21.37,90.81,-160.56,3.38,1.675687521786887,0.7004339972126585,-2.4585227890346677,-68.79069483955588,-7.304427851725569,-97.35415075240186,-0.3359,-0.5649,-0.0637,-0.7509999999999999
27,759525.0,723.7472240000001,1.0,9.25,5.64,6.03,-15.25,-33.69,-21.37,90.81,-160.56,3.38,1.675687521786887,0.7004339972126585,-2.4585227890346677,-68.79069483955588,-7.304427851725569,-97.35415075240186,-0.3359,-0.5649,-0.0637,-0.7509999999999999
28,759560.0,723.755493,1.0,9.58,4.57,5.15,-15.25,-33.69,-21.37,82.31,-161.75,-8.63,2.7006360236442566,-0.1463824245580767,-1.6767701026338582,-75.86024997866475,-7.982025743589274,-91.49968085011842,-0.3228,-0.6147,-0.0696,-0.7163
29,759560.0,723.755493,1.0,9.58,4.57,5.15,-15.25,-33.69,-21.37,82.31,-161.75,-8.63,2.7006360236442566,-0.1463824245580767,-1.6767701026338582,-75.86024997866475,-7.982025743589274,-91.49968085011842,-0.3228,-0.6147,-0.0696,-0.7163
30,759595.0,723.795984,1.0,8.65,5.07,3.89,-19.06,-34.0,-17.87,84.25,-179.5,-1.25,2.6867559719384997,0.8264505295592874,-0.5739965053696938,-83.34930824823599,-8.23475966058657,-85.07925976340502,-0.3093,-0.6649,-0.0718,-0.6761
31,759595.0,723.795984,1.0,8.65,5.07,3.89,-19.06,-34.0,-17.87,84.25,-179.5,-1.25,2.6867559719384997,0.8264505295592874,-0.5739965053696938,-83.34930824823599,-8.23475966058657,-85.07925976340502,-0.3093,-0.6649,-0.0718,-0.6761
32,759631.0,723.847843,1.0,8.01,5.1,4.12,-20.19,-34.75,-12.56,60.38,-152.0,-1.88,3.666181747669401,1.5684731026451764,0.25450346012036995,-88.54952961516125,-8.246248510013665,-80.55646739590921,-0.2993,-0.6981,-0.0719,-0.6465
33,759631.0,723.847843,1.0,8.01,5.1,4.12,-20.19,-34.75,-12.56,60.38,-152.0,-1.88,3.666181747669401,1.5684731026451764,0.25450346012036995,-88.54952961516125,-8.246248510013665,-80.55646739590921,-0.2993,-0.6981,-0.0719,-0.6465
34,759666.0,723.854654,1.0,8.26,5.47,1.17,-20.19,-34.75,-12.56,57.63,-130.75,-12.75,1.735636830695196,1.0505340029940469,0.039288887576256926,-94.12546914110418,-8.487533709607298,-75.425051592449,-0.2903,-0.7321,-0.07400000000000001,-0.6117
35,759666.0,723.854654,1.0,8.26,5.47,1.17,-20.19,-34.75,-12.56,57.63,-130.75,-12.75,1.735636830695196,1.0505340029940469,0.039288887576256926,-94.12546914110418,-8.487533709607298,-75.425051592449,-0.2903,-0.7321,-0.07400000000000001,-0.6117
36,759701.0,723.915589,1.0,7.12,4.23,0.46,-22.69,-37.0,-7.25,79.12,-130.13,-7.75,1.7147986621533169,0.5020032473249527,1.7068748001594225,-98.5412654656515,-8.935735653853007,-71.52122812984334,-0.2797,-0.7578,-0.0779,-0.5844
37,759701.0,723.915589,1.0,7.12,4.23,0.46,-22.69,-37.0,-7.25,79.12,-130.13,-7.75,1.7147986621533169,0.5020032473249527,1.7068748001594225,-98.5412654656515,-8.935735653853007,-71.52122812984334,-0.2797,-0.7578,-0.0779,-0.5844
38,759738.0,723.933409,1.0,7.81,5.02,-2.06,-23.06,-36.19,-3.75,65.12,-118.37,-7.38,0.2730677430628992,0.2741591140225759,0.304525459251396,-103.83064378585505,-9.349581983346614,-66.78891793624743,-0.2661,-0.7871,-0.0815,-0.5504
39,759738.0,723.933409,1.0,7.81,5.02,-2.06,-23.06,-36.19,-3.75,65.12,-118.37,-7.38,0.2730677430628992,0.2741591140225759,0.304525459251396,-103.83064378585505,-9.349581983346614,-66.78891793624743,-0.2661,-0.7871,-0.0815,-0.5504
40,759773.0,723.9951580000001,1.0,6.9,3.61,-2.89,-23.25,-35.38,2.56,71.19,-113.31,-1.12,-0.0428909504764726,-0.6104708875261127,1.522950001699099,-107.82141899407465,-9.821056182581472,-63.34995089580225,-0.2527,-0.8081,-0.0856,-0.5251
41,759773.0,723.9951580000001,1.0,6.9,3.61,-2.89,-23.25,-35.38,2.56,71.19,-113.31,-1.12,-0.0428909504764726,-0.6104708875261127,1.522950001699099,-107.82141899407465,-9.821056182581472,-63.34995089580225,-0.2527,-0.8081,-0.0856,-0.5251
42,759808.0,723.998065,1.0,6.73,4.45,-3.67,-23.25,-35.38,2.56,55.81,-118.69,8.44,-0.19596569047689497,0.1936183459763696,0.947281547099008,-112.83702493862923,-9.683046840720888,-58.917918323687886,-0.239,-0.8331,-0.0844,-0.4918
43,759808.0,723.998065,1.0,6.73,4.45,-3.67,-23.25,-35.38,2.56,55.81,-118.69,8.44,-0.19596569047689497,0.1936183459763696,0.947281547099008,-112.83702493862923,-9.683046840720888,-58.917918323687886,-0.239,-0.8331,-0.0844,-0.4918
44,759842.0,724.051418,1.0,6.2,4.11,-4.37,-23.0,-35.06,5.69,57.88,-105.31,3.13,-0.5324855330530556,0.05680419811069237,1.1960616089452856,-116.35810942215919,-9.648546712798435,-55.770203681703904,-0.2286,-0.8497,-0.0841,-0.4677
45,759842.0,724.051418,1.0,6.2,4.11,-4.37,-23.0,-35.06,5.69,57.88,-105.31,3.13,-0.5324855330530556,0.05680419811069237,1.1960616089452856,-116.35810942215919,-9.648546712798435,-55.770203681703904,-0.2286,-0.8497,-0.0841,-0.4677
46,759879.0,724.0921519999999,1.0,5.48,3.84,-4.76,-22.25,-33.88,11.0,62.0,-100.5,8.81,-0.6325617368544925,0.20074322150226065,1.6217145813122915,-120.87081305028902,-9.660046657878476,-51.82525084646464,-0.213,-0.8698,-0.0842,-0.43700000000000006
47,759879.0,724.0921519999999,1.0,5.48,3.84,-4.76,-22.25,-33.88,11.0,62.0,-100.5,8.81,-0.6325617368544925,0.20074322150226065,1.6217145813122915,-120.87081305028902,-9.660046657878476,-51.82525084646464,-0.213,-0.8698,-0.0842,-0.43700000000000006
48,759914.0,724.111628,1.0,4.78,3.65,-4.5,-22.25,-33.88,11.0,60.19,-86.75,7.69,-0.4570077938907141,0.5210616559702994,2.3273092117352583,-124.08607855408228,-9.637046865121436,-49.089017824092124,-0.2004,-0.8833,-0.084,-0.4154
49,759914.0,724.111628,1.0,4.78,3.65,-4.5,-22.25,-33.88,11.0,60.19,-86.75,7.69,-0.4570077938907141,0.5210616559702994,2.3273092117352583,-124.08607855408228,-9.637046865121436,-49.089017824092124,-0.2004,-0.8833,-0.084,-0.4154
50,759947.0,724.158735,1.0,5.25,3.99,-5.8,-21.75,-32.75,14.19,51.5,-75.19,2.31,-0.6583759638559948,0.5333585388814537,1.0656735237006298,-127.6108060653337,-9.775051491876123,-46.045923884135675,-0.1864,-0.8973,-0.0852,-0.3911
51,759947.0,724.158735,1.0,5.25,3.99,-5.8,-21.75,-32.75,14.19,51.5,-75.19,2.31,-0.6583759638559948,0.5333585388814537,1.0656735237006298,-127.6108060653337,-9.775051491876123,-46.045923884135675,-0.1864,-0.8973,-0.0852,-0.3911
52,759984.0,724.16607,1.0,3.73,2.48,-5.43,-20.06,-31.69,17.37,66.25,-66.5,-2.38,-1.139690696352219,-0.13612277468007727,2.861811938039048,-130.18802216268048,-10.166142467644526,-43.887975339090566,-0.1732,-0.907,-0.0886,-0.3737
53,759984.0,724.16607,1.0,3.73,2.48,-5.43,-20.06,-31.69,17.37,66.25,-66.5,-2.38,-1.139690696352219,-0.13612277468007727,2.861811938039048,-130.18802216268048,-10.166142467644526,-43.887975339090566,-0.1732,-0.907,-0.0886,-0.3737
54,760020.0,724.203533,1.0,3.65,2.32,-5.42,-19.37,-29.75,20.37,44.56,-41.31,-1.19,-0.8940492491854561,-0.07518204225996583,2.9308719639845453,-132.81066902216784,-10.706964767003905,-41.67270371214475,-0.1576,-0.9164,-0.0933,-0.3557
55,760020.0,724.203533,1.0,3.65,2.32,-5.42,-19.37,-29.75,20.37,44.56,-41.31,-1.19,-0.8940492491854561,-0.07518204225996583,2.9308719639845453,-132.81066902216784,-10.706964767003905,-41.67270371214475,-0.1576,-0.9164,-0.0933,-0.3557
56,760053.0,724.2632150000001,1.0,5.45,3.95,-7.29,-19.37,-29.75,20.37,38.5,-34.0,-14.19,-0.5310966291037359,0.6225115622187931,-0.08170252837693681,-134.0866361818657,-11.167427069301608,-40.54677652678586,-0.1505,-0.9208,-0.0973,-0.3465
57,760053.0,724.2632150000001,1.0,5.45,3.95,-7.29,-19.37,-29.75,20.37,38.5,-34.0,-14.19,-0.5310966291037359,0.6225115622187931,-0.08170252837693681,-134.0866361818657,-11.167427069301608,-40.54677652678586,-0.1505,-0.9208,-0.0973,-0.3465
58,760090.0,724.324984,1.0,3.82,2.07,-6.87,-17.06,-29.87,22.0,80.19,-42.25,-22.06,-1.2995550074757478,-0.3892584532473443,1.7920486600005994,-136.06616582647524,-12.630631138714767,-38.707543665525726,-0.1346,-0.9274,-0.11,-0.3314
59,760090.0,724.324984,1.0,3.82,2.07,-6.87,-17.06,-29.87,22.0,80.19,-42.25,-22.06,-1.2995550074757478,-0.3892584532473443,1.7920486600005994,-136.06616582647524,-12.630631138714767,-38.707543665525726,-0.1346,-0.9274,-0.11,-0.3314
60,760125.0,724.3456150000001,1.0,3.77,1.72,-6.5,-16.06,-28.37,24.37,74.06,-31.31,-15.5,-0.9182923224583908,-0.4227558364424411,2.1647054363913494,-137.5924585129037,-13.93427040697098,-37.35004092959612,-0.1168,-0.9323,-0.1213,-0.3202
61,760125.0,724.3456150000001,1.0,3.77,1.72,-6.5,-16.06,-28.37,24.37,74.06,-31.31,-15.5,-0.9182923224583908,-0.4227558364424411,2.1647054363913494,-137.5924585129037,-13.93427040697098,-37.35004092959612,-0.1168,-0.9323,-0.1213,-0.3202
62,760160.0,724.3484030000001,1.0,4.68,1.97,-7.08,-16.06,-28.37,24.37,57.69,-20.56,-38.75,-0.29126985449738035,-0.3822556183487513,1.1072970060066023,-138.7806141249359,-15.551935573755918,-35.9377135193296,-0.1019,-0.9359999999999999,-0.1353,-0.3085
63,760160.0,724.3484030000001,1.0,4.68,1.97,-7.08,-16.06,-28.37,24.37,57.69,-20.56,-38.75,-0.29126985449738035,-0.3822556183487513,1.1072970060066023,-138.7806141249359,-15.551935573755918,-35.9377135193296,-0.1019,-0.9359999999999999,-0.1353,-0.3085
64,760195.0,724.384642,1.0,4.31,1.93,-7.8,-14.19,-27.25,27.37,42.69,-12.38,-53.19,-0.8408880078664984,-0.32912277151529823,0.7333052165424458,-138.74807199122864,-18.193261198253683,-34.9993031752255,-0.0928,-0.9359,-0.1581,-0.3007
65,760195.0,724.384642,1.0,4.31,1.93,-7.8,-14.19,-27.25,27.37,42.69,-12.38,-53.19,-0.8408880078664984,-0.32912277151529823,0.7333052165424458,-138.74807199122864,-18.193261198253683,-34.9993031752255,-0.0928,-0.9359,-0.1581,-0.3007
66,760231.0,724.436019,1.0,3.78,1.97,-7.64,-13.06,-26.56,27.75,40.31,-17.69,-36.5,-1.0048761479001818,-0.042714290351802964,1.1160056385742596,-138.74807199122864,-19.889680039418103,-34.267106355147284,-0.086,-0.9359,-0.1727,-0.2946
67,760231.0,724.436019,1.0,3.78,1.97,-7.64,-13.06,-26.56,27.75,40.31,-17.69,-36.5,-1.0048761479001818,-0.042714290351802964,1.1160056385742596,-138.74807199122864,-19.889680039418103,-34.267106355147284,-0.086,-0.9359,-0.1727,-0.2946
68,760266.0,724.492369,1.0,4.66,4.15,-7.88,-13.06,-26.56,27.75,30.75,-13.25,-36.94,0.3130532400091622,1.634878926774025,-0.10605238450191656,-138.94369485234358,-21.019168663575197,-33.488479867763736,-0.0814,-0.9365,-0.1824,-0.2881
69,760266.0,724.492369,1.0,4.66,4.15,-7.88,-13.06,-26.56,27.75,30.75,-13.25,-36.94,0.3130532400091622,1.634878926774025,-0.10605238450191656,-138.94369485234358,-21.019168663575197,-33.488479867763736,-0.0814,-0.9365,-0.1824,-0.2881
70,760301.0,724.509289,1.0,4.87,1.14,-7.71,-12.25,-26.56,29.06,65.87,4.75,-83.06,-0.24090227248697035,-1.2039868338462003,0.6987972454241067,-137.87852272532075,-24.186105170420962,-32.8547775548023,-0.0724,-0.9332,-0.2095,-0.2828
71,760301.0,724.509289,1.0,4.87,1.14,-7.71,-12.25,-26.56,29.06,65.87,4.75,-83.06,-0.24090227248697035,-1.2039868338462003,0.6987972454241067,-137.87852272532075,-24.186105170420962,-32.8547775548023,-0.0724,-0.9332,-0.2095,-0.2828
72,760336.0,724.54738,1.0,4.71,0.15,-7.91,-10.5,-25.5,29.06,32.13,14.5,-47.56,-0.8743432020631496,-1.9544584155394105,0.8517454071563009,-136.43524351543036,-26.78257750270593,-32.84283089936096,-0.0632,-0.9286,-0.2316,-0.2827
73,760336.0,724.54738,1.0,4.71,0.15,-7.91,-10.5,-25.5,29.06,32.13,14.5,-47.56,-0.8743432020631496,-1.9544584155394105,0.8517454071563009,-136.43524351543036,-26.78257750270593,-32.84283089936096,-0.0632,-0.9286,-0.2316,-0.2827
74,760373.0,724.565957,1.0,5.53,2.77,-8.52,-9.25,-24.37,30.69,5.88,18.5,-15.38,0.3566654044875293,0.01632728601720923,-0.7155514430903676,-135.79128033679729,-27.348324709600163,-33.2731430190265,-0.0609,-0.9265,-0.2364,-0.2863
75,760373.0,724.565957,1.0,5.53,2.77,-8.52,-9.25,-24.37,30.69,5.88,18.5,-15.38,0.3566654044875293,0.01632728601720923,-0.7155514430903676,-135.79128033679729,-27.348324709600163,-33.2731430190265,-0.0609,-0.9265,-0.2364,-0.2863
76,760406.0,724.620564,1.0,5.33,1.29,-8.31,-9.25,-24.37,30.69,20.5,6.69,-39.94,-0.3088252650305625,-1.2175321339092382,-0.07015831334582501,-134.7671460925717,-28.848522447292034,-33.380796277367786,-0.0585,-0.9231,-0.2491,-0.2872
77,760406.0,724.620564,1.0,5.33,1.29,-8.31,-9.25,-24.37,30.69,20.5,6.69,-39.94,-0.3088252650305625,-1.2175321339092382,-0.07015831334582501,-134.7671460925717,-28.848522447292034,-33.380796277367786,-0.0585,-0.9231,-0.2491,-0.2872
78,760442.0,724.674635,1.0,5.34,1.83,-8.27,-9.25,-24.37,30.75,12.75,4.56,-19.25,-0.046368672218613634,-0.7750648533957386,-0.17606127596442356,-134.2337582296838,-29.72497078004789,-33.32098517464778,-0.0571,-0.9213,-0.2565,-0.2867
79,760442.0,724.674635,1.0,5.34,1.83,-8.27,-9.25,-24.37,30.75,12.75,4.56,-19.25,-0.046368672218613634,-0.7750648533957386,-0.17606127596442356,-134.2337582296838,-29.72497078004789,-33.32098517464778,-0.0571,-0.9213,-0.2565,-0.2867
80,760479.0,724.689035,1.0,5.8,1.89,-8.2,-9.0,-24.75,31.19,12.81,4.81,-10.75,0.3427045510493733,-0.931991545730239,-0.36517605776255735,-133.82293398949477,-30.34191613696452,-33.3449084936511,-0.0538,-0.9199,-0.2617,-0.2869
81,760479.0,724.689035,1.0,5.8,1.89,-8.2,-9.0,-24.75,31.19,12.81,4.81,-10.75,0.3427045510493733,-0.931991545730239,-0.36517605776255735,-133.82293398949477,-30.34191613696452,-33.3449084936511,-0.0538,-0.9199,-0.2617,-0.2869
82,760512.0,724.697333,1.0,5.82,1.71,-8.21,-9.0,-24.75,31.19,8.19,1.0,-17.12,0.2730663692802447,-1.1110552996686165,-0.33689922495309155,-133.53159111803808,-30.86465043933479,-33.285102998046874,-0.0529,-0.9189,-0.2661,-0.2864
83,760512.0,724.697333,1.0,5.82,1.71,-8.21,-9.0,-24.75,31.19,8.19,1.0,-17.12,0.2730663692802447,-1.1110552996686165,-0.33689922495309155,-133.53159111803808,-30.86465043933479,-33.285102998046874,-0.0529,-0.9189,-0.2661,-0.2864
84,760547.0,724.734787,1.0,5.54,1.7,-8.22,-8.56,-24.0,31.69,4.88,-1.37,-9.75,0.06551064092400867,-0.9108542639271257,-0.20914017680639674,-133.21309386328863,-31.292831778140112,-33.380796277367786,-0.0485,-0.9178,-0.2697,-0.2872
85,760547.0,724.734787,1.0,5.54,1.7,-8.22,-8.56,-24.0,31.69,4.88,-1.37,-9.75,0.06551064092400867,-0.9108542639271257,-0.20914017680639674,-133.21309386328863,-31.292831778140112,-33.380796277367786,-0.0485,-0.9178,-0.2697,-0.2872
86,760582.0,724.7923099999999,1.0,5.23,2.26,-8.23,-7.75,-23.25,32.38,-1.19,-9.5,-0.75,0.13238731545617746,-0.2533381207016259,-0.19893311120874732,-133.12658560187518,-31.554718508036178,-33.285102998046874,-0.0465,-0.9175,-0.2719,-0.2864
87,760582.0,724.7923099999999,1.0,5.23,2.26,-8.23,-7.75,-23.25,32.38,-1.19,-9.5,-0.75,0.13238731545617746,-0.2533381207016259,-0.19893311120874732,-133.12658560187518,-31.554718508036178,-33.285102998046874,-0.0465,-0.9175,-0.2719,-0.2864
88,760619.0,724.809997,1.0,5.0,2.31,-8.1,-7.75,-23.25,32.38,-0.88,-8.63,-3.25,0.1095036079901656,-0.12927005533654867,0.01290719080644287,-133.32867360141205,-31.56662645811723,-33.01011755272957,-0.0475,-0.9182,-0.272,-0.2841
89,760619.0,724.809997,1.0,5.0,2.31,-8.1,-7.75,-23.25,32.38,-0.88,-8.63,-3.25,0.1095036079901656,-0.12927005533654867,0.01290719080644287,-133.32867360141205,-31.56662645811723,-33.01011755272957,-0.0475,-0.9182,-0.272,-0.2841
90,760651.0,724.857077,1.0,4.74,2.09,-8.11,-8.19,-23.56,32.0,-0.06,-3.13,-3.5,-0.15933701160583155,-0.21197847783114632,0.18700983824400552,-133.27085000109963,-31.804859125621785,-32.84283089936096,-0.0484,-0.9179999999999999,-0.27399999999999997,-0.2827
91,760651.0,724.857077,1.0,4.74,2.09,-8.11,-8.19,-23.56,32.0,-0.06,-3.13,-3.5,-0.15933701160583155,-0.21197847783114632,0.18700983824400552,-133.27085000109963,-31.804859125621785,-32.84283089936096,-0.0484,-0.9179999999999999,-0.27399999999999997,-0.2827
92,760686.0,724.921224,1.0,4.67,2.0,-7.79,-7.88,-23.37,32.19,-3.0,2.0,-2.06,-0.09055868957883488,-0.28853259240377005,0.511406696736632,-133.06899702903365,-31.99554685526558,-32.902567850463264,-0.049,-0.9173,-0.2756,-0.2832
93,760686.0,724.921224,1.0,4.67,2.0,-7.79,-7.88,-23.37,32.19,-3.0,2.0,-2.06,-0.09055868957883488,-0.28853259240377005,0.511406696736632,-133.06899702903365,-31.99554685526558,-32.902567850463264,-0.049,-0.9173,-0.2756,-0.2832
94,760723.0,724.940048,1.0,5.09,2.89,-8.14,-7.5,-24.5,30.75,-15.25,8.63,-0.94,0.37033254618809497,0.2415625690464576,-0.2095519413782565,-132.86795984370113,-31.924028325694472,-33.20139097173225,-0.051,-0.9166,-0.275,-0.2857
95,760723.0,724.940048,1.0,5.09,2.89,-8.14,-7.5,-24.5,30.75,-15.25,8.63,-0.94,0.37033254618809497,0.2415625690464576,-0.2095519413782565,-132.86795984370113,-31.924028325694472,-33.20139097173225,-0.051,-0.9166,-0.275,-0.2857
96,760756.0,724.943672,1.0,4.95,2.33,-8.38,-7.5,-24.5,30.75,-3.06,4.0,-6.88,-0.1824455777117133,-0.1769445918475263,-0.1979091718270816,-132.5251927099627,-32.067078184397204,-33.46454755353707,-0.0532,-0.9154,-0.2762,-0.2879
97,760756.0,724.943672,1.0,4.95,2.33,-8.38,-7.5,-24.5,30.75,-3.06,4.0,-6.88,-0.1824455777117133,-0.1769445918475263,-0.1979091718270816,-132.5251927099627,-32.067078184397204,-33.46454755353707,-0.0532,-0.9154,-0.2762,-0.2879
98,760793.0,724.984439,1.0,4.9,2.55,-8.43,-7.75,-24.37,30.75,-4.63,4.81,-1.0,-0.1670769126650786,0.019978947437470532,-0.2705066499143793,-132.41145409892673,-32.09092481112806,-33.58422417640036,-0.0544,-0.915,-0.2764,-0.2889
99,760793.0,724.984439,1.0,4.9,2.55,-8.43,-7.75,-24.37,30.75,-4.63,4.81,-1.0,-0.1670769126650786,0.019978947437470532,-0.2705066499143793,-132.41145409892673,-32.09092481112806,-33.58422417640036,-0.0544,-0.915,-0.2764,-0.2889
100,760827.0,725.04404,1.0,4.89,2.43,-8.22,-7.5,-24.75,30.75,-3.56,3.25,-1.25,-0.13951704961490013,-0.08987382923213927,-0.06035854806997242,-132.29797094336487,-32.10284865965952,-33.727885940809074,-0.0548,-0.9146,-0.2765,-0.2901
101,760827.0,725.04404,1.0,4.89,2.43,-8.22,-7.5,-24.75,30.75,-3.56,3.25,-1.25,-0.13951704961490013,-0.08987382923213927,-0.06035854806997242,-132.29797094336487,-32.10284865965952,-33.727885940809074,-0.0548,-0.9146,-0.2765,-0.2901
102,760862.0,725.060522,1.0,4.99,2.2,-8.1,-7.5,-24.75,30.75,-3.69,1.88,-3.13,-0.13795739087290665,-0.3618792756064426,0.04959557009185645,-132.1847414191665,-32.114772865183184,-33.83566809114509,-0.055999999999999994,-0.9142,-0.2766,-0.29100000000000004
103,760862.0,725.060522,1.0,4.99,2.2,-8.1,-7.5,-24.75,30.75,-3.69,1.88,-3.13,-0.13795739087290665,-0.3618792756064426,0.04959557009185645,-132.1847414191665,-32.114772865183184,-33.83566809114509,-0.055999999999999994,-0.9142,-0.2766,-0.29100000000000004
104,760895.0,725.1066139999999,1.0,4.75,2.44,-8.2,-8.19,-25.06,30.75,-11.94,2.25,-0.81,-0.2890957322320117,-0.06589450717724565,0.025638724496371168,-132.01536875371886,-32.067078184397204,-34.015373611081245,-0.0588,-0.9136,-0.2762,-0.2925
105,760895.0,725.1066139999999,1.0,4.75,2.44,-8.2,-8.19,-25.06,30.75,-11.94,2.25,-0.81,-0.2890957322320117,-0.06589450717724565,0.025638724496371168,-132.01536875371886,-32.067078184397204,-34.015373611081245,-0.0588,-0.9136,-0.2762,-0.2925
106,760932.0,725.128259,1.0,4.86,2.9,-8.17,-7.5,-24.37,31.25,-12.06,4.25,2.63,-0.031119049045709862,0.2355488485510395,-0.1292469572320325,-131.84655671079122,-32.01938920775377,-34.24312448272413,-0.0608,-0.9129999999999999,-0.2758,-0.2944
107,760932.0,725.128259,1.0,4.86,2.9,-8.17,-7.5,-24.37,31.25,-12.06,4.25,2.63,-0.031119049045709862,0.2355488485510395,-0.1292469572320325,-131.84655671079122,-32.01938920775377,-34.24312448272413,-0.0608,-0.9129999999999999,-0.2758,-0.2944
108,760967.0,725.170846,1.0,4.94,2.76,-8.32,-7.5,-24.37,31.25,-5.69,-0.12,-4.06,-0.16375287339299036,0.04738278175581079,-0.2538937163430006,-131.70630400699523,-32.01938920775377,-34.375043949019776,-0.063,-0.9125,-0.2758,-0.2955
109,760967.0,725.170846,1.0,4.94,2.76,-8.32,-7.5,-24.37,31.25,-5.69,-0.12,-4.06,-0.16375287339299036,0.04738278175581079,-0.2538937163430006,-131.70630400699523,-32.01938920775377,-34.375043949019776,-0.063,-0.9125,-0.2758,-0.2955
110,761001.0,725.188028,1.0,4.8,2.67,-8.09,-7.5,-25.06,29.56,-6.63,-0.69,-0.88,-0.17864397298490525,0.0016692137936145102,0.029887573478557524,-131.67829939723129,-32.031310917714855,-34.375043949019776,-0.0649,-0.9124,-0.2759,-0.2955
111,761001.0,725.188028,1.0,4.8,2.67,-8.09,-7.5,-25.06,29.56,-6.63,-0.69,-0.88,-0.17864397298490525,0.0016692137936145102,0.029887573478557524,-131.67829939723129,-32.031310917714855,-34.375043949019776,-0.0649,-0.9124,-0.2759,-0.2955
112,761034.0,725.253095,1.0,4.89,3.11,-7.97,-9.0,-25.5,30.75,-6.75,1.81,1.69,0.1339769951289784,0.29759255190389444,-0.04213616063053571,-131.67829939723129,-31.91210981272961,-34.44701981345315,-0.0665,-0.9124,-0.2749,-0.2961
113,761034.0,725.253095,1.0,4.89,3.11,-7.97,-9.0,-25.5,30.75,-6.75,1.81,1.69,0.1339769951289784,0.29759255190389444,-0.04213616063053571,-131.67829939723129,-31.91210981272961,-34.44701981345315,-0.0665,-0.9124,-0.2749,-0.2961
114,761071.0,725.2975150000001,1.0,5.16,2.96,-8.35,-7.75,-25.5,28.25,-4.25,-0.69,-4.56,-0.0028541671671081514,0.012615027339252459,-0.44564402206232856,-131.53850453910292,-31.90019165418321,-34.555009904291715,-0.0683,-0.9119,-0.2748,-0.297
115,761071.0,725.2975150000001,1.0,5.16,2.96,-8.35,-7.75,-25.5,28.25,-4.25,-0.69,-4.56,-0.0028541671671081514,0.012615027339252459,-0.44564402206232856,-131.53850453910292,-31.90019165418321,-34.555009904291715,-0.0683,-0.9119,-0.2748,-0.297
116,761106.0,725.304304,1.0,4.82,2.76,-8.11,-7.75,-25.5,28.25,-4.44,-0.12,-3.38,-0.1929973182514592,-0.009855983593303641,-0.02110431595312079,-131.45480922787246,-31.98362621241675,-34.555009904291715,-0.0697,-0.9116,-0.2755,-0.297
117,761106.0,725.304304,1.0,4.82,2.76,-8.11,-7.75,-25.5,28.25,-4.44,-0.12,-3.38,-0.1929973182514592,-0.009855983593303641,-0.02110431595312079,-131.45480922787246,-31.98362621241675,-34.555009904291715,-0.0697,-0.9116,-0.2755,-0.297
118,761141.0,725.32308,1.0,4.9,3.11,-8.04,-8.19,-26.25,29.56,-4.5,2.69,1.31,0.04003929300000225,0.22671710238010226,-0.10650773154570814,-131.4269409010407,-31.888273849894752,-34.65102767354547,-0.0708,-0.9115,-0.2747,-0.2978
119,761141.0,725.32308,1.0,4.9,3.11,-8.04,-8.19,-26.25,29.56,-4.5,2.69,1.31,0.04003929300000225,0.22671710238010226,-0.10650773154570814,-131.4269409010407,-31.888273849894752,-34.65102767354547,-0.0708,-0.9115,-0.2747,-0.2978
120,761176.0,725.373816,1.0,5.2,2.9,-7.96,-8.19,-25.87,29.5,-3.19,4.44,-4.88,0.16391447694267386,-0.12406696269441952,-0.13162648201721086,-131.2600452849924,-31.959785992705626,-34.795101425948374,-0.0714,-0.9109,-0.2753,-0.299
121,761176.0,725.373816,1.0,5.2,2.9,-7.96,-8.19,-25.87,29.5,-3.19,4.44,-4.88,0.16391447694267386,-0.12406696269441952,-0.13162648201721086,-131.2600452849924,-31.959785992705626,-34.795101425948374,-0.0714,-0.9109,-0.2753,-0.299
122,761210.0,725.422247,1.0,4.95,2.89,-7.98,-8.19,-25.87,29.5,-7.88,4.88,-3.0,-0.06724974879985834,-0.02652155581631677,-0.018306696004488643,-131.01070305716067,-32.031310917714855,-35.01131860953798,-0.0734,-0.91,-0.2759,-0.3008
123,761210.0,725.422247,1.0,4.95,2.89,-7.98,-8.19,-25.87,29.5,-7.88,4.88,-3.0,-0.06724974879985834,-0.02652155581631677,-0.018306696004488643,-131.01070305716067,-32.031310917714855,-35.01131860953798,-0.0734,-0.91,-0.2759,-0.3008
124,761245.0,725.43944,1.0,5.14,2.9,-8.36,-8.19,-25.87,29.56,-4.25,4.13,-2.94,-0.19779696923871654,-0.12576032088093436,-0.4239052488929911,-130.79006103529238,-32.09092481112806,-35.191597906700245,-0.0745,-0.9092,-0.2764,-0.3023
125,761245.0,725.43944,1.0,5.14,2.9,-8.36,-8.19,-25.87,29.56,-4.25,4.13,-2.94,-0.19779696923871654,-0.12576032088093436,-0.4239052488929911,-130.79006103529238,-32.09092481112806,-35.191597906700245,-0.0745,-0.9092,-0.2764,-0.3023
126,761282.0,725.481608,1.0,4.96,3.0,-7.94,-8.56,-26.25,30.0,-2.38,0.31,-2.0,-0.037535060478123744,0.025807648104404723,-0.02407352802855556,-130.70755912152916,-32.114772865183184,-35.23968756061282,-0.0755,-0.9089,-0.2766,-0.3027
127,761282.0,725.481608,1.0,4.96,3.0,-7.94,-8.56,-26.25,30.0,-2.38,0.31,-2.0,-0.037535060478123744,0.025807648104404723,-0.02407352802855556,-130.70755912152916,-32.114772865183184,-35.23968756061282,-0.0755,-0.9089,-0.2766,-0.3027
128,761315.0,725.5439980000001,1.0,4.93,2.88,-7.9,-8.56,-26.25,30.0,-4.88,1.31,-1.75,-0.09953628962463593,-0.07559118903089379,0.06017994673513982,-130.65262969629032,-32.150547625319554,-35.27575900730597,-0.0764,-0.9087,-0.2769,-0.303
129,761315.0,725.5439980000001,1.0,4.93,2.88,-7.9,-8.56,-26.25,30.0,-4.88,1.31,-1.75,-0.09953628962463593,-0.07559118903089379,0.06017994673513982,-130.65262969629032,-32.150547625319554,-35.27575900730597,-0.0764,-0.9087,-0.2769,-0.303
130,761350.0,725.6045320000001,1.0,4.96,3.11,-8.1,-6.75,-26.56,29.69,-5.38,4.75,-0.25,-0.13612018314855948,0.09386672401031236,-0.18616543579502046,-130.40615307468192,-32.19825231317595,-35.49226367203929,-0.0774,-0.9078,-0.2773,-0.3048
131,761350.0,725.6045320000001,1.0,4.96,3.11,-8.1,-6.75,-26.56,29.69,-5.38,4.75,-0.25,-0.13612018314855948,0.09386672401031236,-0.18616543579502046,-130.40615307468192,-32.19825231317595,-35.49226367203929,-0.0774,-0.9078,-0.2773,-0.3048
132,761384.0,725.612391,1.0,5.02,3.11,-8.05,-7.5,-26.25,28.75,-3.13,-0.88,-1.56,-0.07926480002441036,0.045588929745632,-0.17666802262964154,-130.35153620627273,-32.222106806155665,-35.540393572715686,-0.0782,-0.9076,-0.2775,-0.3052
133,761384.0,725.612391,1.0,5.02,3.11,-8.05,-7.5,-26.25,28.75,-3.13,-0.88,-1.56,-0.07926480002441036,0.045588929745632,-0.17666802262964154,-130.35153620627273,-32.222106806155665,-35.540393572715686,-0.0782,-0.9076,-0.2775,-0.3052
134,761421.0,725.633853,1.0,5.02,2.82,-7.96,-7.75,-27.37,28.75,-3.88,-1.5,-0.63,-0.15655674875425318,-0.21629681399830306,-0.013895080222056322,-130.3788376016962,-32.222106806155665,-35.504295540348124,-0.0791,-0.9077,-0.2775,-0.3049
135,761421.0,725.633853,1.0,5.02,2.82,-7.96,-7.75,-27.37,28.75,-3.88,-1.5,-0.63,-0.15655674875425318,-0.21629681399830306,-0.013895080222056322,-130.3788376016962,-32.222106806155665,-35.504295540348124,-0.0791,-0.9077,-0.2775,-0.3049
136,761454.0,725.676209,1.0,4.89,2.99,-7.85,-7.75,-27.37,28.75,-5.44,-2.06,-0.94,-0.10169358628064368,-0.02743713513680768,0.0874110576689251,-130.3788376016962,-32.162473260424385,-35.46820114810156,-0.0804,-0.9077,-0.27699999999999997,-0.3046
137,761454.0,725.676209,1.0,4.89,2.99,-7.85,-7.75,-27.37,28.75,-5.44,-2.06,-0.94,-0.10169358628064368,-0.02743713513680768,0.0874110576689251,-130.3788376016962,-32.162473260424385,-35.46820114810156,-0.0804,-0.9077,-0.27699999999999997,-0.3046
138,761491.0,725.683372,1.0,5.19,3.3,-8.19,-7.5,-27.0,29.19,0.0,-3.38,0.63,0.02447018779257759,0.04532132116792553,-0.4353979977276517,-130.3788376016962,-32.126697427860236,-35.46820114810156,-0.08199999999999999,-0.9077,-0.2767,-0.3046
139,761491.0,725.683372,1.0,5.19,3.3,-8.19,-7.5,-27.0,29.19,0.0,-3.38,0.63,0.02447018779257759,0.04532132116792553,-0.4353979977276517,-130.3788376016962,-32.126697427860236,-35.46820114810156,-0.08199999999999999,-0.9077,-0.2767,-0.3046
140,761526.0,725.745595,1.0,4.63,3.15,-7.6,-8.19,-26.25,30.25,-2.5,-5.44,-0.06,-0.03400449769037128,0.2044420390644401,0.36861804694961897,-130.4881841928668,-32.150547625319554,-35.287783624982225,-0.0823,-0.9081,-0.2769,-0.3031
141,761526.0,725.745595,1.0,4.63,3.15,-7.6,-8.19,-26.25,30.25,-2.5,-5.44,-0.06,-0.03400449769037128,0.2044420390644401,0.36861804694961897,-130.4881841928668,-32.150547625319554,-35.287783624982225,-0.0823,-0.9081,-0.2769,-0.3031
142,761561.0,725.7641570000001,1.0,4.89,2.95,-8.05,-8.19,-26.25,30.25,-3.94,1.69,0.25,-0.234916252738546,-0.10853428540968137,-0.05996718437935121,-130.40615307468192,-32.162473260424385,-35.34791273696944,-0.083,-0.9078,-0.27699999999999997,-0.3036
143,761561.0,725.7641570000001,1.0,4.89,2.95,-8.05,-8.19,-26.25,30.25,-3.94,1.69,0.25,-0.234916252738546,-0.10853428540968137,-0.05996718437935121,-130.40615307468192,-32.162473260424385,-35.34791273696944,-0.083,-0.9078,-0.27699999999999997,-0.3036
144,761595.0,725.807226,1.0,4.91,3.26,-8.02,-8.19,-27.0,30.0,-0.88,3.19,-0.88,-0.08083075278028938,0.13129322972601146,-0.14484880556858926,-130.35153620627273,-32.150547625319554,-35.43211039129503,-0.0836,-0.9076,-0.2769,-0.3043
145,761595.0,725.807226,1.0,4.91,3.26,-8.02,-8.19,-27.0,30.0,-0.88,3.19,-0.88,-0.08083075278028938,0.13129322972601146,-0.14484880556858926,-130.35153620627273,-32.150547625319554,-35.43211039129503,-0.0836,-0.9076,-0.2769,-0.3043
146,761632.0,725.867292,1.0,5.11,3.28,-8.0,-7.5,-27.37,28.75,-0.31,1.37,-1.06,0.05658731891082582,0.03896708525808257,-0.2365456787471309,-130.26971625278716,-32.18632560419117,-35.528360490512846,-0.0836,-0.9073,-0.2772,-0.3051
147,761632.0,725.867292,1.0,5.11,3.28,-8.0,-7.5,-27.37,28.75,-0.31,1.37,-1.06,0.05658731891082582,0.03896708525808257,-0.2365456787471309,-130.26971625278716,-32.18632560419117,-35.528360490512846,-0.0836,-0.9073,-0.2772,-0.3051
148,761665.0,725.885169,1.0,4.92,2.97,-7.92,-7.5,-27.37,28.75,0.12,-1.0,-1.06,-0.15811516958622093,-0.11994162858728495,0.02328076446163152,-130.24247093533856,-32.222106806155665,-35.504295540348124,-0.0837,-0.9072,-0.2775,-0.3049
149,761665.0,725.885169,1.0,4.92,2.97,-7.92,-7.5,-27.37,28.75,0.12,-1.0,-1.06,-0.15811516958622093,-0.11994162858728495,0.02328076446163152,-130.24247093533856,-32.222106806155665,-35.504295540348124,-0.0837,-0.9072,-0.2775,-0.3049
150,761700.0,725.8885889999999,1.0,4.94,3.06,-7.99,-8.56,-26.56,29.56,-1.94,2.25,2.38,-0.15715949784569705,-0.052340027461370335,-0.07160194119699702,-130.24247093533856,-32.150547625319554,-35.56446095223015,-0.0839,-0.9072,-0.2769,-0.3054
151,761700.0,725.8885889999999,1.0,4.94,3.06,-7.99,-8.56,-26.56,29.56,-1.94,2.25,2.38,-0.15715949784569705,-0.052340027461370335,-0.07160194119699702,-130.24247093533856,-32.150547625319554,-35.56446095223015,-0.0839,-0.9072,-0.2769,-0.3054
152,761735.0,725.931191,1.0,5.03,3.12,-7.93,-7.75,-27.0,28.75,-1.56,1.37,-2.19,-0.05230882602417058,-0.060667067421877004,-0.08848937717152339,-130.16081866157813,-32.150547625319554,-35.64870955741132,-0.0845,-0.9069,-0.2769,-0.3061
153,761735.0,725.931191,1.0,5.03,3.12,-7.93,-7.75,-27.0,28.75,-1.56,1.37,-2.19,-0.05230882602417058,-0.060667067421877004,-0.08848937717152339,-130.16081866157813,-32.150547625319554,-35.64870955741132,-0.0845,-0.9069,-0.2769,-0.3061
154,761767.0,725.993274,1.0,4.98,3.11,-7.87,-7.75,-27.0,28.75,-1.19,0.0,-0.44,-0.05734856737333899,-0.04841979720948242,-0.011891982649890664,-130.13362905346793,-32.17439925332779,-35.66074669721593,-0.0848,-0.9068,-0.2771,-0.3062
155,761767.0,725.993274,1.0,4.98,3.11,-7.87,-7.75,-27.0,28.75,-1.19,0.0,-0.44,-0.05734856737333899,-0.04841979720948242,-0.011891982649890664,-130.13362905346793,-32.17439925332779,-35.66074669721593,-0.0848,-0.9068,-0.2771,-0.3062
156,761802.0,726.011603,1.0,5.11,3.13,-8.09,-8.19,-27.37,28.37,0.0,0.88,0.12,-0.1030841182655544,-0.10118520740345094,-0.2599400491856816,-130.13362905346793,-32.114772865183184,-35.696860557625506,-0.0851,-0.9068,-0.2766,-0.3065
157,761802.0,726.011603,1.0,5.11,3.13,-8.09,-8.19,-27.37,28.37,0.0,0.88,0.12,-0.1030841182655544,-0.10118520740345094,-0.2599400491856816,-130.13362905346793,-32.114772865183184,-35.696860557625506,-0.0851,-0.9068,-0.2766,-0.3065
158,761837.0,726.0599950000001,1.0,4.94,3.23,-7.88,-7.75,-27.0,29.19,-0.12,-4.56,1.56,-0.032694609223987564,0.06845680709343638,-0.038406867692042816,-130.2152395796288,-32.07900131942766,-35.624636497255686,-0.0853,-0.9071,-0.2763,-0.3059
159,761837.0,726.0599950000001,1.0,4.94,3.23,-7.88,-7.75,-27.0,29.19,-0.12,-4.56,1.56,-0.032694609223987564,0.06845680709343638,-0.038406867692042816,-130.2152395796288,-32.07900131942766,-35.624636497255686,-0.0853,-0.9071,-0.2763,-0.3059
160,761872.0,726.077284,1.0,4.92,3.16,-7.87,-8.19,-27.0,29.19,-1.25,-0.31,-0.44,-0.06594093308637491,0.012536326630092631,0.002345096853710871,-130.24247093533856,-32.067078184397204,-35.57649524988903,-0.0857,-0.9072,-0.2762,-0.3055
161,761872.0,726.077284,1.0,4.92,3.16,-7.87,-8.19,-27.0,29.19,-1.25,-0.31,-0.44,-0.06594093308637491,0.012536326630092631,0.002345096853710871,-130.24247093533856,-32.067078184397204,-35.57649524988903,-0.0857,-0.9072,-0.2762,-0.3055
162,761905.0,726.1387139999999,1.0,4.9,3.15,-7.88,-8.19,-27.0,29.19,0.25,-0.37,1.5,-0.08928914558372164,0.017777942860843776,0.007741316211347994,-130.24247093533856,-32.055155405875595,-35.57649524988903,-0.0856,-0.9072,-0.2761,-0.3055
163,761905.0,726.1387139999999,1.0,4.9,3.15,-7.88,-8.19,-27.0,29.19,0.25,-0.37,1.5,-0.08928914558372164,0.017777942860843776,0.007741316211347994,-130.24247093533856,-32.055155405875595,-35.57649524988903,-0.0856,-0.9072,-0.2761,-0.3055
164,761942.0,726.141834,1.0,4.8,3.15,-7.82,-8.19,-26.25,28.69,-2.13,2.63,-2.44,-0.13456490982534675,0.07101893346473842,0.10655986659746476,-130.18802216268048,-32.04323298370182,-35.66074669721593,-0.0859,-0.907,-0.276,-0.3062
165,761942.0,726.141834,1.0,4.8,3.15,-7.82,-8.19,-26.25,28.69,-2.13,2.63,-2.44,-0.13456490982534675,0.07101893346473842,0.10655986659746476,-130.18802216268048,-32.04323298370182,-35.66074669721593,-0.0859,-0.907,-0.276,-0.3062
166,761976.0,726.186158,1.0,4.89,3.03,-7.85,-7.5,-27.75,29.69,-6.31,3.88,-3.81,-0.17130524134491298,-0.09791177980759792,0.07646152301443543,-130.02500909601727,-32.126697427860236,-35.76909927860193,-0.087,-0.9064,-0.2767,-0.3071
167,761976.0,726.186158,1.0,4.89,3.03,-7.85,-7.5,-27.75,29.69,-6.31,3.88,-3.81,-0.17130524134491298,-0.09791177980759792,0.07646152301443543,-130.02500909601727,-32.126697427860236,-35.76909927860193,-0.087,-0.9064,-0.2767,-0.3071
168,762009.0,726.2499320000001,1.0,4.91,3.04,-7.93,-7.5,-27.75,29.69,-2.13,0.19,1.94,-0.21314378203983145,-0.10545064466559673,-0.0003908324691597187,-130.02500909601727,-32.067078184397204,-35.817266589294526,-0.0876,-0.9064,-0.2762,-0.3075
169,762009.0,726.2499320000001,1.0,4.91,3.04,-7.93,-7.5,-27.75,29.69,-2.13,0.19,1.94,-0.21314378203983145,-0.10545064466559673,-0.0003908324691597187,-130.02500909601727,-32.067078184397204,-35.817266589294526,-0.0876,-0.9064,-0.2762,-0.3075
170,762046.0,726.268232,1.0,4.82,3.15,-7.91,-7.5,-26.56,28.0,-3.69,1.94,-0.69,-0.22552167586048305,0.027347873728772683,0.0254746070566938,-129.97078188553854,-32.031310917714855,-35.877484931095594,-0.0883,-0.9062,-0.2759,-0.308
171,762046.0,726.268232,1.0,4.82,3.15,-7.91,-7.5,-26.56,28.0,-3.69,1.94,-0.69,-0.22552167586048305,0.027347873728772683,0.0254746070566938,-129.97078188553854,-32.031310917714855,-35.877484931095594,-0.0883,-0.9062,-0.2759,-0.308
172,762081.0,726.271443,1.0,4.96,3.31,-7.92,-7.75,-27.0,28.0,-4.5,1.0,-2.75,-0.08906885408095461,0.05676647260327127,-0.10662112041332604,-129.86249210271768,-32.067078184397204,-35.94976046847315,-0.0898,-0.9058,-0.2762,-0.3086
173,762081.0,726.271443,1.0,4.96,3.31,-7.92,-7.75,-27.0,28.0,-4.5,1.0,-2.75,-0.08906885408095461,0.05676647260327127,-0.10662112041332604,-129.86249210271768,-32.067078184397204,-35.94976046847315,-0.0898,-0.9058,-0.2762,-0.3086
