acc_x,acc_y,acc_z,lin_x,lin_y,lin_z,eul_x,eul_y,eul_z
7.75,5.4,1.5,0.3626966950778219,1.2638433424331863,0.3333374266090541,-85.89062667972252,-3.438262641755622,-82.03659298623278
7.75,5.4,1.5,0.3626966950778219,1.2638433424331863,0.3333374266090541,-85.89062667972252,-3.438262641755622,-82.03659298623278
8.55,4.28,0.3,-0.2491311922636147,-0.5716944971566982,0.260865639824976,-85.32834664281017,-4.126187708974658,-82.50825884494826
8.55,4.28,0.3,-0.2491311922636147,-0.5716944971566982,0.260865639824976,-85.32834664281017,-4.126187708974658,-82.50825884494826
8.56,4.06,0.57,-0.021946715998155,-0.7500618995253798,0.3452005609057291,-84.4896581101697,-4.61929076192046,-83.19598327143912
8.56,4.06,0.57,-0.021946715998155,-0.7500618995253798,0.3452005609057291,-84.4896581101697,-4.61929076192046,-83.19598327143912
8.07,5.33,0.99,-0.3312678970471424,0.5814639712783825,0.1078840356882917,-83.48745702732505,-4.49314033842009,-83.96444589128727
8.07,5.33,0.99,-0.3312678970471424,0.5814639712783825,0.1078840356882917,-83.48745702732505,-4.49314033842009,-83.96444589128727
8.66,4.62,-0.03,-1.0310533760980198,-0.7140197649633022,0.071764037089153,-82.79818739316053,-4.699571210920838,-84.55159136755906
8.66,4.62,-0.03,-1.0310533760980198,-0.7140197649633022,0.071764037089153,-82.79818739316053,-4.699571210920838,-84.55159136755906
8.12,4.6,1.65,0.3598553497402519,0.118033018188826,0.3370421763422246,-82.08216411124334,-4.539012581284228,-84.98598023915876
8.12,4.6,1.65,0.3598553497402519,0.118033018188826,0.3370421763422246,-82.08216411124334,-4.539012581284228,-84.98598023915876
8.23,4.85,1.57,-0.0046760483792487,0.1562771520970454,0.1269880438000843,-80.8120533305175,-4.550480755424785,-86.10998511892349
8.23,4.85,1.57,-0.0046760483792487,0.1562771520970454,0.1269880438000843,-80.8120533305175,-4.550480755424785,-86.10998511892349
8.4,5.09,0.93,-0.9763016561179032,-0.1337391471811728,-0.009762222231334,-78.85480334917152,-4.642227799866185,-87.68843823597489
8.4,5.09,0.93,-0.9763016561179032,-0.1337391471811728,-0.009762222231334,-78.85480334917152,-4.642227799866185,-87.68843823597489
8.28,4.92,1.64,-0.4406614739541294,-0.0733620287323542,0.0467916261242376,-77.5994395892969,-4.539012581284228,-88.30970809584517
8.28,4.92,1.64,-0.4406614739541294,-0.0733620287323542,0.0467916261242376,-77.5994395892969,-4.539012581284228,-88.30970809584517
7.78,4.88,3.54,0.9230717288159608,0.6432353312582988,0.0286856468188254,-75.13562834382228,-4.699571210920838,-89.90170904203455
7.78,4.88,3.54,0.9230717288159608,0.6432353312582988,0.0286856468188254,-75.13562834382228,-4.699571210920838,-89.90170904203455
6.57,4.77,7.04,3.372762394814787,2.175502927821767,-0.1618534402944451,-70.4375427333033,-4.61929076192046,-92.9709760334808
6.57,4.77,7.04,3.372762394814787,2.175502927821767,-0.1618534402944451,-70.4375427333033,-4.61929076192046,-92.9709760334808
6.99,5.14,7.8,1.7774580450353197,1.3597530887874696,-1.6437392700498226,-58.4709447283886,-4.75691579950709,-100.94154333267473
6.99,5.14,7.8,1.7774580450353197,1.3597530887874696,-1.6437392700498226,-58.4709447283886,-4.75691579950709,-100.94154333267473
6.89,5.77,6.09,-1.4604031084114617,0.3430199289909024,-0.9452177488730876,-48.96307461903554,-5.089538374458754,-106.3557507959232
6.89,5.77,6.09,-1.4604031084114617,0.3430199289909024,-0.9452177488730876,-48.96307461903554,-5.089538374458754,-106.3557507959232
5.96,4.94,7.37,-1.548103596244918,-0.4843440005160975,-0.7579553473122029,-37.09611957275582,-6.386054856968827,-111.23783703748737
5.96,4.94,7.37,-1.548103596244918,-0.4843440005160975,-0.7579553473122029,-37.09611957275582,-6.386054856968827,-111.23783703748737
4.92,3.84,6.49,-2.2187779211205374,-1.5940351726626023,1.227129243858517,-25.8058643261674,-8.430081473298436,-114.68260427841712
4.92,3.84,6.49,-2.2187779211205374,-1.5940351726626023,1.227129243858517,-25.8058643261674,-8.430081473298436,-114.68260427841712
3.93,3.05,7.18,-1.5463302762862152,-1.7321490407093243,1.3859420501058608,-19.72682480222871,-9.970582425862728,-116.07613737802976
3.93,3.05,7.18,-1.5463302762862152,-1.7321490407093243,1.3859420501058608,-19.72682480222871,-9.970582425862728,-116.07613737802976
2.06,4.71,8.76,-2.257239770447057,0.2231705322810664,-0.093873396883291,-14.534774284595128,-9.717547848465047,-115.38674111389928
2.06,4.71,8.76,-2.257239770447057,0.2231705322810664,-0.093873396883291,-14.534774284595128,-9.717547848465047,-115.38674111389928
0.91,3.06,9.87,-0.4785400584820446,-0.0582634977704092,-0.5555990211949435,-11.109859542072414,-10.591876570929834,-113.41933793772672
0.91,3.06,9.87,-0.4785400584820446,-0.0582634977704092,-0.5555990211949435,-11.109859542072414,-10.591876570929834,-113.41933793772672
-0.24,3.31,9.86,-0.6454777468596746,0.1489256775669041,-0.5757620328982469,-6.581172764918962,-13.564921674838883,-111.4817285033188
-0.24,3.31,9.86,-0.6454777468596746,0.1489256775669041,-0.5757620328982469,-6.581172764918962,-13.564921674838883,-111.4817285033188
-1.12,4.66,9.13,-2.1062989657212725,1.1664884043788557,-0.2198004920460849,-4.183521171347446,-13.645704477358525,-108.6425203865957
-1.12,4.66,9.13,-2.1062989657212725,1.1664884043788557,-0.2198004920460849,-4.183521171347446,-13.645704477358525,-108.6425203865957
-0.14,1.69,7.81,0.0986201013629084,-0.9302625274953648,1.8696048504783525,-3.094348134689141,-16.072546557241562,-103.49686622301572
-0.14,1.69,7.81,0.0986201013629084,-0.9302625274953648,1.8696048504783525,-3.094348134689141,-16.072546557241562,-103.49686622301572
-0.9,0.05,8.36,2.16862744055737,-0.6640012809976024,1.7098446223899444,-4.045922594423996,-17.288624783675054,-99.31706154713407
-0.9,0.05,8.36,2.16862744055737,-0.6640012809976024,1.7098446223899444,-4.045922594423996,-17.288624783675054,-99.31706154713407
-1.17,-0.12,7.29,1.9372784714527167,-0.0233771229877549,2.681075943535028,-3.816604503074617,-15.52880488350912,-96.67958303327644
-1.17,-0.12,7.29,1.9372784714527167,-0.0233771229877549,2.681075943535028,-3.816604503074617,-15.52880488350912,-96.67958303327644
-1.06,-0.47,8.8,2.31944860797718,-0.0312221017732112,1.239055043694373,-3.919795697049856,-12.745928771149693,-94.90211949213996
-1.06,-0.47,8.8,2.31944860797718,-0.0312221017732112,1.239055043694373,-3.919795697049856,-12.745928771149693,-94.90211949213996
0.26,0.62,9.25,0.950116763568212,-1.0167722784560738,0.6372469513086703,-3.908329853329541,-10.396251161173767,-95.1226475867278
0.26,0.62,9.25,0.950116763568212,-1.0167722784560738,0.6372469513086703,-3.908329853329541,-10.396251161173767,-95.1226475867278
-1.35,1.96,10.2,-0.6341022644072173,1.4951332461212754,-0.5406487245278928,-4.745446786894516,-4.596353909147252,-95.36065966207356
-1.35,1.96,10.2,-0.6341022644072173,1.4951332461212754,-0.5406487245278928,-4.745446786894516,-4.596353909147252,-95.36065966207356
-1.45,0.01,11.74,1.3023972099673626,1.9301720717811,-1.7911255315743837,-5.800810045139373,-1.9710720103882065,-96.2495069125742
-1.45,0.01,11.74,1.3023972099673626,1.9301720717811,-1.7911255315743837,-5.800810045139373,-1.9710720103882065,-96.2495069125742
0.36,-0.7,11.13,1.3812194042991148,0.3217215344710505,-1.2606544690857415,-5.594289991509483,0.6187974261216272,-99.33476502563386
0.36,-0.7,11.13,1.3812194042991148,0.3217215344710505,-1.2606544690857415,-5.594289991509483,0.6187974261216272,-99.33476502563386
-1.2,4.04,13.1,-3.5081390783165527,3.890693123184128,-2.9184066689660035,-5.720494487173099,5.881128455236522,-102.13740297255076
-1.2,4.04,13.1,-3.5081390783165527,3.890693123184128,-2.9184066689660035,-5.720494487173099,5.881128455236522,-102.13740297255076
0.95,2.56,11.01,-2.4436860706117915,0.986049048397704,-1.2265864092523555,-5.146891353190199,4.332593112917143,-104.20296893682892
0.95,2.56,11.01,-2.4436860706117915,0.986049048397704,-1.2265864092523555,-5.146891353190199,4.332593112917143,-104.20296893682892
2.05,0.83,9.65,-0.7462047543197821,-1.3535401695380602,0.0278460100389867,-4.263789782102698,-0.3093975852894872,-105.61328387022331
2.05,0.83,9.65,-0.7462047543197821,-1.3535401695380602,0.0278460100389867,-4.263789782102698,-0.3093975852894872,-105.61328387022331
0.09,-0.15,10.33,0.8418314459172638,-0.0553074909464301,-0.490328241120551,-3.4153340784378665,-2.1200647857418087,-105.0276111512958
0.09,-0.15,10.33,0.8418314459172638,-0.0553074909464301,-0.490328241120551,-3.4153340784378665,-2.1200647857418087,-105.0276111512958
-1.33,-1.19,12.15,2.7071401534255584,0.4911626672315141,-2.161543323306116,-3.163128706652845,-5.341901218009245,-104.74561874233255
-1.33,-1.19,12.15,2.7071401534255584,0.4911626672315141,-2.161543323306116,-3.163128706652845,-5.341901218009245,-104.74561874233255
-1.58,2.67,13.11,-0.9395833616719164,1.2003569741471218,-3.578929040186706,-1.5584932484256673,-6.718914520918895,-104.63307361365904
-1.58,2.67,13.11,-0.9395833616719164,1.2003569741471218,-3.578929040186706,-1.5584932484256673,-6.718914520918895,-104.63307361365904
-0.82,2.36,10.18,-1.2143988561626262,-0.432375268196887,-0.5958827226403169,2.360753104216733,-10.902639624835572,-103.70069435268984
-0.82,2.36,10.18,-1.2143988561626262,-0.432375268196887,-0.5958827226403169,2.360753104216733,-10.902639624835572,-103.70069435268984
-0.16,-3.23,9.29,4.113887114472612,-3.1804417432891765,1.4566007111083543,5.536926565771378,-16.79038251334145,-101.80973815523876
-0.16,-3.23,9.29,4.113887114472612,-3.1804417432891765,1.4566007111083543,5.536926565771378,-16.79038251334145,-101.80973815523876
-0.08,-0.28,7.77,0.9109159838821804,-2.4500005690752618,2.4837114312395827,7.465189762811248,-17.485694626999518,-103.23811172650564
-0.08,-0.28,7.77,0.9109159838821804,-2.4500005690752618,2.4837114312395827,7.465189762811248,-17.485694626999518,-103.23811172650564
-2.29,2.21,10.92,-0.9611814056322622,-0.4999208809411566,-1.515929627375817,8.395611151395807,-15.205041610922963,-106.95053068480225
-2.29,2.21,10.92,-0.9611814056322622,-0.4999208809411566,-1.515929627375817,8.395611151395807,-15.205041610922963,-106.95053068480225
-2.16,2.3,10.19,-0.9655745190885552,-0.6367526517765649,-0.797778881771162,8.912747665103913,-16.894639006068054,-108.87862832095404
-2.16,2.3,10.19,-0.9655745190885552,-0.6367526517765649,-0.797778881771162,8.912747665103913,-16.894639006068054,-108.87862832095404
-2.26,3.72,9.32,-2.09609658418594,-0.0313694178755552,-0.2637916521514203,9.315090195791669,-18.796984460560505,-110.24971070475245
-2.26,3.72,9.32,-2.09609658418594,-0.0313694178755552,-0.2637916521514203,9.315090195791669,-18.796984460560505,-110.24971070475245
-1.93,1.05,8.27,0.3719120715349628,-1.1350820169114215,1.3335413481573417,8.970218312913039,-20.92593832998922,-108.2309531214748
-1.93,1.05,8.27,0.3719120715349628,-1.1350820169114215,1.3335413481573417,8.970218312913039,-20.92593832998922,-108.2309531214748
-0.55,-0.5,8.06,1.6423480530447727,-3.3593056400528103,2.627941307667553,9.637046865121436,-26.48818157203767,-105.17837759673444
-0.55,-0.5,8.06,1.6423480530447727,-3.3593056400528103,2.627941307667553,9.637046865121436,-26.48818157203767,-105.17837759673444
-3.2,-1.25,6.12,3.1813799414418,-0.5272701881647875,3.57305490432171,9.154139652218912,-27.230405140191408,-106.24110823664704
-3.2,-1.25,6.12,3.1813799414418,-0.5272701881647875,3.57305490432171,9.154139652218912,-27.230405140191408,-106.24110823664704
-2.48,4.12,9.99,-1.0364065137711342,-0.7683500219043096,-1.2051799924241653,6.3057176080928565,-26.25279302590076,-110.69183416222988
-2.48,4.12,9.99,-1.0364065137711342,-0.7683500219043096,-1.2051799924241653,6.3057176080928565,-26.25279302590076,-110.69183416222988
-2.15,5.03,8.51,-1.9649422955901104,0.2482158134989656,-0.1140803503789538,4.906017344265486,-25.617803632217928,-113.25250462483363
-2.15,5.03,8.51,-1.9649422955901104,0.2482158134989656,-0.1140803503789538,4.906017344265486,-25.617803632217928,-113.25250462483363
0.04,3.18,8.49,-1.1822635509680173,-2.5557252486184936,1.1889576551998875,4.3669953627837845,-28.45823232032684,-113.64933964888505
0.04,3.18,8.49,-1.1822635509680173,-2.5557252486184936,1.1889576551998875,4.3669953627837845,-28.45823232032684,-113.64933964888505
-1.09,3.65,9.76,-0.7621554301938157,-1.877175099132644,-0.4726268591677894,3.851001219583861,-27.60785191517117,-113.39846355737878
-1.09,3.65,9.76,-0.7621554301938157,-1.877175099132644,-0.4726268591677894,3.851001219583861,-27.60785191517117,-113.39846355737878
0.19,1.57,7.5,-0.0700823186314874,-2.8511045751166684,2.692067006572765,4.275256896440698,-27.985604401100783,-111.97181334084304
0.19,1.57,7.5,-0.0700823186314874,-2.8511045751166684,2.692067006572765,4.275256896440698,-27.985604401100783,-111.97181334084304
-0.47,-0.51,8.46,2.29411907374585,-3.3976690256251683,2.373920833147304,3.942727502383202,-27.70226118700864,-109.79009253076951
-0.47,-0.51,8.46,2.29411907374585,-3.3976690256251683,2.373920833147304,3.942727502383202,-27.70226118700864,-109.79009253076951
-0.34,0.1,9.15,1.934190628233224,-3.3081090041355266,1.4901951404812976,2.670224968889185,-26.39401255557817,-109.19450172299597
-0.34,0.1,9.15,1.934190628233224,-3.3081090041355266,1.4901951404812976,2.670224968889185,-26.39401255557817,-109.19450172299597
0.9,0.33,8.64,1.0905986126366374,-3.5981320774464405,1.968758687959113,1.1573944243672372,-23.097309457161245,-108.83922979141936
0.9,0.33,8.64,1.0905986126366374,-3.5981320774464405,1.968758687959113,1.1573944243672372,-23.097309457161245,-108.83922979141936
0.57,1.01,9.61,0.8301946429828433,-2.824723351230765,0.5855429708101614,-0.7563097804494618,-19.92458285893285,-108.52472019757442
0.57,1.01,9.61,0.8301946429828433,-2.824723351230765,0.5855429708101614,-0.7563097804494618,-19.92458285893285,-108.52472019757442
0.46,1.94,11.8,0.4909459713141922,-1.689792400444636,-2.030527606872761,-4.412865642375664,-14.280666944469896,-107.12399034350572
0.46,1.94,11.8,0.4909459713141922,-1.689792400444636,-2.030527606872761,-4.412865642375664,-14.280666944469896,-107.12399034350572
2.03,-0.14,11.63,1.9473908419164467,-2.53201751706412,-1.5597019302413155,-7.47667331573405,-9.13114820216436,-103.68214546357068
2.03,-0.14,11.63,1.9473908419164467,-2.53201751706412,-1.5597019302413155,-7.47667331573405,-9.13114820216436,-103.68214546357068
1.16,-0.19,11.85,1.9118148671916515,-0.7590132832649086,-1.922504391916428,-8.648411389524659,-4.435801047006329,-101.248111809917
1.16,-0.19,11.85,1.9118148671916515,-0.7590132832649086,-1.922504391916428,-8.648411389524659,-4.435801047006329,-101.248111809917
1.21,0.18,14.94,1.878054343744608,1.6077738302816391,-4.978074386764991,-13.4841456448157,2.544141615361497,-99.05189452300688
1.21,0.18,14.94,1.878054343744608,1.6077738302816391,-4.978074386764991,-13.4841456448157,2.544141615361497,-99.05189452300688
2.18,-1.63,10.31,2.6516512366030347,0.158728641207386,-0.5204478952405633,-15.22816347918777,5.881128455236522,-98.80505247705544
2.18,-1.63,10.31,2.6516512366030347,0.158728641207386,-0.5204478952405633,-15.22816347918777,5.881128455236522,-98.80505247705544
1.86,2.15,13.33,-1.5589375925949485,3.429891779260604,-3.292073447914872,-16.16513427708501,13.507223821905177,-98.71704488690264
1.86,2.15,13.33,-1.5589375925949485,3.429891779260604,-3.292073447914872,-16.16513427708501,13.507223821905177,-98.71704488690264
2.24,3.84,11.65,-3.866498902401948,3.895921270203509,-1.389674561841728,-17.288624783675054,18.820214993044136,-99.79619278642058
2.24,3.84,11.65,-3.866498902401948,3.895921270203509,-1.389674561841728,-17.288624783675054,18.820214993044136,-99.79619278642058
3.04,-1.51,9.53,0.5527574296547098,1.59176869443465,-0.168485670625202,-16.361918539628213,22.804986838376163,-98.71704488690264
3.04,-1.51,9.53,0.5527574296547098,1.59176869443465,-0.168485670625202,-16.361918539628213,22.804986838376163,-98.71704488690264
3.32,0.81,10.76,-2.6406929496424056,3.106839741023862,-0.720951225792307,-15.262847451308849,28.60011675110229,-98.3657986482455
3.32,0.81,10.76,-2.6406929496424056,3.106839741023862,-0.720951225792307,-15.262847451308849,28.60011675110229,-98.3657986482455
3.5,1.97,8.79,-3.9790636427838906,2.491525705656442,1.3594994635925597,-14.638747929971784,31.578534757977327,-99.22859240723112
3.5,1.97,8.79,-3.9790636427838906,2.491525705656442,1.3594994635925597,-14.638747929971784,31.578534757977327,-99.22859240723112
4.47,-0.53,8.83,-2.2765794601005336,1.3910984788530434,0.2613511055713324,-13.461068017168213,33.71591204499429,-98.27818181792992
4.47,-0.53,8.83,-2.2765794601005336,1.3910984788530434,0.2613511055713324,-13.461068017168213,33.71591204499429,-98.27818181792992
5.17,0.4,7.39,-3.4038023771903942,0.275467806914187,1.4496620937991676,-12.538402281482076,35.408051904136364,-98.1906423635664
5.17,0.4,7.39,-3.4038023771903942,0.275467806914187,1.4496620937991676,-12.538402281482076,35.408051904136364,-98.1906423635664
4.97,-1.0,7.28,-2.211999149007396,0.2804435651692002,1.2201657851687775,-12.088902226339815,36.97527104810168,-97.78895026657293
4.97,-1.0,7.28,-2.211999149007396,0.2804435651692002,1.2201657851687775,-12.088902226339815,36.97527104810168,-97.78895026657293
4.5,-2.5,8.04,-0.8862566872602068,0.9853795267445994,0.3522766060325733,-11.985198208002226,37.9069169867096,-96.38693481966624
4.5,-2.5,8.04,-0.8862566872602068,0.9853795267445994,0.3522766060325733,-11.985198208002226,37.9069169867096,-96.38693481966624
4.24,-0.37,8.17,-3.001414123395848,1.75649524280041,1.2761378394143623,-11.743260322870698,40.11951210127083,-94.7327966552025
4.24,-0.37,8.17,-3.001414123395848,1.75649524280041,1.2761378394143623,-11.743260322870698,40.11951210127083,-94.7327966552025
4.63,-1.24,8.01,-2.2851171399102004,1.2827900722876793,0.8474486244683153,-11.651107384541652,40.6200807923672,-92.73822662555116
4.63,-1.24,8.01,-2.2851171399102004,1.2827900722876793,0.8474486244683153,-11.651107384541652,40.6200807923672,-92.73822662555116
5.36,-3.39,7.68,-0.1234848805629921,0.2691614460598361,-0.1490721536273973,-11.593515641253694,39.449267117403366,-89.85314388081687
5.36,-3.39,7.68,-0.1234848805629921,0.2691614460598361,-0.1490721536273973,-11.593515641253694,39.449267117403366,-89.85314388081687
5.3,-2.11,7.33,-1.1103057222111228,0.0097794062321687,0.5850381253633863,-11.259541000283244,38.719689385129655,-88.93426569598631
5.3,-2.11,7.33,-1.1103057222111228,0.0097794062321687,0.5850381253633863,-11.259541000283244,38.719689385129655,-88.93426569598631
4.74,-3.01,7.53,-0.1194582007827688,0.4723209473737693,0.4262852597067041,-11.029269725697889,37.931149977697146,-88.54952961516125
4.74,-3.01,7.53,-0.1194582007827688,0.4723209473737693,0.4262852597067041,-11.029269725697889,37.931149977697146,-88.54952961516125
4.54,-3.15,8.37,-0.0050123453222348,0.981791434226804,-0.1746856048212954,-11.3631779010396,36.64919229993541,-89.22365166336527
4.54,-3.15,8.37,-0.0050123453222348,0.981791434226804,-0.1746856048212954,-11.3631779010396,36.64919229993541,-89.22365166336527
4.4,-2.85,8.31,-0.0740762128219487,0.8739965568250369,0.0204738962630575,-11.581997645669874,35.095437786143385,-90.37223725523552
4.4,-2.85,8.31,-0.0740762128219487,0.8739965568250369,0.0204738962630575,-11.581997645669874,35.095437786143385,-90.37223725523552
4.73,-4.21,8.49,1.394851748278504,0.2623871288559183,-0.6891892515765559,-11.628070333672753,32.48460118565665,-91.92747384583168
4.73,-4.21,8.49,1.394851748278504,0.2623871288559183,-0.6891892515765559,-11.628070333672753,32.48460118565665,-91.92747384583168
5.07,-3.7,7.23,1.1304627903378368,-0.9789306752193928,0.34982449601738,-10.856595634361932,30.888426648702456,-93.2542715435576
5.07,-3.7,7.23,1.1304627903378368,-0.9789306752193928,0.34982449601738,-10.856595634361932,30.888426648702456,-93.2542715435576
4.2,-2.92,8.15,0.3438003654248669,0.2244974595119156,0.1931021533719725,-10.8450849117299,30.62696303514804,-94.68205278958663
4.2,-2.92,8.15,0.3438003654248669,0.2244974595119156,0.1931021533719725,-10.8450849117299,30.62696303514804,-94.68205278958663
4.16,-3.53,9.22,0.7386740626175052,0.5595701738119041,-0.8665005119058602,-10.465291924669184,29.879123753551497,-95.75286306642673
4.16,-3.53,9.22,0.7386740626175052,0.5595701738119041,-0.8665005119058602,-10.465291924669184,29.879123753551497,-95.75286306642673
4.64,-2.81,7.51,0.0722676366789868,-0.9915373106590218,0.595926296063384,-8.280715556970401,28.74204597594341,-96.95578604014553
4.64,-2.81,7.51,0.0722676366789868,-0.9915373106590218,0.595926296063384,-8.280715556970401,28.74204597594341,-96.95578604014553
4.26,-2.89,7.56,0.1601571651888528,-0.8053140858714993,0.6973624918830463,-7.465189762811248,28.19822634265853,-97.7540968309242
4.26,-2.89,7.56,0.1601571651888528,-0.8053140858714993,0.6973624918830463,-7.465189762811248,28.19822634265853,-97.7540968309242
4.03,-3.27,9.31,0.2648895878308887,0.0183082310220643,-0.8488367704359536,-7.5915129998336095,27.58425258560056,-99.17554944715712
4.03,-3.27,9.31,0.2648895878308887,0.0183082310220643,-0.8488367704359536,-7.5915129998336095,27.58425258560056,-99.17554944715712
3.88,-2.39,8.68,-0.4857478245909965,-0.0488858098365205,0.0152987536958537,-7.166643396943946,27.466273808985672,-100.0812477423364
3.88,-2.39,8.68,-0.4857478245909965,-0.0488858098365205,0.0152987536958537,-7.166643396943946,27.466273808985672,-100.0812477423364
4.02,-3.07,8.33,0.1232884846606279,-0.6647142382880709,0.0846566379899638,-6.282764679968377,26.629469277048536,-100.94154333267473
4.02,-3.07,8.33,0.1232884846606279,-0.6647142382880709,0.0846566379899638,-6.282764679968377,26.629469277048536,-100.94154333267473
4.21,-2.61,8.22,-0.3899152948138691,-0.905525501270272,0.2603109305231861,-5.823757869537403,26.158669228245632,-101.79156838217143
4.21,-2.61,8.22,-0.3899152948138691,-0.905525501270272,0.2603109305231861,-5.823757869537403,26.158669228245632,-101.79156838217143
3.76,-2.36,8.46,-0.5667500634418521,-0.3444563362523831,0.2757033419809627,-5.881128455236522,26.241026566581308,-102.61275550473172
3.76,-2.36,8.46,-0.5667500634418521,-0.3444563362523831,0.2757033419809627,-5.881128455236522,26.241026566581308,-102.61275550473172
3.89,-2.22,8.64,-0.703971964872018,-0.3433996206266899,0.1063097908512649,-6.294241112432486,26.00575632582789,-102.8513568589136
3.89,-2.22,8.64,-0.703971964872018,-0.3433996206266899,0.1063097908512649,-6.294241112432486,26.00575632582789,-102.8513568589136
3.76,-2.73,9.35,-0.1732830299901459,-0.048948677374,-0.6327262753576814,-6.868145731332586,25.570799441600013,-102.66776223181776
3.76,-2.73,9.35,-0.1732830299901459,-0.048948677374,-0.6327262753576814,-6.868145731332586,25.570799441600013,-102.66776223181776
4.64,-3.16,8.02,0.219715320147519,-1.5577392049698051,0.1443120972255123,-6.856665996646211,24.97187636961762,-102.88812004458934
4.64,-3.16,8.02,0.219715320147519,-1.5577392049698051,0.1443120972255123,-6.856665996646211,24.97187636961762,-102.88812004458934
3.67,-1.81,8.6,-0.8046601253924691,-0.0064553790348003,0.3167880194080332,-7.5915129998336095,25.512050354420897,-103.18276029513798
3.67,-1.81,8.6,-0.8046601253924691,-0.0064553790348003,0.3167880194080332,-7.5915129998336095,25.512050354420897,-103.18276029513798
3.66,-1.9,8.97,-0.6443890341012536,0.1729077574496025,-0.0432924201435689,-8.326672787534774,25.21840683143225,-103.18276029513798
3.66,-1.9,8.97,-0.6443890341012536,0.1729077574496025,-0.0432924201435689,-8.326672787534774,25.21840683143225,-103.18276029513798
3.23,-2.58,9.7,0.2142234657954543,0.7264258193012815,-0.7102751131571274,-9.073671186517632,24.772390131710253,-102.28340450662311
3.23,-2.58,9.7,0.2142234657954543,0.7264258193012815,-0.7102751131571274,-9.073671186517632,24.772390131710253,-102.28340450662311
4.06,-3.0,8.17,0.6440378086381251,-0.8186324919085197,0.2595270750431702,-9.073671186517632,24.150948661500923,-101.84608834311696
4.06,-3.0,8.17,0.6440378086381251,-0.8186324919085197,0.2595270750431702,-9.073671186517632,24.150948661500923,-101.84608834311696
4.02,-2.26,8.33,-0.0128385898478742,-0.5335059129851395,0.3002255085615637,-9.464560757916416,24.03377694135321,-102.00984028062229
4.02,-2.26,8.33,-0.0128385898478742,-0.5335059129851395,0.3002255085615637,-9.464560757916416,24.03377694135321,-102.00984028062229
3.44,-1.88,8.77,-0.181681595297444,0.3133573945629301,0.207186528471869,-10.085614182042526,24.06892577380089,-102.08271174423224
3.44,-1.88,8.77,-0.181681595297444,0.3133573945629301,0.207186528471869,-10.085614182042526,24.06892577380089,-102.08271174423224
3.59,-2.61,8.78,0.6263731200977177,0.056351511117952,-0.0113478214304887,-10.960197096754332,23.65899809735879,-101.97342600574191
3.59,-2.61,8.78,0.6263731200977177,0.056351511117952,-0.0113478214304887,-10.960197096754332,23.65899809735879,-101.97342600574191
3.61,-2.33,8.69,0.3968187141946641,0.0769188456303227,0.1209017893942849,-11.167427069301608,23.600462193143148,-101.91883135691955
3.61,-2.33,8.69,0.3968187141946641,0.0769188456303227,0.1209017893942849,-11.167427069301608,23.600462193143148,-101.91883135691955
3.56,-1.81,8.94,-0.0723390037167637,0.3619085987577242,0.0221168361394727,-11.432274343860266,23.53022735154268,-102.1556405634774
3.56,-1.81,8.94,-0.0723390037167637,0.3619085987577242,0.0221168361394727,-11.432274343860266,23.53022735154268,-102.1556405634774
3.86,-2.25,8.66,0.3458308079587345,-0.1599051542242373,0.0694773408591995,-11.616551985135152,23.12070182440919,-102.2468824957188
3.86,-2.25,8.66,0.3458308079587345,-0.1599051542242373,0.0694773408591995,-11.616551985135152,23.12070182440919,-102.2468824957188
3.89,-2.24,8.64,0.3505904808883953,-0.2034597021968334,0.0785982698593503,-11.674144907935558,22.99205586322248,-102.22862690361036
3.89,-2.24,8.64,0.3505904808883953,-0.2034597021968334,0.0785982698593503,-11.674144907935558,22.99205586322248,-102.22862690361036
3.83,-1.51,8.72,-0.3668208746356911,0.0684935678051699,0.1708754552578462,-11.628070333672753,23.144095168471857,-102.52115080428872
3.83,-1.51,8.72,-0.3668208746356911,0.0684935678051699,0.1708754552578462,-11.628070333672753,23.144095168471857,-102.52115080428872
3.65,-1.52,8.91,-0.2899767615453389,0.303073937130923,0.0678071700537419,-11.766299745968876,23.027138205337288,-102.5761026611454
3.65,-1.52,8.91,-0.2899767615453389,0.303073937130923,0.0678071700537419,-11.766299745968876,23.027138205337288,-102.5761026611454
4.12,-2.49,8.5,0.577538043936225,-0.5825453822929632,0.0726071253576492,-11.766299745968876,22.524498571325392,-102.61275550473172
4.12,-2.49,8.5,0.577538043936225,-0.5825453822929632,0.0726071253576492,-11.766299745968876,22.524498571325392,-102.61275550473172
4.13,-2.09,8.65,0.1578706738994222,-0.4246019761392808,0.0065331633402863,-11.662626087112969,22.65303861752037,-102.5761026611454
4.13,-2.09,8.65,0.1578706738994222,-0.4246019761392808,0.0065331633402863,-11.662626087112969,22.65303861752037,-102.5761026611454
3.74,-1.41,8.94,-0.4142557956242486,0.2283706258166308,0.0252626243228739,-11.674144907935558,22.840057573731933,-102.55778172371149
3.74,-1.41,8.94,-0.4142557956242486,0.2283706258166308,0.0252626243228739,-11.674144907935558,22.840057573731933,-102.55778172371149
4.08,-2.02,8.78,0.1086645731031559,-0.3194256261497816,-0.0777497936096818,-11.685663847129462,22.55955209306089,-102.59442725393292
4.08,-2.02,8.78,0.1086645731031559,-0.3194256261497816,-0.0777497936096818,-11.685663847129462,22.55955209306089,-102.59442725393292
4.16,-1.67,8.52,-0.2513101043292846,-0.4229173335599818,0.1919277387780731,-11.558962006616271,22.606293449751373,-102.61275550473172
4.16,-1.67,8.52,-0.2513101043292846,-0.4229173335599818,0.1919277387780731,-11.558962006616271,22.606293449751373,-102.61275550473172
3.97,-1.8,8.83,-0.097538751034155,-0.1469602561939579,-0.0390947090175028,-11.570479767497384,22.66472550596455,-102.5761026611454
3.97,-1.8,8.83,-0.097538751034155,-0.1469602561939579,-0.0390947090175028,-11.570479767497384,22.66472550596455,-102.5761026611454
3.89,-1.65,8.76,-0.2156039093844155,-0.0613740057055607,0.083381609912136,-11.570479767497384,22.73485185773412,-102.48453447446366
3.89,-1.65,8.76,-0.2156039093844155,-0.0613740057055607,0.083381609912136,-11.570479767497384,22.73485185773412,-102.48453447446366
4.02,-2.11,8.75,0.2016564483483016,-0.315565527130633,-0.0439719638622957,-11.558962006616271,22.54786734834884,-102.55778172371149
4.02,-2.11,8.75,0.2016564483483016,-0.315565527130633,-0.0439719638622957,-11.558962006616271,22.54786734834884,-102.55778172371149
4.06,-1.49,8.69,-0.4255904027895423,-0.2127125931464747,0.1116293109158181,-11.466824127666603,22.73485185773412,-102.48453447446366
4.06,-1.49,8.69,-0.4255904027895423,-0.2127125931464747,0.1116293109158181,-11.466824127666603,22.73485185773412,-102.48453447446366
3.77,-1.61,9.01,-0.2564551699020762,0.1770832261093938,-0.0871850641629965,-11.535926836248436,22.88682192770989,-102.42963728896297
3.77,-1.61,9.01,-0.2564551699020762,0.1770832261093938,-0.0871850641629965,-11.535926836248436,22.88682192770989,-102.42963728896297
3.95,-1.48,8.59,-0.4062408665221519,-0.1341644975086979,0.246421537982183,-11.501374957383891,22.875130477358805,-102.48453447446366
3.95,-1.48,8.59,-0.4062408665221519,-0.1341644975086979,0.246421537982183,-11.501374957383891,22.875130477358805,-102.48453447446366
