,TIME,ELAPSED_SECONDS,PSTATE,acc_x,acc_y,acc_z,mag_x,mag_y,mag_z,gyr_x,gyr_y,gyr_z,lin_x,lin_y,lin_z,eul_x,eul_y,eul_z,qua_w,qua_x,qua_y,qua_z
0,1153275.0,1060.601741,1.0,2.3,3.86,8.33,1.56,-33.25,-28.37,-2.88,-18.94,-1.37,-0.7523165500092119,-0.008302747177512337,0.3720089960734825,-13.011162702254634,-21.602179804976906,-150.2552755154301,-0.1342,-0.1133,-0.1874,-0.9665
1,1153275.0,1060.601741,1.0,2.3,3.86,8.33,1.56,-33.25,-28.37,-2.88,-18.94,-1.37,-0.7523165500092119,-0.008302747177512337,0.3720089960734825,-13.011162702254634,-21.602179804976906,-150.2552755154301,-0.1342,-0.1133,-0.1874,-0.9665
2,1153310.0,1060.619257,1.0,3.48,4.17,7.23,1.56,-33.25,-28.37,13.06,-90.62,-6.63,-1.8909290988209493,0.27137007026381377,0.96793146006463,-15.366907820940328,-21.57884859507936,-148.8159549371668,-0.1391,-0.1337,-0.1872,-0.9632
3,1153310.0,1060.619257,1.0,3.48,4.17,7.23,1.56,-33.25,-28.37,13.06,-90.62,-6.63,-1.8909290988209493,0.27137007026381377,0.96793146006463,-15.366907820940328,-21.57884859507936,-148.8159549371668,-0.1391,-0.1337,-0.1872,-0.9632
4,1153343.0,1060.664164,1.0,6.94,4.69,6.0,0.5,-34.06,-28.75,56.69,-230.38,-4.81,-4.399252617862596,-0.22246833656481435,0.4923178047508294,-23.261076579429574,-22.127373666986447,-143.02758111671002,-0.1517,-0.2016,-0.1919,-0.9484
5,1153343.0,1060.664164,1.0,6.94,4.69,6.0,0.5,-34.06,-28.75,56.69,-230.38,-4.81,-4.399252617862596,-0.22246833656481435,0.4923178047508294,-23.261076579429574,-22.127373666986447,-143.02758111671002,-0.1517,-0.2016,-0.1919,-0.9484
6,1153380.0,1060.771092,1.0,9.51,7.08,7.09,-1.37,-33.25,-26.25,92.0,-434.06,-19.87,-4.316387585628301,0.2906801436414841,-3.312759409905865,-34.62702088107143,-22.372624603038307,-133.73534909546765,-0.168,-0.2976,-0.19399999999999998,-0.9196
7,1153380.0,1060.771092,1.0,9.51,7.08,7.09,-1.37,-33.25,-26.25,92.0,-434.06,-19.87,-4.316387585628301,0.2906801436414841,-3.312759409905865,-34.62702088107143,-22.372624603038307,-133.73534909546765,-0.168,-0.2976,-0.19399999999999998,-0.9196
8,1153417.0,1060.8181880000002,1.0,9.93,5.7,6.14,-1.37,-33.25,-26.25,154.63,-502.5,-31.06,-0.7422887661271019,-1.4528301080914339,-3.0826010280739204,-53.64140160793269,-24.279867169785643,-115.51550165897758,-0.1919,-0.4512,-0.2103,-0.8458
9,1153417.0,1060.8181880000002,1.0,9.93,5.7,6.14,-1.37,-33.25,-26.25,154.63,-502.5,-31.06,-0.7422887661271019,-1.4528301080914339,-3.0826010280739204,-53.64140160793269,-24.279867169785643,-115.51550165897758,-0.1919,-0.4512,-0.2103,-0.8458
10,1153452.0,1060.836923,1.0,9.42,4.95,6.7,-9.69,-36.0,-22.19,112.69,-480.81,-8.81,3.3811932415778534,-1.8572312112131608,-2.161939076879694,-68.51318055335086,-24.831054609816945,-100.95954923279673,-0.2049,-0.5629,-0.215,-0.7714
11,1153452.0,1060.836923,1.0,9.42,4.95,6.7,-9.69,-36.0,-22.19,112.69,-480.81,-8.81,3.3811932415778534,-1.8572312112131608,-2.161939076879694,-68.51318055335086,-24.831054609816945,-100.95954923279673,-0.2049,-0.5629,-0.215,-0.7714
12,1153488.0,1060.840191,1.0,9.38,4.92,2.27,-17.25,-38.56,-12.25,75.75,-290.0,33.75,1.6934075892001896,-1.2820513482964262,-0.8156103563069639,-81.91514696476024,-24.291588578811197,-88.03849807642652,-0.2078,-0.6555,-0.2104,-0.6949
13,1153488.0,1060.840191,1.0,9.38,4.92,2.27,-17.25,-38.56,-12.25,75.75,-290.0,33.75,1.6934075892001896,-1.2820513482964262,-0.8156103563069639,-81.91514696476024,-24.291588578811197,-88.03849807642652,-0.2078,-0.6555,-0.2104,-0.6949
14,1153523.0,1060.843162,1.0,6.04,3.86,2.54,-21.37,-41.19,-2.88,31.87,-253.13,29.31,3.0502886171312,-0.02019364212128516,2.840436425250965,-89.56218264522055,-22.98036223475966,-80.87226170457619,-0.2084,-0.7044,-0.1992,-0.6486
15,1153523.0,1060.843162,1.0,6.04,3.86,2.54,-21.37,-41.19,-2.88,31.87,-253.13,29.31,3.0502886171312,-0.02019364212128516,2.840436425250965,-89.56218264522055,-22.98036223475966,-80.87226170457619,-0.2084,-0.7044,-0.1992,-0.6486
16,1153558.0,1060.8824539999998,1.0,5.31,4.88,2.39,-21.37,-41.19,-2.88,11.63,-148.69,38.75,3.5406064907628445,1.5976756507626566,3.277167769950812,-97.05955612806845,-20.727870288694774,-73.99784443066719,-0.2095,-0.7493,-0.1799,-0.6018
17,1153558.0,1060.8824539999998,1.0,5.31,4.88,2.39,-21.37,-41.19,-2.88,11.63,-148.69,38.75,3.5406064907628445,1.5976756507626566,3.277167769950812,-97.05955612806845,-20.727870288694774,-73.99784443066719,-0.2095,-0.7493,-0.1799,-0.6018
18,1153593.0,1060.9432359999998,1.0,7.7,6.19,-3.06,-22.5,-38.88,4.88,24.19,-76.81,26.44,-0.8448434486409296,1.08242773582609,-0.44441285923576507,-99.92080048347364,-19.71519382901285,-71.60598002322817,-0.2056,-0.7656,-0.1712,-0.585
19,1153593.0,1060.9432359999998,1.0,7.7,6.19,-3.06,-22.5,-38.88,4.88,24.19,-76.81,26.44,-0.8448434486409296,1.08242773582609,-0.44441285923576507,-99.92080048347364,-19.71519382901285,-71.60598002322817,-0.2056,-0.7656,-0.1712,-0.585
20,1153630.0,1060.961585,1.0,7.8,6.37,-5.23,-21.75,-38.5,7.25,34.5,-90.56,16.5,-2.297049838256464,1.0942881749454516,-1.2520974621107293,-103.40436898100208,-19.250121718432275,-68.54091135463743,-0.1977,-0.7848,-0.1672,-0.5631
21,1153630.0,1060.961585,1.0,7.8,6.37,-5.23,-21.75,-38.5,7.25,34.5,-90.56,16.5,-2.297049838256464,1.0942881749454516,-1.2520974621107293,-103.40436898100208,-19.250121718432275,-68.54091135463743,-0.1977,-0.7848,-0.1672,-0.5631
22,1153667.0,1061.029041,1.0,7.8,5.06,-4.03,-21.75,-38.5,7.25,102.56,-123.94,9.5,-0.2459677648737391,0.3287033890859785,-0.31836624396950874,-108.66217014935283,-19.81987998842397,-63.64641513634406,-0.1797,-0.8124,-0.1721,-0.5273
23,1153667.0,1061.029041,1.0,7.8,5.06,-4.03,-21.75,-38.5,7.25,102.56,-123.94,9.5,-0.2459677648737391,0.3287033890859785,-0.31836624396950874,-108.66217014935283,-19.81987998842397,-63.64641513634406,-0.1797,-0.8124,-0.1721,-0.5273
24,1153701.0,1061.032442,1.0,7.76,6.48,-4.0,-22.5,-38.5,7.56,96.56,-166.56,1.25,0.9083319528666588,1.7519239709553416,-0.8851082961547316,-113.81705808343624,-20.308637900960072,-58.61544664777843,-0.1656,-0.8378,-0.1763,-0.4895
25,1153701.0,1061.032442,1.0,7.76,6.48,-4.0,-22.5,-38.5,7.56,96.56,-166.56,1.25,0.9083319528666588,1.7519239709553416,-0.8851082961547316,-113.81705808343624,-20.308637900960072,-58.61544664777843,-0.1656,-0.8378,-0.1763,-0.4895
26,1153736.0,1061.075725,1.0,8.14,6.7,-5.23,-20.25,-37.0,14.25,114.0,-127.81,-27.0,1.4457395279468686,1.7289267151778571,-1.744243888824201,-119.56019073883043,-22.22079043012782,-52.39925252360182,-0.1459,-0.8641,-0.1927,-0.4415
27,1153736.0,1061.075725,1.0,8.14,6.7,-5.23,-20.25,-37.0,14.25,114.0,-127.81,-27.0,1.4457395279468686,1.7289267151778571,-1.744243888824201,-119.56019073883043,-22.22079043012782,-52.39925252360182,-0.1459,-0.8641,-0.1927,-0.4415
28,1153773.0,1061.095216,1.0,7.12,6.03,-7.58,-18.0,-35.5,19.69,148.5,-216.44,-84.06,0.3085139236665385,1.266135102285375,-2.1438069394506734,-124.60157138168795,-24.88972570037191,-45.821900740364754,-0.134,-0.8854,-0.2155,-0.3893
29,1153773.0,1061.095216,1.0,7.12,6.03,-7.58,-18.0,-35.5,19.69,148.5,-216.44,-84.06,0.3085139236665385,1.266135102285375,-2.1438069394506734,-124.60157138168795,-24.88972570037191,-45.821900740364754,-0.134,-0.8854,-0.2155,-0.3893
30,1153808.0,1061.14664,1.0,3.81,1.71,-2.01,-18.0,-35.5,19.69,154.75,-173.63,-85.06,1.9386669241950885,-0.6485414295423566,5.647171117832293,-130.18802216268048,-29.1444243172648,-37.1323824635344,-0.1123,-0.907,-0.2516,-0.3184
31,1153808.0,1061.14664,1.0,3.81,1.71,-2.01,-18.0,-35.5,19.69,154.75,-173.63,-85.06,1.9386669241950885,-0.6485414295423566,5.647171117832293,-130.18802216268048,-29.1444243172648,-37.1323824635344,-0.1123,-0.907,-0.2516,-0.3184
32,1153843.0,1061.154153,1.0,3.02,2.42,-4.37,-10.88,-33.19,26.75,31.62,-41.06,-55.0,0.4774831422732633,0.1816084871802877,3.991778702522392,-131.1767984012427,-31.054898349248795,-34.39903434859307,-0.1082,-0.9106,-0.2677,-0.2957
33,1153843.0,1061.154153,1.0,3.02,2.42,-4.37,-10.88,-33.19,26.75,31.62,-41.06,-55.0,0.4774831422732633,0.1816084871802877,3.991778702522392,-131.1767984012427,-31.054898349248795,-34.39903434859307,-0.1082,-0.9106,-0.2677,-0.2957
34,1153880.0,1061.1965380000001,1.0,5.07,3.07,-10.3,-5.69,-30.69,29.69,66.0,2.56,-41.25,-1.2109541860253317,-0.5402070010971916,-2.002734673018038,-130.43348264858346,-33.18943360011411,-33.78776111254545,-0.0984,-0.9079,-0.2856,-0.2906
35,1153880.0,1061.1965380000001,1.0,5.07,3.07,-10.3,-5.69,-30.69,29.69,66.0,2.56,-41.25,-1.2109541860253317,-0.5402070010971916,-2.002734673018038,-130.43348264858346,-33.18943360011411,-33.78776111254545,-0.0984,-0.9079,-0.2856,-0.2906
36,1153916.0,1061.261026,1.0,4.58,0.67,-8.11,-5.69,-30.69,29.69,80.0,-37.06,-30.0,-1.115019731444113,-2.060910870326306,0.7674698721863518,-130.73504536519698,-34.8191192303352,-32.23403459047365,-0.0843,-0.909,-0.2992,-0.2776
37,1153916.0,1061.261026,1.0,4.58,0.67,-8.11,-5.69,-30.69,29.69,80.0,-37.06,-30.0,-1.115019731444113,-2.060910870326306,0.7674698721863518,-130.73504536519698,-34.8191192303352,-32.23403459047365,-0.0843,-0.909,-0.2992,-0.2776
38,1153949.0,1061.279614,1.0,4.14,1.43,-6.77,-4.56,-29.19,31.0,-1.63,-26.06,-12.06,-0.06716794540917209,-1.2495426827749956,1.8410030362541825,-131.34342588798634,-35.60056506187857,-30.603201736078947,-0.0812,-0.9112,-0.3057,-0.2639
39,1153949.0,1061.279614,1.0,4.14,1.43,-6.77,-4.56,-29.19,31.0,-1.63,-26.06,-12.06,-0.06716794540917209,-1.2495426827749956,1.8410030362541825,-131.34342588798634,-35.60056506187857,-30.603201736078947,-0.0812,-0.9112,-0.3057,-0.2639
40,1153984.0,1061.320794,1.0,4.84,2.22,-9.48,-2.69,-27.75,32.69,13.06,3.75,-2.5,-0.5779599954936921,-0.9862172615409001,-1.0062005842191155,-131.34342588798634,-35.865440443720345,-30.377536447956228,-0.0793,-0.9112,-0.3079,-0.262
41,1153984.0,1061.320794,1.0,4.84,2.22,-9.48,-2.69,-27.75,32.69,13.06,3.75,-2.5,-0.5779599954936921,-0.9862172615409001,-1.0062005842191155,-131.34342588798634,-35.865440443720345,-30.377536447956228,-0.0793,-0.9112,-0.3079,-0.262
42,1154021.0,1061.379296,1.0,4.16,1.75,-7.79,-1.56,-28.19,32.75,12.56,-12.19,11.75,-0.29482809406542976,-0.9490148360137952,0.8587649294386068,-131.62233589525562,-36.07025258875129,-29.85540431723644,-0.0756,-0.9122,-0.3096,-0.2576
43,1154021.0,1061.379296,1.0,4.16,1.75,-7.79,-1.56,-28.19,32.75,12.56,-12.19,11.75,-0.29482809406542976,-0.9490148360137952,0.8587649294386068,-131.62233589525562,-36.07025258875129,-29.85540431723644,-0.0756,-0.9122,-0.3096,-0.2576
44,1154056.0,1061.383391,1.0,3.99,2.47,-7.95,-1.56,-28.19,32.75,-21.25,5.75,12.88,-0.1792333771372456,-0.2798135322870505,0.5809749686719918,-131.84655671079122,-35.408051904136364,-30.187596092266823,-0.0787,-0.9129999999999999,-0.3041,-0.2604
45,1154056.0,1061.383391,1.0,3.99,2.47,-7.95,-1.56,-28.19,32.75,-21.25,5.75,12.88,-0.1792333771372456,-0.2798135322870505,0.5809749686719918,-131.84655671079122,-35.408051904136364,-30.187596092266823,-0.0787,-0.9129999999999999,-0.3041,-0.2604
46,1154093.0,1061.40006,1.0,4.39,3.21,-9.04,-2.69,-27.37,32.0,-7.5,-0.12,10.13,-0.1698026586754572,0.0890189834115469,-0.7413850150015655,-131.87465337051762,-34.9993031752255,-30.52004779633356,-0.0807,-0.9131,-0.3007,-0.2632
47,1154093.0,1061.40006,1.0,4.39,3.21,-9.04,-2.69,-27.37,32.0,-7.5,-0.12,10.13,-0.1698026586754572,0.0890189834115469,-0.7413850150015655,-131.87465337051762,-34.9993031752255,-30.52004779633356,-0.0807,-0.9131,-0.3007,-0.2632
48,1154129.0,1061.44995,1.0,4.23,3.16,-8.58,-2.0,-27.75,33.06,0.56,-3.56,5.88,-0.04343173987486987,0.1492522911617824,-0.266618458526974,-131.93089302515688,-35.01131860953798,-30.44878609284871,-0.0799,-0.9133,-0.3008,-0.2626
49,1154129.0,1061.44995,1.0,4.23,3.16,-8.58,-2.0,-27.75,33.06,0.56,-3.56,5.88,-0.04343173987486987,0.1492522911617824,-0.266618458526974,-131.93089302515688,-35.01131860953798,-30.44878609284871,-0.0799,-0.9133,-0.3008,-0.2626
50,1154162.0,1061.5036220000002,1.0,4.04,2.63,-8.43,-2.0,-27.75,33.06,-4.06,4.0,1.63,-0.3713509318711308,-0.17291594509665487,0.1042998433972322,-131.93089302515688,-34.96325925488904,-30.48441543516209,-0.0804,-0.9133,-0.3004,-0.2629
51,1154162.0,1061.5036220000002,1.0,4.04,2.63,-8.43,-2.0,-27.75,33.06,-4.06,4.0,1.63,-0.3713509318711308,-0.17291594509665487,0.1042998433972322,-131.93089302515688,-34.96325925488904,-30.48441543516209,-0.0804,-0.9133,-0.3004,-0.2629
52,1154197.0,1061.522952,1.0,4.07,2.13,-8.14,-2.38,-27.75,32.25,0.63,-1.88,8.25,-0.4590047135326708,-0.5789223308572545,0.4891630207877622,-131.98719464152978,-34.85514889719688,-30.567562314513644,-0.0798,-0.9135,-0.2995,-0.2636
53,1154197.0,1061.522952,1.0,4.07,2.13,-8.14,-2.38,-27.75,32.25,0.63,-1.88,8.25,-0.4590047135326708,-0.5789223308572545,0.4891630207877622,-131.98719464152978,-34.85514889719688,-30.567562314513644,-0.0798,-0.9135,-0.2995,-0.2636
54,1154232.0,1061.571236,1.0,4.77,2.3,-8.99,-2.38,-27.37,32.88,-8.56,-6.13,19.19,-0.3539547847388359,-0.8335681227792751,-0.5877177150198385,-132.12822120462246,-34.60301565627788,-30.626963035148037,-0.08,-0.914,-0.2974,-0.2641
55,1154232.0,1061.571236,1.0,4.77,2.3,-8.99,-2.38,-27.37,32.88,-8.56,-6.13,19.19,-0.3539547847388359,-0.8335681227792751,-0.5877177150198385,-132.12822120462246,-34.60301565627788,-30.626963035148037,-0.08,-0.914,-0.2974,-0.2641
56,1154269.0,1061.634892,1.0,4.48,2.94,-8.26,-2.69,-28.56,32.88,-17.81,-20.19,23.5,0.19296574452309845,-0.1939873818480149,-0.035439875485007384,-132.98273895587266,-33.668020251284275,-30.270684516880635,-0.084,-0.917,-0.2896,-0.2611
57,1154269.0,1061.634892,1.0,4.48,2.94,-8.26,-2.69,-28.56,32.88,-17.81,-20.19,23.5,0.19296574452309845,-0.1939873818480149,-0.035439875485007384,-132.98273895587266,-33.668020251284275,-30.270684516880635,-0.084,-0.917,-0.2896,-0.2611
58,1154304.0,1061.652103,1.0,4.35,1.89,-8.18,-2.69,-28.56,32.88,-2.0,2.13,23.0,-0.35726433144538633,-0.9616619033059292,0.40693890969478375,-133.47352940641977,-33.01011755272957,-30.258813745298948,-0.0845,-0.9187,-0.2841,-0.261
59,1154304.0,1061.652103,1.0,4.35,1.89,-8.18,-2.69,-28.56,32.88,-2.0,2.13,23.0,-0.35726433144538633,-0.9616619033059292,0.40693890969478375,-133.47352940641977,-33.01011755272957,-30.258813745298948,-0.0845,-0.9187,-0.2841,-0.261
60,1154340.0,1061.6995,1.0,4.36,2.23,-8.52,-3.88,-28.19,32.38,-42.94,-5.5,40.13,-0.4418661143105909,-0.695171578945611,0.014081858146186118,-134.1748557862076,-31.530903656573717,-30.650725683430657,-0.08900000000000001,-0.9211,-0.2717,-0.2643
61,1154340.0,1061.6995,1.0,4.36,2.23,-8.52,-3.88,-28.19,32.38,-42.94,-5.5,40.13,-0.4418661143105909,-0.695171578945611,0.014081858146186118,-134.1748557862076,-31.530903656573717,-30.650725683430657,-0.08900000000000001,-0.9211,-0.2717,-0.2643
62,1154375.0,1061.706782,1.0,4.46,2.7,-8.62,-4.19,-28.87,30.87,-20.56,13.38,51.75,-0.3180468385014967,-0.3242377306981004,-0.257132395427222,-134.7671460925717,-30.021467926252928,-31.209539394286914,-0.092,-0.9231,-0.259,-0.26899999999999996
63,1154375.0,1061.706782,1.0,4.46,2.7,-8.62,-4.19,-28.87,30.87,-20.56,13.38,51.75,-0.3180468385014967,-0.3242377306981004,-0.257132395427222,-134.7671460925717,-30.021467926252928,-31.209539394286914,-0.092,-0.9231,-0.259,-0.26899999999999996
64,1154410.0,1061.76255,1.0,3.98,3.88,-8.43,-4.19,-28.87,30.87,-35.75,-8.81,34.69,-0.20797583997577976,0.9294828463064037,-0.24583763681948234,-135.6089218903229,-28.0210345439132,-31.66190266420909,-0.0984,-0.9259,-0.2421,-0.2728
65,1154410.0,1061.76255,1.0,3.98,3.88,-8.43,-4.19,-28.87,30.87,-35.75,-8.81,34.69,-0.20797583997577976,0.9294828463064037,-0.24583763681948234,-135.6089218903229,-28.0210345439132,-31.66190266420909,-0.0984,-0.9259,-0.2421,-0.2728
66,1154445.0,1061.778814,1.0,3.94,4.2,-7.73,-6.06,-30.37,30.87,-19.0,7.19,16.44,0.1563552528376833,1.2392074277893048,0.24859486384275264,-135.79128033679729,-27.03000922772236,-32.07900131942766,-0.1033,-0.9265,-0.2337,-0.2763
67,1154445.0,1061.778814,1.0,3.94,4.2,-7.73,-6.06,-30.37,30.87,-19.0,7.19,16.44,0.1563552528376833,1.2392074277893048,0.24859486384275264,-135.79128033679729,-27.03000922772236,-32.07900131942766,-0.1033,-0.9265,-0.2337,-0.2763
68,1154482.0,1061.820999,1.0,4.21,3.31,-8.34,-6.5,-30.75,28.69,-1.75,14.5,5.31,-0.4050133498349506,0.3286923117273708,-0.09101263067532628,-135.57859793518082,-26.794357072369408,-32.580097056893266,-0.10300000000000001,-0.9258,-0.2317,-0.2805
69,1154482.0,1061.820999,1.0,4.21,3.31,-8.34,-6.5,-30.75,28.69,-1.75,14.5,5.31,-0.4050133498349506,0.3286923117273708,-0.09101263067532628,-135.57859793518082,-26.794357072369408,-32.580097056893266,-0.10300000000000001,-0.9258,-0.2317,-0.2805
70,1154516.0,1061.829287,1.0,4.07,3.29,-7.77,-6.5,-30.75,28.69,-4.25,4.0,6.69,-0.2424568807403844,0.4346039536547111,0.4517457212567191,-135.4877437505904,-26.547046453502677,-32.878671967526124,-0.10300000000000001,-0.9255,-0.2296,-0.28300000000000003
71,1154516.0,1061.829287,1.0,4.07,3.29,-7.77,-6.5,-30.75,28.69,-4.25,4.0,6.69,-0.2424568807403844,0.4346039536547111,0.4517457212567191,-135.4877437505904,-26.547046453502677,-32.878671967526124,-0.10300000000000001,-0.9255,-0.2296,-0.28300000000000003
72,1154551.0,1061.8964349999999,1.0,4.88,3.27,-8.94,-6.5,-29.69,27.87,-1.19,15.81,5.94,-0.39109094980743697,-0.010217385870028295,-0.8834315466489642,-135.30656135192416,-26.41755310589251,-33.2731430190265,-0.1023,-0.9249,-0.2285,-0.2863
73,1154551.0,1061.8964349999999,1.0,4.88,3.27,-8.94,-6.5,-29.69,27.87,-1.19,15.81,5.94,-0.39109094980743697,-0.010217385870028295,-0.8834315466489642,-135.30656135192416,-26.41755310589251,-33.2731430190265,-0.1023,-0.9249,-0.2285,-0.2863
74,1154586.0,1061.953835,1.0,4.78,3.11,-7.97,-6.88,-30.87,29.56,1.19,2.25,1.37,0.009030171553674056,-0.014489132983339868,0.006593442967936625,-135.18615927411605,-26.405782688920823,-33.476513522752754,-0.10099999999999999,-0.9245,-0.2284,-0.28800000000000003
75,1154586.0,1061.953835,1.0,4.78,3.11,-7.97,-6.88,-30.87,29.56,1.19,2.25,1.37,0.009030171553674056,-0.014489132983339868,0.006593442967936625,-135.18615927411605,-26.405782688920823,-33.476513522752754,-0.10099999999999999,-0.9245,-0.2284,-0.28800000000000003
76,1154623.0,1061.963064,1.0,5.05,2.07,-7.47,-7.56,-31.19,29.87,8.13,34.69,8.63,0.037010646873381764,-0.9466903866636542,0.6038945689447655,-134.7969534952698,-26.464637612964076,-34.07529458830543,-0.0972,-0.9232,-0.2289,-0.293
77,1154623.0,1061.963064,1.0,5.05,2.07,-7.47,-7.56,-31.19,29.87,8.13,34.69,8.63,0.037010646873381764,-0.9466903866636542,0.6038945689447655,-134.7969534952698,-26.464637612964076,-34.07529458830543,-0.0972,-0.9232,-0.2289,-0.293
78,1154656.0,1061.979122,1.0,4.4,1.86,-4.35,-7.56,-31.19,29.87,-21.56,54.19,14.75,1.0622091417910493,-0.6039819022843449,3.4624386541502625,-133.21309386328863,-25.923438140144057,-36.45610555039494,-0.0969,-0.9178,-0.2243,-0.3128
79,1154656.0,1061.979122,1.0,4.4,1.86,-4.35,-7.56,-31.19,29.87,-21.56,54.19,14.75,1.0622091417910493,-0.6039819022843449,3.4624386541502625,-133.21309386328863,-25.923438140144057,-36.45610555039494,-0.0969,-0.9178,-0.2243,-0.3128
80,1154693.0,1062.0217949999999,1.0,7.0,3.71,-6.56,-9.06,-30.37,29.87,-80.62,294.88,16.37,0.9809037162969678,-0.09662225820983394,-0.4318162932771941,-127.7407542896587,-25.30060996520192,-43.283258399546064,-0.0994,-0.8978,-0.21899999999999997,-0.3688
81,1154693.0,1062.0217949999999,1.0,7.0,3.71,-6.56,-9.06,-30.37,29.87,-80.62,294.88,16.37,0.9809037162969678,-0.09662225820983394,-0.4318162932771941,-127.7407542896587,-25.30060996520192,-43.283258399546064,-0.0994,-0.8978,-0.21899999999999997,-0.3688
82,1154729.0,1062.0758039999998,1.0,9.18,3.21,-9.82,-13.06,-32.0,27.06,-47.31,242.13,9.75,-2.869046560660238,-0.8777619571591158,-3.6843472121903513,-117.32089688772969,-25.206664604393566,-55.200512683923186,-0.0907,-0.8541,-0.2182,-0.4633
83,1154729.0,1062.0758039999998,1.0,9.18,3.21,-9.82,-13.06,-32.0,27.06,-47.31,242.13,9.75,-2.869046560660238,-0.8777619571591158,-3.6843472121903513,-117.32089688772969,-25.206664604393566,-55.200512683923186,-0.0907,-0.8541,-0.2182,-0.4633
84,1154764.0,1062.081398,1.0,7.49,3.77,-5.02,-13.06,-32.0,27.06,-48.81,41.13,12.31,-0.0611350943525722,0.23216384134592616,0.036503509234878,-114.68260427841713,-24.479166312304468,-58.31342248941901,-0.0949,-0.8419,-0.212,-0.4872
85,1154764.0,1062.081398,1.0,7.49,3.77,-5.02,-13.06,-32.0,27.06,-48.81,41.13,12.31,-0.0611350943525722,0.23216384134592616,0.036503509234878,-114.68260427841713,-24.479166312304468,-58.31342248941901,-0.0949,-0.8419,-0.212,-0.4872
86,1154799.0,1062.121029,1.0,6.99,4.02,-3.79,-19.87,-32.38,21.69,-31.44,43.38,18.12,0.5305437382777138,0.6912132832534401,0.9395564773834549,-113.39846355737878,-23.109005518751957,-60.145604275403045,-0.1008,-0.8358,-0.2003,-0.5011
87,1154799.0,1062.121029,1.0,6.99,4.02,-3.79,-19.87,-32.38,21.69,-31.44,43.38,18.12,0.5305437382777138,0.6912132832534401,0.9395564773834549,-113.39846355737878,-23.109005518751957,-60.145604275403045,-0.1008,-0.8358,-0.2003,-0.5011
88,1154834.0,1062.1471279999998,1.0,8.28,4.25,-5.66,-21.0,-33.19,19.19,-26.5,78.37,5.75,-0.9767428029502736,0.4662192647918124,-1.032404990820087,-111.25813232752796,-22.64135196781312,-62.557208730764245,-0.1024,-0.8254,-0.1963,-0.5192
89,1154834.0,1062.1471279999998,1.0,8.28,4.25,-5.66,-21.0,-33.19,19.19,-26.5,78.37,5.75,-0.9767428029502736,0.4662192647918124,-1.032404990820087,-111.25813232752796,-22.64135196781312,-62.557208730764245,-0.1024,-0.8254,-0.1963,-0.5192
90,1154871.0,1062.215325,1.0,8.43,3.95,-5.16,-23.25,-33.5,18.0,-5.5,-19.19,1.75,-0.7091018617686555,0.143445944359319,-0.8126530755640022,-110.47046523443146,-22.36094364221954,-63.484648540415236,-0.1033,-0.8215,-0.1939,-0.5261
91,1154871.0,1062.215325,1.0,8.43,3.95,-5.16,-23.25,-33.5,18.0,-5.5,-19.19,1.75,-0.7091018617686555,0.143445944359319,-0.8126530755640022,-110.47046523443146,-22.36094364221954,-63.484648540415236,-0.1033,-0.8215,-0.1939,-0.5261
92,1154904.0,1062.2598130000001,1.0,7.81,3.78,-4.22,-23.25,-33.5,18.0,-0.69,6.31,1.88,-0.09190962081705953,0.2130913004072834,0.16097507704660075,-110.7321495345978,-22.22079043012782,-63.25572065292907,-0.1044,-0.8228,-0.1927,-0.5244
93,1154904.0,1062.2598130000001,1.0,7.81,3.78,-4.22,-23.25,-33.5,18.0,-0.69,6.31,1.88,-0.09190962081705953,0.2130913004072834,0.16097507704660075,-110.7321495345978,-22.22079043012782,-63.25572065292907,-0.1044,-0.8228,-0.1927,-0.5244
94,1154940.0,1062.267266,1.0,8.16,3.42,-4.81,-22.87,-34.25,16.37,-1.56,-7.75,-0.37,-0.5783356504079424,-0.2411614533987996,-0.24449267279406506,-110.69183416222988,-22.162403204703928,-63.30956065668752,-0.1046,-0.8226,-0.1922,-0.5248
95,1154940.0,1062.267266,1.0,8.16,3.42,-4.81,-22.87,-34.25,16.37,-1.56,-7.75,-0.37,-0.5783356504079424,-0.2411614533987996,-0.24449267279406506,-110.69183416222988,-22.162403204703928,-63.30956065668752,-0.1046,-0.8226,-0.1922,-0.5248
96,1154977.0,1062.3295699999999,1.0,7.93,3.5,-4.37,-23.25,-33.19,16.75,-2.38,-17.12,3.88,-0.18441069638323074,-0.09212334745885432,0.10153248479636012,-111.13643927299914,-21.998949913651906,-62.89270673851754,-0.1055,-0.8248,-0.1908,-0.5217
97,1154977.0,1062.3295699999999,1.0,7.93,3.5,-4.37,-23.25,-33.19,16.75,-2.38,-17.12,3.88,-0.18441069638323074,-0.09212334745885432,0.10153248479636012,-111.13643927299914,-21.998949913651906,-62.89270673851754,-0.1055,-0.8248,-0.1908,-0.5217
98,1155010.0,1062.3469910000001,1.0,7.93,3.52,-4.48,-23.25,-33.19,16.75,-2.88,-0.31,3.19,-0.2381477696776152,-0.06757240796214202,0.045276141291392236,-111.46137512854489,-21.788862201095252,-62.63767369990508,-0.1061,-0.8264,-0.18899999999999997,-0.5198
99,1155010.0,1062.3469910000001,1.0,7.93,3.52,-4.48,-23.25,-33.19,16.75,-2.88,-0.31,3.19,-0.2381477696776152,-0.06757240796214202,0.045276141291392236,-111.46137512854489,-21.788862201095252,-62.63767369990508,-0.1061,-0.8264,-0.18899999999999997,-0.5198
100,1155045.0,1062.3524630000002,1.0,8.01,3.56,-4.79,-22.87,-33.88,16.0,-4.5,-4.56,-0.5,-0.4711404893638904,-0.07090257898293961,-0.1708646937288716,-111.60396041024363,-21.50886039245491,-62.5438012405264,-0.1081,-0.8271,-0.1866,-0.5191
101,1155045.0,1062.3524630000002,1.0,8.01,3.56,-4.79,-22.87,-33.88,16.0,-4.5,-4.56,-0.5,-0.4711404893638904,-0.07090257898293961,-0.1708646937288716,-111.60396041024363,-21.50886039245491,-62.5438012405264,-0.1081,-0.8271,-0.1866,-0.5191
102,1155082.0,1062.3927529999999,1.0,7.92,3.75,-4.83,-22.87,-34.38,16.37,-4.81,-19.25,4.06,-0.44530843784514135,0.13765389142369155,-0.18837635320987006,-112.05379617607242,-21.20567161915569,-62.15539687050149,-0.1093,-0.8293,-0.184,-0.5162
103,1155082.0,1062.3927529999999,1.0,7.92,3.75,-4.83,-22.87,-34.38,16.37,-4.81,-19.25,4.06,-0.44530843784514135,0.13765389142369155,-0.18837635320987006,-112.05379617607242,-21.20567161915569,-62.15539687050149,-0.1093,-0.8293,-0.184,-0.5162
104,1155117.0,1062.445788,1.0,7.53,3.62,-4.32,-22.87,-34.38,16.37,-0.69,-27.81,-0.88,-0.05013074704382761,0.1488376630200825,0.4022343212739923,-112.8163105430652,-21.07744476440248,-61.367629313530685,-0.111,-0.833,-0.1829,-0.5103
105,1155117.0,1062.445788,1.0,7.53,3.62,-4.32,-22.87,-34.38,16.37,-0.69,-27.81,-0.88,-0.05013074704382761,0.1488376630200825,0.4022343212739923,-112.8163105430652,-21.07744476440248,-61.367629313530685,-0.111,-0.833,-0.1829,-0.5103
106,1155151.0,1062.502848,1.0,7.58,3.78,-4.69,-23.25,-34.0,17.56,-0.75,-4.06,-1.81,-0.2722378424584844,0.2396319665536324,0.13145681961651154,-113.1484208155573,-21.042478443283557,-60.9683017245208,-0.1128,-0.8346,-0.1826,-0.5073
107,1155151.0,1062.502848,1.0,7.58,3.78,-4.69,-23.25,-34.0,17.56,-0.75,-4.06,-1.81,-0.2722378424584844,0.2396319665536324,0.13145681961651154,-113.1484208155573,-21.042478443283557,-60.9683017245208,-0.1128,-0.8346,-0.1826,-0.5073
108,1155186.0,1062.522964,1.0,7.86,3.42,-4.77,-22.87,-33.25,18.37,4.13,1.94,2.69,-0.2856880397198992,-0.18073243562174726,0.002843691699370155,-113.19003713661381,-21.054133663315955,-60.955004938931104,-0.1113,-0.8348,-0.1827,-0.5072
109,1155186.0,1062.522964,1.0,7.86,3.42,-4.77,-22.87,-33.25,18.37,4.13,1.94,2.69,-0.2856880397198992,-0.18073243562174726,0.002843691699370155,-113.19003713661381,-21.054133663315955,-60.955004938931104,-0.1113,-0.8348,-0.1827,-0.5072
110,1155223.0,1062.564999,1.0,7.77,3.7,-4.58,-22.87,-33.56,17.19,-8.13,-7.25,-1.5,-0.08455593761901273,0.09752434580313983,0.05869435302513715,-113.3567321523323,-20.879328419459103,-60.80880014298898,-0.1129,-0.8356,-0.1812,-0.5061
111,1155223.0,1062.564999,1.0,7.77,3.7,-4.58,-22.87,-33.56,17.19,-8.13,-7.25,-1.5,-0.08455593761901273,0.09752434580313983,0.05869435302513715,-113.3567321523323,-20.879328419459103,-60.80880014298898,-0.1129,-0.8356,-0.1812,-0.5061
112,1155256.0,1062.5725300000001,1.0,7.8,3.82,-4.77,-22.87,-33.56,17.19,0.63,4.38,0.06,-0.23416556729007226,0.1852882428377134,-0.09769928474161738,-113.2733386110762,-20.867676487915002,-60.88853462317393,-0.1135,-0.8352,-0.1811,-0.5067
113,1155256.0,1062.5725300000001,1.0,7.8,3.82,-4.77,-22.87,-33.56,17.19,0.63,4.38,0.06,-0.23416556729007226,0.1852882428377134,-0.09769928474161738,-113.2733386110762,-20.867676487915002,-60.88853462317393,-0.1135,-0.8352,-0.1811,-0.5067
114,1155293.0,1062.63476,1.0,8.08,3.88,-5.07,-22.06,-34.38,18.0,-0.94,0.12,1.88,-0.3776900686536717,0.13172295448498295,-0.4834277098767394,-113.23167638730342,-20.879328419459103,-60.941709061307236,-0.1129,-0.835,-0.1812,-0.5071
115,1155293.0,1062.63476,1.0,8.08,3.88,-5.07,-22.06,-34.38,18.0,-0.94,0.12,1.88,-0.3776900686536717,0.13172295448498295,-0.4834277098767394,-113.23167638730342,-20.879328419459103,-60.941709061307236,-0.1129,-0.835,-0.1812,-0.5071
116,1155328.0,1062.6528230000001,1.0,7.79,3.84,-4.6,-22.87,-33.56,18.0,3.19,-3.44,-4.38,-0.0573091615049027,0.20110576679531134,-0.01913099341570046,-113.3567321523323,-21.042478443283557,-60.75566190693615,-0.1129,-0.8356,-0.1826,-0.5057
117,1155328.0,1062.6528230000001,1.0,7.79,3.84,-4.6,-22.87,-33.56,18.0,3.19,-3.44,-4.38,-0.0573091615049027,0.20110576679531134,-0.01913099341570046,-113.3567321523323,-21.042478443283557,-60.75566190693615,-0.1129,-0.8356,-0.1826,-0.5057
118,1155362.0,1062.701574,1.0,7.55,3.2,-4.78,-22.87,-33.56,18.0,4.06,-1.44,-2.63,-0.42747026659362897,-0.28454561767715125,0.3289285985955939,-113.3567321523323,-21.22898847391229,-60.68925941563211,-0.1122,-0.8356,-0.1842,-0.5052
119,1155362.0,1062.701574,1.0,7.55,3.2,-4.78,-22.87,-33.56,18.0,4.06,-1.44,-2.63,-0.42747026659362897,-0.28454561767715125,0.3289285985955939,-113.3567321523323,-21.22898847391229,-60.68925941563211,-0.1122,-0.8356,-0.1842,-0.5052
120,1155397.0,1062.7195880000002,1.0,7.52,3.68,-4.79,-22.87,-34.75,17.69,-5.06,-2.13,2.44,-0.3528293949788983,0.16094541944782925,0.16888532192253436,-113.44021811063548,-21.08910064572278,-60.64942873214444,-0.113,-0.836,-0.183,-0.5049
121,1155397.0,1062.7195880000002,1.0,7.52,3.68,-4.79,-22.87,-34.75,17.69,-5.06,-2.13,2.44,-0.3528293949788983,0.16094541944782925,0.16888532192253436,-113.44021811063548,-21.08910064572278,-60.64942873214444,-0.113,-0.836,-0.183,-0.5049
122,1155432.0,1062.7695039999999,1.0,7.85,3.87,-4.76,-21.75,-34.38,18.0,3.63,6.69,-1.81,-0.165730078843824,0.20219204224501786,-0.15269997472320895,-113.33587511663835,-21.12406961438943,-60.75566190693615,-0.1125,-0.8355,-0.1833,-0.5057
123,1155432.0,1062.7695039999999,1.0,7.85,3.87,-4.76,-21.75,-34.38,18.0,3.63,6.69,-1.81,-0.165730078843824,0.20219204224501786,-0.15269997472320895,-113.33587511663835,-21.12406961438943,-60.75566190693615,-0.1125,-0.8355,-0.1833,-0.5057
124,1155469.0,1062.838326,1.0,7.91,3.62,-4.81,-21.75,-34.38,18.0,6.13,2.5,-2.94,-0.2417102637962407,-0.04646406470821751,-0.1305536931455915,-113.19003713661381,-21.33392533931821,-60.83537468333018,-0.1113,-0.8348,-0.1851,-0.5063
125,1155469.0,1062.838326,1.0,7.91,3.62,-4.81,-21.75,-34.38,18.0,6.13,2.5,-2.94,-0.2417102637962407,-0.04646406470821751,-0.1305536931455915,-113.19003713661381,-21.33392533931821,-60.83537468333018,-0.1113,-0.8348,-0.1851,-0.5063
126,1155502.0,1062.8597320000001,1.0,7.92,3.43,-4.89,-21.37,-33.88,17.19,6.25,2.0,-0.88,-0.3430490745261597,-0.2099806362076917,-0.10504135238202393,-113.16922611259191,-21.473869337236096,-60.861952842422134,-0.1099,-0.8347,-0.1863,-0.5065
127,1155502.0,1062.8597320000001,1.0,7.92,3.43,-4.89,-21.37,-33.88,17.19,6.25,2.0,-0.88,-0.3430490745261597,-0.2099806362076917,-0.10504135238202393,-113.16922611259191,-21.473869337236096,-60.861952842422134,-0.1099,-0.8347,-0.1863,-0.5065
128,1155536.0,1062.86309,1.0,7.74,3.38,-4.71,-22.5,-33.88,17.19,-1.44,-1.5,-2.75,-0.24948158670983225,-0.1841493391252376,0.14125047598690801,-113.2733386110762,-21.473869337236096,-60.74237960510433,-0.11,-0.8352,-0.1863,-0.5056
129,1155536.0,1062.86309,1.0,7.74,3.38,-4.71,-22.5,-33.88,17.19,-1.44,-1.5,-2.75,-0.24948158670983225,-0.1841493391252376,0.14125047598690801,-113.2733386110762,-21.473869337236096,-60.74237960510433,-0.11,-0.8352,-0.1863,-0.5056
130,1155573.0,1062.9100859999999,1.0,7.91,3.62,-4.83,-22.5,-33.88,18.75,0.81,5.06,0.06,-0.24836636541497725,-0.0326079635889871,-0.14014098349016102,-113.19003713661381,-21.50886039245491,-60.82208696099747,-0.1096,-0.8348,-0.1866,-0.5062
131,1155573.0,1062.9100859999999,1.0,7.91,3.62,-4.83,-22.5,-33.88,18.75,0.81,5.06,0.06,-0.24836636541497725,-0.0326079635889871,-0.14014098349016102,-113.19003713661381,-21.50886039245491,-60.82208696099747,-0.1096,-0.8348,-0.1866,-0.5062
132,1155606.0,1062.935943,1.0,7.9,3.73,-4.86,-22.5,-33.88,18.75,-0.31,-1.0,-1.31,-0.2528053075272331,0.06685749231779492,-0.1870539956267976,-113.19003713661381,-21.555518290408003,-60.79551422894158,-0.1096,-0.8348,-0.187,-0.506
133,1155606.0,1062.935943,1.0,7.9,3.73,-4.86,-22.5,-33.88,18.75,-0.31,-1.0,-1.31,-0.2528053075272331,0.06685749231779492,-0.1870539956267976,-113.19003713661381,-21.555518290408003,-60.79551422894158,-0.1096,-0.8348,-0.187,-0.506
134,1155643.0,1062.984106,1.0,7.67,3.63,-4.91,-22.06,-34.0,18.0,2.06,1.0,-2.19,-0.4058817234154904,0.06650955750052279,0.011511588249080162,-113.21085389304196,-21.637178319468852,-60.75566190693615,-0.1096,-0.8349,-0.1877,-0.5057
135,1155643.0,1062.984106,1.0,7.67,3.63,-4.91,-22.06,-34.0,18.0,2.06,1.0,-2.19,-0.4058817234154904,0.06650955750052279,0.011511588249080162,-113.21085389304196,-21.637178319468852,-60.75566190693615,-0.1096,-0.8349,-0.1877,-0.5057
136,1155678.0,1063.0076789999998,1.0,7.69,3.51,-4.65,-22.5,-33.56,17.56,0.5,1.19,-2.56,-0.18681363035635964,-0.06312102642559259,0.16093507556147735,-113.21085389304196,-21.695513718287586,-60.71581770752129,-0.1099,-0.8349,-0.1882,-0.5054
137,1155678.0,1063.0076789999998,1.0,7.69,3.51,-4.65,-22.5,-33.56,17.56,0.5,1.19,-2.56,-0.18681363035635964,-0.06312102642559259,0.16093507556147735,-113.21085389304196,-21.695513718287586,-60.71581770752129,-0.1099,-0.8349,-0.1882,-0.5054
138,1155713.0,1063.05549,1.0,7.75,3.57,-4.69,-22.5,-33.56,17.56,-1.25,1.37,0.75,-0.18673644623492675,-0.026754942806353817,0.07176871296403675,-113.21085389304196,-21.695513718287586,-60.74237960510433,-0.1095,-0.8349,-0.1882,-0.5056
139,1155713.0,1063.05549,1.0,7.75,3.57,-4.69,-22.5,-33.56,17.56,-1.25,1.37,0.75,-0.18673644623492675,-0.026754942806353817,0.07176871296403675,-113.21085389304196,-21.695513718287586,-60.74237960510433,-0.1095,-0.8349,-0.1882,-0.5056
140,1155747.0,1063.114741,1.0,7.8,3.8,-4.69,-22.06,-34.75,18.87,-1.19,4.75,1.37,-0.1389880700461279,0.16561007392592694,-0.05384469447649387,-113.08603923231148,-21.695513718287586,-60.861952842422134,-0.1093,-0.8343,-0.1882,-0.5065
141,1155747.0,1063.114741,1.0,7.8,3.8,-4.69,-22.06,-34.75,18.87,-1.19,4.75,1.37,-0.1389880700461279,0.16561007392592694,-0.05384469447649387,-113.08603923231148,-21.695513718287586,-60.861952842422134,-0.1093,-0.8343,-0.1882,-0.5065
142,1155782.0,1063.133369,1.0,7.85,3.7,-4.72,-21.0,-34.25,17.19,4.88,2.94,-3.06,-0.1796551979094059,0.060213144743484825,-0.0703433880237192,-112.9821839632563,-21.765523710742034,-60.9683017245208,-0.1087,-0.8338,-0.1888,-0.5073
143,1155782.0,1063.133369,1.0,7.85,3.7,-4.72,-21.0,-34.25,17.19,4.88,2.94,-3.06,-0.1796551979094059,0.060213144743484825,-0.0703433880237192,-112.9821839632563,-21.765523710742034,-60.9683017245208,-0.1087,-0.8338,-0.1888,-0.5073
144,1155819.0,1063.1363800000001,1.0,7.71,3.47,-4.66,-21.0,-34.25,17.19,2.38,4.31,-0.5,-0.2357694747009847,-0.0867228735442458,0.15587324898127794,-112.89920199482374,-21.882225322200526,-61.008197532736816,-0.10800000000000001,-0.8334,-0.1898,-0.5076
145,1155819.0,1063.1363800000001,1.0,7.71,3.47,-4.66,-21.0,-34.25,17.19,2.38,4.31,-0.5,-0.2357694747009847,-0.0867228735442458,0.15587324898127794,-112.89920199482374,-21.882225322200526,-61.008197532736816,-0.10800000000000001,-0.8334,-0.1898,-0.5076
146,1155852.0,1063.179477,1.0,7.86,3.69,-4.68,-22.5,-33.88,18.5,-0.5,7.13,1.06,-0.1786972134771474,0.060838483517073876,-0.05552349192453043,-112.71282300150172,-21.90556839778225,-61.22111365086855,-0.1074,-0.8325,-0.19,-0.5092
147,1155852.0,1063.179477,1.0,7.86,3.69,-4.68,-22.5,-33.88,18.5,-0.5,7.13,1.06,-0.1786972134771474,0.060838483517073876,-0.05552349192453043,-112.71282300150172,-21.90556839778225,-61.22111365086855,-0.1074,-0.8325,-0.19,-0.5092
148,1155887.0,1063.2024509999999,1.0,7.95,3.72,-4.71,-22.5,-34.69,18.75,3.13,9.69,-0.19,-0.19625439198847588,0.06568336991196677,-0.15237454603573575,-112.50626800349724,-21.952257310852513,-61.447593803930225,-0.1065,-0.8315,-0.1904,-0.5109
149,1155887.0,1063.2024509999999,1.0,7.95,3.72,-4.71,-22.5,-34.69,18.75,3.13,9.69,-0.19,-0.19625439198847588,0.06568336991196677,-0.15237454603573575,-112.50626800349724,-21.952257310852513,-61.447593803930225,-0.1065,-0.8315,-0.1904,-0.5109
150,1155921.0,1063.245083,1.0,7.89,3.37,-4.63,-22.06,-34.69,16.75,1.69,6.69,-0.56,-0.2578554985250908,-0.2151895300077722,0.06328795150485966,-112.30026879409438,-21.963930115303267,-61.67434029817293,-0.106,-0.8305,-0.1905,-0.5126
151,1155921.0,1063.245083,1.0,7.89,3.37,-4.63,-22.06,-34.69,16.75,1.69,6.69,-0.56,-0.2578554985250908,-0.2151895300077722,0.06328795150485966,-112.30026879409438,-21.963930115303267,-61.67434029817293,-0.106,-0.8305,-0.1905,-0.5126
152,1155956.0,1063.311027,1.0,7.78,3.46,-4.55,-22.06,-34.69,16.75,-3.56,9.25,-1.19,-0.2689148614322825,-0.08816303914176604,0.15665455565754094,-111.97181334084304,-21.975603150496873,-62.00827871831106,-0.1063,-0.8289,-0.1906,-0.5151
153,1155956.0,1063.311027,1.0,7.78,3.46,-4.55,-22.06,-34.69,16.75,-3.56,9.25,-1.19,-0.2689148614322825,-0.08816303914176604,0.15665455565754094,-111.97181334084304,-21.975603150496873,-62.00827871831106,-0.1063,-0.8289,-0.1906,-0.5151
154,1155993.0,1063.3306910000001,1.0,8.09,3.96,-4.83,-22.5,-33.5,18.0,-3.13,10.31,0.75,-0.3491256545950272,0.2513094980649337,-0.40479234736141295,-111.68555504305651,-21.917240280609395,-62.32941069730318,-0.1062,-0.8275,-0.1901,-0.5175
155,1155993.0,1063.3306910000001,1.0,8.09,3.96,-4.83,-22.5,-33.5,18.0,-3.13,10.31,0.75,-0.3491256545950272,0.2513094980649337,-0.40479234736141295,-111.68555504305651,-21.917240280609395,-62.32941069730318,-0.1062,-0.8275,-0.1901,-0.5175
