,TIME,ELAPSED_SECONDS,PSTATE,acc_x,acc_y,acc_z,mag_x,mag_y,mag_z,gyr_x,gyr_y,gyr_z,lin_x,lin_y,lin_z,eul_x,eul_y,eul_z,qua_w,qua_x,qua_y,qua_z
0,3271626.0,3338.223264,1.0,7.52,4.87,-4.6,-34.75,-26.25,0.06,1.0,0.06,0.75,0.12359657716549745,-0.16780657282550138,-0.2623054989695728,-101.24811180991699,41.26836056402613,-32.138622347851936,-0.4491,-0.773,0.3524,-0.2768
1,3271626.0,3338.223264,1.0,7.52,4.87,-4.6,-34.75,-26.25,0.06,1.0,0.06,0.75,0.12359657716549745,-0.16780657282550138,-0.2623054989695728,-101.24811180991699,41.26836056402613,-32.138622347851936,-0.4491,-0.773,0.3524,-0.2768
2,3271661.0,3338.348366,1.0,7.34,4.86,-4.41,-34.38,-26.25,0.5,1.12,-2.19,0.94,0.04228704526952076,-0.04505736083345546,-0.03913496820020335,-101.26617635567743,41.31734313597096,-32.114772865183184,-0.4487,-0.7731,0.3528,-0.2766
3,3271661.0,3338.348366,1.0,7.34,4.86,-4.41,-34.38,-26.25,0.5,1.12,-2.19,0.94,0.04228704526952076,-0.04505736083345546,-0.03913496820020335,-101.26617635567743,41.31734313597096,-32.114772865183184,-0.4487,-0.7731,0.3528,-0.2766
4,3271694.0,3338.366925,1.0,7.32,4.94,-4.42,-34.38,-26.25,0.5,0.5,-0.12,0.25,-0.03329577620821378,-0.02471707125053424,-0.06860596922305184,-101.30231586461944,41.341837382049434,-32.09092481112806,-0.4485,-0.7733,0.353,-0.2764
5,3271694.0,3338.366925,1.0,7.32,4.94,-4.42,-34.38,-26.25,0.5,0.5,-0.12,0.25,-0.03329577620821378,-0.02471707125053424,-0.06860596922305184,-101.30231586461944,41.341837382049434,-32.09092481112806,-0.4485,-0.7733,0.353,-0.2764
6,3271729.0,3338.4158199999997,1.0,7.32,4.9,-4.48,-35.06,-26.25,0.5,0.94,-1.69,0.88,-0.010511355732702564,-0.08560661947542547,-0.07542270860231247,-101.30231586461944,41.36633360366066,-32.07900131942766,-0.4482,-0.7733,0.3532,-0.2763
7,3271729.0,3338.4158199999997,1.0,7.32,4.9,-4.48,-35.06,-26.25,0.5,0.94,-1.69,0.88,-0.010511355732702564,-0.08560661947542547,-0.07542270860231247,-101.30231586461944,41.36633360366066,-32.07900131942766,-0.4482,-0.7733,0.3532,-0.2763
8,3271766.0,3338.470187,1.0,7.23,4.91,-4.31,-35.88,-25.5,0.06,0.63,-0.69,0.75,-0.056627051361667576,0.04883806767012455,0.06234354852792201,-101.30231586461944,41.40308164369669,-32.067078184397204,-0.4479,-0.7733,0.3535,-0.2762
9,3271766.0,3338.470187,1.0,7.23,4.91,-4.31,-35.88,-25.5,0.06,0.63,-0.69,0.75,-0.056627051361667576,0.04883806767012455,0.06234354852792201,-101.30231586461944,41.40308164369669,-32.067078184397204,-0.4479,-0.7733,0.3535,-0.2762
10,3271800.0,3338.474739,1.0,7.32,4.92,-4.44,-35.88,-25.5,0.06,-0.19,-0.44,0.81,-0.029156295975759194,-0.034273637554488534,-0.06757782946463031,-101.30231586461944,41.42758281113211,-32.07900131942766,-0.4478,-0.7733,0.3537,-0.2763
11,3271800.0,3338.474739,1.0,7.32,4.92,-4.44,-35.88,-25.5,0.06,-0.19,-0.44,0.81,-0.029156295975759194,-0.034273637554488534,-0.06757782946463031,-101.30231586461944,41.42758281113211,-32.07900131942766,-0.4478,-0.7733,0.3537,-0.2763
12,3271833.0,3338.51281,1.0,7.28,4.91,-4.5,-34.0,-26.25,0.06,-0.5,-1.5,0.56,-0.047490271577585334,-0.09676253096820764,-0.05970098132567792,-101.32039083270723,41.452085959696824,-32.031310917714855,-0.4477,-0.7734,0.3539,-0.2759
13,3271833.0,3338.51281,1.0,7.28,4.91,-4.5,-34.0,-26.25,0.06,-0.5,-1.5,0.56,-0.047490271577585334,-0.09676253096820764,-0.05970098132567792,-101.32039083270723,41.452085959696824,-32.031310917714855,-0.4477,-0.7734,0.3539,-0.2759
14,3271868.0,3338.516001,1.0,7.22,4.93,-4.36,-35.06,-25.87,-0.75,-0.06,-0.88,0.31,-0.08183974371346392,0.020773272318443503,0.037526665354965516,-101.33846927981493,41.46433827740303,-32.007467853657644,-0.4476,-0.7735,0.354,-0.2757
15,3271868.0,3338.516001,1.0,7.22,4.93,-4.36,-35.06,-25.87,-0.75,-0.06,-0.88,0.31,-0.08183974371346392,0.020773272318443503,0.037526665354965516,-101.33846927981493,41.46433827740303,-32.007467853657644,-0.4476,-0.7735,0.354,-0.2757
16,3271905.0,3338.519591,1.0,7.3,4.89,-4.48,-35.88,-25.5,-0.75,1.25,0.25,0.19,-0.015422038789437709,-0.07222873134042684,-0.055755648273068566,-101.35655120840237,41.452085959696824,-32.007467853657644,-0.4474,-0.7736,0.3539,-0.2757
17,3271905.0,3338.519591,1.0,7.3,4.89,-4.48,-35.88,-25.5,-0.75,1.25,0.25,0.19,-0.015422038789437709,-0.07222873134042684,-0.055755648273068566,-101.35655120840237,41.452085959696824,-32.007467853657644,-0.4474,-0.7736,0.3539,-0.2757
18,3271940.0,3338.525478,1.0,7.27,4.61,-4.47,-35.88,-25.5,-0.75,2.25,0.56,0.19,0.1867685722721508,-0.16357577756070366,0.11003922791025468,-101.41081790768305,41.43983413767325,-32.031310917714855,-0.447,-0.7739,0.3538,-0.2759
19,3271940.0,3338.525478,1.0,7.27,4.61,-4.47,-35.88,-25.5,-0.75,2.25,0.56,0.19,0.1867685722721508,-0.16357577756070366,0.11003922791025468,-101.41081790768305,41.43983413767325,-32.031310917714855,-0.447,-0.7739,0.3538,-0.2759
20,3271976.0,3338.562316,1.0,7.11,4.55,-4.15,-35.06,-26.25,0.0,-1.56,1.0,0.5,0.16697618205012302,0.05347033098613485,0.4020575113095841,-101.39272551986973,41.47659109099214,-32.055155405875595,-0.4468,-0.7738,0.3541,-0.2761
21,3271976.0,3338.562316,1.0,7.11,4.55,-4.15,-35.06,-26.25,0.0,-1.56,1.0,0.5,0.16697618205012302,0.05347033098613485,0.4020575113095841,-101.39272551986973,41.47659109099214,-32.055155405875595,-0.4468,-0.7738,0.3541,-0.2761
22,3272009.0,3338.614174,1.0,6.98,4.32,-3.96,-34.75,-25.5,0.5,-1.56,1.44,0.88,0.28873300253002504,0.09212463484634892,0.6977232627326249,-101.32039083270723,41.48884440066444,-32.09092481112806,-0.4472,-0.7734,0.3542,-0.2764
23,3272009.0,3338.614174,1.0,6.98,4.32,-3.96,-34.75,-25.5,0.5,-1.56,1.44,0.88,0.28873300253002504,0.09212463484634892,0.6977232627326249,-101.32039083270723,41.48884440066444,-32.09092481112806,-0.4472,-0.7734,0.3542,-0.2764
24,3272044.0,3338.642329,1.0,6.59,4.12,-3.82,-34.75,-25.5,0.5,-4.13,3.25,2.63,0.21696442275597486,0.005188967614491169,1.1494102832153692,-101.12175699059144,41.55011839728967,-32.18632560419117,-0.4482,-0.7723,0.3547,-0.2772
25,3272044.0,3338.642329,1.0,6.59,4.12,-3.82,-34.75,-25.5,0.5,-4.13,3.25,2.63,0.21696442275597486,0.005188967614491169,1.1494102832153692,-101.12175699059144,41.55011839728967,-32.18632560419117,-0.4482,-0.7723,0.3547,-0.2772
26,3272079.0,3338.677873,1.0,5.78,3.32,-3.18,-35.19,-26.25,0.5,2.13,12.0,10.63,0.404616534186264,0.029139015320232886,2.432462832721884,-100.85156520381315,41.635922884224854,-32.49653690025889,-0.4486,-0.7708,0.3554,-0.2798
27,3272079.0,3338.677873,1.0,5.78,3.32,-3.18,-35.19,-26.25,0.5,2.13,12.0,10.63,0.404616534186264,0.029139015320232886,2.432462832721884,-100.85156520381315,41.635922884224854,-32.49653690025889,-0.4486,-0.7708,0.3554,-0.2798
28,3272116.0,3338.7313719999997,1.0,5.08,3.01,-2.14,-34.38,-26.25,-1.06,6.81,27.44,16.19,0.2702599922639519,0.5894575335694949,3.5596027492822926,-100.33136679814685,41.64818266123672,-33.4525819599508,-0.4484,-0.7679,0.3555,-0.2878
29,3272116.0,3338.7313719999997,1.0,5.08,3.01,-2.14,-34.38,-26.25,-1.06,6.81,27.44,16.19,0.2702599922639519,0.5894575335694949,3.5596027492822926,-100.33136679814685,41.64818266123672,-33.4525819599508,-0.4484,-0.7679,0.3555,-0.2878
30,3272151.0,3338.73767,1.0,4.83,2.52,-1.56,-34.38,-26.25,-1.06,23.87,43.75,29.06,0.4889952919753658,0.8140383133280297,4.219958203519726,-99.8317785547328,41.51335250906026,-34.843138613311,-0.4464,-0.7651,0.3544,-0.2994
31,3272151.0,3338.73767,1.0,4.83,2.52,-1.56,-34.38,-26.25,-1.06,23.87,43.75,29.06,0.4889952919753658,0.8140383133280297,4.219958203519726,-99.8317785547328,41.51335250906026,-34.843138613311,-0.4464,-0.7651,0.3544,-0.2994
32,3272185.0,3338.774323,1.0,4.82,1.68,-0.6,-35.5,-25.87,-0.69,25.0,76.25,58.44,1.09129798021553,1.2634034470451787,4.945818749239296,-98.43594799577524,41.51335250906026,-38.05234138049009,-0.4414,-0.7572,0.3544,-0.326
33,3272185.0,3338.774323,1.0,4.82,1.68,-0.6,-35.5,-25.87,-0.69,25.0,76.25,58.44,1.09129798021553,1.2634034470451787,4.945818749239296,-98.43594799577524,41.51335250906026,-38.05234138049009,-0.4414,-0.7572,0.3544,-0.326
34,3272220.0,3338.817798,1.0,6.23,2.48,-0.14,-36.56,-24.75,-2.0,4.31,112.56,56.5,1.0104637923522826,2.0839526714172707,3.5122871102678026,-96.16370776619527,41.41533197987328,-41.31734313597096,-0.4437,-0.7441,0.3536,-0.3528
35,3272220.0,3338.817798,1.0,6.23,2.48,-0.14,-36.56,-24.75,-2.0,4.31,112.56,56.5,1.0104637923522826,2.0839526714172707,3.5122871102678026,-96.16370776619527,41.41533197987328,-41.31734313597096,-0.4437,-0.7441,0.3536,-0.3528
36,3272257.0,3338.8468399999997,1.0,7.92,2.41,0.27,-37.38,-23.25,-4.5,-15.44,120.0,50.94,1.5885866028579887,2.2673050361344043,2.0000425115745903,-92.32383080569313,40.86455395752174,-45.821900740364754,-0.4541,-0.7213,0.3491,-0.3893
37,3272257.0,3338.8468399999997,1.0,7.92,2.41,0.27,-37.38,-23.25,-4.5,-15.44,120.0,50.94,1.5885866028579887,2.2673050361344043,2.0000425115745903,-92.32383080569313,40.86455395752174,-45.821900740364754,-0.4541,-0.7213,0.3491,-0.3893
38,3272292.0,3338.910081,1.0,7.57,2.54,2.49,-37.38,-23.25,-4.5,-32.06,136.25,56.81,1.4407525366363592,3.7722565002603625,2.481971643620154,-87.62490137692915,40.497916639737895,-50.4026226278441,-0.4686,-0.6923,0.3461,-0.4258
39,3272292.0,3338.910081,1.0,7.57,2.54,2.49,-37.38,-23.25,-4.5,-32.06,136.25,56.81,1.4407525366363592,3.7722565002603625,2.481971643620154,-87.62490137692915,40.497916639737895,-50.4026226278441,-0.4686,-0.6923,0.3461,-0.4258
40,3272329.0,3338.9165510000003,1.0,8.55,2.34,5.48,-38.5,-21.75,-9.38,-54.13,199.75,43.94,2.4397573339560203,5.9131848241219584,1.5792367134814764,-82.87459184999501,39.37623490539532,-54.748405244337505,-0.4869,-0.6618,0.3369,-0.4598
41,3272329.0,3338.9165510000003,1.0,8.55,2.34,5.48,-38.5,-21.75,-9.38,-54.13,199.75,43.94,2.4397573339560203,5.9131848241219584,1.5792367134814764,-82.87459184999501,39.37623490539532,-54.748405244337505,-0.4869,-0.6618,0.3369,-0.4598
42,3272366.0,3338.965068,1.0,11.24,2.52,7.49,-37.75,-21.0,-16.0,-116.5,284.38,11.5,3.0218549961728836,6.002440802503602,-2.177806466379481,-74.17012064859728,36.62505057506963,-60.90182687258211,-0.5298,-0.603,0.3142,-0.5068
43,3272366.0,3338.965068,1.0,11.24,2.52,7.49,-37.75,-21.0,-16.0,-116.5,284.38,11.5,3.0218549961728836,6.002440802503602,-2.177806466379481,-74.17012064859728,36.62505057506963,-60.90182687258211,-0.5298,-0.603,0.3142,-0.5068
44,3272400.0,3339.0130050000002,1.0,13.17,3.01,9.64,-37.75,-21.0,-16.0,-158.56,348.25,30.31,2.7256360108046938,5.355658243116683,-5.6635288328235225,-64.98646672733051,33.644076625825655,-66.33657485995305,-0.5729,-0.5372,0.2894,-0.5471
45,3272400.0,3339.0130050000002,1.0,13.17,3.01,9.64,-37.75,-21.0,-16.0,-158.56,348.25,30.31,2.7256360108046938,5.355658243116683,-5.6635288328235225,-64.98646672733051,33.644076625825655,-66.33657485995305,-0.5729,-0.5372,0.2894,-0.5471
46,3272435.0,3339.035413,1.0,13.45,7.43,11.24,-34.06,-19.19,-26.0,-219.13,374.06,15.25,-3.174587756266905,2.7758224514755363,-8.75841941262662,-49.87128691094202,30.318170931025325,-72.66923443071872,-0.6347,-0.4216,0.2615,-0.5925
47,3272435.0,3339.035413,1.0,13.45,7.43,11.24,-34.06,-19.19,-26.0,-219.13,374.06,15.25,-3.174587756266905,2.7758224514755363,-8.75841941262662,-49.87128691094202,30.318170931025325,-72.66923443071872,-0.6347,-0.4216,0.2615,-0.5925
48,3272470.0,3339.085831,1.0,13.22,5.05,10.84,-24.87,-15.5,-35.75,-175.44,417.13,-1.56,-2.396048285001331,-2.7730388265235506,-7.638856822174453,-34.387038954542724,23.95177191669858,-77.70240232798936,-0.6901,-0.2956,0.2075,-0.6273
49,3272470.0,3339.085831,1.0,13.22,5.05,10.84,-24.87,-15.5,-35.75,-175.44,417.13,-1.56,-2.396048285001331,-2.7730388265235506,-7.638856822174453,-34.387038954542724,23.95177191669858,-77.70240232798936,-0.6901,-0.2956,0.2075,-0.6273
50,3272509.0,3339.109414,1.0,12.31,5.94,7.22,-9.88,-9.88,-42.75,-166.94,359.31,16.19,-4.373459569904197,-7.41619299179433,-3.0316144036829997,-23.506817731301986,18.843446306043923,-80.76691471699652,-0.7155,-0.2037,0.1637,-0.6479
51,3272509.0,3339.109414,1.0,12.31,5.94,7.22,-9.88,-9.88,-42.75,-166.94,359.31,16.19,-4.373459569904197,-7.41619299179433,-3.0316144036829997,-23.506817731301986,18.843446306043923,-80.76691471699652,-0.7155,-0.2037,0.1637,-0.6479
52,3272542.0,3339.135124,1.0,7.96,4.28,7.18,-9.88,-9.88,-42.75,-120.94,281.19,-36.94,-3.5137010645083477,-5.761434129823692,0.4422396289741997,-12.434654560583265,13.79574779269871,-81.12844881454608,-0.7423,-0.1083,0.1201,-0.6503
53,3272542.0,3339.135124,1.0,7.96,4.28,7.18,-9.88,-9.88,-42.75,-120.94,281.19,-36.94,-3.5137010645083477,-5.761434129823692,0.4422396289741997,-12.434654560583265,13.79574779269871,-81.12844881454608,-0.7423,-0.1083,0.1201,-0.6503
54,3272579.0,3339.207467,1.0,3.36,-0.58,9.48,4.69,-4.56,-43.25,-42.5,166.81,-47.0,0.6500039618208109,-1.0894858649310983,-0.1876941705663029,-7.717845476549469,10.177646918437086,-79.95698362722979,-0.7582,-0.0673,0.0887,-0.6425
55,3272579.0,3339.207467,1.0,3.36,-0.58,9.48,4.69,-4.56,-43.25,-42.5,166.81,-47.0,0.6500039618208109,-1.0894858649310983,-0.1876941705663029,-7.717845476549469,10.177646918437086,-79.95698362722979,-0.7582,-0.0673,0.0887,-0.6425
56,3272615.0,3339.210452,1.0,3.56,1.01,10.54,13.0,-1.5,-42.69,-73.37,109.81,-11.63,-1.1748379384425562,-2.283334488002952,-1.0649386343391534,-2.956790311078442,8.108387763620353,-79.56872631159283,-0.7648,-0.0258,0.0707,-0.6399
57,3272615.0,3339.210452,1.0,3.56,1.01,10.54,13.0,-1.5,-42.69,-73.37,109.81,-11.63,-1.1748379384425562,-2.283334488002952,-1.0649386343391534,-2.956790311078442,8.108387763620353,-79.56872631159283,-0.7648,-0.0258,0.0707,-0.6399
58,3272652.0,3339.286678,1.0,3.74,-0.88,8.97,13.0,-1.5,-42.69,-48.63,112.62,-31.87,0.7406801837752597,-2.8864112630769707,0.5145607362367084,0.4583674584234223,6.569694717687418,-78.51400980443368,-0.7722,0.004,0.0573,-0.6328
59,3272652.0,3339.286678,1.0,3.74,-0.88,8.97,13.0,-1.5,-42.69,-48.63,112.62,-31.87,0.7406801837752597,-2.8864112630769707,0.5145607362367084,0.4583674584234223,6.569694717687418,-78.51400980443368,-0.7722,0.004,0.0573,-0.6328
60,3272685.0,3339.336023,1.0,1.9,0.13,10.07,18.37,0.37,-40.56,-47.56,47.13,6.44,-0.9277472618875796,-1.7091685296858388,-0.25564734977016634,3.4611913427691,5.8467059276897535,-78.24787863308072,-0.7735,0.0302,0.051,-0.631
61,3272685.0,3339.336023,1.0,1.9,0.13,10.07,18.37,0.37,-40.56,-47.56,47.13,6.44,-0.9277472618875796,-1.7091685296858388,-0.25564734977016634,3.4611913427691,5.8467059276897535,-78.24787863308072,-0.7735,0.0302,0.051,-0.631
62,3272722.0,3339.385833,1.0,1.34,-1.03,10.8,20.19,2.56,-37.69,-33.19,64.69,11.81,-0.16137106432329906,-1.4121863386833675,-1.0319933249016575,6.04177399090254,4.860139072417077,-78.41045445111573,-0.772,0.0527,0.0424,-0.6321
63,3272722.0,3339.385833,1.0,1.34,-1.03,10.8,20.19,2.56,-37.69,-33.19,64.69,11.81,-0.16137106432329906,-1.4121863386833675,-1.0319933249016575,6.04177399090254,4.860139072417077,-78.41045445111573,-0.772,0.0527,0.0424,-0.6321
64,3272759.0,3339.436861,1.0,0.23,-0.13,9.69,22.87,4.19,-36.88,-65.25,89.62,9.25,-1.2867406948201627,-0.9399069603271706,0.24491515269209785,8.889760035755181,3.908329853329541,-78.3956670621913,-0.7703,0.0775,0.0341,-0.632
65,3272759.0,3339.436861,1.0,0.23,-0.13,9.69,22.87,4.19,-36.88,-65.25,89.62,9.25,-1.2867406948201627,-0.9399069603271706,0.24491515269209785,8.889760035755181,3.908329853329541,-78.3956670621913,-0.7703,0.0775,0.0341,-0.632
66,3272792.0,3339.4642710000003,1.0,0.95,0.22,8.9,22.87,4.19,-36.88,-37.38,63.25,11.94,-1.5334259039382074,-2.10180026819902,1.2397403687660038,11.916067673936475,2.87655022805785,-78.41045445111573,-0.7675,0.1038,0.0251,-0.6321
67,3272792.0,3339.4642710000003,1.0,0.95,0.22,8.9,22.87,4.19,-36.88,-37.38,63.25,11.94,-1.5334259039382074,-2.10180026819902,1.2397403687660038,11.916067673936475,2.87655022805785,-78.41045445111573,-0.7675,0.1038,0.0251,-0.6321
68,3272828.0,3339.471073,1.0,-1.39,-3.53,9.99,24.37,6.19,-34.38,-4.13,40.75,-8.31,1.4015069383280083,0.4890520569210992,-0.7758689056027528,12.999629346780694,2.1544482337672357,-78.07073688001653,-0.7682,0.1132,0.0188,-0.6298
69,3272828.0,3339.471073,1.0,-1.39,-3.53,9.99,24.37,6.19,-34.38,-4.13,40.75,-8.31,1.4015069383280083,0.4890520569210992,-0.7758689056027528,12.999629346780694,2.1544482337672357,-78.07073688001653,-0.7682,0.1132,0.0188,-0.6298
70,3272865.0,3339.5133960000003,1.0,-2.21,-3.82,10.6,26.37,7.0,-34.88,-38.94,51.0,14.31,1.2617616154210745,0.8203125198421521,-1.5762997493242157,15.124119969217904,1.3865917007687605,-78.08549020583642,-0.7653,0.1316,0.0121,-0.6299
71,3272865.0,3339.5133960000003,1.0,-2.21,-3.82,10.6,26.37,7.0,-34.88,-38.94,51.0,14.31,1.2617616154210745,0.8203125198421521,-1.5762997493242157,15.124119969217904,1.3865917007687605,-78.08549020583642,-0.7653,0.1316,0.0121,-0.6299
72,3272900.0,3339.522844,1.0,-1.05,-0.57,8.45,26.37,7.0,-34.88,-53.56,49.75,27.5,-1.4119268225742294,-0.7534888044209316,1.4240121532773014,17.520477052231193,1.0771765184626354,-78.6324525112941,-0.7584,0.1523,0.0094,-0.6336
73,3272900.0,3339.522844,1.0,-1.05,-0.57,8.45,26.37,7.0,-34.88,-53.56,49.75,27.5,-1.4119268225742294,-0.7534888044209316,1.4240121532773014,17.520477052231193,1.0771765184626354,-78.6324525112941,-0.7584,0.1523,0.0094,-0.6336
74,3272935.0,3339.533975,1.0,-2.81,-1.93,9.78,27.5,7.0,-32.69,-15.94,28.31,5.38,-0.8288163377508687,0.5973524203162346,-0.4999320505257501,18.994468937034103,0.60733810621587,-78.72135037210387,-0.7553,0.165,0.0053,-0.6342
75,3272935.0,3339.533975,1.0,-2.81,-1.93,9.78,27.5,7.0,-32.69,-15.94,28.31,5.38,-0.8288163377508687,0.5973524203162346,-0.4999320505257501,18.994468937034103,0.60733810621587,-78.72135037210387,-0.7553,0.165,0.0053,-0.6342
76,3272970.0,3339.563299,1.0,-2.51,-2.71,9.43,29.0,7.69,-31.5,-7.88,56.63,-8.44,0.025784638704971885,0.2670907634886808,-0.3174350291009436,20.11076285425295,-0.2177240931471762,-78.27742390598648,-0.7557,0.1746,-0.0019,-0.6312
77,3272970.0,3339.563299,1.0,-2.51,-2.71,9.43,29.0,7.69,-31.5,-7.88,56.63,-8.44,0.025784638704971885,0.2670907634886808,-0.3174350291009436,20.11076285425295,-0.2177240931471762,-78.27742390598648,-0.7557,0.1746,-0.0019,-0.6312
78,3273007.0,3339.60933,1.0,-2.35,-2.42,8.46,30.5,8.5,-30.69,-15.25,47.94,-5.81,-0.03523127012065712,-0.01247876674388526,0.6990101829021479,21.882225322200526,-1.4668120111410634,-78.14451892289983,-0.7527,0.1898,-0.0128,-0.6303
79,3273007.0,3339.60933,1.0,-2.35,-2.42,8.46,30.5,8.5,-30.69,-15.25,47.94,-5.81,-0.03523127012065712,-0.01247876674388526,0.6990101829021479,21.882225322200526,-1.4668120111410634,-78.14451892289983,-0.7527,0.1898,-0.0128,-0.6303
80,3273041.0,3339.637656,1.0,-2.53,-1.67,9.18,30.5,8.5,-30.69,-3.5,38.94,-16.94,-0.9822999036005324,-0.3350535612434239,0.19493704077756568,22.781607550913503,-2.016915574628728,-77.55533546921926,-0.7539,0.1975,-0.0176,-0.6263
81,3273041.0,3339.637656,1.0,-2.53,-1.67,9.18,30.5,8.5,-30.69,-3.5,38.94,-16.94,-0.9822999036005324,-0.3350535612434239,0.19493704077756568,22.781607550913503,-2.016915574628728,-77.55533546921926,-0.7539,0.1975,-0.0176,-0.6263
82,3273078.0,3339.675369,1.0,-2.54,-3.06,8.9,31.56,8.75,-29.0,13.5,43.0,-34.06,0.4248800715892709,-0.2705227443730049,0.07158480404248913,23.729249451725817,-3.163128706652845,-76.6176646234629,-0.7567,0.2056,-0.0276,-0.6199
83,3273078.0,3339.675369,1.0,-2.54,-3.06,8.9,31.56,8.75,-29.0,13.5,43.0,-34.06,0.4248800715892709,-0.2705227443730049,0.07158480404248913,23.729249451725817,-3.163128706652845,-76.6176646234629,-0.7567,0.2056,-0.0276,-0.6199
84,3273113.0,3339.7122449999997,1.0,-3.7,-3.49,9.45,32.0,9.19,-27.37,3.69,46.63,-22.06,0.4758525302084313,0.516805963313647,-0.9021816807099814,24.291588578811197,-3.942727502383202,-76.15109886090754,-0.7578,0.2104,-0.0344,-0.6167
85,3273113.0,3339.7122449999997,1.0,-3.7,-3.49,9.45,32.0,9.19,-27.37,3.69,46.63,-22.06,0.4758525302084313,0.516805963313647,-0.9021816807099814,24.291588578811197,-3.942727502383202,-76.15109886090754,-0.7578,0.2104,-0.0344,-0.6167
86,3273148.0,3339.7611699999998,1.0,-3.02,-2.64,8.86,32.0,9.19,-27.37,3.06,34.88,-16.19,-0.0405689744878184,-0.2607775102811212,0.08451292791340315,25.312354349514575,-5.0551272004985615,-75.00557127858174,-0.7612,0.2191,-0.0441,-0.6088
87,3273148.0,3339.7611699999998,1.0,-3.02,-2.64,8.86,32.0,9.19,-27.37,3.06,34.88,-16.19,-0.0405689744878184,-0.2607775102811212,0.08451292791340315,25.312354349514575,-5.0551272004985615,-75.00557127858174,-0.7612,0.2191,-0.0441,-0.6088
88,3273183.0,3339.81045,1.0,-2.68,-2.92,8.66,33.06,9.19,-27.25,14.06,33.88,-14.63,0.4097609674835444,-0.6049459067355856,0.31083321578123346,25.841133562817532,-5.949975106955117,-74.84676629523163,-0.7603,0.2236,-0.0519,-0.6077
89,3273183.0,3339.81045,1.0,-2.68,-2.92,8.66,33.06,9.19,-27.25,14.06,33.88,-14.63,0.4097609674835444,-0.6049459067355856,0.31083321578123346,25.841133562817532,-5.949975106955117,-74.84676629523163,-0.7603,0.2236,-0.0519,-0.6077
90,3273220.0,3339.840521,1.0,-2.37,-1.38,8.37,33.5,10.25,-24.75,11.06,3.31,0.94,-0.8809444030240515,-1.0407941412295905,1.1049901287821715,25.852890528278607,-6.190955481383822,-75.20793134376436,-0.7581,0.2237,-0.054000000000000006,-0.6102
91,3273220.0,3339.840521,1.0,-2.37,-1.38,8.37,33.5,10.25,-24.75,11.06,3.31,0.94,-0.8809444030240515,-1.0407941412295905,1.1049901287821715,25.852890528278607,-6.190955481383822,-75.20793134376436,-0.7581,0.2237,-0.054000000000000006,-0.6102
92,3273254.0,3339.847525,1.0,-0.95,1.46,7.25,33.5,10.25,-24.75,37.81,-40.06,22.31,-2.936171581760643,-2.214693647654874,3.320462484247905,24.8662564695287,-6.271288310584378,-75.74407148943448,-0.7575,0.2153,-0.0547,-0.6139
93,3273254.0,3339.847525,1.0,-0.95,1.46,7.25,33.5,10.25,-24.75,37.81,-40.06,22.31,-2.936171581760643,-2.214693647654874,3.320462484247905,24.8662564695287,-6.271288310584378,-75.74407148943448,-0.7575,0.2153,-0.0547,-0.6139
94,3273289.0,3339.9063,1.0,1.63,-4.33,4.03,33.88,10.0,-24.75,157.69,-289.94,32.56,4.047122589406752,-1.9340129886610375,5.620112945822172,16.987323268750952,-4.733977821845079,-77.80543964009445,-0.7629,0.1477,-0.0413,-0.628
95,3273289.0,3339.9063,1.0,1.63,-4.33,4.03,33.88,10.0,-24.75,157.69,-289.94,32.56,4.047122589406752,-1.9340129886610375,5.620112945822172,16.987323268750952,-4.733977821845079,-77.80543964009445,-0.7629,0.1477,-0.0413,-0.628
96,3273324.0,3339.935359,1.0,6.81,1.48,7.03,32.75,8.75,-26.37,143.25,-619.38,118.75,-1.3964884858345044,-6.1753086751545085,2.1972622010050564,-0.9969591404369118,7.694875241065197,-83.67188694987544,-0.7419,-0.0087,0.0671,-0.667
97,3273324.0,3339.935359,1.0,6.81,1.48,7.03,32.75,8.75,-26.37,143.25,-619.38,118.75,-1.3964884858345044,-6.1753086751545085,2.1972622010050564,-0.9969591404369118,7.694875241065197,-83.67188694987544,-0.7419,-0.0087,0.0671,-0.667
98,3273361.0,3339.976482,1.0,6.04,6.03,13.71,23.0,3.19,-37.25,128.19,-444.56,6.25,-6.227592744415097,-1.2483484520935215,-5.041424445929488,-13.334150842815474,15.898972996932855,-84.195889005568,-0.7197,-0.1161,0.1383,-0.6704
99,3273361.0,3339.976482,1.0,6.04,6.03,13.71,23.0,3.19,-37.25,128.19,-444.56,6.25,-6.227592744415097,-1.2483484520935215,-5.041424445929488,-13.334150842815474,15.898972996932855,-84.195889005568,-0.7197,-0.1161,0.1383,-0.6704
100,3273396.0,3340.014143,1.0,6.78,2.78,12.55,23.0,3.19,-37.25,191.31,-335.56,-81.12,-1.30280368630577,1.4680797882096777,-4.59288972494949,-27.973794960271835,20.716221183013424,-80.0766693058582,-0.7039,-0.2417,0.1798,-0.6433
101,3273396.0,3340.014143,1.0,6.78,2.78,12.55,23.0,3.19,-37.25,191.31,-335.56,-81.12,-1.30280368630577,1.4680797882096777,-4.59288972494949,-27.973794960271835,20.716221183013424,-80.0766693058582,-0.7039,-0.2417,0.1798,-0.6433
102,3273431.0,3340.022569,1.0,8.58,1.81,9.3,6.19,-3.19,-44.25,106.94,-264.44,-85.31,0.571677755402145,0.04609936726495545,-2.96259271021254,-36.48023552286196,23.47170516617001,-75.71504118189101,-0.6957,-0.313,0.2034,-0.6137
103,3273431.0,3340.022569,1.0,8.58,1.81,9.3,6.19,-3.19,-44.25,106.94,-264.44,-85.31,0.571677755402145,0.04609936726495545,-2.96259271021254,-36.48023552286196,23.47170516617001,-75.71504118189101,-0.6957,-0.313,0.2034,-0.6137
104,3273467.0,3340.122069,1.0,7.98,1.71,8.17,-5.25,-8.25,-43.38,110.56,-208.25,-15.88,1.186991058824283,1.5464194177700934,-1.5754868472978265,-45.47378742330781,26.57059440264536,-71.52122812984334,-0.6755,-0.3865,0.2298,-0.5844
105,3273467.0,3340.122069,1.0,7.98,1.71,8.17,-5.25,-8.25,-43.38,110.56,-208.25,-15.88,1.186991058824283,1.5464194177700934,-1.5754868472978265,-45.47378742330781,26.57059440264536,-71.52122812984334,-0.6755,-0.3865,0.2298,-0.5844
106,3273504.0,3340.129858,1.0,11.47,1.91,1.38,-5.25,-8.25,-43.38,114.62,-236.75,40.63,0.9180931933306828,-4.76191404725481,-0.8514304789097551,-51.62149845664168,29.06155185997118,-69.82153596259464,-0.6481,-0.4354,0.2509,-0.5723
107,3273504.0,3340.129858,1.0,11.47,1.91,1.38,-5.25,-8.25,-43.38,114.62,-236.75,40.63,0.9180931933306828,-4.76191404725481,-0.8514304789097551,-51.62149845664168,29.06155185997118,-69.82153596259464,-0.6481,-0.4354,0.2509,-0.5723
108,3273537.0,3340.137922,1.0,13.45,4.8,1.66,-14.25,-12.75,-41.69,137.13,-383.94,80.31,-1.3361252236922392,-1.997284353360742,-4.368106597502253,-62.58402657079336,36.03410062770514,-65.96734252761773,-0.5815,-0.5194,0.3093,-0.5444
109,3273537.0,3340.137922,1.0,13.45,4.8,1.66,-14.25,-12.75,-41.69,137.13,-383.94,80.31,-1.3361252236922392,-1.997284353360742,-4.368106597502253,-62.58402657079336,36.03410062770514,-65.96734252761773,-0.5815,-0.5194,0.3093,-0.5444
110,3273574.0,3340.1732079999997,1.0,10.12,5.92,6.02,-24.06,-15.75,-35.5,137.13,-372.63,33.0,-1.689370648166766,6.536524273914407,-1.5124081423385383,-74.4576837501471,42.45844069063149,-59.616644593421185,-0.5057,-0.605,0.3621,-0.4971
111,3273574.0,3340.1732079999997,1.0,10.12,5.92,6.02,-24.06,-15.75,-35.5,137.13,-372.63,33.0,-1.689370648166766,6.536524273914407,-1.5124081423385383,-74.4576837501471,42.45844069063149,-59.616644593421185,-0.5057,-0.605,0.3621,-0.4971
112,3273611.0,3340.213148,1.0,11.09,3.64,-0.07,-34.75,-15.75,-23.75,117.06,-252.81,-29.12,-0.1941582456798241,1.6399213929662417,-1.74824335305723,-81.5968810686458,44.24647435383947,-55.187582421605676,-0.4654,-0.6534,0.3766,-0.4632
113,3273611.0,3340.213148,1.0,11.09,3.64,-0.07,-34.75,-15.75,-23.75,117.06,-252.81,-29.12,-0.1941582456798241,1.6399213929662417,-1.74824335305723,-81.5968810686458,44.24647435383947,-55.187582421605676,-0.4654,-0.6534,0.3766,-0.4632
114,3273646.0,3340.2473440000003,1.0,6.45,1.34,4.81,-34.75,-15.75,-23.75,130.38,-206.94,-41.31,2.42816381333867,6.0955698869842925,4.960801441854282,-90.32347191708826,44.85325420187507,-50.22538255847991,-0.4141,-0.7091,0.3815,-0.4244
115,3273646.0,3340.2473440000003,1.0,6.45,1.34,4.81,-34.75,-15.75,-23.75,130.38,-206.94,-41.31,2.42816381333867,6.0955698869842925,4.960801441854282,-90.32347191708826,44.85325420187507,-50.22538255847991,-0.4141,-0.7091,0.3815,-0.4244
116,3273680.0,3340.321343,1.0,8.12,1.56,-0.95,-38.88,-16.87,-14.06,12.44,-52.25,-11.81,1.3469361851068806,1.5163913918941176,1.7346725434012082,-92.72162065181284,44.5682752426895,-48.91271498969397,-0.4014,-0.7237,0.3792,-0.414
117,3273680.0,3340.321343,1.0,8.12,1.56,-0.95,-38.88,-16.87,-14.06,12.44,-52.25,-11.81,1.3469361851068806,1.5163913918941176,1.7346725434012082,-92.72162065181284,44.5682752426895,-48.91271498969397,-0.4014,-0.7237,0.3792,-0.414
118,3273719.0,3340.408301,1.0,7.26,2.0,0.86,-41.06,-18.75,-8.69,4.44,7.25,-25.69,1.286401268484895,3.1913405246489708,3.0533013911857294,-93.58851254585272,44.469220271844826,-47.84492701246389,-0.4014,-0.7289,0.3784,-0.4055
119,3273719.0,3340.408301,1.0,7.26,2.0,0.86,-41.06,-18.75,-8.69,4.44,7.25,-25.69,1.286401268484895,3.1913405246489708,3.0533013911857294,-93.58851254585272,44.469220271844826,-47.84492701246389,-0.4014,-0.7289,0.3784,-0.4055
120,3273752.0,3340.459903,1.0,8.42,1.99,-0.67,-41.06,-18.75,-8.69,-45.75,71.87,-25.44,1.3383870902354336,1.8118590718821703,1.4262391090991589,-92.68841627236291,43.45590465390315,-48.485062871877595,-0.4134,-0.7235,0.3702,-0.4106
121,3273752.0,3340.459903,1.0,8.42,1.99,-0.67,-41.06,-18.75,-8.69,-45.75,71.87,-25.44,1.3383870902354336,1.8118590718821703,1.4262391090991589,-92.68841627236291,43.45590465390315,-48.485062871877595,-0.4134,-0.7235,0.3702,-0.4106
122,3273787.0,3340.469582,1.0,9.5,3.67,-2.43,-40.25,-19.37,-8.19,-46.31,54.75,-30.0,-0.1671398964558517,0.4442412665679505,-0.6527244531922579,-90.29097328332108,42.45844069063149,-49.17721568249704,-0.4396,-0.7089,0.3621,-0.4161
123,3273787.0,3340.469582,1.0,9.5,3.67,-2.43,-40.25,-19.37,-8.19,-46.31,54.75,-30.0,-0.1671398964558517,0.4442412665679505,-0.6527244531922579,-90.29097328332108,42.45844069063149,-49.17721568249704,-0.4396,-0.7089,0.3621,-0.4161
124,3273822.0,3340.475778,1.0,7.13,1.58,3.2,-40.19,-20.19,-11.5,-32.5,102.56,-41.69,2.334361033246179,4.096621016230209,3.3768945757367392,-88.02256387479584,40.16831276292925,-50.69408334093136,-0.4649,-0.6948,0.3434,-0.4281
125,3273822.0,3340.475778,1.0,7.13,1.58,3.2,-40.19,-20.19,-11.5,-32.5,102.56,-41.69,2.334361033246179,4.096621016230209,3.3768945757367392,-88.02256387479584,40.16831276292925,-50.69408334093136,-0.4649,-0.6948,0.3434,-0.4281
126,3273861.0,3340.514499,1.0,7.96,0.93,6.88,-39.5,-20.87,-12.69,-157.13,292.0,-44.5,4.1055335918864735,6.490548453455843,2.555562171319833,-82.08216411124334,37.12029440520261,-54.14273717736637,-0.5104,-0.6566,0.3183,-0.4551
127,3273861.0,3340.514499,1.0,7.96,0.93,6.88,-39.5,-20.87,-12.69,-157.13,292.0,-44.5,4.1055335918864735,6.490548453455843,2.555562171319833,-82.08216411124334,37.12029440520261,-54.14273717736637,-0.5104,-0.6566,0.3183,-0.4551
128,3273893.0,3340.518292,1.0,9.41,2.92,6.51,-39.5,-20.87,-12.69,-264.44,363.94,-40.69,1.990323749799844,3.8885495602607367,-1.164785352239866,-67.79377236455424,32.92646520492445,-59.33950067480581,-0.6031,-0.5577,0.2834,-0.495
129,3273893.0,3340.518292,1.0,9.41,2.92,6.51,-39.5,-20.87,-12.69,-264.44,363.94,-40.69,1.990323749799844,3.8885495602607367,-1.164785352239866,-67.79377236455424,32.92646520492445,-59.33950067480581,-0.6031,-0.5577,0.2834,-0.495
130,3273930.0,3340.52657,1.0,11.79,6.25,4.93,-33.75,-20.87,-23.75,-293.5,344.06,-40.06,-1.2179247005966984,-1.0799857992169568,-4.325645995243173,-55.67947118427708,30.15199174363297,-61.86127398626197,-0.6708,-0.467,0.2601,-0.514
131,3273930.0,3340.52657,1.0,11.79,6.25,4.93,-33.75,-20.87,-23.75,-293.5,344.06,-40.06,-1.2179247005966984,-1.0799857992169568,-4.325645995243173,-55.67947118427708,30.15199174363297,-61.86127398626197,-0.6708,-0.467,0.2601,-0.514
132,3273969.0,3340.60459,1.0,11.39,6.73,1.72,-24.06,-15.69,-37.06,-179.63,254.75,-84.37,-2.073445604223333,-6.899764960244756,-1.4217722765135488,-42.82747400563139,25.47680417585264,-62.785282198587254,-0.7394,-0.3651,0.2205,-0.5209
133,3273969.0,3340.60459,1.0,11.39,6.73,1.72,-24.06,-15.69,-37.06,-179.63,254.75,-84.37,-2.073445604223333,-6.899764960244756,-1.4217722765135488,-42.82747400563139,25.47680417585264,-62.785282198587254,-0.7394,-0.3651,0.2205,-0.5209
134,3274004.0,3340.6125629999997,1.0,10.24,5.24,0.77,-24.06,-15.69,-37.06,-52.38,93.44,-108.75,-0.6116931756340871,-7.53510325809621,1.1028490861055094,-38.768276788891846,22.337582426465424,-61.327659484771935,-0.7695,-0.3319,0.1937,-0.51
135,3274004.0,3340.6125629999997,1.0,10.24,5.24,0.77,-24.06,-15.69,-37.06,-52.38,93.44,-108.75,-0.6116931756340871,-7.53510325809621,1.1028490861055094,-38.768276788891846,22.337582426465424,-61.327659484771935,-0.7695,-0.3319,0.1937,-0.51
136,3274039.0,3340.638871,1.0,7.08,3.82,6.55,-12.19,-8.88,-42.88,-29.94,-83.75,-102.56,0.021422953051841054,-0.8321924823182136,-0.5339639435458867,-39.644101400128214,22.851748300506443,-56.75776958698043,-0.7873,-0.3391,0.1981,-0.4753
137,3274039.0,3340.638871,1.0,7.08,3.82,6.55,-12.19,-8.88,-42.88,-29.94,-83.75,-102.56,0.021422953051841054,-0.8321924823182136,-0.5339639435458867,-39.644101400128214,22.851748300506443,-56.75776958698043,-0.7873,-0.3391,0.1981,-0.4753
138,3274074.0,3340.7075010000003,1.0,5.94,4.01,7.65,-7.69,-6.69,-43.75,-45.63,-64.0,-88.37,-0.6019416314453714,0.8289008451710902,-0.6258372231509366,-40.29034769423164,24.54952511022461,-52.207762274679794,-0.8016,-0.3444,0.2126,-0.44
139,3274074.0,3340.7075010000003,1.0,5.94,4.01,7.65,-7.69,-6.69,-43.75,-45.63,-64.0,-88.37,-0.6019416314453714,0.8289008451710902,-0.6258372231509366,-40.29034769423164,24.54952511022461,-52.207762274679794,-0.8016,-0.3444,0.2126,-0.44
140,3274110.0,3340.713116,1.0,5.64,4.06,7.37,-9.38,-6.25,-44.5,-23.87,-16.25,-45.25,-0.7494006691229003,0.7953180757887408,-0.2638995279772001,-40.265936898659355,25.054040082214637,-50.22538255847991,-0.8089,-0.3442,0.2169,-0.4244
141,3274110.0,3340.713116,1.0,5.64,4.06,7.37,-9.38,-6.25,-44.5,-23.87,-16.25,-45.25,-0.7494006691229003,0.7953180757887408,-0.2638995279772001,-40.265936898659355,25.054040082214637,-50.22538255847991,-0.8089,-0.3442,0.2169,-0.4244
142,3274145.0,3340.756188,1.0,6.0,3.87,6.47,-9.38,-6.25,-44.5,-4.88,6.81,-16.87,-0.2575487906959424,-0.0276128236036588,0.1748949079939912,-40.143911482875026,24.807588026066757,-49.441996043237744,-0.8132,-0.3432,0.2148,-0.4182
143,3274145.0,3340.756188,1.0,6.0,3.87,6.47,-9.38,-6.25,-44.5,-4.88,6.81,-16.87,-0.2575487906959424,-0.0276128236036588,0.1748949079939912,-40.143911482875026,24.807588026066757,-49.441996043237744,-0.8132,-0.3432,0.2148,-0.4182
144,3274180.0,3340.7897550000002,1.0,6.12,3.72,6.24,-11.69,-5.56,-43.25,8.31,3.19,10.56,-0.04171334864918297,-0.20276547882051155,0.309937613224081,-40.21712102458852,24.64335146895964,-49.66917497940315,-0.8124,-0.3438,0.2134,-0.42
145,3274180.0,3340.7897550000002,1.0,6.12,3.72,6.24,-11.69,-5.56,-43.25,8.31,3.19,10.56,-0.04171334864918297,-0.20276547882051155,0.309937613224081,-40.21712102458852,24.64335146895964,-49.66917497940315,-0.8124,-0.3438,0.2134,-0.42
146,3274217.0,3340.831252,1.0,5.97,3.8,6.65,-9.88,-4.75,-43.25,9.63,0.19,19.0,-0.26604549720127024,0.1731870302891736,0.10084626996514423,-40.351383033032214,24.713732248446583,-50.37729473020999,-0.8088,-0.3449,0.214,-0.4256
147,3274217.0,3340.831252,1.0,5.97,3.8,6.65,-9.88,-4.75,-43.25,9.63,0.19,19.0,-0.26604549720127024,0.1731870302891736,0.10084626996514423,-40.351383033032214,24.713732248446583,-50.37729473020999,-0.8088,-0.3449,0.214,-0.4256
148,3274252.0,3340.8442379999997,1.0,5.95,3.56,6.7,-9.88,-4.75,-43.25,11.94,3.94,19.62,-0.10833269985417426,0.33414547361391755,0.1711577536949047,-40.497916639737895,24.67854067669555,-51.03668173616908,-0.8056,-0.3461,0.2137,-0.4308
149,3274252.0,3340.8442379999997,1.0,5.95,3.56,6.7,-9.88,-4.75,-43.25,11.94,3.94,19.62,-0.10833269985417426,0.33414547361391755,0.1711577536949047,-40.497916639737895,24.67854067669555,-51.03668173616908,-0.8056,-0.3461,0.2137,-0.4308
150,3274285.0,3340.885059,1.0,6.06,3.37,6.63,-10.56,-6.0,-41.69,9.69,5.63,15.94,0.08806633969759893,0.2828680927734486,0.2176130326136008,-40.52234562197142,24.52607113458515,-51.787033887514276,-0.8026,-0.3463,0.2124,-0.4367
151,3274285.0,3340.885059,1.0,6.06,3.37,6.63,-10.56,-6.0,-41.69,9.69,5.63,15.94,0.08806633969759893,0.2828680927734486,0.2176130326136008,-40.52234562197142,24.52607113458515,-51.787033887514276,-0.8026,-0.3463,0.2124,-0.4367
152,3274321.0,3340.91302,1.0,6.19,3.43,6.77,-10.56,-5.56,-43.38,0.75,5.5,10.31,0.08042010092821705,0.2749262497258902,0.017275752144405132,-40.461276767806375,24.467440757791284,-52.169483053710955,-0.8014,-0.3458,0.2119,-0.4397
153,3274321.0,3340.91302,1.0,6.19,3.43,6.77,-10.56,-5.56,-43.38,0.75,5.5,10.31,0.08042010092821705,0.2749262497258902,0.017275752144405132,-40.461276767806375,24.467440757791284,-52.169483053710955,-0.8014,-0.3458,0.2119,-0.4397
154,3274356.0,3340.9488890000002,1.0,6.3,3.54,6.7,-9.38,-6.25,-43.38,-1.12,4.94,5.81,0.0228545778028888,0.08417223053386236,-0.04748581720286715,-40.265936898659355,24.40881688456287,-52.47589269472505,-0.8009,-0.3442,0.2114,-0.4421
155,3274356.0,3340.9488890000002,1.0,6.3,3.54,6.7,-9.38,-6.25,-43.38,-1.12,4.94,5.81,0.0228545778028888,0.08417223053386236,-0.04748581720286715,-40.265936898659355,24.40881688456287,-52.47589269472505,-0.8009,-0.3442,0.2114,-0.4421
156,3274391.0,3341.0101219999997,1.0,6.21,3.52,6.67,-9.38,-6.25,-43.38,-2.06,0.19,-0.75,-0.009308343400725505,0.10809149942095607,0.037738618351784936,-40.19271594298347,24.39709288880459,-52.488668512026216,-0.8011,-0.3436,0.2113,-0.4422
157,3274391.0,3341.0101219999997,1.0,6.21,3.52,6.67,-9.38,-6.25,-43.38,-2.06,0.19,-0.75,-0.009308343400725505,0.10809149942095607,0.037738618351784936,-40.19271594298347,24.39709288880459,-52.488668512026216,-0.8011,-0.3436,0.2113,-0.4422
158,3274426.0,3341.0141129999997,1.0,6.12,3.24,6.79,-10.19,-5.69,-43.38,0.75,0.88,-1.69,0.1819291121305864,0.34069783943215715,0.11609135870559585,-40.13171155486349,24.373645675055762,-52.437569453805544,-0.8016,-0.3431,0.2111,-0.4418
159,3274426.0,3341.0141129999997,1.0,6.12,3.24,6.79,-10.19,-5.69,-43.38,0.75,0.88,-1.69,0.1819291121305864,0.34069783943215715,0.11609135870559585,-40.13171155486349,24.373645675055762,-52.437569453805544,-0.8016,-0.3431,0.2111,-0.4418
160,3274461.0,3341.047626,1.0,6.08,3.59,6.93,-10.88,-6.38,-43.0,-7.13,3.56,-0.81,-0.15189192056678036,0.2985492547229576,-0.08107962752172604,-39.9000028418168,24.361922456785425,-52.39925252360182,-0.8026,-0.3412,0.21100000000000002,-0.4415
161,3274461.0,3341.047626,1.0,6.08,3.59,6.93,-10.88,-6.38,-43.0,-7.13,3.56,-0.81,-0.15189192056678036,0.2985492547229576,-0.08107962752172604,-39.9000028418168,24.361922456785425,-52.39925252360182,-0.8026,-0.3412,0.21100000000000002,-0.4415
162,3274496.0,3341.08742,1.0,6.38,3.64,6.44,-10.88,-6.38,-43.0,-4.25,6.13,-2.0,-0.015870736973496058,-0.2962931015507171,0.042452208185183686,-39.656282501806686,24.24470448957822,-52.386481614636175,-0.8037,-0.3392,0.21,-0.4414
163,3274496.0,3341.08742,1.0,6.38,3.64,6.44,-10.88,-6.38,-43.0,-4.25,6.13,-2.0,-0.015870736973496058,-0.2962931015507171,0.042452208185183686,-39.656282501806686,24.24470448957822,-52.386481614636175,-0.8037,-0.3392,0.21,-0.4414
164,3274530.0,3341.132994,1.0,6.21,3.56,6.61,-10.19,-5.56,-42.88,-0.56,-4.75,-1.25,-0.04342492179205437,-0.03877173552455382,0.06363142110506992,-39.69282860908111,24.25642512530879,-52.39925252360182,-0.8035,-0.3395,0.2101,-0.4415
165,3274530.0,3341.132994,1.0,6.21,3.56,6.61,-10.19,-5.56,-42.88,-0.56,-4.75,-1.25,-0.04342492179205437,-0.03877173552455382,0.06363142110506992,-39.69282860908111,24.25642512530879,-52.39925252360182,-0.8035,-0.3395,0.2101,-0.4415
166,3274567.0,3341.1665350000003,1.0,5.96,3.51,6.97,-11.25,-5.56,-43.0,-1.37,-3.19,-1.44,-0.15318484933147514,0.4027470406333371,-0.0033922640881787203,-39.74156329781962,24.373645675055762,-52.309870853255504,-0.8035,-0.3399,0.2111,-0.4408
167,3274567.0,3341.1665350000003,1.0,5.96,3.51,6.97,-11.25,-5.56,-43.0,-1.37,-3.19,-1.44,-0.15318484933147514,0.4027470406333371,-0.0033922640881787203,-39.74156329781962,24.373645675055762,-52.309870853255504,-0.8035,-0.3399,0.2111,-0.4408
168,3274600.0,3341.212151,1.0,6.19,3.49,6.6,-11.25,-5.56,-43.0,-1.75,2.25,-0.56,0.0002475890476993925,-0.0028547646382095504,0.1083928478608307,-39.68064610609173,24.33847679675364,-52.309870853255504,-0.8038,-0.3394,0.2108,-0.4408
169,3274600.0,3341.212151,1.0,6.19,3.49,6.6,-11.25,-5.56,-43.0,-1.75,2.25,-0.56,0.0002475890476993925,-0.0028547646382095504,0.1083928478608307,-39.68064610609173,24.33847679675364,-52.309870853255504,-0.8038,-0.3394,0.2108,-0.4408
170,3274635.0,3341.237489,1.0,6.13,3.49,6.57,-10.19,-4.75,-43.38,-0.88,-0.75,1.19,-0.0384207726883139,0.0062210552642971715,0.16712796087910498,-39.644101400128214,24.373645675055762,-52.33540497698414,-0.8038,-0.3391,0.2111,-0.441
171,3274635.0,3341.237489,1.0,6.13,3.49,6.57,-10.19,-4.75,-43.38,-0.88,-0.75,1.19,-0.0384207726883139,0.0062210552642971715,0.16712796087910498,-39.644101400128214,24.373645675055762,-52.33540497698414,-0.8038,-0.3391,0.2111,-0.441
172,3274670.0,3341.3719969999997,1.0,6.07,3.59,6.81,-9.75,-5.56,-43.38,-1.56,1.44,1.31,-0.17075407060309122,0.1690699371287312,0.006070506738810265,-39.61974059674283,24.31503217113493,-52.527000178757774,-0.8031,-0.3389,0.2106,-0.4425
173,3274670.0,3341.3719969999997,1.0,6.07,3.59,6.81,-9.75,-5.56,-43.38,-1.56,1.44,1.31,-0.17075407060309122,0.1690699371287312,0.006070506738810265,-39.61974059674283,24.31503217113493,-52.527000178757774,-0.8031,-0.3389,0.2106,-0.4425
174,3274704.0,3341.418521,1.0,6.21,3.45,6.65,-9.75,-5.56,-43.38,0.56,2.44,0.19,0.03236414861156911,0.014500652281852044,0.07588218379104282,-39.58320288872564,24.25642512530879,-52.55255813835036,-0.8033,-0.3386,0.2101,-0.4427
175,3274704.0,3341.418521,1.0,6.21,3.45,6.65,-9.75,-5.56,-43.38,0.56,2.44,0.19,0.03236414861156911,0.014500652281852044,0.07588218379104282,-39.58320288872564,24.25642512530879,-52.55255813835036,-0.8033,-0.3386,0.2101,-0.4427
