TIME,ELAPSED_SECONDS,PSTATE,acc_x,acc_y,acc_z,mag_x,mag_y,mag_z,gyr_x,gyr_y,gyr_z,lin_x,lin_y,lin_z,eul_x,eul_y,eul_z,qua_w,qua_x,qua_y,qua_z
3529285.0,1472.17327,1.0,-4.22,0.36,-9.3,33.06,-17.19,30.75,5.06,4.5,-0.63,0.22290782560904732,-0.19252973341240642,-0.4081062086931073,-128.95070405160266,-43.049117635330035,23.34297818708293,-0.1007,-0.9024,-0.3669,0.2023
3529320.0,1472.210169,1.0,-4.13,0.67,-9.22,33.06,-17.5,30.5,1.5,-3.25,-0.94,0.4875515351097508,-0.0019201966176148888,-0.30653396023018864,-128.89754271482937,-43.06143612056091,23.40148673707778,-0.1005,-0.9022,-0.367,0.2028
3529357.0,1472.224131,1.0,-3.99,0.47,-9.09,32.38,-16.37,32.06,7.63,-0.88,-2.06,0.43499502947147883,-0.1681846368250719,-0.12066551086551947,-128.89754271482937,-43.073755128260586,23.553637967860126,-0.0989,-0.9022,-0.3671,0.2041
3529392.0,1472.287975,1.0,-4.26,0.15,-8.67,32.75,-17.5,31.56,2.81,-4.69,-1.25,-0.060958088107965214,-0.085073160493226,0.14600578396254704,-128.81789729217328,-43.073755128260586,23.694122645249475,-0.0981,-0.9019,-0.3671,0.2053
3529424.0,1472.293945,1.0,-4.32,0.47,-8.52,32.75,-17.5,31.56,-0.69,-2.31,-0.56,0.09718319690638433,0.21851566056521698,0.2454520451239084,-128.76486449761617,-43.08607465863793,23.811220804555614,-0.0983,-0.9017,-0.3672,0.2063
3529461.0,1472.34481,1.0,-4.3,0.39,-8.74,32.38,-17.5,31.19,7.06,-2.75,-1.25,0.14225042574043556,0.08574705595965226,0.05974729920468924,-128.73836728652063,-43.073755128260586,23.91663071897709,-0.0974,-0.9016,-0.3671,0.2072
3529496.0,1472.407643,1.0,-4.43,0.31,-8.36,32.75,-15.25,30.87,0.0,1.19,-1.75,-0.0904624803570937,0.24198033410554032,0.34388813796659967,-128.6854111372357,-43.098394711901896,24.02206117401117,-0.0966,-0.9014,-0.3673,0.2081
3529531.0,1472.419641,1.0,-4.34,0.14,-8.76,32.75,-15.25,30.87,3.13,-0.31,-2.19,-0.0251420076626232,-0.055672145634155124,0.029683778740400513,-128.63250588646886,-43.14768015800515,24.02206117401117,-0.0961,-0.9012,-0.3677,0.2081
3529566.0,1472.434571,1.0,-4.32,0.45,-8.94,32.75,-16.37,30.87,-0.88,1.31,-0.69,0.25888578019226394,0.09973621042925984,-0.12871767518663368,-128.63250588646886,-43.184649743140426,23.998630403703217,-0.0959,-0.9012,-0.368,0.2079
3529601.0,1472.480449,1.0,-4.22,0.22,-9.09,32.38,-16.0,31.69,1.44,-3.75,-3.44,0.22197725229462884,-0.17429281398772467,-0.2135919189586435,-128.5268474503853,-43.25860308220909,24.068925773800885,-0.0957,-0.9008,-0.3686,0.2085
3529637.0,1472.516352,1.0,-4.26,0.14,-8.68,32.75,-16.37,32.38,1.25,-4.25,-2.0,0.04390889488199967,-0.08203309631491396,0.1370614575614333,-128.39505791682004,-43.32024532286976,24.24470448957822,-0.0957,-0.9003,-0.3691,0.21
3529670.0,1472.544276,1.0,-4.2,0.38,-9.17,32.75,-16.37,32.38,-2.5,-1.19,-2.06,0.40300500915327064,-0.1166541793008189,-0.2778568677178761,-128.31613447366576,-43.38190073527359,24.25642512530879,-0.0961,-0.9,-0.3696,0.2101
3529709.0,1472.595141,1.0,-4.35,0.07,-8.74,33.5,-15.69,32.88,0.5,-8.19,-5.69,-0.010261081261836669,-0.1217414659953584,0.04447433441865023,-128.05386288415187,-43.529927623269934,24.467440757791284,-0.0967,-0.899,-0.3708,0.2119
3529744.0,1472.610102,1.0,-4.34,-0.02,-8.33,32.0,-16.0,31.75,1.5,-4.31,-3.06,-0.1655148552947554,-0.06433962758100742,0.4155177336010478,-127.89708982203929,-43.61631189309636,24.64335146895964,-0.0967,-0.8984,-0.3715,0.2134
3529777.0,1472.66695,1.0,-4.05,-0.3,-8.12,32.0,-16.0,31.75,8.5,1.88,-1.5,-0.2174145949662396,-0.35354092822185695,0.7372156347284982,-127.84492955883974,-43.65334169783373,24.76065802803315,-0.0951,-0.8982,-0.3718,0.2144
3529811.0,1472.693877,1.0,-3.37,-1.11,-7.83,33.5,-15.69,31.19,8.94,7.19,2.13,-0.4444000875203742,-1.2024223762383588,1.3063800636195566,-128.10621848828742,-43.529927623269934,24.66681067830264,-0.0917,-0.8992,-0.3708,0.2136
3529848.0,1472.728783,1.0,-2.61,-1.77,-6.13,32.38,-16.0,30.75,4.56,11.06,16.94,-0.9809696876806211,-1.5805096216489323,3.1687596869768226,-128.57965137649458,-43.172326023814016,24.420541139763646,-0.0901,-0.901,-0.3679,0.2115
3529883.0,1472.757707,1.0,-2.03,-3.87,-4.42,32.38,-16.0,30.75,22.62,30.19,31.75,-2.6114353008321958,-2.8929596917449976,4.964606021316396,-129.61963621563214,-42.4092712076169,23.928344197778113,-0.0858,-0.9049,-0.3617,0.2073
3529918.0,1472.790618,1.0,-3.26,-6.71,-1.24,32.0,-16.0,32.5,8.88,83.81,101.5,-6.288201482814495,-3.48421168381122,7.459717735548596,-133.2997533527462,-39.68064610609173,21.847212431989455,-0.0778,-0.9181,-0.3394,0.1895
3529955.0,1472.843476,1.0,-3.28,-3.34,-0.76,32.0,-16.75,34.06,-53.31,161.44,156.13,-4.374245409402412,-1.096161133954436,8.338314933766936,-140.33889297208822,-34.90319398604888,15.528804883509121,-0.0829,-0.9407,-0.2999,0.1351
3529992.0,1472.88736,1.0,0.06,-3.53,-4.75,25.25,-20.19,37.0,-42.56,220.44,148.19,-1.328957247908214,-3.9507081907293626,5.6051291533379075,-145.84171829017612,-31.41185033184749,8.935735653853005,-0.0833,-0.9559,-0.2707,0.0779
3530024.0,1472.919274,1.0,3.23,1.29,-8.56,25.25,-20.19,37.0,-110.06,217.0,171.75,2.979811673520634,-1.885173949572899,1.2663079945413251,-151.6723326334128,-25.852890528278607,-0.7333909844413455,-0.0988,-0.9696,-0.2237,-0.0064
3530061.0,1472.955179,1.0,8.54,8.94,-13.65,15.56,-24.69,37.38,-173.75,228.63,184.25,8.302895433909308,1.9627257923717372,-6.514726623236376,-153.06392657993817,-21.100756747738608,-8.522006076442151,-0.1235,-0.9725,-0.1831,-0.0743
3530100.0,1473.002053,1.0,11.77,15.87,-18.6,5.06,-29.75,35.0,-206.88,193.5,145.25,7.246543942811304,5.445749455217508,-15.77031646899126,-148.73080219796103,-15.147239662385429,-18.669230437467,-0.1705,-0.963,-0.1318,-0.1622
3530135.0,1473.027983,1.0,11.46,16.14,-21.47,5.06,-29.75,35.0,-135.56,115.75,84.69,2.123465273265724,3.6829819104393113,-19.084847702275866,-143.24503868567004,-11.42075798112357,-24.842788298368426,-0.2079,-0.949,-0.0995,-0.2151
3530170.0,1473.054911,1.0,9.22,13.29,-20.81,-7.0,-35.19,30.5,20.5,-163.38,-34.25,1.0114802399303118,1.6375705411052301,-16.479922055845066,-144.38898361895096,-10.810553401892456,-22.582922295565638,-0.2151,-0.9521,-0.0942,-0.1958
3530207.0,1473.097797,1.0,7.01,8.81,-16.23,-10.69,-38.56,26.37,57.75,-259.19,-97.94,3.95911321211101,-0.06812701875479699,-9.545091040097754,-150.07721211196608,-12.273289521851868,-12.526874248925028,-0.2081,-0.9661,-0.1069,-0.1091
3530244.0,1473.134707,1.0,4.37,5.56,-10.25,-3.56,-37.06,29.69,48.13,-293.19,-102.5,4.278688738515352,-0.1607356654525659,-1.8869374189554584,-152.23986727877065,-13.51876311679545,-3.782208130568333,-0.2067,-0.9708,-0.1177,-0.033
3530276.0,1473.170603,1.0,2.1,2.85,-5.95,-3.56,-37.06,29.69,18.19,-267.75,-62.81,3.253802722072727,-0.36339982049302916,3.706182114968742,-151.34635737161238,-14.292215737283831,7.694875241065197,-0.2031,-0.9689,-0.1244,0.0671
3530313.0,1473.19454,1.0,-0.61,2.27,-2.48,8.0,-35.88,30.87,-23.94,-237.44,-78.75,0.7304185790407562,0.9635632339860295,6.610803540374246,-145.64716796815563,-15.21660246715643,17.277034050168417,-0.2171,-0.9554,-0.1324,0.1502
3530350.0,1473.229446,1.0,-2.73,-1.54,2.99,15.69,-34.25,28.06,-77.31,-178.25,-89.81,-3.8884422571506265,0.6848599895791742,11.588666724803375,-139.93551354464947,-16.859885280956842,23.284475807440252,-0.2347,-0.9395,-0.1466,0.2018
3530387.0,1473.283307,1.0,-2.77,-0.52,2.74,15.69,-34.25,28.06,-58.06,-115.31,-13.69,-3.5385731760553947,1.5012250845338582,10.62867379726352,-134.88648767208014,-17.219083051744406,27.8321052726943,-0.2589,-0.9235,-0.1497,0.2405
3530420.0,1473.301255,1.0,-4.84,1.14,4.66,22.87,-33.19,24.0,-24.0,-78.69,39.31,-5.436491520872279,4.102184022552102,10.046329345380585,-133.27085000109963,-15.690733139619654,29.879123753551497,-0.2687,-0.918,-0.1365,0.2578
3530457.0,1473.354112,1.0,-5.84,2.66,5.49,25.37,-34.69,20.69,-3.44,39.38,-2.88,-6.013825386273883,5.9097976807815975,9.32759301420787,-132.4398647310081,-15.366907820940328,30.187596092266826,-0.2772,-0.9151,-0.1337,0.2604
3530491.0,1473.369072,1.0,-5.52,2.67,0.61,25.75,-35.75,19.87,70.25,153.13,-47.13,-3.832575238529914,3.326013829241877,6.3108812649863175,-135.00612922505886,-16.767216307875252,27.4544775660039,-0.2625,-0.9239,-0.1458,0.2373
3530526.0,1473.408965,1.0,-4.07,-0.88,-5.01,25.75,-35.75,19.87,79.12,177.31,-80.06,-2.4704296685425504,-2.166929093402997,4.181634839402793,-139.80191665328087,-20.448351223683986,22.15072645927377,-0.2228,-0.9391,-0.1775,0.1921
3530563.0,1473.468806,1.0,-0.43,3.09,-14.93,24.56,-34.0,24.75,50.31,165.69,-98.0,4.2668575006475535,-4.0358395792154385,-4.269706984674901,-141.33038910827102,-23.740958889771715,18.35575126897081,-0.2046,-0.9436,-0.2057,0.1595
3530600.0,1473.474789,1.0,-3.28,0.2,-14.4,23.06,-31.69,30.06,94.94,38.31,-40.31,0.26015924931207857,-4.069434801507826,-4.389490939046578,-142.84730495776557,-26.358703855877888,17.045256614539134,-0.1656,-0.9479,-0.228,0.1482
3530635.0,1473.53064,1.0,-4.01,-1.44,-12.24,23.06,-31.69,30.06,90.56,-31.25,-45.0,-1.313629822342425,-3.8139501690345305,-2.5099835010007556,-143.35423456188457,-27.06536707365855,17.752401631441728,-0.1425,-0.9493,-0.234,0.1543
3530670.0,1473.542608,1.0,-4.3,-4.2,-4.17,23.06,-28.0,31.37,82.75,-35.63,24.37,-4.351130114332844,-3.1904189228846453,4.86622554205659,-143.24503868567004,-26.688351311037593,20.9608980601766,-0.114,-0.949,-0.2308,0.1819
3530704.0,1473.595466,1.0,-1.66,-0.86,-3.0,25.0,-24.69,31.75,-12.25,80.19,88.94,-1.0300023384688424,-1.0082038596484737,6.578985184666995,-146.951724947316,-23.94005793030564,18.320928845487863,-0.1124,-0.9587,-0.2074,0.1592
3530741.0,1473.618405,1.0,1.39,1.74,1.13,23.5,-25.0,35.0,-40.88,246.31,135.19,1.7567796086878007,1.4157158575708364,10.877198465563893,-152.1444912618588,-21.100756747738608,11.570479767497385,-0.1188,-0.9706,-0.1831,0.1008
3530776.0,1473.668303,1.0,10.31,2.11,-4.71,23.5,-25.0,35.0,-78.44,476.0,197.0,9.782079514734708,-2.0366915360412854,4.053815224480594,-157.92374967519896,-16.026256661631813,-5.789336220308419,-0.1213,-0.9815,-0.1394,-0.0505
3530813.0,1473.695202,1.0,10.17,13.48,-14.3,12.25,-28.69,35.88,-117.31,252.0,177.69,7.036336976388724,6.627016332064508,-10.09817143826603,-153.46040280996561,-11.409241734119899,-16.97573712493423,-0.145,-0.9733,-0.0994,-0.1476
3530850.0,1473.729111,1.0,8.76,1.82,-12.01,-5.69,-33.19,33.38,-7.06,150.56,105.44,2.929750541399837,-2.9805000284667,-4.5747018608466465,-149.33171261025754,-7.694875241065197,-24.25642512530879,-0.1457,-0.9644,-0.0671,-0.2101
3530887.0,1473.771994,1.0,8.42,10.64,-13.97,-5.69,-33.19,33.38,-79.69,115.87,86.56,0.1771512461840592,4.98738309126535,-9.017842751119106,-144.87941908090355,-4.080321683767285,-29.736826743672204,-0.155,-0.9534,-0.0356,-0.2566
3530921.0,1473.79696,1.0,8.16,5.05,-14.34,-14.0,-34.0,32.0,-38.5,79.69,31.25,-1.1006386445543805,-0.43569278756410806,-7.407369471610286,-142.16981440543415,-3.105811485245125,-32.71144187962135,-0.1584,-0.946,-0.0271,-0.2816
3530958.0,1473.848789,1.0,7.09,3.06,-12.05,-19.5,-34.69,29.69,-61.75,21.06,26.75,-1.136088298266011,-1.8251102736577745,-4.342995785938667,-139.96897956123578,-1.9137679978932431,-34.41103013134,-0.1714,-0.9396,-0.0167,-0.2958
3530993.0,1473.877712,1.0,6.5,4.29,-10.18,-21.0,-34.69,26.0,-63.94,-4.0,15.06,-0.7649909925438805,-0.302914553544535,-2.984344158179331,-138.94369485234358,-0.8021474641450599,-34.60301565627788,-0.1855,-0.9365,-0.007,-0.2974
3531028.0,1473.906636,1.0,6.31,4.05,-9.03,-21.0,-34.69,26.0,-57.63,-18.87,2.19,-0.20187430050057786,-0.4896429919046641,-1.918493773416003,-138.1343678726239,0.16042823504321638,-34.05132504616154,-0.2047,-0.934,0.0014,-0.2928
3531063.0,1473.948523,1.0,5.88,4.68,-7.89,-21.69,-35.69,23.5,-58.69,-12.06,-12.56,0.03618644984676411,0.28175361563709095,-1.0859257027859552,-137.46590815068691,0.5385823103159236,-33.56028583882476,-0.2197,-0.9319,0.0047,-0.2887
3531100.0,1473.981434,1.0,5.82,4.86,-8.2,-22.06,-37.56,22.37,-34.0,-21.87,-35.38,-0.05403230348193011,-0.06398641525288556,-1.3613841264182902,-136.8073201749142,0.27502000568243146,-32.68755772174567,-0.2371,-0.9298,0.0024,-0.2814
3531137.0,1474.052247,1.0,5.67,3.81,-7.48,-22.06,-37.56,22.37,-20.44,-36.75,-36.25,0.5587635101081099,-0.8412416715710678,-0.27280910204431486,-137.088392741319,-0.3323159869732291,-31.49518399873921,-0.2455,-0.9307,-0.0029,-0.2714
3531169.0,1474.065212,1.0,4.65,4.09,-6.67,-21.37,-38.38,22.0,-36.75,-31.06,-23.25,0.30239858012667487,-0.3009579252977511,0.7150341135946654,-137.21387841569043,-0.6531754234266163,-29.926566557645558,-0.2576,-0.9311,-0.0057,-0.2582
3531206.0,1474.091141,1.0,4.08,4.77,-6.19,-20.19,-39.88,21.5,-35.25,-27.87,-29.31,0.14570734736443258,0.36250938626407153,0.999677971328941,-136.96325573717925,-1.0198783397289317,-28.61194247203445,-0.2709,-0.9303,-0.0089,-0.2471
3531243.0,1474.116075,1.0,4.07,4.31,-6.44,-17.87,-39.88,19.87,-1.81,-31.06,-37.63,0.25592759643442164,-0.244279110325339,1.0608264949410309,-137.30822333899698,-1.7418587747641439,-27.537057504249983,-0.275,-0.9314,-0.0152,-0.238
3531276.0,1474.160955,1.0,3.91,4.19,-5.81,-17.87,-39.88,19.87,-2.75,-24.56,-36.31,0.6327617686465212,-0.09563959610899954,1.6708792552091047,-137.81479293008655,-2.750461504037132,-26.15866922824563,-0.2789,-0.933,-0.024,-0.2263
3531313.0,1474.196859,1.0,3.92,4.54,-6.6,-16.87,-41.0,19.5,-30.56,4.56,-28.0,0.31927339719837855,-0.3624329588512324,0.901330979988435,-137.21387841569043,-3.3924056518954067,-25.9116795113663,-0.2863,-0.9311,-0.0296,-0.2242
3531350.0,1474.231766,1.0,3.91,4.53,-6.54,-14.56,-42.19,19.87,-30.0,24.81,-17.5,0.28706692332117245,-0.5795585845964263,0.9657052298662379,-135.7608376875957,-4.011523869819651,-26.264559766970834,-0.2982,-0.9264,-0.035,-0.2272
3531384.0,1474.2946,1.0,3.71,5.84,-6.48,-14.56,-42.19,19.87,-39.94,13.44,-20.44,-0.02062876084391596,0.36201485295977065,0.33413081551361756,-134.52935339042855,-4.366995362783785,-26.65302123047702,-0.3079,-0.9223,-0.0381,-0.2305
3531419.0,1474.313548,1.0,3.19,5.93,-5.57,-14.25,-42.19,19.0,-36.44,15.38,-57.25,-0.03786427581882812,0.7254267067197355,1.0981356381932468,-132.89662989290295,-5.525454047712893,-26.5588202853178,-0.3235,-0.9167,-0.0482,-0.2297
3531454.0,1474.352445,1.0,3.29,4.88,-5.15,-13.5,-43.25,16.69,-0.88,2.63,-76.19,0.43350879158776956,-0.08729779428123526,1.998612524249146,-132.09998463629478,-7.2355343149913205,-25.98223545272544,-0.3322,-0.9139,-0.0631,-0.2248
