TIME,ELAPSED_SECONDS,PSTATE,acc_x,acc_y,acc_z,mag_x,mag_y,mag_z,gyr_x,gyr_y,gyr_z,lin_x,lin_y,lin_z,eul_x,eul_y,eul_z,qua_w,qua_x,qua_y,qua_z
1545424.0,348.232463,1.0,-3.74,2.74,-8.22,20.87,-32.19,29.5,-4.94,-4.88,-1.06,-0.12113546015027787,-0.03601372038799222,0.3701448623848034,-148.0992206918234,-12.722868211864098,20.751169149926106,-0.1754,-0.9615,-0.1108,0.1801
1545459.0,348.273933,1.0,-3.52,2.91,-8.44,20.87,-32.19,29.5,-2.94,3.38,0.81,0.18861793816375072,-0.02438769590946374,0.2120719210175217,-147.97436096195162,-12.745928771149693,20.727870288694778,-0.1769,-0.9612,-0.111,0.1799
1545494.0,348.303576,1.0,-3.59,3.02,-8.74,18.69,-31.5,30.37,3.69,1.5,2.0,0.22685604318540853,-0.013390707946424163,-0.11022738275567079,-148.1827256280383,-12.572987144073345,20.63468349632429,-0.1761,-0.9617,-0.1095,0.1791
1545531.0,348.334489,1.0,-3.7,2.53,-8.23,19.37,-32.56,30.0,2.31,-3.44,-2.56,-0.1453455458649371,-0.23264079129566542,0.43923024136194755,-148.22455825803132,-12.561458728935325,20.73951961095484,-0.1749,-0.9618,-0.1094,0.18
1545566.0,348.378784,1.0,-3.51,2.9,-8.69,19.37,-32.56,30.0,-8.75,0.94,-0.94,0.2684387583017007,-0.12250248059317714,0.0005736299481160501,-148.0992206918234,-12.630631138714765,20.727870288694778,-0.1764,-0.9615,-0.11,0.1799
1545601.0,348.410599,1.0,-3.55,2.68,-8.7,20.19,-31.5,30.0,7.94,1.06,1.75,0.16845117742292204,-0.32449511086197047,0.04236676343565371,-148.0992206918234,-12.630631138714765,20.69292362085707,-0.1766,-0.9615,-0.11,0.1796
1545635.0,348.443793,1.0,-3.75,2.61,-8.37,19.06,-33.38,29.5,2.31,-2.81,-0.37,-0.12182181727566754,-0.2069092067798543,0.27387243913216075,-148.1827256280383,-12.572987144073345,20.762818905741057,-0.175,-0.9617,-0.1095,0.1802
1545670.0,348.479035,1.0,-3.51,2.93,-8.61,19.75,-31.87,29.5,-6.19,-1.19,-1.25,0.25652064843649125,-0.059555273606086645,0.06151016897081796,-148.0992206918234,-12.630631138714765,20.751169149926106,-0.1761,-0.9615,-0.11,0.1801
1545705.0,348.52356,1.0,-3.57,3.08,-8.63,19.75,-31.87,29.5,-1.81,2.19,0.31,0.23918618989186258,0.0649395363686753,-0.02425905375394244,-148.0575479662478,-12.653689634339962,20.69292362085707,-0.1769,-0.9614,-0.1102,0.1796
1545742.0,348.550559,1.0,-3.54,2.73,-8.77,20.19,-32.19,30.0,-1.31,-1.19,0.75,0.2072876993336985,-0.30431573128371736,-0.030108802847520266,-148.0992206918234,-12.630631138714765,20.657978898652154,-0.1765,-0.9615,-0.11,0.1793
1545779.0,348.584896,1.0,-3.73,2.75,-8.06,20.56,-32.19,30.0,-1.94,-2.69,-0.63,-0.16240963432267264,-0.007761348127378859,0.5108142187399611,-147.97436096195162,-12.630631138714765,20.762818905741057,-0.1774,-0.9612,-0.11,0.1802
1545811.0,348.626942,1.0,-3.4,3.08,-8.74,20.56,-32.19,30.0,1.37,2.06,0.25,0.43076591382456364,-0.016553952235024344,-0.05479850892364091,-147.97436096195162,-12.653689634339962,20.716221183013424,-0.1776,-0.9612,-0.1102,0.1798
1545846.0,348.665987,1.0,-3.69,2.78,-8.66,19.37,-32.56,30.0,6.69,0.19,-0.19,0.0631327580065617,-0.18088687006722992,-0.006779278040568215,-148.14094650942238,-12.619102083523115,20.727870288694778,-0.1757,-0.9616,-0.1099,0.1799
1545881.0,348.68845,1.0,-3.56,2.61,-8.64,20.19,-31.87,29.56,-3.69,1.37,-0.25,0.12373112478996129,-0.34109233977868625,0.11110222669174874,-148.1827256280383,-12.630631138714765,20.69292362085707,-0.1754,-0.9617,-0.11,0.1796
1545918.0,348.715445,1.0,-3.64,3.14,-8.56,19.37,-32.19,30.25,-7.19,1.81,0.12,0.16108269876753223,0.1451036478670821,-0.008430096236272888,-148.0159281250563,-12.688278342697656,20.63468349632429,-0.1776,-0.9613,-0.1105,0.1791
1545953.0,348.757032,1.0,-3.61,2.65,-8.68,19.37,-32.19,30.25,4.0,3.25,0.19,0.07910781378335185,-0.3389567262194225,0.04571509131686469,-148.0992206918234,-12.688278342697656,20.56480245757989,-0.177,-0.9615,-0.1105,0.1785
1545990.0,348.790102,1.0,-3.53,2.86,-8.79,20.19,-32.19,30.0,-4.19,-1.37,-0.69,0.23402188627347775,-0.196689922264595,-0.08330181137019466,-148.1827256280383,-12.711338126294772,20.506574164810864,-0.1769,-0.9617,-0.1107,0.178
1546024.0,348.835065,1.0,-3.46,2.91,-8.92,19.06,-32.56,30.75,5.94,-6.06,-0.12,0.3733515450170273,-0.21426697124726213,-0.18438589668588712,-148.0575479662478,-12.711338126294772,20.63468349632429,-0.1769,-0.9614,-0.1107,0.1791
1546059.0,348.867565,1.0,-4.04,2.99,-8.07,19.06,-32.56,30.75,9.0,-10.06,-0.75,-0.3240318821972372,0.29945892779054567,0.30970692920683796,-148.0575479662478,-12.549930441445206,21.07744476440248,-0.1744,-0.9614,-0.1093,0.1829
1546094.0,348.910614,1.0,-3.6,2.91,-8.29,20.19,-31.5,30.0,9.13,13.88,-7.63,0.08413019802046473,0.15554647524003767,0.3134457251610012,-148.3924281475188,-12.815113562902273,20.751169149926106,-0.1711,-0.9622,-0.1116,0.1801
1546131.0,348.944666,1.0,-3.35,2.65,-8.51,19.37,-31.5,30.75,3.38,24.19,-6.88,0.220827916747804,-0.14001023541760427,0.2884184328882231,-148.85861645005238,-13.114968872872081,20.14567756040377,-0.1689,-0.9633,-0.1142,0.1749
1546166.0,348.98057,1.0,-3.04,1.62,-8.96,19.37,-31.5,30.75,5.44,25.31,2.19,0.24613277267734412,-1.231690080566198,0.28982499353649693,-149.37507492345586,-13.322613734970497,19.47099057608733,-0.1664,-0.9645,-0.116,0.1691
1546201.0,349.046395,1.0,-3.74,2.35,-7.65,18.69,-31.5,30.75,-10.0,19.25,12.81,-0.7039777343293823,-0.013481484331906962,1.0011498098263214,-149.76806738505078,-13.114968872872081,18.634392500869453,-0.1695,-0.9654,-0.1142,0.1619
1546235.0,349.049388,1.0,-2.93,2.03,-9.19,19.06,-31.5,31.19,-10.19,30.25,13.88,0.16352953170462903,-1.0285534531777578,0.004750393994203961,-150.43438697810745,-12.838176201348999,17.439320584956544,-0.172,-0.9669,-0.1118,0.1516
1546272.0,349.092271,1.0,-2.5,2.74,-10.82,17.56,-32.19,31.19,-7.44,4.5,20.25,1.0669709645012793,-1.1076559380301891,-1.5275756587672404,-150.65977940351806,-12.400074265032764,16.998909587512788,-0.175,-0.9674,-0.108,0.1478
1546307.0,349.109809,1.0,-3.47,4.04,-9.58,17.56,-32.19,31.19,4.0,-45.19,16.69,0.3660004687598406,0.6299758714082034,-1.1298976297738097,-150.2552755154301,-11.501374957383893,18.170051350104256,-0.1758,-0.9665,-0.1002,0.1579
1546342.0,349.156686,1.0,-3.64,4.41,-8.89,17.19,-32.56,31.19,22.31,-43.94,-15.5,0.3688149854541123,1.3142105567572415,-0.6750782028782041,-149.72415559222358,-11.443790822449783,19.61052428537218,-0.1711,-0.9653,-0.0997,0.1703
1546381.0,349.192434,1.0,-3.11,3.94,-8.99,18.25,-32.19,31.19,20.37,-37.31,-36.38,1.1344142409819142,0.8984899829304568,-0.3875454111362373,-148.68831050830863,-12.307865676783145,21.43888030792546,-0.1637,-0.9629,-0.1072,0.186
1546414.0,349.22448,1.0,-3.72,2.25,-8.29,18.25,-32.19,31.19,58.88,-12.94,-30.31,0.08734192393376694,-0.09125511466400185,0.446679706651242,-148.68831050830863,-12.872771138472864,22.372624603038304,-0.1508,-0.9629,-0.1121,0.194
1546448.0,349.284726,1.0,-4.24,0.49,-6.32,20.87,-31.06,31.19,18.62,5.25,-11.81,-1.448248899835493,-0.7721711860312094,2.359071414742342,-149.02983560319493,-13.357225465957494,22.816676842803343,-0.1364,-0.9637,-0.1163,0.1978
1546483.0,349.318741,1.0,-3.24,0.34,-7.9,21.69,-29.19,30.75,-6.25,18.44,7.88,-0.12372801566792879,-1.526393249061446,1.3996282308264174,-149.50552295905456,-13.461068017168213,22.244146955349763,-0.1346,-0.9648,-0.1172,0.1929
1546520.0,349.341674,1.0,-3.77,2.01,-7.46,20.87,-28.06,31.56,-10.13,12.06,18.56,-0.3844089398924555,0.16784364727472942,1.2201106343998962,-149.85607839466778,-12.88430304585338,21.730517688284202,-0.1399,-0.9656,-0.1122,0.1885
1546555.0,349.363959,1.0,-3.9,0.94,-7.08,20.87,-28.06,31.56,-7.0,33.88,21.81,-1.0936324834517372,-0.7230063407188179,1.7753842328609508,-150.84131999821054,-12.261764386292771,20.52986483879688,-0.1418,-0.9678,-0.1068,0.1782
1546592.0,349.410063,1.0,-2.83,1.81,-8.95,19.75,-30.0,31.69,-4.13,34.38,19.44,0.4947754007017122,-0.6893235946167677,0.2847000796966448,-151.71920090048613,-11.800859775906506,19.377984308584086,-0.1442,-0.9697,-0.1028,0.1683
1546629.0,349.441667,1.0,-2.97,1.57,-7.82,19.37,-29.5,32.5,-2.31,22.69,30.5,-0.20643847855354824,-0.5598972110943238,1.3165323172124825,-152.7702885732456,-10.891128461986717,18.274501601194086,-0.1454,-0.9719,-0.0949,0.1588
1546663.0,349.472873,1.0,-2.96,1.62,-6.7,19.37,-29.5,32.5,-10.0,36.25,29.31,-0.6678169423022209,-0.20588129820688655,2.337538043239493,-153.61058909469406,-10.235170717586842,17.09160645080068,-0.1483,-0.9736,-0.0892,0.1486
1546696.0,349.513509,1.0,-2.4,2.29,-7.89,17.87,-31.0,32.75,-26.37,46.06,25.69,0.011093527975565287,-0.14232727817524032,1.2488570672676165,-154.42620867150097,-9.62554711472919,15.170359975770202,-0.1564,-0.9752,-0.0839,0.132
1546733.0,349.540755,1.0,-1.99,2.32,-8.12,15.69,-31.0,33.25,-7.63,32.19,33.31,0.2565443418343021,-0.2777924520540218,1.138667746081003,-155.214797761141,-8.958724002944487,13.922726077012076,-0.1592,-0.9767,-0.0781,0.1212
1546770.0,349.583707,1.0,-2.35,2.19,-7.11,14.56,-32.88,31.19,-7.81,50.88,26.87,-0.5852018009786146,-0.042265724947233366,2.026775164205654,-156.30638493987288,-8.188805090876484,12.134996086138983,-0.1608,-0.9787,-0.0714,0.1057
1546805.0,349.613568,1.0,-1.55,1.96,-7.61,14.56,-32.88,31.19,-20.06,55.13,28.62,-0.003148227486628574,-0.5649114891058312,1.8168399210219066,-156.87120131517742,-7.752301412421159,10.453784866884499,-0.1653,-0.9797,-0.0676,0.0911
1546842.0,349.654673,1.0,-0.97,3.13,-9.03,11.56,-33.25,32.38,-15.0,49.38,41.31,0.5562950408009539,-0.10479695549107024,0.21716339092128045,-157.56748354792904,-6.638563994932458,8.142851840335263,-0.1717,-0.9809,-0.0579,0.071
1546876.0,349.677708,1.0,-1.04,2.52,-8.07,10.38,-33.56,32.75,-17.87,50.44,40.13,0.03821585350981438,-0.3823431913573277,1.2972873192486851,-157.98368078519854,-5.812283928177061,6.569694717687417,-0.1749,-0.9816,-0.0507,0.0573
1546911.0,349.715608,1.0,-0.84,4.24,-7.54,10.38,-33.56,32.75,-37.19,66.75,30.81,-0.025862514212349363,1.2136729373096145,1.2007724078191249,-157.56748354792904,-5.009246344236124,3.9771255068430276,-0.1862,-0.9809,-0.0437,0.0347
1546946.0,349.763692,1.0,0.14,3.63,-9.01,7.06,-34.75,32.75,-5.38,79.5,37.63,0.3881883312622487,-0.02450902335485644,0.0996778084643708,-157.62647223808008,-4.2293886949276756,0.6760941207657828,-0.1905,-0.981,-0.0369,0.0059
1546983.0,349.79573,1.0,0.59,4.86,-9.12,3.69,-36.25,33.25,-50.38,89.75,50.13,0.4035806654564448,0.9085316115120163,-0.4964462801166274,-156.87120131517742,-3.163128706652845,-2.0169155746287277,-0.1979,-0.9797,-0.0276,-0.0176
1547018.0,349.840357,1.0,1.31,6.78,-9.4,3.69,-36.25,33.25,-59.25,92.25,23.06,0.4606704299651481,2.111242512386429,-1.655240673394509,-154.21992611229572,-2.7733864743736323,-5.7319679651977244,-0.2161,-0.9748,-0.0242,-0.05
1547053.0,349.862555,1.0,1.52,7.19,-9.37,0.69,-37.0,30.37,-12.31,90.31,5.88,0.18047559974256122,2.365947235945585,-1.862673983617002,-152.86782140615486,-3.105811485245125,-8.510515201802361,-0.2207,-0.9721,-0.0271,-0.0742
1547087.0,349.898848,1.0,1.76,6.44,-8.87,-1.88,-38.06,30.25,-1.31,101.19,-6.0,-0.10959116031668836,1.8629037221757703,-1.1371007052876596,-151.30008546167105,-4.126187708974658,-12.227189726180754,-0.2208,-0.9688,-0.036,-0.1065
1547124.0,349.962077,1.0,3.06,7.1,-9.65,-4.88,-37.75,28.69,-6.75,89.31,-33.69,0.6196797465538606,1.8687860527338904,-2.400713994770463,-149.72415559222358,-5.3992599817249625,-14.604088706058507,-0.2231,-0.9653,-0.0471,-0.1271
1547159.0,349.965069,1.0,3.79,6.56,-12.31,-4.88,-37.75,28.69,11.56,85.31,-35.13,0.035393948920798834,0.14377976682005586,-4.647134094382794,-147.97436096195162,-7.4881569438495115,-17.3929494210965,-0.2211,-0.9612,-0.0653,-0.1512
1547194.0,350.033768,1.0,3.55,6.28,-11.59,-6.38,-38.88,28.69,77.69,7.13,-66.75,0.13950801302286142,0.5007541184474893,-3.835152770424454,-148.60349534227026,-9.338084626655299,-17.485694626999514,-0.2086,-0.9627,-0.0814,-0.152
1547231.0,350.044738,1.0,3.88,5.71,-11.72,-6.38,-38.5,29.06,58.94,-6.06,-97.31,0.8331826139733269,0.1964260706123861,-3.7684788587090896,-149.50552295905456,-13.126503557539667,-16.43138337904295,-0.189,-0.9648,-0.1143,-0.1429
1547266.0,350.105575,1.0,4.15,2.21,-12.18,-6.38,-38.5,29.06,99.19,-5.88,-61.44,0.5564880176793168,-2.846852635766533,-2.9230299314204498,-150.1661139822511,-15.73700413286234,-15.621331474060083,-0.1703,-0.9663,-0.1369,-0.1359
1547300.0,350.108566,1.0,3.18,2.94,-13.76,-3.06,-37.38,32.38,47.13,-37.69,-53.19,-0.21293146103192373,-2.045900123633264,-4.4713944346212955,-150.79583135983617,-18.03080801097451,-14.026630173419028,-0.1555,-0.9677,-0.1567,-0.1221
1547335.0,350.14846,1.0,2.68,4.32,-12.1,-0.75,-34.75,34.75,29.44,-53.38,-66.87,0.7975407592348551,-0.19959160725356678,-3.2921626151828356,-150.61456567249238,-20.52986483879688,-11.639588800101585,-0.1489,-0.9673,-0.1782,-0.1014
1547374.0,350.191557,1.0,2.06,3.06,-10.84,1.19,-33.69,34.0,24.25,-64.12,-27.06,0.5808307010496726,-0.6921745816790894,-1.6080917861813937,-151.207760054273,-21.473869337236096,-9.660046657878475,-0.1412,-0.9686,-0.1863,-0.0842
1547407.0,350.225721,1.0,1.66,0.67,-9.92,1.19,-33.69,34.0,19.94,-71.44,-12.31,0.1151017499513819,-2.4573272255152143,0.031211672543788538,-152.1444912618588,-21.765523710742034,-6.764830589593756,-0.1371,-0.9706,-0.1888,-0.059
1547444.0,350.265663,1.0,1.14,1.57,-8.71,4.75,-32.5,35.69,-21.5,-72.56,-9.56,0.4363071012576153,-1.345759844959078,0.9960219546738376,-152.0020244138963,-21.882225322200526,-4.745446786894517,-0.1444,-0.9703,-0.1898,-0.0414
1547481.0,350.291734,1.0,0.32,2.2,-7.74,6.69,-31.75,34.75,9.13,-65.87,6.44,0.35844069487972685,-0.3442011959667513,1.7690480065600909,-152.3835367338065,-21.42721774773248,-2.2346770389286066,-0.1486,-0.9711,-0.1859,-0.0195
1547515.0,350.329468,1.0,-0.51,0.36,-6.54,6.69,-31.75,34.75,6.81,-51.31,5.81,-0.7744570074504135,-1.3631853545872648,3.426740750437765,-152.7702885732456,-21.065789103644565,-0.6531754234266163,-0.1478,-0.9719,-0.1828,-0.0057
1547548.0,350.354697,1.0,-0.5,1.43,-6.77,9.25,-31.75,34.38,-10.06,-40.75,6.63,-0.24467691747916656,-0.5919907117191893,2.8988659701326,-152.7702885732456,-20.576448759783837,0.8250663536663884,-0.1534,-0.9719,-0.1786,0.0072
1547585.0,350.397708,1.0,-0.51,3.54,-6.95,9.69,-31.75,34.75,-6.31,-22.25,20.5,0.5170468263175474,1.163468193263075,2.094762789812073,-152.91671705681662,-19.889680039418103,1.4553519237055776,-0.1575,-0.9722,-0.1727,0.0127
1547620.0,350.426717,1.0,-0.45,2.59,-7.98,11.19,-32.5,35.19,-6.25,1.19,4.06,0.22666105437007467,-0.042027422511759734,1.4079680520876465,-153.06392657993817,-19.59889535760717,1.569953472031555,-0.1586,-0.9725,-0.1702,0.0137
1547655.0,350.46761,1.0,-0.13,3.36,-8.91,11.19,-32.5,35.19,-7.06,3.31,2.63,0.7366557084694878,0.22646583720812086,0.3145136971566309,-153.01476916887478,-19.494244164289388,1.4668120111410634,-0.16,-0.9724,-0.1693,0.0128
1547692.0,350.516587,1.0,-0.01,3.11,-9.57,10.75,-32.5,33.19,3.94,-12.31,9.5,0.7657303374494396,-0.25002549590121925,-0.22371611005345926,-153.1625065187994,-19.250121718432275,1.6157945246366485,-0.1603,-0.9727,-0.1672,0.0141
1547726.0,350.533564,1.0,-0.54,3.24,-9.32,10.06,-32.88,33.56,5.81,-16.37,6.19,0.38078378987610983,0.10106476963165528,-0.06737600855937131,-153.36074062083046,-18.901528010085144,2.0742204847835874,-0.1605,-0.9731,-0.1642,0.0181
1547761.0,350.608477,1.0,-0.97,2.95,-8.78,10.06,-32.88,33.56,9.06,-17.06,-3.75,0.013141497251669687,0.16279410730676885,0.49509130235565024,-153.5103719816942,-18.796984460560502,2.8421620551927376,-0.1586,-0.9734,-0.1633,0.0248
1547796.0,350.611471,1.0,-0.85,2.68,-9.23,10.75,-32.06,34.06,-5.38,-9.88,-4.44,0.10835329820619632,-0.2984735742037025,0.16315617834646368,-153.3110465719337,-18.88991127772655,3.2892294003721183,-0.16,-0.973,-0.1641,0.0287
1547833.0,350.648912,1.0,-1.44,3.18,-8.13,11.88,-32.5,32.75,-8.5,-30.69,10.69,-0.21103925408379598,0.6176254788069268,0.9829942269564782,-153.1625065187994,-18.657617598655083,3.919795697049856,-0.1628,-0.9727,-0.1621,0.0342
