TIME,ELAPSED_SECONDS,PSTATE,acc_x,acc_y,acc_z,mag_x,mag_y,mag_z,gyr_x,gyr_y,gyr_z,lin_x,lin_y,lin_z,eul_x,eul_y,eul_z,qua_w,qua_x,qua_y,qua_z
3376330.0,1318.917036,1.0,-3.77,3.46,-8.36,24.56,-31.56,25.69,-0.94,-1.12,1.19,0.054122694303510244,0.13320944435633136,0.00596502506607699,-137.37123052660468,-28.71838798339577,16.917809025605248,-0.2214,-0.9316,-0.248,0.1471
3376365.0,1318.964952,1.0,-4.0,3.26,-8.3,24.56,-31.56,25.69,1.37,-0.12,-0.81,-0.2446998832329692,0.09947940473062605,0.03690968537646988,-137.37123052660468,-28.71838798339577,16.96415115593626,-0.2212,-0.9316,-0.248,0.1475
3376402.0,1318.990051,1.0,-3.77,3.29,-8.53,24.56,-31.25,24.87,-0.5,2.06,1.44,-0.010499774336416579,-0.07508866640802225,-0.08234142718386117,-137.40276743944383,-28.70655945606141,16.894639006068054,-0.2211,-0.9317,-0.2479,0.1469
3376437.0,1319.027005,1.0,-3.91,3.28,-8.25,24.56,-31.25,25.69,-1.56,2.19,0.69,-0.19281114936680432,0.10688852917971292,0.1081759600796186,-137.4343266309111,-28.70655945606141,16.81354941000451,-0.2214,-0.9318,-0.2479,0.1462
3376472.0,1319.049087,1.0,-3.89,3.4,-8.38,24.56,-31.25,25.69,-0.37,0.37,0.25,-0.10234733532086437,0.1278711154167938,-0.036605254274107324,-137.4343266309111,-28.69473124115228,16.755633464025784,-0.2216,-0.9318,-0.2478,0.1457
3376506.0,1319.092049,1.0,-3.86,3.24,-8.53,25.37,-31.56,26.06,1.19,2.31,0.19,-0.1425561528563568,-0.07135584859613847,-0.09954432911317035,-137.46590815068691,-28.70655945606141,16.709303811577854,-0.2212,-0.9319,-0.2479,0.1453
3376541.0,1319.145161,1.0,-3.78,3.34,-8.46,25.75,-30.87,26.06,0.37,0.5,0.88,-0.04432962462797785,0.006491547479376192,-0.04289784465722235,-137.4975120486347,-28.671075748006672,16.66297690980209,-0.2214,-0.932,-0.2476,0.1449
3376576.0,1319.165369,1.0,-4.02,3.4,-8.18,25.75,-30.87,26.06,-1.25,-0.56,0.19,-0.25641040927596537,0.2837840536289828,0.08623229740507199,-137.4975120486347,-28.671075748006672,16.67455837781138,-0.2214,-0.932,-0.2476,0.145
3376611.0,1319.204313,1.0,-3.8,3.42,-8.49,25.37,-30.87,27.25,-0.88,2.63,0.31,-0.02252585675633667,0.06373535780815498,-0.10354325694219035,-137.4975120486347,-28.70655945606141,16.605072138436235,-0.2215,-0.932,-0.2479,0.1444
3376646.0,1319.233335,1.0,-3.87,3.48,-8.18,25.0,-31.25,25.0,-0.25,0.81,-0.56,-0.10583167288118345,0.29269585057192604,0.11630280312035701,-137.5291383748013,-28.70655945606141,16.55875139620892,-0.2214,-0.9321,-0.2479,0.144
3376680.0,1319.272055,1.0,-3.87,3.37,-8.03,24.56,-31.56,25.19,5.69,6.75,-2.63,-0.19066213565290746,0.30318909175920294,0.283708000561667,-137.59245851290373,-28.78936571677899,16.489275388774946,-0.2204,-0.9323,-0.2486,0.1434
3376715.0,1319.308616,1.0,-3.75,2.88,-8.36,24.56,-31.56,25.19,7.0,11.0,-2.56,-0.3196638489903276,-0.2107075826334655,0.2097798154935191,-137.81479293008655,-28.931355072204077,16.223006993376618,-0.2172,-0.933,-0.2498,0.1411
3376752.0,1319.340438,1.0,-3.34,2.24,-8.98,24.56,-32.0,25.25,15.44,16.56,1.5,-0.25080297485213543,-1.0808832482668944,0.03002536409311851,-138.19856277995768,-28.97869493391196,15.910543420989347,-0.2133,-0.9342,-0.2502,0.1384
3376787.0,1319.379043,1.0,-2.53,1.64,-9.83,24.25,-30.87,28.56,21.37,18.62,5.44,0.1989537600545539,-2.093175566065374,-0.25806228853498503,-139.1073977684417,-28.83669047331989,15.424724640986323,-0.205,-0.937,-0.249,0.1342
3376822.0,1319.429241,1.0,-2.54,-0.15,-10.76,24.25,-30.87,28.56,39.38,-0.56,14.38,-0.5216195266243551,-3.769439767120877,-0.5746281925681931,-139.96897956123578,-28.41094741939909,15.540370148995088,-0.1964,-0.9396,-0.2454,0.1352
3376857.0,1319.459588,1.0,-2.21,-0.78,-11.86,23.87,-30.87,27.69,35.56,-7.75,33.31,-0.1999182016686496,-4.717184443845763,-1.3226044060858442,-141.57339812733943,-27.006438787370872,15.910543420989347,-0.1862,-0.9443,-0.2335,0.1384
3376893.0,1319.48426,1.0,-1.82,-2.28,-12.56,23.87,-29.75,28.06,27.25,-28.94,64.69,-0.20881951905675644,-6.347754679879531,-1.4150613192475436,-142.9553690729635,-25.206664604393563,16.489275388774946,-0.1808,-0.9482,-0.2182,0.1434
3376930.0,1319.524128,1.0,-1.76,-0.02,-11.66,22.37,-29.75,28.56,4.0,-57.69,95.06,1.0364918080357435,-4.321055524992743,-1.1161593401745549,-144.31411111967859,-21.602179804976906,17.706010881893697,-0.1873,-0.9519,-0.1874,0.1539
3376965.0,1319.567484,1.0,-2.02,1.01,-10.35,22.37,-29.75,28.56,4.56,-70.44,108.37,1.1910609781328625,-2.985428569485765,-0.2874864168940867,-145.1462667205504,-18.274501601194086,19.017706136871343,-0.1929,-0.9541,-0.1588,0.1652
3377002.0,1319.592496,1.0,-2.27,0.62,-8.73,21.69,-31.56,28.87,-0.06,-95.75,136.69,0.8097058424321324,-2.8738324477662895,1.2722687388366047,-145.41510886588998,-12.999629346780692,21.33392533931821,-0.2028,-0.9548,-0.1132,0.1851
3377037.0,1319.634024,1.0,-2.37,4.15,-7.21,20.56,-33.5,26.37,-45.5,-89.0,158.69,1.272680052256487,0.6068296708974515,1.2722757853837372,-144.53918747848587,-8.303694005010767,22.89851361952645,-0.2194,-0.9525,-0.0724,0.1985
3377072.0,1319.671049,1.0,-2.48,8.88,-4.27,20.56,-33.5,26.37,-51.56,-89.25,140.81,0.7593757828817953,5.560104454303303,1.3363320084716275,-141.50381639674873,-2.532679647359437,24.831054609816952,-0.249,-0.9441,-0.0221,0.215
3377106.0,1319.746043,1.0,-3.9,11.92,-1.99,18.69,-36.5,25.0,-37.38,-68.19,107.62,-1.5496654111568744,8.574916533081053,0.5694510975102816,-138.585728177911,1.982532871583725,26.28809409494012,-0.2703,-0.9354,0.0173,0.2274
3377143.0,1319.779952,1.0,-4.53,13.92,0.77,15.69,-39.88,23.25,-43.81,-20.56,58.69,-3.438661927901486,11.170855766404172,0.9597417495547926,-136.96325573717925,3.873932556571698,26.676574330601248,-0.2833,-0.9303,0.0338,0.2307
3377180.0,1319.785936,1.0,-4.65,14.88,0.25,15.69,-39.88,23.25,-25.94,12.38,6.63,-3.2560677860754295,11.461573464698844,-0.24967916554510872,-136.09680960991037,4.068855279934243,26.264559766970834,-0.2947,-0.9275,0.0355,0.2272
3377213.0,1319.802352,1.0,-5.04,12.4,-1.15,14.19,-41.0,21.69,1.19,64.12,-61.25,-2.9649519305934735,8.79526250263482,0.09395122164720249,-136.99450746728783,2.4180613422720283,25.288865851045276,-0.2932,-0.9304,0.0211,0.2189
3377252.0,1319.851831,1.0,-4.56,12.04,-3.02,13.0,-41.75,20.0,31.56,85.5,-134.56,-1.247806412665257,8.161572185943658,-0.5232734561608581,-139.33764146351635,-2.1544482337672353,23.56534364989273,-0.2806,-0.9377,-0.0188,0.2042
3377287.0,1319.867788,1.0,-2.58,5.54,-5.28,14.06,-41.0,20.37,52.19,117.69,-155.0,0.5371362659175587,2.063421979266161,2.0169019702292355,-141.67799864882883,-6.994427393261249,21.882225322200526,-0.2608,-0.9446,-0.061,0.1898
3377321.0,1319.919673,1.0,-1.51,4.76,-9.59,14.06,-41.0,20.37,38.63,111.12,-130.69,2.4791845683744436,-0.36829131865436415,-0.7111351936868306,-143.94200484154302,-12.907367253850758,18.88991127772655,-0.2371,-0.9509,-0.1124,0.1641
3377356.0,1319.964671,1.0,-0.41,0.23,-11.75,17.5,-38.0,23.25,63.38,123.25,-113.0,2.0231553265376814,-4.879190671609339,-0.6997214437850765,-145.8027223342799,-17.961196420173223,15.760140597334962,-0.2081,-0.9558,-0.1561,0.1371
3377393.0,1319.989647,1.0,0.71,-2.69,-17.31,18.56,-34.25,27.0,42.69,53.0,-62.06,2.4791707598906667,-9.64649259999687,-4.6216275431271985,-146.4319313048688,-20.459995384570266,14.061267443693245,-0.192,-0.9574,-0.1776,0.1224
3377430.0,1320.026738,1.0,-0.07,-3.43,-16.67,19.0,-32.38,28.56,26.69,-24.0,-24.75,1.5703338553926727,-9.560318830375095,-4.185957171080847,-146.19464572787078,-21.415555412105128,14.927627478593793,-0.1822,-0.9568,-0.1858,0.1299
3377465.0,1320.08894,1.0,-1.9,-1.37,-11.43,19.0,-32.38,28.56,5.31,-84.81,9.94,0.23764981252417205,-5.257740173175431,-0.6063942637100315,-145.41510886588998,-20.832722001771078,17.05684380992257,-0.1837,-0.9548,-0.1808,0.1483
3377502.0,1320.098053,1.0,-2.15,-0.07,-7.13,19.69,-31.25,30.25,29.56,-106.81,19.12,0.07964388412926282,-2.4581846290698297,2.7770493583471874,-144.09039985888566,-19.41286014518169,20.727870288694778,-0.1851,-0.9513,-0.1686,0.1799
3377539.0,1320.142078,1.0,-3.39,-0.45,-1.9,22.25,-31.25,28.25,34.69,-109.37,47.0,-2.464039981988481,-0.45411925779324797,6.802172896265722,-143.13615512462272,-17.590046787082347,23.928344197778113,-0.1833,-0.9487,-0.1529,0.2073
3377571.0,1320.169916,1.0,-4.18,-1.21,0.96,22.25,-31.25,28.25,45.63,42.44,67.06,-4.39542811331147,0.006513445546620811,9.072981630954228,-144.23939029133865,-14.973857013009212,24.596436196111345,-0.1784,-0.9517,-0.1303,0.213
3377606.0,1320.214855,1.0,-3.46,-1.93,1.26,23.06,-31.25,26.69,-9.75,168.19,121.0,-4.045466608196184,-0.7970992114464555,10.338564249744362,-149.81204156148604,-11.823900394126868,18.262895263137004,-0.179,-0.9655,-0.103,0.1587
3377643.0,1320.253294,1.0,-0.91,-0.53,0.29,20.06,-31.5,28.19,-74.69,282.38,190.81,-1.0213688734865523,-0.26922512577583735,10.0849007069601,-154.27134430279997,-8.625427825614649,9.786552516199244,-0.1918,-0.9749,-0.0752,0.0853
3377680.0,1320.275233,1.0,3.69,6.14,-4.35,9.56,-34.88,29.75,-142.88,400.69,193.56,3.418812647600328,3.1979289017290924,2.855163049707005,-152.3835367338065,-4.355527902560735,-6.271288310584378,-0.2289,-0.9711,-0.038,-0.0547
3377715.0,1320.315912,1.0,7.51,9.12,-11.48,9.56,-34.88,29.75,-57.19,277.94,135.38,3.5622894785260164,1.9544169956171717,-6.157536414547577,-147.03240000479883,-2.1773706400327653,-16.74405079259733,-0.2427,-0.9589,-0.019,-0.1456
3377754.0,1320.35647,1.0,8.28,7.8,-11.99,-6.06,-38.75,28.19,-37.69,119.75,67.19,2.0319167294400042,0.431140319708206,-6.58981097270212,-142.45363711540872,-0.43544897228423995,-24.186105170420962,-0.2444,-0.9468,-0.0038,-0.2095
3377788.0,1320.390185,1.0,7.01,9.98,-11.02,-15.0,-39.06,25.0,-39.5,88.56,41.69,-0.11761783583399898,2.6433142185883445,-6.416172072207486,-138.94369485234358,0.7219315974960596,-28.021034543913196,-0.2538,-0.9365,0.0063,-0.2421
3377823.0,1320.41868,1.0,6.75,6.46,-11.13,-15.0,-39.06,25.0,-11.88,48.31,2.19,-0.3376775706652513,-0.5599667628957249,-4.71035420481863,-137.46590815068691,0.5156637559929028,-29.724970780047894,-0.2562,-0.9319,0.0045,-0.2565
3377858.0,1320.468145,1.0,5.74,7.56,-10.05,-17.87,-39.5,21.37,-27.44,28.19,2.13,-1.1502327158618617,0.8251680897892752,-3.9447049268046506,-135.97435612355386,0.5156637559929028,-30.94787313807167,-0.2632,-0.9271,0.0045,-0.2668
3377895.0,1320.477089,1.0,5.95,6.37,-10.06,-19.0,-39.5,20.19,-11.31,13.19,-17.12,-0.8861063373373859,-0.37724433876956154,-3.4694752731283334,-135.24632190274463,0.12605074034902247,-31.399946914402907,-0.2676,-0.9247,0.0011,-0.2706
3377932.0,1320.525958,1.0,5.46,5.79,-8.8,-19.0,-40.56,20.19,-8.63,-15.5,-19.44,-0.4539497708444662,-0.31435921040779563,-2.0453881324218646,-135.24632190274463,-0.3896120513439707,-30.817102104618424,-0.2725,-0.9247,-0.0034,-0.2657
3377967.0,1320.557144,1.0,4.57,5.63,-8.42,-19.0,-40.56,20.19,10.63,-9.75,-29.75,-0.8823739768791898,-0.16953787359871478,-1.269038379253999,-135.5180089054747,-0.9969591404369118,-30.294427058078597,-0.2737,-0.9256,-0.0087,-0.2613
3378003.0,1320.593156,1.0,4.65,5.13,-8.04,-18.25,-41.38,21.0,6.0,-20.37,-25.25,-0.3508813610421617,-0.41232811656872126,-0.7899469912401678,-136.311888173766,-2.0054546535892377,-29.369442547321675,-0.272,-0.9282,-0.0175,-0.2535
3378038.0,1320.649119,1.0,4.52,5.71,-7.73,-17.06,-41.25,20.56,-0.94,-28.31,-25.94,-0.19427157260975303,0.2043183609306524,-0.8097482858341554,-136.7450958533554,-2.4639083675369537,-28.45823232032684,-0.2739,-0.9296,-0.0215,-0.2458
3378073.0,1320.667249,1.0,4.18,5.3,-7.15,-17.06,-41.25,20.56,2.06,-25.94,-29.56,0.07905235115711262,0.1513240594734513,-0.024715711578478405,-137.46590815068691,-3.266301709643329,-27.088940429595656,-0.2754,-0.9319,-0.0285,-0.2342
