TIME,ELAPSED_SECONDS,PSTATE,acc_x,acc_y,acc_z,mag_x,mag_y,mag_z,gyr_x,gyr_y,gyr_z,lin_x,lin_y,lin_z,eul_x,eul_y,eul_z,qua_w,qua_x,qua_y,qua_z
2301974.0,242.592977,1.0,-1.93,1.77,-9.35,18.06,-25.69,35.25,0.06,0.0,-0.5,-0.1547329387071632,0.040741975104577055,0.09816413406067426,-148.51890294966256,-27.466273808985672,7.694875241065197,-0.1133,-0.9625,-0.2374,0.0671
2302009.0,242.615118,1.0,-1.9,1.64,-9.46,18.06,-25.69,35.25,1.69,1.25,0.63,-0.18076487729874058,-0.10042466934177355,0.021536871122908252,-148.51890294966256,-27.4544775660039,7.68339023950128,-0.1127,-0.9625,-0.2373,0.067
2302044.0,242.654019,1.0,-1.88,1.78,-9.57,17.37,-26.5,35.38,-0.25,1.06,-0.56,-0.09241725493703745,-0.01485389165909809,-0.10692344315824798,-148.51890294966256,-27.466273808985672,7.660420468145224,-0.1127,-0.9625,-0.2374,0.0668
2302078.0,242.697092,1.0,-1.85,1.8,-9.43,16.25,-26.87,34.88,-0.81,-0.5,0.25,-0.06948253818282724,0.02252443357123421,0.030041956983241747,-148.51890294966256,-27.466273808985672,7.648935698119245,-0.1128,-0.9625,-0.2374,0.0667
2302115.0,242.724129,1.0,-1.88,1.8,-9.35,16.25,-26.87,34.06,1.06,0.94,0.69,-0.09706994759849619,0.06042981718636167,0.10181483074194198,-148.56117141184754,-27.4544775660039,7.671905315233598,-0.1125,-0.9626,-0.2373,0.0669
2302150.0,242.809911,1.0,-1.85,1.82,-9.51,16.25,-26.87,34.06,1.19,1.44,0.25,-0.05562902600227437,0.032111440196011615,-0.05087881136415895,-148.56117141184754,-27.442681619646773,7.6259663887868285,-0.1122,-0.9626,-0.2372,0.0665
2302187.0,242.814897,1.0,-1.86,1.81,-9.5,17.0,-26.5,35.25,-0.5,-0.63,-0.12,-0.0690785922996967,0.03439029853541728,-0.04117947940572897,-148.60349534227026,-27.442681619646773,7.6259663887868285,-0.112,-0.9627,-0.2372,0.0665
2302222.0,242.832135,1.0,-1.85,1.82,-9.48,16.56,-26.5,35.25,1.75,0.69,0.31,-0.056143150626861704,0.047323188016135914,-0.021875243520193877,-148.60349534227026,-27.442681619646773,7.6259663887868285,-0.1118,-0.9627,-0.2372,0.0665
2302257.0,242.864066,1.0,-1.86,1.81,-9.5,16.56,-26.5,35.25,-0.12,-1.63,0.31,-0.061526040835966245,0.04056532716873368,-0.04120606111963632,-148.60349534227026,-27.442681619646773,7.660420468145224,-0.1116,-0.9627,-0.2372,0.0668
2302291.0,242.900932,1.0,-1.87,1.68,-9.61,17.0,-26.5,36.56,3.31,1.12,0.25,-0.12106536489716335,-0.08450284556381488,-0.12560062342437384,-148.6458749656724,-27.442681619646773,7.660420468145224,-0.1111,-0.9628,-0.2372,0.0668
2302328.0,242.960059,1.0,-1.84,2.01,-9.45,16.56,-25.69,35.25,1.69,0.88,-1.0,0.05224119739939881,0.23324908029844285,-0.025494512965327232,-148.6458749656724,-27.43088596976693,7.671905315233598,-0.1107,-0.9628,-0.2371,0.0669
2302363.0,242.974071,1.0,-1.94,1.83,-9.29,16.56,-25.69,35.25,5.5,0.12,-2.63,-0.12135137318085598,0.18713769012783013,0.143997500341289,-148.6458749656724,-27.489867185412752,7.694875241065197,-0.1093,-0.9628,-0.2376,0.0671
2302396.0,243.015161,1.0,-1.92,1.84,-9.41,17.37,-26.5,34.38,3.38,3.5,-3.06,-0.0831965816683442,0.18423000783547663,0.030186547758606963,-148.6458749656724,-27.607851915171175,7.68339023950128,-0.108,-0.9628,-0.2386,0.067
2302431.0,243.04119,1.0,-2.02,1.73,-9.29,17.37,-26.87,36.56,6.63,4.5,-4.19,-0.2270660475822983,0.19106987038577294,0.14800965496871576,-148.60349534227026,-27.725866499273085,7.660420468145224,-0.1066,-0.9627,-0.2396,0.0668
2302468.0,243.071107,1.0,-1.97,1.57,-9.4,17.0,-26.06,37.0,9.13,8.13,-6.75,-0.25101857017554774,0.06065837418613057,0.07838652499748378,-148.51890294966256,-27.961985822582495,7.557060298129735,-0.104,-0.9625,-0.2416,0.0659
2302500.0,243.112159,1.0,-1.65,1.59,-9.81,17.0,-26.06,37.0,4.0,9.06,-3.13,0.04508143379349594,-0.11018737623648006,-0.26670725597207223,-148.56117141184754,-28.091903034402698,7.338875609975954,-0.1019,-0.9626,-0.2427,0.064
2302537.0,243.151181,1.0,-1.36,1.26,-10.11,16.25,-25.69,35.75,4.56,2.69,-0.88,0.1525635808239093,-0.5337770281254063,-0.45693155996491264,-148.6458749656724,-28.18641141984425,7.201088530206642,-0.0992,-0.9628,-0.2435,0.0628
2302574.0,243.1935,1.0,-1.56,1.67,-9.57,16.56,-24.56,36.06,-1.81,-2.38,-0.12,0.1386136880133082,0.025633294388322708,-0.031415316906274526,-148.6458749656724,-28.17459680285253,7.224052314144023,-0.0994,-0.9628,-0.2434,0.063
2302607.0,243.217468,1.0,-1.63,1.51,-9.6,16.56,-24.56,36.06,0.5,-3.94,-0.12,0.019691846417481007,-0.09346468992252621,-0.04666804941474467,-148.56117141184754,-28.18641141984425,7.3273929502566055,-0.0995,-0.9626,-0.2435,0.0639
2302642.0,243.263072,1.0,-2.06,1.68,-8.95,15.5,-25.69,36.06,0.37,0.0,-0.88,-0.3185697559428995,0.39315969763971315,0.48396590352058233,-148.56117141184754,-28.19822634265853,7.3503583434868105,-0.0995,-0.9626,-0.2436,0.0641
2302679.0,243.285265,1.0,-1.82,1.6,-9.12,17.0,-25.37,36.06,4.0,8.75,-3.44,-0.15452066230338068,0.200710148114702,0.37358905450807,-148.56117141184754,-28.28093937794029,7.189606746883268,-0.0986,-0.9626,-0.2443,0.0627
2302713.0,243.359062,1.0,-1.92,1.8,-9.02,17.0,-25.37,36.06,2.56,11.19,-3.69,-0.17508458526011306,0.4701331714183041,0.4239467547120821,-148.56117141184754,-28.41094741939909,6.994427393261249,-0.0975,-0.9626,-0.2454,0.061
2302748.0,243.379052,1.0,-1.28,1.06,-10.08,16.25,-25.37,36.25,11.38,16.75,-2.81,0.04368728526478027,-0.5880990874417289,-0.39240048935715244,-148.6458749656724,-28.588291341239625,6.546738821065048,-0.0933,-0.9628,-0.2469,0.0571
2302783.0,243.391976,1.0,-1.38,1.31,-9.87,16.25,-25.0,37.38,1.88,5.19,-1.5,0.03595877550743709,-0.2351082630522358,-0.2422718860088935,-148.73080219796103,-28.65924846946876,6.317194167065647,-0.0914,-0.963,-0.2475,0.0551
2302820.0,243.429172,1.0,-1.62,1.76,-9.81,15.88,-24.56,38.19,3.31,5.5,-0.81,0.021823171701156996,0.3008095499128156,-0.2862751143490705,-148.7733502639536,-28.682903338517615,6.168003805570945,-0.0905,-0.9631,-0.2477,0.0538
2302853.0,243.480018,1.0,-1.75,1.89,-10.26,15.88,-24.56,38.19,17.06,3.44,-12.25,0.04158542977405655,0.49618358710451693,-0.7600085304872302,-148.6458749656724,-29.03787686998247,6.2024314124588535,-0.085,-0.9628,-0.2507,0.0541
2302889.0,243.508997,1.0,-0.5,-0.93,-13.87,15.06,-24.19,37.75,45.75,-25.31,-18.44,0.17218847529374987,-2.9689200997556706,-3.7818622279903327,-148.51890294966256,-29.404982305122264,6.833706733841952,-0.0745,-0.9625,-0.2538,0.0596
2302926.0,243.54213,1.0,-0.22,-2.26,-13.2,15.5,-23.06,38.56,20.19,-98.62,9.5,0.38427662131051216,-4.182400610994813,-2.9116775868906757,-148.0159281250563,-29.262840587223423,9.775051491876123,-0.0697,-0.9613,-0.2526,0.0852
2302961.0,243.592006,1.0,-2.23,-2.67,-8.89,15.5,-23.06,38.56,-16.0,-168.25,55.0,-1.4744652173021737,-3.2392686096970857,0.9484904170393733,-147.39783944401512,-27.784885032921764,13.876550175976098,-0.0809,-0.9598,-0.2401,0.1208
2302996.0,243.606936,1.0,-1.65,-4.89,-7.86,18.87,-22.37,36.06,-39.44,-123.06,108.62,-1.4922299885478887,-5.903918340673207,2.6420706063481347,-147.47959058337605,-23.682414211849775,18.12363390787068,-0.1077,-0.96,-0.2052,0.1575
2303031.0,243.65883,1.0,-3.65,2.91,-2.16,22.25,-23.5,34.88,-153.0,-80.81,192.06,-1.5995137118656095,2.8276055751054177,5.818868336319468,-147.6025936178383,-18.64600495316554,19.47099057608733,-0.1512,-0.9603,-0.162,0.1691
2303070.0,243.674928,1.0,-4.11,4.38,1.67,20.75,-29.87,30.25,-145.19,90.19,173.56,-2.9852674882458823,5.265696592918671,8.314665611694675,-147.6436957459843,-13.17264363329991,16.906223928806188,-0.2067,-0.9604,-0.1147,0.147
2303102.0,243.713954,1.0,-1.69,12.02,-3.4,20.75,-29.87,30.25,-168.13,175.19,142.13,1.1819086592908874,8.689442861311077,0.7516417348959212,-146.951724947316,-9.947577287046574,8.820799294692952,-0.2599,-0.9587,-0.0867,0.0769
2303141.0,243.798114,1.0,-1.41,13.39,-4.14,14.0,-36.56,26.56,57.31,162.5,-13.31,1.2945138744370763,9.534722764165899,-0.48087135547656956,-148.0159281250563,-10.384744735841709,4.1720543955147065,-0.2576,-0.9613,-0.0905,0.0364
2303178.0,243.806093,1.0,2.28,11.07,-12.51,8.06,-40.0,26.69,180.5,155.94,-181.19,4.412655914085919,4.111375496664763,-5.937188772971075,-151.0239731545222,-16.581911426258042,-0.5042044866238587,-0.2043,-0.9682,-0.1442,-0.0044
2303213.0,243.88987,1.0,3.42,0.64,-15.01,8.06,-40.0,26.69,230.5,23.12,-198.75,2.415207737838129,-5.0414685815411975,-4.551499815502686,-151.34635737161238,-22.89851361952645,-0.3896120513439707,-0.148,-0.9689,-0.1985,-0.0034
2303248.0,243.908817,1.0,0.92,-3.19,-14.29,7.38,-35.06,31.25,151.63,-42.06,-107.69,-0.5345706604969801,-5.872235898197573,-3.6268037541488383,-149.9885675960275,-27.891137354050414,3.2204467196467967,-0.0901,-0.9659,-0.241,0.0281
2303285.0,243.910812,1.0,0.56,-6.57,-13.08,12.19,-27.19,36.56,67.5,-40.75,-25.31,-1.9749342996612071,-7.924111745123712,-2.35365376112431,-149.20198320614298,-29.298371692491795,5.548399139371832,-0.0659,-0.9641,-0.2529,0.0484
2303322.0,243.927302,1.0,0.09,-3.24,-11.23,15.56,-22.69,38.56,-29.0,-56.0,80.94,-0.5533897145042526,-4.780550756148921,-0.845049126982742,-150.38950981826167,-27.501664319152933,6.730393436549607,-0.0731,-0.9668,-0.2377,0.0587
2303354.0,243.970976,1.0,-1.25,-2.68,-6.25,15.56,-22.69,38.56,-32.88,-66.56,102.75,-1.5639648956270034,-3.246951435653033,3.905911047990924,-152.7702885732456,-23.495113294365407,8.510515201802361,-0.0925,-0.9719,-0.2036,0.0742
2303391.0,244.005131,1.0,-1.96,0.37,-5.39,15.19,-24.19,36.88,-66.62,-33.0,121.5,-1.0815986927316397,-0.36234713486584585,4.17376008258321,-154.47803544959177,-19.994394103683586,8.901253805563371,-0.1127,-0.9753,-0.1736,0.0776
2303430.0,244.029197,1.0,-2.45,2.05,-4.24,14.5,-26.87,36.06,-63.56,-46.25,135.0,-1.2332545653928924,1.2488408506540782,4.796452428379177,-156.13951067883627,-15.112560354905924,9.384074619875278,-0.1371,-0.9784,-0.1315,0.0818
2303465.0,244.079419,1.0,-2.54,2.61,-1.64,14.5,-26.87,36.06,-76.75,7.5,139.0,-1.6860671393244415,2.3118391347462626,7.01991760941314,-156.5307030363511,-11.259541000283246,9.154139652218912,-0.1596,-0.9791,-0.0981,0.0798
2303500.0,244.109857,1.0,0.04,8.59,-4.65,12.56,-31.0,32.0,-158.13,149.5,132.38,1.3895215133388357,5.938219421063596,2.1765136924841446,-155.10823234547746,-6.959986103018455,4.068855279934243,-0.2038,-0.9765,-0.0607,0.0355
2303535.0,244.150059,1.0,0.67,10.72,-5.7,7.0,-35.06,30.25,-86.69,156.75,95.87,0.991074837298296,6.828187714023518,-0.2058882999982785,-152.09692309623645,-4.642227799866185,-2.910938660030132,-0.2361,-0.9705,-0.0405,-0.0254
2303571.0,244.173942,1.0,2.39,9.24,-6.26,0.69,-37.75,28.69,9.94,174.38,-26.19,1.9736192469081544,4.997982147283675,-0.26322097850152915,-150.79583135983617,-5.525454047712893,-7.648935698119245,-0.2385,-0.9677,-0.0482,-0.0667
2303606.0,244.235737,1.0,2.45,11.38,-6.35,0.69,-37.75,28.69,29.37,201.5,-92.75,1.9153886395908073,6.849283467027964,-1.384775393917609,-148.2664446111409,-10.48830635783265,-14.280666944469896,-0.2257,-0.9619,-0.0914,-0.1243
2303641.0,244.267655,1.0,5.11,-1.74,-10.14,-3.0,-38.56,27.06,161.13,197.38,-139.63,0.5521568681083298,-6.53767697299946,0.3772702436367279,-146.27356080042236,-16.0609738361326,-18.855062255560348,-0.1942,-0.957,-0.1397,-0.1638
2303680.0,244.297602,1.0,3.62,4.43,-12.29,-5.25,-37.06,29.19,-26.25,114.62,-33.31,-1.2044606765991956,-0.5423653377516024,-3.6851443328132536,-143.24503868567004,-19.947852442498814,-23.506817731301982,-0.1668,-0.949,-0.1732,-0.2037
2303715.0,244.331179,1.0,6.11,1.63,-16.99,-5.25,-37.06,29.19,22.87,114.62,-14.88,-2.9218482224287823,-4.799570795232301,-7.42924345368098,-140.6780748758918,-21.287284503296153,-26.759019228055674,-0.1597,-0.9417,-0.1847,-0.2314
2303750.0,244.367076,1.0,7.25,4.93,-17.44,-6.75,-36.69,32.0,8.5,-18.19,-9.38,-1.6271580737614322,-2.4049702634878534,-9.495926891045722,-139.83527593342117,-21.613845749720685,-27.74947301162786,-0.1588,-0.9392,-0.1875,-0.2398
2303784.0,244.405101,1.0,8.23,5.67,-19.62,-7.38,-35.56,30.37,57.06,-146.69,-18.5,0.25456757202416425,-2.7449116374722164,-12.038872549340484,-143.57357451370328,-21.730517688284202,-22.60629344975137,-0.1542,-0.9499,-0.1885,-0.196
2303821.0,244.442032,1.0,4.61,1.77,-9.2,-6.25,-36.0,32.0,12.69,-237.31,66.25,1.8292245739364317,-2.37646989838413,-0.19491629134563304,-149.24516700325162,-19.81987998842397,-15.424724640986323,-0.1505,-0.9642,-0.1721,-0.1342
2303856.0,244.482922,1.0,6.83,9.68,-16.34,-6.25,-36.0,32.0,-18.75,-156.5,-10.56,5.7333296288818,1.4776695550095076,-9.488228181859148,-151.6723326334128,-18.437010245615284,-9.17713147157167,-0.1667,-0.9696,-0.1602,-0.08
2303893.0,244.524128,1.0,4.37,5.08,-10.13,-1.06,-34.06,32.75,133.13,-273.38,-86.0,5.03892594059212,0.1497634158729223,-1.2435534499141205,-153.61058909469406,-19.6570420373131,-1.306372069959298,-0.1508,-0.9736,-0.1707,-0.0114
2303930.0,244.550056,1.0,-0.71,-1.78,2.34,5.25,-33.69,33.56,148.31,-222.13,-83.12,-1.6631320537123404,-0.7881916674379474,12.206826174220543,-152.57624392499284,-21.777192841624235,10.672437176186932,-0.1087,-0.9715,-0.1889,0.093
2303965.0,244.596933,1.0,-1.73,-0.33,-1.33,5.25,-33.69,33.56,-1.56,-87.69,-5.63,-1.4097252439431622,-0.029636907126712575,8.108858378414666,-151.06981274894218,-22.010623641883033,14.373061379793722,-0.1019,-0.9683,-0.1909,0.1251
2304000.0,244.612889,1.0,-3.12,-1.62,-2.0,16.19,-27.25,35.69,8.44,-55.75,4.81,-2.9111254170836824,-0.9356230340247961,7.159244034868927,-149.85607839466778,-21.718849470413215,16.906223928806188,-0.1023,-0.9656,-0.1884,0.147
2304034.0,244.65378,1.0,-3.89,1.8,-3.51,19.19,-24.69,35.75,-7.69,-44.63,-3.13,-1.7571388645693242,1.9751860951201348,4.9380462062759625,-148.8159549371668,-21.590514086807826,18.506668239532367,-0.1061,-0.9632,-0.1873,0.1608
2304071.0,244.679711,1.0,-3.94,-1.13,-5.1,21.06,-25.5,35.25,21.62,-17.56,-20.19,-2.4307328765330856,-1.0305476837054255,3.81999741658157,-148.1827256280383,-22.057320868979353,19.36635943259494,-0.1013,-0.9617,-0.1913,0.1682
2304106.0,244.722596,1.0,-3.7,-0.2,-7.43,21.06,-25.5,35.25,-13.13,14.69,12.31,-1.2449596825599782,-0.887473709453177,1.6459290879831219,-148.47668973247264,-21.90556839778225,18.97123252547226,-0.1027,-0.9624,-0.19,0.1648
2304143.0,244.759355,1.0,-3.49,2.62,-9.29,22.06,-25.06,33.56,-20.75,23.19,9.19,0.41312111788524764,1.0401912024344053,-0.39609145533127155,-148.94411093259444,-21.62551192117329,18.146842253651588,-0.1077,-0.9635,-0.1876,0.1577
2304180.0,244.790287,1.0,-2.91,1.49,-10.44,20.56,-25.75,34.5,-13.63,29.31,-1.63,0.5559347978851721,-0.46286401537745314,-1.1093242306295767,-149.59279181341398,-21.602179804976906,16.97573712493423,-0.1089,-0.965,-0.1874,0.1476
2304215.0,244.848113,1.0,-2.94,1.53,-10.99,20.56,-25.75,34.5,10.75,10.38,2.19,0.5928340316139953,-0.5094827753737188,-1.645580137076264,-149.94434113378782,-21.637178319468855,16.50085429879803,-0.1074,-0.9658,-0.1877,0.1435
2304247.0,244.912943,1.0,-2.98,1.31,-10.65,21.0,-25.75,33.56,-0.75,-2.63,4.06,0.3837656379758536,-0.555191541625378,-1.3092614015548296,-150.2106621453537,-21.43888030792546,16.43138337904295,-0.105,-0.9664,-0.186,0.1429
2304282.0,244.931889,1.0,-3.24,1.84,-9.36,20.19,-25.75,34.06,-15.5,-3.5,5.19,0.04978768669614908,0.27927600677502334,-0.26371871709736716,-150.12163073433226,-21.33392533931821,16.489275388774946,-0.108,-0.9662,-0.1851,0.1434
2304319.0,244.967792,1.0,-3.1,2.08,-9.27,20.56,-25.75,34.88,2.06,8.75,0.12,0.19475579541986132,0.4428060945255131,-0.17509799034725582,-150.12163073433226,-21.33392533931821,16.223006993376618,-0.1101,-0.9662,-0.1851,0.1411
2304354.0,244.997712,1.0,-3.1,1.7,-9.2,20.56,-25.75,34.88,-1.63,-1.56,-0.37,0.01903130823411825,0.11951129491052187,-0.04856967587205396,-150.2106621453537,-21.34558610673021,16.15356023236983,-0.1101,-0.9664,-0.1852,0.1405
2304391.0,245.022646,1.0,-3.3,1.45,-8.83,20.19,-25.75,34.06,1.81,8.25,-5.0,-0.35338391980150075,0.07619042772060797,0.27613507036742035,-150.2106621453537,-21.485532797029645,16.04940127991137,-0.1094,-0.9664,-0.1864,0.1396
2304425.0,245.039631,1.0,-2.92,1.56,-9.44,20.56,-26.19,34.88,-0.63,-0.56,-5.69,0.15173665563120742,-0.0930728951775503,-0.195445451630178,-150.1661139822511,-21.648844944741544,15.922114008308865,-0.1089,-0.9663,-0.1878,0.1385
2304460.0,245.081489,1.0,-2.93,0.91,-9.05,20.56,-26.19,34.88,4.38,-4.63,2.5,-0.16614543668814563,-0.5600008207930425,0.2686054008917118,-150.07721211196608,-21.730517688284202,16.10726571114575,-0.1078,-0.9661,-0.1885,0.1401
2304495.0,245.108418,1.0,-2.99,1.64,-9.18,19.75,-25.5,35.38,-8.31,2.69,6.19,0.06457816634218738,0.041657670915897616,0.013989774153003509,-150.12163073433226,-21.532188889890495,15.979969398223387,-0.1102,-0.9662,-0.1868,0.139
