TIME,ELAPSED_SECONDS,PSTATE,acc_x,acc_y,acc_z,mag_x,mag_y,mag_z,gyr_x,gyr_y,gyr_z,lin_x,lin_y,lin_z,eul_x,eul_y,eul_z,qua_w,qua_x,qua_y,qua_z
1764964.0,568.219564,1.0,-4.93,3.97,-7.12,20.5,-37.5,21.25,-6.06,2.0,2.69,-0.38099276441333174,-0.12072943532142077,0.2882221404786769,-138.4562899093435,-7.947565068163919,27.725866499273085,-0.252,-0.935,-0.0693,0.2396
1764997.0,568.224551,1.0,-4.73,4.43,-7.73,20.06,-38.19,20.5,-3.81,0.31,4.13,0.14594447409858002,-0.07584718060160861,-0.27916416721897086,-138.3594636167184,-7.890132207309979,27.65505415801313,-0.2541,-0.9347,-0.0688,0.239
1765031.0,568.235521,1.0,-4.91,4.57,-7.08,20.06,-38.19,20.5,-4.69,-10.0,5.88,-0.23308881304608686,0.33576137592776656,0.062301181137454975,-138.1664535645985,-7.694875241065197,27.784885032921764,-0.2556,-0.9341,-0.0671,0.2401
1765066.0,568.285389,1.0,-4.81,4.32,-7.28,20.5,-38.69,20.87,1.94,0.31,0.94,-0.12224351326959493,0.015117426698343928,0.07105921223197953,-138.1664535645985,-7.6259663887868285,27.82029976108695,-0.2556,-0.9341,-0.0665,0.2404
1765103.0,568.325772,1.0,-4.91,4.77,-7.03,20.87,-37.88,20.06,2.0,-0.94,-1.37,-0.20101331604994854,0.5248974700930974,0.010427447778125654,-138.1343678726239,-7.648935698119245,27.82029976108695,-0.2559,-0.934,-0.0667,0.2404
1765138.0,568.350705,1.0,-4.84,4.24,-7.07,20.87,-37.88,20.06,0.94,-1.75,2.69,-0.24707109674273164,0.05110222069671111,0.2502676072640231,-138.1343678726239,-7.602997386301145,27.879330334175126,-0.2556,-0.934,-0.0663,0.2409
1765171.0,568.409547,1.0,-5.0,4.13,-6.96,21.19,-38.19,20.06,-0.44,-0.5,5.0,-0.4667571405215063,-0.0076926256934791715,0.30504073654982733,-138.07026684249539,-7.4881569438495115,27.867523616250345,-0.2564,-0.9338,-0.0653,0.2408
1765208.0,568.422513,1.0,-4.77,4.69,-7.34,20.5,-37.75,20.87,-3.75,1.12,4.13,0.01910286627780078,0.23885992728066321,-0.1214505744119787,-137.94234469461358,-7.419256300710718,27.82029976108695,-0.2584,-0.9334,-0.0647,0.2404
1765242.0,568.470392,1.0,-4.78,4.88,-7.38,19.37,-37.75,20.06,4.25,-0.12,0.06,0.06946902225691298,0.3935618385436754,-0.24160771635007272,-138.0382513966867,-7.315910364212048,27.8321052726943,-0.2576,-0.9337,-0.0638,0.2405
1765277.0,568.502882,1.0,-4.79,4.29,-7.46,19.37,-37.75,20.06,0.44,0.63,0.0,-0.05207171606149341,-0.13945434261946993,-0.04107263128440408,-138.1023056498993,-7.292945412680463,27.82029976108695,-0.2568,-0.9339,-0.0636,0.2404
1765314.0,568.531806,1.0,-4.98,4.4,-7.13,19.69,-38.19,20.87,-1.06,-2.19,0.69,-0.3212287986134448,0.10861310553009207,0.0658946261982063,-138.0382513966867,-7.224052314144023,27.891137354050414,-0.2573,-0.9337,-0.063,0.241
1765349.0,568.555741,1.0,-4.93,4.51,-7.11,19.37,-38.25,20.06,1.37,-1.63,2.38,-0.24894676750957645,0.20684888461746614,0.055119912578893704,-137.97429037596618,-7.155161830094744,27.973794960271835,-0.2574,-0.9335,-0.0624,0.2417
1765382.0,568.623577,1.0,-4.97,4.54,-7.36,19.37,-38.25,20.06,-1.88,0.0,0.5,-0.1653858289888932,0.08990934228637923,-0.16564481301767842,-137.87852272532075,-7.1207175606295605,28.021034543913196,-0.258,-0.9332,-0.0621,0.2421
1765419.0,568.678412,1.0,-5.16,4.74,-7.52,19.37,-38.25,21.37,-2.69,-3.0,-0.19,-0.1996603312487073,0.15640210278502686,-0.46852757191427585,-137.75115489107054,-7.13219891205416,28.11552830000698,-0.259,-0.9328,-0.0622,0.2429
1765455.0,568.720305,1.0,-5.26,5.43,-7.84,19.69,-38.25,20.87,5.69,-15.94,-6.19,0.07939043587198658,0.5859824447022356,-1.0684785846739686,-137.5291383748013,-7.143680335170353,28.47005431834872,-0.2585,-0.9321,-0.0623,0.2459
1765490.0,568.729276,1.0,-5.77,6.24,-7.47,19.69,-38.25,20.87,15.69,-14.88,-21.12,-0.2060125151793457,1.5393159190183747,-1.4013589821986692,-137.37123052660468,-7.3273929502566055,29.06155185997118,-0.2549,-0.9316,-0.0639,0.2509
1765523.0,568.733269,1.0,-6.01,7.93,-6.28,20.87,-38.69,20.5,26.44,-4.5,-60.63,-0.24219892992900638,3.853213989090866,-1.308091635891305,-137.33971584289498,-8.579461739762628,29.926566557645558,-0.2452,-0.9315,-0.0748,0.2582
1765560.0,568.783133,1.0,-5.06,7.48,-6.0,21.56,-37.75,20.0,37.44,-3.63,-99.37,0.7920184394912773,4.076097161080948,-0.20894477639414433,-137.33971584289498,-11.639588800101585,30.995436476359295,-0.225,-0.9315,-0.1014,0.2672
1765597.0,568.845477,1.0,-4.77,7.24,-3.51,23.75,-35.25,21.25,57.69,4.81,-183.75,0.40567196119799265,5.46010036812145,2.2228953738311255,-136.62090215577362,-15.725436142775802,32.15054762531955,-0.2029,-0.9292,-0.1368,0.2769
1765629.0,568.849467,1.0,-4.33,1.47,-2.12,23.75,-35.25,21.25,77.37,56.88,-211.63,-1.6933234740344727,1.6300623149394,5.347978397190678,-135.8217429117077,-22.75822922439662,32.329469794230796,-0.1581,-0.9266,-0.1973,0.2784
1765666.0,568.899336,1.0,-2.97,-1.27,-6.1,27.19,-31.5,22.87,9.38,134.0,-116.69,-0.3644453951043707,-2.234935789753422,3.2862173786422373,-136.55893204947213,-26.8179170771013,29.68940484166728,-0.1323,-0.929,-0.2319,0.2562
1765705.0,568.92128,1.0,-3.17,1.51,-6.21,30.87,-25.5,27.87,3.88,109.44,-110.19,0.6732083643288154,0.5839084352880581,2.728589429660329,-136.43524351543036,-31.423754097001943,26.111614068361778,-0.1156,-0.9286,-0.2708,0.2259
1765740.0,568.991088,1.0,-2.03,-6.13,-5.87,30.87,-25.5,27.87,29.62,98.62,-93.37,-3.20731731342785,-5.661769988557065,3.991826163660634,-136.0049391257079,-34.59101363133617,23.8463551666527,-0.0961,-0.9272,-0.2973,0.2066
1765773.0,569.023004,1.0,-2.52,-2.01,-5.31,30.56,-21.75,29.06,-7.44,174.75,-5.94,-1.7857508822345582,-1.5401657916831142,4.059861060015547,-137.87852272532075,-36.19078597526285,18.611168175342147,-0.0813,-0.9332,-0.3106,0.1617
1765810.0,569.042949,1.0,-0.32,-3.31,-7.6,28.75,-20.69,31.87,-21.44,214.69,15.88,-1.2117945770457088,-3.837196463905527,2.552273582937433,-141.08884000838947,-36.43197725116238,10.764512919793646,-0.0657,-0.9429,-0.3126,0.0938
1765847.0,569.048933,1.0,0.88,-3.46,-11.82,23.5,-20.69,35.56,-20.56,131.25,56.88,-0.6101203899873002,-4.9646895121123045,-1.48219454486126,-143.53692935464713,-35.335886110848904,5.663127955663873,-0.0583,-0.9498,-0.3035,0.0494
1765881.0,569.098799,1.0,0.63,-3.85,-11.44,23.5,-20.69,35.56,-26.5,81.69,104.81,-1.4996263755040942,-4.961707985224682,-1.112396414556999,-147.31628725286765,-31.900191654183214,1.936689544653667,-0.0584,-0.9596,-0.2748,0.0169
1765918.0,569.157643,1.0,0.54,-1.86,-11.28,16.69,-21.75,36.38,-39.38,58.63,135.44,-0.8191361918124095,-3.2682067187358834,-1.1312401412874262,-150.84131999821054,-28.18641141984425,-0.34377519274259805,-0.0644,-0.9678,-0.2435,-0.003
1765955.0,569.171605,1.0,1.39,0.44,-12.49,12.88,-25.37,38.56,-87.31,64.31,162.88,0.28374179048634296,-1.93068980616393,-2.6158186543660182,-155.6456486519571,-22.174080183171977,-3.656090990936744,-0.0801,-0.9775,-0.1923,-0.0319
1765990.0,569.224465,1.0,1.78,2.83,-14.44,12.88,-25.37,38.56,-41.25,55.13,124.81,0.624173632600534,-0.21632050213826998,-5.000595277792929,-158.1040290229696,-18.28610812832939,-6.076199569788739,-0.0892,-0.9818,-0.1589,-0.053
1766025.0,569.242417,1.0,1.72,3.52,-13.12,6.5,-27.69,37.69,3.13,-9.25,109.31,0.5494969809248427,0.6829589750264993,-3.85771314309544,-161.14943788464134,-13.68032776202412,-7.086273935339353,-0.0944,-0.9865,-0.1191,-0.0618
1766060.0,569.283306,1.0,2.2,3.16,-13.9,1.25,-29.56,36.19,6.25,-32.44,125.94,0.9086685700208694,0.385173326642986,-4.582983870891191,-165.1368197605061,-8.72885661442212,-6.282764679968378,-0.0889,-0.9916,-0.0761,-0.0548
1766096.0,569.35013,1.0,2.59,5.26,-13.56,-0.56,-29.56,37.38,-84.31,-45.06,110.25,1.5595880369009223,2.1025667381684543,-4.7328203571589285,-165.77042087262134,-5.123950007684243,-5.513981585080581,-0.1049,-0.9923,-0.0447,-0.0481
1766131.0,569.359103,1.0,2.13,6.61,-12.89,-0.56,-29.56,37.38,-72.56,-87.0,110.31,1.433219254321257,3.061083365745722,-4.439639032481329,-164.87335484809628,-0.561500886182872,-3.1172748668896637,-0.129,-0.9913,-0.0049,-0.0272
1766168.0,569.379053,1.0,1.52,10.63,-10.85,-2.5,-31.75,34.88,-13.0,-114.0,9.88,1.2736290874346563,7.320526482275261,-3.5281751195861926,-164.19211217641143,1.2490727279396536,-0.22918327084134968,-0.1368,-0.9905,0.0109,-0.002
1766205.0,569.416949,1.0,0.81,7.75,-10.47,-1.37,-32.69,34.0,23.75,-103.25,-88.31,1.692857073996886,4.76469833945891,-2.225448098876031,-164.3596576972689,-0.5500415954991054,4.149120969117045,-0.1309,-0.9907,-0.0048,0.0362
1766240.0,569.473797,1.0,-0.5,3.05,-8.97,-1.37,-32.69,34.0,53.63,-98.62,-60.19,0.7646197752866655,0.850510779599941,0.3882962153397056,-164.3596576972689,-2.3951379752687134,7.304427851725569,-0.1182,-0.9907,-0.0209,0.0637
1766275.0,569.507711,1.0,-1.13,5.31,-9.44,2.75,-32.19,34.5,36.38,-92.0,-83.19,1.1335170192917625,3.140210651537363,-0.5587161889461054,-162.68057392822612,-4.321125783265932,11.121372822035768,-0.1083,-0.9886,-0.0377,0.0969
1766309.0,569.539622,1.0,-1.4,1.64,-8.67,8.0,-30.69,35.69,37.06,-90.37,-91.44,0.8737426558139194,-0.05995120053505445,0.915560099151751,-160.80272323312002,-6.707435672786218,14.061267443693245,-0.0972,-0.986,-0.0585,0.1224
1766346.0,569.555579,1.0,-2.0,-0.5,-8.31,12.5,-27.69,35.25,38.94,-109.44,-49.5,0.5128489129107636,-1.8101388145109858,1.4540166748308039,-157.44996317553054,-8.855279263547427,18.25128911402984,-0.084,-0.9807,-0.0772,0.1586
1766381.0,569.597467,1.0,-3.92,1.39,-4.37,12.5,-27.69,35.25,-3.5,-95.87,-18.25,-1.7385313968120293,1.0143910237372018,4.119478520849734,-154.0662728728033,-9.441564242690683,22.104021805228786,-0.0827,-0.9745,-0.0823,0.1917
1766418.0,569.651323,1.0,-2.4,-1.59,-6.09,16.19,-26.87,35.75,11.81,-54.13,-28.31,-0.12428073886955793,-2.367030866704517,3.501261893466501,-152.3835367338065,-10.212160888414617,23.858067126010045,-0.079,-0.9711,-0.089,0.2067
1766455.0,569.669276,1.0,-2.62,-1.61,-4.67,20.25,-26.19,33.25,8.0,-56.5,-7.69,-0.682166314211065,-2.088369672635037,4.664786404942861,-150.43438697810745,-10.453784866884499,26.04103972629063,-0.0778,-0.9669,-0.0911,0.2253
1766488.0,569.724638,1.0,-4.07,0.39,-1.55,20.25,-26.19,33.25,-10.94,-20.19,6.69,-2.8004975975957604,0.615560042827267,6.505468538835698,-149.46197984083236,-10.269686237501054,27.05358083343023,-0.0819,-0.9647,-0.0895,0.2339
1766522.0,569.749571,1.0,-3.87,-1.01,-2.97,21.0,-25.06,32.88,4.56,11.88,7.56,-2.3186957981445984,-1.0680291701727147,5.528699148561104,-149.76806738505078,-9.993587967554062,26.782577502705934,-0.0821,-0.9654,-0.0871,0.2316
1766559.0,569.769519,1.0,-4.19,-1.28,-3.38,21.87,-26.56,32.0,-4.69,31.69,21.31,-2.5430628783068694,-1.4021617417953296,5.096482949159545,-150.61456567249238,-9.51055493545105,25.93519704664329,-0.0836,-0.9673,-0.0829,0.2244
1766596.0,569.819391,1.0,-4.05,0.12,-2.71,21.87,-25.37,33.25,-14.31,71.19,38.94,-2.586383107825508,-0.0007812655603980645,5.674868083056781,-152.52794284369597,-8.590953131273462,23.834643460050298,-0.0898,-0.9714,-0.0749,0.2065
1766629.0,569.851591,1.0,-1.85,1.25,-5.96,21.87,-25.37,33.25,-17.56,102.75,35.69,0.53521032408557,0.16589697316169486,3.4668843810446726,-155.16145880106285,-7.8556734445593195,20.914285524438075,-0.0934,-0.9766,-0.0685,0.1815
1766668.0,569.8895,1.0,-1.8,-0.04,-6.09,18.0,-27.69,34.88,3.5,34.38,52.63,0.11033651001768008,-1.1396744306692015,3.560157540496351,-157.98368078519854,-6.11062569758793,18.077219464225532,-0.0948,-0.9816,-0.0533,0.1571
1766703.0,569.919419,1.0,-3.23,0.29,-0.1,15.38,-28.75,34.0,12.06,75.31,73.31,-3.0326278984608757,0.4135764150744714,8.730024448394003,-159.79792218460952,-4.263789782102698,16.43138337904295,-0.0946,-0.9845,-0.0372,0.1429
1766737.0,569.960309,1.0,0.79,1.41,-5.79,15.38,-28.75,34.0,-19.0,178.5,57.5,1.887687643262367,0.22612377128503364,4.103860910305871,-164.44410289964105,-2.4409848060552455,10.51132121524803,-0.0971,-0.9908,-0.0213,0.0916
1766772.0,569.982526,1.0,2.82,3.27,-11.45,11.25,-29.56,34.88,-44.44,170.13,49.19,3.6223631145701303,0.6138195211153928,-1.865946586094264,-166.62885834304856,-1.2719924264668117,3.7363468303015948,-0.111,-0.9932,-0.0111,0.0326
1766809.0,570.031703,1.0,2.63,3.72,-12.36,4.88,-31.06,34.88,4.56,129.81,43.63,2.5199066163846275,0.8337765207601435,-3.0960546528288084,-166.92746455946425,-0.1718874029970642,-0.5271230305187238,-0.1132,-0.9935,-0.0015,-0.0046
1766844.0,570.055674,1.0,2.87,4.04,-11.41,4.88,-31.06,34.88,-1.44,126.56,45.19,1.6537744120730182,1.395020867171736,-2.443474365659638,-165.86324083896642,1.0542572154525014,-5.605762844556932,-0.1127,-0.9924,0.0092,-0.0489
1766879.0,570.109493,1.0,4.13,5.24,-14.47,-0.25,-31.87,35.75,-24.19,123.0,37.06,1.510280933063163,1.7391235177993267,-5.960083995760288,-163.4590136286695,1.856464464018338,-9.407070184120801,-0.1176,-0.9896,0.0162,-0.082
1766916.0,570.149889,1.0,3.91,3.75,-14.26,-5.5,-31.37,35.38,-6.69,90.5,31.37,0.2874795402296004,0.22946764515691231,-5.443363118478798,-160.3946831522595,2.7733864743736323,-13.51876311679545,-0.121,-0.9854,0.0242,-0.1177
1766950.0,570.168956,1.0,2.63,2.83,-10.69,-9.56,-32.19,34.5,-7.88,72.0,31.81,-0.5398750056670523,0.14385616019471445,-1.5463117449998514,-158.53049466710758,3.4726557451993814,-15.771709071970362,-0.1226,-0.9825,0.0303,-0.1372
1766985.0,570.208889,1.0,3.6,2.72,-12.01,-9.56,-32.19,34.5,-21.81,79.69,34.81,-0.6451366838034829,-0.3699554539423255,-3.0013721588389437,-155.75453926974473,4.401398006442045,-18.83183055191492,-0.1263,-0.9777,0.0384,-0.1636
1767020.0,570.235042,1.0,4.55,4.37,-12.31,-12.56,-32.19,34.0,-27.25,60.63,27.12,-0.5664700938458318,1.0152882892459272,-3.9768111517752818,-153.5103719816942,5.146891353190199,-20.92593832998922,-0.132,-0.9734,0.0449,-0.1816
1767057.0,570.276233,1.0,4.3,3.87,-11.94,-15.88,-34.06,32.38,-22.19,39.56,11.25,-1.0608213091631487,0.3737620473661697,-3.413238807473915,-151.2538864729402,5.777862453568277,-22.82836708787642,-0.1411,-0.9687,0.0504,-0.1979
1767094.0,570.356433,1.0,4.14,3.26,-11.08,-15.88,-34.06,32.38,-30.31,28.56,-1.44,-1.0326159005188775,-0.20962048545500117,-2.417234965675732,-149.72415559222358,5.571344453661866,-23.998630403703217,-0.1502,-0.9653,0.0486,-0.2079
1767129.0,570.36241,1.0,4.36,3.5,-10.91,-15.75,-34.06,31.56,-5.38,20.06,21.06,-0.9639023268347364,0.006317599106253,-2.4145836689985636,-148.90133503664836,5.92702598542953,-24.702001461626935,-0.1531,-0.9634,0.0517,-0.2139
1767163.0,570.392335,1.0,4.36,4.02,-9.78,-16.56,-34.06,29.37,-18.19,10.13,14.94,-0.7297948657204951,0.8056298522979265,-1.579163980346527,-148.1827256280383,6.317194167065647,-25.2653784326321,-0.1555,-0.9617,0.0551,-0.2187
1767200.0,570.421307,1.0,4.4,3.99,-9.71,-18.5,-34.38,29.06,-18.87,0.37,0.06,-0.6909153180898362,0.6879642178464385,-1.5341410331771748,-147.72605283657722,6.454917855397503,-25.39457261600438,-0.1606,-0.9606,0.0563,-0.2198
1767233.0,570.46228,1.0,4.32,2.79,-9.36,-18.5,-34.38,29.06,5.06,-5.06,0.37,-0.3758083016409064,-0.32426064120052517,-0.8615140012227993,-147.84997349806363,6.512305468988995,-25.218406831432247,-0.1606,-0.9609,0.0568,-0.2183
1767270.0,570.478949,1.0,4.08,2.54,-8.43,-18.75,-35.19,28.69,-3.31,-7.44,-2.13,-0.13227483261256934,-0.26106239585686974,0.10730724937370972,-148.0575479662478,6.454917855397503,-24.983613243143306,-0.1608,-0.9614,0.0563,-0.2163
1767307.0,570.541407,1.0,4.15,3.22,-8.27,-18.5,-34.06,29.06,-12.81,-5.63,1.56,-0.08831622346588341,0.37975905691057965,0.01727906498241083,-147.97436096195162,6.48935022815341,-24.74892618800895,-0.1639,-0.9612,0.0566,-0.2143
1767342.0,570.551603,1.0,4.11,2.99,-8.09,-18.5,-34.06,29.06,-7.88,-5.31,-2.38,0.014986561841638046,0.16823801057136883,0.2540706951858702,-147.89138385145154,6.569694717687417,-24.57298013035922,-0.1671,-0.961,0.0573,-0.2128
1767374.0,570.593574,1.0,3.85,2.78,-7.98,-18.5,-34.75,29.06,-4.81,-6.88,-0.06,-0.09549988367845419,-0.02840832113623,0.5211035573016716,-147.97436096195162,6.512305468988995,-24.315032171134934,-0.1687,-0.9612,0.0568,-0.2106
1767411.0,570.629779,1.0,3.99,2.96,-8.11,-19.19,-34.75,28.56,-5.81,-8.81,-1.37,-0.012665215139435304,0.07232360277930028,0.2962131599381035,-148.0575479662478,6.523783187455053,-24.080642561887807,-0.1704,-0.9614,0.0569,-0.2086
1767446.0,570.654719,1.0,4.0,3.23,-8.02,-19.19,-35.56,28.75,-5.69,-7.19,-1.31,0.029453444379563987,0.32909355940099405,0.28592891786682983,-148.0992206918234,6.581172764918963,-23.77608871350926,-0.1722,-0.9615,0.0574,-0.206
1767481.0,570.708482,1.0,3.95,3.55,-8.24,-19.19,-35.56,28.75,-14.5,-2.06,-3.13,-0.13129801892935222,0.4750103322090594,0.01585197253973547,-147.93284627196644,6.546738821065048,-23.635582985023575,-0.176,-0.9611,0.0571,-0.2048
