TIME,ELAPSED_SECONDS,PSTATE,acc_x,acc_y,acc_z,mag_x,mag_y,mag_z,gyr_x,gyr_y,gyr_z,lin_x,lin_y,lin_z,eul_x,eul_y,eul_z,qua_w,qua_x,qua_y,qua_z
2426058.0,719.18572,1.0,-3.41,4.21,-7.66,3.69,-37.38,12.69,7.94,18.75,6.0,-0.44591094597282144,-0.5668654124602616,0.4520988599175464,-143.24503868567004,6.948505812979428,20.54151049721856,-0.2527,-0.949,0.0606,0.1783
2426093.0,719.276122,1.0,-3.03,5.17,-8.28,3.69,-37.38,12.69,-2.13,8.69,6.63,0.03597419372554378,0.040256735678786196,-0.4141760552960374,-143.42720670361226,7.063311874799694,20.122400879873982,-0.2533,-0.9495,0.0616,0.1747
2426130.0,719.289706,1.0,-2.86,4.99,-8.13,2.88,-37.75,12.69,2.19,-5.63,-1.81,0.1412783978619896,0.0025506518996865624,-0.15109241022896036,-143.46374555627924,7.201088530206642,20.14567756040377,-0.2524,-0.9496,0.0628,0.1749
2426165.0,719.295313,1.0,-2.82,4.74,-8.29,4.38,-38.19,12.19,-4.19,-9.31,-2.63,0.2828365768478738,-0.27352818729553735,-0.14268594776816101,-143.35423456188457,7.1207175606295605,20.355205608113067,-0.2523,-0.9493,0.0621,0.1767
2426198.0,719.297727,1.0,-3.25,5.68,-7.84,4.38,-38.19,12.19,-19.25,-27.06,-3.38,-0.1644052147559183,0.5671058614317703,-0.38853817223550813,-142.45363711540872,7.155161830094744,21.15904057291141,-0.2566,-0.9468,0.0624,0.1836
2426232.0,719.300675,1.0,-3.84,5.7,-7.46,4.75,-38.19,12.69,-4.31,-13.06,-12.25,-0.728615872405191,0.6046984348725645,-0.29239246517173,-141.95828650840244,6.89110540785609,21.800531789289547,-0.2587,-0.9454,0.0601,0.1891
2426269.0,719.3037,1.0,-3.66,5.66,-8.14,4.06,-38.5,11.38,-7.38,-3.75,-11.44,-0.2298807491843018,0.30023387852839845,-0.7549698785668415,-141.81789497427926,6.46639524800481,22.057320868979353,-0.2591,-0.945,0.0564,0.1913
2426304.0,719.305712,1.0,-3.51,5.4,-9.21,4.06,-38.5,11.38,-9.19,-21.62,-12.69,0.44355976793638785,-0.4118725565331526,-1.4155519109194028,-141.43435545776623,6.17947961245989,22.582922295565638,-0.2604,-0.9439,0.0539,0.1958
2426339.0,719.308666,1.0,-3.8,5.19,-8.65,4.75,-37.75,11.38,-0.94,-36.13,-14.94,0.22206644976640022,-0.3782546949693734,-0.9639678967421279,-140.57602612666605,5.984399237389445,23.998630403703217,-0.2603,-0.9414,0.0522,0.2079
2426374.0,719.324616,1.0,-4.78,4.77,-7.09,4.75,-37.38,12.19,1.06,-21.0,-8.81,-1.1821536443020255,-0.18670072230822027,0.08877700219060003,-140.17034192327273,5.904077101832591,24.8662564695287,-0.259,-0.9402,0.0515,0.2153
2426411.0,719.368495,1.0,-4.69,4.07,-7.46,6.25,-37.0,11.75,11.63,5.94,5.25,-0.941109012078176,-0.9015983258149036,0.18822838903528805,-140.305127821115,5.949975106955118,24.960139762282665,-0.2567,-0.9406,0.0519,0.2161
2426445.0,719.375476,1.0,-2.83,4.05,-9.1,6.25,-37.0,11.75,14.69,-16.69,30.69,1.447015393986269,-1.2568708999705531,-0.3691950258626697,-140.17034192327273,7.109236280779952,25.136216886638973,-0.2544,-0.9402,0.062,0.2176
2426482.0,719.422959,1.0,-2.46,5.6,-7.93,5.19,-37.75,13.0,0.19,-31.37,35.0,1.281808777592769,0.6503655095009477,-0.10447965114157398,-139.40365501423122,8.510515201802361,25.735333308776625,-0.2553,-0.9379,0.0742,0.2227
2426517.0,719.425343,1.0,-3.05,5.55,-6.16,4.69,-38.19,11.5,1.06,-15.5,23.87,-0.05107223265851757,1.1874597841529844,1.0523407246733267,-138.7806141249359,9.648546712798435,26.1469050177391,-0.2563,-0.936,0.0841,0.2262
2426552.0,719.430543,1.0,-3.81,2.92,-6.23,4.69,-38.19,11.5,7.56,1.19,10.44,-0.5874700066180085,-1.2923935319311863,2.07101829018168,-138.81318085103794,10.039600263356236,26.1469050177391,-0.2548,-0.9361,0.0875,0.2262
2426585.0,719.433219,1.0,-4.12,3.58,-6.08,4.75,-38.19,12.69,-16.69,6.0,16.31,-0.997533504247349,-0.8586525195611974,1.7428517164021748,-138.39171512082905,10.453784866884499,25.876405289927124,-0.2604,-0.9348,0.0911,0.2239
2426621.0,719.435315,1.0,-3.89,4.88,-6.22,3.69,-38.06,12.69,-14.75,13.56,21.62,-0.8572491932349375,0.13088136220606383,1.0383608915293454,-138.00625925895054,10.948685380949465,25.512050354420897,-0.2656,-0.9336,0.0954,0.2208
2426658.0,719.465235,1.0,-3.68,5.16,-6.88,3.25,-38.19,11.88,-13.75,14.13,18.25,-0.4910095675527595,-0.003951617325729656,0.465274620041642,-137.7829624670443,11.37469368630907,24.819321185763364,-0.2715,-0.9329,0.0991,0.2149
2426693.0,719.473215,1.0,-3.78,5.61,-6.9,3.25,-38.19,11.88,-10.13,0.88,10.5,-0.6272355822582265,0.24931215719775893,0.1674114941520113,-137.46590815068691,11.651107384541652,24.66681067830264,-0.275,-0.9319,0.1015,0.2136
2426728.0,719.477218,1.0,-3.56,4.93,-7.4,2.19,-38.19,11.0,2.19,1.31,-4.31,-0.169686089635384,-0.4744585128331668,0.2418919920530982,-137.56078717941855,11.628070333672753,24.584708032462927,-0.2747,-0.9322,0.1013,0.2129
2426765.0,719.481392,1.0,-4.34,6.33,-6.44,2.56,-38.19,12.19,-6.06,-2.31,-1.63,-1.382560468962865,0.8876010672683129,-0.07660811132368117,-137.46590815068691,11.593515641253692,24.655080942437504,-0.2753,-0.9319,0.101,0.2135
2426798.0,719.486379,1.0,-4.4,5.92,-6.24,2.56,-38.19,12.19,5.5,2.88,-9.63,-1.4806655684619445,0.6606314967154361,0.28219749605423416,-137.62415242586073,11.2825706212041,24.678540676695548,-0.2744,-0.9324,0.0983,0.2137
2426832.0,719.531273,1.0,-3.73,5.48,-7.24,1.75,-38.38,10.19,-1.81,14.69,-24.56,-0.3963904499568769,0.06190465366753803,-0.0015069331366905914,-137.91042216197232,10.62640189942489,24.549525110224607,-0.2742,-0.9333,0.0926,0.2126
2426871.0,719.572035,1.0,-3.44,4.92,-7.27,2.56,-38.19,10.19,19.87,12.25,-24.37,-0.11541082094836863,-0.20099608924030343,0.3811961162595434,-138.84577222800962,9.56804981789979,24.24470448957822,-0.2694,-0.9362,0.0834,0.21
2426904.0,719.597966,1.0,-3.48,4.45,-7.5,2.56,-38.19,10.19,8.88,10.94,-17.75,-0.051757833589396895,-0.6192557186275166,0.4377256497018678,-139.43670037409964,9.027691221695425,24.068925773800885,-0.2654,-0.938,0.0787,0.2085
2426939.0,719.701952,1.0,-3.4,5.16,-8.17,4.06,-38.19,11.38,-22.87,9.5,-11.94,0.2761011692025295,-0.35059850235657947,-0.42737896392766217,-139.46977154097462,8.303694005010767,23.811220804555614,-0.2686,-0.9381,0.0724,0.2063
2426974.0,719.714824,1.0,-3.68,5.98,-7.53,4.06,-38.19,11.0,-23.81,6.13,-0.44,-0.2542045584644146,0.47225435179260883,-0.4751813480463625,-139.0746070515941,7.947565068163919,23.694122645249475,-0.2744,-0.9369,0.0693,0.2053
2427011.0,719.720957,1.0,-3.6,5.82,-7.83,4.38,-38.19,11.0,16.81,11.56,1.37,-0.12001810868529517,0.20028400296755014,-0.5898293065606062,-139.23881312164076,7.9935127959191385,23.307876019955895,-0.2748,-0.9374,0.0697,0.202
2427045.0,719.732082,1.0,-3.22,4.18,-8.21,4.38,-38.19,11.0,11.63,7.75,0.56,0.355650763730333,-1.2068865446566392,0.12874540227923426,-139.7685838910077,8.004999928704901,22.99205586322248,-0.2716,-0.939,0.0698,0.1993
2427082.0,719.828902,1.0,-3.13,4.94,-7.88,4.38,-38.88,12.19,-14.56,1.75,18.5,0.2384874405668962,-0.4726803893122948,0.007946157641487872,-139.43670037409964,8.476043091817116,22.769918267605057,-0.2751,-0.938,0.0739,0.1974
2427117.0,719.832391,1.0,-3.12,5.31,-7.17,3.25,-37.75,11.0,4.25,5.5,7.06,-0.08224189971221496,0.1399907421053845,0.35609240470137493,-139.27173038736439,8.76333445653462,22.653038617520366,-0.2769,-0.9375,0.0764,0.1964
2427150.0,719.866475,1.0,-3.22,5.13,-7.18,3.25,-37.75,11.0,-1.44,21.69,8.88,-0.2698090261242003,-0.05741489721166092,0.41720876960720865,-139.5691405181039,8.92424161449454,22.010623641883033,-0.2774,-0.9384,0.0778,0.1909
2427185.0,719.99041,1.0,-2.73,5.43,-8.4,2.56,-38.88,11.0,-6.63,1.06,9.94,0.5970532431536786,-0.3297346739321326,-0.5390062126163144,-139.5028685781741,9.142643881088318,21.695513718287582,-0.2792,-0.9382,0.0797,0.1882
2427222.0,720.060111,1.0,-3.21,5.69,-7.16,2.88,-38.88,9.75,-4.69,-1.75,11.06,-0.34704450805812104,0.3187177551293573,0.1255457705232832,-139.1730548258568,9.51055493545105,21.777192841624235,-0.2814,-0.9372,0.0829,0.1889
2427256.0,720.091025,1.0,-3.11,5.23,-7.43,2.88,-38.88,9.75,3.13,11.38,4.88,-0.1678213430479738,-0.18757518080924904,0.20630877958695137,-139.2059212883253,9.637046865121436,21.532188889890495,-0.282,-0.9373,0.084,0.1868
2427291.0,720.097075,1.0,-2.72,5.25,-8.23,2.88,-37.75,11.0,-4.81,2.81,9.06,0.42417956138385216,-0.5039089165579365,-0.30571606850828204,-139.27173038736439,9.798053639345571,21.065789103644565,-0.2834,-0.9375,0.0854,0.1828
2427326.0,720.105659,1.0,-3.07,5.84,-6.94,2.19,-38.5,10.19,-2.38,-6.25,7.5,-0.4314717841552147,0.510758047776738,0.25431738874167564,-139.1073977684417,10.039600263356236,21.15904057291141,-0.2842,-0.937,0.0875,0.1836
2427363.0,720.11177,1.0,-3.03,5.52,-7.2,1.75,-38.19,10.5,-2.0,8.5,6.38,-0.31421210483000506,0.10025829199598979,0.2472295663092421,-139.0746070515941,10.22366575133618,20.937591354374124,-0.2852,-0.9369,0.0891,0.1817
2427396.0,720.117863,1.0,-2.86,5.41,-7.61,1.75,-38.19,10.5,0.12,10.81,2.38,-0.05265318895911575,-0.16966320866331838,0.043031713866598764,-139.2059212883253,10.212160888414617,20.54151049721856,-0.2861,-0.9373,0.089,0.1783
2427432.0,720.149781,1.0,-3.16,5.36,-7.45,1.37,-38.88,11.0,3.44,-3.88,3.38,-0.3850634401091835,-0.20002784418707048,0.10977344057937621,-139.2059212883253,10.338720083250598,20.599742008899195,-0.2853,-0.9373,0.0901,0.1788
2427467.0,720.206374,1.0,-3.13,5.6,-7.51,2.56,-38.5,10.19,-3.38,-2.44,5.81,-0.34005393526136785,-0.03705994348085054,-0.06451963088480817,-139.1073977684417,10.396251161173769,20.669626923426364,-0.2858,-0.937,0.0906,0.1794
2427502.0,720.211758,1.0,-3.17,5.83,-7.04,2.56,-38.5,10.19,-1.44,6.31,3.94,-0.5925473992034944,0.340460844120158,0.156138407689566,-138.9763854221543,10.51132121524803,20.56480245757989,-0.2874,-0.9366,0.0916,0.1785
2427535.0,720.235127,1.0,-2.83,5.91,-7.72,1.37,-38.5,10.56,0.25,-0.37,-0.06,-0.034348196278198406,0.158569006401149,-0.31802659096434915,-139.0091009386789,10.51132121524803,20.49492914898236,-0.2872,-0.9367,0.0916,0.1779
2427572.0,720.329551,1.0,-3.04,5.42,-7.23,1.0,-38.5,10.56,2.13,-5.75,0.0,-0.36539950078762673,-0.033014967671866374,0.28004025588148806,-139.04184146178912,10.591876570929834,20.64633108966224,-0.2861,-0.9368,0.0923,0.1792
2427607.0,720.348857,1.0,-3.2,5.25,-7.16,1.0,-38.5,10.56,1.75,1.44,2.81,-0.5300624365872786,-0.1770875168404781,0.38562172147867635,-139.04184146178912,10.672437176186932,20.657978898652154,-0.2857,-0.9368,0.093,0.1793
2427641.0,720.351889,1.0,-3.11,5.39,-7.93,1.06,-38.5,10.19,4.63,-7.38,2.69,-0.15699939827251486,-0.4213658621913263,-0.26344940363658154,-139.0091009386789,10.822063795614435,20.704572293778334,-0.2853,-0.9367,0.0943,0.1797
2427676.0,720.38987,1.0,-3.46,4.98,-7.89,1.75,-38.19,10.56,5.81,-15.13,6.06,-0.41131837587663167,-0.8135541016347826,-0.10259048135776361,-138.84577222800962,11.201968941881601,21.112413070583102,-0.2835,-0.9362,0.0976,0.1832
2427713.0,720.437615,1.0,-4.17,5.9,-7.21,1.06,-38.5,11.38,-4.06,-21.81,7.19,-1.3348928584939626,0.044793023819061084,-0.3125918017042668,-138.4239905330992,11.593515641253692,21.62551192117329,-0.2838,-0.9349,0.101,0.1876
2427746.0,720.49506,1.0,-4.09,6.33,-7.93,1.06,-38.5,11.38,2.75,-31.62,4.44,-0.8411382944066572,0.07179755971129109,-1.1006517506669447,-137.81479293008655,12.088902226339817,22.68809999960854,-0.2824,-0.933,0.1053,0.1967
2427783.0,720.508973,1.0,-4.2,7.48,-7.79,1.37,-38.5,11.38,32.0,-47.44,-26.87,-0.8684352581181158,1.211871683743521,-1.6847244706452713,-137.62415242586073,12.146519858742266,24.104076904803392,-0.2753,-0.9324,0.1058,0.2088
2427820.0,720.539075,1.0,-4.71,8.67,-5.93,2.19,-38.5,11.75,63.56,-38.25,-78.87,-1.8874639775958975,3.557404809771829,-0.9776093975057059,-139.1073977684417,10.6148933492606,26.111614068361778,-0.2501,-0.937,0.0925,0.2259
2427854.0,720.548439,1.0,-3.69,5.71,-5.41,2.19,-38.5,11.75,131.06,19.87,-138.88,-0.9271012069774183,2.276737887340414,1.473268456810601,-142.48926046846375,7.9016186202083185,26.641245110498456,-0.2134,-0.9469,0.0689,0.2304
2427889.0,720.598122,1.0,-2.84,4.3,-7.5,3.69,-37.75,12.69,124.25,46.44,-144.75,0.7915001537499549,1.4721938243418529,0.8617199918789993,-147.89138385145154,3.35801326652208,25.711825174606215,-0.1616,-0.961,0.0293,0.2225
2427924.0,720.624247,1.0,-2.72,1.1,-6.9,8.19,-35.88,16.37,163.69,94.62,-139.44,0.3672967200969497,-0.635889225177149,2.3448045169636735,-152.28767595523587,-0.03437746822351143,24.0923596055089,-0.1174,-0.9709,-0.0003,0.2087
2427963.0,720.665236,1.0,-2.5,-0.44,-4.77,11.56,-32.38,20.56,123.19,276.38,-118.69,-1.0566245792016047,-0.906674987852894,4.585731980625536,-161.14943788464134,-4.321125783265932,16.97573712493423,-0.0595,-0.9865,-0.0377,0.1476
2427998.0,720.779769,1.0,1.09,-0.72,-10.07,11.56,-32.38,20.56,25.25,227.31,-80.5,2.236185691501816,-1.6223039970466033,0.035314201129450495,-168.53606406960452,-7.694875241065197,7.499640647274436,-0.034,-0.995,-0.0671,0.0654
2428035.0,720.784464,1.0,1.3,-2.64,-7.85,9.25,-27.87,26.37,9.63,250.75,-24.94,0.9290116638919783,-3.1979781687176554,2.113018025388924,-170.40978378389514,-9.09666171745326,0.687553479519944,-0.0244,-0.9965,-0.0793,0.006
2428071.0,720.802345,1.0,3.58,-1.56,-12.45,5.56,-27.19,29.25,-31.81,203.75,18.81,1.6092774953724143,-2.658481295590632,-2.8659662706791753,-167.97602060615887,-8.820799294692952,-7.4651897628112485,-0.0276,-0.9945,-0.0769,-0.0651
2428106.0,720.871258,1.0,4.28,-3.4,-13.55,5.56,-27.19,29.25,9.56,9.56,68.87,1.5981752106340394,-4.483267820653792,-4.007366274943543,-167.97602060615887,-7.3503583434868105,-9.06217605835773,-0.0256,-0.9945,-0.0641,-0.079
2428139.0,720.898103,1.0,2.25,-2.37,-9.8,-1.19,-27.19,28.5,-82.56,-141.31,143.13,1.3217507895366285,-3.3118876014173124,0.11109558749023485,-172.57231796598282,-1.6960169933572922,-4.951896402998163,-0.0455,-0.9979,-0.0148,-0.0432
2428176.0,720.903238,1.0,0.73,4.03,-9.55,-1.19,-27.87,28.06,-74.0,-65.81,84.94,0.2548663779564903,2.567691743051416,-0.2590492922525254,-170.97471906367116,1.7877008349543104,-2.165909426065293,-0.0751,-0.9969,0.0156,-0.0189
2428213.0,720.909223,1.0,1.36,-0.2,-10.44,-2.0,-30.06,24.75,28.37,-129.19,107.44,1.7002275563243627,-1.413008329218763,-0.4887778064718482,-170.40978378389514,5.674601147870104,1.432431792389882,-0.0656,-0.9965,0.0495,0.0125
2428248.0,720.935055,1.0,-0.03,0.1,-6.67,-2.0,-30.06,24.75,-78.56,-62.31,158.25,0.534501835399027,-0.9789411073694957,3.229737191070778,-164.44410289964105,11.455307417011953,4.080321683767285,-0.0845,-0.9908,0.0998,0.0356
2428284.0,721.019801,1.0,-1.27,4.68,-3.61,-2.0,-30.5,26.06,-185.06,118.25,141.75,-2.154899735139349,3.110413635031056,5.09187172838327,-158.3467074683401,15.390034075857239,2.3951379752687134,-0.1301,-0.9822,0.1339,0.0209
2428321.0,721.032076,1.0,0.39,7.31,-3.82,-5.75,-31.19,22.25,-149.0,357.38,106.0,-2.3057512992063858,4.903725938905749,3.5762741796893973,-149.37507492345586,18.12363390787068,-7.717845476549469,-0.2009,-0.9645,0.1575,-0.0673
2428356.0,721.050103,1.0,4.48,8.04,-6.41,-5.75,-31.19,22.25,-82.37,420.31,47.19,-0.4886854743843312,4.455767252031401,-0.4747616104185983,-141.50381639674873,17.78719661804402,-19.029325032716933,-0.2397,-0.9441,0.1546,-0.1653
2428391.0,721.094829,1.0,7.32,9.79,-10.94,-12.88,-33.75,14.5,-65.06,262.81,-22.94,-2.419984248608561,2.1745573543925976,-6.272065015477557,-131.45480922787246,14.927627478593793,-31.459467480314125,-0.2805,-0.9116,0.1299,-0.2711
2428426.0,721.16454,1.0,5.46,10.27,-8.81,-17.87,-34.19,7.25,73.56,52.13,-78.69,-3.435930540614895,3.449540427788991,-3.948191044414843,-130.16081866157813,12.261764386292771,-34.02735703924717,-0.2837,-0.9069,0.1068,-0.2926
2428463.0,721.170495,1.0,5.88,9.3,-10.4,-17.06,-35.25,6.06,241.63,-86.44,-126.19,-2.344670402293997,3.0495458679309633,-4.8366826365275095,-136.43524351543036,6.3631010384043885,-32.23403459047365,-0.2396,-0.9286,0.0555,-0.2776
2428497.0,721.223027,1.0,7.17,-0.11,-10.53,-17.06,-35.25,6.06,379.81,-165.88,-140.88,1.8782707059102237,-3.333936175943411,-2.34484656338903,-149.68030591183427,-0.7448503787209418,-25.9116795113663,-0.1346,-0.9652,-0.0065,-0.2242
2428534.0,721.231713,1.0,2.7,-2.45,-7.52,-12.88,-33.69,13.0,167.0,-200.19,-84.44,-0.06034304956220149,-3.8637303712338524,2.3964646895793047,-157.98368078519854,-4.11472114096103,-19.145524872704485,-0.0866,-0.9816,-0.0359,-0.1663
2428573.0,721.282974,1.0,3.9,-0.9,-11.16,-6.88,-30.69,22.5,32.56,-101.06,-23.5,0.8328411222197041,-2.736144129030793,-1.6992394037058318,-162.45372607444324,-5.743441500733662,-14.442363367873067,-0.0696,-0.9883,-0.0501,-0.1257
2428608.0,721.309849,1.0,2.39,-0.4,-9.44,-6.88,-30.69,22.5,36.38,-96.94,-9.44,0.3690051607614133,-1.733227663209192,0.2230464471177207,-165.22567945610493,-6.087674884576737,-11.409241734119899,-0.0618,-0.9917,-0.0531,-0.0994
2428643.0,721.395712,1.0,1.25,0.32,-8.46,-3.38,-29.69,25.37,8.69,-24.62,-2.5,-0.14294852191602958,-0.7495487847240714,1.282904207251324,-166.92746455946425,-6.271288310584378,-9.188627520029689,-0.059,-0.9935,-0.0547,-0.0801
2428678.0,721.419218,1.0,1.3,0.68,-8.76,-1.19,-29.69,26.25,-6.13,2.69,2.06,-0.09487704527482421,-0.4551792595480123,0.9368241737530578,-167.02852064224473,-6.168003805570945,-9.09666171745326,-0.0603,-0.9936,-0.0538,-0.0793
2428715.0,721.429464,1.0,1.61,0.85,-9.32,-0.19,-29.0,25.87,-14.13,18.19,7.13,0.053962839129127915,-0.44370417801839357,0.3210179907766726,-166.53078742603913,-5.984399237389445,-9.556550648732504,-0.0637,-0.9931,-0.0522,-0.0833
2428749.0,721.465545,1.0,1.92,1.27,-9.93,-0.19,-29.0,25.87,-15.69,7.25,9.19,0.2042290388282194,-0.2232786183654742,-0.3821986669633137,-166.05072408085044,-5.617235753841245,-10.005090889774307,-0.0685,-0.9926,-0.049,-0.0872
