TIME,ELAPSED_SECONDS,PSTATE,acc_x,acc_y,acc_z,mag_x,mag_y,mag_z,gyr_x,gyr_y,gyr_z,lin_x,lin_y,lin_z,eul_x,eul_y,eul_z,qua_w,qua_x,qua_y,qua_z
3312132.0,419.505158,1.0,-2.38,0.53,-9.01,5.56,-12.69,14.75,-2.13,8.31,-3.06,-0.22830021511669107,-0.0449519026359083,0.47545188088222723,-164.02631287450075,-7.706360320042279,13.138038375794714,-0.0406,-0.9903,-0.0672,0.1144
3312164.0,419.543743,1.0,-2.47,0.78,-9.5,5.56,-12.69,14.75,-1.69,-0.44,0.56,-0.18338378625194451,0.15978878201642535,-0.03713676791008069,-164.10899767779725,-7.729330710703709,13.06883146764636,-0.041,-0.9904,-0.0674,0.1138
3312201.0,419.574463,1.0,-2.35,-0.33,-9.25,4.88,-13.75,15.56,-2.31,4.25,-0.12,-0.28558625138700866,-0.918950961167422,0.3057095400250933,-164.19211217641143,-7.660420468145224,13.034229810442687,-0.0405,-0.9905,-0.0668,0.1135
3312238.0,419.612788,1.0,-2.5,0.65,-9.44,4.06,-13.5,14.75,-14.19,8.06,8.75,-0.2913135288382507,-0.00983513476340793,0.02395406799639055,-164.3596576972689,-7.338875609975954,12.826644816909523,-0.0433,-0.9907,-0.064,0.1117
3312271.0,419.652128,1.0,-2.09,0.76,-9.87,4.06,-13.5,14.75,3.31,3.75,6.56,0.16633604644638178,-0.01070901060281449,-0.3094173009200798,-164.70021747025422,-7.005907963772472,12.58451568698019,-0.0441,-0.9911,-0.0611,0.1096
3312306.0,419.687231,1.0,-1.95,0.71,-9.61,4.06,-13.75,15.19,-5.13,4.44,2.63,0.21538319829966557,-0.06445296857628703,-0.02229480057406441,-164.96066657615677,-6.684478178549482,12.457708722341447,-0.0447,-0.9914,-0.0583,0.1085
3312343.0,419.732118,1.0,-2.23,1.07,-9.94,4.5,-13.5,14.88,-5.56,3.94,6.38,0.027671348117016548,0.25798123333658485,-0.43317812256824695,-165.1368197605061,-6.512305468988995,12.307865676783145,-0.0461,-0.9916,-0.0568,0.1072
3312377.0,419.760541,1.0,-2.32,0.71,-9.89,4.5,-13.5,14.88,3.25,-3.88,4.75,-0.11183853020659873,-0.09766677769278423,-0.3755184008710213,-165.1368197605061,-6.340147475413155,12.330917071488782,-0.0466,-0.9916,-0.0553,0.1074
3312412.0,419.797247,1.0,-2.47,0.1,-9.67,4.06,-13.5,15.19,3.25,-8.5,13.69,-0.3269454317051199,-0.6447633845635468,-0.1481069966631221,-165.1368197605061,-5.846705927689754,12.596044357776796,-0.0449,-0.9916,-0.051,0.1097
3312447.0,419.86053,1.0,-2.43,1.16,-9.88,4.06,-12.69,14.06,-12.81,-7.44,26.75,-0.10033293852875413,0.27085532315641303,-0.4296320738471273,-165.1368197605061,-4.89454770282183,12.838176201348999,-0.0492,-0.9916,-0.0427,0.1118
3312482.0,419.86901,1.0,-2.72,2.07,-9.77,3.38,-13.5,14.38,-21.12,-21.0,26.87,-0.28067156208931854,1.068246291661346,-0.4849132114167247,-164.87335484809628,-3.9083298533295405,13.230321745568984,-0.0546,-0.9913,-0.0341,0.1152
3312517.0,419.88944,1.0,-2.78,1.92,-9.71,3.38,-13.5,14.38,-6.56,-32.69,16.94,-0.17995779764961073,0.8111255273731344,-0.4407199342762471,-163.78077108801165,-3.163128706652845,14.38461134345722,-0.0591,-0.99,-0.0276,0.1252
3312553.0,419.929318,1.0,-2.69,4.29,-8.98,3.69,-14.19,14.38,-16.0,-44.25,3.69,0.07051659046954484,3.150513381029452,-0.009148125798175144,-162.6046318184389,-2.7733864743736323,15.586632804931575,-0.0633,-0.9885,-0.0242,0.1356
3312590.0,420.014345,1.0,-2.35,5.71,-8.22,3.38,-14.19,14.38,5.75,-28.62,-58.0,0.6022458279328283,4.64455586030011,0.6545791510997656,-161.00999937311445,-3.656090990936744,17.09160645080068,-0.0637,-0.9863,-0.0319,0.1486
3312625.0,420.027282,1.0,-1.97,3.64,-6.65,3.38,-14.19,14.38,44.88,14.31,-116.75,0.5279263033497906,3.000125666028561,2.590450182487454,-160.59764077497124,-6.409008932036036,17.346581127291522,-0.0513,-0.9857,-0.0559,0.1508
3312660.0,420.049221,1.0,-1.61,1.71,-9.07,5.19,-13.5,14.5,-20.5,35.13,-127.19,1.283079634256404,0.9729552900484661,0.5769065227562713,-159.66766312617878,-11.2825706212041,16.234582036054892,-0.0414,-0.9843,-0.0983,0.1412
3312695.0,420.0758,1.0,-1.55,-0.27,-10.77,7.06,-12.25,14.38,-4.19,35.94,-131.63,1.1843742741474583,-1.1093119007161873,-0.956016244275494,-157.863978815261,-15.205041610922962,15.29753283007483,-0.0405,-0.9814,-0.1323,0.1331
3312732.0,420.112823,1.0,-2.44,-4.95,-10.67,7.5,-11.19,15.56,29.56,0.56,-62.19,-1.1630944080023602,-4.886422054088767,-1.105503357948587,-155.59138277018496,-18.808599629302385,15.205041610922962,-0.0244,-0.9774,-0.1634,0.1323
3312766.0,420.160889,1.0,-2.6,-2.04,-9.15,7.5,-11.19,15.56,-4.06,-4.25,-18.0,-0.7463113874023403,-1.8978497539347496,0.2942746066230413,-154.79119639620876,-19.73845598070809,15.29753283007483,-0.0233,-0.9759,-0.1714,0.1331
3312803.0,420.179261,1.0,-2.54,-1.45,-9.24,7.88,-10.19,15.69,-14.88,13.69,-7.75,-0.5355387660856354,-1.403242538800028,0.23190151205936083,-154.63414056108866,-20.09912503821932,14.985414779298193,-0.0261,-0.9756,-0.1745,0.1304
3312838.0,420.213807,1.0,-2.47,-1.38,-9.48,8.19,-10.88,15.69,-2.13,16.06,-0.63,-0.4979820355715243,-1.373329017075398,0.021882179397062274,-154.89643727544527,-20.21551264575777,14.361511562916563,-0.0267,-0.9761,-0.1755,0.125
3312873.0,420.243748,1.0,-2.12,-1.16,-9.87,8.19,-10.88,15.69,3.38,20.37,4.88,-0.09444903617148803,-1.2745531272807833,-0.27419786639026,-155.32181611488016,-20.122400879873982,13.84191973651236,-0.025,-0.9769,-0.1747,0.1205
3312908.0,420.308972,1.0,-1.9,-0.4,-10.23,8.19,-10.19,16.06,1.5,13.81,7.88,0.35499609205276594,-0.6336188131414994,-0.580621295882306,-155.8639137604186,-19.854779083760313,13.276466658923827,-0.024,-0.9779,-0.1724,0.1156
3312943.0,420.320044,1.0,-1.97,-0.32,-9.77,7.5,-10.56,16.06,9.0,-0.94,4.5,0.21589805787836158,-0.45576154131850827,-0.15235946108895604,-156.08414094937433,-19.645412292934687,13.2187858542384,-0.0219,-0.9783,-0.1706,0.1151
3312979.0,420.358979,1.0,-2.24,-0.2,-9.16,8.19,-10.19,15.69,8.25,-1.94,3.31,-0.0936762078172726,-0.16574230528119827,0.3765410792966417,-156.13951067883627,-19.540753773579446,13.357225465957494,-0.0195,-0.9784,-0.1697,0.1163
3313014.0,420.412976,1.0,-1.98,-0.17,-9.33,8.19,-10.19,15.69,3.13,5.31,1.75,0.18092785267556188,-0.20998039371502003,0.2713800328526865,-156.25063177900063,-19.47099057608733,13.264930228136947,-0.0182,-0.9786,-0.1691,0.1155
3313049.0,420.450873,1.0,-1.89,0.27,-8.55,7.56,-9.75,16.06,-2.94,1.25,4.81,0.22818366070020024,0.2276574562915667,1.0520166953101722,-156.41828103776766,-19.30823806837105,13.207250097467806,-0.0185,-0.9789,-0.1677,0.115
3313084.0,420.471822,1.0,-1.51,-0.31,-7.26,7.19,-10.19,15.19,1.69,24.37,4.69,0.04805903185742688,-0.3235226219829798,2.392014240738308,-156.814109146573,-19.180388694494322,12.768989848771895,-0.0175,-0.9796,-0.1666,0.1112
3313119.0,420.507723,1.0,-1.51,-0.09,-6.08,7.19,-10.19,15.19,-14.88,77.0,2.94,-0.384416498021683,0.015875686068893516,3.5531252404231575,-158.1040290229696,-19.13390399645449,10.396251161173769,-0.0171,-0.9818,-0.1662,0.0906
3313154.0,420.544851,1.0,-0.56,0.38,-5.38,7.56,-9.38,15.19,-23.31,174.31,-1.88,0.11743028879837164,0.2846958502328202,4.3930044260699015,-159.66766312617878,-19.401234664747335,5.89260274896743,-0.0156,-0.9843,-0.1685,0.0514
3313190.0,420.569968,1.0,0.99,1.52,-5.18,6.5,-10.56,16.87,0.56,217.63,8.63,1.2385362192612381,1.0364738174803665,4.561209116789538,-160.52975543717122,-19.343110284151184,-2.0283765158457068,-0.0098,-0.9856,-0.168,-0.0177
3313227.0,420.611959,1.0,2.47,-1.88,-4.77,6.5,-10.56,16.87,-23.81,263.0,39.63,0.9735784510101863,-2.445593390336328,4.76091735063461,-159.3455716366145,-18.56472183693924,-9.050681021579292,-0.0001,-0.9838,-0.1613,-0.0789
3313260.0,420.643019,1.0,4.24,1.36,-6.06,3.06,-10.19,16.5,-125.37,351.44,76.81,1.8858064104601824,0.3094559224927879,2.5334958551807496,-153.1625065187994,-15.470980940849387,-21.74218613420642,-0.0148,-0.9727,-0.1346,-0.1886
3313297.0,420.680217,1.0,7.81,3.87,-9.15,-2.19,-10.19,16.87,-63.88,401.25,38.25,1.2593421099346016,2.291114160855263,-2.5570207070381787,-140.17034192327273,-13.322613734970497,-37.26537941343615,-0.0201,-0.9402,-0.116,-0.3195
3313334.0,420.729603,1.0,11.08,1.68,-11.88,-6.69,-10.88,14.06,-2.13,339.56,2.94,-1.3055707043845874,0.09709499770913278,-6.472454941527735,-130.052143359472,-13.253393932396618,-47.90761495262174,-0.0109,-0.9065,-0.1154,-0.406
3313369.0,420.793212,1.0,12.3,2.24,-12.83,-6.69,-10.88,14.06,0.75,207.0,2.13,-3.774835496523573,1.0645044040090546,-7.672879380049997,-121.45404882910115,-13.241857771581179,-56.744745610801054,-0.0014,-0.8723,-0.1153,-0.4752
3313403.0,420.826131,1.0,11.25,1.93,-10.24,-10.5,-9.5,12.06,15.25,2.88,-15.88,-2.5844078402452464,0.7713364046216566,-5.288742550913813,-119.99417813762395,-13.703410648771607,-58.10358051110581,0.0012,-0.866,-0.1193,-0.4856
3313440.0,420.84906,1.0,9.86,1.12,-6.86,-11.56,-9.88,11.06,9.0,-42.94,-12.88,-0.28423360855792623,-0.2376219508762161,-2.2513907639146726,-121.26683960828639,-14.742733694368157,-56.49744158979394,0.0024,-0.8715,-0.1283,-0.4733
3313475.0,420.86103,1.0,9.39,1.5,-6.87,-11.56,-9.88,11.06,-8.13,-25.87,-3.69,-0.2913582954967566,0.15092172277304047,-1.9198726293748525,-122.0426290539964,-14.858287755594212,-55.666512497314564,-0.0002,-0.8748,-0.1293,-0.4669
3313510.0,420.887471,1.0,8.57,1.92,-6.55,-11.5,-9.5,11.75,-11.5,-46.69,-0.12,-0.0948532223705314,0.5908750344135533,-1.1329875424377178,-123.502242338284,-14.950741939900693,-54.14273717736637,-0.0039,-0.8809,-0.1301,-0.4551
3313545.0,420.95728,1.0,9.17,1.88,-9.9,-11.88,-9.5,11.0,-0.12,-75.94,-6.19,-2.060702132249944,0.6531479481931389,-3.645494976913964,-125.19616916396942,-15.077882439571027,-52.360941896715254,-0.0067,-0.8878,-0.1312,-0.4412
3313582.0,420.970245,1.0,8.46,2.46,-9.01,-11.19,-9.88,12.69,14.81,-217.44,-16.75,-0.2846920742308212,0.8874997222070988,-2.7605531361776183,-131.2600452849924,-15.436288478593854,-45.90899880278562,-0.0155,-0.9109,-0.1343,-0.39
3313616.0,420.991409,1.0,5.33,1.42,-5.58,-11.19,-9.88,12.69,38.19,-184.19,-27.19,0.6773756970801399,0.2528807058464065,1.9939095388291683,-136.65191882638644,-16.350341655632345,-39.82686703824351,-0.0172,-0.9293,-0.1422,-0.3406
3313653.0,421.047708,1.0,5.12,1.71,-8.28,-9.69,-11.0,12.56,20.56,-147.31,-20.31,-0.12303593016652625,0.5596139743099635,-0.06090260232470435,-141.5385921220968,-17.485694626999514,-33.931500337029355,-0.018,-0.9442,-0.152,-0.2918
3313688.0,421.06606,1.0,4.28,1.8,-8.44,-5.88,-11.0,15.06,31.12,-154.63,-27.31,-0.0959258881948073,0.731589488237101,0.20208988281217266,-144.9554604078314,-18.49505809550988,-29.404982305122264,-0.0192,-0.9536,-0.1607,-0.2538
3313723.0,421.111478,1.0,2.62,0.66,-7.07,-5.88,-11.0,15.06,45.0,-168.19,-32.63,-0.2626026657402907,-0.029197516884933522,2.242584469813613,-149.46197984083236,-19.971122857066128,-22.7816075509135,-0.0175,-0.9647,-0.1734,-0.1975
3313758.0,421.138902,1.0,2.42,-0.44,-7.36,-4.0,-10.69,14.25,29.94,-124.31,-18.87,-0.22415286298432502,-1.0945463369088861,2.1273711399523156,-152.47972490837182,-20.97255174185992,-17.508882729880764,-0.0157,-0.9713,-0.182,-0.1522
3313795.0,421.175188,1.0,1.42,0.93,-6.53,-1.0,-9.88,16.37,-18.0,-63.38,10.31,-0.13174561508433358,0.4111438413850539,3.0734632482013264,-153.8627830260387,-21.007514103633177,-15.21660246715643,-0.0204,-0.9741,-0.1823,-0.1324
3313829.0,421.229106,1.0,1.85,1.33,-7.88,-1.0,-9.88,16.37,13.75,-13.06,-1.81,0.1513749891551296,0.629504235529343,1.6294493769194531,-154.3228637180319,-21.019168663575197,-14.407711711634986,-0.0198,-0.975,-0.1824,-0.1254
3313864.0,421.239111,1.0,2.82,-0.95,-9.7,-0.69,-10.69,16.75,11.81,0.37,-5.56,-0.2231953659515733,-1.7578361149030444,-0.1836000480098221,-154.11739099299157,-21.310604474849132,-14.38461134345722,-0.0156,-0.9746,-0.1849,-0.1252
3313901.0,421.286257,1.0,2.91,-1.52,-9.63,0.06,-10.25,16.37,-6.25,-15.81,31.75,-0.23249737278238225,-2.324000916757424,-0.0958933455532005,-154.84376268843482,-20.73951961095484,-13.96890425008599,-0.0155,-0.976,-0.18,-0.1216
3313936.0,421.321257,1.0,2.61,-0.19,-8.84,-0.25,-10.69,16.37,-14.75,-25.06,43.88,0.26397811261471205,-1.0330307822038265,0.6493052451554089,-156.25063177900063,-19.424485827358055,-13.334150842815472,-0.0189,-0.9786,-0.1687,-0.1161
3313971.0,421.366138,1.0,2.79,-1.44,-8.53,-0.25,-10.69,16.37,17.06,-1.81,45.25,0.20636070903062498,-2.1584731252550275,0.979588822840288,-157.80436691060555,-17.740803669389525,-13.10343432167045,-0.014,-0.9813,-0.1542,-0.1141
3314006.0,421.384177,1.0,3.26,-0.87,-10.12,-0.69,-9.5,17.19,-4.06,27.19,59.75,0.3860671068170456,-1.6237931396945513,-0.729627712195839,-158.71585002764485,-16.13041264048083,-13.761120312162008,-0.0111,-0.9828,-0.1403,-0.1198
3314042.0,421.429219,1.0,3.13,-0.55,-9.92,-1.0,-11.0,16.0,-19.5,1.19,70.44,0.37874780333690783,-1.2329233274230318,-0.5298024944568684,-160.32749140960402,-13.47260676237266,-14.188281840563283,-0.0129,-0.9853,-0.1173,-0.1235
3314077.0,421.466262,1.0,2.95,0.13,-9.39,-1.0,-11.0,16.0,-29.62,1.63,85.0,0.48657948332540535,-0.5365416076512763,-0.010012544351098995,-161.7899992062843,-11.075320376717382,-14.315313760812993,-0.017,-0.9874,-0.0965,-0.1246
3314112.0,421.497179,1.0,3.05,1.73,-9.63,-1.75,-11.0,13.88,-36.38,8.31,78.31,0.6552220447526829,0.9631703904170531,-0.3754562099692329,-163.14335483645723,-7.534092210574165,-14.765843296845908,-0.026,-0.9892,-0.0657,-0.1285
3314147.0,421.537075,1.0,3.12,2.25,-10.92,-2.38,-10.69,14.25,-23.94,-4.25,54.63,0.36889088930407765,1.3651354998973768,-1.6843736523430959,-163.9440511277747,-5.07806793226336,-14.788953503219902,-0.0322,-0.9902,-0.0443,-0.1287
3314184.0,421.56799,1.0,2.25,1.83,-8.23,-3.19,-12.19,13.06,-8.5,-19.25,28.94,0.26498958996420663,1.1603717647646103,1.1621362551588472,-164.87335484809628,-3.873932556571698,-14.08435967436596,-0.0343,-0.9913,-0.0338,-0.1226
3314219.0,421.606886,1.0,2.25,1.79,-8.37,-3.19,-12.19,13.06,-8.56,6.88,31.31,0.17713189536020768,1.1117531729358312,1.0284879387189907,-164.96066657615677,-2.681687249969397,-14.222925164993965,-0.0359,-0.9914,-0.0234,-0.1238
3314255.0,421.639427,1.0,2.95,3.41,-9.94,-3.19,-12.88,13.06,-16.94,24.56,36.31,0.3279603284910524,2.561609415552668,-0.7982922075317305,-164.3596576972689,-1.4438918508267422,-14.950741939900693,-0.0389,-0.9907,-0.0126,-0.1301
3314292.0,421.670344,1.0,2.8,2.74,-9.82,-3.5,-12.88,12.25,-3.56,6.5,10.13,0.1015307753098762,1.9000565415019346,-0.593324838467673,-163.9440511277747,-0.8250663536663884,-15.378470869631332,-0.0401,-0.9902,-0.0072,-0.1338
3314325.0,421.714061,1.0,2.45,1.9,-9.66,-3.5,-12.88,12.25,-1.75,-9.13,5.69,-0.1754489993344983,1.0907577961000474,-0.27836686061453797,-164.10899767779725,-0.687553479519944,-15.239724647140953,-0.0399,-0.9904,-0.006,-0.1326
3314360.0,421.741542,1.0,2.58,1.68,-9.34,-3.75,-12.5,11.88,1.44,-4.38,0.12,0.0696182110104655,0.8968320124705988,0.013527635498284951,-164.27566318431923,-0.6187974261216272,-15.020088998588148,-0.0398,-0.9906,-0.0054,-0.1307
3314395.0,421.785996,1.0,2.62,1.56,-9.56,-3.06,-13.0,13.56,-2.56,0.06,1.81,0.04859371156404091,0.7519670739596758,-0.1995372944132381,-164.27566318431923,-0.5958787923837214,-15.031647378904806,-0.0402,-0.9906,-0.0052,-0.1308
3314432.0,421.816738,1.0,2.44,1.19,-9.61,-3.06,-12.5,12.69,5.19,-1.37,-6.38,-0.12149756719846438,0.38519190401087156,-0.17125887602453993,-164.3596576972689,-0.7792286067117273,-14.950741939900693,-0.0399,-0.9907,-0.0068,-0.1301
3314466.0,421.857351,1.0,2.2,0.0,-9.02,-3.06,-12.5,12.69,8.81,4.56,-5.0,-0.20853144557507752,-0.7145138312755955,0.5521168069576721,-164.3596576972689,-1.0886361860699356,-14.962299399917931,-0.0377,-0.9907,-0.0095,-0.1302
3314503.0,421.881016,1.0,2.68,1.24,-9.53,-4.19,-12.5,12.38,7.75,9.88,2.44,0.06984820585494389,0.4968466671475525,-0.15774484451932302,-164.10899767779725,-1.0198783397289317,-15.332219618835126,-0.0365,-0.9904,-0.0089,-0.1334
3314538.0,421.919201,1.0,2.94,0.55,-9.97,-3.06,-13.25,11.88,7.06,0.81,-6.81,0.17611321747404207,-0.19059121444049248,-0.5991012522455144,-163.9440511277747,-1.1917736982377245,-15.459416628401117,-0.0344,-0.9902,-0.0104,-0.1345
3314571.0,421.952354,1.0,2.69,0.95,-9.55,-3.06,-13.25,11.88,-0.63,-5.56,-3.75,0.08564250033559584,0.2228135124350406,-0.15749168409967496,-164.10899767779725,-1.3751317128217122,-15.274409087771584,-0.0352,-0.9904,-0.012,-0.1329
3314606.0,421.986759,1.0,2.44,0.68,-8.92,-3.06,-13.25,13.19,13.56,-8.06,-0.12,0.04601660744066072,0.050889055061891425,0.5342343074248106,-164.44410289964105,-1.4782721132478738,-15.043205913037665,-0.0325,-0.9908,-0.0129,-0.1309
3314642.0,422.034449,1.0,2.42,1.23,-9.34,-3.5,-13.69,13.19,3.25,3.31,0.75,-0.07820932217074894,0.6192026428368195,0.10018970857401044,-164.44410289964105,-1.4668120111410634,-15.077882439571027,-0.0302,-0.9908,-0.0128,-0.1312
3314677.0,422.065294,1.0,2.64,0.61,-9.4,-3.5,-13.69,13.19,13.38,6.0,-6.13,0.08750720742810159,0.03705606176099995,0.024387003283189657,-164.3596576972689,-1.6043342375287626,-15.205041610922962,-0.0276,-0.9907,-0.014,-0.1323
3314712.0,422.099589,1.0,2.77,0.0,-9.9,-3.06,-13.69,14.06,2.19,0.12,-0.31,0.04327487714265965,-0.5552033994355805,-0.458474279338434,-164.27566318431923,-1.867925133192117,-15.343782195666375,-0.025,-0.9906,-0.0163,-0.1335
3314747.0,422.125241,1.0,2.47,0.77,-9.46,-4.19,-13.69,12.38,-5.75,-9.56,5.56,-0.07909628517536893,0.23019498425193732,0.0022553707076458096,-164.44410289964105,-1.535572847865537,-15.147239662385429,-0.0261,-0.9908,-0.0134,-0.1318
3314784.0,422.170627,1.0,2.16,0.31,-8.85,-4.56,-13.69,13.56,-2.38,-6.44,-0.88,-0.17849354164443354,-0.21618451852953496,0.6959088496028834,-164.70021747025422,-1.2834522947560847,-14.835175731606341,-0.0278,-0.9911,-0.0112,-0.1291
3314819.0,422.197009,1.0,2.23,0.43,-9.15,-4.56,-13.69,13.56,-3.38,1.0,2.44,-0.1863423450527526,-0.12974412842506522,0.38174984182434635,-164.70021747025422,-1.2146932735575866,-14.835175731606341,-0.0287,-0.9911,-0.0106,-0.1291
3314855.0,422.263828,1.0,2.6,0.61,-9.55,-3.06,-12.88,14.38,0.37,2.0,4.38,0.05506529817082684,0.021210153128892385,-0.10955481546955603,-164.70021747025422,-1.1573944243672372,-14.927627478593793,-0.0286,-0.9911,-0.0101,-0.1299
3314890.0,422.269858,1.0,2.55,0.92,-9.3,-3.5,-13.25,14.0,-3.56,-5.44,4.44,0.09282620376038797,0.3373788597785171,0.1259238495053996,-164.78654130633294,-1.0084187350403075,-14.812064314477514,-0.0292,-0.9912,-0.0088,-0.1289
3314925.0,422.307111,1.0,2.37,0.69,-9.17,-3.5,-13.25,14.0,2.19,-1.0,1.06,-0.033517155493466566,0.1229735716329127,0.3110902955398416,-164.87335484809628,-0.9282017781870658,-14.708070420797666,-0.0291,-0.9913,-0.0081,-0.128
3314958.0,422.349141,1.0,2.27,0.8,-9.02,-4.56,-12.5,12.38,2.63,5.19,2.44,-0.11782028163724045,0.2675991929736388,0.47563670812463066,-164.78654130633294,-0.6417160846123932,-14.858287755594212,-0.0281,-0.9912,-0.0056,-0.1293
3314995.0,422.374985,1.0,2.73,0.53,-10.26,-3.06,-13.25,13.56,1.63,6.5,1.5,-0.045880859712235544,-0.06097263154113805,-0.823287783680346,-164.52900617164653,-0.6531754234266163,-15.147239662385429,-0.0273,-0.9909,-0.0057,-0.1318
3315030.0,422.417835,1.0,2.69,0.58,-9.55,-3.06,-13.25,13.56,2.81,-4.88,3.44,0.11698591460279761,0.04107147660815636,-0.13113785392371824,-164.61437509688025,-0.561500886182872,-15.054764601110485,-0.0267,-0.991,-0.0049,-0.131
3315064.0,422.438908,1.0,2.82,0.82,-9.8,-4.56,-12.88,12.75,-2.56,1.69,-0.63,0.18211136925085136,0.27168211669666453,-0.41870203680816154,-164.61437509688025,-0.3323159869732291,-15.020088998588148,-0.0267,-0.991,-0.0029,-0.1307
3315099.0,422.496863,1.0,2.73,0.75,-9.61,-3.75,-12.5,13.56,3.5,-3.19,-5.63,0.15152304675668504,0.1983714519904192,-0.2085978518175864,-164.70021747025422,-0.43544897228423995,-14.985414779298193,-0.0273,-0.9911,-0.0038,-0.1304
