TIME,ELAPSED_SECONDS,PSTATE,acc_x,acc_y,acc_z,mag_x,mag_y,mag_z,gyr_x,gyr_y,gyr_z,lin_x,lin_y,lin_z,eul_x,eul_y,eul_z,qua_w,qua_x,qua_y,qua_z
3029422.0,136.295318,1.0,1.73,-0.5,-9.95,5.06,-6.69,19.87,4.44,8.31,-3.38,-0.06771373155203197,-0.1786337490672646,-0.3031919786984538,-132.83930623013015,-46.058375063609425,-7.9016186202083185,0.0471,-0.9165,-0.3912,-0.0689
3029456.0,136.318239,1.0,1.58,-0.42,-9.78,4.69,-6.25,20.25,-4.19,2.75,2.44,-0.11501979653428962,-0.03129398548102505,-0.10833820639126834,-132.81066902216784,-46.083279148130536,-8.016487142063687,0.0472,-0.9164,-0.3914,-0.0699
3029493.0,136.361244,1.0,1.67,-0.17,-9.72,4.69,-6.0,19.5,-4.63,4.44,1.81,0.09463740162599776,0.06882936550282631,-0.05653945781018521,-132.81066902216784,-46.02102324962843,-8.22327089407658,0.0464,-0.9164,-0.3909,-0.0717
3029526.0,136.410063,1.0,1.67,-0.28,-9.67,4.69,-6.0,19.5,3.69,6.0,-1.25,0.001765908634490554,0.0038798270040527605,-0.010487150336091489,-132.7820481898819,-46.04592388413567,-8.361141590530956,0.0469,-0.9163,-0.3911,-0.0729
3029561.0,136.434996,1.0,1.59,-0.19,-9.7,5.06,-6.25,19.5,-1.56,3.31,-1.0,-0.011180832892016657,0.14690564140878448,-0.02353279186598556,-132.58215838722379,-46.18291852714496,-8.510515201802361,0.0475,-0.9156,-0.3922,-0.0742
3029596.0,136.472774,1.0,1.81,-0.27,-9.78,5.5,-6.69,20.25,-1.63,4.63,1.12,0.052782322047919106,-0.04181143391388653,-0.1428658590995422,-132.46829135766268,-46.29505700445262,-8.636919564056372,0.0477,-0.9152,-0.3931,-0.0753
3029630.0,136.503296,1.0,1.79,0.09,-9.75,5.5,-6.69,20.25,-2.94,2.75,-1.63,0.27400106064628793,0.21104033866529165,-0.10067483540439248,-132.46829135766268,-46.2825948589316,-8.786320126014097,0.0469,-0.9152,-0.393,-0.0766
3029663.0,136.543121,1.0,1.66,-0.38,-9.62,5.06,-6.25,19.5,0.12,4.31,-1.31,-0.14480701114516625,-0.013977670151064187,0.03816825746394059,-132.24132459051677,-46.48205884773244,-8.843785851491393,0.0481,-0.9144,-0.3946,-0.0771
3029698.0,136.567103,1.0,1.66,-0.29,-9.55,5.06,-6.25,18.69,-1.06,4.31,0.44,-0.09270120372108803,0.05091640642167933,0.10969099181677322,-132.07176372350168,-46.606799554332326,-8.981712713320505,0.0484,-0.9138,-0.3956,-0.0783
3029735.0,136.623843,1.0,1.71,-0.27,-9.45,5.5,-6.69,19.0,-2.38,5.81,-0.69,-0.06008621468136699,0.03826524732606068,0.19965122735241003,-131.90276546625157,-46.7191162156521,-9.17713147157167,0.0491,-0.9132,-0.3965,-0.08
3029768.0,136.632525,1.0,1.82,-0.34,-9.64,5.5,-6.69,19.0,-0.12,3.0,-0.44,-0.0753395574752791,-0.04519760549744206,-0.009147528858095555,-131.87465337051762,-46.73159877782966,-9.303593121383253,0.0494,-0.9131,-0.3966,-0.0811
3029805.0,136.705479,1.0,1.67,-0.42,-9.48,4.69,-7.06,19.87,-0.31,2.5,0.44,-0.2279482884478543,-0.012135550429469288,0.17422599011497653,-131.84655671079122,-46.7191162156521,-9.372576979838527,0.0494,-0.913,-0.3965,-0.0817
3029839.0,136.731384,1.0,1.76,-0.16,-9.47,4.0,-7.06,19.5,-3.5,5.19,1.5,0.0038707790809860976,0.10885126128489003,0.1737773017865507,-131.93089302515688,-46.63175471031061,-9.51055493545105,0.0494,-0.9133,-0.3958,-0.0829
3029872.0,136.741358,1.0,1.95,-0.13,-9.68,4.0,-7.06,19.5,-1.69,7.81,0.81,0.09073437304206766,0.05494721440036826,-0.06809293727073573,-131.87465337051762,-46.58184673902731,-9.786552516199244,0.0499,-0.9131,-0.3954,-0.0853
3029907.0,136.774796,1.0,1.96,0.01,-9.73,4.25,-6.25,19.87,0.5,5.94,1.25,0.16942220034332656,0.17458189594346069,-0.1158203214290161,-131.84655671079122,-46.59432285421077,-9.970582425862728,0.0505,-0.913,-0.3955,-0.0869
3029944.0,136.807909,1.0,1.92,-0.25,-9.76,4.69,-7.06,19.5,-0.63,8.19,-0.44,-0.08703272746598856,0.06968108571199921,-0.14292636538580794,-131.70630400699523,-46.61927683962218,-10.246675787285362,0.0516,-0.9125,-0.3957,-0.0893
3029979.0,136.851348,1.0,1.89,-0.03,-9.61,4.69,-7.06,19.5,0.94,9.44,0.75,0.04472944430612513,0.24149928802527926,0.015594011461512736,-131.70630400699523,-46.58184673902731,-10.453784866884499,0.0522,-0.9125,-0.3954,-0.0911
3030011.0,136.890324,1.0,1.8,-0.22,-9.62,4.25,-6.69,18.69,2.81,14.75,-0.69,-0.20230583985605044,0.24901215329180515,0.022485994083442762,-131.56643317341502,-46.58184673902731,-10.868106466869213,0.0546,-0.912,-0.3954,-0.0947
3030046.0,136.943863,1.0,1.41,0.03,-9.11,4.25,-6.0,20.25,5.0,28.06,0.63,-0.2641527237951137,0.6886028467669597,0.6176810993052069,-131.2600452849924,-46.69415285279771,-11.351662230904266,0.0576,-0.9109,-0.3963,-0.0989
3030081.0,136.950739,1.0,1.41,-0.59,-9.05,4.25,-6.0,20.25,7.81,52.5,-2.94,-0.8781250203797211,0.5117594517883326,0.6849342232347269,-130.62518646665285,-46.744081927482135,-12.94196455075679,0.0667,-0.9086,-0.3967,-0.1127
3030116.0,136.986945,1.0,3.13,-1.83,-11.74,3.56,-6.25,19.87,3.75,63.31,7.5,-1.311808626071246,-0.6397172098425552,-2.3934860656345283,-130.052143359472,-46.58184673902731,-14.638747929971785,0.0751,-0.9065,-0.3954,-0.1274
3030151.0,137.031218,1.0,4.39,-0.87,-14.85,3.56,-6.0,20.25,6.44,-25.06,24.0,-0.16326666800067713,-0.13514030067100258,-5.7016246008140605,-130.735045365197,-45.99612491286469,-14.176734355559054,0.0764,-0.909,-0.3907,-0.1234
3030188.0,137.06495,1.0,6.06,-2.29,-19.42,2.75,-6.0,18.69,43.69,-220.0,46.81,0.6482134343864185,-2.0669908639174484,-10.550448715484057,-132.69628364910096,-45.461363019954995,-9.441564242690683,0.0703,-0.916,-0.3864,-0.0823
3030220.0,137.12842,1.0,4.39,-0.2,-16.25,2.75,-6.0,18.69,66.81,-466.75,65.94,5.135037493175031,-2.832452203617344,-5.9725516419687725,-135.3668779333915,-43.887975339090566,6.523783187455053,0.0351,-0.9251,-0.3737,0.0569
3030257.0,137.133408,1.0,-1.64,-3.78,-6.63,4.0,-6.69,19.0,15.75,-366.63,77.31,-1.6498488528597879,-2.4296449924603567,2.5741038388386634,-133.82293398949477,-41.979385883293695,18.390575402245247,0.0046,-0.9199,-0.3582,0.1598
3030294.0,137.183291,1.0,-3.59,0.65,-5.12,11.06,-5.19,17.37,-5.31,-231.25,64.44,0.18915794217438098,1.4052999912772905,3.6817539839497364,-130.84513444406196,-39.01132279075521,28.316392423916934,-0.0399,-0.9094,-0.3339,0.2446
3030331.0,137.192253,1.0,-4.23,1.31,-7.27,11.06,-5.19,17.37,66.19,-165.69,4.88,1.7697230215572297,1.4037181652451869,1.5993632534843751,-128.0800345447506,-37.68889908140939,33.943481085591756,-0.0459,-0.8991,-0.323,0.2919
3030364.0,137.234668,1.0,-4.85,-1.51,-6.58,13.69,-7.56,15.19,32.0,-110.06,-4.88,0.08414354161803717,-0.5420211431625693,1.5121860061804657,-124.5030425986932,-37.04777503969204,39.437093924009254,-0.0442,-0.885,-0.3177,0.3374
3030401.0,137.32419,1.0,-5.0,-1.31,-5.55,16.19,-7.88,15.56,15.5,-72.69,18.25,-0.11820100256168509,-0.22952856440464975,2.226943860503839,-122.99589046242427,-35.70889932534102,42.532210288778515,-0.0472,-0.8788,-0.3066,0.3627
3030437.0,137.32718,1.0,-5.48,-0.07,-5.14,16.75,-6.88,13.38,3.69,-33.81,13.63,0.19115950956197336,1.0077469047614762,2.363343999448384,-122.39841108220122,-35.0473672974776,43.73976322550855,-0.0515,-0.8763,-0.3011,0.3725
3030470.0,137.354283,1.0,-5.5,-1.33,-5.74,16.75,-6.88,13.38,19.94,-11.5,3.56,-0.047818212254465475,-0.2124349419082316,1.749411961190841,-122.11362560713809,-34.54300944397086,44.54350821350816,-0.0485,-0.8751,-0.2969,0.379
3030507.0,137.386003,1.0,-5.7,-2.02,-6.42,17.06,-8.0,13.75,5.19,-16.0,9.5,-0.04966395180297223,-0.9255516151228919,1.0358069561623822,-121.97171183603345,-34.26710635514728,44.96484726352389,-0.0485,-0.8745,-0.2946,0.3824
3030544.0,137.420318,1.0,-6.19,-0.63,-5.19,16.56,-8.06,14.0,-14.38,-19.56,21.56,-0.2987074627012829,0.6794555004770813,1.7383035724723594,-121.75943327756427,-33.67999263161277,45.54834570673154,-0.0555,-0.8736,-0.2897,0.3871
3030579.0,137.445403,1.0,-6.75,-0.05,-4.02,16.56,-8.06,14.0,0.31,8.44,4.88,-1.0477267211173178,1.7566174078460588,2.2210080363749736,-121.87727845049913,-33.41668743131049,45.56077406660365,-0.0571,-0.8741,-0.2875,0.3872
3030611.0,137.483587,1.0,-6.51,-1.42,-6.01,17.56,-7.75,13.56,7.56,28.0,-11.19,-0.48243986850318343,0.011054641667656517,0.8465311632782324,-122.51745226375391,-33.67999263161277,44.70453316546125,-0.0515,-0.8768,-0.2897,0.3803
3030648.0,137.524849,1.0,-6.56,-2.45,-5.74,18.25,-7.75,14.0,-0.37,22.94,2.75,-1.320533480913225,-0.6617794455234509,0.8734568815641364,-123.01990890666337,-33.75183487047058,44.098074864095786,-0.0488,-0.8789,-0.2903,0.3754
3030685.0,137.559582,1.0,-6.34,-2.36,-3.94,17.06,-7.75,13.56,-4.0,44.75,22.25,-2.496895124833597,-0.12397554335559402,2.3878263196425875,-124.74966789127244,-33.177476600322066,42.47073434166396,-0.0477,-0.886,-0.2855,0.3622
3030718.0,137.588259,1.0,-5.17,-2.92,-1.02,17.06,-7.75,13.56,4.0,201.31,48.63,-4.220763447977518,-0.2641858312891119,5.515838682456074,-128.8444329155711,-32.28174931703743,38.282727009268356,-0.0405,-0.902,-0.278,0.3279
3030755.0,137.627001,1.0,-2.43,-3.32,0.19,14.88,-8.5,14.75,-43.94,488.25,113.12,-3.607299858510526,-1.7018526361601445,8.77976863607099,-141.5385921220968,-29.641988140572543,23.858067126010045,-0.0197,-0.9442,-0.2558,0.2067
3030792.0,137.689766,1.0,7.14,1.09,-1.96,11.5,-9.0,16.37,-129.94,666.94,137.06,7.037311395365369,-2.2500676696802837,8.613861751181169,-153.01476916887478,-26.28809409494012,5.96144975723111,-0.0076,-0.9724,-0.2274,0.052
3030827.0,137.719939,1.0,14.44,5.49,-12.25,11.5,-9.0,16.37,-163.94,853.63,102.87,8.552709013760369,0.709598614918509,-7.943387699443006,-145.76376947074462,-21.672178876755062,-26.170433719349266,-0.0082,-0.9557,-0.188,-0.2264
3030861.0,137.750853,1.0,15.31,7.14,-17.89,1.75,-10.06,16.75,-76.31,580.75,45.06,-2.6308240506412783,5.188184481067313,-14.101283967722507,-125.42068267085124,-18.553110733389566,-50.80822871779235,0.0074,-0.8887,-0.1612,-0.429
3030898.0,137.774776,1.0,11.21,1.06,-12.28,-8.19,-12.69,11.5,50.5,30.5,1.19,-3.662038880026815,0.301603250689528,-6.44403019254411,-121.22012218744959,-18.86667840059343,-55.03247866420509,0.0202,-0.8713,-0.1639,-0.462
3030935.0,137.817991,1.0,8.57,0.2,-6.25,-10.0,-12.0,11.25,-15.5,-80.69,33.75,0.030560548987267566,-0.9402476168354806,-0.7603931281357443,-124.06164029835845,-17.972797887176398,-52.412024132935976,0.02,-0.8832,-0.1562,-0.4416
3030970.0,137.854783,1.0,8.82,3.18,-8.08,-10.0,-12.0,11.25,-30.87,-33.06,10.69,-0.2346613140270266,1.9878663056235222,-2.4074615771334695,-125.4957101766987,-16.778799324271784,-51.417921136815835,0.0095,-0.889,-0.1459,-0.4338
3031007.0,137.870793,1.0,8.19,0.42,-7.36,-9.38,-11.06,11.5,-11.38,-37.75,0.88,-0.5377765595509265,-0.6806280487865853,-1.1783234560991342,-126.78612125881503,-16.801965875210325,-50.08621261381582,0.0073,-0.8941,-0.1461,-0.4233
3031042.0,137.938177,1.0,7.86,1.49,-6.78,-9.88,-11.38,10.0,-22.37,-29.94,3.94,0.11869292508806772,0.24388027356404252,-0.6764094008476533,-127.71474062830828,-16.419805484293857,-49.2780512898035,0.0012,-0.8977,-0.1428,-0.4169
3031076.0,137.948223,1.0,7.31,1.49,-6.36,-9.88,-11.38,10.0,-17.12,-36.31,-3.94,0.2790689114532543,0.19371241593503416,0.009181141025610629,-128.95070405160266,-16.13041264048083,-48.070674990989744,-0.0065,-0.9024,-0.1403,-0.4073
3031111.0,137.989787,1.0,7.17,0.81,-6.83,-9.56,-11.75,9.19,-11.44,-22.62,-6.0,-0.17894831233226816,-0.5044635901584206,-0.11440810827241599,-129.83545382657297,-16.10726571114575,-47.143854289929536,-0.0126,-0.9057,-0.1401,-0.3999
3031148.0,138.029683,1.0,6.54,1.6,-6.72,-9.0,-12.19,10.5,-27.87,-38.13,4.0,-0.19352047649860005,0.2943183765179215,0.30055056235368305,-130.735045365197,-15.73700413286234,-46.30751972941107,-0.0196,-0.909,-0.1369,-0.3932
3031183.0,138.05262,1.0,6.89,1.68,-7.64,-9.0,-12.19,10.5,-17.12,-38.5,1.19,-0.44185646418585023,0.2290957961138571,-0.6056685689480386,-131.7904095910964,-15.401597439742238,-45.2750645639147,-0.0255,-0.9128,-0.134,-0.3849
3031218.0,138.137652,1.0,6.88,1.76,-8.35,-9.38,-11.75,9.5,-20.87,-88.44,-3.94,-0.5173489201325538,0.12950803672459799,-1.141869432474028,-134.05726525899885,-15.124119969217903,-42.91364872106161,-0.0344,-0.9207,-0.1316,-0.3658
3031252.0,138.16957,1.0,5.69,1.22,-7.04,-9.69,-12.88,10.38,-21.31,-109.31,0.94,0.029230759299626374,-0.3543367176304815,0.6797835578277684,-137.7829624670443,-14.696516297153032,-38.962699019274915,-0.0456,-0.9329,-0.1279,-0.3335
3031289.0,138.172557,1.0,5.33,2.16,-7.8,-9.0,-12.88,10.69,-39.81,-77.56,4.13,-0.18984195890757594,0.42555564013017233,0.12691020867339908,-139.93551354464947,-14.072813487232235,-36.69748080490138,-0.0572,-0.9395,-0.1225,-0.3148
3031322.0,138.195369,1.0,5.95,2.12,-10.06,-9.0,-12.88,10.69,-35.81,-85.75,1.44,-0.5062102724791409,-0.21375204953093502,-2.059206952675515,-142.70368938881404,-13.345688086437221,-33.6081640231361,-0.072,-0.9475,-0.1162,-0.2891
3031359.0,138.235531,1.0,4.67,3.63,-8.34,-8.56,-13.25,10.38,-49.5,-162.88,0.63,0.31243850522001004,1.355871436603512,-0.3227821078656028,-146.1159090950019,-12.549930441445206,-29.57087281914313,-0.0883,-0.9566,-0.1093,-0.2552
3031396.0,138.276557,1.0,4.32,5.33,-8.48,-6.69,-13.75,10.69,-7.19,-169.19,-33.5,1.2407805155213245,2.7031731712276725,-0.6878732630480968,-151.16170585731885,-11.939110700430108,-23.214281072524358,-0.1036,-0.9685,-0.104,-0.2012
3031431.0,138.299702,1.0,3.03,7.46,-3.9,-6.69,-13.75,10.69,121.56,-167.06,-112.87,3.102035683604921,5.693353458348552,3.6417817113865043,-154.52996593229264,-14.25756979612918,-17.85679155473376,-0.0956,-0.9754,-0.1241,-0.1552
3031465.0,138.356297,1.0,2.48,5.56,-3.1,-6.0,-14.06,11.56,96.31,-31.44,-215.38,3.420035171523052,3.953922473461973,5.4084848712903435,-153.91350924378722,-21.32226479540238,-12.930431986971731,-0.0631,-0.9742,-0.185,-0.1126
3031500.0,138.38223,1.0,3.48,1.67,-6.86,-3.0,-13.38,14.88,86.5,70.69,-278.88,2.0462581202705428,-0.5390503287790211,2.2250174285632855,-147.2755852976408,-29.203628467396104,-13.207250097467806,-0.0503,-0.9595,-0.2521,-0.115
3031537.0,138.421124,1.0,3.97,-2.62,-10.91,-0.69,-11.88,15.25,142.38,45.38,-180.5,-1.1335923799796874,-3.7664448397607075,-1.426437802785662,-138.84577222800962,-38.53755098296754,-13.85346307502466,-0.0062,-0.9362,-0.33,-0.1206
3031572.0,138.445757,1.0,2.86,-0.36,-10.98,-0.69,-11.88,15.25,77.31,-90.87,-143.38,-0.016192986725025227,-1.292891610222246,-1.4715488398590466,-133.96925884777576,-44.69214333160207,-10.407757691617306,0.01,-0.9204,-0.3802,-0.0907
3031609.0,138.481869,1.0,1.41,-4.53,-7.8,1.5,-9.5,17.0,113.06,-66.75,-122.69,-3.247928746237533,-3.2634566613513205,1.9231349541054605,-130.3242488651211,-48.98825821247561,-7.28146304696003,0.0247,-0.9075,-0.4146,-0.0635
3031646.0,138.514702,1.0,1.36,-3.82,-9.3,3.38,-7.38,18.19,65.12,-11.5,-51.13,-2.573119841988177,-2.3260600818880928,0.2724746935451474,-127.81886761171006,-51.60876975650738,-5.215716631990905,0.0432,-0.8981,-0.4353,-0.0455
3031681.0,138.566599,1.0,1.37,-2.71,-10.14,3.38,-7.38,18.19,17.81,-1.94,-11.25,-1.6392470578716118,-1.4659182974061,-0.5473131363352497,-127.22274573469288,-52.19500183844675,-4.802792327898412,0.0486,-0.8958,-0.4399,-0.0419
3031713.0,138.59159,1.0,1.33,-1.96,-10.37,4.06,-6.38,18.69,-1.37,-6.13,13.0,-1.031049526118891,-0.966032158929064,-0.7361730916868225,-127.7407542896587,-51.65968866130367,-4.63075925768904,0.0489,-0.8978,-0.4357,-0.0404
3031750.0,138.626002,1.0,1.35,-0.92,-9.62,4.88,-6.0,19.37,8.25,1.88,25.06,-0.14534482824651884,-0.42768194414780675,0.05938048307620036,-128.57965137649458,-50.83360168709926,-4.550480755424785,0.0496,-0.901,-0.4292,-0.0397
3031785.0,138.668811,1.0,1.64,-0.13,-10.77,4.88,-6.06,18.19,-1.31,13.19,22.37,0.6027041127392297,0.05511336212019188,-1.0714523285223336,-129.59271976099836,-49.732317201837574,-4.802792327898412,0.0513,-0.9048,-0.4205,-0.0419
3031820.0,138.694909,1.0,1.31,-0.24,-10.45,4.88,-6.06,18.19,-3.13,-10.0,16.62,0.32778183282318557,0.1618390601682196,-0.7215296711812886,-130.10645331555745,-49.252838576036496,-4.68810243496922,0.0499,-0.9067,-0.4167,-0.0409
3031857.0,138.733127,1.0,0.75,0.65,-8.83,4.06,-5.69,17.0,-7.44,-9.69,15.06,0.7253576783735726,0.8826922701988498,0.9948050969983733,-131.03834889093932,-48.42223359833176,-4.2293886949276756,0.0463,-0.9101,-0.4101,-0.0369
3031891.0,138.760683,1.0,0.93,0.39,-9.48,4.88,-6.5,19.5,-0.31,13.25,2.38,0.6108020367547986,0.6798667890614564,0.31707139918597527,-131.37124925693712,-48.05812824174451,-4.389930414609093,0.047,-0.9113,-0.4072,-0.0383
3031926.0,138.852817,1.0,1.23,-0.05,-10.63,4.88,-6.5,19.5,-0.5,8.81,-6.5,0.3855792646123207,0.3491656253022399,-0.8817414597477367,-131.17679840124268,-48.20872972254528,-4.791323123878448,0.048,-0.9106,-0.4084,-0.0418
3031961.0,138.855838,1.0,0.9,-0.13,-9.38,3.75,-6.56,17.75,-1.44,-8.13,3.44,0.17892401932856217,0.3624725023534868,0.39134863040248113,-131.48269259246572,-47.92015436839679,-4.584885551911774,0.0472,-0.9117,-0.4061,-0.04
3031998.0,138.863901,1.0,0.92,0.13,-9.0,4.5,-6.06,18.19,0.06,9.19,-4.81,0.3869963967082879,0.47680779734206613,0.7796799594310908,-131.6503100355004,-47.75718944121001,-4.6536963885673295,0.0469,-0.9123,-0.4048,-0.0406
3032031.0,138.909426,1.0,1.26,-0.78,-10.18,4.5,-6.06,18.19,2.19,10.94,-7.38,-0.14174264123859526,-0.18281227146746418,-0.4780419592691576,-131.37124925693712,-47.95777627551156,-4.96336629149859,0.0488,-0.9113,-0.4064,-0.0433
3032066.0,138.933843,1.0,1.38,-0.69,-10.36,4.06,-6.75,18.56,1.0,1.12,1.06,-0.010430255603184113,-0.17377761756777071,-0.6661620650282156,-131.59437695002575,-47.73212702761914,-5.0551272004985615,0.0492,-0.9121,-0.4046,-0.0441
3032100.0,138.979085,1.0,1.22,-0.37,-9.45,4.06,-6.75,17.37,-5.94,-0.81,0.19,0.15056305478637577,0.018250922777582612,0.27224924954110463,-131.93089302515688,-47.40653562717492,-5.0436569106979485,0.0477,-0.9133,-0.402,-0.044
3032137.0,139.001533,1.0,1.16,-0.88,-9.64,3.75,-6.06,17.37,0.12,3.63,-6.5,-0.29208320184638137,-0.24965469485448238,0.06488630257147499,-131.93089302515688,-47.394021008570846,-5.15836210329675,0.0477,-0.9133,-0.4019,-0.045
3032170.0,139.049404,1.0,1.34,-0.89,-9.88,3.75,-6.06,17.37,0.88,8.25,1.5,-0.2068875138637032,-0.3330407745248036,-0.19576877743134702,-131.87465337051762,-47.431566664841014,-5.307486603594609,0.0485,-0.9131,-0.4022,-0.0463
3032207.0,139.069779,1.0,1.34,-0.45,-9.64,4.88,-6.75,18.56,-1.5,0.88,2.63,0.10559775118335213,-0.05410825400562455,0.06428779097730875,-132.09998463629478,-47.15635695640367,-5.479564528582773,0.0485,-0.9139,-0.4,-0.0478
3032242.0,139.114681,1.0,1.45,-0.48,-10.07,4.5,-6.06,18.56,-7.5,3.13,5.25,0.11023126322031274,-0.09921823580693523,-0.3774456795531034,-132.29797094336487,-46.98137369898727,-5.628708719478254,0.0479,-0.9146,-0.3986,-0.0491
3032274.0,139.152297,1.0,1.41,0.21,-10.01,4.5,-6.06,18.56,-2.25,1.37,2.44,0.5675653454552717,0.3788542209448863,-0.281295234680373,-132.41145409892673,-46.84396830154976,-5.7319679651977244,0.0468,-0.915,-0.3975,-0.05
3032311.0,139.194408,1.0,1.14,-0.38,-9.38,4.5,-6.75,18.56,-0.81,2.94,-2.44,-0.005311639615625419,0.09737202731962169,0.35049377906221935,-132.49673400768697,-46.756565664840636,-5.697547703194251,0.0471,-0.9153,-0.3968,-0.0497
3032346.0,139.235478,1.0,1.3,-0.42,-9.75,4.06,-6.75,19.0,2.81,5.69,-0.63,0.03048032140418122,0.03236327496812133,-0.03849720907922638,-132.6106654204018,-46.606799554332326,-5.904077101832591,0.048,-0.9157,-0.3956,-0.0515
3032381.0,139.248009,1.0,1.46,-0.44,-10.42,4.06,-6.75,19.0,3.06,-1.44,0.25,0.08595280110970571,0.008511527416283166,-0.7239786455217132,-132.58215838722379,-46.61927683962218,-5.949975106955118,0.0488,-0.9156,-0.3957,-0.0519
3032414.0,139.299222,1.0,1.12,-0.42,-9.56,3.0,-7.19,18.19,-3.0,-9.0,3.56,-0.05574095322064443,0.1020731763189838,0.17280995499145568,-133.0977829759083,-46.18291852714496,-5.697547703194251,0.0467,-0.9174,-0.3922,-0.0497
3032451.0,139.319721,1.0,1.05,0.75,-9.24,3.75,-6.75,17.75,-10.81,4.31,1.25,0.718217320336386,0.8909328171824802,0.5474382303062022,-133.47352940641977,-45.80946044511175,-5.846705927689754,0.0442,-0.9187,-0.3892,-0.051
