TIME,ELAPSED_SECONDS,PSTATE,acc_x,acc_y,acc_z,mag_x,mag_y,mag_z,gyr_x,gyr_y,gyr_z,lin_x,lin_y,lin_z,eul_x,eul_y,eul_z,qua_w,qua_x,qua_y,qua_z
2056443.0,348.498662,1.0,-3.17,-1.36,-9.06,10.69,-23.0,32.0,-0.63,3.0,-0.88,-0.05991504154267391,-0.24573588108866184,0.11551363399304293,-159.99488438452414,-0.08021409786913415,18.808599629302385,0.0584,-0.9848,-0.0007,0.1634
2056480.0,348.514753,1.0,-3.05,-1.3,-9.39,10.25,-22.56,32.06,0.63,-2.25,0.0,0.14873064306267403,-0.1508165001287482,-0.1492393916667787,-160.0609663655873,-0.08021409786913415,18.75052573300884,0.0584,-0.9849,-0.0007,0.1629
2056515.0,348.569226,1.0,-3.06,-1.43,-9.16,10.25,-23.37,32.0,0.37,-1.44,-0.06,0.07544583573263197,-0.29387222945136876,0.04847153070421051,-159.99488438452414,-0.10313241704642769,18.796984460560502,0.059,-0.9848,-0.0009,0.1633
2056548.0,348.591545,1.0,-3.18,-1.13,-9.03,10.25,-23.37,32.0,1.44,-0.44,-0.94,-0.07553772440212447,-0.008064676118232148,0.16691820844110872,-159.9290177639615,-0.1145915781247664,18.855062255560348,0.059,-0.9847,-0.001,0.1638
2056583.0,348.631473,1.0,-3.09,-1.35,-9.31,10.69,-23.37,32.0,4.94,5.38,-4.19,0.08090449926770549,-0.1748418168125394,-0.09332903033597084,-160.0609663655873,-0.1833465726697912,18.72729753587516,0.06,-0.9849,-0.0016,0.1627
2056620.0,348.718846,1.0,-3.09,-1.56,-9.22,10.0,-22.56,32.38,1.69,1.69,0.19,0.02755220623915111,-0.36364127562148363,-0.034950779273449584,-160.12726585571855,-0.22918327084134968,18.56472183693924,0.0615,-0.985,-0.002,0.1613
2056654.0,348.846228,1.0,-3.1,-1.38,-9.1,10.0,-22.56,32.38,-1.81,0.5,2.5,-0.02026344760567933,-0.20464252157599708,0.096752429425214,-160.12726585571855,-0.1718874029970642,18.576333132780544,0.0613,-0.985,-0.0015,0.1614
2056687.0,348.926388,1.0,-3.04,-1.17,-9.33,10.0,-22.19,32.06,-0.31,1.25,2.88,0.0973462891557717,0.01918756055129647,-0.07512896623415344,-160.19378503937318,-0.057295781900406746,18.51827857520288,0.0609,-0.9851,-0.0005,0.1609
2056722.0,348.986885,1.0,-3.04,-1.41,-9.26,10.56,-23.0,32.56,0.88,0.5,0.25,0.07801962808510288,-0.2260781247803125,-0.03815074044819511,-160.19378503937318,-0.03437746822351143,18.506668239532367,0.061,-0.9851,-0.0003,0.1608
2056759.0,349.054149,1.0,-3.1,-1.35,-9.27,10.25,-23.0,30.37,-1.0,-0.06,1.19,0.017312469559303434,-0.16485569797349328,-0.05934832136836832,-160.26052613773837,-0.011459155921715059,18.471838381894358,0.061,-0.9852,-0.0001,0.1605
2056794.0,349.140799,1.0,-3.16,-1.19,-9.07,10.25,-23.0,30.37,1.25,0.5,-0.06,-0.10372443544781662,-0.024963755843709676,0.12908739093436417,-160.19378503937318,-0.011459155921715059,18.483448143006754,0.0612,-0.9851,-0.0001,0.1606
2056830.0,349.170947,1.0,-2.94,-1.4,-9.62,9.5,-22.25,31.87,0.25,0.37,0.19,0.27092602068828286,-0.1617866532720809,-0.34462697238810414,-160.26052613773837,0.0,18.4137924426918,0.0617,-0.9852,0.0,0.16
2056865.0,349.22586,1.0,-3.13,-1.26,-9.03,10.25,-22.19,31.19,-1.81,-2.88,0.69,-0.08615122861927871,-0.09894052424062633,0.16776060658592584,-160.19378503937318,0.022918311958021676,18.483448143006754,0.0613,-0.9851,0.0002,0.1606
2056900.0,349.232561,1.0,-3.2,-1.24,-8.94,10.25,-22.19,31.19,-0.69,0.44,-0.12,-0.17182127283596849,-0.0900240400352163,0.23254047887915696,-160.12726585571855,0.011459155921715059,18.541499822002773,0.0612,-0.985,0.0001,0.1611
2056935.0,349.238524,1.0,-2.98,-1.26,-9.16,9.88,-22.69,33.06,0.25,4.81,-0.56,0.09119010036801733,-0.08815921247013221,0.09287049257594227,-160.26052613773837,0.022918311958021676,18.448619433327217,0.0612,-0.9852,0.0002,0.1603
2056970.0,349.2444,1.0,-2.68,-1.47,-8.69,10.25,-23.0,33.06,-1.63,7.69,1.75,0.19138396254753287,-0.36556642399135314,0.6039800956445394,-160.46210370241806,0.057295781900406746,18.193261198253683,0.0609,-0.9855,0.0005,0.1581
2057005.0,349.250064,1.0,-2.46,-1.52,-7.98,10.25,-23.0,33.06,-6.56,17.81,4.38,0.12716035296620376,-0.5326392445667258,1.3365540336144424,-160.87156803103977,0.1718874029970642,17.821993257993135,0.0594,-0.9861,0.0015,0.1549
2057039.0,349.255756,1.0,-2.74,-0.92,-7.64,9.88,-22.69,31.69,-24.0,76.12,13.13,-0.5070251726258501,-0.09122124259572262,1.6544598550620755,-162.8334582675195,0.561500886182872,16.03782888845279,0.0529,-0.9888,0.0049,0.1395
2057074.0,349.260825,1.0,-1.0,0.64,-6.96,8.5,-22.19,32.5,-20.25,130.25,5.56,0.3762548356444327,1.2689475573562639,2.871276585732116,-167.44083871780595,1.0427975798203954,11.443790822449783,0.0454,-0.994,0.0091,0.0997
2057111.0,349.266369,1.0,0.3,0.56,-6.16,5.5,-23.37,32.06,10.63,162.19,-23.56,1.0330426075531869,1.1399416627765684,3.808103844768225,-171.12155545031425,0.893823223927814,7.017388604693049,0.0467,-0.997,0.0078,0.0612
2057146.0,349.273257,1.0,0.35,-0.61,-5.93,5.5,-23.37,32.06,29.87,179.31,-41.31,0.35375337358520903,0.04966565831995021,3.8457866503617337,-173.72277700249086,-0.20626491763025412,0.04583662483277591,0.0555,-0.9985,-0.0018,0.0004
2057183.0,349.278882,1.0,1.9,-1.92,-7.29,2.5,-23.37,33.25,9.56,237.88,-58.19,1.0125242327816235,-1.0557776327580375,2.171165191017807,-170.40978378389514,-1.4095117183833985,-6.512305468988995,0.0601,-0.9965,-0.0123,-0.0568
2057220.0,349.35288,1.0,2.89,-1.67,-9.37,-2.75,-22.56,33.69,-68.0,200.0,-27.19,0.21223613947907127,-0.8227048130024431,-0.10374921555946592,-163.4590136286695,-2.4295230620087382,-15.482545411826456,0.0469,-0.9896,-0.0212,-0.1347
2057254.0,349.35839,1.0,3.03,1.29,-10.47,-2.75,-22.56,33.69,-51.31,128.13,-15.69,-0.6140587093235568,1.9099046443139667,-0.9841375593550534,-159.73268910086296,-2.4180613422720283,-19.796614956633128,0.0311,-0.9844,-0.0211,-0.1719
2057289.0,349.360509,1.0,5.43,-1.04,-13.97,-8.38,-23.37,30.75,16.94,98.19,-38.56,-0.7114064319422924,-0.28544987552884166,-5.198009918077172,-155.75453926974473,-3.335085177891311,-23.76437852052494,0.0302,-0.9777,-0.0291,-0.2059
2057324.0,349.37129,1.0,5.28,-1.96,-13.61,-10.0,-24.87,30.06,-6.06,22.5,-24.37,-1.0394975634502939,-1.2649975453460016,-4.831359633343242,-154.68638599830706,-4.194987989089829,-24.725463298356363,0.0295,-0.9757,-0.0366,-0.2141
2057361.0,349.392321,1.0,4.93,-0.88,-12.31,-11.5,-24.5,29.56,-23.62,9.25,-2.69,-0.8480255201767837,-0.4369133382038082,-3.448739826482978,-154.27134430279997,-4.309658496908005,-25.230149327633615,0.0229,-0.9749,-0.0376,-0.2184
2057396.0,349.451868,1.0,5.18,-0.19,-11.59,-11.5,-24.5,29.56,-17.19,15.5,-4.94,-0.392761951240546,0.042013057138209284,-2.8835262380468016,-153.76161968319718,-4.298191253728037,-25.8058643261674,0.0167,-0.9739,-0.0375,-0.2233
2057433.0,349.464496,1.0,5.39,0.06,-11.21,-11.19,-25.56,28.75,-6.31,2.19,0.75,-0.07773901339089484,0.2086840536067792,-2.629997764231618,-153.5103719816942,-4.275256896440698,-26.06456338881546,0.0145,-0.9734,-0.0373,-0.2255
2057469.0,349.502698,1.0,4.94,0.04,-10.3,-10.75,-25.56,29.5,-0.56,-3.81,2.31,-0.053320508768324615,0.1757777450788993,-1.6153226451992353,-153.66083809692267,-4.286724053610707,-25.9116795113663,0.0145,-0.9737,-0.0374,-0.2242
2057502.0,349.55565,1.0,4.45,-0.37,-9.86,-10.75,-25.56,29.5,13.5,-21.56,1.0,-0.22813000364167113,-0.17767377800209408,-1.0134881104886535,-154.1686085419062,-4.286724053610707,-25.359334591166075,0.0167,-0.9747,-0.0374,-0.2195
2057537.0,349.637759,1.0,4.23,-0.83,-10.35,-11.0,-25.19,28.56,9.44,-26.56,8.56,-0.4720825994220399,-0.5164807277278662,-1.383286803986362,-155.16145880106285,-4.194987989089829,-24.350199497398,0.0206,-0.9766,-0.0366,-0.2109
2057574.0,349.648475,1.0,4.21,-0.06,-10.64,-10.75,-25.56,28.06,12.75,-55.19,9.94,-0.2745202535425406,0.31658979632932777,-1.6284586366179798,-156.5307030363511,-3.919795697049856,-22.99205586322248,0.0228,-0.9791,-0.0342,-0.1993
2057611.0,349.766729,1.0,3.87,-0.5,-10.4,-10.38,-24.87,28.87,41.5,-87.56,-1.25,0.07165931381522261,0.06949636546837909,-1.300867058187679,-159.28174778831308,-4.160587661476331,-19.92458285893286,0.0327,-0.9837,-0.0363,-0.173
2057644.0,349.772299,1.0,3.15,-0.61,-10.48,-10.38,-24.87,28.87,55.19,-147.25,-1.37,0.08385838311923521,0.2055268469867581,-1.1512570303935483,-162.45372607444324,-4.561948975165956,-16.165134277085013,0.0436,-0.9883,-0.0398,-0.1406
2057682.0,349.778379,1.0,1.16,-2.51,-8.3,-8.06,-23.0,30.56,58.81,-138.88,-8.56,-0.5475493260572679,-1.497232952656895,1.2046628330127973,-166.4334221875333,-5.376316314590642,-10.235170717586842,0.0612,-0.993,-0.0469,-0.0892
2057717.0,349.85299,1.0,1.25,-2.57,-9.17,-2.88,-22.56,33.56,18.87,-87.06,11.13,-0.13589209873974994,-1.3257251984452953,0.29453740417212515,-167.7591504670043,-5.9155515139479675,-7.224052314144023,0.0693,-0.9943,-0.0516,-0.063
2057752.0,349.85711,1.0,1.09,-1.61,-9.72,-2.88,-22.56,33.56,-4.56,-94.37,37.94,0.35480646637781865,-0.30902539660756856,-0.09472443366667171,-169.8762554971796,-5.066597540981832,-3.782208130568333,0.0693,-0.9961,-0.0442,-0.033
2057787.0,349.860577,1.0,0.67,-0.99,-9.95,-0.25,-21.5,33.25,-11.38,-112.56,37.81,0.717994624017429,0.24721770381350533,-0.18609072148393757,-171.57737873151558,-4.000057708800217,0.4239897358038088,0.0643,-0.9973,-0.0349,0.0037
2057824.0,349.865648,1.0,0.29,-3.2,-9.9,0.5,-21.87,32.0,0.81,-110.69,29.06,0.7840844020307333,-1.9623258102239962,-0.38494403945333744,-171.27085645575488,-3.380941489627292,3.679021045975539,0.063,-0.9971,-0.0295,0.0321
2057859.0,349.888388,1.0,-0.46,-3.53,-8.01,0.5,-21.87,32.0,-21.75,-135.31,65.25,0.7066596000429656,-2.631994406150148,1.4756333960277424,-169.1248093860893,-1.4668120111410634,8.705871826379285,0.0549,-0.9955,-0.0128,0.0759
2057893.0,350.017731,1.0,-0.58,-2.01,-7.47,2.38,-22.19,34.5,-86.37,-97.5,122.0,1.026755991311218,-1.492823488108821,2.2637957545795615,-167.44083871780595,1.3178319771025526,11.904546342091734,0.0339,-0.994,0.0115,0.1037
2057930.0,350.021674,1.0,-1.16,0.2,-5.99,5.38,-23.69,31.06,-99.37,-57.63,134.88,0.419833421070625,0.10667523214351457,3.717474333836372,-163.86220596785728,5.89260274896743,15.031647378904806,-0.0045,-0.9901,0.0514,0.1308
2057965.0,350.029077,1.0,-1.96,2.88,-3.52,4.69,-26.69,29.37,-98.87,10.19,132.25,-1.3367404408917147,2.348041013389291,5.656200820317587,-161.28990608516978,9.430066128049688,15.656031584502133,-0.0331,-0.9867,0.0822,0.1362
2058000.0,350.114316,1.0,-2.34,4.51,-1.3,4.69,-26.69,29.37,-72.81,148.56,95.62,-2.9082129374613714,3.6719099291134913,7.447608884872912,-161.5740259283265,12.688278342697656,10.764512919793646,-0.0676,-0.9871,0.1105,0.0938
2058035.0,350.123007,1.0,1.79,3.36,-3.33,2.5,-29.69,27.37,-14.0,408.25,47.56,1.0695776852630812,3.0655966066329996,5.928413155686914,-163.22171672296716,13.461068017168213,0.6417160846123932,-0.0869,-0.9893,0.1172,0.0056
2058072.0,350.126431,1.0,5.88,2.55,-14.54,-6.19,-31.19,25.19,13.25,353.5,5.44,1.334814357990279,0.2388150844386197,-6.025271487461575,-156.58711361479934,12.803582439206055,-15.667598608855753,-0.101,-0.9792,0.1115,-0.1363
2058108.0,350.143567,1.0,5.39,1.05,-13.17,-6.19,-31.19,25.19,26.12,145.19,-15.5,0.11109107262966367,-1.1878193383458777,-4.41235995122493,-152.67309729035,11.777819636455906,-21.648844944741544,-0.1,-0.9717,0.1026,-0.1878
2058141.0,350.263752,1.0,4.23,2.03,-10.47,-14.38,-30.19,22.37,-22.5,43.5,0.63,-0.7047784753871229,0.017579161877813526,-1.644886066122254,-150.65977940351806,11.271055753655437,-24.080642561887807,-0.1046,-0.9674,0.0982,-0.2086
2058178.0,350.277301,1.0,4.61,2.13,-10.9,-16.69,-30.19,20.69,-14.69,48.75,-0.56,-0.9016171676033844,-0.15249134390026559,-2.183463964142227,-148.85861645005238,11.224997424028942,-25.82937687407415,-0.1119,-0.9633,0.0978,-0.2235
2058215.0,350.372407,1.0,5.02,2.35,-10.83,-16.0,-31.0,19.87,-7.38,27.37,-2.94,-0.7543332005159669,0.020849842356124026,-2.3359340209847037,-147.93284627196644,11.09834637461124,-26.782577502705934,-0.1154,-0.9611,0.0967,-0.2316
2058248.0,350.37664,1.0,5.41,2.88,-10.74,-16.0,-31.0,19.87,0.06,2.56,-9.25,-0.5383773299581054,0.5689883079727864,-2.534196897842042,-147.80861501075395,10.764512919793646,-27.0182238619502,-0.116,-0.9608,0.0938,-0.2336
2058285.0,350.381857,1.0,4.76,1.42,-8.85,-17.06,-30.5,19.5,19.37,-14.94,-10.69,0.11991982258793898,-0.31820686264289694,-0.33637043913534725,-148.60349534227026,10.269686237501054,-26.594143494418116,-0.1111,-0.9627,0.0895,-0.23
2058321.0,350.389162,1.0,4.68,2.38,-8.8,-17.75,-30.5,19.37,-4.31,9.69,-1.12,-0.13501605013544893,0.5841042439779806,-0.4230808321564741,-148.56117141184754,10.212160888414617,-26.5588202853178,-0.1121,-0.9626,0.089,-0.2297
2058356.0,350.395558,1.0,4.75,1.92,-9.31,-17.75,-30.5,19.37,3.94,5.31,-5.94,-0.22778969284299722,0.01364265698242842,-0.817517060703862,-148.4345315385202,10.05110359058591,-26.80613693045263,-0.1119,-0.9623,0.0876,-0.2318
2058389.0,350.478107,1.0,4.43,1.36,-8.69,-16.25,-30.19,20.69,13.81,-9.88,-7.88,-0.07007966364863938,-0.3371961728223212,-0.03570681032632095,-149.02983560319493,9.579549083642284,-26.523499645829535,-0.1079,-0.9637,0.0835,-0.2294
2058426.0,350.4942,1.0,4.45,1.38,-8.44,-17.0,-30.5,19.87,-0.37,-4.13,-1.94,0.07890130197564149,-0.23530580200989382,0.16927972776872835,-149.24516700325162,9.499056247386589,-26.346934855604975,-0.1069,-0.9642,0.0828,-0.2279
2058461.0,350.502271,1.0,4.42,2.01,-8.47,-16.19,-30.5,20.19,3.25,-5.5,-2.25,-0.05568259739678494,0.3634833808892808,0.050514531477412916,-149.46197984083236,9.51055493545105,-26.135141087685632,-0.107,-0.9647,0.0829,-0.2261
2058496.0,350.522415,1.0,4.25,1.55,-8.42,-16.19,-30.5,20.19,11.25,4.44,-3.5,-0.09642673645302713,-0.05219785950654851,0.2489631842500728,-149.54912686270868,9.338084626655299,-26.1821984911941,-0.1048,-0.9649,0.0814,-0.2265
2058532.0,350.574143,1.0,4.71,1.49,-9.41,-15.38,-30.06,19.25,-0.25,-1.06,-0.81,-0.12607474828580623,-0.27203763758546107,-0.8170217137523395,-149.50552295905456,9.246109154854068,-26.358703855877888,-0.1033,-0.9648,0.0806,-0.228
2058567.0,350.65965,1.0,4.29,1.58,-8.4,-15.88,-30.5,20.56,6.06,-7.31,-2.94,-0.054691189118798444,0.02340560362105429,0.2433367116280305,-149.76806738505078,9.119652615329128,-26.170433719349266,-0.1024,-0.9654,0.0795,-0.2264
