TIME,ELAPSED_SECONDS,PSTATE,acc_x,acc_y,acc_z,mag_x,mag_y,mag_z,gyr_x,gyr_y,gyr_z,lin_x,lin_y,lin_z,eul_x,eul_y,eul_z,qua_w,qua_x,qua_y,qua_z
601188.0,285.903345,1.0,-7.0,-2.22,-6.35,36.19,-1.88,19.06,-10.38,-3.63,3.25,-0.2595579096269769,0.3312362280872012,0.10748445585380928,-113.12762124009943,-44.878048779944685,46.58184673902731,-0.04,-0.8345,-0.3817,0.3954
601221.0,285.926716,1.0,-7.03,-2.24,-6.65,36.19,-1.88,19.06,-2.19,4.31,1.56,-0.11848904471006258,0.2202125688663932,-0.12302606575345187,-113.19003713661378,-44.878048779944685,46.46958798664575,-0.0407,-0.8348,-0.3817,0.3945
601257.0,285.9704040000001,1.0,-7.14,-2.12,-6.54,36.56,-3.06,19.5,-7.69,3.5,1.19,-0.18958270482855724,0.4145992069539725,-0.094752218656863,-113.31502385151421,-44.940044922743645,46.257672305289105,-0.0416,-0.8354,-0.3822,0.3928
601292.0,285.989883,1.0,-6.77,-1.76,-6.88,35.5,-3.06,20.25,-1.12,4.69,0.19,0.3813790367105073,0.323787043448896,0.007945392713770259,-113.46110408162376,-44.927644585005865,46.08327914813054,-0.0419,-0.8361,-0.3821,0.3914
601325.0,286.030592,1.0,-6.71,-2.11,-6.81,35.5,-3.06,20.25,0.06,-1.75,0.63,0.1308390554352366,0.06510233663597198,0.01732199306625759,-113.44021811063548,-44.927644585005865,46.10818553492847,-0.0419,-0.836,-0.3821,0.3916
601362.0,286.0831560000001,1.0,-6.92,-2.04,-6.54,35.75,-2.69,20.25,-6.56,-8.63,-2.25,-0.05941296164892645,0.3069273658093007,0.07413410265334086,-113.21085389304196,-45.051672965046905,46.257672305289105,-0.0439,-0.8349,-0.3831,0.3928
601399.0,286.089698,1.0,-6.79,-1.97,-6.49,35.75,-3.38,20.56,-4.0,-4.81,-2.88,0.0187319241739764,0.26283858321210785,0.21312796718057392,-113.02370899765695,-45.13852596002858,46.38230826013582,-0.0458,-0.8340000000000001,-0.3838,0.3938
601432.0,286.146751,1.0,-6.76,-2.36,-6.44,35.75,-3.38,20.56,-1.19,-6.75,-4.88,-0.2409523199797743,-0.0225723884470983,0.17948881578914389,-112.79560178360883,-45.26264916304815,46.53194812307301,-0.0465,-0.8329,-0.3848,0.395
601466.0,286.2109220000001,1.0,-6.85,-2.46,-6.53,36.19,-3.38,19.06,-1.75,1.25,-3.31,-0.2862859607901824,-0.061499973902712224,0.03274299707305062,-112.6714672903495,-45.43651590599992,46.50700231874489,-0.0466,-0.8323,-0.3862,0.3948
601501.0,286.229281,1.0,-6.6,-2.2,-6.71,35.5,-3.06,19.87,0.75,8.63,-0.81,0.07471690101091916,-0.07333492849160607,0.14160269680657578,-112.83702493862923,-45.43651590599992,46.30751972941107,-0.0457,-0.8331,-0.3862,0.3932
601536.0,286.232436,1.0,-6.54,-2.4,-6.98,35.5,-3.06,19.87,6.56,10.56,-1.25,0.10573869392260477,-0.2881203401645498,-0.050215931836092416,-113.12762124009943,-45.39924946360132,46.03347327955085,-0.0428,-0.8345,-0.3859,0.391
601571.0,286.271318,1.0,-6.73,-2.33,-6.93,35.75,-3.38,19.0,3.56,2.31,1.81,0.0419438778984256,-0.08243721012680537,-0.13005694030438342,-113.25250462483365,-45.324731779489326,45.95878171202678,-0.0415,-0.8351,-0.3853,0.3904
601604.0,286.327691,1.0,-6.81,-2.16,-6.77,35.75,-2.25,19.37,2.56,1.19,1.5,0.028136916386428484,0.15257030461750998,-0.034616718064556906,-113.31502385151421,-45.26264916304815,45.95878171202678,-0.0408,-0.8354,-0.3848,0.3904
601640.0,286.343233,1.0,-6.65,-2.2,-6.69,36.19,-3.06,19.0,8.88,3.88,2.94,0.01835300096617953,0.07756747939839402,0.12097777482660454,-113.46110408162376,-45.12611671542185,45.93388911170107,-0.0391,-0.8361,-0.3837,0.3902
601673.0,286.386393,1.0,-6.84,-2.17,-6.46,36.19,-3.06,19.0,4.06,-1.88,1.25,-0.16133592291113236,0.2994379291009429,0.15727656714985727,-113.48199585621887,-44.989651826175965,46.045923884135675,-0.0381,-0.8362,-0.3826,0.3911
601710.0,286.404058,1.0,-6.8,-1.98,-6.54,35.5,-3.75,20.56,0.37,2.81,-2.44,0.033367815265534034,0.387049507845483,0.1743564378528717,-113.56562110150705,-44.89044689976561,46.045923884135675,-0.0373,-0.8366,-0.3818,0.3911
601745.0,286.445878,1.0,-6.5,-2.31,-6.68,35.5,-1.88,21.06,9.63,8.63,-2.56,0.01942003167335632,-0.03993778829170402,0.20422698102004053,-113.69123402259356,-44.878048779944685,45.94633512532466,-0.0352,-0.8372,-0.3817,0.3903
601780.0,286.501325,1.0,-6.14,-2.52,-6.97,35.5,-1.88,21.06,2.94,2.38,-4.44,0.2106620142606551,-0.4543057360825318,0.19519184767419687,-113.75411958451244,-44.927644585005865,45.821900740364754,-0.0323,-0.8375,-0.3821,0.3893
601815.0,286.520628,1.0,-6.56,-2.57,-6.86,35.5,-2.25,20.69,-0.12,-0.63,-2.44,-0.04726190547977418,-0.1823496673945708,-0.0250647492739784,-113.64933964888505,-45.01445861245965,45.87166763185487,-0.0318,-0.8370000000000001,-0.3828,0.3897
601849.0,286.561925,1.0,-6.37,-2.66,-6.88,37.0,-1.56,19.87,3.44,3.38,-0.25,-0.0176387456456475,-0.3589386688410585,0.06715556206007632,-113.52379683838042,-45.200580565791434,45.84678304356361,-0.0319,-0.8364,-0.3843,0.3895
601884.0,286.56909,1.0,-6.37,-2.6,-6.9,37.0,-1.56,19.87,-0.31,-6.31,5.63,0.040579589356678165,-0.3215585517791257,0.06797178400449333,-113.56562110150705,-45.12611671542185,45.87166763185487,-0.0314,-0.8366,-0.3837,0.3897
601919.0,286.640028,1.0,-6.6,-2.33,-6.91,34.69,-1.88,19.5,-0.12,-9.94,8.25,0.15632482718664414,-0.0727040579998155,-0.027335797648655458,-113.48199585621887,-44.89044689976561,46.182918527144956,-0.0342,-0.8362,-0.3818,0.3922
601954.0,286.643093,1.0,-6.66,-2.65,-6.66,35.5,-2.25,19.75,5.0,-9.06,5.0,-0.2003022308298851,-0.2070513009445232,0.026531965175379923,-113.41933793772672,-44.679754048391246,46.46958798664575,-0.0344,-0.8359,-0.3801,0.3945
601987.0,286.678671,1.0,-7.13,-2.14,-6.2,35.5,-2.25,19.75,-0.06,-9.06,6.38,-0.3062244626614263,0.5476133812739766,0.13903156715329426,-113.29417835148298,-44.48160022735979,46.80650649596007,-0.0359,-0.8353,-0.3785,0.3972
602021.0,286.735356,1.0,-6.64,-2.52,-6.71,35.5,-1.88,19.5,17.5,3.5,2.75,-0.011513937376910529,-0.1720548244639315,0.03759863527554508,-113.46110408162376,-44.22173568720945,46.88143541316104,-0.0328,-0.8361,-0.3764,0.3978
602056.0,286.79117599999995,1.0,-7.32,-1.92,-6.12,36.19,-3.06,20.56,7.44,-4.63,6.13,-0.23552807458997005,0.8643238892392143,0.11538224286056575,-113.58654197734043,-43.801508905676954,47.131352218600796,-0.0309,-0.8367,-0.373,0.3998
602091.0,286.807165,1.0,-6.69,-2.18,-6.84,35.75,-3.06,19.06,37.13,31.19,-17.5,0.33020919767725104,0.1961849571889392,0.0012140918752532315,-113.92207363516451,-43.69037629572606,46.8939256305629,-0.0225,-0.8383,-0.3721,0.3979
602126.0,286.845704,1.0,-7.52,-2.24,-6.4,35.75,-3.06,19.06,35.38,38.75,-28.81,-0.31879662416651305,1.197693538452529,-0.24282256826790602,-114.4070649484192,-43.93739653048951,46.12063959224854,-0.0026,-0.8406,-0.3741,0.3917
602163.0,286.863716,1.0,-7.39,-2.65,-7.38,35.5,-1.56,21.06,31.06,48.69,-29.06,0.06991993229614124,0.8994650342131579,-0.9304387048256988,-115.10854164041076,-44.0239043163285,45.12611671542185,0.0139,-0.8439,-0.3748,0.3837
602200.0,286.916809,1.0,-8.25,-1.39,-7.76,34.69,-0.06,21.87,92.5,80.44,-52.31,0.7237025496831713,2.96512653137827,-1.1886435055185665,-115.55847283517146,-44.469220271844826,43.801508905676954,0.0446,-0.846,-0.3784,0.373
602232.0,286.935106,1.0,-6.27,-3.93,-9.62,34.69,-0.06,21.87,96.5,52.13,-61.06,1.4848136629094566,0.1983002884483005,-2.2373611832411893,-115.34387175567551,-44.71692355018706,43.18464974314042,0.077,-0.845,-0.3804,0.368
602267.0,286.97747799999996,1.0,-5.21,-4.77,-9.51,33.56,2.56,22.69,112.75,41.19,-86.81,1.8548333856907773,-0.09841907783299186,-1.8932220846189365,-113.37759496408128,-45.80946044511175,43.14768015800515,0.1225,-0.8357,-0.3892,0.3677
602302.0,286.995312,1.0,-1.98,-6.65,-8.32,31.25,6.25,24.69,133.69,8.75,-20.56,1.847818339028836,-3.138251115560997,-0.3964008830265495,-111.97181334084304,-45.324731779489326,44.03626472561431,0.1544,-0.8289,-0.3853,0.3749
602339.0,287.050671,1.0,-1.99,-8.29,-6.1,31.69,10.0,24.25,92.12,-42.69,19.69,0.1121418154780347,-3.957270430458225,0.09986706467883087,-109.94966130041858,-43.75211129257185,46.85645674888645,0.1802,-0.8189,-0.3726,0.3976
602374.0,287.097935,1.0,-1.1,-8.61,-4.75,31.69,10.0,24.25,73.25,-38.19,98.06,-0.19900119246174008,-5.024179226036617,1.284759269061185,-109.7303356928047,-41.096983557102725,49.17721568249704,0.1866,-0.8178,-0.35100000000000003,0.4161
602411.0,287.116533,1.0,-2.45,-6.14,-3.07,31.25,11.5,23.06,-17.62,-89.19,165.5,-0.6945417318790812,-3.0483145434917636,3.222396798108764,-110.77248545181585,-36.33548075823788,53.025890408491755,0.162,-0.823,-0.3118,0.4464
602445.0,287.15058799999997,1.0,-5.07,-3.6,-1.69,33.19,10.38,21.06,-41.69,-70.25,172.0,-1.8760927398493439,0.0011769897688593822,3.642132610440647,-111.70596708251541,-33.01011755272957,55.640597444132574,0.1282,-0.8276,-0.2841,0.4667
602480.0,287.210067,1.0,-6.25,-1.73,-1.81,33.19,10.38,21.06,-18.0,3.56,126.56,-1.6696412861580132,1.5269670243416251,3.4653433773763997,-113.88004967231205,-28.62376850418663,56.99233821526014,0.0947,-0.8381,-0.2472,0.4771
602515.0,287.228136,1.0,-7.13,-1.26,-2.87,35.06,4.06,19.56,-5.88,36.38,82.19,-1.2654529124828326,1.8931777868221065,2.3584349927803485,-116.59757736800644,-25.547298987438325,56.068593069762564,0.0801,-0.8508,-0.2211,0.47
602552.0,287.234529,1.0,-8.07,-0.59,-3.6,36.19,0.56,18.25,-28.62,54.81,67.19,-1.1967750783665747,2.600194871741534,1.425736204907624,-118.88063215220505,-23.79950985538602,54.69679474885505,0.0698,-0.8611,-0.2062,0.4594
602587.0,287.271247,1.0,-9.67,1.13,-4.77,36.19,0.56,18.25,-51.81,67.44,9.94,-0.9116495576957996,4.608979455363997,0.03603571716262799,-121.03358960360971,-23.57704958135869,52.68039020015169,0.0596,-0.8705,-0.2043,0.4437
602619.0,287.326214,1.0,-9.72,1.24,-6.56,35.0,-2.38,20.69,-22.75,101.69,-54.25,-0.0898744522928292,4.840501995214964,-0.945608507734322,-123.7205290097115,-25.03056340197877,48.96307461903554,0.0606,-0.8818,-0.2167,0.4144
602654.0,287.41767799999997,1.0,-7.91,0.23,-8.17,33.5,-2.75,22.75,-5.19,108.56,-73.81,1.1665803155456236,3.6379527838443058,-0.9066263387257488,-126.02359896120804,-27.348324709600163,44.65497713304196,0.0764,-0.8911,-0.2364,0.3799
602691.0,287.428845,1.0,-8.18,-0.28,-8.46,31.56,-2.75,24.75,-27.44,54.25,-137.38,0.8038791616577863,3.833091008479803,-1.2939622179888666,-125.77163105081793,-30.650725683430657,42.298669773319475,0.0875,-0.8901,-0.2643,0.3608
602726.0,287.432025,1.0,-6.89,-1.82,-8.51,31.56,-2.75,24.75,20.44,80.75,-134.69,0.7204986307375401,2.7482808393556373,-0.9233282922024576,-124.55228684017095,-35.095437786143385,39.21805551339583,0.1135,-0.8852,-0.3015,0.3356
602763.0,287.47718399999997,1.0,-2.02,-8.02,-8.96,30.5,0.56,27.19,63.56,53.69,-89.25,1.0027670729994764,-4.360711761565761,-1.536235485177485,-123.76914279530571,-36.44404119171296,37.56783922201158,0.1433,-0.882,-0.3127,0.322
602800.0,287.49414,1.0,-2.6,-7.54,-7.51,28.56,3.56,27.56,9.38,14.63,-104.44,-0.25863175318988096,-3.068899919137206,-0.7065161692642121,-121.47748834883792,-39.5953816587114,36.44404119171296,0.1627,-0.8724,-0.3387,0.3127
602832.0,287.533319,1.0,0.75,-11.06,-7.49,28.56,3.56,27.56,62.31,38.06,3.31,0.08618050777168529,-7.526436623671794,-1.2537082523321637,-121.08017234591215,-39.53449246452549,35.841352697842005,0.1811,-0.8707,-0.3382,0.3077
602867.0,287.593462,1.0,0.01,-10.59,-6.72,26.69,6.88,29.56,-8.25,-9.25,22.87,-0.4634496050566574,-6.837609829132984,-0.6975827796044616,-121.6183055994286,-38.53755098296754,36.10640826375515,0.1815,-0.873,-0.33,0.3099
602902.0,287.61141499999997,1.0,-1.36,-7.69,-6.27,26.37,7.69,29.19,-23.19,-6.56,80.06,-0.16649918971604105,-4.1656619174898495,0.7007102456968379,-122.9958904624243,-37.035689974508436,36.4923011370016,0.1699,-0.8788,-0.3176,0.3131
602939.0,287.651154,1.0,-1.74,-7.49,-6.19,27.5,5.5,29.56,15.0,13.25,123.75,-0.09691835958543547,-4.208021442586063,0.877654403052313,-125.821937957947,-33.15356371555689,37.02360533619834,0.1586,-0.8903,-0.2853,0.3175
602974.0,287.673325,1.0,-2.46,-7.23,-6.31,27.5,5.5,29.56,-19.12,13.44,156.0,-0.1447872277769937,-3.990424779694455,0.7404409390819193,-128.73836728652063,-29.168105022171197,37.26537941343616,0.1473,-0.9016,-0.2518,0.3195
603011.0,287.722309,1.0,-5.7,-0.44,-7.17,26.69,4.69,29.19,-88.87,-22.44,141.5,0.4490794009848415,2.670331147771071,1.0453624660324756,-132.61066542040177,-24.44399042905254,37.785778398919184,0.109,-0.9157,-0.2117,0.3238
603045.0,287.758989,1.0,-9.42,4.44,-7.2,25.87,-0.5,29.19,-53.0,-8.94,107.31,-0.8354011193087763,8.049353923381188,0.07012051634897888,-134.47008902668762,-21.917240280609395,38.197829443298346,0.0814,-0.9221,-0.1901,0.3272
603080.0,287.782343,1.0,-7.71,1.8,-8.54,25.87,-0.5,29.19,30.75,42.88,78.81,-0.0045140940727304,4.69437955616467,-0.8506704984000528,-137.1510918031107,-18.112030016161896,37.37423381555307,0.0771,-0.9309,-0.1574,0.3204
603115.0,287.823799,1.0,-6.76,0.77,-8.55,27.06,-5.0,28.0,4.81,15.88,41.63,0.2450578528098453,3.2962682189278203,-0.6081261607085295,-138.585728177911,-16.19985740781584,36.75785092937251,0.0762,-0.9354,-0.1409,0.3153
603152.0,287.840612,1.0,-6.65,-0.09,-8.14,25.25,-5.38,28.75,8.94,4.5,13.0,-0.142114678388769,2.3811679740899647,-0.4305391892918937,-138.91102916961097,-15.586632804931574,36.685408046310336,0.0758,-0.9364,-0.1356,0.3147
603185.0,287.88302999999996,1.0,-6.54,-0.62,-7.81,25.25,-5.38,28.75,4.69,5.06,-14.19,-0.3838387585193873,1.8705430715728213,-0.2186099180694168,-138.94369485234358,-15.656031584502133,36.56470362370221,0.0779,-0.9365,-0.1362,0.3137
603219.0,287.94303199999996,1.0,-5.3,-2.67,-7.81,25.19,-4.69,30.75,17.37,9.56,-9.88,0.10465585258104823,-0.3046444761407892,0.003016036225266916,-138.94369485234358,-15.887402736014533,36.20284159032565,0.085,-0.9365,-0.1382,0.3107
603254.0,288.00491,1.0,-4.88,-3.04,-7.97,25.19,-4.25,30.06,-7.31,-7.81,-9.44,0.454424255884646,-0.7487975153415016,0.01840700768099701,-138.7806141249359,-16.13041264048083,36.25106819831296,0.0858,-0.9359999999999999,-0.1403,0.3111
603291.0,288.01145099999997,1.0,-5.03,-3.03,-8.04,24.06,-4.75,31.56,-1.37,-10.63,-0.94,0.4260463030730395,-0.6815377552572421,-0.11692752203290267,-138.5209607780903,-16.223006993376618,36.504367169981776,0.0861,-0.9352,-0.1411,0.3132
603324.0,288.065198,1.0,-5.14,-2.58,-8.24,24.06,-4.75,31.56,-13.56,-22.0,0.56,0.6052470492533989,-0.244317490243517,-0.22069186977442,-138.1343678726239,-16.5471716366683,36.842386864351504,0.0837,-0.934,-0.1439,0.316
603363.0,288.0715600000001,1.0,-5.91,-1.97,-7.76,25.87,-4.38,29.56,-10.13,-17.37,-4.06,-0.05851325898743324,0.4838857124270711,-0.13261711663549391,-137.6241524258607,-16.906223928806188,37.39842842920397,0.0797,-0.9324,-0.147,0.3206
603398.0,288.127709,1.0,-5.72,-2.37,-7.59,26.56,-4.75,29.19,-1.63,-11.75,-2.81,-0.04170798647757705,0.015606292782715412,0.01168104203542697,-137.088392741319,-17.253853117357277,37.846342205002045,0.078,-0.9307,-0.15,0.3243
603430.0,288.145321,1.0,-5.79,-2.48,-7.31,26.56,-4.75,29.19,-5.25,-8.44,-5.06,-0.2599035814118359,-0.0933536207842176,0.16121920454789773,-136.83846436491558,-17.439320584956548,38.08870741479733,0.0768,-0.9299,-0.1516,0.3263
603465.0,288.184124,1.0,-5.69,-2.15,-7.58,26.19,-5.06,29.56,-8.75,-7.31,-8.5,0.08098484562542689,0.18339967341418795,0.08992184621435406,-136.58990657854866,-17.717608294742977,38.23421144458892,0.0754,-0.9291,-0.154,0.3275
603502.0,288.191873,1.0,-5.79,-2.45,-7.38,26.19,-5.06,28.37,0.75,-9.0,-7.31,-0.14312635241774233,-0.06550637101576308,0.11303231811260515,-136.15815825603806,-18.100426311736804,38.53755098296754,0.0749,-0.9277,-0.1573,0.33
603535.0,288.258134,1.0,-5.79,-2.51,-7.28,26.19,-5.06,28.37,0.5,-9.75,-7.0,-0.17678184003977102,-0.1111196081955157,0.17446433870242295,-135.8217429117077,-18.30932175034793,38.80472209856705,0.0753,-0.9266,-0.1591,0.3322
603568.0,288.27546,1.0,-6.07,-2.41,-7.19,26.87,-5.06,29.56,-5.5,-11.75,-11.25,-0.3504728308517345,0.08296609316838666,0.099982939560606,-135.30656135192416,-18.738911537329376,39.20589109359036,0.0746,-0.9249,-0.1628,0.3355
603604.0,288.319415,1.0,-5.58,-2.63,-7.33,26.5,-4.75,29.56,2.31,-4.0,-5.31,0.0662951716976787,-0.2694197377766208,0.23036585868996795,-135.12607315636853,-18.796984460560502,39.351894536966725,0.0758,-0.9243,-0.1633,0.3367
603639.0,288.337216,1.0,-5.77,-2.55,-7.21,27.25,-4.38,28.75,-2.63,-7.0,-5.25,-0.0977349430603644,-0.1235422425400361,0.2277834075887029,-134.8267795347168,-19.05256341690962,39.54666937259589,0.0756,-0.9233,-0.1655,0.3383
603674.0,288.382596,1.0,-5.64,-2.73,-7.43,27.25,-4.38,28.75,-2.5,-0.88,-6.38,0.09675469795972233,-0.31455985828435296,0.09278925238894332,-134.7075870499225,-19.23849904872923,39.571024584505096,0.076,-0.9229,-0.1671,0.3385
603709.0,288.400408,1.0,-5.6,-2.4,-7.41,27.25,-4.0,28.75,-7.5,-3.13,-4.5,0.196309499167742,-0.02776821430851984,0.21557125426912016,-134.5590130176977,-19.52912606682039,39.5953816587114,0.0748,-0.9224,-0.1696,0.3387
603744.0,288.447219,1.0,-5.86,-2.65,-7.34,27.69,-4.38,28.75,2.19,-3.19,1.69,-0.08123737129616207,-0.17590327069997924,0.04959314207086685,-134.47008902668762,-19.52912606682039,39.71719501771099,0.0745,-0.9221,-0.1696,0.3397
603777.0,288.510016,1.0,-5.91,-2.5,-7.51,27.69,-4.38,28.75,-5.0,-4.19,1.12,0.0471743593253251,-0.039898835253148864,-0.07132462351304625,-134.38132917213414,-19.54075377357945,39.826867038243506,0.0732,-0.9218,-0.1697,0.3406
603813.0,288.527097,1.0,-5.88,-2.41,-7.45,27.69,-4.0,29.56,-1.0,-3.19,-2.06,0.06612169203649579,0.015049225485315619,0.014796169256070968,-134.3222466489682,-19.54075377357945,39.92438520696097,0.0724,-0.9216,-0.1697,0.3414
603848.0,288.575302,1.0,-6.14,-2.7,-7.25,27.69,-4.0,28.37,0.94,-5.38,-1.19,-0.2963403612161212,-0.1602599735212804,-0.0644491855619247,-134.14543141113884,-19.61052428537218,40.09511461656773,0.0726,-0.9209999999999999,-0.1703,0.3428
603883.0,288.58442,1.0,-6.03,-2.56,-7.38,27.69,-4.0,28.37,3.06,1.0,-1.44,-0.0894671856278348,-0.06194481721712398,-0.06082477637088956,-134.0866361818657,-19.6570420373131,40.13171155486349,0.0728,-0.9208,-0.1707,0.3431
603916.0,288.637462,1.0,-5.74,-2.46,-7.57,28.0,-4.75,28.0,0.06,-0.56,-2.69,0.26935931614045505,-0.05447906983335082,-0.00296658729628696,-134.02791208505093,-19.72682480222871,40.13171155486349,0.0735,-0.9206,-0.1713,0.3431
603953.0,288.641168,1.0,-5.99,-2.5,-7.22,28.37,-4.75,27.56,5.31,-7.5,-1.5,-0.1146595488900795,-0.0025837278790907803,0.098645750299724,-133.79372158966166,-19.83151281371854,40.32696746513329,0.0736,-0.9198,-0.1722,0.3447
603987.0,288.6841490000001,1.0,-6.02,-2.57,-7.07,28.37,-4.75,27.56,2.13,-5.56,-2.75,-0.21599280939832727,-0.045757723205594125,0.17433702039560828,-133.58972143720712,-19.8664125287693,40.53456083395825,0.0745,-0.9191,-0.1725,0.3464
604022.0,288.74372200000005,1.0,-6.01,-2.59,-7.06,28.0,-5.06,27.56,-1.25,-3.06,-5.13,-0.195411188702837,-0.0585884212565273,0.18219251584929808,-133.3576107786115,-20.075850034388896,40.69340241756593,0.0745,-0.9183,-0.1743,0.3477
604055.0,288.756328,1.0,-5.95,-2.67,-6.9,27.69,-4.38,26.37,0.88,-1.12,-2.88,-0.2691716449641653,-0.1463266995746153,0.3173120292804974,-133.18424101457546,-20.25043303206116,40.766741444761,0.0746,-0.9177,-0.1758,0.3483
604090.0,288.810291,1.0,-6.06,-2.7,-6.92,27.69,-4.38,28.37,-2.19,0.88,-2.94,-0.3300544007047363,-0.12005388382749582,0.22663689157716504,-133.12658560187518,-20.27371434520358,40.81564381829703,0.0753,-0.9175,-0.17600000000000002,0.3487
604125.0,288.828681,1.0,-5.86,-2.61,-7.24,27.69,-4.38,28.37,-2.75,5.0,-2.13,0.032095728719734845,-0.09892319943085348,0.13408653084600886,-133.18424101457546,-20.343563363128432,40.73006975326216,0.0754,-0.9177,-0.1766,0.348
