acc_x,acc_y,acc_z,lin_x,lin_y,lin_z,eul_x,eul_y,eul_z
8.83,3.95,-2.69,0.1314628793782323,-0.1855406369020298,-0.2310684750023579,-105.5185544187127,-7.063311874799694,-68.43001555142907
8.83,3.95,-2.69,0.1314628793782323,-0.1855406369020298,-0.2310684750023579,-105.5185544187127,-7.063311874799694,-68.43001555142907
8.96,3.79,-2.93,-0.020494795840384,-0.4223780913601778,-0.3447921000802872,-105.5374920637476,-6.994427393261249,-68.43001555142907
8.96,3.79,-2.93,-0.020494795840384,-0.4223780913601778,-0.3447921000802872,-105.5374920637476,-6.994427393261249,-68.43001555142907
8.67,3.93,-2.68,0.0949132833212594,-0.0957420496489507,-0.0816271466306624,-105.67017110275856,-6.799268354310192,-68.36074272349704
8.67,3.93,-2.68,0.0949132833212594,-0.0957420496489507,-0.0816271466306624,-105.67017110275856,-6.799268354310192,-68.36074272349704
8.93,3.75,-2.78,0.1313843638857881,-0.352042533822972,-0.2628387756681008,-105.76506603938064,-6.627085616027942,-68.29149832235984
8.93,3.75,-2.78,0.1313843638857881,-0.352042533822972,-0.2628387756681008,-105.76506603938064,-6.627085616027942,-68.29149832235984
8.9,3.86,-2.79,0.1006514923979003,-0.1943391880747493,-0.2852180905497654,-105.91711433300468,-6.271288310584378,-68.22228228779733
8.9,3.86,-2.79,0.1006514923979003,-0.1943391880747493,-0.2852180905497654,-105.91711433300468,-6.271288310584378,-68.22228228779733
8.82,3.64,-2.79,0.1131855319936205,-0.3331774613902789,-0.1282522045800167,-106.05037621061464,-5.984399237389443,-68.13926040565448
8.82,3.64,-2.79,0.1131855319936205,-0.3331774613902789,-0.1282522045800167,-106.05037621061464,-5.984399237389443,-68.13926040565448
8.87,3.55,-2.79,0.1720540648568028,-0.3846793181789154,-0.1374899437523851,-106.29841038740038,-5.594289991509483,-67.93188335325443
8.87,3.55,-2.79,0.1720540648568028,-0.3846793181789154,-0.1374899437523851,-106.29841038740038,-5.594289991509483,-67.93188335325443
7.86,3.77,-2.16,0.3868556146809519,0.3727391821197268,0.8417457486706788,-106.77742482625295,-4.9518964029981625,-67.4627610420609
7.86,3.77,-2.16,0.3868556146809519,0.3727391821197268,0.8417457486706788,-106.77742482625295,-4.9518964029981625,-67.4627610420609
7.8,3.76,-2.4,0.1257738598608542,0.3142075556477715,0.8276158343366601,-106.70060178693237,-4.550480755424785,-67.4627610420609
7.8,3.76,-2.4,0.1257738598608542,0.3142075556477715,0.8276158343366601,-106.70060178693237,-4.550480755424785,-67.4627610420609
7.13,3.89,-1.89,0.2860113120108121,0.7809821885194685,1.5090982917780382,-106.58549683521667,-4.229388694927676,-67.49032089207272
7.13,3.89,-1.89,0.2860113120108121,0.7809821885194685,1.5090982917780382,-106.58549683521667,-4.229388694927676,-67.49032089207272
6.1,3.18,-1.4,0.4402093939617744,0.5727874268217947,2.823775931742527,-106.31751960155216,-4.011523869819651,-67.55923990117556
6.1,3.18,-1.4,0.4402093939617744,0.5727874268217947,2.823775931742527,-106.31751960155216,-4.011523869819651,-67.55923990117556
5.28,1.45,-1.04,0.7319439513706107,-0.6487420791921081,4.319766388446215,-105.68914179321384,-3.954193464226632,-68.05627918144376
5.28,1.45,-1.04,0.7319439513706107,-0.6487420791921081,4.319766388446215,-105.68914179321384,-3.954193464226632,-68.05627918144376
4.65,0.51,-0.01,1.5332359082649325,-1.0200708867814483,5.506493835911546,-104.29629314706914,-3.851001219583861,-69.082580917068
4.65,0.51,-0.01,1.5332359082649325,-1.0200708867814483,5.506493835911546,-104.29629314706914,-3.851001219583861,-69.082580917068
4.36,-0.95,3.31,4.709605791297261,-1.134844318153854,7.086366620619607,-102.75951351944929,-3.621696182670093,-70.1852588709464
4.36,-0.95,3.31,4.709605791297261,-1.134844318153854,7.086366620619607,-102.75951351944929,-3.621696182670093,-70.1852588709464
10.87,4.41,1.25,2.804068309932026,0.7104070619070235,-1.630133757666643,-97.96340007132606,-1.4782721132478738,-74.29945637663062
10.87,4.41,1.25,2.804068309932026,0.7104070619070235,-1.630133757666643,-97.96340007132606,-1.4782721132478738,-74.29945637663062
9.67,1.22,4.12,5.672874233295696,-0.600399493198229,0.8943148188156052,-95.36065966207356,-0.43544897228424,-76.2239014164758
9.67,1.22,4.12,5.672874233295696,-0.600399493198229,0.8943148188156052,-95.36065966207356,-0.43544897228424,-76.2239014164758
11.88,2.39,3.44,4.69593402511016,-0.5144108852296623,-1.87083624803172,-92.6386286008021,1.9710720103882065,-77.6288499193909
11.88,2.39,3.44,4.69593402511016,-0.5144108852296623,-1.87083624803172,-92.6386286008021,1.9710720103882065,-77.6288499193909
11.84,1.33,2.25,3.77671150940834,-1.9114536899462609,-1.555559070682223,-90.38849700989724,4.080321683767285,-78.11500148015571
11.84,1.33,2.25,3.77671150940834,-1.9114536899462609,-1.555559070682223,-90.38849700989724,4.080321683767285,-78.11500148015571
11.3,2.45,2.43,3.14757470399444,-0.6507858025490367,-1.562899301620316,-88.11820122886442,8.188805090876484,-76.6030617698578
11.3,2.45,2.43,3.14757470399444,-0.6507858025490367,-1.562899301620316,-88.11820122886442,8.188805090876484,-76.6030617698578
10.51,2.83,2.22,2.4222972495470008,-0.1091518143036662,-1.0339201840941623,-86.14135405488717,12.181091916848366,-74.77463787425259
10.51,2.83,2.22,2.4222972495470008,-0.1091518143036662,-1.0339201840941623,-86.14135405488717,12.181091916848366,-74.77463787425259
8.43,2.91,3.39,2.409698495282196,1.7315794204371548,0.739120795605162,-83.67188694987544,18.437010245615284,-70.38144582384912
8.43,2.91,3.39,2.409698495282196,1.7315794204371548,0.739120795605162,-83.67188694987544,18.437010245615284,-70.38144582384912
8.4,6.14,4.53,-0.1848500608546206,4.400585657027918,-0.6518956125678503,-80.18148049823861,25.418065988790868,-65.55798771264952
8.4,6.14,4.53,-0.1848500608546206,4.400585657027918,-0.6518956125678503,-80.18148049823861,25.418065988790868,-65.55798771264952
7.91,6.82,4.11,-1.7895888794990435,3.9979013740520215,-0.5271177661986588,-76.44252722312795,30.318170931025325,-61.28769792030866
7.91,6.82,4.11,-1.7895888794990435,3.9979013740520215,-0.5271177661986588,-76.44252722312795,30.318170931025325,-61.28769792030866
6.63,6.93,5.62,-2.8990611407677074,4.932385756846892,0.276003891380471,-70.8870189593387,36.842386864351504,-54.06553592895308
6.63,6.93,5.62,-2.8990611407677074,4.932385756846892,0.276003891380471,-70.8870189593387,36.842386864351504,-54.06553592895308
5.76,8.32,7.49,-5.2879011674606,6.074150607555577,0.1297240604311174,-66.09033392975714,41.68496498644351,-48.774277851992856
5.76,8.32,7.49,-5.2879011674606,6.074150607555577,0.1297240604311174,-66.09033392975714,41.68496498644351,-48.774277851992856
4.66,8.42,9.04,-7.228553859234859,5.795059019935708,0.3992646002407961,-57.52761053983232,46.2701332926198,-43.34490590574986
4.66,8.42,9.04,-7.228553859234859,5.795059019935708,0.3992646002407961,-57.52761053983232,46.2701332926198,-43.34490590574986
7.79,11.07,8.14,-8.524654879170019,1.5050066815617802,-3.405231549555964,-49.59342555885964,47.24389230544818,-41.66044293714295
7.79,11.07,8.14,-8.524654879170019,1.5050066815617802,-3.405231549555964,-49.59342555885964,47.24389230544818,-41.66044293714295
7.61,12.48,7.22,-9.49282099375585,-2.4710283933714328,-3.2153033196698377,-40.80341749737214,45.2750645639147,-42.64289936464318
7.61,12.48,7.22,-9.49282099375585,-2.4710283933714328,-3.2153033196698377,-40.80341749737214,45.2750645639147,-42.64289936464318
7.55,7.93,6.42,-5.004073512001517,-2.380290752814966,-1.6125121504621944,-35.46820114810156,39.61974059674283,-45.74726752330664
7.55,7.93,6.42,-5.004073512001517,-2.380290752814966,-1.6125121504621944,-35.46820114810156,39.61974059674283,-45.74726752330664
6.82,2.61,6.07,-0.4972263464862134,-0.3989976669557944,0.3323180012718634,-33.11769717298479,34.90319398604888,-49.39154002007115
6.82,2.61,6.07,-0.4972263464862134,-0.3989976669557944,0.3323180012718634,-33.11769717298479,34.90319398604888,-49.39154002007115
6.04,3.86,7.09,-2.0720196856643214,-0.5259549665564018,-0.0462381956193009,-30.63884419055943,31.55471850803617,-53.17961278851925
6.04,3.86,7.09,-2.0720196856643214,-0.5259549665564018,-0.0462381956193009,-30.63884419055943,31.55471850803617,-53.17961278851925
6.2,5.34,8.05,-3.3755117707771696,-1.4343575686197283,-1.0702355216320123,-27.64325314897049,27.38370633207425,-57.6583726523369
6.2,5.34,8.05,-3.3755117707771696,-1.4343575686197283,-1.0702355216320123,-27.64325314897049,27.38370633207425,-57.6583726523369
6.79,2.45,8.02,-0.0217039396985236,-1.4203066797683792,-0.8895763380318833,-26.59414349441812,21.543853477197025,-61.7944910115485
6.79,2.45,8.02,-0.0217039396985236,-1.4203066797683792,-0.8895763380318833,-26.59414349441812,21.543853477197025,-61.7944910115485
5.96,3.47,8.67,-1.1381231262178737,-1.250421806301219,-1.1419810128661505,-25.65305965168436,18.437010245615284,-64.7556530727814
5.96,3.47,8.67,-1.1381231262178737,-1.250421806301219,-1.1419810128661505,-25.65305965168436,18.437010245615284,-64.7556530727814
5.16,4.86,9.23,-2.5228873775241407,-1.2991957114140205,-1.479856535849473,-24.1626672412518,14.754288420181696,-68.05627918144376
5.16,4.86,9.23,-2.5228873775241407,-1.2991957114140205,-1.479856535849473,-24.1626672412518,14.754288420181696,-68.05627918144376
5.27,1.89,8.99,0.6750197562867488,-1.14747136969125,-0.7001457905520159,-23.78779915841677,10.868106466869214,-70.61999179043644
5.27,1.89,8.99,0.6750197562867488,-1.14747136969125,-0.7001457905520159,-23.78779915841677,10.868106466869214,-70.61999179043644
4.71,2.21,9.52,0.5618449489954962,-1.1042971063433171,-0.9712652972274752,-23.17918701849416,6.351624225020216,-75.72955562090883
4.71,2.21,9.52,0.5618449489954962,-1.1042971063433171,-0.9712652972274752,-23.17918701849416,6.351624225020216,-75.72955562090883
5.96,1.76,10.11,1.4786058507692683,-2.4709376353256616,-1.7059297256914636,-22.86343926833653,2.9911793597011727,-80.55646739590921
5.96,1.76,10.11,1.4786058507692683,-2.4709376353256616,-1.7059297256914636,-22.86343926833653,2.9911793597011727,-80.55646739590921
7.68,-4.33,12.04,8.328098004134509,-4.534248759925063,-1.7162086651337916,-23.21428107252436,-2.888013009772368,-86.32973658874529
7.68,-4.33,12.04,8.328098004134509,-4.534248759925063,-1.7162086651337916,-23.21428107252436,-2.888013009772368,-86.32973658874529
6.98,-6.71,9.28,9.171156313465564,-5.751653741673441,1.890131124264613,-22.314222150985408,-5.123950007684243,-92.02642985732344
6.98,-6.71,9.28,9.171156313465564,-5.751653741673441,1.890131124264613,-22.314222150985408,-5.123950007684243,-92.02642985732344
3.49,6.18,9.41,-3.8834066638799616,0.2128798388899531,-1.3196447496966377,-20.809420100088577,0.5500415954991054,-98.57639627494255
3.49,6.18,9.41,-3.8834066638799616,0.2128798388899531,-1.3196447496966377,-20.809420100088577,0.5500415954991054,-98.57639627494255
3.52,6.71,10.84,-4.038278959093684,1.0195566388458466,-2.7461547586476325,-22.232468575814032,2.589989743099661,-96.97307368097871
3.52,6.71,10.84,-4.038278959093684,1.0195566388458466,-2.7461547586476325,-22.232468575814032,2.589989743099661,-96.97307368097871
3.87,0.27,8.01,1.7574094824000506,-1.2512039371696386,1.1720741205035663,-23.53022735154268,2.1315259137202647,-91.92747384583168
3.87,0.27,8.01,1.7574094824000506,-1.2512039371696386,1.1720741205035663,-23.53022735154268,2.1315259137202647,-91.92747384583168
1.95,1.98,9.2,0.4607295563969537,1.606193974314469,0.3424665068116841,-25.5003013557049,4.596353909147252,-88.82192034919494
1.95,1.98,9.2,0.4607295563969537,1.606193974314469,0.3424665068116841,-25.5003013557049,4.596353909147252,-88.82192034919494
0.87,4.92,9.46,-2.437734004637015,3.345866542429402,-0.0583147745386281,-26.9593013980579,6.78778903124712,-88.15009751242157
0.87,4.92,9.46,-2.437734004637015,3.345866542429402,-0.0583147745386281,-26.9593013980579,6.78778903124712,-88.15009751242157
0.75,3.06,10.0,-0.4170240095058904,3.7815023766774414,0.036674014836139,-28.54099280947513,7.47667331573405,-87.03877731535627
0.75,3.06,10.0,-0.4170240095058904,3.7815023766774414,0.036674014836139,-28.54099280947513,7.47667331573405,-87.03877731535627
2.16,3.7,8.74,-1.2795329034837573,1.997780104275365,0.3665827224927103,-28.56464145412097,7.407773121999347,-86.67586147437744
2.16,3.7,8.74,-1.2795329034837573,1.997780104275365,0.3665827224927103,-28.56464145412097,7.407773121999347,-86.67586147437744
2.91,3.71,8.58,-1.199344432877835,1.2237455236613464,0.1675307547243338,-28.81302746748213,6.868145731332586,-86.67586147437744
2.91,3.71,8.58,-1.199344432877835,1.2237455236613464,0.1675307547243338,-28.81302746748213,6.868145731332586,-86.67586147437744
2.52,2.77,9.66,0.1241481330102247,1.966016437869688,-0.3647936835238053,-29.404982305122267,6.225383461526625,-86.64435486876549
2.52,2.77,9.66,0.1241481330102247,1.966016437869688,-0.3647936835238053,-29.404982305122267,6.225383461526625,-86.64435486876549
2.96,2.27,9.14,0.6409448668827019,1.1882650834589856,0.0275234659454906,-29.535319528051428,5.020716482682318,-86.92820940034244
2.96,2.27,9.14,0.6409448668827019,1.1882650834589856,0.0275234659454906,-29.535319528051428,5.020716482682318,-86.92820940034244
3.78,2.86,8.59,0.0184857333805713,0.1904430543099391,-0.0025033641148919,-29.49976914452507,4.3669953627837845,-87.29188537138376
3.78,2.86,8.59,0.0184857333805713,0.1904430543099391,-0.0025033641148919,-29.49976914452507,4.3669953627837845,-87.29188537138376
4.32,2.28,9.21,0.955662929631666,-0.1853097285499716,-0.5730064812826345,-29.97401461191905,3.2204467196467967,-87.815613588484
4.32,2.28,9.21,0.955662929631666,-0.1853097285499716,-0.5730064812826345,-29.97401461191905,3.2204467196467967,-87.815613588484
6.2,0.26,9.0,2.9758835670803494,-2.3281657953998804,-0.4515838160285259,-30.235073199393444,2.051298459271143,-88.48552943090411
6.2,0.26,9.0,2.9758835670803494,-2.3281657953998804,-0.4515838160285259,-30.235073199393444,2.051298459271143,-88.48552943090411
5.61,0.15,8.38,2.845908716330852,-2.0390365507630404,0.3482075530130508,-30.4369103155404,1.8908465277120163,-89.12710972399763
5.61,0.15,8.38,2.845908716330852,-2.0390365507630404,0.3482075530130508,-30.4369103155404,1.8908465277120163,-89.12710972399763
3.49,3.0,9.21,0.3223299580586374,0.7428946538351124,-0.4572873990414194,-30.66260751391823,2.9453273542124467,-89.40085398971644
3.49,3.0,9.21,0.3223299580586374,0.7428946538351124,-0.4572873990414194,-30.66260751391823,2.9453273542124467,-89.40085398971644
3.3,3.86,8.78,-0.7173013932240481,0.9597767502935528,-0.2652071922399077,-30.73390559555541,3.7592774051414257,-89.12710972399763
3.3,3.86,8.78,-0.7173013932240481,0.9597767502935528,-0.2652071922399077,-30.73390559555541,3.7592774051414257,-89.12710972399763
3.43,3.02,8.33,-0.0858081816216637,0.5843306469047571,0.3237498818370614,-30.781444422149058,4.034456312516312,-88.74173969605336
3.43,3.02,8.33,-0.0858081816216637,0.5843306469047571,0.3237498818370614,-30.781444422149058,4.034456312516312,-88.74173969605336
3.14,3.73,8.5,-0.7780797350738562,1.0754011305207012,0.0978599448828223,-30.805215870860085,4.6766337060034,-88.64559529672633
3.14,3.73,8.5,-0.7780797350738562,1.0754011305207012,0.0978599448828223,-30.805215870860085,4.6766337060034,-88.64559529672633
2.9,3.79,8.66,-0.8192189544498385,1.4110784829876086,0.0543457687160149,-30.888426648702456,5.0321866714644,-88.48552943090411
2.9,3.79,8.66,-0.8192189544498385,1.4110784829876086,0.0543457687160149,-30.888426648702456,5.0321866714644,-88.48552943090411
3.23,3.49,8.71,-0.494468984003881,1.0554478341934186,-0.0482285022015691,-30.805215870860085,4.860139072417077,-88.16604887802973
3.23,3.49,8.71,-0.494468984003881,1.0554478341934186,-0.0482285022015691,-30.805215870860085,4.860139072417077,-88.16604887802973
3.72,3.47,8.38,-0.5492326695959475,0.4375618953876381,0.0285835724104774,-30.722021736081228,4.63075925768904,-88.21391588431885
3.72,3.47,8.38,-0.5492326695959475,0.4375618953876381,0.0285835724104774,-30.722021736081228,4.63075925768904,-88.21391588431885
3.75,3.48,8.51,-0.4840057656973368,0.4269809596192686,-0.1017517721777086,-30.710138215163173,4.3669953627837845,-88.1022563085611
3.75,3.48,8.51,-0.4840057656973368,0.4269809596192686,-0.1017517721777086,-30.710138215163173,4.3669953627837845,-88.1022563085611
4.49,2.87,8.53,0.1729988656894751,-0.3441969030381462,-0.2436982469220492,-30.74578979374247,4.011523869819651,-87.99070189101793
4.49,2.87,8.53,0.1729988656894751,-0.3441969030381462,-0.2436982469220492,-30.74578979374247,4.011523869819651,-87.99070189101793
4.98,2.2,8.58,0.9138289816435275,-0.8960807146506615,-0.2739628754723835,-30.84087559172584,3.495584654482353,-87.89516721143072
4.98,2.2,8.58,0.9138289816435275,-0.8960807146506615,-0.2739628754723835,-30.84087559172584,3.495584654482353,-87.89516721143072
4.8,1.72,8.63,1.4117008193977476,-0.7499751242594521,-0.0888003742630996,-31.031112572318907,3.4153340784378665,-87.79970924377666
4.8,1.72,8.63,1.4117008193977476,-0.7499751242594521,-0.0888003742630996,-31.031112572318907,3.4153340784378665,-87.79970924377666
4.11,2.4,8.7,0.7297491398476196,0.0452604931350306,-0.0831183330122957,-31.12626391611525,3.873932556571698,-87.7043277374761
4.11,2.4,8.7,0.7297491398476196,0.0452604931350306,-0.0831183330122957,-31.12626391611525,3.873932556571698,-87.7043277374761
3.91,2.9,8.64,0.1997261482963761,0.2717521979962394,-0.1046546673266437,-31.06679175207397,4.068855279934243,-87.73611309262152
3.91,2.9,8.64,0.1997261482963761,0.2717521979962394,-0.1046546673266437,-31.06679175207397,4.068855279934243,-87.73611309262152
3.79,3.28,8.44,-0.2579845808235166,0.3517218851798392,0.0002319143000626,-30.99543647635929,4.229388694927676,-87.815613588484
3.79,3.28,8.44,-0.2579845808235166,0.3517218851798392,0.0002319143000626,-30.99543647635929,4.229388694927676,-87.815613588484
3.5,3.62,8.57,-0.5916421355535934,0.7253523526347463,-0.0889613276525178,-30.91220422108664,4.527544452628878,-87.75200894857093
3.5,3.62,8.57,-0.5916421355535934,0.7253523526347463,-0.0889613276525178,-30.91220422108664,4.527544452628878,-87.75200894857093
3.7,3.47,8.36,-0.5010443999618119,0.423014809772757,0.0500874403696958,-30.86465043933479,4.389930414609093,-87.84742865430181
3.7,3.47,8.36,-0.5010443999618119,0.423014809772757,0.0500874403696958,-30.86465043933479,4.389930414609093,-87.84742865430181
3.61,3.34,8.52,-0.3260242820806899,0.5615885711102897,-0.0094809304782632,-30.90031526443885,4.389930414609093,-87.84742865430181
3.61,3.34,8.52,-0.3260242820806899,0.5615885711102897,-0.0094809304782632,-30.90031526443885,4.389930414609093,-87.84742865430181
3.64,3.2,8.65,-0.1016270926584989,0.5455322893794021,-0.0930553721452902,-30.99543647635929,4.045922594423996,-87.92700356866892
3.64,3.2,8.65,-0.1016270926584989,0.5455322893794021,-0.0930553721452902,-30.99543647635929,4.045922594423996,-87.92700356866892
4.25,2.92,8.36,0.1172598025489075,-0.187004753905543,-0.0132165653216969,-30.99543647635929,3.7478120989556993,-88.08631353433992
4.25,2.92,8.36,0.1172598025489075,-0.187004753905543,-0.0132165653216969,-30.99543647635929,3.7478120989556993,-88.08631353433992
4.35,2.4,8.76,0.7802247177135317,-0.189034402357958,-0.2320558620418822,-31.114368796125287,3.495584654482353,-88.21391588431885
4.35,2.4,8.76,0.7802247177135317,-0.189034402357958,-0.2320558620418822,-31.114368796125287,3.495584654482353,-88.21391588431885
4.34,2.34,8.64,0.8328404579636858,-0.2511417877754534,-0.1031484123801345,-31.233335490801053,3.2204467196467967,-88.42156403973308
4.34,2.34,8.64,0.8328404579636858,-0.2511417877754534,-0.1031484123801345,-31.233335490801053,3.2204467196467967,-88.42156403973308
4.03,2.72,8.53,0.4087635155046265,0.0576179640424787,-0.0030285145391975,-31.24523405697452,3.40386984812725,-88.46953482425532
4.03,2.72,8.53,0.4087635155046265,0.0576179640424787,-0.0030285145391975,-31.24523405697452,3.40386984812725,-88.46953482425532
3.88,3.08,8.63,0.0843242818481549,0.2906083286687797,-0.139511883601088,-31.233335490801053,3.564372225995784,-88.32568102255905
3.88,3.08,8.63,0.0843242818481549,0.2906083286687797,-0.139511883601088,-31.233335490801053,3.564372225995784,-88.32568102255905
3.67,3.11,8.61,0.0421378613474033,0.4846357490164388,-0.0440582279101295,-31.257132968636736,3.644626018390772,-88.15009751242157
3.67,3.11,8.61,0.0421378613474033,0.4846357490164388,-0.0440582279101295,-31.257132968636736,3.644626018390772,-88.15009751242157
3.63,3.35,8.39,-0.2636715776819616,0.4579321364288416,0.0849075914834891,-31.233335490801053,3.6904861286986015,-88.054434419446
3.63,3.35,8.39,-0.2636715776819616,0.4579321364288416,0.0849075914834891,-31.233335490801053,3.6904861286986015,-88.054434419446
3.65,3.37,8.46,-0.2519683580191021,0.453625789228721,0.0096231249779759,-31.197641863629613,3.6331610823402585,-87.91108432402599
3.65,3.37,8.46,-0.2519683580191021,0.453625789228721,0.0096231249779759,-31.197641863629613,3.6331610823402585,-87.91108432402599
3.89,3.22,8.48,-0.0747236861744314,0.188702574583264,-0.0609590168323048,-31.12626391611525,3.438262641755622,-87.72021935597425
3.89,3.22,8.48,-0.0747236861744314,0.188702574583264,-0.0609590168323048,-31.12626391611525,3.438262641755622,-87.72021935597425
4.11,3.05,8.38,0.0691911734935466,-0.0811632593091045,-0.0120884681968682,-31.114368796125287,3.35801326652208,-87.7043277374761
4.11,3.05,8.38,0.0691911734935466,-0.0811632593091045,-0.0120884681968682,-31.114368796125287,3.35801326652208,-87.7043277374761
4.1,2.86,8.61,0.3375928904042313,0.0013423609914613,-0.1436127723299556,-31.173847836723343,3.3121572228147254,-87.67255085031937
4.1,2.86,8.61,0.3375928904042313,0.0013423609914613,-0.1436127723299556,-31.173847836723343,3.3121572228147254,-87.67255085031937
4.04,2.91,8.7,0.320085481486524,0.0995360798661288,-0.2117000564387563,-31.185744677827834,3.346549205454908,-87.54552779768291
4.04,2.91,8.7,0.320085481486524,0.0995360798661288,-0.2117000564387563,-31.185744677827834,3.346549205454908,-87.54552779768291
4.03,2.86,8.57,0.299569905023108,0.0576729181927513,-0.0813392650888147,-31.114368796125287,3.438262641755622,-87.68843823597489
4.03,2.86,8.57,0.299569905023108,0.0576729181927513,-0.0813392650888147,-31.114368796125287,3.438262641755622,-87.68843823597489
3.82,3.06,8.51,0.0658077776400552,0.2542662780748295,-0.0069690060668285,-31.078685498016352,3.5299782811888885,-87.76790692497644
3.82,3.06,8.51,0.0658077776400552,0.2542662780748295,-0.0069690060668285,-31.078685498016352,3.5299782811888885,-87.76790692497644
3.84,3.02,8.54,0.1048146628634944,0.2416883773990772,-0.0283995989943548,-31.031112572318907,3.5414428939599265,-87.84742865430181
3.84,3.02,8.54,0.1048146628634944,0.2416883773990772,-0.0283995989943548,-31.031112572318907,3.5414428939599265,-87.84742865430181
3.72,3.25,8.58,-0.1113739346966979,0.3902678279175227,-0.0853966471384293,-30.99543647635929,3.57583694549078,-87.84742865430181
3.72,3.25,8.58,-0.1113739346966979,0.3902678279175227,-0.0853966471384293,-30.99543647635929,3.57583694549078,-87.84742865430181
3.82,3.1,8.43,-0.0086200070889304,0.2046448025226608,0.0483024861901828,-30.94787313807167,3.4497269749928665,-87.91108432402599
3.82,3.1,8.43,-0.0086200070889304,0.2046448025226608,0.0483024861901828,-30.94787313807167,3.4497269749928665,-87.91108432402599
3.88,3.18,8.67,-0.0020105339977832,0.2438517507035056,-0.2071520891882929,-30.91220422108664,3.40386984812725,-87.92700356866892
3.88,3.18,8.67,-0.0020105339977832,0.2438517507035056,-0.2071520891882929,-30.91220422108664,3.40386984812725,-87.92700356866892
4.03,2.92,8.5,0.201033944108119,-0.0009074536217887,-0.0410342216758916,-30.90031526443885,3.300693295071686,-87.97477410653165
4.03,2.92,8.5,0.201033944108119,-0.0009074536217887,-0.0410342216758916,-30.90031526443885,3.300693295071686,-87.97477410653165
