,TIME,ELAPSED_SECONDS,PSTATE,acc_x,acc_y,acc_z,mag_x,mag_y,mag_z,gyr_x,gyr_y,gyr_z,lin_x,lin_y,lin_z,eul_x,eul_y,eul_z,qua_w,qua_x,qua_y,qua_z
0,827336.0,735.276636,1.0,3.48,0.3,-9.52,-12.06,-16.75,34.25,0.25,-0.25,-2.69,-0.1817204588260104,0.2811105888349668,-0.3283761228912905,-158.28578665640208,-4.401398006442045,-21.21732993545333,0.0055,-0.9821,-0.0384,-0.1841
1,827336.0,735.276636,1.0,3.48,0.3,-9.52,-12.06,-16.75,34.25,0.25,-0.25,-2.69,-0.1817204588260104,0.2811105888349668,-0.3283761228912905,-158.28578665640208,-4.401398006442045,-21.21732993545333,0.0055,-0.9821,-0.0384,-0.1841
2,827371.0,735.3242389999999,1.0,3.25,0.26,-9.39,-11.38,-16.75,34.19,2.75,-4.19,-5.81,-0.3284803285743624,0.25481849387537914,-0.12458195826775408,-158.4077981068511,-4.596353909147252,-21.08910064572278,0.0058,-0.9823,-0.0401,-0.183
3,827371.0,735.3242389999999,1.0,3.25,0.26,-9.39,-11.38,-16.75,34.19,2.75,-4.19,-5.81,-0.3284803285743624,0.25481849387537914,-0.12458195826775408,-158.4077981068511,-4.596353909147252,-21.08910064572278,0.0058,-0.9823,-0.0401,-0.183
4,827406.0,735.352658,1.0,3.23,0.4,-9.47,-11.38,-16.75,34.19,2.81,-4.94,-6.31,-0.3257450274785811,0.3837517374607464,-0.1943711869123046,-158.5304946671076,-4.779853967883568,-20.867676487915002,0.0054,-0.9825,-0.0417,-0.1811
5,827406.0,735.352658,1.0,3.23,0.4,-9.47,-11.38,-16.75,34.19,2.81,-4.94,-6.31,-0.3257450274785811,0.3837517374607464,-0.1943711869123046,-158.5304946671076,-4.779853967883568,-20.867676487915002,0.0054,-0.9825,-0.0417,-0.1811
6,827439.0,735.397273,1.0,3.34,0.21,-9.5,-11.69,-16.37,33.88,8.13,-2.44,-10.31,-0.20571989560247586,0.18666959646350853,-0.26174281048914416,-158.71585002764485,-5.204245622111723,-20.623036118505983,0.0061,-0.9828,-0.0454,-0.179
7,827439.0,735.397273,1.0,3.34,0.21,-9.5,-11.69,-16.37,33.88,8.13,-2.44,-10.31,-0.20571989560247586,0.18666959646350853,-0.26174281048914416,-158.71585002764485,-5.204245622111723,-20.623036118505983,0.0061,-0.9828,-0.0454,-0.179
8,827475.0,735.464838,1.0,3.28,-0.31,-9.04,-11.0,-15.69,33.38,7.94,-8.81,-9.5,-0.11364181562115433,-0.3153281641050558,0.1908425098999373,-158.840311807755,-5.525454047712893,-20.4134200209308,0.0079,-0.983,-0.0482,-0.1772
9,827475.0,735.464838,1.0,3.28,-0.31,-9.04,-11.0,-15.69,33.38,7.94,-8.81,-9.5,-0.11364181562115433,-0.3153281641050558,0.1908425098999373,-158.840311807755,-5.525454047712893,-20.4134200209308,0.0079,-0.983,-0.0482,-0.1772
10,827512.0,735.48446,1.0,3.15,-0.27,-8.78,-11.38,-16.37,33.38,6.81,-4.88,-11.06,-0.10510800116671576,-0.2616024493112184,0.4790395628834752,-158.9028148870971,-5.961449757231111,-20.180594156388953,0.0092,-0.9831,-0.052000000000000005,-0.1752
11,827512.0,735.48446,1.0,3.15,-0.27,-8.78,-11.38,-16.37,33.38,6.81,-4.88,-11.06,-0.10510800116671576,-0.2616024493112184,0.4790395628834752,-158.9028148870971,-5.961449757231111,-20.180594156388953,0.0092,-0.9831,-0.052000000000000005,-0.1752
12,827545.0,735.52991,1.0,3.77,-0.61,-8.84,-11.38,-16.37,33.38,6.63,5.25,-7.5,0.4023239394255278,-0.6401862403185804,0.2067074467618859,-158.71585002764485,-6.236859579751598,-20.25043303206116,0.0107,-0.9828,-0.0544,-0.1758
13,827545.0,735.52991,1.0,3.77,-0.61,-8.84,-11.38,-16.37,33.38,6.63,5.25,-7.5,0.4023239394255278,-0.6401862403185804,0.2067074467618859,-158.71585002764485,-6.236859579751598,-20.25043303206116,0.0107,-0.9828,-0.0544,-0.1758
14,827582.0,735.53804,1.0,4.26,-1.15,-8.85,-10.56,-15.69,33.38,4.13,3.38,9.75,0.7693274474113214,-1.195154182307084,0.02031556063132101,-158.5921035424659,-6.236859579751598,-20.4134200209308,0.0123,-0.9826,-0.0544,-0.1772
15,827582.0,735.53804,1.0,4.26,-1.15,-8.85,-10.56,-15.69,33.38,4.13,3.38,9.75,0.7693274474113214,-1.195154182307084,0.02031556063132101,-158.5921035424659,-6.236859579751598,-20.4134200209308,0.0123,-0.9826,-0.0544,-0.1772
16,827617.0,735.558935,1.0,4.17,-1.09,-9.03,-9.5,-16.0,35.06,-38.63,5.88,14.69,0.614374303739176,-1.1961539341567944,-0.10847279201353288,-158.5921035424659,-5.904077101832591,-20.52986483879688,0.0075,-0.9826,-0.0515,-0.1782
17,827617.0,735.558935,1.0,4.17,-1.09,-9.03,-9.5,-16.0,35.06,-38.63,5.88,14.69,0.614374303739176,-1.1961539341567944,-0.10847279201353288,-158.5921035424659,-5.904077101832591,-20.52986483879688,0.0075,-0.9826,-0.0515,-0.1782
18,827652.0,735.6149740000001,1.0,4.06,-0.58,-10.28,-9.5,-16.0,35.06,-30.25,-9.81,23.44,0.15009878896973022,-0.8174463369602626,-1.230000390392009,-158.96550158142097,-4.96336629149859,-20.448351223683986,-0.0024,-0.9832,-0.0433,-0.1775
19,827652.0,735.6149740000001,1.0,4.06,-0.58,-10.28,-9.5,-16.0,35.06,-30.25,-9.81,23.44,0.15009878896973022,-0.8174463369602626,-1.230000390392009,-158.96550158142097,-4.96336629149859,-20.448351223683986,-0.0024,-0.9832,-0.0433,-0.1775
20,827686.0,735.652525,1.0,3.69,0.39,-11.51,-11.38,-16.0,33.38,-18.25,-17.81,24.87,-0.470705080610337,0.11636893807937593,-2.276941974133265,-159.4738082027549,-4.126187708974658,-20.075850034388896,-0.0065,-0.9840000000000001,-0.036000000000000004,-0.1743
21,827686.0,735.652525,1.0,3.69,0.39,-11.51,-11.38,-16.0,33.38,-18.25,-17.81,24.87,-0.470705080610337,0.11636893807937593,-2.276941974133265,-159.4738082027549,-4.126187708974658,-20.075850034388896,-0.0065,-0.9840000000000001,-0.036000000000000004,-0.1743
22,827723.0,735.662141,1.0,1.82,2.2,-10.83,-11.69,-17.19,34.19,-10.81,-30.94,14.56,-1.6828769628900648,1.9603293119386784,-1.0913467937473715,-160.80272323312002,-3.1975194185389717,-18.91314493847748,-0.0107,-0.986,-0.0279,-0.1643
23,827723.0,735.662141,1.0,1.82,2.2,-10.83,-11.69,-17.19,34.19,-10.81,-30.94,14.56,-1.6828769628900648,1.9603293119386784,-1.0913467937473715,-160.80272323312002,-3.1975194185389717,-18.91314493847748,-0.0107,-0.986,-0.0279,-0.1643
24,827758.0,735.727654,1.0,1.7,2.96,-10.48,-11.69,-17.19,34.19,5.25,-28.69,0.94,-1.495459754352851,2.7156557042311,-0.7702500287980403,-161.64573705685663,-3.014105541619682,-18.054013364312716,-0.0112,-0.9872,-0.0263,-0.1569
25,827758.0,735.727654,1.0,1.7,2.96,-10.48,-11.69,-17.19,34.19,5.25,-28.69,0.94,-1.495459754352851,2.7156557042311,-0.7702500287980403,-161.64573705685663,-3.014105541619682,-18.054013364312716,-0.0112,-0.9872,-0.0263,-0.1569
26,827793.0,735.746592,1.0,1.53,2.66,-10.2,-10.56,-17.5,34.69,41.81,-30.56,-26.06,-1.3309067743059504,2.5911421520643385,-0.4388938853143305,-162.60463181843892,-3.873932556571698,-16.906223928806188,-0.003,-0.9885,-0.0338,-0.147
27,827793.0,735.746592,1.0,1.53,2.66,-10.2,-10.56,-17.5,34.69,41.81,-30.56,-26.06,-1.3309067743059504,2.5911421520643385,-0.4388938853143305,-162.60463181843892,-3.873932556571698,-16.906223928806188,-0.003,-0.9885,-0.0338,-0.147
28,827828.0,735.7954139999999,1.0,1.25,2.08,-8.87,-9.5,-16.37,33.75,56.44,-36.88,-39.63,-0.9371080998120124,2.3008282169243413,0.9526216554851992,-163.45901362866948,-5.6516548202737225,-15.436288478593855,0.0132,-0.9896,-0.0493,-0.1343
29,827828.0,735.7954139999999,1.0,1.25,2.08,-8.87,-9.5,-16.37,33.75,56.44,-36.88,-39.63,-0.9371080998120124,2.3008282169243413,0.9526216554851992,-163.45901362866948,-5.6516548202737225,-15.436288478593855,0.0132,-0.9896,-0.0493,-0.1343
30,827865.0,735.814479,1.0,1.06,1.64,-7.49,-8.0,-16.37,35.88,60.13,-33.25,-67.12,-0.5734375043028154,1.9933850520778016,2.3493793556682725,-163.45901362866948,-7.763786880218299,-14.315313760812993,0.0256,-0.9896,-0.0677,-0.1246
31,827865.0,735.814479,1.0,1.06,1.64,-7.49,-8.0,-16.37,35.88,60.13,-33.25,-67.12,-0.5734375043028154,1.9933850520778016,2.3493793556682725,-163.45901362866948,-7.763786880218299,-14.315313760812993,0.0256,-0.9896,-0.0677,-0.1246
32,827899.0,735.872013,1.0,2.26,0.18,-7.71,-8.0,-16.37,35.88,71.75,-6.25,-82.25,0.4345785523475074,0.62953137950076,1.8067167675246545,-161.57402592832648,-11.144399719947117,-13.749578099392743,0.0449,-0.9871,-0.0971,-0.1197
33,827899.0,735.872013,1.0,2.26,0.18,-7.71,-8.0,-16.37,35.88,71.75,-6.25,-82.25,0.4345785523475074,0.62953137950076,1.8067167675246545,-161.57402592832648,-11.144399719947117,-13.749578099392743,0.0449,-0.9871,-0.0971,-0.1197
34,827934.0,735.9113570000001,1.0,2.55,-0.5,-7.56,-7.19,-14.88,35.88,57.5,-0.44,-90.12,0.621216309129462,0.024544469636717192,1.836732317471416,-159.40959116439532,-13.8765501759761,-13.611082444309169,0.0579,-0.9839,-0.1208,-0.1185
35,827934.0,735.9113570000001,1.0,2.55,-0.5,-7.56,-7.19,-14.88,35.88,57.5,-0.44,-90.12,0.621216309129462,0.024544469636717192,1.836732317471416,-159.40959116439532,-13.8765501759761,-13.611082444309169,0.0579,-0.9839,-0.1208,-0.1185
36,827971.0,735.918709,1.0,2.28,0.12,-6.59,-6.5,-13.75,37.06,49.19,2.44,-100.44,0.7517651807725273,0.6162913119179074,2.9004256963857187,-156.02889725740351,-17.787196618044018,-13.691869135619404,0.0707,-0.9782,-0.1546,-0.1192
37,827971.0,735.918709,1.0,2.28,0.12,-6.59,-6.5,-13.75,37.06,49.19,2.44,-100.44,0.7517651807725273,0.6162913119179074,2.9004256963857187,-156.02889725740351,-17.787196618044018,-13.691869135619404,0.0707,-0.9782,-0.1546,-0.1192
38,828006.0,735.93916,1.0,4.0,-2.3,-7.43,-6.5,-13.75,37.06,53.19,32.56,-99.87,1.1580021237414941,-1.9076763838883983,1.350013440719195,-152.7702885732456,-20.867676487915002,-14.46546520944767,0.0828,-0.9719,-0.1811,-0.1259
39,828006.0,735.93916,1.0,4.0,-2.3,-7.43,-6.5,-13.75,37.06,53.19,32.56,-99.87,1.1580021237414941,-1.9076763838883983,1.350013440719195,-152.7702885732456,-20.867676487915002,-14.46546520944767,0.0828,-0.9719,-0.1811,-0.1259
40,828039.0,735.9803860000001,1.0,3.62,-1.73,-7.07,-4.56,-12.25,37.56,18.37,36.88,-95.56,0.7793632217841491,-1.3031028706571537,1.8206174507916435,-148.7733502639536,-24.537797991913113,-15.968397992715149,0.0894,-0.9631,-0.2125,-0.1389
41,828039.0,735.9803860000001,1.0,3.62,-1.73,-7.07,-4.56,-12.25,37.56,18.37,36.88,-95.56,0.7793632217841491,-1.3031028706571537,1.8206174507916435,-148.7733502639536,-24.537797991913113,-15.968397992715149,0.0894,-0.9631,-0.2125,-0.1389
42,828076.0,736.0457349999999,1.0,4.48,-2.0,-6.83,-4.19,-10.75,36.25,12.81,62.75,-93.12,1.1096591224254981,-1.9430613939332757,1.7003272176637356,-145.68599243347148,-27.124302654398626,-17.682816604505923,0.0914,-0.9555,-0.2345,-0.1537
43,828076.0,736.0457349999999,1.0,4.48,-2.0,-6.83,-4.19,-10.75,36.25,12.81,62.75,-93.12,1.1096591224254981,-1.9430613939332757,1.7003272176637356,-145.68599243347148,-27.124302654398626,-17.682816604505923,0.0914,-0.9555,-0.2345,-0.1537
44,828110.0,736.064869,1.0,4.77,-2.39,-6.61,-5.38,-11.5,37.56,-11.0,86.37,-87.81,0.5759723700571775,-2.429937527127427,1.687489979210376,-141.33038910827102,-30.10452391311007,-21.170698001897183,0.0917,-0.9436,-0.2597,-0.1837
45,828110.0,736.064869,1.0,4.77,-2.39,-6.61,-5.38,-11.5,37.56,-11.0,86.37,-87.81,0.5759723700571775,-2.429937527127427,1.687489979210376,-141.33038910827102,-30.10452391311007,-21.170698001897183,0.0917,-0.9436,-0.2597,-0.1837
46,828145.0,736.113586,1.0,5.86,-1.34,-7.98,-5.38,-11.5,37.56,-51.56,100.69,-75.12,0.9145187388949686,-1.7244995560237224,0.008417671794878956,-138.1343678726239,-31.864439303449732,-24.537797991913113,0.0844,-0.934,-0.2745,-0.2125
47,828145.0,736.113586,1.0,5.86,-1.34,-7.98,-5.38,-11.5,37.56,-51.56,100.69,-75.12,0.9145187388949686,-1.7244995560237224,0.008417671794878956,-138.1343678726239,-31.864439303449732,-24.537797991913113,0.0844,-0.934,-0.2745,-0.2125
48,828182.0,736.176242,1.0,6.16,-0.78,-6.85,-7.19,-12.19,37.19,-63.31,123.56,-67.25,0.9755369206086172,-1.7826095419624195,0.7873855656110198,-134.02791208505093,-33.440616741828144,-29.464221664430085,0.0712,-0.9206,-0.2877,-0.2543
49,828182.0,736.176242,1.0,6.16,-0.78,-6.85,-7.19,-12.19,37.19,-63.31,123.56,-67.25,0.9755369206086172,-1.7826095419624195,0.7873855656110198,-134.02791208505093,-33.440616741828144,-29.464221664430085,0.0712,-0.9206,-0.2877,-0.2543
50,828217.0,736.196021,1.0,8.62,-0.98,-8.87,-10.0,-15.19,35.88,-82.94,121.12,-52.88,0.7481328723850756,-2.6573763522729603,-2.2896448098844395,-130.79006103529238,-34.02735703924717,-33.78776111254545,0.057999999999999996,-0.9092,-0.2926,-0.2906
51,828217.0,736.196021,1.0,8.62,-0.98,-8.87,-10.0,-15.19,35.88,-82.94,121.12,-52.88,0.7481328723850756,-2.6573763522729603,-2.2896448098844395,-130.79006103529238,-34.02735703924717,-33.78776111254545,0.057999999999999996,-0.9092,-0.2926,-0.2906
52,828252.0,736.1995519999999,1.0,7.76,0.8,-7.27,-10.0,-15.19,35.88,-94.06,96.5,-29.25,1.0415950026300238,-1.349504750488734,-0.7197176916068475,-127.58485235552216,-33.919519970596944,-38.50113546048416,0.0359,-0.8972,-0.2917,-0.3297
53,828252.0,736.1995519999999,1.0,7.76,0.8,-7.27,-10.0,-15.19,35.88,-94.06,96.5,-29.25,1.0415950026300238,-1.349504750488734,-0.7197176916068475,-127.58485235552216,-33.919519970596944,-38.50113546048416,0.0359,-0.8972,-0.2917,-0.3297
54,828286.0,736.246989,1.0,7.76,0.59,-6.4,-12.19,-17.37,33.38,-93.06,116.25,-24.0,0.7178914301444469,-1.7821921338790636,-0.08446333938019103,-124.84860239500851,-33.4525819599508,-42.45844069063149,0.0207,-0.8864,-0.2878,-0.3621
55,828286.0,736.246989,1.0,7.76,0.59,-6.4,-12.19,-17.37,33.38,-93.06,116.25,-24.0,0.7178914301444469,-1.7821921338790636,-0.08446333938019103,-124.84860239500851,-33.4525819599508,-42.45844069063149,0.0207,-0.8864,-0.2878,-0.3621
56,828323.0,736.3158139999999,1.0,8.41,1.2,-6.61,-14.75,-20.75,31.69,-131.5,120.06,-19.87,0.13321190220965584,-1.6619740199377635,-0.8272719926686314,-120.61584152012749,-32.34140081327868,-48.34685890896744,-0.0062,-0.8687,-0.2785,-0.4095
57,828323.0,736.3158139999999,1.0,8.41,1.2,-6.61,-14.75,-20.75,31.69,-131.5,120.06,-19.87,0.13321190220965584,-1.6619740199377635,-0.8272719926686314,-120.61584152012749,-32.34140081327868,-48.34685890896744,-0.0062,-0.8687,-0.2785,-0.4095
58,828358.0,736.334198,1.0,10.43,1.74,-8.4,-14.75,-20.75,31.69,-107.75,67.31,13.13,-0.6967758684693763,-1.9318206231306057,-3.5408243854096253,-118.38659680691794,-30.817102104618424,-51.837991208733065,-0.0261,-0.8589,-0.2657,-0.4371
59,828358.0,736.334198,1.0,10.43,1.74,-8.4,-14.75,-20.75,31.69,-107.75,67.31,13.13,-0.6967758684693763,-1.9318206231306057,-3.5408243854096253,-118.38659680691794,-30.817102104618424,-51.837991208733065,-0.0261,-0.8589,-0.2657,-0.4371
60,828393.0,736.378117,1.0,8.74,2.15,-6.38,-17.5,-23.37,27.87,-101.87,14.69,46.0,-0.16485902740541925,-1.2089408210645105,-1.1581018709839856,-118.07406258134459,-27.631452438914533,-53.89835748467391,-0.048,-0.8575,-0.2388,-0.4532
61,828393.0,736.378117,1.0,8.74,2.15,-6.38,-17.5,-23.37,27.87,-101.87,14.69,46.0,-0.16485902740541925,-1.2089408210645105,-1.1581018709839856,-118.07406258134459,-27.631452438914533,-53.89835748467391,-0.048,-0.8575,-0.2388,-0.4532
62,828430.0,736.395436,1.0,8.59,3.39,-6.1,-19.69,-26.06,24.69,-125.31,32.13,52.63,-0.10161489939440928,-0.11331720668152136,-1.2598324412679125,-117.38702490663178,-23.705831329603118,-56.30240400451015,-0.0728,-0.8544,-0.2054,-0.4718
63,828430.0,736.395436,1.0,8.59,3.39,-6.1,-19.69,-26.06,24.69,-125.31,32.13,52.63,-0.10161489939440928,-0.11331720668152136,-1.2598324412679125,-117.38702490663178,-23.705831329603118,-56.30240400451015,-0.0728,-0.8544,-0.2054,-0.4718
64,828467.0,736.405513,1.0,9.29,4.32,-7.84,-21.56,-26.75,21.37,-95.69,3.56,59.44,-1.3683538721639783,0.4825453142412641,-3.012353771753784,-117.12288767556585,-20.57644875978384,-57.592981343645185,-0.09,-0.8532,-0.1786,-0.4817
65,828467.0,736.405513,1.0,9.29,4.32,-7.84,-21.56,-26.75,21.37,-95.69,3.56,59.44,-1.3683538721639783,0.4825453142412641,-3.012353771753784,-117.12288767556585,-20.57644875978384,-57.592981343645185,-0.09,-0.8532,-0.1786,-0.4817
66,828499.0,736.450831,1.0,7.81,4.6,-6.36,-21.56,-26.75,21.37,-63.63,-38.94,71.5,-0.8122337120581304,1.3877360735824336,-1.1487215129645136,-118.58826863083307,-16.848301053200124,-57.214114833301345,-0.1003,-0.8598,-0.1465,-0.4788
67,828499.0,736.450831,1.0,7.81,4.6,-6.36,-21.56,-26.75,21.37,-63.63,-38.94,71.5,-0.8122337120581304,1.3877360735824336,-1.1487215129645136,-118.58826863083307,-16.848301053200124,-57.214114833301345,-0.1003,-0.8598,-0.1465,-0.4788
68,828536.0,736.5085389999999,1.0,7.53,3.83,-6.46,-22.69,-27.87,20.19,-51.25,-34.19,63.25,-1.1299708587025712,0.8249736501492744,-0.7358347325022194,-119.69693362458544,-14.38461134345722,-56.67963771453915,-0.1057,-0.8647,-0.1252,-0.4747
69,828536.0,736.5085389999999,1.0,7.53,3.83,-6.46,-22.69,-27.87,20.19,-51.25,-34.19,63.25,-1.1299708587025712,0.8249736501492744,-0.7358347325022194,-119.69693362458544,-14.38461134345722,-56.67963771453915,-0.1057,-0.8647,-0.1252,-0.4747
70,828573.0,736.562052,1.0,7.21,4.89,-6.6,-23.37,-27.06,18.56,-58.19,-41.31,65.0,-1.2920891269190484,1.9998565974449676,-0.8604620401800158,-121.2668396082864,-11.04078222065542,-55.744276234982536,-0.1129,-0.8715,-0.0962,-0.4675
71,828573.0,736.562052,1.0,7.21,4.89,-6.6,-23.37,-27.06,18.56,-58.19,-41.31,65.0,-1.2920891269190484,1.9998565974449676,-0.8604620401800158,-121.2668396082864,-11.04078222065542,-55.744276234982536,-0.1129,-0.8715,-0.0962,-0.4675
72,828608.0,736.583617,1.0,6.41,5.01,-6.71,-23.37,-27.06,18.56,-16.44,-51.06,56.5,-1.7288578780805617,2.414247226025999,-0.31237963574198346,-122.70838865597605,-9.016196458354324,-54.658094766102636,-0.1135,-0.8776,-0.0786,-0.4591
73,828608.0,736.583617,1.0,6.41,5.01,-6.71,-23.37,-27.06,18.56,-16.44,-51.06,56.5,-1.7288578780805617,2.414247226025999,-0.31237963574198346,-122.70838865597605,-9.016196458354324,-54.658094766102636,-0.1135,-0.8776,-0.0786,-0.4591
74,828643.0,736.6047219999999,1.0,5.76,4.81,-6.42,-24.5,-26.0,18.87,11.06,-42.19,33.94,-1.6593408161398662,2.5925866395833053,0.4228777003250759,-124.74966789127242,-7.430739554030821,-53.01308485730727,-0.1075,-0.8859999999999999,-0.0648,-0.4463
75,828643.0,736.6047219999999,1.0,5.76,4.81,-6.42,-24.5,-26.0,18.87,11.06,-42.19,33.94,-1.6593408161398662,2.5925866395833053,0.4228777003250759,-124.74966789127242,-7.430739554030821,-53.01308485730727,-0.1075,-0.8859999999999999,-0.0648,-0.4463
76,828678.0,736.6587509999999,1.0,6.02,4.12,-6.47,-24.37,-24.75,19.25,30.0,-35.81,23.06,-1.3791191035895145,2.0298892708105325,0.369845453631422,-126.04885559306123,-7.074792869515193,-52.00367866289412,-0.0991,-0.8912,-0.0617,-0.4384
77,828678.0,736.6587509999999,1.0,6.02,4.12,-6.47,-24.37,-24.75,19.25,30.0,-35.81,23.06,-1.3791191035895145,2.0298892708105325,0.369845453631422,-126.04885559306123,-7.074792869515193,-52.00367866289412,-0.0991,-0.8912,-0.0617,-0.4384
78,828715.0,736.677724,1.0,5.79,3.74,-6.12,-24.5,-24.5,20.37,40.19,-30.25,-4.5,-0.9867466381810868,1.9363295231102151,0.8488009808453398,-127.6108060653337,-7.465189762811248,-50.65604685467434,-0.0866,-0.8973,-0.0651,-0.4278
79,828715.0,736.677724,1.0,5.79,3.74,-6.12,-24.5,-24.5,20.37,40.19,-30.25,-4.5,-0.9867466381810868,1.9363295231102151,0.8488009808453398,-127.6108060653337,-7.465189762811248,-50.65604685467434,-0.0866,-0.8973,-0.0651,-0.4278
80,828747.0,736.730641,1.0,6.04,3.35,-6.48,-24.5,-24.5,20.37,51.19,-25.81,-19.12,-0.9248230316065188,1.5603580446050076,0.5112487104995544,-128.55324310023371,-8.384121213370948,-49.73231720183757,-0.0785,-0.9009,-0.0731,-0.4205
81,828747.0,736.730641,1.0,6.04,3.35,-6.48,-24.5,-24.5,20.37,51.19,-25.81,-19.12,-0.9248230316065188,1.5603580446050076,0.5112487104995544,-128.55324310023371,-8.384121213370948,-49.73231720183757,-0.0785,-0.9009,-0.0731,-0.4205
82,828784.0,736.793768,1.0,5.51,2.8,-5.52,-24.5,-22.87,22.75,62.0,-17.87,-27.81,-0.3034991029013065,1.3345421639685868,1.6336832493562559,-129.61963621563214,-10.304202691653053,-48.57304992918911,-0.0627,-0.9049,-0.0898,-0.4113
83,828784.0,736.793768,1.0,5.51,2.8,-5.52,-24.5,-22.87,22.75,62.0,-17.87,-27.81,-0.3034991029013065,1.3345421639685868,1.6336832493562559,-129.61963621563214,-10.304202691653053,-48.57304992918911,-0.0627,-0.9049,-0.0898,-0.4113
84,828819.0,736.812369,1.0,6.62,2.17,-5.93,-23.5,-22.5,23.25,61.31,2.81,-44.44,0.13181254146232513,0.5068126484199349,0.6729778801286717,-129.64656611878056,-12.146519858742266,-48.23383857270471,-0.0525,-0.905,-0.1058,-0.4086
85,828819.0,736.812369,1.0,6.62,2.17,-5.93,-23.5,-22.5,23.25,61.31,2.81,-44.44,0.13181254146232513,0.5068126484199349,0.6729778801286717,-129.64656611878056,-12.146519858742266,-48.23383857270471,-0.0525,-0.905,-0.1058,-0.4086
86,828854.0,736.8153179999999,1.0,6.76,1.33,-5.89,-23.5,-22.5,23.25,58.94,2.69,-46.06,0.18401284766899334,-0.31731603231035965,0.7499370307416946,-129.2975202216285,-14.765843296845908,-47.94523502960248,-0.0399,-0.9037,-0.1285,-0.4063
87,828854.0,736.8153179999999,1.0,6.76,1.33,-5.89,-23.5,-22.5,23.25,58.94,2.69,-46.06,0.18401284766899334,-0.31731603231035965,0.7499370307416946,-129.2975202216285,-14.765843296845908,-47.94523502960248,-0.0399,-0.9037,-0.1285,-0.4063
88,828889.0,736.8593599999999,1.0,7.46,0.98,-5.72,-22.25,-22.06,24.56,54.5,1.88,-38.56,0.7153940025872447,-0.8441024325269214,0.4201649014945783,-128.87098138309108,-17.114782424924247,-47.66948159847917,-0.0284,-0.9021,-0.1488,-0.4041
89,828889.0,736.8593599999999,1.0,7.46,0.98,-5.72,-22.25,-22.06,24.56,54.5,1.88,-38.56,0.7153940025872447,-0.8441024325269214,0.4201649014945783,-128.87098138309108,-17.114782424924247,-47.66948159847917,-0.0284,-0.9021,-0.1488,-0.4041
90,828925.0,736.878684,1.0,7.68,0.98,-5.45,-22.0,-22.87,26.19,38.25,5.63,-37.5,1.0492920803526014,-0.9576089820563544,0.4457060749679584,-128.39505791682004,-18.646004953165537,-47.56928036162765,-0.0223,-0.9003,-0.162,-0.4033
91,828925.0,736.878684,1.0,7.68,0.98,-5.45,-22.0,-22.87,26.19,38.25,5.63,-37.5,1.0492920803526014,-0.9576089820563544,0.4457060749679584,-128.39505791682004,-18.646004953165537,-47.56928036162765,-0.0223,-0.9003,-0.162,-0.4033
92,828960.0,736.93081,1.0,8.72,-0.93,-5.63,-22.0,-22.87,26.19,38.69,17.56,-31.56,0.9379191775910308,-3.0923434073939564,-0.10081788372559508,-127.68873899317936,-20.05257586733213,-47.71959673028522,-0.0167,-0.8976,-0.1741,-0.4045
93,828960.0,736.93081,1.0,8.72,-0.93,-5.63,-22.0,-22.87,26.19,38.69,17.56,-31.56,0.9379191775910308,-3.0923434073939564,-0.10081788372559508,-127.68873899317936,-20.05257586733213,-47.71959673028522,-0.0167,-0.8976,-0.1741,-0.4045
94,828995.0,736.949692,1.0,9.07,-0.04,-5.83,-20.75,-22.87,25.87,-0.75,4.06,-3.69,1.1935866494514085,-2.332839421358212,-0.6522510486001085,-127.17120439382437,-20.69292362085707,-48.02049166769566,-0.0129,-0.8956,-0.1796,-0.4069
95,828995.0,736.949692,1.0,9.07,-0.04,-5.83,-20.75,-22.87,25.87,-0.75,4.06,-3.69,1.1935866494514085,-2.332839421358212,-0.6522510486001085,-127.17120439382437,-20.69292362085707,-48.02049166769566,-0.0129,-0.8956,-0.1796,-0.4069
96,829030.0,736.99599,1.0,8.63,-0.09,-5.68,-20.5,-22.06,26.25,-11.25,-6.63,4.13,1.043167634808678,-2.2809408697818947,-0.21614951082761813,-127.3259688536123,-20.448351223683986,-47.93269439397731,-0.0157,-0.8962,-0.1775,-0.4062
97,829030.0,736.99599,1.0,8.63,-0.09,-5.68,-20.5,-22.06,26.25,-11.25,-6.63,4.13,1.043167634808678,-2.2809408697818947,-0.21614951082761813,-127.3259688536123,-20.448351223683986,-47.93269439397731,-0.0157,-0.8962,-0.1775,-0.4062
98,829067.0,737.062559,1.0,8.17,0.19,-5.42,-20.75,-21.69,27.0,-26.56,-5.44,20.12,1.0731476915644564,-1.9074877361380649,0.2478192886330124,-127.68873899317936,-19.761718953980246,-47.85746338279603,-0.0198,-0.8976,-0.1716,-0.4056
99,829067.0,737.062559,1.0,8.17,0.19,-5.42,-20.75,-21.69,27.0,-26.56,-5.44,20.12,1.0731476915644564,-1.9074877361380649,0.2478192886330124,-127.68873899317936,-19.761718953980246,-47.85746338279603,-0.0198,-0.8976,-0.1716,-0.4056
100,829100.0,737.067588,1.0,8.32,0.73,-6.1,-20.75,-21.69,27.0,-37.63,-1.31,34.06,0.8233525394333994,-1.3433451476721867,-0.41503354088670896,-128.1586232989387,-18.06561632088332,-48.058128241744505,-0.0263,-0.8994,-0.157,-0.4072
101,829100.0,737.067588,1.0,8.32,0.73,-6.1,-20.75,-21.69,27.0,-37.63,-1.31,34.06,0.8233525394333994,-1.3433451476721867,-0.41503354088670896,-128.1586232989387,-18.06561632088332,-48.058128241744505,-0.0263,-0.8994,-0.157,-0.4072
102,829136.0,737.130558,1.0,7.91,0.68,-6.0,-21.5,-22.06,25.75,-42.19,-8.69,40.38,0.6638621860185739,-1.2548655923160366,-0.04297432497787845,-128.73836728652063,-16.466118077182387,-48.03303658033746,-0.0326,-0.9016,-0.1432,-0.40700000000000003
103,829136.0,737.130558,1.0,7.91,0.68,-6.0,-21.5,-22.06,25.75,-42.19,-8.69,40.38,0.6638621860185739,-1.2548655923160366,-0.04297432497787845,-128.73836728652063,-16.466118077182387,-48.03303658033746,-0.0326,-0.9016,-0.1432,-0.40700000000000003
104,829173.0,737.138297,1.0,7.94,0.87,-5.88,-21.87,-22.5,25.75,-50.88,-5.5,50.94,0.8153845567398057,-1.0049712198093543,-0.02696992716747104,-129.2975202216285,-13.922726077012074,-48.246393921380395,-0.0403,-0.9037,-0.1212,-0.4087
105,829173.0,737.138297,1.0,7.94,0.87,-5.88,-21.87,-22.5,25.75,-50.88,-5.5,50.94,0.8153845567398057,-1.0049712198093543,-0.02696992716747104,-129.2975202216285,-13.922726077012074,-48.246393921380395,-0.0403,-0.9037,-0.1212,-0.4087
106,829208.0,737.157453,1.0,7.72,1.63,-6.42,-21.87,-22.5,25.75,-59.56,-4.38,55.56,0.37021303246855297,-0.1713814078480279,-0.3572700470898269,-129.64656611878056,-11.766299745968876,-48.42223359833176,-0.0483,-0.905,-0.1025,-0.4101
107,829208.0,737.157453,1.0,7.72,1.63,-6.42,-21.87,-22.5,25.75,-59.56,-4.38,55.56,0.37021303246855297,-0.1713814078480279,-0.3572700470898269,-129.64656611878056,-11.766299745968876,-48.42223359833176,-0.0483,-0.905,-0.1025,-0.4101
108,829241.0,737.2058969999999,1.0,7.21,2.25,-6.34,-22.25,-22.5,25.0,-61.88,-9.69,62.0,0.12067407877754295,0.5885305660835034,-0.036178330286809064,-130.16081866157813,-8.636919564056372,-48.47249577682955,-0.059000000000000004,-0.9069,-0.0753,-0.4105
109,829241.0,737.2058969999999,1.0,7.21,2.25,-6.34,-22.25,-22.5,25.0,-61.88,-9.69,62.0,0.12067407877754295,0.5885305660835034,-0.036178330286809064,-130.16081866157813,-8.636919564056372,-48.47249577682955,-0.059000000000000004,-0.9069,-0.0753,-0.4105
110,829278.0,737.2251980000001,1.0,6.71,3.01,-6.85,-23.37,-21.69,23.25,-57.19,-10.19,57.19,-0.6071697154748983,1.399515525702843,-0.12710061242866288,-130.40615307468192,-6.340147475413156,-48.44736344772761,-0.067,-0.9078,-0.0553,-0.4103
111,829278.0,737.2251980000001,1.0,6.71,3.01,-6.85,-23.37,-21.69,23.25,-57.19,-10.19,57.19,-0.6071697154748983,1.399515525702843,-0.12710061242866288,-130.40615307468192,-6.340147475413156,-48.44736344772761,-0.067,-0.9078,-0.0553,-0.4103
112,829315.0,737.275747,1.0,6.29,2.98,-6.87,-24.19,-21.69,22.87,-46.06,-7.81,46.06,-0.9788114954354548,1.4257647693107662,0.18113583820086987,-130.6800872399157,-3.7478120989556993,-48.30917991037589,-0.0751,-0.9088,-0.0327,-0.4092
113,829315.0,737.275747,1.0,6.29,2.98,-6.87,-24.19,-21.69,22.87,-46.06,-7.81,46.06,-0.9788114954354548,1.4257647693107662,0.18113583820086987,-130.6800872399157,-3.7478120989556993,-48.30917991037589,-0.0751,-0.9088,-0.0327,-0.4092
114,829347.0,737.345777,1.0,6.33,3.33,-7.25,-24.19,-21.69,22.87,-38.25,-4.13,39.31,-1.308058428018683,1.7051217225637445,-0.14834086188081666,-130.6800872399157,-2.1315259137202647,-48.27150646713053,-0.0804,-0.9088,-0.0186,-0.4089
115,829347.0,737.345777,1.0,6.33,3.33,-7.25,-24.19,-21.69,22.87,-38.25,-4.13,39.31,-1.308058428018683,1.7051217225637445,-0.14834086188081666,-130.6800872399157,-2.1315259137202647,-48.27150646713053,-0.0804,-0.9088,-0.0186,-0.4089
116,829384.0,737.3661950000001,1.0,6.51,2.99,-7.46,-24.87,-21.37,23.25,-25.44,-9.69,23.06,-1.374702768433936,1.2952593686316034,-0.362140265632986,-130.70755912152916,-0.6990128451499703,-48.158519404241254,-0.0856,-0.9089,-0.0061,-0.408
117,829384.0,737.3661950000001,1.0,6.51,2.99,-7.46,-24.87,-21.37,23.25,-25.44,-9.69,23.06,-1.374702768433936,1.2952593686316034,-0.362140265632986,-130.70755912152916,-0.6990128451499703,-48.158519404241254,-0.0856,-0.9089,-0.0061,-0.408
118,829419.0,737.369566,1.0,6.41,2.91,-7.23,-26.0,-21.37,21.19,-22.69,-13.5,18.62,-1.2465506286521773,1.241679826468833,-0.12982033602713372,-130.95545525843715,0.1833465726697912,-47.83239125050407,-0.0889,-0.9098,0.0016,-0.4054
119,829419.0,737.369566,1.0,6.41,2.91,-7.23,-26.0,-21.37,21.19,-22.69,-13.5,18.62,-1.2465506286521773,1.241679826468833,-0.12982033602713372,-130.95545525843715,0.1833465726697912,-47.83239125050407,-0.0889,-0.9098,0.0016,-0.4054
120,829454.0,737.420359,1.0,6.32,2.29,-7.0,-26.0,-21.37,21.19,-4.19,-14.63,14.13,-1.031397402878533,0.6996466918926981,0.18203499970731407,-131.3990875860209,0.9052827329224428,-47.35648075084825,-0.0897,-0.9114,0.0079,-0.4016
121,829454.0,737.420359,1.0,6.32,2.29,-7.0,-26.0,-21.37,21.19,-4.19,-14.63,14.13,-1.031397402878533,0.6996466918926981,0.18203499970731407,-131.3990875860209,0.9052827329224428,-47.35648075084825,-0.0897,-0.9114,0.0079,-0.4016
122,829489.0,737.467081,1.0,6.27,2.22,-7.05,-26.0,-21.0,21.06,-0.56,-14.38,6.38,-1.0396696871042277,0.6508332056888337,0.19211396958806048,-131.76235907719015,1.2261530793833222,-46.968879343305815,-0.0893,-0.9127,0.0107,-0.3985
123,829489.0,737.467081,1.0,6.27,2.22,-7.05,-26.0,-21.0,21.06,-0.56,-14.38,6.38,-1.0396696871042277,0.6508332056888337,0.19211396958806048,-131.76235907719015,1.2261530793833222,-46.968879343305815,-0.0893,-0.9127,0.0107,-0.3985
124,829526.0,737.492309,1.0,6.62,1.81,-7.06,-26.0,-21.0,21.5,6.81,-19.75,7.31,-0.6341776960343519,0.2697593098153024,-0.015220929951205163,-132.61066542040177,1.3751317128217122,-46.158005222618215,-0.0878,-0.9157,0.012,-0.392
125,829526.0,737.492309,1.0,6.62,1.81,-7.06,-26.0,-21.0,21.5,6.81,-19.75,7.31,-0.6341776960343519,0.2697593098153024,-0.015220929951205163,-132.61066542040177,1.3751317128217122,-46.158005222618215,-0.0878,-0.9157,0.012,-0.392
126,829560.0,737.511112,1.0,6.03,1.51,-6.2,-26.0,-21.0,21.5,10.81,-21.12,4.94,-0.2997814659147421,0.2083975236427047,1.03466609983046,-133.32867360141205,1.4897322301406863,-45.49863792387894,-0.0848,-0.9182,0.013000000000000001,-0.3867
127,829560.0,737.511112,1.0,6.03,1.51,-6.2,-26.0,-21.0,21.5,10.81,-21.12,4.94,-0.2997814659147421,0.2083975236427047,1.03466609983046,-133.32867360141205,1.4897322301406863,-45.49863792387894,-0.0848,-0.9182,0.013000000000000001,-0.3867
128,829593.0,737.558185,1.0,6.24,1.81,-5.88,-25.06,-21.69,21.56,6.75,18.5,-3.25,0.043384580530819984,0.5865548276309567,1.0635286344718384,-133.3576107786115,1.3522117780748235,-45.56077406660365,-0.0819,-0.9183,0.0118,-0.3872
129,829593.0,737.558185,1.0,6.24,1.81,-5.88,-25.06,-21.69,21.56,6.75,18.5,-3.25,0.043384580530819984,0.5865548276309567,1.0635286344718384,-133.3576107786115,1.3522117780748235,-45.56077406660365,-0.0819,-0.9183,0.0118,-0.3872
130,829628.0,737.577096,1.0,7.11,1.08,-6.0,-24.5,-20.19,22.37,5.25,43.81,-12.0,0.4637503172579791,-0.2172604260389287,0.4548462408035672,-132.3546807037213,0.9052827329224428,-46.60679955433233,-0.0812,-0.9148,0.0079,-0.3956
131,829628.0,737.577096,1.0,7.11,1.08,-6.0,-24.5,-20.19,22.37,5.25,43.81,-12.0,0.4637503172579791,-0.2172604260389287,0.4548462408035672,-132.3546807037213,0.9052827329224428,-46.60679955433233,-0.0812,-0.9148,0.0079,-0.3956
132,829665.0,737.626203,1.0,5.87,1.4,-3.44,-25.37,-21.0,21.87,-31.0,114.25,-40.0,1.1259300741626002,0.3931777085132877,2.96353720262303,-129.51205087236005,0.05729578190040675,-49.31587513221956,-0.0889,-0.9045,0.0005,-0.4172
133,829665.0,737.626203,1.0,5.87,1.4,-3.44,-25.37,-21.0,21.87,-31.0,114.25,-40.0,1.1259300741626002,0.3931777085132877,2.96353720262303,-129.51205087236005,0.05729578190040675,-49.31587513221956,-0.0889,-0.9045,0.0005,-0.4172
134,829700.0,737.6917269999999,1.0,8.74,2.75,-2.77,-25.37,-21.0,21.87,-73.81,296.44,-105.75,1.9126080172571518,0.7000819817982535,0.4538527825315733,-118.90317397360043,-3.094348134689141,-59.0363995158976,-0.1219,-0.8612,-0.027000000000000003,-0.4927
135,829700.0,737.6917269999999,1.0,8.74,2.75,-2.77,-25.37,-21.0,21.87,-73.81,296.44,-105.75,1.9126080172571518,0.7000819817982535,0.4538527825315733,-118.90317397360043,-3.094348134689141,-59.0363995158976,-0.1219,-0.8612,-0.027000000000000003,-0.4927
136,829736.0,737.710158,1.0,12.09,2.9,-5.61,-27.56,-21.37,17.87,-57.81,394.88,-121.0,-1.4409427536548147,-1.4541844208211745,-3.678869331895628,-106.85431724818577,-6.707435672786218,-69.98930763271481,-0.1505,-0.8031,-0.0585,-0.5735
137,829736.0,737.710158,1.0,12.09,2.9,-5.61,-27.56,-21.37,17.87,-57.81,394.88,-121.0,-1.4409427536548147,-1.4541844208211745,-3.678869331895628,-106.85431724818577,-6.707435672786218,-69.98930763271481,-0.1505,-0.8031,-0.0585,-0.5735
138,829773.0,737.754848,1.0,11.81,3.05,-5.09,-28.75,-26.19,7.06,-22.62,122.87,-49.69,-2.869358358311927,-1.882400266845844,-2.9569722071543736,-98.26066774517868,-9.556550648732504,-77.68768880531772,-0.1672,-0.7562,-0.0833,-0.6272
139,829773.0,737.754848,1.0,11.81,3.05,-5.09,-28.75,-26.19,7.06,-22.62,122.87,-49.69,-2.869358358311927,-1.882400266845844,-2.9569722071543736,-98.26066774517868,-9.556550648732504,-77.68768880531772,-0.1672,-0.7562,-0.0833,-0.6272
140,829808.0,737.762626,1.0,9.17,4.31,-1.2,-28.75,-26.19,7.06,-17.87,-8.0,-3.0,0.1725131392072587,0.6545305166600883,-0.3740586698108341,-97.45833109591423,-9.729048380447908,-78.27742390598648,-0.1718,-0.7516,-0.0848,-0.6312
141,829808.0,737.762626,1.0,9.17,4.31,-1.2,-28.75,-26.19,7.06,-17.87,-8.0,-3.0,0.1725131392072587,0.6545305166600883,-0.3740586698108341,-97.45833109591423,-9.729048380447908,-78.27742390598648,-0.1718,-0.7516,-0.0848,-0.6312
142,829841.0,737.824953,1.0,9.35,3.77,-1.57,-28.87,-28.5,3.5,7.75,4.31,1.63,-0.08984651888043432,0.0642737273182108,-0.3957073987104423,-97.58001140346657,-9.671546700479858,-78.20357233698766,-0.1705,-0.7523,-0.0843,-0.6307
143,829841.0,737.824953,1.0,9.35,3.77,-1.57,-28.87,-28.5,3.5,7.75,4.31,1.63,-0.08984651888043432,0.0642737273182108,-0.3957073987104423,-97.58001140346657,-9.671546700479858,-78.20357233698766,-0.1705,-0.7523,-0.0843,-0.6307
144,829878.0,737.843301,1.0,9.03,3.35,-1.76,-27.25,-28.5,1.75,2.5,-8.19,-2.0,-0.26977365665742337,-0.2502491000808058,0.02270409039469179,-97.73667466579631,-9.752049739225924,-78.04123484742134,-0.1704,-0.7532,-0.085,-0.6296
145,829878.0,737.843301,1.0,9.03,3.35,-1.76,-27.25,-28.5,1.75,2.5,-8.19,-2.0,-0.26977365665742337,-0.2502491000808058,0.02270409039469179,-97.73667466579631,-9.752049739225924,-78.04123484742134,-0.1704,-0.7532,-0.085,-0.6296
146,829913.0,737.894018,1.0,9.21,3.63,-1.6,-27.25,-28.5,1.75,2.75,-16.0,8.13,-0.01414801461379092,0.01636727362392354,-0.2213374324829811,-98.31321925058506,-9.5450515760222,-77.54063712636635,-0.1693,-0.7565,-0.0832,-0.6262
147,829913.0,737.894018,1.0,9.21,3.63,-1.6,-27.25,-28.5,1.75,2.75,-16.0,8.13,-0.01414801461379092,0.01636727362392354,-0.2213374324829811,-98.31321925058506,-9.5450515760222,-77.54063712636635,-0.1693,-0.7565,-0.0832,-0.6262
148,829947.0,737.956825,1.0,8.83,3.77,-1.36,-27.75,-28.87,4.0,0.25,-0.88,3.63,0.1602387082845289,0.34584602849352475,0.11716528300175355,-98.5412654656515,-9.395572354596672,-77.37905512772029,-0.1682,-0.7578,-0.0819,-0.6251
149,829947.0,737.956825,1.0,8.83,3.77,-1.36,-27.75,-28.87,4.0,0.25,-0.88,3.63,0.1602387082845289,0.34584602849352475,0.11716528300175355,-98.5412654656515,-9.395572354596672,-77.37905512772029,-0.1682,-0.7578,-0.0819,-0.6251
150,829982.0,737.978533,1.0,9.21,3.65,-1.66,-28.75,-27.69,3.56,0.5,4.5,0.19,-0.0640527584691554,0.06372287594284033,-0.2379523634195735,-98.41840599370691,-9.407070184120801,-77.49655117938742,-0.1679,-0.7571,-0.08199999999999999,-0.6259
151,829982.0,737.978533,1.0,9.21,3.65,-1.66,-28.75,-27.69,3.56,0.5,4.5,0.19,-0.0640527584691554,0.06372287594284033,-0.2379523634195735,-98.41840599370691,-9.407070184120801,-77.49655117938742,-0.1679,-0.7571,-0.08199999999999999,-0.6259
152,830017.0,737.981807,1.0,8.56,3.48,-1.49,-28.37,-28.5,4.25,-1.94,-13.19,2.0,0.023154345866918502,0.14836317764508578,0.4481483975111402,-98.66427811303318,-9.372576979838527,-77.24698728308945,-0.1683,-0.7585,-0.0817,-0.6242
153,830017.0,737.981807,1.0,8.56,3.48,-1.49,-28.37,-28.5,4.25,-1.94,-13.19,2.0,0.023154345866918502,0.14836317764508578,0.4481483975111402,-98.66427811303318,-9.372576979838527,-77.24698728308945,-0.1683,-0.7585,-0.0817,-0.6242
154,830052.0,738.0249980000001,1.0,8.75,3.41,-1.66,-28.37,-28.5,4.25,4.13,3.0,2.75,-0.08715985796241574,0.017492138879574348,0.2704926405476389,-98.75223846738031,-9.3380846266553,-77.21765539082577,-0.16699999999999998,-0.759,-0.0814,-0.624
155,830052.0,738.0249980000001,1.0,8.75,3.41,-1.66,-28.37,-28.5,4.25,4.13,3.0,2.75,-0.08715985796241574,0.017492138879574348,0.2704926405476389,-98.75223846738031,-9.3380846266553,-77.21765539082577,-0.16699999999999998,-0.759,-0.0814,-0.624
156,830087.0,738.0864339999999,1.0,9.0,3.49,-1.77,-28.69,-28.5,4.25,-3.0,-9.0,0.88,-0.13124843305302986,-0.005585001317852001,-0.006389419903573668,-98.87551537138796,-9.269102460835224,-77.1003877085983,-0.1674,-0.7597,-0.0808,-0.6232
157,830087.0,738.0864339999999,1.0,9.0,3.49,-1.77,-28.69,-28.5,4.25,-3.0,-9.0,0.88,-0.13124843305302986,-0.005585001317852001,-0.006389419903573668,-98.87551537138796,-9.269102460835224,-77.1003877085983,-0.1674,-0.7597,-0.0808,-0.6232
158,830124.0,738.15252,1.0,8.95,3.4,-1.64,-28.0,-28.5,4.0,1.12,-9.0,2.75,0.049770685961663765,-0.02953919646794145,0.09332151205669524,-99.24627980878144,-9.119652615329127,-76.74915654963284,-0.1671,-0.7618,-0.0795,-0.6208
159,830124.0,738.15252,1.0,8.95,3.4,-1.64,-28.0,-28.5,4.0,1.12,-9.0,2.75,0.049770685961663765,-0.02953919646794145,0.09332151205669524,-99.24627980878144,-9.119652615329127,-76.74915654963284,-0.1671,-0.7618,-0.0795,-0.6208
160,830156.0,738.1604,1.0,8.81,3.61,-1.65,-28.0,-28.5,4.0,2.19,-7.31,2.63,0.03176732731470705,0.22384576867476214,0.14644379574319366,-99.51197737726193,-9.027691221695424,-76.50088290484744,-0.16699999999999998,-0.7633,-0.0787,-0.6191
161,830156.0,738.1604,1.0,8.81,3.61,-1.65,-28.0,-28.5,4.0,2.19,-7.31,2.63,0.03176732731470705,0.22384576867476214,0.14644379574319366,-99.51197737726193,-9.027691221695424,-76.50088290484744,-0.16699999999999998,-0.7633,-0.0787,-0.6191
162,830191.0,738.2751030000001,1.0,9.03,3.49,-2.01,-27.19,-28.87,5.06,1.06,-5.63,-0.75,-0.22053531815351526,-0.012081831960673473,-0.07830413255840085,-99.74283872407179,-9.016196458354324,-76.28216959343423,-0.1669,-0.7646,-0.0786,-0.6176
163,830191.0,738.2751030000001,1.0,9.03,3.49,-2.01,-27.19,-28.87,5.06,1.06,-5.63,-0.75,-0.22053531815351526,-0.012081831960673473,-0.07830413255840085,-99.74283872407179,-9.016196458354324,-76.28216959343423,-0.1669,-0.7646,-0.0786,-0.6176
164,830226.0,738.284063,1.0,9.05,3.62,-1.98,-29.0,-28.06,4.69,3.38,-9.06,5.13,-0.1554810563244745,0.13773451358511826,-0.13740122899574206,-100.02773556408856,-8.912747665103913,-76.04923610928397,-0.1658,-0.7662,-0.0777,-0.616
165,830226.0,738.284063,1.0,9.05,3.62,-1.98,-29.0,-28.06,4.69,3.38,-9.06,5.13,-0.1554810563244745,0.13773451358511826,-0.13740122899574206,-100.02773556408856,-8.912747665103913,-76.04923610928397,-0.1658,-0.7662,-0.0777,-0.616
166,830261.0,738.2935719999999,1.0,8.52,3.55,-1.62,-29.0,-28.06,4.69,5.88,-7.06,4.06,0.12485191120896155,0.3269609823854001,0.4420993692294513,-100.33136679814685,-8.878266355561609,-75.78762767861531,-0.1644,-0.7679,-0.0774,-0.6142
167,830261.0,738.2935719999999,1.0,8.52,3.55,-1.62,-29.0,-28.06,4.69,5.88,-7.06,4.06,0.12485191120896155,0.3269609823854001,0.4420993692294513,-100.33136679814685,-8.878266355561609,-75.78762767861531,-0.1644,-0.7679,-0.0774,-0.6142
168,830294.0,738.297116,1.0,9.05,3.29,-2.12,-28.69,-27.69,5.06,-0.5,-1.25,-1.25,-0.20865087839103005,-0.15565453611075308,-0.04998413525808232,-100.3671515088305,-8.947229783297066,-75.78762767861531,-0.1634,-0.7681,-0.078,-0.6142
169,830294.0,738.297116,1.0,9.05,3.29,-2.12,-28.69,-27.69,5.06,-0.5,-1.25,-1.25,-0.20865087839103005,-0.15565453611075308,-0.04998413525808232,-100.3671515088305,-8.947229783297066,-75.78762767861531,-0.1634,-0.7681,-0.078,-0.6142
170,830328.0,738.347146,1.0,8.76,3.27,-1.88,-27.87,-27.69,4.69,-2.31,-11.19,-3.19,-0.005143370824204338,-0.056168709369248886,0.2692646863081833,-100.56420761524464,-8.95872400294449,-75.54097917727157,-0.1642,-0.7692,-0.0781,-0.6125
171,830328.0,738.347146,1.0,8.76,3.27,-1.88,-27.87,-27.69,4.69,-2.31,-11.19,-3.19,-0.005143370824204338,-0.056168709369248886,0.2692646863081833,-100.56420761524464,-8.95872400294449,-75.54097917727157,-0.1642,-0.7692,-0.0781,-0.6125
172,830365.0,738.3662820000001,1.0,8.61,3.37,-1.74,-28.25,-28.5,3.88,-0.94,1.31,-0.25,0.10884636932048668,0.10170106920174504,0.3995032827212164,-100.70777770605257,-8.866772764864926,-75.36712180089249,-0.1653,-0.77,-0.0773,-0.6113
173,830365.0,738.3662820000001,1.0,8.61,3.37,-1.74,-28.25,-28.5,3.88,-0.94,1.31,-0.25,0.10884636932048668,0.10170106920174504,0.3995032827212164,-100.70777770605257,-8.866772764864926,-75.36712180089249,-0.1653,-0.77,-0.0773,-0.6113
174,830400.0,738.370119,1.0,9.02,3.53,-2.01,-28.25,-28.5,3.88,1.75,-1.88,0.63,-0.0662179580803409,0.0803990350179502,-0.08529375121471361,-100.72573922895168,-8.843785851491393,-75.36712180089249,-0.1652,-0.7701,-0.0771,-0.6113
175,830400.0,738.370119,1.0,9.02,3.53,-2.01,-28.25,-28.5,3.88,1.75,-1.88,0.63,-0.0662179580803409,0.0803990350179502,-0.08529375121471361,-100.72573922895168,-8.843785851491393,-75.36712180089249,-0.1652,-0.7701,-0.0771,-0.6113
176,830437.0,738.4058190000001,1.0,8.99,3.4,-2.09,-28.69,-28.5,4.25,2.19,-5.06,0.19,-0.10963443001874038,-0.03701755297424714,-0.02873560466879965,-100.90554181397611,-8.832292528579133,-75.1934679339669,-0.1649,-0.7711,-0.077,-0.6101
177,830437.0,738.4058190000001,1.0,8.99,3.4,-2.09,-28.69,-28.5,4.25,2.19,-5.06,0.19,-0.10963443001874038,-0.03701755297424714,-0.02873560466879965,-100.90554181397611,-8.832292528579133,-75.1934679339669,-0.1649,-0.7711,-0.077,-0.6101
178,830470.0,738.440725,1.0,8.55,3.45,-1.74,-28.25,-28.5,6.0,-0.81,-2.5,-0.25,0.13997858536684435,0.20781139944814744,0.4274271954229541,-101.01358752510708,-8.970218312913039,-75.09226338481456,-0.1639,-0.7717,-0.0782,-0.6094
179,830470.0,738.440725,1.0,8.55,3.45,-1.74,-28.25,-28.5,6.0,-0.81,-2.5,-0.25,0.13997858536684435,0.20781139944814744,0.4274271954229541,-101.01358752510708,-8.970218312913039,-75.09226338481456,-0.1639,-0.7717,-0.0782,-0.6094
180,830504.0,738.444521,1.0,9.11,3.55,-2.06,-28.25,-28.5,6.0,-1.0,2.81,-0.37,-0.05596822648268626,0.06440131600573196,-0.1848924248772104,-100.92354086053491,-8.970218312913039,-75.17900592971374,-0.1643,-0.7712,-0.0782,-0.61
181,830504.0,738.444521,1.0,9.11,3.55,-2.06,-28.25,-28.5,6.0,-1.0,2.81,-0.37,-0.05596822648268626,0.06440131600573196,-0.1848924248772104,-100.92354086053491,-8.970218312913039,-75.17900592971374,-0.1643,-0.7712,-0.0782,-0.61
182,830539.0,738.492373,1.0,8.94,3.39,-2.16,-28.0,-28.5,6.5,0.94,-5.88,-1.06,-0.16102002144086708,-0.04448948850605716,0.005966695346813822,-101.01358752510708,-9.188627520029687,-75.12117195535056,-0.1628,-0.7717,-0.0801,-0.6096
183,830539.0,738.492373,1.0,8.94,3.39,-2.16,-28.0,-28.5,6.5,0.94,-5.88,-1.06,-0.16102002144086708,-0.04448948850605716,0.005966695346813822,-101.01358752510708,-9.188627520029687,-75.12117195535056,-0.1628,-0.7717,-0.0801,-0.6096
184,830576.0,738.5608940000001,1.0,8.68,3.46,-1.91,-27.87,-28.06,6.38,-0.63,-2.94,-0.63,0.03774356204138238,0.13972013088880209,0.270342868381972,-101.12175699059144,-9.372576979838527,-75.00557127858174,-0.1618,-0.7723,-0.0817,-0.6088
185,830576.0,738.5608940000001,1.0,8.68,3.46,-1.91,-27.87,-28.06,6.38,-0.63,-2.94,-0.63,0.03774356204138238,0.13972013088880209,0.270342868381972,-101.12175699059144,-9.372576979838527,-75.00557127858174,-0.1618,-0.7723,-0.0817,-0.6088
186,830609.0,738.56905,1.0,8.96,3.5,-2.0,-27.87,-28.06,6.38,-0.06,2.75,-1.37,0.004877460104010522,0.06595163353296063,-0.01817705152702942,-101.04963023736497,-9.407070184120801,-75.07781120147467,-0.162,-0.7719,-0.08199999999999999,-0.6093
187,830609.0,738.56905,1.0,8.96,3.5,-2.0,-27.87,-28.06,6.38,-0.06,2.75,-1.37,0.004877460104010522,0.06595163353296063,-0.01817705152702942,-101.04963023736497,-9.407070184120801,-75.07781120147467,-0.162,-0.7719,-0.08199999999999999,-0.6093
188,830642.0,738.635318,1.0,9.15,3.63,-2.27,-28.25,-27.37,6.5,3.06,-0.12,1.37,-0.21808252877093495,0.09345134466209082,-0.29265724638208823,-101.03160716122223,-9.591048446078224,-75.13562834382228,-0.1603,-0.7718,-0.0836,-0.6097
189,830642.0,738.635318,1.0,9.15,3.63,-2.27,-28.25,-27.37,6.5,3.06,-0.12,1.37,-0.21808252877093495,0.09345134466209082,-0.29265724638208823,-101.03160716122223,-9.591048446078224,-75.13562834382228,-0.1603,-0.7718,-0.0836,-0.6097
190,830679.0,738.643492,1.0,8.53,3.58,-1.98,-28.0,-28.06,5.56,1.06,-3.0,-1.37,-0.06164867350337519,0.28912954171644234,0.350947828867378,-101.15784107033815,-9.637046865121436,-75.00557127858174,-0.1601,-0.7725,-0.084,-0.6088
191,830679.0,738.643492,1.0,8.53,3.58,-1.98,-28.0,-28.06,5.56,1.06,-3.0,-1.37,-0.06164867350337519,0.28912954171644234,0.350947828867378,-101.15784107033815,-9.637046865121436,-75.00557127858174,-0.1601,-0.7725,-0.084,-0.6088
192,830713.0,738.6633860000001,1.0,8.84,3.58,-2.2,-28.0,-28.06,5.56,4.44,4.63,-0.69,-0.2075787511441932,0.15478519426957724,0.02222602075071833,-101.06765675595229,-9.786552516199244,-75.09226338481456,-0.1592,-0.772,-0.0853,-0.6094
193,830713.0,738.6633860000001,1.0,8.84,3.58,-2.2,-28.0,-28.06,5.56,4.44,4.63,-0.69,-0.2075787511441932,0.15478519426957724,0.02222602075071833,-101.06765675595229,-9.786552516199244,-75.09226338481456,-0.1592,-0.772,-0.0853,-0.6094
194,830748.0,738.725872,1.0,8.92,3.32,-2.2,-27.56,-29.19,5.19,4.13,-4.0,-2.06,-0.15591970770756458,-0.1137273928230962,0.03978995570377464,-101.13979730318009,-9.890066196362193,-75.02001646610674,-0.1585,-0.7724,-0.0862,-0.6089
195,830748.0,738.725872,1.0,8.92,3.32,-2.2,-27.56,-29.19,5.19,4.13,-4.0,-2.06,-0.15591970770756458,-0.1137273928230962,0.03978995570377464,-101.13979730318009,-9.890066196362193,-75.02001646610674,-0.1585,-0.7724,-0.0862,-0.6089
196,830783.0,738.734815,1.0,8.69,3.35,-1.83,-28.69,-28.06,4.75,3.56,0.06,-2.44,0.1622375539909773,0.031324970550377966,0.31664485130302644,-101.23005073336391,-10.005090889774307,-74.93336628710402,-0.1584,-0.7729,-0.0872,-0.6083
197,830783.0,738.734815,1.0,8.69,3.35,-1.83,-28.69,-28.06,4.75,3.56,0.06,-2.44,0.1622375539909773,0.031324970550377966,0.31664485130302644,-101.23005073336391,-10.005090889774307,-74.93336628710402,-0.1584,-0.7729,-0.0872,-0.6083
198,830818.0,738.7818440000001,1.0,9.04,3.47,-2.02,-28.69,-28.06,5.56,1.12,-1.37,-2.56,0.0563475605373217,-0.011178432199445254,-0.08474019526957477,-101.19393897809708,-10.085614182042526,-74.93336628710402,-0.1587,-0.7727,-0.0879,-0.6083
199,830818.0,738.7818440000001,1.0,9.04,3.47,-2.02,-28.69,-28.06,5.56,1.12,-1.37,-2.56,0.0563475605373217,-0.011178432199445254,-0.08474019526957477,-101.19393897809708,-10.085614182042526,-74.93336628710402,-0.1587,-0.7727,-0.0879,-0.6083
200,830851.0,738.799393,1.0,8.94,3.54,-2.08,-28.69,-28.06,5.56,1.88,-3.69,-0.25,-0.0066784406761231105,0.07617464908688952,-0.030816788826616207,-101.32039083270723,-10.13162973120474,-74.8034850768004,-0.1586,-0.7734,-0.0883,-0.6074
201,830851.0,738.799393,1.0,8.94,3.54,-2.08,-28.69,-28.06,5.56,1.88,-3.69,-0.25,-0.0066784406761231105,0.07617464908688952,-0.030816788826616207,-101.32039083270723,-10.13162973120474,-74.8034850768004,-0.1586,-0.7734,-0.0883,-0.6074
202,830887.0,738.86428,1.0,8.97,3.51,-2.2,-28.69,-28.5,6.5,2.19,-0.75,-1.5,-0.10199586252198062,0.01956809832918549,-0.07313815226096665,-101.35655120840237,-10.258180960550504,-74.76021635401274,-0.1579,-0.7736,-0.0894,-0.6071
203,830887.0,738.86428,1.0,8.97,3.51,-2.2,-28.69,-28.5,6.5,2.19,-0.75,-1.5,-0.10199586252198062,0.01956809832918549,-0.07313815226096665,-101.35655120840237,-10.258180960550504,-74.76021635401274,-0.1579,-0.7736,-0.0894,-0.6071
204,830922.0,738.867709,1.0,8.71,3.5,-1.95,-28.69,-27.37,7.19,1.44,-2.19,-0.88,0.09041886190824372,0.12586511414519494,0.22058811816070006,-101.39272551986973,-10.48830635783265,-74.73137747245855,-0.1566,-0.7738,-0.0914,-0.6069
205,830922.0,738.867709,1.0,8.71,3.5,-1.95,-28.69,-27.37,7.19,1.44,-2.19,-0.88,0.09041886190824372,0.12586511414519494,0.22058811816070006,-101.39272551986973,-10.48830635783265,-74.73137747245855,-0.1566,-0.7738,-0.0914,-0.6069
206,830957.0,738.910109,1.0,8.68,3.42,-2.06,-28.69,-27.37,7.19,2.25,3.5,0.75,-0.02356578588005953,0.0470123871776198,0.25261239858834905,-101.35655120840237,-10.557352206642195,-74.77463787425259,-0.1561,-0.7736,-0.092,-0.6072
207,830957.0,738.910109,1.0,8.68,3.42,-2.06,-28.69,-27.37,7.19,2.25,3.5,0.75,-0.02356578588005953,0.0470123871776198,0.25261239858834905,-101.35655120840237,-10.557352206642195,-74.77463787425259,-0.1561,-0.7736,-0.092,-0.6072
208,830990.0,738.976846,1.0,9.14,3.48,-2.24,-27.87,-28.5,5.56,-0.31,0.69,-0.63,-0.09831780383694873,-0.07381379494417661,-0.22592121246216834,-101.30231586461944,-10.580368342525214,-74.84676629523163,-0.156,-0.7733,-0.0922,-0.6077
209,830990.0,738.976846,1.0,9.14,3.48,-2.24,-27.87,-28.5,5.56,-0.31,0.69,-0.63,-0.09831780383694873,-0.07381379494417661,-0.22592121246216834,-101.30231586461944,-10.580368342525214,-74.84676629523163,-0.156,-0.7733,-0.0922,-0.6077
210,831027.0,739.0427030000001,1.0,8.83,3.61,-1.99,-27.56,-28.87,5.19,1.19,1.0,-1.25,0.06691462079369068,0.1740003785244717,0.06363474281203807,-101.32039083270723,-10.591876570929834,-74.8034850768004,-0.1565,-0.7734,-0.0923,-0.6074
211,831027.0,739.0427030000001,1.0,8.83,3.61,-1.99,-27.56,-28.87,5.19,1.19,1.0,-1.25,0.06691462079369068,0.1740003785244717,0.06363474281203807,-101.32039083270723,-10.591876570929834,-74.8034850768004,-0.1565,-0.7734,-0.0923,-0.6074
212,831062.0,739.05116,1.0,9.22,3.58,-2.18,-27.56,-28.87,5.19,3.44,0.0,2.25,-0.02195635887194217,0.000409922960067366,-0.3213664765993673,-101.30231586461944,-10.62640189942489,-74.83233783296691,-0.1557,-0.7733,-0.0926,-0.6076
213,831062.0,739.05116,1.0,9.22,3.58,-2.18,-27.56,-28.87,5.19,3.44,0.0,2.25,-0.02195635887194217,0.000409922960067366,-0.3213664765993673,-101.30231586461944,-10.62640189942489,-74.83233783296691,-0.1557,-0.7733,-0.0926,-0.6076
214,831094.0,739.072443,1.0,8.85,3.48,-2.11,-28.0,-28.87,6.5,2.94,-2.88,-1.19,-0.0131875628169619,0.046244281165367614,0.0658755156663009,-101.44701315982277,-10.741493332748478,-74.71696010988838,-0.1545,-0.7741,-0.0936,-0.6068
215,831094.0,739.072443,1.0,8.85,3.48,-2.11,-28.0,-28.87,6.5,2.94,-2.88,-1.19,-0.0131875628169619,0.046244281165367614,0.0658755156663009,-101.44701315982277,-10.741493332748478,-74.71696010988838,-0.1545,-0.7741,-0.0936,-0.6068
216,831129.0,739.121004,1.0,8.8,3.39,-2.08,-28.0,-27.69,6.5,-0.63,-2.25,-1.81,0.021281349437524574,-0.022414161605877947,0.1496553997361243,-101.50133226645922,-10.833574298853826,-74.64489405402493,-0.1542,-0.7744,-0.0944,-0.6063
217,831129.0,739.121004,1.0,8.8,3.39,-2.08,-28.0,-27.69,6.5,-0.63,-2.25,-1.81,0.021281349437524574,-0.022414161605877947,0.1496553997361243,-101.50133226645922,-10.833574298853826,-74.64489405402493,-0.1542,-0.7744,-0.0944,-0.6063
218,831164.0,739.1299230000001,1.0,9.04,3.77,-2.16,-28.25,-28.87,5.56,0.37,0.69,1.12,-0.011878174491178922,0.24556328268452646,-0.22029657326785207,-101.51944563950941,-10.810553401892458,-74.64489405402493,-0.1542,-0.7745,-0.0942,-0.6063
219,831164.0,739.1299230000001,1.0,9.04,3.77,-2.16,-28.25,-28.87,5.56,0.37,0.69,1.12,-0.011878174491178922,0.24556328268452646,-0.22029657326785207,-101.51944563950941,-10.810553401892458,-74.64489405402493,-0.1542,-0.7745,-0.0942,-0.6063
