,TIME,ELAPSED_SECONDS,PSTATE,acc_x,acc_y,acc_z,mag_x,mag_y,mag_z,gyr_x,gyr_y,gyr_z,lin_x,lin_y,lin_z,eul_x,eul_y,eul_z,qua_w,qua_x,qua_y,qua_z
0,822444.0,798.138979,1.0,7.95,3.79,4.08,-23.06,-17.56,-24.75,-0.69,-3.19,-1.19,-0.1345093487029938,0.13939102895026978,0.10224494991271094,-61.52759147164257,20.285355318851703,-75.49749569312627,-0.5767,-0.5115,0.1761,-0.6122
1,822444.0,798.138979,1.0,7.95,3.79,4.08,-23.06,-17.56,-24.75,-0.69,-3.19,-1.19,-0.1345093487029938,0.13939102895026978,0.10224494991271094,-61.52759147164257,20.285355318851703,-75.49749569312627,-0.5767,-0.5115,0.1761,-0.6122
2,822478.0,798.178982,1.0,8.0,3.7,4.0,-23.06,-17.56,-24.75,0.81,-1.94,-0.12,-0.07663370405047121,0.030450310194866326,0.12764178355486067,-61.56760277209649,20.285355318851703,-75.49749569312627,-0.5764,-0.5118,0.1761,-0.6122
3,822478.0,798.178982,1.0,8.0,3.7,4.0,-23.06,-17.56,-24.75,0.81,-1.94,-0.12,-0.07663370405047121,0.030450310194866326,0.12764178355486067,-61.56760277209649,20.285355318851703,-75.49749569312627,-0.5764,-0.5118,0.1761,-0.6122
4,822511.0,798.23528,1.0,7.97,3.6,3.87,-23.75,-17.56,-25.19,2.0,-1.88,0.44,-0.04067724515547466,-0.08089240119900333,0.24372148509648106,-61.63430677668394,20.25043303206116,-75.49749569312627,-0.5761,-0.5123,0.1758,-0.6122
5,822511.0,798.23528,1.0,7.97,3.6,3.87,-23.75,-17.56,-25.19,2.0,-1.88,0.44,-0.04067724515547466,-0.08089240119900333,0.24372148509648106,-61.63430677668394,20.25043303206116,-75.49749569312627,-0.5761,-0.5123,0.1758,-0.6122
6,822548.0,798.250946,1.0,8.22,3.54,3.96,-23.06,-17.56,-25.69,0.37,1.63,-0.25,0.09406062355386292,-0.16304552143643702,0.02165287393827597,-61.60762239703414,20.20387293870638,-75.56997527074246,-0.5759,-0.5121,0.1754,-0.6127
7,822548.0,798.250946,1.0,8.22,3.54,3.96,-23.06,-17.56,-25.69,0.37,1.63,-0.25,0.09406062355386292,-0.16304552143643702,0.02165287393827597,-61.60762239703414,20.20387293870638,-75.56997527074246,-0.5759,-0.5121,0.1754,-0.6127
8,822583.0,798.293445,1.0,7.94,3.67,4.0,-23.06,-17.56,-25.69,-1.0,-4.25,-0.94,-0.05147749011150282,0.06071040258176508,0.18863750702463375,-61.64765035653756,20.23879269230359,-75.49749569312627,-0.5759,-0.5124,0.1757,-0.6122
9,822583.0,798.293445,1.0,7.94,3.67,4.0,-23.06,-17.56,-25.69,-1.0,-4.25,-0.94,-0.05147749011150282,0.06071040258176508,0.18863750702463375,-61.64765035653756,20.23879269230359,-75.49749569312627,-0.5759,-0.5124,0.1757,-0.6122
10,822616.0,798.3006230000001,1.0,8.63,4.09,3.86,-24.19,-18.0,-26.0,1.5,1.88,0.5,-0.3535959617136881,-0.2978781593608788,-0.4836774242385306,-61.660994863575795,20.21551264575777,-75.54097917727157,-0.5756,-0.5125,0.1755,-0.6125
11,822616.0,798.3006230000001,1.0,8.63,4.09,3.86,-24.19,-18.0,-26.0,1.5,1.88,0.5,-0.3535959617136881,-0.2978781593608788,-0.4836774242385306,-61.660994863575795,20.21551264575777,-75.54097917727157,-0.5756,-0.5125,0.1755,-0.6125
12,822652.0,798.398266,1.0,8.83,4.36,4.05,-23.75,-18.0,-26.0,3.25,-8.0,-2.25,-0.4421764120233219,-0.1502896332577448,-0.8311548979470107,-61.87463337928294,20.20387293870638,-75.39608386757837,-0.5753,-0.5141,0.1754,-0.6115
13,822652.0,798.398266,1.0,8.83,4.36,4.05,-23.75,-18.0,-26.0,3.25,-8.0,-2.25,-0.4421764120233219,-0.1502896332577448,-0.8311548979470107,-61.87463337928294,20.20387293870638,-75.39608386757837,-0.5753,-0.5141,0.1754,-0.6115
14,822687.0,798.4106009999999,1.0,8.69,4.62,3.92,-23.75,-18.0,-24.37,6.25,-19.31,-7.13,-0.6919403133020927,-0.032192045210072795,-0.7643992513776805,-62.3829855554336,20.331921330362565,-75.00557127858174,-0.5745,-0.5179,0.1765,-0.6088
15,822687.0,798.4106009999999,1.0,8.69,4.62,3.92,-23.75,-18.0,-24.37,6.25,-19.31,-7.13,-0.6919403133020927,-0.032192045210072795,-0.7643992513776805,-62.3829855554336,20.331921330362565,-75.00557127858174,-0.5745,-0.5179,0.1765,-0.6088
16,822722.0,798.413291,1.0,9.49,4.54,3.15,-23.75,-18.0,-24.37,7.19,-30.12,-5.38,-0.6646910277247517,-0.9139593235954356,-1.1165850607535326,-63.417287490539216,20.70457229377833,-74.14139436333637,-0.5728,-0.5256,0.1797,-0.6028
17,822722.0,798.413291,1.0,9.49,4.54,3.15,-23.75,-18.0,-24.37,7.19,-30.12,-5.38,-0.6646910277247517,-0.9139593235954356,-1.1165850607535326,-63.417287490539216,20.70457229377833,-74.14139436333637,-0.5728,-0.5256,0.1797,-0.6028
18,822759.0,798.463268,1.0,9.33,6.11,2.88,-23.5,-18.0,-24.37,3.69,-59.56,-12.56,-2.0446293058986442,-0.3963505523830162,-1.521977332606815,-64.63357693133646,21.34558610673021,-72.95399287323656,-0.5714,-0.5346,0.1852,-0.5945
19,822759.0,798.463268,1.0,9.33,6.11,2.88,-23.5,-18.0,-24.37,3.69,-59.56,-12.56,-2.0446293058986442,-0.3963505523830162,-1.521977332606815,-64.63357693133646,21.34558610673021,-72.95399287323656,-0.5714,-0.5346,0.1852,-0.5945
20,822794.0,798.519266,1.0,10.35,7.74,2.67,-23.75,-18.69,-24.75,13.69,-73.06,-10.44,-3.037145499806362,-0.13751702411635106,-3.0353060924761035,-66.93996042635567,22.36094364221954,-71.0277375402144,-0.5665,-0.5515,0.1939,-0.5809
21,822794.0,798.519266,1.0,10.35,7.74,2.67,-23.75,-18.69,-24.75,13.69,-73.06,-10.44,-3.037145499806362,-0.13751702411635106,-3.0353060924761035,-66.93996042635567,22.36094364221954,-71.0277375402144,-0.5665,-0.5515,0.1939,-0.5809
22,822829.0,798.523536,1.0,8.38,8.41,2.5,-23.75,-18.69,-24.75,35.0,-100.44,-34.0,-3.821080334316336,1.2089251890627866,-1.645002499353554,-69.70978337535752,23.144095168471857,-68.5825161330216,-0.5619,-0.5715,0.2006,-0.5634
23,822829.0,798.523536,1.0,8.38,8.41,2.5,-23.75,-18.69,-24.75,35.0,-100.44,-34.0,-3.821080334316336,1.2089251890627866,-1.645002499353554,-69.70978337535752,23.144095168471857,-68.5825161330216,-0.5619,-0.5715,0.2006,-0.5634
24,822863.0,798.579512,1.0,8.22,8.43,1.84,-25.69,-18.69,-21.87,62.75,-77.31,-32.81,-3.5711014855711816,1.293346091668384,-1.4890744153227031,-73.79710182057964,22.769918267605057,-66.1450243398958,-0.5502,-0.6004,0.1974,-0.5457
25,822863.0,798.579512,1.0,8.22,8.43,1.84,-25.69,-18.69,-21.87,62.75,-77.31,-32.81,-3.5711014855711816,1.293346091668384,-1.4890744153227031,-73.79710182057964,22.769918267605057,-66.1450243398958,-0.5502,-0.6004,0.1974,-0.5457
26,822898.0,798.6313200000001,1.0,7.95,6.63,0.96,-26.06,-21.0,-19.5,109.37,-51.94,-16.81,-2.1618624492207834,0.4808997433932762,-0.3509130043555917,-77.05643698119782,21.532188889890495,-65.42174546134221,-0.534,-0.6229,0.1868,-0.5404
27,822898.0,798.6313200000001,1.0,7.95,6.63,0.96,-26.06,-21.0,-19.5,109.37,-51.94,-16.81,-2.1618624492207834,0.4808997433932762,-0.3509130043555917,-77.05643698119782,21.532188889890495,-65.42174546134221,-0.534,-0.6229,0.1868,-0.5404
28,822935.0,798.641517,1.0,7.38,5.48,0.07,-25.0,-22.75,-17.37,85.25,-74.81,-30.06,-1.4020404861626052,0.05081365170564478,0.7219705643808609,-81.76349634670957,19.994394103683586,-64.15961512656168,-0.5093,-0.6545,0.1736,-0.5311
29,822935.0,798.641517,1.0,7.38,5.48,0.07,-25.0,-22.75,-17.37,85.25,-74.81,-30.06,-1.4020404861626052,0.05081365170564478,0.7219705643808609,-81.76349634670957,19.994394103683586,-64.15961512656168,-0.5093,-0.6545,0.1736,-0.5311
30,822970.0,798.69322,1.0,7.57,7.17,-0.51,-25.0,-22.75,-17.37,88.69,-32.06,-51.75,-2.457224626837409,0.4940337267901511,-0.3270501046043197,-84.7685979550931,18.51827857520288,-62.557208730764245,-0.5001,-0.6741,0.1609,-0.5192
31,822970.0,798.69322,1.0,7.57,7.17,-0.51,-25.0,-22.75,-17.37,88.69,-32.06,-51.75,-2.457224626837409,0.4940337267901511,-0.3270501046043197,-84.7685979550931,18.51827857520288,-62.557208730764245,-0.5001,-0.6741,0.1609,-0.5192
32,823007.0,798.699722,1.0,7.7,6.78,-0.96,-24.56,-25.75,-14.5,109.81,-12.88,-39.31,-1.8302805230627948,0.22480828017426904,-0.3313741883742836,-88.34165611190303,15.216602467156429,-61.96817529160685,-0.4816,-0.6968,0.1324,-0.5148
33,823007.0,798.699722,1.0,7.7,6.78,-0.96,-24.56,-25.75,-14.5,109.81,-12.88,-39.31,-1.8302805230627948,0.22480828017426904,-0.3313741883742836,-88.34165611190303,15.216602467156429,-61.96817529160685,-0.4816,-0.6968,0.1324,-0.5148
34,823042.0,798.755253,1.0,7.38,6.22,-0.76,-23.5,-29.87,-11.19,103.0,-29.25,-38.63,-1.0837129441675502,0.4649877682264063,0.19729244446885552,-91.18809708858042,13.184178987120148,-61.2077995443589,-0.4662,-0.7144,0.1148,-0.5091
35,823042.0,798.755253,1.0,7.38,6.22,-0.76,-23.5,-29.87,-11.19,103.0,-29.25,-38.63,-1.0837129441675502,0.4649877682264063,0.19729244446885552,-91.18809708858042,13.184178987120148,-61.2077995443589,-0.4662,-0.7144,0.1148,-0.5091
36,823076.0,798.77251,1.0,5.63,6.75,-1.1,-23.5,-29.87,-11.19,85.75,-29.94,-58.94,-1.8703713911947544,1.2939773363232367,1.2452988500890196,-94.8682331378412,10.580368342525214,-59.33950067480581,-0.4518,-0.7365,0.0922,-0.495
37,823076.0,798.77251,1.0,5.63,6.75,-1.1,-23.5,-29.87,-11.19,85.75,-29.94,-58.94,-1.8703713911947544,1.2939773363232367,1.2452988500890196,-94.8682331378412,10.580368342525214,-59.33950067480581,-0.4518,-0.7365,0.0922,-0.495
38,823111.0,798.8138150000001,1.0,7.71,6.03,-4.39,-23.06,-32.5,-6.75,94.81,25.12,-39.25,-2.3343340809204247,-2.0439203997265682,-0.4622532422277228,-96.92121959185582,7.453706284964303,-59.36587885432352,-0.4361,-0.7485,0.065,-0.4952
39,823111.0,798.8138150000001,1.0,7.71,6.03,-4.39,-23.06,-32.5,-6.75,94.81,25.12,-39.25,-2.3343340809204247,-2.0439203997265682,-0.4622532422277228,-96.92121959185582,7.453706284964303,-59.36587885432352,-0.4361,-0.7485,0.065,-0.4952
40,823148.0,798.875104,1.0,7.86,4.92,-1.04,-22.5,-34.06,-3.19,122.44,31.5,-29.81,0.7805337050635851,-0.2568496441001611,0.5118990406904746,-98.61153960499006,5.101008867683621,-59.90739833750701,-0.41700000000000004,-0.7582,0.0445,-0.4993
41,823148.0,798.875104,1.0,7.86,4.92,-1.04,-22.5,-34.06,-3.19,122.44,31.5,-29.81,0.7805337050635851,-0.2568496441001611,0.5118990406904746,-98.61153960499006,5.101008867683621,-59.90739833750701,-0.41700000000000004,-0.7582,0.0445,-0.4993
42,823183.0,798.8914570000001,1.0,6.08,3.71,-1.8,-22.5,-34.06,-3.19,80.19,-42.88,-35.44,0.28776910785992593,-0.7693874372904332,2.50625741385087,-101.91883135691955,2.7504615040371316,-58.23470667250937,-0.3991,-0.7767,0.024,-0.4866
43,823183.0,798.8914570000001,1.0,6.08,3.71,-1.8,-22.5,-34.06,-3.19,80.19,-42.88,-35.44,0.28776910785992593,-0.7693874372904332,2.50625741385087,-101.91883135691955,2.7504615040371316,-58.23470667250937,-0.3991,-0.7767,0.024,-0.4866
44,823218.0,798.9367900000001,1.0,7.26,7.63,-2.93,-21.87,-35.0,0.19,29.69,-5.88,-56.25,-1.2638854532072088,0.6870697814133098,-1.0303204565731807,-102.96169084903136,1.294912175882028,-57.05754239979307,-0.3995,-0.7824,0.0113,-0.4776
45,823218.0,798.9367900000001,1.0,7.26,7.63,-2.93,-21.87,-35.0,0.19,29.69,-5.88,-56.25,-1.2638854532072088,0.6870697814133098,-1.0303204565731807,-102.96169084903136,1.294912175882028,-57.05754239979307,-0.3995,-0.7824,0.0113,-0.4776
46,823252.0,798.996233,1.0,7.33,5.64,-2.83,-20.06,-35.06,3.19,90.0,-13.81,-14.31,-0.056692261581328764,-0.449897736965486,0.1452951253589614,-105.1029620001446,-0.9740399810272836,-56.45841982476564,-0.3821,-0.7939,-0.0085,-0.473
47,823252.0,798.996233,1.0,7.33,5.64,-2.83,-20.06,-35.06,3.19,90.0,-13.81,-14.31,-0.056692261581328764,-0.449897736965486,0.1452951253589614,-105.1029620001446,-0.9740399810272836,-56.45841982476564,-0.3821,-0.7939,-0.0085,-0.473
48,823289.0,799.013918,1.0,7.82,5.18,-3.4,-19.06,-36.0,4.19,39.44,-15.38,-23.19,0.12714150493715287,-1.2001684172760947,-0.09730026279389924,-106.39399903423677,-2.1086036789736795,-55.87394453787317,-0.373,-0.8007,-0.0184,-0.4685
49,823289.0,799.013918,1.0,7.82,5.18,-3.4,-19.06,-36.0,4.19,39.44,-15.38,-23.19,0.12714150493715287,-1.2001684172760947,-0.09730026279389924,-106.39399903423677,-2.1086036789736795,-55.87394453787317,-0.373,-0.8007,-0.0184,-0.4685
50,823322.0,799.019416,1.0,5.25,6.91,-2.76,-19.06,-36.0,4.19,47.5,-58.44,-1.19,-1.0231172030406341,1.6249260798145133,0.9049059897522936,-109.05615676372436,-2.4295230620087382,-53.949783779378244,-0.3614,-0.8144,-0.0212,-0.4536
51,823322.0,799.019416,1.0,5.25,6.91,-2.76,-19.06,-36.0,4.19,47.5,-58.44,-1.19,-1.0231172030406341,1.6249260798145133,0.9049059897522936,-109.05615676372436,-2.4295230620087382,-53.949783779378244,-0.3614,-0.8144,-0.0212,-0.4536
52,823359.0,799.059221,1.0,6.08,4.1,-3.27,-18.69,-34.56,5.75,97.56,-86.56,39.19,0.14047853221111925,-0.6483297137806165,1.8048230608431075,-112.13586614925856,-2.24613838532295,-52.61646535624809,-0.3387,-0.8297,-0.0196,-0.4432
53,823359.0,799.059221,1.0,6.08,4.1,-3.27,-18.69,-34.56,5.75,97.56,-86.56,39.19,0.14047853221111925,-0.6483297137806165,1.8048230608431075,-112.13586614925856,-2.24613838532295,-52.61646535624809,-0.3387,-0.8297,-0.0196,-0.4432
54,823396.0,799.118782,1.0,5.92,2.72,-3.05,-18.25,-34.69,8.69,36.56,-38.31,4.06,0.8930442486549495,-1.1997946831207438,2.7702969184456414,-115.88157571501449,-2.0627594617091103,-50.31398649954689,-0.3172,-0.8475,-0.018000000000000002,-0.4251
55,823396.0,799.118782,1.0,5.92,2.72,-3.05,-18.25,-34.69,8.69,36.56,-38.31,4.06,0.8930442486549495,-1.1997946831207438,2.7702969184456414,-115.88157571501449,-2.0627594617091103,-50.31398649954689,-0.3172,-0.8475,-0.018000000000000002,-0.4251
56,823431.0,799.1348469999999,1.0,10.15,-7.53,-14.89,-18.25,-34.69,8.69,0.0,-87.06,15.38,-2.1877348070314917,-16.700373161384395,-0.08005079878089383,-117.63003319551184,-1.5470330404085568,-48.76169642019097,-0.3123,-0.8555,-0.0135,-0.4128
57,823431.0,799.1348469999999,1.0,10.15,-7.53,-14.89,-18.25,-34.69,8.69,0.0,-87.06,15.38,-2.1877348070314917,-16.700373161384395,-0.08005079878089383,-117.63003319551184,-1.5470330404085568,-48.76169642019097,-0.3123,-0.8555,-0.0135,-0.4128
58,823463.0,799.179591,1.0,6.07,7.81,-4.29,-18.0,-32.75,10.75,-174.13,-45.63,14.56,-1.7349178488033972,0.9688375517555912,-0.7903549474467884,-110.61126490677215,1.9939937526124858,-49.77021027536523,-0.3829,-0.8222,0.0174,-0.4208
59,823463.0,799.179591,1.0,6.07,7.81,-4.29,-18.0,-32.75,10.75,-174.13,-45.63,14.56,-1.7349178488033972,0.9688375517555912,-0.7903549474467884,-110.61126490677215,1.9939937526124858,-49.77021027536523,-0.3829,-0.8222,0.0174,-0.4208
60,823500.0,799.196866,1.0,6.9,7.17,-2.04,-18.69,-34.25,4.38,-72.69,-29.06,-20.06,0.5951446736679136,1.66238252503566,-0.19648886526928067,-110.59113537677601,2.3263684457528235,-49.1016156188802,-0.3886,-0.8221,0.0203,-0.4155
61,823500.0,799.196866,1.0,6.9,7.17,-2.04,-18.69,-34.25,4.38,-72.69,-29.06,-20.06,0.5951446736679136,1.66238252503566,-0.19648886526928067,-110.59113537677601,2.3263684457528235,-49.1016156188802,-0.3886,-0.8221,0.0203,-0.4155
62,823537.0,799.244261,1.0,6.47,6.16,-2.65,-18.19,-34.0,4.38,7.69,-54.5,19.0,0.427012352841992,0.7769624714815064,0.5307139411200232,-111.68555504305651,3.862466868736162,-47.11885074218369,-0.39299999999999996,-0.8275,0.0337,-0.3997
63,823537.0,799.244261,1.0,6.47,6.16,-2.65,-18.19,-34.0,4.38,7.69,-54.5,19.0,0.427012352841992,0.7769624714815064,0.5307139411200232,-111.68555504305651,3.862466868736162,-47.11885074218369,-0.39299999999999996,-0.8275,0.0337,-0.3997
64,823572.0,799.30029,1.0,5.32,4.26,-2.43,-18.19,-34.0,4.38,-14.44,-49.56,38.69,0.5239515442374418,0.0958294503997812,2.590612895347108,-112.73350926918677,5.273072468222583,-46.30751972941107,-0.3873,-0.8326,0.046,-0.3932
65,823572.0,799.30029,1.0,5.32,4.26,-2.43,-18.19,-34.0,4.38,-14.44,-49.56,38.69,0.5239515442374418,0.0958294503997812,2.590612895347108,-112.73350926918677,5.273072468222583,-46.30751972941107,-0.3873,-0.8326,0.046,-0.3932
66,823609.0,799.31582,1.0,5.63,7.76,-3.02,-19.0,-34.69,4.88,-67.19,-26.25,10.75,-0.9725806673689854,1.9972936171884343,0.003599196693999218,-112.73350926918677,7.143680335170353,-44.82846183777319,-0.3968,-0.8326,0.0623,-0.3813
67,823609.0,799.31582,1.0,5.63,7.76,-3.02,-19.0,-34.69,4.88,-67.19,-26.25,10.75,-0.9725806673689854,1.9972936171884343,0.003599196693999218,-112.73350926918677,7.143680335170353,-44.82846183777319,-0.3968,-0.8326,0.0623,-0.3813
68,823644.0,799.357312,1.0,7.39,6.27,-3.36,-17.75,-36.19,4.88,-20.19,9.63,10.88,0.5876612367433833,0.2909410992632324,-0.4297852949446579,-111.86945684906635,7.878645873813733,-44.82846183777319,-0.4046,-0.8284,0.0687,-0.3813
69,823644.0,799.357312,1.0,7.39,6.27,-3.36,-17.75,-36.19,4.88,-20.19,9.63,10.88,0.5876612367433833,0.2909410992632324,-0.4297852949446579,-111.86945684906635,7.878645873813733,-44.82846183777319,-0.4046,-0.8284,0.0687,-0.3813
70,823678.0,799.3665120000001,1.0,6.11,5.35,-3.18,-17.75,-36.19,4.88,11.31,-36.19,20.5,0.16882118923075154,0.1739635327626199,1.08837975325177,-112.21802358107666,8.843785851491393,-44.506361779453115,-0.4018,-0.8301,0.0771,-0.3787
71,823678.0,799.3665120000001,1.0,6.11,5.35,-3.18,-17.75,-36.19,4.88,11.31,-36.19,20.5,0.16882118923075154,0.1739635327626199,1.08837975325177,-112.21802358107666,8.843785851491393,-44.506361779453115,-0.4018,-0.8301,0.0771,-0.3787
72,823711.0,799.423836,1.0,6.41,3.75,-4.05,-18.06,-35.5,3.69,33.81,-37.94,36.44,0.6271892883168535,-1.2567344504134528,1.4651661920816164,-113.77509319472591,10.258180960550504,-43.78915870024722,-0.3892,-0.8376,0.0894,-0.3729
73,823711.0,799.423836,1.0,6.41,3.75,-4.05,-18.06,-35.5,3.69,33.81,-37.94,36.44,0.6271892883168535,-1.2567344504134528,1.4651661920816164,-113.77509319472591,10.258180960550504,-43.78915870024722,-0.3892,-0.8376,0.0894,-0.3729
74,823748.0,799.440243,1.0,8.57,1.72,-3.86,-19.19,-34.25,4.88,19.12,1.19,34.38,3.134811579084157,-2.590561182824252,1.1599830628684398,-114.4705595501544,11.144399719947117,-43.70272222782621,-0.3807,-0.8409,0.0971,-0.3722
75,823748.0,799.440243,1.0,8.57,1.72,-3.86,-19.19,-34.25,4.88,19.12,1.19,34.38,3.134811579084157,-2.590561182824252,1.1599830628684398,-114.4705595501544,11.144399719947117,-43.70272222782621,-0.3807,-0.8409,0.0971,-0.3722
76,823785.0,799.48397,1.0,7.55,2.76,-3.55,-19.19,-34.25,4.88,-19.12,-9.31,34.69,2.0040872265068934,-1.4594746836562764,1.3759816969342058,-113.88004967231205,12.227189726180756,-44.22173568720945,-0.3801,-0.8381,0.1065,-0.3764
77,823785.0,799.48397,1.0,7.55,2.76,-3.55,-19.19,-34.25,4.88,-19.12,-9.31,34.69,2.0040872265068934,-1.4594746836562764,1.3759816969342058,-113.88004967231205,12.227189726180756,-44.22173568720945,-0.3801,-0.8381,0.1065,-0.3764
78,823818.0,799.582669,1.0,7.84,5.57,-3.55,-18.75,-33.19,5.75,-8.56,-20.87,53.69,0.7517117240215725,0.5790396210031004,-0.4008297379802333,-113.44021811063548,14.222925164993965,-44.098074864095786,-0.3806,-0.836,0.1238,-0.3754
79,823818.0,799.582669,1.0,7.84,5.57,-3.55,-18.75,-33.19,5.75,-8.56,-20.87,53.69,0.7517117240215725,0.5790396210031004,-0.4008297379802333,-113.44021811063548,14.222925164993965,-44.098074864095786,-0.3806,-0.836,0.1238,-0.3754
80,823853.0,799.588083,1.0,8.74,2.59,-3.84,-19.87,-32.06,4.19,45.0,-35.81,82.0,2.520100415042952,-1.1481974460067816,0.31075422745258585,-114.55530415588284,16.79038251334145,-44.24647435383947,-0.3591,-0.8413,0.146,-0.3766
81,823853.0,799.588083,1.0,8.74,2.59,-3.84,-19.87,-32.06,4.19,45.0,-35.81,82.0,2.520100415042952,-1.1481974460067816,0.31075422745258585,-114.55530415588284,16.79038251334145,-44.24647435383947,-0.3591,-0.8413,0.146,-0.3766
82,823889.0,799.598983,1.0,8.26,1.97,-3.54,-22.5,-31.0,5.38,-19.87,-31.06,77.0,2.5795153281700096,-0.9777022124725856,1.0299593334980646,-114.61892667196771,19.505871262305693,-43.986826321433156,-0.3505,-0.8416,0.1694,-0.3745
83,823889.0,799.598983,1.0,8.26,1.97,-3.54,-22.5,-31.0,5.38,-19.87,-31.06,77.0,2.5795153281700096,-0.9777022124725856,1.0299593334980646,-114.61892667196771,19.505871262305693,-43.986826321433156,-0.3505,-0.8416,0.1694,-0.3745
84,823924.0,799.602589,1.0,9.99,5.28,-4.62,-22.5,-31.0,5.38,-8.31,23.25,68.75,0.8735207151744174,0.7648999289839038,-2.3455016472928167,-113.04448004610614,21.742186134206424,-45.33714998751986,-0.3467,-0.8341,0.1886,-0.3854
85,823924.0,799.602589,1.0,9.99,5.28,-4.62,-22.5,-31.0,5.38,-8.31,23.25,68.75,0.8735207151744174,0.7648999289839038,-2.3455016472928167,-113.04448004610614,21.742186134206424,-45.33714998751986,-0.3467,-0.8341,0.1886,-0.3854
86,823959.0,799.639362,1.0,9.71,2.22,-5.05,-25.19,-28.25,6.19,20.19,-50.25,86.81,2.0695958511308663,-1.2215411539649663,-1.0992938024479049,-113.41933793772672,23.541932535122797,-45.598062543777615,-0.3309,-0.8359,0.204,-0.3875
87,823959.0,799.639362,1.0,9.71,2.22,-5.05,-25.19,-28.25,6.19,20.19,-50.25,86.81,2.0695958511308663,-1.2215411539649663,-1.0992938024479049,-113.41933793772672,23.541932535122797,-45.598062543777615,-0.3309,-0.8359,0.204,-0.3875
88,823996.0,799.698771,1.0,10.5,2.29,-7.12,-27.75,-28.25,6.19,44.44,-95.62,79.44,1.5327546574192126,-1.5684801844647709,-2.8968547554248243,-115.40818530642284,26.605918469153576,-43.92504042696694,-0.3042,-0.8453,0.2301,-0.374
89,823996.0,799.698771,1.0,10.5,2.29,-7.12,-27.75,-28.25,6.19,44.44,-95.62,79.44,1.5327546574192126,-1.5684801844647709,-2.8968547554248243,-115.40818530642284,26.605918469153576,-43.92504042696694,-0.3042,-0.8453,0.2301,-0.374
90,824031.0,799.715683,1.0,7.4,4.17,-4.64,-27.75,-28.25,6.19,44.75,-48.75,78.31,-0.3369759145849032,1.5175898749346977,0.2535422227117454,-116.70669462733449,28.978694933911964,-42.667502601243356,-0.2836,-0.8513,0.2502,-0.3638
91,824031.0,799.715683,1.0,7.4,4.17,-4.64,-27.75,-28.25,6.19,44.75,-48.75,78.31,-0.3369759145849032,1.5175898749346977,0.2535422227117454,-116.70669462733449,28.978694933911964,-42.667502601243356,-0.2836,-0.8513,0.2502,-0.3638
92,824064.0,799.755356,1.0,9.93,-1.99,-6.82,-28.37,-28.06,8.25,80.06,1.37,90.56,3.558237113538764,-3.1336120095657294,-1.4448754262406904,-117.14486104081259,30.401284991821623,-44.07334918943469,-0.2497,-0.8533,0.2622,-0.3752
93,824064.0,799.755356,1.0,9.93,-1.99,-6.82,-28.37,-28.06,8.25,80.06,1.37,90.56,3.558237113538764,-3.1336120095657294,-1.4448754262406904,-117.14486104081259,30.401284991821623,-44.07334918943469,-0.2497,-0.8533,0.2622,-0.3752
94,824100.0,799.810236,1.0,13.14,3.42,-10.4,-26.06,-28.37,9.0,37.75,-20.37,65.44,-0.07156554368776757,0.01166528861465177,-7.296295427440219,-116.99119192350858,32.067078184397204,-44.060987161952966,-0.2369,-0.8526,0.2762,-0.3751
95,824100.0,799.810236,1.0,13.14,3.42,-10.4,-26.06,-28.37,9.0,37.75,-20.37,65.44,-0.07156554368776757,0.01166528861465177,-7.296295427440219,-116.99119192350858,32.067078184397204,-44.060987161952966,-0.2369,-0.8526,0.2762,-0.3751
96,824137.0,799.830251,1.0,7.06,1.24,-7.52,-22.0,-28.56,5.38,93.94,-98.37,75.19,-0.6167233674393395,-0.6812537592126203,-0.541641917201261,-119.42372742198721,33.775785318620265,-42.43385492531204,-0.1976,-0.8635,0.2905,-0.3619
97,824137.0,799.830251,1.0,7.06,1.24,-7.52,-22.0,-28.56,5.38,93.94,-98.37,75.19,-0.6167233674393395,-0.6812537592126203,-0.541641917201261,-119.42372742198721,33.775785318620265,-42.43385492531204,-0.1976,-0.8635,0.2905,-0.3619
98,824172.0,799.884098,1.0,9.86,2.17,-9.69,-22.0,-28.56,5.38,0.31,-123.44,63.5,-0.3993431616532212,0.7623262685675349,-4.160596818879254,-120.8475925272034,36.44404119171296,-39.558846745858816,-0.1768,-0.8697,0.3127,-0.3384
99,824172.0,799.884098,1.0,9.86,2.17,-9.69,-22.0,-28.56,5.38,0.31,-123.44,63.5,-0.3993431616532212,0.7623262685675349,-4.160596818879254,-120.8475925272034,36.44404119171296,-39.558846745858816,-0.1768,-0.8697,0.3127,-0.3384
100,824209.0,799.924496,1.0,5.66,1.25,-5.54,-20.06,-28.5,2.38,9.94,-148.31,61.63,0.10169245815326372,1.1994655216308003,1.8794410897735432,-123.42965193046732,39.023479875283186,-35.23968756061282,-0.1462,-0.8806,0.33399999999999996,-0.3027
101,824209.0,799.924496,1.0,5.66,1.25,-5.54,-20.06,-28.5,2.38,9.94,-148.31,61.63,0.10169245815326372,1.1994655216308003,1.8794410897735432,-123.42965193046732,39.023479875283186,-35.23968756061282,-0.1462,-0.8806,0.33399999999999996,-0.3027
102,824244.0,799.944969,1.0,6.54,1.44,-6.4,-25.75,-26.19,5.0,15.13,-11.75,45.25,0.14304107724012385,1.7165014833272814,0.705091786817091,-123.50224233828399,40.58342649226998,-34.06330962524581,-0.1338,-0.8809,0.3468,-0.2929
103,824244.0,799.944969,1.0,6.54,1.44,-6.4,-25.75,-26.19,5.0,15.13,-11.75,45.25,0.14304107724012385,1.7165014833272814,0.705091786817091,-123.50224233828399,40.58342649226998,-34.06330962524581,-0.1338,-0.8809,0.3468,-0.2929
104,824279.0,799.984174,1.0,5.57,0.45,-6.03,-25.75,-26.19,5.0,34.44,-18.19,33.69,0.3049637467281168,0.8905603707510523,1.6395085576574395,-123.09201996316364,41.7585431287547,-34.00339056621902,-0.1202,-0.8792,0.3564,-0.2924
105,824279.0,799.984174,1.0,5.57,0.45,-6.03,-25.75,-26.19,5.0,34.44,-18.19,33.69,0.3049637467281168,0.8905603707510523,1.6395085576574395,-123.09201996316364,41.7585431287547,-34.00339056621902,-0.1202,-0.8792,0.3564,-0.2924
106,824313.0,800.0382950000001,1.0,5.31,-1.71,-6.39,-28.56,-23.69,3.25,44.5,-2.0,27.12,1.362137673245496,-0.7281378552440875,1.4659847853492014,-122.82802018843607,42.4092712076169,-34.339061261923746,-0.1053,-0.8781,0.3617,-0.2952
107,824313.0,800.0382950000001,1.0,5.31,-1.71,-6.39,-28.56,-23.69,3.25,44.5,-2.0,27.12,1.362137673245496,-0.7281378552440875,1.4659847853492014,-122.82802018843607,42.4092712076169,-34.339061261923746,-0.1053,-0.8781,0.3617,-0.2952
108,824348.0,800.0454950000001,1.0,5.36,-1.01,-8.01,-29.37,-24.69,2.25,2.25,34.56,24.62,0.035043280016397116,-0.8374763666880817,0.1522621217466824,-121.8536919796764,42.99984891491943,-35.131494837214326,-0.1034,-0.8740000000000001,0.3665,-0.3018
109,824348.0,800.0454950000001,1.0,5.36,-1.01,-8.01,-29.37,-24.69,2.25,2.25,34.56,24.62,0.035043280016397116,-0.8374763666880817,0.1522621217466824,-121.8536919796764,42.99984891491943,-35.131494837214326,-0.1034,-0.8740000000000001,0.3665,-0.3018
110,824385.0,800.108962,1.0,5.86,1.51,-8.02,-29.37,-24.69,2.25,-10.56,36.69,8.69,-1.6827497000128049,1.0688568144726052,-0.04048148877693514,-120.50027377126791,43.35723698802017,-36.504367169981776,-0.1078,-0.8682,0.3694,-0.3132
111,824385.0,800.108962,1.0,5.86,1.51,-8.02,-29.37,-24.69,2.25,-10.56,36.69,8.69,-1.6827497000128049,1.0688568144726052,-0.04048148877693514,-120.50027377126791,43.35723698802017,-36.504367169981776,-0.1078,-0.8682,0.3694,-0.3132
112,824418.0,800.125904,1.0,7.37,-0.04,-8.64,-31.87,-24.69,-0.69,-40.94,46.19,4.0,-0.17200183964369836,0.3964841070747505,-1.5415355695082944,-119.60574054309872,43.579286875788114,-37.26537941343616,-0.1148,-0.8643,0.3712,-0.3195
113,824418.0,800.125904,1.0,7.37,-0.04,-8.64,-31.87,-24.69,-0.69,-40.94,46.19,4.0,-0.17200183964369836,0.3964841070747505,-1.5415355695082944,-119.60574054309872,43.579286875788114,-37.26537941343616,-0.1148,-0.8643,0.3712,-0.3195
114,824455.0,800.189946,1.0,7.08,0.03,-6.91,-33.69,-23.87,-0.19,0.81,39.81,-0.44,0.2885397795817822,0.8440653470072694,-0.04625304862381618,-118.67809259864173,43.4682404912652,-38.44045190034536,-0.121,-0.8602,0.3703,-0.3292
115,824455.0,800.189946,1.0,7.08,0.03,-6.91,-33.69,-23.87,-0.19,0.81,39.81,-0.44,0.2885397795817822,0.8440653470072694,-0.04625304862381618,-118.67809259864173,43.4682404912652,-38.44045190034536,-0.121,-0.8602,0.3703,-0.3292
116,824489.0,800.1929299999999,1.0,6.84,-1.9,-7.48,-37.38,-22.56,-2.0,25.06,14.94,-1.88,1.1459626286417344,-0.8715008772856144,-0.4047777099065311,-118.72304914641389,43.049117635330035,-39.07211278567739,-0.1156,-0.8604,0.3669,-0.3344
117,824489.0,800.1929299999999,1.0,6.84,-1.9,-7.48,-37.38,-22.56,-2.0,25.06,14.94,-1.88,1.1459626286417344,-0.8715008772856144,-0.4047777099065311,-118.72304914641389,43.049117635330035,-39.07211278567739,-0.1156,-0.8604,0.3669,-0.3344
118,824524.0,800.235132,1.0,8.03,0.67,-8.34,-37.38,-22.56,-2.0,9.63,15.63,-11.56,-0.5616622896255596,1.1319883294682571,-1.7210790866137309,-118.67809259864173,42.51991407307619,-39.644101400128214,-0.1163,-0.8602,0.3626,-0.3391
119,824524.0,800.235132,1.0,8.03,0.67,-8.34,-37.38,-22.56,-2.0,9.63,15.63,-11.56,-0.5616622896255596,1.1319883294682571,-1.7210790866137309,-118.67809259864173,42.51991407307619,-39.644101400128214,-0.1163,-0.8602,0.3626,-0.3391
120,824559.0,800.291857,1.0,6.83,-0.8,-8.11,-39.38,-20.19,-2.88,39.56,-24.12,-15.69,-0.05566489532598778,-0.33802431187131465,-0.8208445769928385,-119.49192425354241,41.80760523510253,-39.644101400128214,-0.1077,-0.8638,0.3568,-0.3391
121,824559.0,800.291857,1.0,6.83,-0.8,-8.11,-39.38,-20.19,-2.88,39.56,-24.12,-15.69,-0.05566489532598778,-0.33802431187131465,-0.8208445769928385,-119.49192425354241,41.80760523510253,-39.644101400128214,-0.1077,-0.8638,0.3568,-0.3391
122,824596.0,800.29879,1.0,7.26,-1.38,-7.84,-41.0,-18.37,-3.38,14.56,13.69,-14.06,0.6237764952533551,-0.3716634386648059,-0.9427857606494552,-120.08590691104773,40.87678270719479,-40.02193352838936,-0.1011,-0.8664,0.3492,-0.3422
123,824596.0,800.29879,1.0,7.26,-1.38,-7.84,-41.0,-18.37,-3.38,14.56,13.69,-14.06,0.6237764952533551,-0.3716634386648059,-0.9427857606494552,-120.08590691104773,40.87678270719479,-40.02193352838936,-0.1011,-0.8664,0.3492,-0.3422
124,824631.0,800.352698,1.0,6.8,-0.53,-8.34,-41.0,-18.37,-3.38,16.56,7.5,-19.87,-0.4739715922224109,-0.2380590072107761,-0.9541668295372451,-120.40796619724487,40.21712102458852,-40.27814205807221,-0.1006,-0.8678,0.3438,-0.3443
125,824631.0,800.352698,1.0,6.8,-0.53,-8.34,-41.0,-18.37,-3.38,16.56,7.5,-19.87,-0.4739715922224109,-0.2380590072107761,-0.9541668295372451,-120.40796619724487,40.21712102458852,-40.27814205807221,-0.1006,-0.8678,0.3438,-0.3443
126,824666.0,800.364479,1.0,7.77,-2.98,-9.51,-42.19,-17.69,-5.75,19.19,-16.56,-17.62,1.056666100191282,-1.9814823132128,-2.629208820167245,-121.3135909011287,39.364064490012716,-40.09511461656773,-0.0958,-0.8717,0.3368,-0.3428
127,824666.0,800.364479,1.0,7.77,-2.98,-9.51,-42.19,-17.69,-5.75,19.19,-16.56,-17.62,1.056666100191282,-1.9814823132128,-2.629208820167245,-121.3135909011287,39.364064490012716,-40.09511461656773,-0.0958,-0.8717,0.3368,-0.3428
128,824700.0,800.4120429999999,1.0,8.09,-1.39,-9.44,-47.19,-17.37,-10.0,-31.81,-14.13,-23.44,0.4419038309334228,-0.6680363358541213,-2.6774298002169563,-121.87727845049913,39.181563633405815,-39.31538744994931,-0.1017,-0.8741,0.3353,-0.3364
129,824700.0,800.4120429999999,1.0,8.09,-1.39,-9.44,-47.19,-17.37,-10.0,-31.81,-14.13,-23.44,0.4419038309334228,-0.6680363358541213,-2.6774298002169563,-121.87727845049913,39.181563633405815,-39.31538744994931,-0.1017,-0.8741,0.3353,-0.3364
130,824737.0,800.4272900000001,1.0,6.98,-0.21,-8.35,-51.0,-12.5,-9.38,-18.44,-20.87,-25.75,-0.021634235555903047,-0.0695650721172465,-1.0782796121101867,-122.85197400573631,38.8168714421915,-37.87057079932817,-0.1138,-0.8782,0.3323,-0.3245
131,824737.0,800.4272900000001,1.0,6.98,-0.21,-8.35,-51.0,-12.5,-9.38,-18.44,-20.87,-25.75,-0.021634235555903047,-0.0695650721172465,-1.0782796121101867,-122.85197400573631,38.8168714421915,-37.87057079932817,-0.1138,-0.8782,0.3323,-0.3245
132,824772.0,800.487025,1.0,6.07,-1.22,-7.55,-51.0,-12.5,-9.38,-18.94,-19.81,-34.13,0.6969862145814738,-1.053673875566935,0.12471932576817225,-123.6719537539127,38.23421144458892,-37.09611957275582,-0.1201,-0.8816,0.3275,-0.3181
133,824772.0,800.487025,1.0,6.07,-1.22,-7.55,-51.0,-12.5,-9.38,-18.94,-19.81,-34.13,0.6969862145814738,-1.053673875566935,0.12471932576817225,-123.6719537539127,38.23421144458892,-37.09611957275582,-0.1201,-0.8816,0.3275,-0.3181
134,824809.0,800.532234,1.0,8.3,-2.15,-9.8,-50.88,-12.88,-11.06,-63.0,-2.38,-34.81,1.8887730491752184,-1.8898377905541928,-2.9375074650544284,-124.45383854948406,37.483123203499495,-36.02205079852741,-0.135,-0.8848,0.3213,-0.3092
135,824809.0,800.532234,1.0,8.3,-2.15,-9.8,-50.88,-12.88,-11.06,-63.0,-2.38,-34.81,1.8887730491752184,-1.8898377905541928,-2.9375074650544284,-124.45383854948406,37.483123203499495,-36.02205079852741,-0.135,-0.8848,0.3213,-0.3092
136,824844.0,800.548667,1.0,9.41,0.62,-10.04,-49.38,-16.06,-11.56,-87.19,-25.19,-38.13,1.0945223121295584,0.2836146814461891,-3.9212662155339055,-124.74966789127242,37.362137156703376,-34.65102767354547,-0.1541,-0.8859999999999999,0.3203,-0.2978
137,824844.0,800.548667,1.0,9.41,0.62,-10.04,-49.38,-16.06,-11.56,-87.19,-25.19,-38.13,1.0945223121295584,0.2836146814461891,-3.9212662155339055,-124.74966789127242,37.362137156703376,-34.65102767354547,-0.1541,-0.8859999999999999,0.3203,-0.2978
138,824879.0,800.584799,1.0,6.85,-1.18,-6.98,-49.38,-16.06,-11.56,-36.25,-54.81,-56.81,2.574724004293492,-0.9859785488677107,0.3496979221427967,-126.55630673438098,36.60091053338324,-31.769115255908964,-0.1695,-0.8932,0.314,-0.2737
139,824879.0,800.584799,1.0,6.85,-1.18,-6.98,-49.38,-16.06,-11.56,-36.25,-54.81,-56.81,2.574724004293492,-0.9859785488677107,0.3496979221427967,-126.55630673438098,36.60091053338324,-31.769115255908964,-0.1695,-0.8932,0.314,-0.2737
140,824913.0,800.6068349999999,1.0,7.34,-3.47,-8.5,-48.25,-14.56,-12.5,-64.19,-31.69,-49.69,4.337273381513967,-3.4091622024760158,-0.5727609992436147,-127.94929869917114,35.56446095223015,-29.45237314889127,-0.18600000000000003,-0.8986,0.3054,-0.2542
141,824913.0,800.6068349999999,1.0,7.34,-3.47,-8.5,-48.25,-14.56,-12.5,-64.19,-31.69,-49.69,4.337273381513967,-3.4091622024760158,-0.5727609992436147,-127.94929869917114,35.56446095223015,-29.45237314889127,-0.18600000000000003,-0.8986,0.3054,-0.2542
142,824950.0,800.644533,1.0,8.18,-0.51,-8.1,-46.0,-17.56,-15.0,-61.94,-60.88,-41.69,3.6490744111818074,-0.7741720680845137,-1.0959833310194362,-128.71188283967422,35.227664546585345,-27.230405140191408,-0.2009,-0.9015,0.3026,-0.2354
143,824950.0,800.644533,1.0,8.18,-0.51,-8.1,-46.0,-17.56,-15.0,-61.94,-60.88,-41.69,3.6490744111818074,-0.7741720680845137,-1.0959833310194362,-128.71188283967422,35.227664546585345,-27.230405140191408,-0.2009,-0.9015,0.3026,-0.2354
144,824987.0,800.706824,1.0,5.59,-0.66,-5.72,-42.0,-16.0,-17.56,-41.63,-59.06,-36.69,3.06646666071257,-0.8424838190117353,2.438536046385974,-130.13362905346793,34.831128724414064,-24.150948661500923,-0.2106,-0.9068,0.2993,-0.2092
145,824987.0,800.706824,1.0,5.59,-0.66,-5.72,-42.0,-16.0,-17.56,-41.63,-59.06,-36.69,3.06646666071257,-0.8424838190117353,2.438536046385974,-130.13362905346793,34.831128724414064,-24.150948661500923,-0.2106,-0.9068,0.2993,-0.2092
146,825022.0,800.724588,1.0,6.35,-3.45,-8.06,-42.0,-16.0,-17.56,-44.69,-27.87,-8.5,5.043057989380066,-3.735087590181424,0.9859194855004976,-130.43348264858346,34.80711013090355,-22.79329707445838,-0.2172,-0.9079,0.2991,-0.1976
147,825022.0,800.724588,1.0,6.35,-3.45,-8.06,-42.0,-16.0,-17.56,-44.69,-27.87,-8.5,5.043057989380066,-3.735087590181424,0.9859194855004976,-130.43348264858346,34.80711013090355,-22.79329707445838,-0.2172,-0.9079,0.2991,-0.1976
148,825059.0,800.777723,1.0,6.51,-1.36,-7.41,-39.38,-18.87,-19.25,-56.81,-33.06,22.81,4.315841383402363,-1.7946726998007267,1.015150523010787,-129.43150224575868,36.04615086901799,-21.054133663315955,-0.231,-0.9042,0.3094,-0.1827
149,825059.0,800.777723,1.0,6.51,-1.36,-7.41,-39.38,-18.87,-19.25,-56.81,-33.06,22.81,4.315841383402363,-1.7946726998007267,1.015150523010787,-129.43150224575868,36.04615086901799,-21.054133663315955,-0.231,-0.9042,0.3094,-0.1827
150,825094.0,800.781204,1.0,5.32,2.21,-5.13,-35.56,-18.87,-20.06,-52.81,-17.12,30.87,1.6276492910613969,1.3223687773784076,2.3833422061710205,-128.23732310544656,37.277472623411406,-20.122400879873982,-0.2405,-0.8997,0.3196,-0.1747
151,825094.0,800.781204,1.0,5.32,2.21,-5.13,-35.56,-18.87,-20.06,-52.81,-17.12,30.87,1.6276492910613969,1.3223687773784076,2.3833422061710205,-128.23732310544656,37.277472623411406,-20.122400879873982,-0.2405,-0.8997,0.3196,-0.1747
152,825128.0,800.840057,1.0,5.51,1.34,-5.68,-35.56,-18.87,-20.06,-4.31,-14.81,42.06,2.240078117688132,0.5838343845530378,2.1216459376674153,-127.09397976921673,38.74398218156732,-19.72682480222871,-0.243,-0.8953,0.3317,-0.1713
153,825128.0,800.840057,1.0,5.51,1.34,-5.68,-35.56,-18.87,-20.06,-4.31,-14.81,42.06,2.240078117688132,0.5838343845530378,2.1216459376674153,-127.09397976921673,38.74398218156732,-19.72682480222871,-0.243,-0.8953,0.3317,-0.1713
154,825163.0,800.886224,1.0,4.36,0.44,-4.92,-37.38,-23.5,-17.87,16.56,-18.19,55.13,2.0260928404309078,0.009573291974882936,3.537323389108252,-126.07412316645296,40.815643818297026,-19.796614956633128,-0.2333,-0.8913,0.3487,-0.1719
155,825163.0,800.886224,1.0,4.36,0.44,-4.92,-37.38,-23.5,-17.87,16.56,-18.19,55.13,2.0260928404309078,0.009573291974882936,3.537323389108252,-126.07412316645296,40.815643818297026,-19.796614956633128,-0.2333,-0.8913,0.3487,-0.1719
156,825200.0,800.942796,1.0,4.9,2.62,-5.41,-38.5,-22.56,-14.5,13.88,13.63,72.69,0.5751429982056292,1.5210688856485377,2.2239024783738865,-124.57692406667047,42.64289936464318,-20.599742008899195,-0.2281,-0.8853,0.3636,-0.1788
157,825200.0,800.942796,1.0,4.9,2.62,-5.41,-38.5,-22.56,-14.5,13.88,13.63,72.69,0.5751429982056292,1.5210688856485377,2.2239024783738865,-124.57692406667047,42.64289936464318,-20.599742008899195,-0.2281,-0.8853,0.3636,-0.1788
158,825235.0,800.958834,1.0,3.81,2.57,-5.79,-38.5,-22.56,-14.5,36.06,7.75,76.87,-0.5239522512260153,0.7864615089955611,2.4750708840589044,-122.6606000192726,45.10129990098643,-22.104021805228786,-0.2153,-0.8774,0.3835,-0.1917
159,825235.0,800.958834,1.0,3.81,2.57,-5.79,-38.5,-22.56,-14.5,36.06,7.75,76.87,-0.5239522512260153,0.7864615089955611,2.4750708840589044,-122.6606000192726,45.10129990098643,-22.104021805228786,-0.2153,-0.8774,0.3835,-0.1917
160,825270.0,800.964256,1.0,4.07,2.55,-7.47,-41.06,-16.19,-12.25,25.0,28.94,81.12,-0.9737447947663888,0.1201709454304758,0.9802305663598948,-120.96377821929032,46.9938686467816,-23.541932535122797,-0.2055,-0.8702,0.3987,-0.204
161,825270.0,800.964256,1.0,4.07,2.55,-7.47,-41.06,-16.19,-12.25,25.0,28.94,81.12,-0.9737447947663888,0.1201709454304758,0.9802305663598948,-120.96377821929032,46.9938686467816,-23.541932535122797,-0.2055,-0.8702,0.3987,-0.204
162,825305.0,801.003667,1.0,2.71,4.88,-7.08,-38.75,-12.5,-12.69,29.06,17.62,89.19,-3.9772735493851994,0.8341973036041788,1.7586496289748863,-118.25247900079262,49.75757860526172,-25.47680417585264,-0.1943,-0.8583,0.4207,-0.2205
163,825305.0,801.003667,1.0,2.71,4.88,-7.08,-38.75,-12.5,-12.69,29.06,17.62,89.19,-3.9772735493851994,0.8341973036041788,1.7586496289748863,-118.25247900079262,49.75757860526172,-25.47680417585264,-0.1943,-0.8583,0.4207,-0.2205
164,825341.0,801.08032,1.0,5.14,4.71,-9.11,-34.38,-11.69,-14.38,30.87,37.44,94.0,-3.4535218304920483,1.2029173641021398,-1.066343000156694,-116.01122474494795,51.787033887514276,-27.242195772473625,-0.1857,-0.8481,0.4367,-0.2355
165,825341.0,801.08032,1.0,5.14,4.71,-9.11,-34.38,-11.69,-14.38,30.87,37.44,94.0,-3.4535218304920483,1.2029173641021398,-1.066343000156694,-116.01122474494795,51.787033887514276,-27.242195772473625,-0.1857,-0.8481,0.4367,-0.2355
166,825376.0,801.083316,1.0,5.27,6.63,-8.49,-34.38,-11.69,-14.38,37.69,22.44,77.19,-5.467767317225041,2.6158044083049354,-0.5408611916913699,-113.37759496408128,54.219965017577714,-29.274683969227155,-0.1733,-0.8357,0.4557,-0.2527
167,825376.0,801.083316,1.0,5.27,6.63,-8.49,-34.38,-11.69,-14.38,37.69,22.44,77.19,-5.467767317225041,2.6158044083049354,-0.5408611916913699,-113.37759496408128,54.219965017577714,-29.274683969227155,-0.1733,-0.8357,0.4557,-0.2527
168,825411.0,801.1210530000001,1.0,3.26,2.33,-7.95,-37.19,-13.25,-9.06,76.81,17.94,76.06,-2.9861693546149226,-0.5694573329995369,1.4390033217844458,-111.95133120994127,55.640597444132574,-30.95976345993856,-0.1551,-0.8288,0.4667,-0.2669
169,825411.0,801.1210530000001,1.0,3.26,2.33,-7.95,-37.19,-13.25,-9.06,76.81,17.94,76.06,-2.9861693546149226,-0.5694573329995369,1.4390033217844458,-111.95133120994127,55.640597444132574,-30.95976345993856,-0.1551,-0.8288,0.4667,-0.2669
170,825448.0,801.180497,1.0,6.31,1.19,-10.47,-44.75,-9.5,-3.25,16.69,43.31,70.5,-2.1205568867581386,-0.3397337654160756,-2.2863611824416523,-109.29346359122705,57.56683056380633,-33.309024075692264,-0.1447,-0.8156,0.4815,-0.2866
171,825448.0,801.180497,1.0,6.31,1.19,-10.47,-44.75,-9.5,-3.25,16.69,43.31,70.5,-2.1205568867581386,-0.3397337654160756,-2.2863611824416523,-109.29346359122705,57.56683056380633,-33.309024075692264,-0.1447,-0.8156,0.4815,-0.2866
172,825483.0,801.192506,1.0,7.32,3.28,-10.11,-44.75,-9.5,-3.25,1.81,29.19,67.62,-3.8241656219791818,1.436002666231862,-2.4353495767949433,-107.06613098760813,59.286754689259176,-34.50701040671306,-0.1437,-0.8042,0.4946,-0.2966
173,825483.0,801.192506,1.0,7.32,3.28,-10.11,-44.75,-9.5,-3.25,1.81,29.19,67.62,-3.8241656219791818,1.436002666231862,-2.4353495767949433,-107.06613098760813,59.286754689259176,-34.50701040671306,-0.1437,-0.8042,0.4946,-0.2966
174,825518.0,801.239205,1.0,7.37,1.74,-8.32,-47.56,-4.5,-2.88,-8.13,32.75,40.31,-2.157621311390945,1.540653590192638,-1.1266915199406586,-104.97114038563049,60.79551422894158,-35.67278424373711,-0.1452,-0.7932,0.506,-0.3063
175,825518.0,801.239205,1.0,7.37,1.74,-8.32,-47.56,-4.5,-2.88,-8.13,32.75,40.31,-2.157621311390945,1.540653590192638,-1.1266915199406586,-104.97114038563049,60.79551422894158,-35.67278424373711,-0.1452,-0.7932,0.506,-0.3063
176,825552.0,801.245921,1.0,8.5,2.04,-8.31,-49.56,-1.06,-2.5,-2.5,43.25,28.06,-2.2971764680000275,2.294455082271341,-1.809121870620832,-103.58945826629656,61.48758848560482,-36.673335709404434,-0.1491,-0.7858,0.5112,-0.3146
177,825552.0,801.245921,1.0,8.5,2.04,-8.31,-49.56,-1.06,-2.5,-2.5,43.25,28.06,-2.2971764680000275,2.294455082271341,-1.809121870620832,-103.58945826629656,61.48758848560482,-36.673335709404434,-0.1491,-0.7858,0.5112,-0.3146
178,825589.0,801.30333,1.0,8.07,1.39,-7.63,-51.38,-1.06,-2.75,19.37,25.75,18.19,-1.8597819097486183,1.942162570346012,-1.0581148754365015,-102.35649190819592,61.92808029086676,-38.0038595239246,-0.1495,-0.7791,0.5145,-0.3256
179,825589.0,801.30333,1.0,8.07,1.39,-7.63,-51.38,-1.06,-2.75,19.37,25.75,18.19,-1.8597819097486183,1.942162570346012,-1.0581148754365015,-102.35649190819592,61.92808029086676,-38.0038595239246,-0.1495,-0.7791,0.5145,-0.3256
180,825624.0,801.319604,1.0,5.86,0.15,-6.0,-51.38,-1.06,-2.75,23.19,14.44,16.62,-0.8772957218910143,0.767645863440567,1.4998352046229932,-101.80973815523876,62.08851089054388,-38.82902123966127,-0.1461,-0.7761,0.5157,-0.3324
181,825624.0,801.319604,1.0,5.86,0.15,-6.0,-51.38,-1.06,-2.75,23.19,14.44,16.62,-0.8772957218910143,0.767645863440567,1.4998352046229932,-101.80973815523876,62.08851089054388,-38.82902123966127,-0.1461,-0.7761,0.5157,-0.3324
182,825659.0,801.39574,1.0,7.22,-0.8,-7.7,-51.19,2.19,-2.0,8.56,48.44,15.25,-0.6038492257158053,0.18304224214552825,-0.7602919251831235,-100.70777770605257,62.03501902225592,-40.63229985656115,-0.1452,-0.77,0.5153,-0.3472
183,825659.0,801.39574,1.0,7.22,-0.8,-7.7,-51.19,2.19,-2.0,8.56,48.44,15.25,-0.6038492257158053,0.18304224214552825,-0.7602919251831235,-100.70777770605257,62.03501902225592,-40.63229985656115,-0.1452,-0.77,0.5153,-0.3472
184,825694.0,801.4058570000001,1.0,7.68,-0.9,-8.66,-51.0,3.25,-3.0,-13.5,28.69,4.75,-0.8772363921673504,-0.27692109694648304,-1.7666715205628467,-99.97425316489787,62.04839058120868,-41.452085959696824,-0.1497,-0.7659,0.5154,-0.3539
185,825694.0,801.4058570000001,1.0,7.68,-0.9,-8.66,-51.0,3.25,-3.0,-13.5,28.69,4.75,-0.8772363921673504,-0.27692109694648304,-1.7666715205628467,-99.97425316489787,62.04839058120868,-41.452085959696824,-0.1497,-0.7659,0.5154,-0.3539
186,825729.0,801.418545,1.0,14.75,0.76,-17.33,-51.0,3.25,-3.0,-3.25,23.5,5.13,-4.369067867082618,-0.3725129287622164,-12.537062316683881,-98.99894740813559,62.16877688957837,-42.37239946677662,-0.1568,-0.7604,0.5163,-0.3614
187,825729.0,801.418545,1.0,14.75,0.76,-17.33,-51.0,3.25,-3.0,-3.25,23.5,5.13,-4.369067867082618,-0.3725129287622164,-12.537062316683881,-98.99894740813559,62.16877688957837,-42.37239946677662,-0.1568,-0.7604,0.5163,-0.3614
188,825763.0,801.462731,1.0,7.86,-1.9,-7.92,-51.25,2.38,-5.38,19.37,53.63,-3.25,0.17527196055246252,-0.4587100892951421,-1.5015268996519904,-98.87551537138796,61.78113721204743,-43.01216531236248,-0.1576,-0.7597,0.5134,-0.3666
189,825763.0,801.462731,1.0,7.86,-1.9,-7.92,-51.25,2.38,-5.38,19.37,53.63,-3.25,0.17527196055246252,-0.4587100892951421,-1.5015268996519904,-98.87551537138796,61.78113721204743,-43.01216531236248,-0.1576,-0.7597,0.5134,-0.3666
190,825800.0,801.526712,1.0,8.17,-2.5,-7.46,-48.19,-3.06,-8.06,15.31,7.88,-4.0,0.9277490750231552,-0.4687551548789006,-1.488041242285826,-98.31321925058506,61.447593803930225,-43.801508905676954,-0.1659,-0.7565,0.5109,-0.373
191,825800.0,801.526712,1.0,8.17,-2.5,-7.46,-48.19,-3.06,-8.06,15.31,7.88,-4.0,0.9277490750231552,-0.4687551548789006,-1.488041242285826,-98.31321925058506,61.447593803930225,-43.801508905676954,-0.1659,-0.7565,0.5109,-0.373
192,825835.0,801.543622,1.0,7.69,-1.07,-6.77,-48.19,-3.06,-8.06,-2.88,-24.06,2.19,-0.1835349549129837,0.3795977965148476,-0.4858774074546997,-98.66427811303318,61.50092189108089,-43.5175891368055,-0.1605,-0.7585,0.5113,-0.3707
193,825835.0,801.543622,1.0,7.69,-1.07,-6.77,-48.19,-3.06,-8.06,-2.88,-24.06,2.19,-0.1835349549129837,0.3795977965148476,-0.4858774074546997,-98.66427811303318,61.50092189108089,-43.5175891368055,-0.1605,-0.7585,0.5113,-0.3707
194,825868.0,801.581788,1.0,6.64,-2.76,-5.9,-42.88,-6.56,-7.69,-2.31,7.44,-4.63,1.5006156817003158,-0.4833650108994454,0.6397688050638877,-99.03424230026712,61.247744610159856,-43.32024532286975,-0.1603,-0.7606,0.5094,-0.3691
195,825868.0,801.581788,1.0,6.64,-2.76,-5.9,-42.88,-6.56,-7.69,-2.31,7.44,-4.63,1.5006156817003158,-0.4833650108994454,0.6397688050638877,-99.03424230026712,61.247744610159856,-43.32024532286975,-0.1603,-0.7606,0.5094,-0.3691
196,825903.0,801.637166,1.0,8.87,-1.47,-8.09,-42.75,-5.69,-6.69,-10.06,-6.13,-9.19,0.013611526652703263,0.1711762804769763,-2.2870017813001464,-99.14020348928251,61.27437923360549,-43.03679967235915,-0.1624,-0.7612,0.5096,-0.3668
197,825903.0,801.637166,1.0,8.87,-1.47,-8.09,-42.75,-5.69,-6.69,-10.06,-6.13,-9.19,0.013611526652703263,0.1711762804769763,-2.2870017813001464,-99.14020348928251,61.27437923360549,-43.03679967235915,-0.1624,-0.7612,0.5096,-0.3668
198,825939.0,801.658388,1.0,6.43,-1.28,-4.87,-40.75,-6.69,-7.06,-13.5,-53.31,-14.56,0.7603160714623189,0.8125870281427643,1.7158019731754823,-100.24196356728784,61.367629313530685,-41.47659109099214,-0.1592,-0.7674,0.5103,-0.3541
199,825939.0,801.658388,1.0,6.43,-1.28,-4.87,-40.75,-6.69,-7.06,-13.5,-53.31,-14.56,0.7603160714623189,0.8125870281427643,1.7158019731754823,-100.24196356728784,61.367629313530685,-41.47659109099214,-0.1592,-0.7674,0.5103,-0.3541
200,825974.0,801.716233,1.0,8.09,-0.92,-7.94,-40.75,-6.69,-7.06,-25.37,-23.06,-18.0,-0.08749163018078943,0.3318093769174588,-1.5608628217230542,-101.10372013014187,61.35430511840602,-40.07071902721768,-0.1614,-0.7722,0.5102,-0.3426
201,825974.0,801.716233,1.0,8.09,-0.92,-7.94,-40.75,-6.69,-7.06,-25.37,-23.06,-18.0,-0.08749163018078943,0.3318093769174588,-1.5608628217230542,-101.10372013014187,61.35430511840602,-40.07071902721768,-0.1614,-0.7722,0.5102,-0.3426
202,826011.0,801.7303820000001,1.0,8.57,-2.19,-10.41,-37.25,-9.25,-2.25,-5.25,-39.94,-19.81,0.5221515934821059,-1.2325938167505208,-3.788097890135092,-102.0280527784433,61.12793410600524,-38.91408254537286,-0.1616,-0.7773,0.5085,-0.3331
203,826011.0,801.7303820000001,1.0,8.57,-2.19,-10.41,-37.25,-9.25,-2.25,-5.25,-39.94,-19.81,0.5221515934821059,-1.2325938167505208,-3.788097890135092,-102.0280527784433,61.12793410600524,-38.91408254537286,-0.1616,-0.7773,0.5085,-0.3331
204,826048.0,801.7634860000001,1.0,7.13,-2.01,-7.99,-35.06,-11.5,4.06,-10.25,-39.13,-15.88,1.1178207257379138,-0.4947273010534496,-1.0202988648789315,-103.27503144100895,61.114626396297396,-37.10820677500307,-0.1597,-0.7841,0.5084,-0.3182
205,826048.0,801.7634860000001,1.0,7.13,-2.01,-7.99,-35.06,-11.5,4.06,-10.25,-39.13,-15.88,1.1178207257379138,-0.4947273010534496,-1.0202988648789315,-103.27503144100895,61.114626396297396,-37.10820677500307,-0.1597,-0.7841,0.5084,-0.3182
206,826081.0,801.779438,1.0,8.6,-0.07,-10.37,-35.06,-11.5,4.06,-47.19,-27.44,-9.13,-0.7346366848681409,0.031657505327105984,-3.6455285129250505,-103.47835920176271,61.43426408705058,-35.9377135193296,-0.1653,-0.7852,0.5108,-0.3085
207,826081.0,801.779438,1.0,8.6,-0.07,-10.37,-35.06,-11.5,4.06,-47.19,-27.44,-9.13,-0.7346366848681409,0.031657505327105984,-3.6455285129250505,-103.47835920176271,61.43426408705058,-35.9377135193296,-0.1653,-0.7852,0.5108,-0.3085
208,826116.0,801.823935,1.0,7.6,-0.68,-9.02,-29.5,-14.0,13.06,-25.87,-44.06,-17.69,0.3666582256881249,0.02754148206692686,-2.0021434697961755,-104.42711160225716,61.63430677668394,-33.775785318620265,-0.1691,-0.7903,0.5123,-0.2905
209,826116.0,801.823935,1.0,7.6,-0.68,-9.02,-29.5,-14.0,13.06,-25.87,-44.06,-17.69,0.3666582256881249,0.02754148206692686,-2.0021434697961755,-104.42711160225716,61.63430677668394,-33.775785318620265,-0.1691,-0.7903,0.5123,-0.2905
210,826152.0,801.843011,1.0,7.78,0.09,-8.83,-27.0,-12.38,19.69,-50.75,-23.25,-37.38,0.15163115695248752,0.5631538732235069,-1.947722195371158,-105.140661692498,61.34098184227653,-32.2936788968098,-0.1783,-0.7941,0.5101,-0.2781
211,826152.0,801.843011,1.0,7.78,0.09,-8.83,-27.0,-12.38,19.69,-50.75,-23.25,-37.38,0.15163115695248752,0.5631538732235069,-1.947722195371158,-105.140661692498,61.34098184227653,-32.2936788968098,-0.1783,-0.7941,0.5101,-0.2781
212,826189.0,801.890157,1.0,7.57,-0.73,-9.1,-23.56,-12.19,22.75,-19.19,-43.94,-27.06,1.213872843587284,0.10288553068855276,-1.9901176626767665,-106.604670219113,60.941709061307236,-30.033332077879628,-0.1812,-0.8018,0.5071,-0.2591
213,826189.0,801.890157,1.0,7.57,-0.73,-9.1,-23.56,-12.19,22.75,-19.19,-43.94,-27.06,1.213872843587284,0.10288553068855276,-1.9901176626767665,-106.604670219113,60.941709061307236,-30.033332077879628,-0.1812,-0.8018,0.5071,-0.2591
214,826222.0,801.928759,1.0,7.06,-1.56,-8.98,-23.56,-12.19,22.75,-34.63,-44.94,-32.13,2.1825534537749656,-0.4052138253493891,-1.5066104574084065,-107.72420666963673,60.64942873214444,-28.12734139012517,-0.184,-0.8076,0.5049,-0.243
215,826222.0,801.928759,1.0,7.06,-1.56,-8.98,-23.56,-12.19,22.75,-34.63,-44.94,-32.13,2.1825534537749656,-0.4052138253493891,-1.5066104574084065,-107.72420666963673,60.64942873214444,-28.12734139012517,-0.184,-0.8076,0.5049,-0.243
216,826261.0,801.98342,1.0,6.28,-1.32,-8.5,-22.37,-12.38,24.87,-48.56,-37.75,-25.37,2.248465055052073,-0.4940879885066147,-0.5919596164738881,-108.72114762709059,60.46365910623083,-25.617803632217928,-0.1917,-0.8127,0.5035,-0.2217
217,826261.0,801.98342,1.0,6.28,-1.32,-8.5,-22.37,-12.38,24.87,-48.56,-37.75,-25.37,2.248465055052073,-0.4940879885066147,-0.5919596164738881,-108.72114762709059,60.46365910623083,-25.617803632217928,-0.1917,-0.8127,0.5035,-0.2217
218,826296.0,802.002612,1.0,6.1,-0.3,-8.3,-21.25,-14.0,27.5,-60.25,-34.81,-21.44,1.6303528612980536,-0.04178802341866672,-0.3683292780504477,-109.09565995624818,60.52998522199608,-23.82293200606416,-0.1995,-0.8146,0.504,-0.2064
219,826296.0,802.002612,1.0,6.1,-0.3,-8.3,-21.25,-14.0,27.5,-60.25,-34.81,-21.44,1.6303528612980536,-0.04178802341866672,-0.3683292780504477,-109.09565995624818,60.52998522199608,-23.82293200606416,-0.1995,-0.8146,0.504,-0.2064
220,826331.0,802.047624,1.0,5.79,-1.01,-6.78,-21.25,-14.0,27.5,-50.31,-22.0,-23.12,2.6974292774245314,0.2733978549529985,1.2531870225738366,-109.67062310358135,60.278064818090016,-21.788862201095252,-0.2095,-0.8175,0.5021,-0.18899999999999997
221,826331.0,802.047624,1.0,5.79,-1.01,-6.78,-21.25,-14.0,27.5,-50.31,-22.0,-23.12,2.6974292774245314,0.2733978549529985,1.2531870225738366,-109.67062310358135,60.278064818090016,-21.788862201095252,-0.2095,-0.8175,0.5021,-0.18899999999999997
222,826365.0,802.06512,1.0,5.41,0.02,-6.95,-17.56,-15.0,28.19,-56.88,-16.25,-17.94,1.911884698118744,0.2917393638181711,1.2141774196132342,-109.7303356928047,60.21182344932971,-20.040939097265657,-0.222,-0.8178,0.5016,-0.174
223,826365.0,802.06512,1.0,5.41,0.02,-6.95,-17.56,-15.0,28.19,-56.88,-16.25,-17.94,1.911884698118744,0.2917393638181711,1.2141774196132342,-109.7303356928047,60.21182344932971,-20.040939097265657,-0.222,-0.8178,0.5016,-0.174
224,826402.0,802.104352,1.0,5.18,0.01,-6.22,-19.5,-15.88,27.69,-44.5,-13.25,-7.94,2.032902476971926,0.5088067569412518,1.988125637742609,-109.5910749517882,60.3443284261737,-18.947996901150276,-0.2292,-0.8171,0.5026,-0.1646
225,826402.0,802.104352,1.0,5.18,0.01,-6.22,-19.5,-15.88,27.69,-44.5,-13.25,-7.94,2.032902476971926,0.5088067569412518,1.988125637742609,-109.5910749517882,60.3443284261737,-18.947996901150276,-0.2292,-0.8171,0.5026,-0.1646
226,826437.0,802.1587860000001,1.0,5.13,0.21,-5.61,-19.5,-15.88,27.69,-40.94,-7.25,-6.38,2.0353116636579047,0.8341015941943272,2.5268916961590953,-109.253864399006,60.43713492448142,-17.833592505981915,-0.2403,-0.8154,0.5033,-0.155
227,826437.0,802.1587860000001,1.0,5.13,0.21,-5.61,-19.5,-15.88,27.69,-40.94,-7.25,-6.38,2.0353116636579047,0.8341015941943272,2.5268916961590953,-109.253864399006,60.43713492448142,-17.833592505981915,-0.2403,-0.8154,0.5033,-0.155
228,826472.0,802.218166,1.0,5.11,1.12,-4.84,-17.75,-17.19,27.69,-59.19,25.56,-8.88,1.335150176464833,1.4530342257115028,2.9584264679300296,-108.6425203865957,60.3443284261737,-17.450913825320047,-0.254,-0.8123,0.5026,-0.1517
229,826472.0,802.218166,1.0,5.11,1.12,-4.84,-17.75,-17.19,27.69,-59.19,25.56,-8.88,1.335150176464833,1.4530342257115028,2.9584264679300296,-108.6425203865957,60.3443284261737,-17.450913825320047,-0.254,-0.8123,0.5026,-0.1517
230,826507.0,802.225509,1.0,6.39,1.18,-5.67,-19.25,-18.19,27.87,-47.13,52.38,-18.56,2.0165350848272223,1.616840126273093,1.579085703214831,-107.7825204980392,59.68268779789295,-17.729205890532434,-0.2756,-0.8079,0.4976,-0.1541
231,826507.0,802.225509,1.0,6.39,1.18,-5.67,-19.25,-18.19,27.87,-47.13,52.38,-18.56,2.0165350848272223,1.616840126273093,1.579085703214831,-107.7825204980392,59.68268779789295,-17.729205890532434,-0.2756,-0.8079,0.4976,-0.1541
232,826544.0,802.239774,1.0,2.81,0.42,-1.99,-19.37,-19.5,26.75,-15.06,26.94,5.44,0.977696536492686,0.937677177286656,6.61330207130104,-107.25914966329704,59.68268779789295,-17.752401631441728,-0.2832,-0.8052,0.4976,-0.1543
233,826544.0,802.239774,1.0,2.81,0.42,-1.99,-19.37,-19.5,26.75,-15.06,26.94,5.44,0.977696536492686,0.937677177286656,6.61330207130104,-107.25914966329704,59.68268779789295,-17.752401631441728,-0.2832,-0.8052,0.4976,-0.1543
234,826578.0,802.277743,1.0,5.62,2.61,-3.71,-19.37,-19.5,26.75,-52.94,96.69,7.25,0.3583430138100941,2.2148354678987117,2.941761498750223,-105.31051129197044,59.14177438587889,-19.622153417094765,-0.3087,-0.795,0.4935,-0.1704
235,826578.0,802.277743,1.0,5.62,2.61,-3.71,-19.37,-19.5,26.75,-52.94,96.69,7.25,0.3583430138100941,2.2148354678987117,2.941761498750223,-105.31051129197044,59.14177438587889,-19.622153417094765,-0.3087,-0.795,0.4935,-0.1704
236,826613.0,802.337663,1.0,4.96,3.67,-2.91,-20.56,-19.75,24.37,-23.81,115.19,1.37,-0.9212952743311772,2.26471982437045,3.437909219076463,-103.84922334055193,58.077365284994315,-21.7305176882842,-0.3305,-0.7872,0.4854,-0.1885
237,826613.0,802.337663,1.0,4.96,3.67,-2.91,-20.56,-19.75,24.37,-23.81,115.19,1.37,-0.9212952743311772,2.26471982437045,3.437909219076463,-103.84922334055193,58.077365284994315,-21.7305176882842,-0.3305,-0.7872,0.4854,-0.1885
238,826650.0,802.355522,1.0,5.4,3.45,-3.84,-23.19,-20.06,20.19,2.56,167.75,0.19,-0.6927720925748226,1.1930101753495412,2.464654797790864,-101.75523946512085,56.055611030215275,-26.31162955164407,-0.3544,-0.7758,0.4699,-0.2276
239,826650.0,802.355522,1.0,5.4,3.45,-3.84,-23.19,-20.06,20.19,2.56,167.75,0.19,-0.6927720925748226,1.1930101753495412,2.464654797790864,-101.75523946512085,56.055611030215275,-26.31162955164407,-0.3544,-0.7758,0.4699,-0.2276
240,826685.0,802.395845,1.0,3.9,2.38,-2.35,-23.19,-20.06,20.19,-35.19,130.63,17.75,-0.5071787001948712,0.8246345812074988,4.760894598323716,-99.68951411614924,54.81293529494486,-29.665695841620533,-0.3719,-0.7643,0.4603,-0.256
241,826685.0,802.395845,1.0,3.9,2.38,-2.35,-23.19,-20.06,20.19,-35.19,130.63,17.75,-0.5071787001948712,0.8246345812074988,4.760894598323716,-99.68951411614924,54.81293529494486,-29.665695841620533,-0.3719,-0.7643,0.4603,-0.256
242,826720.0,802.454065,1.0,7.09,3.19,-5.07,-26.5,-21.19,17.25,-16.81,99.0,27.5,-0.2088276422246336,-0.18781420665572826,0.5292464386784825,-96.74856352587948,53.85979546306142,-33.177476600322066,-0.3932,-0.7475,0.4529,-0.2855
243,826720.0,802.454065,1.0,7.09,3.19,-5.07,-26.5,-21.19,17.25,-16.81,99.0,27.5,-0.2088276422246336,-0.18781420665572826,0.5292464386784825,-96.74856352587948,53.85979546306142,-33.177476600322066,-0.3932,-0.7475,0.4529,-0.2855
244,826755.0,802.468664,1.0,5.11,2.04,-3.34,-31.0,-20.37,12.38,-17.87,137.31,50.69,-0.08589320958335711,-0.2854086836739078,3.376994936170293,-94.20961276881576,53.56437169079451,-35.96180782852424,-0.4061,-0.7326,0.4506,-0.3087
245,826755.0,802.468664,1.0,5.11,2.04,-3.34,-31.0,-20.37,12.38,-17.87,137.31,50.69,-0.08589320958335711,-0.2854086836739078,3.376994936170293,-94.20961276881576,53.56437169079451,-35.96180782852424,-0.4061,-0.7326,0.4506,-0.3087
246,826791.0,802.5217309999999,1.0,8.04,6.43,-5.7,-34.38,-17.37,8.06,-26.0,135.38,53.0,-3.64118478115843,-1.1567540957710616,-1.3234979483148417,-89.11102718958544,53.10273871771935,-40.595644110417574,-0.4331,-0.7016,0.447,-0.3469
247,826791.0,802.5217309999999,1.0,8.04,6.43,-5.7,-34.38,-17.37,8.06,-26.0,135.38,53.0,-3.64118478115843,-1.1567540957710616,-1.3234979483148417,-89.11102718958544,53.10273871771935,-40.595644110417574,-0.4331,-0.7016,0.447,-0.3469
248,826826.0,802.529275,1.0,8.11,1.54,-5.04,-34.38,-17.37,8.06,-4.75,96.12,64.81,0.5608152210368482,-2.2537240372195377,0.4177462167081352,-85.37510597064201,53.000280019764396,-44.27121519182589,-0.4464,-0.6779999999999999,0.4462,-0.3768
249,826826.0,802.529275,1.0,8.11,1.54,-5.04,-34.38,-17.37,8.06,-4.75,96.12,64.81,0.5608152210368482,-2.2537240372195377,0.4177462167081352,-85.37510597064201,53.000280019764396,-44.27121519182589,-0.4464,-0.6779999999999999,0.4462,-0.3768
250,826863.0,802.588283,1.0,11.99,8.03,-5.76,-38.19,-15.88,-3.56,-33.06,122.12,62.38,-4.900962809586668,-1.5578650294404277,-4.8552809809143085,-81.58174459786177,53.25651268144825,-46.943892407350866,-0.4623,-0.6533,0.4482,-0.3983
251,826863.0,802.588283,1.0,11.99,8.03,-5.76,-38.19,-15.88,-3.56,-33.06,122.12,62.38,-4.900962809586668,-1.5578650294404277,-4.8552809809143085,-81.58174459786177,53.25651268144825,-46.943892407350866,-0.4623,-0.6533,0.4482,-0.3983
252,826898.0,802.6066400000001,1.0,11.95,4.71,-5.2,-35.25,-11.5,-7.19,38.5,86.0,39.31,-2.287630647501727,-2.2744266409054035,-3.6700086910758607,-79.09236926487023,52.297104839209034,-50.668725019229704,-0.4661,-0.6367,0.4407,-0.4279
253,826898.0,802.6066400000001,1.0,11.95,4.71,-5.2,-35.25,-11.5,-7.19,38.5,86.0,39.31,-2.287630647501727,-2.2744266409054035,-3.6700086910758607,-79.09236926487023,52.297104839209034,-50.668725019229704,-0.4661,-0.6367,0.4407,-0.4279
254,826933.0,802.65068,1.0,9.5,0.95,-2.62,-35.25,-11.5,-7.19,-62.63,126.69,42.44,0.7710133782990722,-1.297472430402214,0.02201900732429074,-76.36961551362315,52.00367866289412,-53.14117252914141,-0.475,-0.6182,0.4384,-0.4473
255,826933.0,802.65068,1.0,9.5,0.95,-2.62,-35.25,-11.5,-7.19,-62.63,126.69,42.44,0.7710133782990722,-1.297472430402214,0.02201900732429074,-76.36961551362315,52.00367866289412,-53.14117252914141,-0.475,-0.6182,0.4384,-0.4473
256,826968.0,802.6684849999999,1.0,10.95,2.75,-2.72,-31.75,-11.25,-7.56,-73.44,137.0,0.88,-0.785971684017448,-2.1306272001756343,-1.5822075478752264,-71.1544897805901,50.858977326379346,-55.43338813739566,-0.5106,-0.5818,0.4294,-0.4651
257,826968.0,802.6684849999999,1.0,10.95,2.75,-2.72,-31.75,-11.25,-7.56,-73.44,137.0,0.88,-0.785971684017448,-2.1306272001756343,-1.5822075478752264,-71.1544897805901,50.858977326379346,-55.43338813739566,-0.5106,-0.5818,0.4294,-0.4651
258,827002.0,802.7088,1.0,10.07,3.26,-0.42,-32.06,-9.38,-10.19,-49.94,80.87,37.5,-1.4452110096950013,-0.3678641268249772,-0.6807205532727174,-67.98715914500032,50.858977326379346,-56.90108617541996,-0.5255,-0.5591,0.4294,-0.4764
259,827002.0,802.7088,1.0,10.07,3.26,-0.42,-32.06,-9.38,-10.19,-49.94,80.87,37.5,-1.4452110096950013,-0.3678641268249772,-0.6807205532727174,-67.98715914500032,50.858977326379346,-56.90108617541996,-0.5255,-0.5591,0.4294,-0.4764
260,827041.0,802.767795,1.0,13.72,1.19,-2.72,-30.75,-8.19,-12.56,-4.69,78.44,72.56,0.31812707914121985,-3.7564674286186817,-3.715208142254122,-64.2949069533977,50.28866780725309,-60.82208696099747,-0.5293,-0.5321,0.4249,-0.5062
261,827041.0,802.767795,1.0,13.72,1.19,-2.72,-30.75,-8.19,-12.56,-4.69,78.44,72.56,0.31812707914121985,-3.7564674286186817,-3.715208142254122,-64.2949069533977,50.28866780725309,-60.82208696099747,-0.5293,-0.5321,0.4249,-0.5062
262,827074.0,802.78997,1.0,9.91,2.49,1.75,-30.75,-8.19,-12.56,30.31,21.37,49.25,-1.325505166497705,1.0000074176407767,-0.4263222572794732,-63.33648650708331,50.30132682508742,-62.731592972927196,-0.5223,-0.525,0.425,-0.5205
263,827074.0,802.78997,1.0,9.91,2.49,1.75,-30.75,-8.19,-12.56,30.31,21.37,49.25,-1.325505166497705,1.0000074176407767,-0.4263222572794732,-63.33648650708331,50.30132682508742,-62.731592972927196,-0.5223,-0.525,0.425,-0.5205
264,827111.0,802.8298589999999,1.0,10.23,-0.45,2.54,-31.19,-6.69,-15.56,79.44,101.5,67.0,1.3683181235123625,1.0087908025332006,-0.6057006774211207,-62.08851089054388,48.598194686002294,-66.91248837447597,-0.5107,-0.5157,0.4115,-0.5513
265,827111.0,802.8298589999999,1.0,10.23,-0.45,2.54,-31.19,-6.69,-15.56,79.44,101.5,67.0,1.3683181235123625,1.0087908025332006,-0.6057006774211207,-62.08851089054388,48.598194686002294,-66.91248837447597,-0.5107,-0.5157,0.4115,-0.5513
266,827146.0,802.884835,1.0,14.7,-0.31,0.09,-30.87,-5.56,-16.5,37.88,42.44,71.56,0.4633113190632372,-2.4508844676186157,-4.68378505033626,-60.596333747101795,47.64442766376834,-70.36742462258441,-0.5003,-0.5045,0.4039,-0.5762
267,827146.0,802.884835,1.0,14.7,-0.31,0.09,-30.87,-5.56,-16.5,37.88,42.44,71.56,0.4633113190632372,-2.4508844676186157,-4.68378505033626,-60.596333747101795,47.64442766376834,-70.36742462258441,-0.5003,-0.5045,0.4039,-0.5762
268,827181.0,802.892535,1.0,11.35,3.45,1.48,-30.87,-5.56,-16.5,49.31,23.37,32.19,-3.283343840144893,0.13863923347128534,-1.687515145425964,-60.09264488671134,47.71959673028522,-71.84635644599051,-0.4914,-0.5007,0.4045,-0.5867
269,827181.0,802.892535,1.0,11.35,3.45,1.48,-30.87,-5.56,-16.5,49.31,23.37,32.19,-3.283343840144893,0.13863923347128534,-1.687515145425964,-60.09264488671134,47.71959673028522,-71.84635644599051,-0.4914,-0.5007,0.4045,-0.5867
270,827215.0,802.955007,1.0,9.25,1.31,3.82,-30.19,-2.88,-18.56,37.0,36.38,14.19,-0.7587706668269909,2.165316310300442,-0.022219332304189262,-59.695899058507344,46.369842053756535,-73.9261202682898,-0.4855,-0.4977,0.3937,-0.6013
271,827215.0,802.955007,1.0,9.25,1.31,3.82,-30.19,-2.88,-18.56,37.0,36.38,14.19,-0.7587706668269909,2.165316310300442,-0.022219332304189262,-59.695899058507344,46.369842053756535,-73.9261202682898,-0.4855,-0.4977,0.3937,-0.6013
272,827252.0,802.973563,1.0,11.29,-1.22,1.96,-30.69,-3.56,-18.19,-2.5,74.94,16.75,1.123233659260228,-0.9658986591623252,-1.6213632099561952,-58.444682614751024,45.06407886296696,-75.56997527074246,-0.4893,-0.4882,0.3832,-0.6127
273,827252.0,802.973563,1.0,11.29,-1.22,1.96,-30.69,-3.56,-18.19,-2.5,74.94,16.75,1.123233659260228,-0.9658986591623252,-1.6213632099561952,-58.444682614751024,45.06407886296696,-75.56997527074246,-0.4893,-0.4882,0.3832,-0.6127
274,827289.0,803.013193,1.0,11.01,2.0,1.57,-30.69,-3.56,-18.19,-38.25,-6.0,-15.56,-2.116543318812343,-0.6823385269352702,-1.2721431885314392,-57.50146795059126,45.424093194951936,-75.25133001282822,-0.4968,-0.48100000000000004,0.3861,-0.6105
275,827289.0,803.013193,1.0,11.01,2.0,1.57,-30.69,-3.56,-18.19,-38.25,-6.0,-15.56,-2.116543318812343,-0.6823385269352702,-1.2721431885314392,-57.50146795059126,45.424093194951936,-75.25133001282822,-0.4968,-0.48100000000000004,0.3861,-0.6105
276,827322.0,803.0204219999999,1.0,8.35,0.7,3.7,-29.56,-2.88,-21.5,22.56,20.87,-0.81,-0.2436954260431854,1.6754881464578537,0.8046584419943574,-57.73686934640835,45.051672965046905,-75.30921462142838,-0.4969,-0.4828,0.3831,-0.6109
277,827322.0,803.0204219999999,1.0,8.35,0.7,3.7,-29.56,-2.88,-21.5,22.56,20.87,-0.81,-0.2436954260431854,1.6754881464578537,0.8046584419943574,-57.73686934640835,45.051672965046905,-75.30921462142838,-0.4969,-0.4828,0.3831,-0.6109
278,827359.0,803.085249,1.0,9.38,-1.07,3.08,-29.19,-2.06,-21.0,19.69,36.88,5.94,1.276184985039731,0.22330056218158068,-0.03901852696598773,-57.16191107597382,43.900329831481116,-76.6030617698578,-0.4973,-0.4784,0.3738,-0.6198
279,827359.0,803.085249,1.0,9.38,-1.07,3.08,-29.19,-2.06,-21.0,19.69,36.88,5.94,1.276184985039731,0.22330056218158068,-0.03901852696598773,-57.16191107597382,43.900329831481116,-76.6030617698578,-0.4973,-0.4784,0.3738,-0.6198
280,827394.0,803.09289,1.0,9.83,1.08,2.17,-28.19,-3.56,-22.25,0.0,-8.63,-10.88,-1.0074522469700922,-0.2828641653295043,-0.2635648851972032,-57.109720271622784,43.900329831481116,-76.34046104575957,-0.4999,-0.478,0.3738,-0.618
281,827394.0,803.09289,1.0,9.83,1.08,2.17,-28.19,-3.56,-22.25,0.0,-8.63,-10.88,-1.0074522469700922,-0.2828641653295043,-0.2635648851972032,-57.109720271622784,43.900329831481116,-76.34046104575957,-0.4999,-0.478,0.3738,-0.618
282,827426.0,803.154484,1.0,8.92,-0.14,3.26,-28.19,-3.56,-22.25,26.94,-29.12,3.88,0.5391549776184521,0.8307928565796294,0.3603441008897281,-58.16913315906611,43.78915870024722,-76.18021553240146,-0.4939,-0.4861,0.3729,-0.6169
283,827426.0,803.154484,1.0,8.92,-0.14,3.26,-28.19,-3.56,-22.25,26.94,-29.12,3.88,0.5391549776184521,0.8307928565796294,0.3603441008897281,-58.16913315906611,43.78915870024722,-76.18021553240146,-0.4939,-0.4861,0.3729,-0.6169
284,827463.0,803.176774,1.0,8.83,-0.23,3.06,-28.19,-4.38,-21.5,-2.44,2.25,0.94,0.6089320333526711,0.6620570564182338,0.5020123266242216,-58.484077048449976,43.628654629122934,-76.25303259821837,-0.4919,-0.4885,0.3716,-0.6174
285,827463.0,803.176774,1.0,8.83,-0.23,3.06,-28.19,-4.38,-21.5,-2.44,2.25,0.94,0.6089320333526711,0.6620570564182338,0.5020123266242216,-58.484077048449976,43.628654629122934,-76.25303259821837,-0.4919,-0.4885,0.3716,-0.6174
286,827500.0,803.218741,1.0,10.05,0.46,2.05,-28.87,-3.88,-22.0,-6.44,11.88,-14.44,-0.3052499127368717,-0.4951612462396557,-0.44411767032579696,-58.22159029859478,43.480576858025245,-76.03469006904194,-0.4968,-0.4865,0.3704,-0.6159
287,827500.0,803.218741,1.0,10.05,0.46,2.05,-28.87,-3.88,-22.0,-6.44,11.88,-14.44,-0.3052499127368717,-0.4951612462396557,-0.44411767032579696,-58.22159029859478,43.480576858025245,-76.03469006904194,-0.4968,-0.4865,0.3704,-0.6159
288,827535.0,803.237111,1.0,10.49,0.69,1.72,-28.87,-3.88,-22.0,3.13,-24.12,-12.44,-0.5486994187885945,-0.7721238893821147,-0.8035975770957631,-58.70745568211353,43.6780308968355,-75.48300403742995,-0.4966,-0.4902,0.37200000000000005,-0.6121
289,827535.0,803.237111,1.0,10.49,0.69,1.72,-28.87,-3.88,-22.0,3.13,-24.12,-12.44,-0.5486994187885945,-0.7721238893821147,-0.8035975770957631,-58.70745568211353,43.6780308968355,-75.48300403742995,-0.4966,-0.4902,0.37200000000000005,-0.6121
290,827568.0,803.284718,1.0,10.79,0.76,1.8,-29.0,-5.0,-22.0,3.56,-16.37,-5.56,-0.5120665883083302,-0.6143102444011999,-1.12962499346839,-59.56382572725951,43.77680902972838,-74.96224409700284,-0.4941,-0.4967,0.3728,-0.6085
291,827568.0,803.284718,1.0,10.79,0.76,1.8,-29.0,-5.0,-22.0,3.56,-16.37,-5.56,-0.5120665883083302,-0.6143102444011999,-1.12962499346839,-59.56382572725951,43.77680902972838,-74.96224409700284,-0.4941,-0.4967,0.3728,-0.6085
292,827604.0,803.303488,1.0,15.43,5.84,0.05,-29.37,-4.25,-20.25,14.88,-79.06,-31.12,-5.7078221258675015,-1.8488940180035438,-5.561998525151717,-60.76894511127794,44.209367167614204,-73.72547201814446,-0.4927,-0.5058,0.3763,-0.5999
293,827604.0,803.303488,1.0,15.43,5.84,0.05,-29.37,-4.25,-20.25,14.88,-79.06,-31.12,-5.7078221258675015,-1.8488940180035438,-5.561998525151717,-60.76894511127794,44.209367167614204,-73.72547201814446,-0.4927,-0.5058,0.3763,-0.5999
294,827641.0,803.3491730000001,1.0,17.72,6.61,1.29,-29.75,-5.0,-20.0,60.0,-127.25,-49.19,-5.376741386412947,0.4390588239529918,-8.366200063012771,-65.58524867553507,44.24647435383947,-71.42240793741999,-0.4733,-0.5416,0.3766,-0.5837
295,827641.0,803.3491730000001,1.0,17.72,6.61,1.29,-29.75,-5.0,-20.0,60.0,-127.25,-49.19,-5.376741386412947,0.4390588239529918,-8.366200063012771,-65.58524867553507,44.24647435383947,-71.42240793741999,-0.4733,-0.5416,0.3766,-0.5837
296,827674.0,803.369387,1.0,28.54,10.63,-2.3,-29.75,-5.0,-20.0,69.37,-179.06,-176.94,-7.1018098440819335,-1.3448572415504998,-19.867819766759947,-71.95960119494845,43.32024532286975,-66.41873200300768,-0.4675,-0.5875,0.3691,-0.5477
297,827674.0,803.369387,1.0,28.54,10.63,-2.3,-29.75,-5.0,-20.0,69.37,-179.06,-176.94,-7.1018098440819335,-1.3448572415504998,-19.867819766759947,-71.95960119494845,43.32024532286975,-66.41873200300768,-0.4675,-0.5875,0.3691,-0.5477
298,827713.0,803.4127139999999,1.0,27.1,18.15,0.3,-30.87,-7.56,-14.69,122.25,-243.75,-279.38,-7.766816996448168,6.701636353905256,-21.15602307458611,-83.15002129330095,39.99754361581977,-57.03145830719132,-0.4634,-0.6636,0.342,-0.4774
299,827713.0,803.4127139999999,1.0,27.1,18.15,0.3,-30.87,-7.56,-14.69,122.25,-243.75,-279.38,-7.766816996448168,6.701636353905256,-21.15602307458611,-83.15002129330095,39.99754361581977,-57.03145830719132,-0.4634,-0.6636,0.342,-0.4774
300,827748.0,803.5001110000001,1.0,15.55,-0.67,-0.67,-25.25,-16.69,-9.0,278.69,-342.44,-126.12,7.8484467441873225,1.4524549221581382,-3.5721600518227685,-100.13478976112896,35.67278424373711,-47.56928036162765,-0.3943,-0.7668,0.3063,-0.4033
301,827748.0,803.5001110000001,1.0,15.55,-0.67,-0.67,-25.25,-16.69,-9.0,278.69,-342.44,-126.12,7.8484467441873225,1.4524549221581382,-3.5721600518227685,-100.13478976112896,35.67278424373711,-47.56928036162765,-0.3943,-0.7668,0.3063,-0.4033
302,827783.0,803.540161,1.0,13.19,5.14,-9.92,-25.25,-16.69,-9.0,41.06,-397.56,-302.31,2.001255585258672,-1.6131901162009392,-7.287053335774338,-111.60396041024363,34.00339056621902,-35.44414023991489,-0.3712,-0.8271,0.2924,-0.3044
303,827783.0,803.540161,1.0,13.19,5.14,-9.92,-25.25,-16.69,-9.0,41.06,-397.56,-302.31,2.001255585258672,-1.6131901162009392,-7.287053335774338,-111.60396041024363,34.00339056621902,-35.44414023991489,-0.3712,-0.8271,0.2924,-0.3044
304,827817.0,803.556508,1.0,15.02,1.96,-7.55,-32.19,-28.0,1.69,212.38,-251.19,-249.13,9.388431695510642,0.7691625339066914,-4.25429731144262,-127.351803991908,27.265777919115557,-23.518522416981746,-0.3156,-0.8963,0.2357,-0.2038
305,827817.0,803.556508,1.0,15.02,1.96,-7.55,-32.19,-28.0,1.69,212.38,-251.19,-249.13,9.388431695510642,0.7691625339066914,-4.25429731144262,-127.351803991908,27.265777919115557,-23.518522416981746,-0.3156,-0.8963,0.2357,-0.2038
306,827854.0,803.55974,1.0,12.9,0.22,-1.84,-19.25,-30.75,16.37,193.06,-374.56,-144.88,10.90786041532079,3.6647882960332203,3.688487865409602,-138.26285199839916,25.30060996520192,-14.592535930080526,-0.2507,-0.9344,0.21899999999999997,-0.127
307,827854.0,803.55974,1.0,12.9,0.22,-1.84,-19.25,-30.75,16.37,193.06,-374.56,-144.88,10.90786041532079,3.6647882960332203,3.688487865409602,-138.26285199839916,25.30060996520192,-14.592535930080526,-0.2507,-0.9344,0.21899999999999997,-0.127
308,827891.0,803.606083,1.0,6.83,2.0,2.58,-9.5,-27.87,24.69,195.0,-380.31,-120.87,5.35928036599884,5.176419693975727,11.143845988043482,-150.0772121119661,22.921897728102717,-0.14896906869365514,-0.1651,-0.9661,0.1987,-0.0013
309,827891.0,803.606083,1.0,6.83,2.0,2.58,-9.5,-27.87,24.69,195.0,-380.31,-120.87,5.35928036599884,5.176419693975727,11.143845988043482,-150.0772121119661,22.921897728102717,-0.14896906869365514,-0.1651,-0.9661,0.1987,-0.0013
310,827926.0,803.6703160000001,1.0,6.18,0.66,1.39,-9.5,-27.87,24.69,157.38,-382.69,-46.56,4.943434342042507,3.2501675148541347,12.164396388249097,-151.86026450485573,22.75822922439662,13.114968872872085,-0.0848,-0.97,0.1973,0.1142
311,827926.0,803.6703160000001,1.0,6.18,0.66,1.39,-9.5,-27.87,24.69,157.38,-382.69,-46.56,4.943434342042507,3.2501675148541347,12.164396388249097,-151.86026450485573,22.75822922439662,13.114968872872085,-0.0848,-0.97,0.1973,0.1142
312,827963.0,803.687904,1.0,2.16,0.95,2.75,2.0,-24.5,30.5,93.81,-319.69,-76.75,0.4492083833415823,1.712465795937623,12.968338271490307,-148.26644461114088,21.800531789289547,22.279183498407725,-0.0406,-0.9619,0.1891,0.1932
313,827963.0,803.687904,1.0,2.16,0.95,2.75,2.0,-24.5,30.5,93.81,-319.69,-76.75,0.4492083833415823,1.712465795937623,12.968338271490307,-148.26644461114088,21.800531789289547,22.279183498407725,-0.0406,-0.9619,0.1891,0.1932
314,828000.0,803.716447,1.0,0.0,-0.66,2.2,12.06,-21.69,30.69,106.25,-261.31,-57.31,-0.9004377826594964,-0.8900939845621701,11.723038399621926,-141.74788525089278,20.599742008899195,31.804859125621785,0.0137,-0.9448,0.1788,0.27399999999999997
315,828000.0,803.716447,1.0,0.0,-0.66,2.2,12.06,-21.69,30.69,106.25,-261.31,-57.31,-0.9004377826594964,-0.8900939845621701,11.723038399621926,-141.74788525089278,20.599742008899195,31.804859125621785,0.0137,-0.9448,0.1788,0.27399999999999997
316,828035.0,803.7805440000001,1.0,-2.35,-1.49,0.59,12.06,-21.69,30.69,28.62,-197.88,-31.62,-1.5327703139893358,-2.210234573033862,8.881350969027388,-136.55893204947213,20.262073582983945,37.70100746591034,0.0414,-0.929,0.1759,0.3231
317,828035.0,803.7805440000001,1.0,-2.35,-1.49,0.59,12.06,-21.69,30.69,28.62,-197.88,-31.62,-1.5327703139893358,-2.210234573033862,8.881350969027388,-136.55893204947213,20.262073582983945,37.70100746591034,0.0414,-0.929,0.1759,0.3231
318,828067.0,803.78793,1.0,-3.62,-1.03,0.21,19.87,-17.87,30.0,8.5,-150.56,-40.81,-2.2240753851384256,-1.9325061521382048,7.455414441156659,-131.76235907719015,18.669230437467,43.505251180584146,0.057999999999999996,-0.9127,0.1622,0.3706
319,828067.0,803.78793,1.0,-3.62,-1.03,0.21,19.87,-17.87,30.0,8.5,-150.56,-40.81,-2.2240753851384256,-1.9325061521382048,7.455414441156659,-131.76235907719015,18.669230437467,43.505251180584146,0.057999999999999996,-0.9127,0.1622,0.3706
320,828104.0,803.8476099999999,1.0,-7.57,-2.94,-0.61,26.19,-17.56,27.87,40.13,-72.25,-43.19,-3.5111788783636584,-4.294075352247233,3.8440046346142873,-129.64656611878056,17.566856150665245,46.008573794141824,0.071,-0.905,0.1527,0.3908
321,828104.0,803.8476099999999,1.0,-7.57,-2.94,-0.61,26.19,-17.56,27.87,40.13,-72.25,-43.19,-3.5111788783636584,-4.294075352247233,3.8440046346142873,-129.64656611878056,17.566856150665245,46.008573794141824,0.071,-0.905,0.1527,0.3908
322,828141.0,803.859241,1.0,-7.39,-3.57,-2.53,27.5,-16.37,25.5,14.94,-16.0,-20.25,-1.8006767647391009,-4.172038230145518,2.5190193702868706,-128.8444329155711,16.906223928806188,46.85645674888645,0.0823,-0.902,0.147,0.3976
323,828141.0,803.859241,1.0,-7.39,-3.57,-2.53,27.5,-16.37,25.5,14.94,-16.0,-20.25,-1.8006767647391009,-4.172038230145518,2.5190193702868706,-128.8444329155711,16.906223928806188,46.85645674888645,0.0823,-0.902,0.147,0.3976
324,828176.0,803.8708690000001,1.0,-6.94,-1.42,-4.92,27.5,-16.37,25.5,-17.56,-31.06,-6.06,-0.48835245529812,-1.3953874292583606,1.309544269124805,-128.39505791682004,16.50085429879803,47.50667419847937,0.0811,-0.9003,0.1435,0.4028
325,828176.0,803.8708690000001,1.0,-6.94,-1.42,-4.92,27.5,-16.37,25.5,-17.56,-31.06,-6.06,-0.48835245529812,-1.3953874292583606,1.309544269124805,-128.39505791682004,16.50085429879803,47.50667419847937,0.0811,-0.9003,0.1435,0.4028
326,828213.0,803.9112690000001,1.0,-8.31,-0.53,-4.46,29.25,-15.25,25.25,6.81,-9.44,-8.31,-1.859158246534493,-0.8853779544801228,0.5877435305718937,-127.84492955883974,15.979969398223385,48.30917991037589,0.08,-0.8982,0.139,0.4092
327,828213.0,803.9112690000001,1.0,-8.31,-0.53,-4.46,29.25,-15.25,25.25,6.81,-9.44,-8.31,-1.859158246534493,-0.8853779544801228,0.5877435305718937,-127.84492955883974,15.979969398223385,48.30917991037589,0.08,-0.8982,0.139,0.4092
328,828248.0,803.976847,1.0,-6.91,-1.09,-5.85,30.0,-15.69,24.5,2.25,12.44,-5.19,0.13548241510615938,-0.7757178858665724,0.7215739806843846,-128.10621848828742,15.910543420989347,48.02049166769566,0.0817,-0.8992,0.1384,0.4069
329,828248.0,803.976847,1.0,-6.91,-1.09,-5.85,30.0,-15.69,24.5,2.25,12.44,-5.19,0.13548241510615938,-0.7757178858665724,0.7215739806843846,-128.10621848828742,15.910543420989347,48.02049166769566,0.0817,-0.8992,0.1384,0.4069
330,828280.0,803.9959650000001,1.0,-6.44,-0.29,-6.74,30.0,-15.69,24.5,-19.0,-3.81,-4.44,0.7741323130839352,0.251662608938379,0.5156497797276085,-128.50046440745706,15.632898017228825,47.78225428161778,0.0785,-0.9007,0.136,0.405
331,828280.0,803.9959650000001,1.0,-6.44,-0.29,-6.74,30.0,-15.69,24.5,-19.0,-3.81,-4.44,0.7741323130839352,0.251662608938379,0.5156497797276085,-128.50046440745706,15.632898017228825,47.78225428161778,0.0785,-0.9007,0.136,0.405
332,828315.0,804.041657,1.0,-7.06,-0.33,-6.31,29.19,-15.69,24.87,-13.63,0.69,-2.06,0.1033820639212495,-0.0304555712686847,0.3326337129632257,-128.55324310023371,15.413160961410524,47.88253794953186,0.0762,-0.9009,0.1341,0.4058
333,828315.0,804.041657,1.0,-7.06,-0.33,-6.31,29.19,-15.69,24.87,-13.63,0.69,-2.06,0.1033820639212495,-0.0304555712686847,0.3326337129632257,-128.55324310023371,15.413160961410524,47.88253794953186,0.0762,-0.9009,0.1341,0.4058
334,828352.0,804.105448,1.0,-6.29,-0.47,-7.02,29.56,-15.69,24.0,-4.13,18.25,-7.88,1.0870993718595905,0.0953623774129379,0.4325089208036417,-129.03054304377298,15.089441590206313,47.55675792365637,0.0728,-0.9027,0.1313,0.4032
335,828352.0,804.105448,1.0,-6.29,-0.47,-7.02,29.56,-15.69,24.0,-4.13,18.25,-7.88,1.0870993718595905,0.0953623774129379,0.4325089208036417,-129.03054304377298,15.089441590206313,47.55675792365637,0.0728,-0.9027,0.1313,0.4032
336,828387.0,804.120312,1.0,-7.2,-0.65,-6.4,29.56,-15.69,24.0,-0.31,-0.25,-3.31,0.07337085308708566,-0.3808639636597165,0.15926385871267534,-129.2975202216285,15.02008899858815,47.30643546064212,0.0732,-0.9037,0.1307,0.4012
337,828387.0,804.120312,1.0,-7.2,-0.65,-6.4,29.56,-15.69,24.0,-0.31,-0.25,-3.31,0.07337085308708566,-0.3808639636597165,0.15926385871267534,-129.2975202216285,15.02008899858815,47.30643546064212,0.0732,-0.9037,0.1307,0.4012
338,828422.0,804.1288059999999,1.0,-5.86,-1.31,-7.79,29.19,-16.06,24.75,-0.63,8.56,2.44,2.0407793496766464,-0.4480972153829802,0.19549874057746489,-129.7004663573504,15.008530771963965,46.88143541316104,0.0735,-0.9052,0.1306,0.3978
339,828422.0,804.1288059999999,1.0,-5.86,-1.31,-7.79,29.19,-16.06,24.75,-0.63,8.56,2.44,2.0407793496766464,-0.4480972153829802,0.19549874057746489,-129.7004663573504,15.008530771963965,46.88143541316104,0.0735,-0.9052,0.1306,0.3978
340,828456.0,804.175878,1.0,-6.58,0.05,-6.87,28.37,-16.06,24.37,-13.5,6.31,0.06,0.5219106500711999,0.4439254411225897,0.3184289087697589,-129.88954402446632,14.858287755594214,46.80650649596007,0.0697,-0.9059,0.1293,0.3972
341,828456.0,804.175878,1.0,-6.58,0.05,-6.87,28.37,-16.06,24.37,-13.5,6.31,0.06,0.5219106500711999,0.4439254411225897,0.3184289087697589,-129.88954402446632,14.858287755594214,46.80650649596007,0.0697,-0.9059,0.1293,0.3972
342,828493.0,804.193445,1.0,-7.27,-0.55,-6.23,28.87,-16.06,24.5,-0.19,-13.56,2.69,-0.1843153532726603,-0.3906003347686374,0.22637029484386065,-129.99788861220236,14.049721543626418,47.01886031964005,0.0668,-0.9063,0.1223,0.3989
343,828493.0,804.193445,1.0,-7.27,-0.55,-6.23,28.87,-16.06,24.5,-0.19,-13.56,2.69,-0.1843153532726603,-0.3906003347686374,0.22637029484386065,-129.99788861220236,14.049721543626418,47.01886031964005,0.0668,-0.9063,0.1223,0.3989
344,828526.0,804.2381230000001,1.0,-7.11,-0.45,-6.45,28.87,-16.06,24.5,-7.25,7.5,-1.94,0.037513869693096384,-0.2514221417535795,0.19975249788118526,-130.16081866157813,13.922726077012074,46.956385579504534,0.0646,-0.9069,0.1212,0.3984
345,828526.0,804.2381230000001,1.0,-7.11,-0.45,-6.45,28.87,-16.06,24.5,-7.25,7.5,-1.94,0.037513869693096384,-0.2514221417535795,0.19975249788118526,-130.16081866157813,13.922726077012074,46.956385579504534,0.0646,-0.9069,0.1212,0.3984
346,828563.0,804.297988,1.0,-6.91,0.22,-6.78,30.0,-16.37,26.5,-5.75,24.69,2.0,0.15045999140064412,0.448814487302589,0.13499929564890145,-130.87269286132405,13.207250097467805,46.53194812307301,0.0599,-0.9095,0.115,0.395
347,828563.0,804.297988,1.0,-6.91,0.22,-6.78,30.0,-16.37,26.5,-5.75,24.69,2.0,0.15045999140064412,0.448814487302589,0.13499929564890145,-130.87269286132405,13.207250097467805,46.53194812307301,0.0599,-0.9095,0.115,0.395
348,828600.0,804.306686,1.0,-5.44,-0.65,-8.26,28.37,-15.25,25.25,14.56,13.75,1.81,2.2800115859409216,0.09813608270248886,0.1611527874532559,-131.67829939723129,12.607573156584115,45.90899880278562,0.0575,-0.9124,0.1098,0.39
349,828600.0,804.306686,1.0,-5.44,-0.65,-8.26,28.37,-15.25,25.25,14.56,13.75,1.81,2.2800115859409216,0.09813608270248886,0.1611527874532559,-131.67829939723129,12.607573156584115,45.90899880278562,0.0575,-0.9124,0.1098,0.39
350,828633.0,804.368386,1.0,-6.79,-0.23,-7.39,28.37,-15.25,25.25,4.44,12.25,0.56,0.6508852025887412,0.13131928833882744,-0.20974674222028966,-131.67829939723129,12.815113562902274,45.8343416064403,0.0583,-0.9124,0.1116,0.3894
351,828633.0,804.368386,1.0,-6.79,-0.23,-7.39,28.37,-15.25,25.25,4.44,12.25,0.56,0.6508852025887412,0.13131928833882744,-0.20974674222028966,-131.67829939723129,12.815113562902274,45.8343416064403,0.0583,-0.9124,0.1116,0.3894
352,828667.0,804.386697,1.0,-6.42,-0.05,-8.0,28.75,-16.06,26.5,-0.75,7.56,1.63,1.2198516191569495,0.4486154293841755,-0.3682999371622806,-132.24132459051677,12.204140573704526,45.49863792387894,0.0555,-0.9144,0.1063,0.3867
353,828667.0,804.386697,1.0,-6.42,-0.05,-8.0,28.75,-16.06,26.5,-0.75,7.56,1.63,1.2198516191569495,0.4486154293841755,-0.3682999371622806,-132.24132459051677,12.204140573704526,45.49863792387894,0.0555,-0.9144,0.1063,0.3867
354,828704.0,804.430676,1.0,-6.53,0.21,-7.67,28.0,-15.69,25.69,12.63,4.38,1.81,0.8376185249738833,0.627644158919302,-0.21424606853574168,-132.49673400768697,11.662626087112969,45.411671047559956,0.0543,-0.9153,0.1016,0.386
355,828704.0,804.430676,1.0,-6.53,0.21,-7.67,28.0,-15.69,25.69,12.63,4.38,1.81,0.8376185249738833,0.627644158919302,-0.21424606853574168,-132.49673400768697,11.662626087112969,45.411671047559956,0.0543,-0.9153,0.1016,0.386
356,828739.0,804.4475639999999,1.0,-6.57,-0.57,-7.2,28.0,-15.69,25.69,19.19,-1.69,1.94,0.6548124259125443,-0.1622666626400025,0.06628603261838073,-132.38305943270692,11.927589126675839,45.37440798509372,0.0583,-0.9149,0.1039,0.3857
357,828739.0,804.4475639999999,1.0,-6.57,-0.57,-7.2,28.0,-15.69,25.69,19.19,-1.69,1.94,0.6548124259125443,-0.1622666626400025,0.06628603261838073,-132.38305943270692,11.927589126675839,45.37440798509372,0.0583,-0.9149,0.1039,0.3857
358,828772.0,804.494076,1.0,-6.83,0.47,-6.79,28.37,-16.37,24.37,5.19,4.5,-2.5,-0.05410356251488775,0.7599371151847105,0.19449787961156065,-132.63918862221735,11.132886214620822,45.361988090099786,0.0569,-0.9158,0.09699999999999999,0.3856
359,828772.0,804.494076,1.0,-6.83,0.47,-6.79,28.37,-16.37,24.37,5.19,4.5,-2.5,-0.05410356251488775,0.7599371151847105,0.19449787961156065,-132.63918862221735,11.132886214620822,45.361988090099786,0.0569,-0.9158,0.09699999999999999,0.3856
360,828807.0,804.513556,1.0,-6.52,-0.64,-6.47,27.69,-15.25,25.19,21.0,0.37,2.56,0.15631664170047532,-0.2726902938805482,0.6043619632587678,-132.7820481898819,10.718474180434589,45.2750645639147,0.0594,-0.9163,0.0934,0.3849
361,828807.0,804.513556,1.0,-6.52,-0.64,-6.47,27.69,-15.25,25.19,21.0,0.37,2.56,0.15631664170047532,-0.2726902938805482,0.6043619632587678,-132.7820481898819,10.718474180434589,45.2750645639147,0.0594,-0.9163,0.0934,0.3849
362,828844.0,804.55638,1.0,-6.14,0.01,-6.84,28.0,-14.75,26.06,-2.19,2.63,8.19,0.5471651706782253,0.4635727472849502,0.6430802488619971,-132.81066902216784,10.384744735841707,45.361988090099786,0.0576,-0.9164,0.0905,0.3856
363,828844.0,804.55638,1.0,-6.14,0.01,-6.84,28.0,-14.75,26.06,-2.19,2.63,8.19,0.5471651706782253,0.4635727472849502,0.6430802488619971,-132.81066902216784,10.384744735841707,45.361988090099786,0.0576,-0.9164,0.0905,0.3856
364,828878.0,804.57453,1.0,-6.68,0.2,-6.59,28.0,-14.75,26.06,1.37,-3.25,10.56,-0.024605402728668083,0.4981909291780205,0.4342596767024638,-132.69628364910096,10.706964767003905,45.411671047559956,0.0563,-0.9159999999999999,0.0933,0.386
365,828878.0,804.57453,1.0,-6.68,0.2,-6.59,28.0,-14.75,26.06,1.37,-3.25,10.56,-0.024605402728668083,0.4981909291780205,0.4342596767024638,-132.69628364910096,10.706964767003905,45.411671047559956,0.0563,-0.9159999999999999,0.0933,0.386
366,828913.0,804.614789,1.0,-6.49,-0.1,-7.1,27.69,-16.06,25.25,-3.19,1.88,5.44,0.5204090223841046,0.2903268093121368,0.20534879687050636,-132.89662989290295,10.200656128703407,45.3868284428534,0.0532,-0.9167,0.0889,0.3858
367,828913.0,804.614789,1.0,-6.49,-0.1,-7.1,27.69,-16.06,25.25,-3.19,1.88,5.44,0.5204090223841046,0.2903268093121368,0.20534879687050636,-132.89662989290295,10.200656128703407,45.3868284428534,0.0532,-0.9167,0.0889,0.3858
368,828950.0,804.687068,1.0,-7.16,0.69,-6.96,28.75,-16.25,26.06,-9.06,1.31,-1.56,-0.17371222432236466,0.9250335600511944,-0.15815993174982526,-133.06899702903365,9.441564242690683,45.47378742330781,0.0484,-0.9173,0.0823,0.3865
369,828950.0,804.687068,1.0,-7.16,0.69,-6.96,28.75,-16.25,26.06,-9.06,1.31,-1.56,-0.17371222432236466,0.9250335600511944,-0.15815993174982526,-133.06899702903365,9.441564242690683,45.47378742330781,0.0484,-0.9173,0.0823,0.3865
370,828983.0,804.6904450000001,1.0,-7.07,-0.6,-7.54,28.75,-16.25,26.06,12.5,10.13,-11.13,0.47341047543727705,-0.18350525318882627,-0.5344673643759794,-133.3865649159552,9.269102460835224,45.1509357631892,0.0512,-0.9184,0.0808,0.3839
371,828983.0,804.6904450000001,1.0,-7.07,-0.6,-7.54,28.75,-16.25,26.06,12.5,10.13,-11.13,0.47341047543727705,-0.18350525318882627,-0.5344673643759794,-133.3865649159552,9.269102460835224,45.1509357631892,0.0512,-0.9184,0.0808,0.3839
372,829018.0,804.7328,1.0,-7.06,-0.37,-7.55,28.37,-15.56,26.75,2.69,2.19,-15.25,0.4002794103431929,0.12527373261294786,-0.5281012251419259,-133.73534909546765,8.326672787534774,44.989651826175965,0.0525,-0.9196,0.0726,0.3826
373,829018.0,804.7328,1.0,-7.06,-0.37,-7.55,28.37,-15.56,26.75,2.69,2.19,-15.25,0.4002794103431929,0.12527373261294786,-0.5281012251419259,-133.73534909546765,8.326672787534774,44.989651826175965,0.0525,-0.9196,0.0726,0.3826
374,829054.0,804.799038,1.0,-6.42,-1.54,-7.29,27.69,-14.75,26.5,22.19,-0.81,-11.94,0.8458156417136827,-0.8988325037538953,0.049150523677804266,-133.79372158966166,7.717845476549469,44.96484726352389,0.0566,-0.9198,0.0673,0.3824
375,829054.0,804.799038,1.0,-6.42,-1.54,-7.29,27.69,-14.75,26.5,22.19,-0.81,-11.94,0.8458156417136827,-0.8988325037538953,0.049150523677804266,-133.79372158966166,7.717845476549469,44.96484726352389,0.0566,-0.9198,0.0673,0.3824
376,829089.0,804.812022,1.0,-6.36,-1.02,-6.87,27.69,-14.75,26.5,5.19,-2.31,-8.69,0.5078617249590812,-0.37290207423120536,0.4103783717766234,-133.73534909546765,7.5915129998336095,44.989651826175965,0.0604,-0.9196,0.0662,0.3826
377,829089.0,804.812022,1.0,-6.36,-1.02,-6.87,27.69,-14.75,26.5,5.19,-2.31,-8.69,0.5078617249590812,-0.37290207423120536,0.4103783717766234,-133.73534909546765,7.5915129998336095,44.989651826175965,0.0604,-0.9196,0.0662,0.3826
378,829122.0,804.86082,1.0,-6.03,-0.66,-7.05,28.0,-14.75,26.75,8.19,-7.31,-7.31,0.811184228070932,0.08524526647493902,0.5420014155866344,-133.73534909546765,6.879625535030392,45.10129990098643,0.0612,-0.9196,0.06,0.3835
379,829122.0,804.86082,1.0,-6.03,-0.66,-7.05,28.0,-14.75,26.75,8.19,-7.31,-7.31,0.811184228070932,0.08524526647493902,0.5420014155866344,-133.73534909546765,6.879625535030392,45.10129990098643,0.0612,-0.9196,0.06,0.3835
380,829157.0,804.8775009999999,1.0,-6.71,-1.22,-6.11,28.0,-14.5,27.25,7.94,-14.06,-6.06,-0.16721996092315142,-0.578713911500324,0.6698164295936238,-133.27085000109963,6.351624225020216,45.58563248490306,0.0636,-0.9179999999999999,0.0554,0.3874
381,829157.0,804.8775009999999,1.0,-6.71,-1.22,-6.11,28.0,-14.5,27.25,7.94,-14.06,-6.06,-0.16721996092315142,-0.578713911500324,0.6698164295936238,-133.27085000109963,6.351624225020216,45.58563248490306,0.0636,-0.9179999999999999,0.0554,0.3874
382,829194.0,804.9260429999999,1.0,-6.37,-0.79,-6.79,27.69,-14.56,26.06,1.31,-3.75,-6.19,0.4985418351080738,-0.011712579147232229,0.4762470690362566,-133.2419635150545,5.754915093896803,45.73483064826311,0.0626,-0.9179,0.0502,0.3886
383,829194.0,804.9260429999999,1.0,-6.37,-0.79,-6.79,27.69,-14.56,26.06,1.31,-3.75,-6.19,0.4985418351080738,-0.011712579147232229,0.4762470690362566,-133.2419635150545,5.754915093896803,45.73483064826311,0.0626,-0.9179,0.0502,0.3886
384,829229.0,804.9445969999999,1.0,-6.97,-1.0,-6.42,27.69,-14.56,26.06,3.44,-14.69,-4.5,-0.08274495665583914,-0.24980818503028895,0.2815227492573697,-132.81066902216784,5.594289991509483,46.158005222618215,0.0647,-0.9164,0.0488,0.392
385,829229.0,804.9445969999999,1.0,-6.97,-1.0,-6.42,27.69,-14.56,26.06,3.44,-14.69,-4.5,-0.08274495665583914,-0.24980818503028895,0.2815227492573697,-132.81066902216784,5.594289991509483,46.158005222618215,0.0647,-0.9164,0.0488,0.392
386,829265.0,804.991629,1.0,-6.63,-0.8,-6.77,28.0,-14.06,26.06,0.44,-1.75,-5.63,0.3834270403064045,0.03860107252553069,0.30500310791009433,-132.7820481898819,5.009246344236124,46.2701332926198,0.064,-0.9163,0.0437,0.3929
387,829265.0,804.991629,1.0,-6.63,-0.8,-6.77,28.0,-14.06,26.06,0.44,-1.75,-5.63,0.3834270403064045,0.03860107252553069,0.30500310791009433,-132.7820481898819,5.009246344236124,46.2701332926198,0.064,-0.9163,0.0437,0.3929
388,829298.0,805.011241,1.0,-6.58,-1.23,-6.61,29.5,-14.06,26.06,6.56,-2.75,-6.06,0.3445538617005208,-0.36581079845842784,0.4125632910048953,-132.86795984370113,4.355527902560735,46.25767230528911,0.0643,-0.9166,0.038,0.3928
389,829298.0,805.011241,1.0,-6.58,-1.23,-6.61,29.5,-14.06,26.06,6.56,-2.75,-6.06,0.3445538617005208,-0.36581079845842784,0.4125632910048953,-132.86795984370113,4.355527902560735,46.25767230528911,0.0643,-0.9166,0.038,0.3928
390,829333.0,805.058085,1.0,-6.37,-1.41,-6.83,29.5,-14.06,26.06,4.63,-10.38,-3.0,0.7045055518505322,-0.4644188292006278,0.3991058423308118,-132.61066542040177,4.229388694927676,46.494530291688996,0.0662,-0.9157,0.0369,0.3947
391,829333.0,805.058085,1.0,-6.37,-1.41,-6.83,29.5,-14.06,26.06,4.63,-10.38,-3.0,0.7045055518505322,-0.4644188292006278,0.3991058423308118,-132.61066542040177,4.229388694927676,46.494530291688996,0.0662,-0.9157,0.0369,0.3947
392,829368.0,805.079752,1.0,-6.65,-1.97,-6.26,28.75,-14.06,26.06,2.44,-2.88,1.31,0.1925717232822997,-1.0984644546847204,0.5304820426381749,-132.4398647310081,3.851001219583861,46.70663424071843,0.0653,-0.9151,0.0336,0.3964
393,829368.0,805.079752,1.0,-6.65,-1.97,-6.26,28.75,-14.06,26.06,2.44,-2.88,1.31,0.1925717232822997,-1.0984644546847204,0.5304820426381749,-132.4398647310081,3.851001219583861,46.70663424071843,0.0653,-0.9151,0.0336,0.3964
394,829405.0,805.121849,1.0,-7.15,-0.8,-5.9,29.06,-14.06,25.25,-17.31,-1.5,5.31,-0.5414425788634478,-0.054032686388230784,0.5181398717504013,-132.55366749345725,3.335085177891311,46.744081927482135,0.0597,-0.9155,0.0291,0.3967
395,829405.0,805.121849,1.0,-7.15,-0.8,-5.9,29.06,-14.06,25.25,-17.31,-1.5,5.31,-0.5414425788634478,-0.054032686388230784,0.5181398717504013,-132.55366749345725,3.335085177891311,46.744081927482135,0.0597,-0.9155,0.0291,0.3967
396,829440.0,805.139281,1.0,-6.85,-1.2,-6.26,29.06,-14.06,25.25,1.06,2.38,10.69,-0.033707897475095824,-0.4467825333291023,0.4605626290431122,-132.58215838722379,3.4841201823987773,46.744081927482135,0.0576,-0.9156,0.0304,0.3967
397,829440.0,805.139281,1.0,-6.85,-1.2,-6.26,29.06,-14.06,25.25,1.06,2.38,10.69,-0.033707897475095824,-0.4467825333291023,0.4605626290431122,-132.58215838722379,3.4841201823987773,46.744081927482135,0.0576,-0.9156,0.0304,0.3967
398,829472.0,805.183779,1.0,-6.41,-0.57,-6.98,28.75,-14.06,27.25,-9.13,7.56,10.81,0.6974276067419298,0.19713786681245904,0.34049283910187,-132.81066902216784,3.713416405127687,46.569371208551814,0.054000000000000006,-0.9164,0.0324,0.3953
399,829472.0,805.183779,1.0,-6.41,-0.57,-6.98,28.75,-14.06,27.25,-9.13,7.56,10.81,0.6974276067419298,0.19713786681245904,0.34049283910187,-132.81066902216784,3.713416405127687,46.569371208551814,0.054000000000000006,-0.9164,0.0324,0.3953
400,829507.0,805.2437309999999,1.0,-6.6,0.37,-7.21,29.06,-13.25,27.25,-5.56,10.94,7.56,0.5966717127636897,1.0957986043788237,0.1048868465402606,-133.12658560187518,3.6560909909367436,46.30751972941107,0.0507,-0.9175,0.0319,0.3932
401,829507.0,805.2437309999999,1.0,-6.6,0.37,-7.21,29.06,-13.25,27.25,-5.56,10.94,7.56,0.5966717127636897,1.0957986043788237,0.1048868465402606,-133.12658560187518,3.6560909909367436,46.30751972941107,0.0507,-0.9175,0.0319,0.3932
