,TIME,ELAPSED_SECONDS,PSTATE,acc_x,acc_y,acc_z,mag_x,mag_y,mag_z,gyr_x,gyr_y,gyr_z,lin_x,lin_y,lin_z,eul_x,eul_y,eul_z,qua_w,qua_x,qua_y,qua_z
0,1513521.0,1490.5002550000002,1.0,1.78,-0.38,-10.32,1.5,-10.38,39.06,2.0,-6.06,-0.75,0.3960586122209492,0.315801205374057,-0.6603747527351338,-152.00202441389632,-26.19396354392425,-7.327392950256605,0.0562,-0.9703,-0.2266,-0.0639
1,1513521.0,1490.5002550000002,1.0,1.78,-0.38,-10.32,1.5,-10.38,39.06,2.0,-6.06,-0.75,0.3960586122209492,0.315801205374057,-0.6603747527351338,-152.00202441389632,-26.19396354392425,-7.327392950256605,0.0562,-0.9703,-0.2266,-0.0639
2,1513558.0,1490.569235,1.0,2.37,-0.68,-10.74,1.88,-10.75,40.0,14.25,-31.5,3.88,0.8970329286664537,-0.14498566225160053,-1.1752082709225284,-152.09692309623645,-26.205728877683853,-6.558216736441544,0.057999999999999996,-0.9705,-0.2267,-0.0572
3,1513558.0,1490.569235,1.0,2.37,-0.68,-10.74,1.88,-10.75,40.0,14.25,-31.5,3.88,0.8970329286664537,-0.14498566225160053,-1.1752082709225284,-152.09692309623645,-26.205728877683853,-6.558216736441544,0.057999999999999996,-0.9705,-0.2267,-0.0572
4,1513592.0,1490.585833,1.0,0.61,-1.32,-9.26,1.88,-10.75,40.0,10.13,-45.19,4.38,-0.6109751701597932,-0.2006359805389956,0.455256812631534,-152.4315896826145,-26.19396354392425,-5.181303758795194,0.0584,-0.9712,-0.2266,-0.0452
5,1513592.0,1490.585833,1.0,0.61,-1.32,-9.26,1.88,-10.75,40.0,10.13,-45.19,4.38,-0.6109751701597932,-0.2006359805389956,0.455256812631534,-152.4315896826145,-26.19396354392425,-5.181303758795194,0.0584,-0.9712,-0.2266,-0.0452
6,1513627.0,1490.6284349999999,1.0,0.07,-1.36,-8.87,1.88,-10.0,39.06,-4.31,10.94,2.75,-1.0190421803672287,-0.07426075244287522,0.8910771987000743,-152.62462859250314,-26.076325639174165,-4.733977821845079,0.0582,-0.9716,-0.2256,-0.0413
7,1513627.0,1490.6284349999999,1.0,0.07,-1.36,-8.87,1.88,-10.0,39.06,-4.31,10.94,2.75,-1.0190421803672287,-0.07426075244287522,0.8910771987000743,-152.62462859250314,-26.076325639174165,-4.733977821845079,0.0582,-0.9716,-0.2256,-0.0413
8,1513662.0,1490.645443,1.0,2.13,-1.06,-10.35,3.38,-10.0,39.06,9.81,-4.63,2.94,0.8535371891464381,-0.4716374174923199,-0.7684165441483213,-152.62462859250314,-26.00575632582789,-4.906017344265486,0.0594,-0.9716,-0.225,-0.0428
9,1513662.0,1490.645443,1.0,2.13,-1.06,-10.35,3.38,-10.0,39.06,9.81,-4.63,2.94,0.8535371891464381,-0.4716374174923199,-0.7684165441483213,-152.62462859250314,-26.00575632582789,-4.906017344265486,0.0594,-0.9716,-0.225,-0.0428
10,1513699.0,1490.684457,1.0,0.87,-0.93,-9.68,3.38,-9.56,39.5,5.88,-18.5,6.13,-0.0384365397507177,0.0765150608482737,0.043614197654735065,-152.91671705681662,-25.86464777060069,-4.080321683767285,0.0599,-0.9722,-0.2238,-0.0356
11,1513699.0,1490.684457,1.0,0.87,-0.93,-9.68,3.38,-9.56,39.5,5.88,-18.5,6.13,-0.0384365397507177,0.0765150608482737,0.043614197654735065,-152.91671705681662,-25.86464777060069,-4.080321683767285,0.0599,-0.9722,-0.2238,-0.0356
12,1513732.0,1490.7615529999998,1.0,0.71,-0.87,-9.53,3.38,-9.56,39.5,3.5,-13.19,3.94,-0.07273099661156254,0.16586860111511642,0.21242789451922486,-153.06392657993817,-25.747087788934113,-3.621696182670093,0.0601,-0.9725,-0.2228,-0.0316
13,1513732.0,1490.7615529999998,1.0,0.71,-0.87,-9.53,3.38,-9.56,39.5,3.5,-13.19,3.94,-0.07273099661156254,0.16586860111511642,0.21242789451922486,-153.06392657993817,-25.747087788934113,-3.621696182670093,0.0601,-0.9725,-0.2228,-0.0316
14,1513768.0,1490.765222,1.0,0.68,-1.16,-9.56,3.75,-9.56,38.69,3.06,-10.06,4.94,-0.15116468938206398,-0.06980031350548632,0.1539883384209233,-153.21193002249612,-25.60605217391993,-3.1975194185389717,0.0613,-0.9728,-0.2216,-0.0279
15,1513768.0,1490.765222,1.0,0.68,-1.16,-9.56,3.75,-9.56,38.69,3.06,-10.06,4.94,-0.15116468938206398,-0.06980031350548632,0.1539883384209233,-153.21193002249612,-25.60605217391993,-3.1975194185389717,0.0613,-0.9728,-0.2216,-0.0279
16,1513803.0,1490.805532,1.0,0.47,-1.09,-9.3,3.38,-9.25,39.06,-0.88,-9.5,4.63,-0.25269593505675114,0.035051480574212264,0.4346749595874737,-153.36074062083046,-25.488552629562964,-2.888013009772368,0.0612,-0.9731,-0.2206,-0.0252
17,1513803.0,1490.805532,1.0,0.47,-1.09,-9.3,3.38,-9.25,39.06,-0.88,-9.5,4.63,-0.25269593505675114,0.035051480574212264,0.4346749595874737,-153.36074062083046,-25.488552629562964,-2.888013009772368,0.0612,-0.9731,-0.2206,-0.0252
18,1513836.0,1490.82387,1.0,0.41,-0.57,-9.55,3.38,-9.25,39.06,3.94,-0.69,0.63,-0.06728540183701276,0.5345529554344861,0.246041974746797,-153.4604028099656,-25.418065988790868,-2.738999060214957,0.0602,-0.9733,-0.22,-0.0239
19,1513836.0,1490.82387,1.0,0.41,-0.57,-9.55,3.38,-9.25,39.06,3.94,-0.69,0.63,-0.06728540183701276,0.5345529554344861,0.246041974746797,-153.4604028099656,-25.418065988790868,-2.738999060214957,0.0602,-0.9733,-0.22,-0.0239
20,1513871.0,1490.865333,1.0,1.03,-1.1,-10.18,3.75,-9.56,39.56,1.19,2.13,-1.37,0.24245096592402346,-0.1048485964689167,-0.480892189509655,-153.4604028099656,-25.418065988790868,-2.807774138332147,0.061,-0.9733,-0.22,-0.0245
21,1513871.0,1490.865333,1.0,1.03,-1.1,-10.18,3.75,-9.56,39.56,1.19,2.13,-1.37,0.24245096592402346,-0.1048485964689167,-0.480892189509655,-153.4604028099656,-25.418065988790868,-2.807774138332147,0.061,-0.9733,-0.22,-0.0245
22,1513908.0,1490.920039,1.0,0.65,-0.96,-9.77,3.75,-9.25,40.0,2.5,2.75,-2.63,-0.02692031896534564,0.12573971717371335,-0.03105627839395808,-153.36074062083046,-25.512050354420897,-2.7733864743736323,0.0609,-0.9731,-0.2208,-0.0242
23,1513908.0,1490.920039,1.0,0.65,-0.96,-9.77,3.75,-9.25,40.0,2.5,2.75,-2.63,-0.02692031896534564,0.12573971717371335,-0.03105627839395808,-153.36074062083046,-25.512050354420897,-2.7733864743736323,0.0609,-0.9731,-0.2208,-0.0242
24,1513943.0,1490.9395710000001,1.0,0.87,-1.44,-9.91,3.75,-9.25,40.0,3.06,-3.31,-0.81,-0.0282063689309357,-0.35361819935705463,-0.2388842600498471,-153.2614432071201,-25.570799441600013,-2.738999060214957,0.0623,-0.9729,-0.2213,-0.0239
25,1513943.0,1490.9395710000001,1.0,0.87,-1.44,-9.91,3.75,-9.25,40.0,3.06,-3.31,-0.81,-0.0282063689309357,-0.35361819935705463,-0.2388842600498471,-153.2614432071201,-25.570799441600013,-2.738999060214957,0.0623,-0.9729,-0.2213,-0.0239
26,1513977.0,1490.9862970000001,1.0,0.67,-1.38,-9.85,4.88,-8.88,38.69,2.0,-2.94,-0.19,-0.15745655589068275,-0.22375759761172345,-0.15833569846028972,-153.2614432071201,-25.59430098947942,-2.6014518395409367,0.0625,-0.9729,-0.2215,-0.0227
27,1513977.0,1490.9862970000001,1.0,0.67,-1.38,-9.85,4.88,-8.88,38.69,2.0,-2.94,-0.19,-0.15745655589068275,-0.22375759761172345,-0.15833569846028972,-153.2614432071201,-25.59430098947942,-2.6014518395409367,0.0625,-0.9729,-0.2215,-0.0227
28,1514012.0,1491.004609,1.0,0.24,-1.13,-9.47,4.19,-9.25,38.75,0.75,-8.19,0.81,-0.40812236324025697,0.12679456906322373,0.2760278128666105,-153.3110465719337,-25.58255007875368,-2.4639083675369537,0.0624,-0.973,-0.2214,-0.0215
29,1514012.0,1491.004609,1.0,0.24,-1.13,-9.47,4.19,-9.25,38.75,0.75,-8.19,0.81,-0.40812236324025697,0.12679456906322373,0.2760278128666105,-153.3110465719337,-25.58255007875368,-2.4639083675369537,0.0624,-0.973,-0.2214,-0.0215
30,1514047.0,1491.057689,1.0,0.51,-1.09,-9.69,4.5,-8.88,38.75,1.5,-1.0,0.06,-0.1288525091565504,0.07484146598076502,0.04334647169289774,-153.3110465719337,-25.58255007875368,-2.337829975144579,0.0626,-0.973,-0.2214,-0.0204
31,1514047.0,1491.057689,1.0,0.51,-1.09,-9.69,4.5,-8.88,38.75,1.5,-1.0,0.06,-0.1288525091565504,0.07484146598076502,0.04334647169289774,-153.3110465719337,-25.58255007875368,-2.337829975144579,0.0626,-0.973,-0.2214,-0.0204
32,1514082.0,1491.061834,1.0,0.58,-1.07,-9.86,4.5,-8.88,38.75,-0.06,-0.12,-0.69,-0.05924957308136437,0.08496043444198648,-0.12764268809154802,-153.3110465719337,-25.59430098947942,-2.337829975144579,0.0626,-0.973,-0.2215,-0.0204
33,1514082.0,1491.061834,1.0,0.58,-1.07,-9.86,4.5,-8.88,38.75,-0.06,-0.12,-0.69,-0.05924957308136437,0.08496043444198648,-0.12764268809154802,-153.3110465719337,-25.59430098947942,-2.337829975144579,0.0626,-0.973,-0.2215,-0.0204
34,1514119.0,1491.099748,1.0,0.36,-1.16,-9.53,4.19,-8.88,38.25,-1.5,-1.75,-1.94,-0.2757608968238825,0.046091555510243576,0.2036332085800492,-153.21193002249612,-25.65305965168436,-2.223215714892369,0.0623,-0.9728,-0.222,-0.0194
35,1514119.0,1491.099748,1.0,0.36,-1.16,-9.53,4.19,-8.88,38.25,-1.5,-1.75,-1.94,-0.2757608968238825,0.046091555510243576,0.2036332085800492,-153.21193002249612,-25.65305965168436,-2.223215714892369,0.0623,-0.9728,-0.222,-0.0194
36,1514153.0,1491.156103,1.0,0.56,-1.39,-9.69,4.5,-8.88,38.25,4.5,-3.81,-1.63,-0.18295867605145985,-0.21985993374832924,0.005630270788673286,-153.1625065187994,-25.71182517460623,-2.142987063023817,0.0627,-0.9727,-0.2225,-0.0187
37,1514153.0,1491.156103,1.0,0.56,-1.39,-9.69,4.5,-8.88,38.25,4.5,-3.81,-1.63,-0.18295867605145985,-0.21985993374832924,0.005630270788673286,-153.1625065187994,-25.71182517460623,-2.142987063023817,0.0627,-0.9727,-0.2225,-0.0187
38,1514186.0,1491.221183,1.0,0.68,-1.53,-9.78,4.5,-8.88,38.25,1.12,-0.81,-1.0,-0.12303277538908032,-0.3759309758773561,-0.10774553566207068,-153.1625065187994,-25.747087788934113,-2.0742204847835874,0.0633,-0.9727,-0.2228,-0.0181
39,1514186.0,1491.221183,1.0,0.68,-1.53,-9.78,4.5,-8.88,38.25,1.12,-0.81,-1.0,-0.12303277538908032,-0.3759309758773561,-0.10774553566207068,-153.1625065187994,-25.747087788934113,-2.0742204847835874,0.0633,-0.9727,-0.2228,-0.0181
40,1514221.0,1491.241736,1.0,0.55,-1.16,-9.83,6.0,-8.5,40.0,-0.31,-5.13,0.63,-0.06746090048210847,0.006176981359725664,-0.10659421528126424,-153.1625065187994,-25.747087788934113,-1.9939937526124858,0.0629,-0.9727,-0.2228,-0.0174
41,1514221.0,1491.241736,1.0,0.55,-1.16,-9.83,6.0,-8.5,40.0,-0.31,-5.13,0.63,-0.06746090048210847,0.006176981359725664,-0.10659421528126424,-153.1625065187994,-25.747087788934113,-1.9939937526124858,0.0629,-0.9727,-0.2228,-0.0174
42,1514258.0,1491.2453050000001,1.0,0.45,-0.98,-9.6,3.75,-8.88,39.06,-0.19,-4.88,-0.25,-0.0422562361110215,0.1620907145154833,0.1477245416077686,-153.1625065187994,-25.747087788934113,-1.7647797695524667,0.0624,-0.9727,-0.2228,-0.0154
43,1514258.0,1491.2453050000001,1.0,0.45,-0.98,-9.6,3.75,-8.88,39.06,-0.19,-4.88,-0.25,-0.0422562361110215,0.1620907145154833,0.1477245416077686,-153.1625065187994,-25.747087788934113,-1.7647797695524667,0.0624,-0.9727,-0.2228,-0.0154
44,1514293.0,1491.287572,1.0,0.56,-1.56,-9.76,3.75,-8.88,39.06,4.94,-1.37,0.81,-0.17766959035876612,-0.3727865890104392,-0.08447044592096375,-153.1625065187994,-25.747087788934113,-1.6730962049034406,0.0631,-0.9727,-0.2228,-0.0146
45,1514293.0,1491.287572,1.0,0.56,-1.56,-9.76,3.75,-8.88,39.06,4.94,-1.37,0.81,-0.17766959035876612,-0.3727865890104392,-0.08447044592096375,-153.1625065187994,-25.747087788934113,-1.6730962049034406,0.0631,-0.9727,-0.2228,-0.0146
46,1514326.0,1491.307789,1.0,0.68,-0.89,-10.17,4.5,-8.88,39.56,-5.56,-3.38,2.13,0.2369231827259337,0.19820476387390973,-0.4201765985624704,-153.3110465719337,-25.67656503656709,-1.5584932484256673,0.0619,-0.973,-0.2222,-0.0136
47,1514326.0,1491.307789,1.0,0.68,-0.89,-10.17,4.5,-8.88,39.56,-5.56,-3.38,2.13,0.2369231827259337,0.19820476387390973,-0.4201765985624704,-153.3110465719337,-25.67656503656709,-1.5584932484256673,0.0619,-0.973,-0.2222,-0.0136
48,1514362.0,1491.36526,1.0,0.46,-1.44,-9.8,4.19,-9.25,39.06,4.81,-7.31,4.56,-0.17218650242108752,-0.2435149768621515,-0.10477029501462633,-153.36074062083046,-25.58255007875368,-1.4095117183833985,0.0623,-0.9731,-0.2214,-0.0123
49,1514362.0,1491.36526,1.0,0.46,-1.44,-9.8,4.19,-9.25,39.06,4.81,-7.31,4.56,-0.17218650242108752,-0.2435149768621515,-0.10477029501462633,-153.36074062083046,-25.58255007875368,-1.4095117183833985,0.0623,-0.9731,-0.2214,-0.0123
50,1514397.0,1491.409177,1.0,0.27,-1.01,-9.62,4.5,-9.25,38.69,-4.13,-2.88,5.38,-0.1328012817691901,0.1738293812976563,0.13248093150847673,-153.61058909469406,-25.394572616004382,-1.237612897472461,0.0613,-0.9736,-0.2198,-0.0108
51,1514397.0,1491.409177,1.0,0.27,-1.01,-9.62,4.5,-9.25,38.69,-4.13,-2.88,5.38,-0.1328012817691901,0.1738293812976563,0.13248093150847673,-153.61058909469406,-25.394572616004382,-1.237612897472461,0.0613,-0.9736,-0.2198,-0.0108
52,1514432.0,1491.4261390000001,1.0,0.15,-1.09,-9.47,4.5,-9.25,38.69,-2.0,-1.12,4.94,-0.2783856169067033,0.12880061511019547,0.27788240655714525,-153.76161968319718,-25.253635128091673,-1.2490727279396536,0.061,-0.9739,-0.2186,-0.0109
53,1514432.0,1491.4261390000001,1.0,0.15,-1.09,-9.47,4.5,-9.25,38.69,-2.0,-1.12,4.94,-0.2783856169067033,0.12880061511019547,0.27788240655714525,-153.76161968319718,-25.253635128091673,-1.2490727279396536,0.061,-0.9739,-0.2186,-0.0109
54,1514467.0,1491.462721,1.0,0.06,-1.11,-9.35,5.25,-9.56,38.25,-1.31,4.13,3.31,-0.38031377353817775,0.12820979811040512,0.399359014741508,-153.91350924378722,-25.0892571067724,-1.3178319771025526,0.0606,-0.9742,-0.2172,-0.0115
55,1514467.0,1491.462721,1.0,0.06,-1.11,-9.35,5.25,-9.56,38.25,-1.31,4.13,3.31,-0.38031377353817775,0.12820979811040512,0.399359014741508,-153.91350924378722,-25.0892571067724,-1.3178319771025526,0.0606,-0.9742,-0.2172,-0.0115
56,1514502.0,1491.470167,1.0,0.0,-1.09,-9.53,4.5,-9.56,38.69,-2.5,0.37,2.0,-0.4445572239836415,0.19355915132778975,0.2267802864004871,-153.96433257658236,-25.03056340197877,-1.432431792389882,0.0604,-0.9743,-0.2167,-0.0125
57,1514502.0,1491.470167,1.0,0.0,-1.09,-9.53,4.5,-9.56,38.69,-2.5,0.37,2.0,-0.4445572239836415,0.19355915132778975,0.2267802864004871,-153.96433257658236,-25.03056340197877,-1.432431792389882,0.0604,-0.9743,-0.2167,-0.0125
58,1514536.0,1491.529511,1.0,0.46,-0.9,-10.07,4.5,-9.56,38.69,-2.31,3.44,-0.19,0.039722906970824895,0.2299934008756414,-0.3112561631453872,-154.01525359440276,-25.00708778933191,-1.5011923619341792,0.0599,-0.9744,-0.2165,-0.0131
59,1514536.0,1491.529511,1.0,0.46,-0.9,-10.07,4.5,-9.56,38.69,-2.31,3.44,-0.19,0.039722906970824895,0.2299934008756414,-0.3112561631453872,-154.01525359440276,-25.00708778933191,-1.5011923619341792,0.0599,-0.9744,-0.2165,-0.0131
60,1514571.0,1491.544862,1.0,0.4,-1.32,-9.94,4.5,-8.88,40.75,-0.25,-9.63,-1.19,-0.1677627871110499,-0.14377214919882453,-0.2261554509382151,-153.96433257658236,-25.054040082214637,-1.3522117780748235,0.0599,-0.9743,-0.2169,-0.0118
61,1514571.0,1491.544862,1.0,0.4,-1.32,-9.94,4.5,-8.88,40.75,-0.25,-9.63,-1.19,-0.1677627871110499,-0.14377214919882453,-0.2261554509382151,-153.96433257658236,-25.054040082214637,-1.3522117780748235,0.0599,-0.9743,-0.2169,-0.0118
62,1514608.0,1491.584756,1.0,0.2,-1.62,-9.53,4.88,-9.56,38.69,0.69,-9.75,-1.88,-0.42015840909531377,-0.4072027339414209,0.15559032529395722,-153.91350924378722,-25.13621688663897,-0.9740399810272836,0.0591,-0.9742,-0.2176,-0.0085
63,1514608.0,1491.584756,1.0,0.2,-1.62,-9.53,4.88,-9.56,38.69,0.69,-9.75,-1.88,-0.42015840909531377,-0.4072027339414209,0.15559032529395722,-153.91350924378722,-25.13621688663897,-0.9740399810272836,0.0591,-0.9742,-0.2176,-0.0085
64,1514643.0,1491.661192,1.0,-0.62,-2.17,-9.08,4.88,-9.56,38.69,0.31,-5.0,1.63,-1.3705332818664753,-0.6278880620639028,0.5726316382674472,-153.96433257658236,-25.124476539770274,-0.7677691897415189,0.0584,-0.9743,-0.2175,-0.0067
65,1514643.0,1491.661192,1.0,-0.62,-2.17,-9.08,4.88,-9.56,38.69,0.31,-5.0,1.63,-1.3705332818664753,-0.6278880620639028,0.5726316382674472,-153.96433257658236,-25.124476539770274,-0.7677691897415189,0.0584,-0.9743,-0.2175,-0.0067
66,1514676.0,1491.6646,1.0,0.33,-3.2,-10.18,5.25,-9.56,40.75,4.25,9.63,17.06,-0.9382921310665804,-1.8361802404206207,-0.668527802856973,-154.42620867150097,-24.666810678302642,-0.8938232239278141,0.0581,-0.9752,-0.2136,-0.0078
67,1514676.0,1491.6646,1.0,0.33,-3.2,-10.18,5.25,-9.56,40.75,4.25,9.63,17.06,-0.9382921310665804,-1.8361802404206207,-0.668527802856973,-154.42620867150097,-24.666810678302642,-0.8938232239278141,0.0581,-0.9752,-0.2136,-0.0078
68,1514713.0,1491.707425,1.0,-0.42,-2.13,-9.99,5.25,-9.56,38.75,-21.0,-24.87,19.5,-1.1207803053373235,-0.7549406021967824,-0.3268250305274236,-155.10823234547746,-24.162667241251796,-0.4583674584234223,0.0507,-0.9765,-0.2093,-0.004
69,1514713.0,1491.707425,1.0,-0.42,-2.13,-9.99,5.25,-9.56,38.75,-21.0,-24.87,19.5,-1.1207803053373235,-0.7549406021967824,-0.3268250305274236,-155.10823234547746,-24.162667241251796,-0.4583674584234223,0.0507,-0.9765,-0.2093,-0.004
70,1514747.0,1491.7649310000002,1.0,-0.94,-1.71,-9.04,5.25,-10.0,39.06,-17.75,-56.44,26.37,-1.1801918339987676,-0.4985963820932844,0.6476189987026421,-156.19500732541925,-23.30787601995589,1.3292918974264516,0.0416,-0.9785,-0.20199999999999999,0.0116
71,1514747.0,1491.7649310000002,1.0,-0.94,-1.71,-9.04,5.25,-10.0,39.06,-17.75,-56.44,26.37,-1.1801918339987676,-0.4985963820932844,0.6476189987026421,-156.19500732541925,-23.30787601995589,1.3292918974264516,0.0416,-0.9785,-0.20199999999999999,0.0116
72,1514782.0,1491.772425,1.0,-3.41,-3.03,-7.66,5.25,-10.0,39.06,2.0,-81.44,22.81,-3.7241042508098094,-1.0175762224742102,1.7704701761934525,-156.6436585308699,-22.676412633281863,3.564372225995784,0.0362,-0.9793,-0.1966,0.0311
73,1514782.0,1491.772425,1.0,-3.41,-3.03,-7.66,5.25,-10.0,39.06,2.0,-81.44,22.81,-3.7241042508098094,-1.0175762224742102,1.7704701761934525,-156.6436585308699,-22.676412633281863,3.564372225995784,0.0362,-0.9793,-0.1966,0.0311
74,1514819.0,1491.828577,1.0,-2.51,-2.16,-7.91,6.75,-10.75,37.5,-10.13,-88.12,25.87,-2.1125457624160395,-0.7954872063051379,1.5339146297428972,-156.92843283344138,-21.800531789289547,6.718914520918895,0.0286,-0.9798,-0.1891,0.0586
75,1514819.0,1491.828577,1.0,-2.51,-2.16,-7.91,6.75,-10.75,37.5,-10.13,-88.12,25.87,-2.1125457624160395,-0.7954872063051379,1.5339146297428972,-156.92843283344138,-21.800531789289547,6.718914520918895,0.0286,-0.9798,-0.1891,0.0586
76,1514854.0,1491.846973,1.0,-4.37,-0.79,-6.47,9.75,-10.38,38.69,-1.63,-98.62,18.12,-3.1929644955544663,0.9567208336198584,2.7023159019548952,-156.41828103776766,-21.403893300909647,9.476059158737444,0.0225,-0.9789,-0.1857,0.0826
77,1514854.0,1491.846973,1.0,-4.37,-0.79,-6.47,9.75,-10.38,38.69,-1.63,-98.62,18.12,-3.1929644955544663,0.9567208336198584,2.7023159019548952,-156.41828103776766,-21.403893300909647,9.476059158737444,0.0225,-0.9789,-0.1857,0.0826
78,1514889.0,1491.892473,1.0,-3.4,-3.84,-6.65,9.75,-10.38,38.69,46.88,-81.37,23.31,-2.8862743513395066,-2.309572645568892,2.2658679076942123,-155.05511767406654,-20.914285524438075,13.091899903813275,0.0249,-0.9764,-0.1815,0.114
79,1514889.0,1491.892473,1.0,-3.4,-3.84,-6.65,9.75,-10.38,38.69,46.88,-81.37,23.31,-2.8862743513395066,-2.309572645568892,2.2658679076942123,-155.05511767406654,-20.914285524438075,13.091899903813275,0.0249,-0.9764,-0.1815,0.114
80,1514924.0,1491.899364,1.0,-3.4,-3.79,-7.1,12.38,-10.38,38.0,3.0,-91.0,51.06,-2.240998728911568,-2.4885204949871547,1.7369975636775037,-154.21992611229572,-19.42448582735805,16.59349169701811,0.0209,-0.9748,-0.1687,0.1443
81,1514924.0,1491.899364,1.0,-3.4,-3.79,-7.1,12.38,-10.38,38.0,3.0,-91.0,51.06,-2.240998728911568,-2.4885204949871547,1.7369975636775037,-154.21992611229572,-19.42448582735805,16.59349169701811,0.0209,-0.9748,-0.1687,0.1443
82,1514960.0,1491.950225,1.0,-2.94,-1.57,-7.33,14.69,-9.25,37.06,-25.94,-98.62,89.5,-0.6948317574198496,-0.8864756917380336,1.8336474490886798,-153.91350924378722,-17.3929494210965,19.250121718432275,0.0076,-0.9742,-0.1512,0.1672
83,1514960.0,1491.950225,1.0,-2.94,-1.57,-7.33,14.69,-9.25,37.06,-25.94,-98.62,89.5,-0.6948317574198496,-0.8864756917380336,1.8336474490886798,-153.91350924378722,-17.3929494210965,19.250121718432275,0.0076,-0.9742,-0.1512,0.1672
84,1514995.0,1491.987283,1.0,-3.85,0.73,-6.8,14.69,-9.25,37.06,-30.25,-106.12,109.31,-0.7237651956900569,1.2086521923054276,2.0858518664167214,-153.36074062083046,-14.54632631618216,22.2091125181558,-0.0078,-0.9731,-0.1266,0.1926
85,1514995.0,1491.987283,1.0,-3.85,0.73,-6.8,14.69,-9.25,37.06,-30.25,-106.12,109.31,-0.7237651956900569,1.2086521923054276,2.0858518664167214,-153.36074062083046,-14.54632631618216,22.2091125181558,-0.0078,-0.9731,-0.1266,0.1926
86,1515030.0,1492.0042529999998,1.0,-3.93,-1.01,-7.7,16.37,-10.75,36.56,3.88,-42.56,80.44,-0.4926821828198383,-0.976106484828175,1.1718668297629868,-152.3835367338065,-11.2825706212041,24.983613243143306,-0.0246,-0.9711,-0.0983,0.2163
87,1515030.0,1492.0042529999998,1.0,-3.93,-1.01,-7.7,16.37,-10.75,36.56,3.88,-42.56,80.44,-0.4926821828198383,-0.976106484828175,1.1718668297629868,-152.3835367338065,-11.2825706212041,24.983613243143306,-0.0246,-0.9711,-0.0983,0.2163
88,1515065.0,1492.093126,1.0,-2.74,-0.74,-8.41,18.69,-13.0,34.88,-22.25,-3.5,90.5,0.986601794185921,-1.2255618505541068,1.071209825047422,-153.06392657993817,-8.027974436112627,25.34758912480893,-0.0347,-0.9725,-0.07,0.2194
89,1515065.0,1492.093126,1.0,-2.74,-0.74,-8.41,18.69,-13.0,34.88,-22.25,-3.5,90.5,0.986601794185921,-1.2255618505541068,1.071209825047422,-153.06392657993817,-8.027974436112627,25.34758912480893,-0.0347,-0.9725,-0.07,0.2194
90,1515102.0,1492.13565,1.0,-4.1,4.64,-8.4,17.75,-14.88,35.0,-32.0,2.38,76.81,0.4024301338228263,3.861903588399608,0.12040456323258475,-153.36074062083046,-5.571344453661866,25.34758912480893,-0.0518,-0.9731,-0.0486,0.2194
91,1515102.0,1492.13565,1.0,-4.1,4.64,-8.4,17.75,-14.88,35.0,-32.0,2.38,76.81,0.4024301338228263,3.861903588399608,0.12040456323258475,-153.36074062083046,-5.571344453661866,25.34758912480893,-0.0518,-0.9731,-0.0486,0.2194
92,1515137.0,1492.145914,1.0,-2.87,-0.03,-8.9,17.75,-14.88,35.0,63.5,44.06,42.19,0.9516113732426372,-0.7266656399186506,0.532266309313222,-155.4292933262199,-3.4153340784378665,23.858067126010045,-0.0406,-0.9771,-0.0298,0.2067
93,1515137.0,1492.145914,1.0,-2.87,-0.03,-8.9,17.75,-14.88,35.0,63.5,44.06,42.19,0.9516113732426372,-0.7266656399186506,0.532266309313222,-155.4292933262199,-3.4153340784378665,23.858067126010045,-0.0406,-0.9771,-0.0298,0.2067
94,1515173.0,1492.161758,1.0,-1.18,1.13,-11.96,16.56,-15.56,34.5,-32.19,77.62,78.25,3.3447729905308106,0.14434694985135998,-1.7908737701797488,-157.80436691060555,-1.4438918508267422,21.648844944741544,-0.0399,-0.9813,-0.0126,0.1878
95,1515173.0,1492.161758,1.0,-1.18,1.13,-11.96,16.56,-15.56,34.5,-32.19,77.62,78.25,3.3447729905308106,0.14434694985135998,-1.7908737701797488,-157.80436691060555,-1.4438918508267422,21.648844944741544,-0.0399,-0.9813,-0.0126,0.1878
96,1515210.0,1492.21215,1.0,-3.42,6.33,-11.19,15.0,-15.25,37.25,10.5,61.25,42.06,0.4841806030280212,4.957254849740958,-2.5291756107311727,-159.53822461146382,1.2146932735575866,19.389609385924846,-0.0561,-0.9841,0.0106,0.1684
97,1515210.0,1492.21215,1.0,-3.42,6.33,-11.19,15.0,-15.25,37.25,10.5,61.25,42.06,0.4841806030280212,4.957254849740958,-2.5291756107311727,-159.53822461146382,1.2146932735575866,19.389609385924846,-0.0561,-0.9841,0.0106,0.1684
98,1515245.0,1492.269039,1.0,-2.05,0.15,-9.56,15.0,-15.25,37.25,50.06,54.5,5.88,0.9348021447839352,-0.7368868572655285,0.10089177564181108,-161.64573705685663,1.6730962049034406,17.54366623938741,-0.0446,-0.9872,0.0146,0.1525
99,1515245.0,1492.269039,1.0,-2.05,0.15,-9.56,15.0,-15.25,37.25,50.06,54.5,5.88,0.9348021447839352,-0.7368868572655285,0.10089177564181108,-161.64573705685663,1.6730962049034406,17.54366623938741,-0.0446,-0.9872,0.0146,0.1525
100,1515278.0,1492.272735,1.0,-0.57,-0.45,-10.45,11.88,-17.87,37.69,-22.37,43.81,49.63,2.2642907504681955,-1.25570554974348,-0.34352689351705834,-163.69974033883318,2.6243761106355543,15.436288478593855,-0.0406,-0.9899,0.0229,0.1343
101,1515278.0,1492.272735,1.0,-0.57,-0.45,-10.45,11.88,-17.87,37.69,-22.37,43.81,49.63,2.2642907504681955,-1.25570554974348,-0.34352689351705834,-163.69974033883318,2.6243761106355543,15.436288478593855,-0.0406,-0.9899,0.0229,0.1343
102,1515315.0,1492.326568,1.0,0.24,3.31,-12.95,10.75,-16.0,38.5,1.25,41.19,33.19,3.2747876105715017,2.2863743395691145,-2.9512674822933853,-164.35965769726891,3.816604503074617,14.269118297459285,-0.044000000000000004,-0.9907,0.0333,0.1242
103,1515315.0,1492.326568,1.0,0.24,3.31,-12.95,10.75,-16.0,38.5,1.25,41.19,33.19,3.2747876105715017,2.2863743395691145,-2.9512674822933853,-164.35965769726891,3.816604503074617,14.269118297459285,-0.044000000000000004,-0.9907,0.0333,0.1242
104,1515352.0,1492.344096,1.0,-0.26,1.47,-11.23,9.25,-17.0,38.06,9.56,61.25,18.25,2.080892125394737,0.6501374263858286,-1.3103913910033906,-166.05072408085044,4.6192907619204595,12.377021364647927,-0.0397,-0.9926,0.0403,0.1078
105,1515352.0,1492.344096,1.0,-0.26,1.47,-11.23,9.25,-17.0,38.06,9.56,61.25,18.25,2.080892125394737,0.6501374263858286,-1.3103913910033906,-166.05072408085044,4.6192907619204595,12.377021364647927,-0.0397,-0.9926,0.0403,0.1078
106,1515384.0,1492.385465,1.0,1.04,1.41,-13.08,9.25,-17.0,38.06,-4.75,76.37,24.25,3.101512775438205,0.3911201071314296,-3.0145723896784187,-167.86710278173726,5.364844561963229,9.453062452606881,-0.0466,-0.9944,0.0468,0.0824
107,1515384.0,1492.385465,1.0,1.04,1.41,-13.08,9.25,-17.0,38.06,-4.75,76.37,24.25,3.101512775438205,0.3911201071314296,-3.0145723896784187,-167.86710278173726,5.364844561963229,9.453062452606881,-0.0466,-0.9944,0.0468,0.0824
108,1515421.0,1492.444338,1.0,1.21,-0.04,-12.25,7.75,-16.25,39.75,-3.5,54.06,-2.75,2.937481035501349,-0.9637691226288432,-2.108489707294124,-168.7678701513817,5.915551513947968,7.913105112625811,-0.0469,-0.9952,0.0516,0.069
109,1515421.0,1492.444338,1.0,1.21,-0.04,-12.25,7.75,-16.25,39.75,-3.5,54.06,-2.75,2.937481035501349,-0.9637691226288432,-2.108489707294124,-168.7678701513817,5.915551513947968,7.913105112625811,-0.0469,-0.9952,0.0516,0.069
110,1515458.0,1492.4614490000001,1.0,1.53,-2.57,-11.57,4.25,-16.87,40.19,-41.06,73.25,1.88,2.9713104103044827,-3.352908090747834,-1.2721595831914154,-169.87625549717959,6.615607303690656,5.536926565771378,-0.0459,-0.9961,0.0577,0.0483
111,1515458.0,1492.4614490000001,1.0,1.53,-2.57,-11.57,4.25,-16.87,40.19,-41.06,73.25,1.88,2.9713104103044827,-3.352908090747834,-1.2721595831914154,-169.87625549717959,6.615607303690656,5.536926565771378,-0.0459,-0.9961,0.0577,0.0483
112,1515493.0,1492.497239,1.0,0.42,5.51,-12.73,4.25,-16.87,40.19,-72.5,44.25,13.75,0.8791203787411948,3.799543584388364,-3.5117589106024667,-168.30883818145554,7.304427851725569,4.6192907619204595,-0.0685,-0.9948,0.0637,0.0403
113,1515493.0,1492.497239,1.0,0.42,5.51,-12.73,4.25,-16.87,40.19,-72.5,44.25,13.75,0.8791203787411948,3.799543584388364,-3.5117589106024667,-168.30883818145554,7.304427851725569,4.6192907619204595,-0.0685,-0.9948,0.0637,0.0403
114,1515528.0,1492.549872,1.0,-1.43,0.12,-8.05,2.5,-16.56,39.25,3.13,54.5,-10.25,-1.0090614993955618,-1.212035457706809,1.7832738440604654,-168.7678701513817,6.856665996646211,2.521217704700676,-0.0734,-0.9952,0.0598,0.022000000000000002
115,1515528.0,1492.549872,1.0,-1.43,0.12,-8.05,2.5,-16.56,39.25,3.13,54.5,-10.25,-1.0090614993955618,-1.212035457706809,1.7832738440604654,-168.7678701513817,6.856665996646211,2.521217704700676,-0.0734,-0.9952,0.0598,0.022000000000000002
116,1515563.0,1492.556949,1.0,-0.47,3.02,-9.9,1.75,-18.0,39.75,-83.25,45.38,5.63,-0.5236444199939735,1.1010399136824152,-0.4824125243453246,-167.44083871780597,6.707435672786218,1.0657168616283692,-0.0916,-0.9940000000000001,0.0585,0.0093
117,1515563.0,1492.556949,1.0,-0.47,3.02,-9.9,1.75,-18.0,39.75,-83.25,45.38,5.63,-0.5236444199939735,1.1010399136824152,-0.4824125243453246,-167.44083871780597,6.707435672786218,1.0657168616283692,-0.0916,-0.9940000000000001,0.0585,0.0093
118,1515599.0,1492.6123460000001,1.0,-0.37,2.81,-9.24,-0.5,-19.5,39.0,-46.13,101.12,-23.69,-0.8840121807652102,0.6327054175887363,0.2030670061995803,-165.86324083896642,5.628708719478254,-2.0742204847835874,-0.1114,-0.9924,0.0491,-0.0181
119,1515599.0,1492.6123460000001,1.0,-0.37,2.81,-9.24,-0.5,-19.5,39.0,-46.13,101.12,-23.69,-0.8840121807652102,0.6327054175887363,0.2030670061995803,-165.86324083896642,5.628708719478254,-2.0742204847835874,-0.1114,-0.9924,0.0491,-0.0181
120,1515634.0,1492.628946,1.0,0.13,2.71,-9.55,-0.5,-19.5,39.0,-8.38,75.44,-39.25,-0.7318052399397806,0.3616786313260381,-0.08764884622648594,-165.04848521846108,4.240855681461491,-4.3669953627837845,-0.1186,-0.9915,0.037000000000000005,-0.0381
121,1515634.0,1492.628946,1.0,0.13,2.71,-9.55,-0.5,-19.5,39.0,-8.38,75.44,-39.25,-0.7318052399397806,0.3616786313260381,-0.08764884622648594,-165.04848521846108,4.240855681461491,-4.3669953627837845,-0.1186,-0.9915,0.037000000000000005,-0.0381
122,1515671.0,1492.669639,1.0,1.26,2.58,-10.58,-2.25,-21.0,37.56,18.56,23.06,-42.88,0.08190457736808829,0.05605806720786522,-1.1555828534522163,-165.04848521846108,2.269061145645111,-5.938500516393254,-0.1174,-0.9915,0.0198,-0.0518
123,1515671.0,1492.669639,1.0,1.26,2.58,-10.58,-2.25,-21.0,37.56,18.56,23.06,-42.88,0.08190457736808829,0.05605806720786522,-1.1555828534522163,-165.04848521846108,2.269061145645111,-5.938500516393254,-0.1174,-0.9915,0.0198,-0.0518
124,1515706.0,1492.688567,1.0,1.33,4.11,-9.45,-3.5,-20.5,35.06,-0.37,29.56,-52.56,0.15989495487267355,1.837203026159192,-0.4189364694440769,-165.2256794561049,0.8250663536663884,-6.512305468988996,-0.1151,-0.9917,0.0072,-0.0568
125,1515706.0,1492.688567,1.0,1.33,4.11,-9.45,-3.5,-20.5,35.06,-0.37,29.56,-52.56,0.15989495487267355,1.837203026159192,-0.4189364694440769,-165.2256794561049,0.8250663536663884,-6.512305468988996,-0.1151,-0.9917,0.0072,-0.0568
126,1515741.0,1492.735225,1.0,3.04,3.01,-11.05,-3.5,-20.5,35.06,42.81,28.0,-58.38,1.5744290486542911,0.5547097107854393,-1.924405805319223,-165.6781993872616,-1.6616358358374437,-7.580028689727107,-0.10400000000000001,-0.9922,-0.0145,-0.0661
127,1515741.0,1492.735225,1.0,3.04,3.01,-11.05,-3.5,-20.5,35.06,42.81,28.0,-58.38,1.5744290486542911,0.5547097107854393,-1.924405805319223,-165.6781993872616,-1.6616358358374437,-7.580028689727107,-0.10400000000000001,-0.9922,-0.0145,-0.0661
128,1515776.0,1492.7528929999999,1.0,3.36,-0.06,-12.91,-2.75,-21.25,36.69,40.06,11.63,-51.31,1.4872858286757409,-2.6335177159453464,-3.1861890009120923,-166.24074892993926,-3.942727502383202,-7.8212153932673,-0.0922,-0.9928,-0.0344,-0.0682
129,1515776.0,1492.7528929999999,1.0,3.36,-0.06,-12.91,-2.75,-21.25,36.69,40.06,11.63,-51.31,1.4872858286757409,-2.6335177159453464,-3.1861890009120923,-166.24074892993926,-3.942727502383202,-7.8212153932673,-0.0922,-0.9928,-0.0344,-0.0682
130,1515812.0,1492.797198,1.0,2.83,3.22,-13.6,-3.56,-20.56,37.0,-17.06,-38.69,-53.38,1.2928800921939123,0.3081581433123195,-4.390913158018317,-165.77042087262134,-5.4451479667522715,-6.982946893042854,-0.0969,-0.9923,-0.0475,-0.0609
131,1515812.0,1492.797198,1.0,2.83,3.22,-13.6,-3.56,-20.56,37.0,-17.06,-38.69,-53.38,1.2928800921939123,0.3081581433123195,-4.390913158018317,-165.77042087262134,-5.4451479667522715,-6.982946893042854,-0.0969,-0.9923,-0.0475,-0.0609
132,1515849.0,1492.859678,1.0,2.32,5.19,-13.31,-3.56,-20.56,37.0,-17.87,-52.75,-63.06,1.6173392524324546,2.0412363856597397,-4.4303499564655455,-165.04848521846108,-7.648935698119245,-4.906017344265486,-0.1038,-0.9915,-0.0667,-0.0428
133,1515849.0,1492.859678,1.0,2.32,5.19,-13.31,-3.56,-20.56,37.0,-17.87,-52.75,-63.06,1.6173392524324546,2.0412363856597397,-4.4303499564655455,-165.04848521846108,-7.648935698119245,-4.906017344265486,-0.1038,-0.9915,-0.0667,-0.0428
134,1515882.0,1492.878543,1.0,1.6,3.36,-12.86,-3.19,-19.75,37.75,-1.81,-49.94,-75.31,1.163807563266088,0.35129711647123085,-3.525691965747937,-164.27566318431926,-9.556550648732504,-3.243374149708243,-0.105,-0.9906,-0.0833,-0.0283
135,1515882.0,1492.878543,1.0,1.6,3.36,-12.86,-3.19,-19.75,37.75,-1.81,-49.94,-75.31,1.163807563266088,0.35129711647123085,-3.525691965747937,-164.27566318431926,-9.556550648732504,-3.243374149708243,-0.105,-0.9906,-0.0833,-0.0283
136,1515919.0,1492.925391,1.0,1.05,3.37,-12.99,0.56,-20.56,36.56,-7.56,-57.94,-77.12,1.2613503779860222,0.19864398974543107,-3.593687152075411,-162.22975145954382,-12.492290914481535,-0.7792286067117273,-0.1092,-0.988,-0.1088,-0.0068
137,1515919.0,1492.925391,1.0,1.05,3.37,-12.99,0.56,-20.56,36.56,-7.56,-57.94,-77.12,1.2613503779860222,0.19864398974543107,-3.593687152075411,-162.22975145954382,-12.492290914481535,-0.7792286067117273,-0.1092,-0.988,-0.1088,-0.0068
138,1515956.0,1492.990564,1.0,1.42,3.58,-13.14,1.69,-20.56,37.5,-12.5,-74.37,-82.19,2.205838155626985,0.039823318633668725,-3.707235160621764,-160.39468315225946,-14.511670666824136,1.3636717386286217,-0.1137,-0.9854,-0.1263,0.0119
139,1515956.0,1492.990564,1.0,1.42,3.58,-13.14,1.69,-20.56,37.5,-12.5,-74.37,-82.19,2.205838155626985,0.039823318633668725,-3.707235160621764,-160.39468315225946,-14.511670666824136,1.3636717386286217,-0.1137,-0.9854,-0.1263,0.0119
140,1515988.0,1492.999583,1.0,-0.23,3.83,-12.43,1.69,-20.56,37.5,-3.88,-86.62,-82.56,1.5967637222586708,0.515285814797076,-3.0934091527460663,-157.21671751944734,-17.230672895970507,5.15836210329675,-0.1202,-0.9803,-0.1498,0.045
141,1515988.0,1492.999583,1.0,-0.23,3.83,-12.43,1.69,-20.56,37.5,-3.88,-86.62,-82.56,1.5967637222586708,0.515285814797076,-3.0934091527460663,-157.21671751944734,-17.230672895970507,5.15836210329675,-0.1202,-0.9803,-0.1498,0.045
142,1516025.0,1493.055999,1.0,-2.2,3.07,-10.57,6.19,-20.5,35.75,-26.56,-93.81,-76.56,-0.0010508728795072253,0.620701745777015,-1.4006926037779177,-154.42620867150097,-19.273367657733324,8.039461810968866,-0.1266,-0.9752,-0.1674,0.0701
143,1516025.0,1493.055999,1.0,-2.2,3.07,-10.57,6.19,-20.5,35.75,-26.56,-93.81,-76.56,-0.0010508728795072253,0.620701745777015,-1.4006926037779177,-154.42620867150097,-19.273367657733324,8.039461810968866,-0.1266,-0.9752,-0.1674,0.0701
144,1516062.0,1493.145028,1.0,-2.15,2.03,-8.78,10.25,-19.69,33.25,-23.44,-81.37,-81.87,0.05927255127080525,-0.0825548904073854,0.5426621192471508,-150.38950981826167,-22.302542365509357,11.19045487105573,-0.1356,-0.9668,-0.1934,0.0975
145,1516062.0,1493.145028,1.0,-2.15,2.03,-8.78,10.25,-19.69,33.25,-23.44,-81.37,-81.87,0.05927255127080525,-0.0825548904073854,0.5426621192471508,-150.38950981826167,-22.302542365509357,11.19045487105573,-0.1356,-0.9668,-0.1934,0.0975
146,1516097.0,1493.154978,1.0,-2.95,1.17,-8.14,10.25,-19.69,33.25,-20.87,-49.06,-91.5,-0.8083814323943752,-0.4898535339283562,1.121169991672426,-147.35703857325038,-24.725463298356363,13.034229810442689,-0.1425,-0.9597,-0.2141,0.1135
147,1516097.0,1493.154978,1.0,-2.95,1.17,-8.14,10.25,-19.69,33.25,-20.87,-49.06,-91.5,-0.8083814323943752,-0.4898535339283562,1.121169991672426,-147.35703857325038,-24.725463298356363,13.034229810442689,-0.1425,-0.9597,-0.2141,0.1135
148,1516132.0,1493.1581130000002,1.0,-0.21,0.32,-8.96,13.38,-19.5,31.56,-33.94,-84.56,-74.19,1.5886496310977862,-2.7922297933787608,1.4336132073792418,-143.46374555627918,-27.796689641349,15.262847451308847,-0.1514,-0.9496,-0.2402,0.1328
149,1516132.0,1493.1581130000002,1.0,-0.21,0.32,-8.96,13.38,-19.5,31.56,-33.94,-84.56,-74.19,1.5886496310977862,-2.7922297933787608,1.4336132073792418,-143.46374555627918,-27.796689641349,15.262847451308847,-0.1514,-0.9496,-0.2402,0.1328
150,1516167.0,1493.197819,1.0,-2.56,0.15,-6.95,16.06,-20.19,30.5,-25.37,-60.56,-80.56,-0.5918790062628871,-1.4363891650647664,2.5633727439211054,-139.40365501423122,-30.63884419055943,17.717608294742977,-0.1635,-0.9379,-0.2642,0.154
151,1516167.0,1493.197819,1.0,-2.56,0.15,-6.95,16.06,-20.19,30.5,-25.37,-60.56,-80.56,-0.5918790062628871,-1.4363891650647664,2.5633727439211054,-139.40365501423122,-30.63884419055943,17.717608294742977,-0.1635,-0.9379,-0.2642,0.154
152,1516204.0,1493.2157730000001,1.0,-2.89,0.36,-6.89,19.87,-19.06,29.19,-42.63,-25.37,-79.94,-0.6605736641498511,-1.2109478265117577,2.454708229576484,-136.55893204947213,-33.01011755272957,18.69245669557365,-0.1733,-0.929,-0.2841,0.1624
153,1516204.0,1493.2157730000001,1.0,-2.89,0.36,-6.89,19.87,-19.06,29.19,-42.63,-25.37,-79.94,-0.6605736641498511,-1.2109478265117577,2.454708229576484,-136.55893204947213,-33.01011755272957,18.69245669557365,-0.1733,-0.929,-0.2841,0.1624
154,1516238.0,1493.2190449999998,1.0,-2.78,2.73,-6.73,19.87,-19.06,29.19,-52.56,-35.0,-73.37,0.980779962100135,0.37837997442480575,2.1015153963154454,-132.86795984370113,-35.865440443720345,19.8664125287693,-0.1877,-0.9166,-0.3079,0.1725
155,1516238.0,1493.2190449999998,1.0,-2.78,2.73,-6.73,19.87,-19.06,29.19,-52.56,-35.0,-73.37,0.980779962100135,0.37837997442480575,2.1015153963154454,-132.86795984370113,-35.865440443720345,19.8664125287693,-0.1877,-0.9166,-0.3079,0.1725
156,1516273.0,1493.259866,1.0,-3.1,2.17,-6.46,21.37,-18.69,27.5,4.06,-21.87,-70.62,0.5266766424867899,0.20271985866277095,2.3412621083253398,-130.79006103529238,-37.79789028318413,20.92593832998922,-0.1883,-0.9092,-0.3239,0.1816
157,1516273.0,1493.259866,1.0,-3.1,2.17,-6.46,21.37,-18.69,27.5,4.06,-21.87,-70.62,0.5266766424867899,0.20271985866277095,2.3412621083253398,-130.79006103529238,-37.79789028318413,20.92593832998922,-0.1883,-0.9092,-0.3239,0.1816
158,1516312.0,1493.32409,1.0,-4.13,1.84,-5.42,23.69,-19.06,25.5,20.06,-7.19,-63.5,-0.3894724324582054,1.046346273757756,2.837261884838931,-128.76486449761614,-39.92438520696097,22.22079043012782,-0.1823,-0.9017,-0.3414,0.1927
159,1516312.0,1493.32409,1.0,-4.13,1.84,-5.42,23.69,-19.06,25.5,20.06,-7.19,-63.5,-0.3894724324582054,1.046346273757756,2.837261884838931,-128.76486449761614,-39.92438520696097,22.22079043012782,-0.1823,-0.9017,-0.3414,0.1927
160,1516345.0,1493.341379,1.0,-4.09,-1.53,-5.44,23.69,-19.06,25.5,27.31,5.88,-48.5,-2.5554511977192846,-1.1851296043508883,3.4248213438101294,-127.89708982203928,-41.29285086382844,22.79329707445838,-0.172,-0.8984,-0.3526,0.1976
161,1516345.0,1493.341379,1.0,-4.09,-1.53,-5.44,23.69,-19.06,25.5,27.31,5.88,-48.5,-2.5554511977192846,-1.1851296043508883,3.4248213438101294,-127.89708982203928,-41.29285086382844,22.79329707445838,-0.172,-0.8984,-0.3526,0.1976
162,1516380.0,1493.381612,1.0,-5.0,-0.34,-5.35,25.56,-17.19,25.5,5.75,29.06,-39.56,-2.291285854903985,0.3667476076048231,2.8529743300084043,-126.9655039569828,-42.87671358451489,22.629665556706637,-0.1652,-0.8948,-0.3655,0.1962
163,1516380.0,1493.381612,1.0,-5.0,-0.34,-5.35,25.56,-17.19,25.5,5.75,29.06,-39.56,-2.291285854903985,0.3667476076048231,2.8529743300084043,-126.9655039569828,-42.87671358451489,22.629665556706637,-0.1652,-0.8948,-0.3655,0.1962
164,1516414.0,1493.444291,1.0,-4.67,-1.02,-5.48,25.19,-15.0,26.25,2.56,16.56,-24.25,-2.5270922564193588,-0.21694423271511587,2.991487498090235,-126.55630673438098,-43.801508905676954,22.279183498407725,-0.16,-0.8932,-0.373,0.1932
165,1516414.0,1493.444291,1.0,-4.67,-1.02,-5.48,25.19,-15.0,26.25,2.56,16.56,-24.25,-2.5270922564193588,-0.21694423271511587,2.991487498090235,-126.55630673438098,-43.801508905676954,22.279183498407725,-0.16,-0.8932,-0.373,0.1932
166,1516451.0,1493.4623550000001,1.0,-4.26,-1.08,-5.84,26.25,-15.0,25.06,1.94,35.75,-10.75,-2.295081586203506,-0.483086952726492,2.8843073684355187,-126.58179643384615,-44.69214333160206,21.21732993545333,-0.1535,-0.8933,-0.3802,0.1841
167,1516451.0,1493.4623550000001,1.0,-4.26,-1.08,-5.84,26.25,-15.0,25.06,1.94,35.75,-10.75,-2.295081586203506,-0.483086952726492,2.8843073684355187,-126.58179643384615,-44.69214333160206,21.21732993545333,-0.1535,-0.8933,-0.3802,0.1841
168,1516486.0,1493.499791,1.0,-3.55,-1.65,-6.61,26.25,-15.0,25.06,9.25,44.31,-3.56,-2.2077362086769488,-1.4403187785838683,2.590800594077268,-127.17120439382437,-45.06407886296696,19.878046180611587,-0.146,-0.8956,-0.3832,0.1726
169,1516486.0,1493.499791,1.0,-3.55,-1.65,-6.61,26.25,-15.0,25.06,9.25,44.31,-3.56,-2.2077362086769488,-1.4403187785838683,2.590800594077268,-127.17120439382437,-45.06407886296696,19.878046180611587,-0.146,-0.8956,-0.3832,0.1726
170,1516523.0,1493.5063400000001,1.0,-3.43,-1.28,-6.38,25.56,-15.25,26.75,-5.44,46.13,13.44,-2.019231153031472,-1.0904132706243792,2.817987434825356,-127.97542141388577,-44.86565121405429,18.704070115126303,-0.1428,-0.8987,-0.3816,0.1625
171,1516523.0,1493.5063400000001,1.0,-3.43,-1.28,-6.38,25.56,-15.25,26.75,-5.44,46.13,13.44,-2.019231153031472,-1.0904132706243792,2.817987434825356,-127.97542141388577,-44.86565121405429,18.704070115126303,-0.1428,-0.8987,-0.3816,0.1625
172,1516560.0,1493.563958,1.0,-3.5,-0.97,-5.89,24.87,-14.56,28.0,-7.06,37.31,25.69,-2.096112583865416,-0.5817047812534079,3.2377131314323044,-129.21728949054742,-44.24647435383947,17.103194349757633,-0.141,-0.9034,-0.3766,0.1487
173,1516560.0,1493.563958,1.0,-3.5,-0.97,-5.89,24.87,-14.56,28.0,-7.06,37.31,25.69,-2.096112583865416,-0.5817047812534079,3.2377131314323044,-129.21728949054742,-44.24647435383947,17.103194349757633,-0.141,-0.9034,-0.3766,0.1487
174,1516593.0,1493.5802529999999,1.0,-2.56,-0.15,-7.5,24.87,-14.56,28.0,-5.5,38.94,31.25,-0.7690628333751015,-1.1567373646723849,2.0030225724832382,-130.26971625278716,-43.61631189309636,15.852692930840096,-0.1405,-0.9073,-0.3715,0.1379
175,1516593.0,1493.5802529999999,1.0,-2.56,-0.15,-7.5,24.87,-14.56,28.0,-5.5,38.94,31.25,-0.7690628333751015,-1.1567373646723849,2.0030225724832382,-130.26971625278716,-43.61631189309636,15.852692930840096,-0.1405,-0.9073,-0.3715,0.1379
176,1516627.0,1493.622701,1.0,-2.92,-0.34,-7.39,22.87,-14.69,28.75,0.31,18.69,42.25,-1.296917482712889,-1.0003117334801508,2.023881759913724,-131.93089302515688,-42.20039204818604,14.881400387429185,-0.1398,-0.9133,-0.36,0.1295
177,1516627.0,1493.622701,1.0,-2.92,-0.34,-7.39,22.87,-14.69,28.75,0.31,18.69,42.25,-1.296917482712889,-1.0003117334801508,2.023881759913724,-131.93089302515688,-42.20039204818604,14.881400387429185,-0.1398,-0.9133,-0.36,0.1295
178,1516664.0,1493.67911,1.0,-2.84,1.26,-7.49,20.56,-15.38,28.37,0.25,7.13,55.19,-0.2262490634034159,0.03865586918092856,1.7010582828526974,-133.444524198005,-40.69340241756593,14.361511562916565,-0.1403,-0.9186,-0.3477,0.125
179,1516664.0,1493.67911,1.0,-2.84,1.26,-7.49,20.56,-15.38,28.37,0.25,7.13,55.19,-0.2262490634034159,0.03865586918092856,1.7010582828526974,-133.444524198005,-40.69340241756593,14.361511562916565,-0.1403,-0.9186,-0.3477,0.125
180,1516699.0,1493.694725,1.0,-3.14,0.95,-7.68,21.0,-16.75,29.56,12.81,15.06,49.13,-0.740279288883529,-0.04793495357630495,1.488345556504575,-135.45749811569678,-38.75612925877516,13.79574779269871,-0.1382,-0.9254,-0.3318,0.1201
181,1516699.0,1493.694725,1.0,-3.14,0.95,-7.68,21.0,-16.75,29.56,12.81,15.06,49.13,-0.740279288883529,-0.04793495357630495,1.488345556504575,-135.45749811569678,-38.75612925877516,13.79574779269871,-0.1382,-0.9254,-0.3318,0.1201
182,1516734.0,1493.7494980000001,1.0,-2.73,3.0,-8.81,21.0,-16.75,29.56,-6.56,6.0,44.19,0.9265248984539828,0.8651799653116651,0.19093290556714848,-136.68295663578678,-37.446822845384496,13.44952940908047,-0.1391,-0.9294,-0.321,0.1171
183,1516734.0,1493.7494980000001,1.0,-2.73,3.0,-8.81,21.0,-16.75,29.56,-6.56,6.0,44.19,0.9265248984539828,0.8651799653116651,0.19093290556714848,-136.68295663578678,-37.446822845384496,13.44952940908047,-0.1391,-0.9294,-0.321,0.1171
184,1516771.0,1493.788667,1.0,-2.63,1.69,-8.52,19.87,-17.19,30.5,32.88,3.0,52.13,0.09963160290915707,0.04152164810642345,0.7318635288790247,-138.87838831455554,-35.44414023991489,13.24185777158118,-0.1315,-0.9363,-0.3044,0.1153
185,1516771.0,1493.788667,1.0,-2.63,1.69,-8.52,19.87,-17.19,30.5,32.88,3.0,52.13,0.09963160290915707,0.04152164810642345,0.7318635288790247,-138.87838831455554,-35.44414023991489,13.24185777158118,-0.1315,-0.9363,-0.3044,0.1153
186,1516806.0,1493.796512,1.0,-2.64,1.44,-9.08,17.56,-17.19,31.25,41.56,-3.63,35.0,0.0631732271729557,-0.2278183600546504,0.2445525345800537,-140.37268573421258,-34.015373611081245,13.4841456448157,-0.1246,-0.9408,-0.2925,0.1174
187,1516806.0,1493.796512,1.0,-2.64,1.44,-9.08,17.56,-17.19,31.25,41.56,-3.63,35.0,0.0631732271729557,-0.2278183600546504,0.2445525345800537,-140.37268573421258,-34.015373611081245,13.4841456448157,-0.1246,-0.9408,-0.2925,0.1174
188,1516840.0,1493.852605,1.0,-2.31,0.53,-8.63,17.56,-17.19,31.25,6.69,-11.56,37.5,-0.19618993971470705,-0.9328337303871193,0.9080416403177498,-141.88802849828062,-32.424928041950515,13.830376539145913,-0.1188,-0.9452,-0.2792,0.1204
189,1516840.0,1493.852605,1.0,-2.31,0.53,-8.63,17.56,-17.19,31.25,6.69,-11.56,37.5,-0.19618993971470705,-0.9328337303871193,0.9080416403177498,-141.88802849828062,-32.424928041950515,13.830376539145913,-0.1188,-0.9452,-0.2792,0.1204
190,1516875.0,1493.871387,1.0,-2.91,1.88,-8.89,18.06,-16.87,30.87,3.38,3.13,38.88,0.05646707196704481,0.3908835255610348,0.2736220686851816,-142.84730495776557,-31.376141122007805,13.703410648771609,-0.1185,-0.9479,-0.2704,0.1193
191,1516875.0,1493.871387,1.0,-2.91,1.88,-8.89,18.06,-16.87,30.87,3.38,3.13,38.88,0.05646707196704481,0.3908835255610348,0.2736220686851816,-142.84730495776557,-31.376141122007805,13.703410648771609,-0.1185,-0.9479,-0.2704,0.1193
192,1516912.0,1493.907811,1.0,-2.81,2.47,-8.89,17.25,-17.25,31.56,19.31,-10.63,42.63,0.3895036781223067,0.8569694071665463,0.2075359617197048,-144.27673180622273,-29.89098396291072,13.588001782657653,-0.1168,-0.9518,-0.2579,0.1183
193,1516912.0,1493.907811,1.0,-2.81,2.47,-8.89,17.25,-17.25,31.56,19.31,-10.63,42.63,0.3895036781223067,0.8569694071665463,0.2075359617197048,-144.27673180622273,-29.89098396291072,13.588001782657653,-0.1168,-0.9518,-0.2579,0.1183
194,1516947.0,1493.971258,1.0,-2.35,2.36,-9.4,17.25,-17.25,31.56,35.44,-15.94,37.44,0.8384546319606437,0.4764060570887245,-0.11918150667554528,-145.37657897397716,-28.6474215027532,13.922726077012074,-0.1124,-0.9547,-0.2474,0.1212
195,1516947.0,1493.971258,1.0,-2.35,2.36,-9.4,17.25,-17.25,31.56,35.44,-15.94,37.44,0.8384546319606437,0.4764060570887245,-0.11918150667554528,-145.37657897397716,-28.6474215027532,13.922726077012074,-0.1124,-0.9547,-0.2474,0.1212
196,1516982.0,1494.034597,1.0,-3.07,0.1,-9.09,16.06,-16.19,32.06,14.31,15.75,40.13,-0.8614062136244636,-0.9646198971218652,0.2992587811005798,-146.951724947316,-26.982869511205863,14.32686299177392,-0.1042,-0.9587,-0.2333,0.1247
197,1516982.0,1494.034597,1.0,-3.07,0.1,-9.09,16.06,-16.19,32.06,14.31,15.75,40.13,-0.8614062136244636,-0.9646198971218652,0.2992587811005798,-146.951724947316,-26.982869511205863,14.32686299177392,-0.1042,-0.9587,-0.2333,0.1247
198,1517017.0,1494.096462,1.0,-3.11,1.72,-8.99,16.5,-16.19,33.75,8.94,11.69,28.69,-0.2845909798017736,0.5377380654379633,0.15882922289212156,-148.35037934063973,-25.8058643261674,13.645704477358525,-0.1017,-0.9621,-0.2233,0.1188
199,1517017.0,1494.096462,1.0,-3.11,1.72,-8.99,16.5,-16.19,33.75,8.94,11.69,28.69,-0.2845909798017736,0.5377380654379633,0.15882922289212156,-148.35037934063973,-25.8058643261674,13.645704477358525,-0.1017,-0.9621,-0.2233,0.1188
200,1517053.0,1494.1408720000002,1.0,-1.41,0.95,-10.16,16.5,-16.56,32.88,-3.13,33.69,25.81,0.9007476910968266,-1.0318102930826227,-0.4031600430944629,-149.4184972482763,-25.19492264637575,12.665219075015518,-0.0993,-0.9646,-0.2181,0.1103
201,1517053.0,1494.1408720000002,1.0,-1.41,0.95,-10.16,16.5,-16.56,32.88,-3.13,33.69,25.81,0.9007476910968266,-1.0318102930826227,-0.4031600430944629,-149.4184972482763,-25.19492264637575,12.665219075015518,-0.0993,-0.9646,-0.2181,0.1103
202,1517088.0,1494.1581410000001,1.0,-1.45,3.98,-10.44,16.5,-16.56,32.88,-22.62,36.0,28.0,1.9178263335591872,1.5641704307317432,-1.1847927177660085,-150.479330837061,-24.350199497398,11.178940913568928,-0.1044,-0.9670000000000001,-0.2109,0.0974
203,1517088.0,1494.1581410000001,1.0,-1.45,3.98,-10.44,16.5,-16.56,32.88,-22.62,36.0,28.0,1.9178263335591872,1.5641704307317432,-1.1847927177660085,-150.479330837061,-24.350199497398,11.178940913568928,-0.1044,-0.9670000000000001,-0.2109,0.0974
204,1517125.0,1494.161324,1.0,-1.67,1.6,-10.13,14.56,-17.25,32.88,17.06,45.75,17.37,0.4722001166315519,-0.2665878680443883,-0.5698502750669636,-151.48561418277666,-23.869779338261072,10.074110549810433,-0.1003,-0.9692,-0.2068,0.0878
205,1517125.0,1494.161324,1.0,-1.67,1.6,-10.13,14.56,-17.25,32.88,17.06,45.75,17.37,0.4722001166315519,-0.2665878680443883,-0.5698502750669636,-151.48561418277666,-23.869779338261072,10.074110549810433,-0.1003,-0.9692,-0.2068,0.0878
206,1517162.0,1494.202119,1.0,-1.56,2.61,-10.49,13.5,-16.87,34.06,-16.69,29.37,10.06,0.7625261699928882,0.5943969630074175,-1.0722766975397686,-152.3835367338065,-23.506817731301986,8.602444609340731,-0.0992,-0.9711,-0.2037,0.075
207,1517162.0,1494.202119,1.0,-1.56,2.61,-10.49,13.5,-16.87,34.06,-16.69,29.37,10.06,0.7625261699928882,0.5943969630074175,-1.0722766975397686,-152.3835367338065,-23.506817731301986,8.602444609340731,-0.0992,-0.9711,-0.2037,0.075
208,1517197.0,1494.2200380000002,1.0,-1.06,1.84,-10.98,13.5,-16.87,34.06,-1.06,29.62,14.19,0.7715115723920645,-0.3402313503334754,-1.3449692780203633,-152.91671705681662,-23.2493773342699,7.660420468145224,-0.0984,-0.9722,-0.2015,0.0668
209,1517197.0,1494.2200380000002,1.0,-1.06,1.84,-10.98,13.5,-16.87,34.06,-1.06,29.62,14.19,0.7715115723920645,-0.3402313503334754,-1.3449692780203633,-152.91671705681662,-23.2493773342699,7.660420468145224,-0.0984,-0.9722,-0.2015,0.0668
210,1517232.0,1494.22401,1.0,-1.3,1.95,-11.33,12.38,-16.19,35.38,-11.25,25.12,9.75,0.3944291218171817,-0.2068765706712874,-1.7546227565943102,-153.36074062083046,-23.073918065630973,6.512305468988996,-0.0996,-0.9731,-0.2,0.0568
211,1517232.0,1494.22401,1.0,-1.3,1.95,-11.33,12.38,-16.19,35.38,-11.25,25.12,9.75,0.3944291218171817,-0.2068765706712874,-1.7546227565943102,-153.36074062083046,-23.073918065630973,6.512305468988996,-0.0996,-0.9731,-0.2,0.0568
212,1517266.0,1494.263897,1.0,-1.04,2.03,-10.8,11.25,-18.06,35.88,-7.06,24.5,8.06,0.4714115382972177,-0.11401291879143682,-1.220918735487846,-153.61058909469406,-22.88682192770989,5.7319679651977244,-0.1008,-0.9736,-0.1984,0.05
213,1517266.0,1494.263897,1.0,-1.04,2.03,-10.8,11.25,-18.06,35.88,-7.06,24.5,8.06,0.4714115382972177,-0.11401291879143682,-1.220918735487846,-153.61058909469406,-22.88682192770989,5.7319679651977244,-0.1008,-0.9736,-0.1984,0.05
214,1517303.0,1494.321791,1.0,-0.8,2.45,-11.14,10.5,-18.75,36.25,-10.19,11.75,3.81,0.747058670402239,0.09718657593226032,-1.6027565626760565,-153.8627830260387,-22.699787605080815,5.112479412053579,-0.1021,-0.9741,-0.1968,0.0446
215,1517303.0,1494.321791,1.0,-0.8,2.45,-11.14,10.5,-18.75,36.25,-10.19,11.75,3.81,0.747058670402239,0.09718657593226032,-1.6027565626760565,-153.8627830260387,-22.699787605080815,5.112479412053579,-0.1021,-0.9741,-0.1968,0.0446
216,1517336.0,1494.38236,1.0,-0.61,2.25,-11.47,10.5,-18.75,36.25,1.19,20.12,1.63,0.7772179429725853,-0.17057385905097197,-1.8707785194870663,-154.11739099299157,-22.606293449751373,4.6766337060034,-0.1005,-0.9746,-0.196,0.0408
217,1517336.0,1494.38236,1.0,-0.61,2.25,-11.47,10.5,-18.75,36.25,1.19,20.12,1.63,0.7772179429725853,-0.17057385905097197,-1.8707785194870663,-154.11739099299157,-22.606293449751373,4.6766337060034,-0.1005,-0.9746,-0.196,0.0408
218,1517375.0,1494.40083,1.0,-0.46,1.12,-11.24,10.88,-17.69,37.5,0.94,18.25,-0.19,0.3712181084761955,-1.1503527397625335,-1.4335673328659553,-154.0662728728033,-22.840057573731933,4.160587661476331,-0.0992,-0.9745,-0.198,0.0363
219,1517375.0,1494.40083,1.0,-0.46,1.12,-11.24,10.88,-17.69,37.5,0.94,18.25,-0.19,0.3712181084761955,-1.1503527397625335,-1.4335673328659553,-154.0662728728033,-22.840057573731933,4.160587661476331,-0.0992,-0.9745,-0.198,0.0363
220,1517410.0,1494.40431,1.0,-0.47,2.69,-10.94,10.19,-18.37,36.69,-10.06,5.63,1.56,0.8928730806056973,0.2977959020951824,-1.4296614616240912,-153.91350924378722,-22.921897728102717,3.793673550039814,-0.1013,-0.9742,-0.1987,0.0331
221,1517410.0,1494.40431,1.0,-0.47,2.69,-10.94,10.19,-18.37,36.69,-10.06,5.63,1.56,0.8928730806056973,0.2977959020951824,-1.4296614616240912,-153.91350924378722,-22.921897728102717,3.793673550039814,-0.1013,-0.9742,-0.1987,0.0331
222,1517445.0,1494.443297,1.0,-0.79,2.11,-10.68,10.19,-18.37,36.69,2.38,3.69,-0.06,0.3584766520081905,-0.03093070907915907,-1.1024809361103962,-154.01525359440276,-22.921897728102717,3.7478120989556993,-0.1006,-0.9744,-0.1987,0.0327
223,1517445.0,1494.443297,1.0,-0.79,2.11,-10.68,10.19,-18.37,36.69,2.38,3.69,-0.06,0.3584766520081905,-0.03093070907915907,-1.1024809361103962,-154.01525359440276,-22.921897728102717,3.7478120989556993,-0.1006,-0.9744,-0.1987,0.0327
224,1517479.0,1494.503091,1.0,-0.58,1.6,-10.87,9.5,-18.75,37.5,2.56,5.06,0.25,0.3462300910083195,-0.5677418814166938,-1.1756582218705702,-154.0662728728033,-22.96866884885643,3.6560909909367436,-0.0988,-0.9745,-0.1991,0.0319
225,1517479.0,1494.503091,1.0,-0.58,1.6,-10.87,9.5,-18.75,37.5,2.56,5.06,0.25,0.3462300910083195,-0.5677418814166938,-1.1756582218705702,-154.0662728728033,-22.96866884885643,3.6560909909367436,-0.0988,-0.9745,-0.1991,0.0319
226,1517514.0,1494.520559,1.0,-0.8,1.44,-10.1,9.5,-16.87,36.75,-3.31,1.63,2.56,0.05679766674920495,-0.4683159242314557,-0.41592571359406,-153.91350924378722,-23.097309457161245,3.610231319265168,-0.0988,-0.9742,-0.2002,0.0315
227,1517514.0,1494.520559,1.0,-0.8,1.44,-10.1,9.5,-16.87,36.75,-3.31,1.63,2.56,0.05679766674920495,-0.4683159242314557,-0.41592571359406,-153.91350924378722,-23.097309457161245,3.610231319265168,-0.0988,-0.9742,-0.2002,0.0315
228,1517551.0,1494.52485,1.0,-1.36,1.86,-9.71,10.56,-18.37,37.0,-2.31,-7.63,2.81,-0.27317671922661396,0.17216385009658494,-0.16776898502326354,-153.76161968319718,-23.21428107252436,3.7822081305683333,-0.1002,-0.9739,-0.2012,0.033
229,1517551.0,1494.52485,1.0,-1.36,1.86,-9.71,10.56,-18.37,37.0,-2.31,-7.63,2.81,-0.27317671922661396,0.17216385009658494,-0.16776898502326354,-153.76161968319718,-23.21428107252436,3.7822081305683333,-0.1002,-0.9739,-0.2012,0.033
230,1517586.0,1494.564117,1.0,-0.44,1.67,-10.18,10.56,-18.37,37.0,1.25,-3.0,6.0,0.5135565626985801,-0.4457569192668275,-0.4963816133570589,-153.8627830260387,-23.06222273541725,3.82807003686826,-0.0999,-0.9741,-0.1999,0.0334
231,1517586.0,1494.564117,1.0,-0.44,1.67,-10.18,10.56,-18.37,37.0,1.25,-3.0,6.0,0.5135565626985801,-0.4457569192668275,-0.4963816133570589,-153.8627830260387,-23.06222273541725,3.82807003686826,-0.0999,-0.9741,-0.1999,0.0334
232,1517623.0,1494.667433,1.0,-0.31,1.89,-9.76,10.19,-18.06,37.0,5.25,-18.56,5.75,0.7755144845322413,-0.2268989044223317,-0.10661859171346323,-153.8627830260387,-22.99205586322248,4.229388694927676,-0.1001,-0.9741,-0.1993,0.0369
233,1517623.0,1494.667433,1.0,-0.31,1.89,-9.76,10.19,-18.06,37.0,5.25,-18.56,5.75,0.7755144845322413,-0.2268989044223317,-0.10661859171346323,-153.8627830260387,-22.99205586322248,4.229388694927676,-0.1001,-0.9741,-0.1993,0.0369
234,1517658.0,1494.6779490000001,1.0,-1.48,1.65,-9.04,10.56,-18.75,37.06,4.56,-20.81,5.88,-0.3138659228357413,0.1330271566686887,0.5051290513555724,-153.81215335885898,-22.933590145135867,4.883078110442899,-0.1,-0.9740000000000001,-0.1988,0.0426
235,1517658.0,1494.6779490000001,1.0,-1.48,1.65,-9.04,10.56,-18.75,37.06,4.56,-20.81,5.88,-0.3138659228357413,0.1330271566686887,0.5051290513555724,-153.81215335885898,-22.933590145135867,4.883078110442899,-0.1,-0.9740000000000001,-0.1988,0.0426
236,1517690.0,1494.686041,1.0,-1.0,1.17,-9.71,10.56,-18.75,37.06,7.25,1.0,1.56,0.0010490609094130354,-0.6127439208501255,-0.005462096125505411,-153.91350924378722,-22.851748300506443,5.078067932263361,-0.0991,-0.9742,-0.1981,0.0443
237,1517690.0,1494.686041,1.0,-1.0,1.17,-9.71,10.56,-18.75,37.06,7.25,1.0,1.56,0.0010490609094130354,-0.6127439208501255,-0.005462096125505411,-153.91350924378722,-22.851748300506443,5.078067932263361,-0.0991,-0.9742,-0.1981,0.0443
238,1517725.0,1494.731934,1.0,-1.44,1.36,-9.78,11.0,-18.37,36.56,-4.69,0.37,8.63,-0.3280807695282162,-0.2894082109615863,-0.16231212732768796,-153.8627830260387,-22.86343926833653,5.0551272004985615,-0.0991,-0.9741,-0.1982,0.0441
239,1517725.0,1494.731934,1.0,-1.44,1.36,-9.78,11.0,-18.37,36.56,-4.69,0.37,8.63,-0.3280807695282162,-0.2894082109615863,-0.16231212732768796,-153.8627830260387,-22.86343926833653,5.0551272004985615,-0.0991,-0.9741,-0.1982,0.0441
240,1517762.0,1494.748206,1.0,-0.8,2.07,-10.11,11.0,-18.06,36.5,-4.06,4.75,10.75,0.4868900970720634,0.003013150837696932,-0.5325921847200785,-154.01525359440276,-22.66472550596455,4.745446786894516,-0.1015,-0.9744,-0.1965,0.0414
241,1517762.0,1494.748206,1.0,-0.8,2.07,-10.11,11.0,-18.06,36.5,-4.06,4.75,10.75,0.4868900970720634,0.003013150837696932,-0.5325921847200785,-154.01525359440276,-22.66472550596455,4.745446786894516,-0.1015,-0.9744,-0.1965,0.0414
242,1517797.0,1494.7940199999998,1.0,-0.54,2.08,-9.88,11.0,-18.06,36.5,-0.94,9.0,8.88,0.6780068563364411,-0.03896282656024863,-0.28152072619745105,-154.21992611229572,-22.407668898888772,4.539012581284228,-0.1021,-0.9748,-0.1943,0.0396
243,1517797.0,1494.7940199999998,1.0,-0.54,2.08,-9.88,11.0,-18.06,36.5,-0.94,9.0,8.88,0.6780068563364411,-0.03896282656024863,-0.28152072619745105,-154.21992611229572,-22.407668898888772,4.539012581284228,-0.1021,-0.9748,-0.1943,0.0396
244,1517832.0,1494.857925,1.0,-0.77,1.8,-9.76,11.0,-18.37,37.75,3.13,2.94,4.19,0.3144233349002433,-0.15276219494945775,-0.14163134293881366,-154.3228637180319,-22.419350802422514,4.2867240536107065,-0.1011,-0.975,-0.1944,0.0374
245,1517832.0,1494.857925,1.0,-0.77,1.8,-9.76,11.0,-18.37,37.75,3.13,2.94,4.19,0.3144233349002433,-0.15276219494945775,-0.14163134293881366,-154.3228637180319,-22.419350802422514,4.2867240536107065,-0.1011,-0.975,-0.1944,0.0374
246,1517867.0,1494.9134490000001,1.0,-0.6,2.1,-10.12,10.19,-19.19,37.75,-5.25,12.31,3.5,0.5461997140310046,-0.016562074515626524,-0.5319084860791996,-154.42620867150097,-22.349262916740443,4.000057708800217,-0.1014,-0.9752,-0.1938,0.0349
247,1517867.0,1494.9134490000001,1.0,-0.6,2.1,-10.12,10.19,-19.19,37.75,-5.25,12.31,3.5,0.5461997140310046,-0.016562074515626524,-0.5319084860791996,-154.42620867150097,-22.349262916740443,4.000057708800217,-0.1014,-0.9752,-0.1938,0.0349
248,1517903.0,1494.9735230000001,1.0,-1.39,1.68,-9.53,10.19,-18.37,36.5,1.69,5.5,4.56,-0.3890711709577975,0.03396854834228935,0.03818698058629977,-154.37448496866145,-22.431032941974188,3.816604503074617,-0.1011,-0.9751,-0.1945,0.0333
249,1517903.0,1494.9735230000001,1.0,-1.39,1.68,-9.53,10.19,-18.37,36.5,1.69,5.5,4.56,-0.3890711709577975,0.03396854834228935,0.03818698058629977,-154.37448496866145,-22.431032941974188,3.816604503074617,-0.1011,-0.9751,-0.1945,0.0333
250,1517936.0,1495.040457,1.0,-0.69,1.85,-9.99,10.19,-18.37,36.5,-1.81,4.5,4.25,0.29833140941593017,-0.16064243828061098,-0.3709672249293767,-154.52996593229264,-22.302542365509357,3.621696182670093,-0.10099999999999999,-0.9754,-0.1934,0.0316
251,1517936.0,1495.040457,1.0,-0.69,1.85,-9.99,10.19,-18.37,36.5,-1.81,4.5,4.25,0.29833140941593017,-0.16064243828061098,-0.3709672249293767,-154.52996593229264,-22.302542365509357,3.621696182670093,-0.10099999999999999,-0.9754,-0.1934,0.0316
252,1517973.0,1495.089105,1.0,-0.82,1.86,-9.71,9.06,-18.37,36.5,-2.13,-4.56,7.19,0.1820428534577229,-0.052629603799840614,-0.11202886990544947,-154.73873772257048,-22.057320868979353,3.6904861286986015,-0.1013,-0.9758,-0.1913,0.0322
253,1517973.0,1495.089105,1.0,-0.82,1.86,-9.71,9.06,-18.37,36.5,-2.13,-4.56,7.19,0.1820428534577229,-0.052629603799840614,-0.11202886990544947,-154.73873772257048,-22.057320868979353,3.6904861286986015,-0.1013,-0.9758,-0.1913,0.0322
254,1518010.0,1495.169412,1.0,-1.27,1.88,-9.42,10.19,-18.75,36.06,0.69,-2.0,4.69,-0.2236184118119606,0.18417639845857192,0.1216216644632624,-154.63414056108863,-22.127373666986447,3.7478120989556993,-0.1016,-0.9756,-0.1919,0.0327
255,1518010.0,1495.169412,1.0,-1.27,1.88,-9.42,10.19,-18.75,36.06,0.69,-2.0,4.69,-0.2236184118119606,0.18417639845857192,0.1216216644632624,-154.63414056108863,-22.127373666986447,3.7478120989556993,-0.1016,-0.9756,-0.1919,0.0327
256,1518043.0,1495.182158,1.0,-1.0,1.65,-9.69,10.19,-18.75,36.06,4.44,9.06,5.56,-0.08879401123813252,-0.1544211159432346,-0.07195667009872507,-154.89643727544527,-21.952257310852513,3.5414428939599265,-0.1006,-0.9761,-0.1904,0.0309
257,1518043.0,1495.182158,1.0,-1.0,1.65,-9.69,10.19,-18.75,36.06,4.44,9.06,5.56,-0.08879401123813252,-0.1544211159432346,-0.07195667009872507,-154.89643727544527,-21.952257310852513,3.5414428939599265,-0.1006,-0.9761,-0.1904,0.0309
258,1518077.0,1495.191234,1.0,-0.96,1.44,-9.77,10.19,-18.75,35.69,5.5,2.0,3.5,-0.14827608825461536,-0.3418091058285099,-0.10845366747744124,-154.89643727544527,-22.01062364188303,3.3924056518954067,-0.0991,-0.9761,-0.1909,0.0296
259,1518077.0,1495.191234,1.0,-0.96,1.44,-9.77,10.19,-18.75,35.69,5.5,2.0,3.5,-0.14827608825461536,-0.3418091058285099,-0.10845366747744124,-154.89643727544527,-22.01062364188303,3.3924056518954067,-0.0991,-0.9761,-0.1909,0.0296
260,1518114.0,1495.1944449999999,1.0,-0.59,1.5,-9.89,9.88,-18.75,37.38,-2.13,12.13,6.69,0.1724791473357744,-0.4281435183449107,-0.2032023501315248,-154.9492208405226,-22.057320868979353,3.1058114852451255,-0.0986,-0.9762,-0.1913,0.0271
261,1518114.0,1495.1944449999999,1.0,-0.59,1.5,-9.89,9.88,-18.75,37.38,-2.13,12.13,6.69,0.1724791473357744,-0.4281435183449107,-0.2032023501315248,-154.9492208405226,-22.057320868979353,3.1058114852451255,-0.0986,-0.9762,-0.1913,0.0271
262,1518149.0,1495.234049,1.0,-0.68,2.34,-9.59,9.88,-18.75,37.38,-4.75,3.0,8.63,0.3584118074625909,0.4145119636557579,-0.07291582083735547,-155.10823234547746,-21.823871652385925,2.8994758203914888,-0.0997,-0.9765,-0.1893,0.0253
263,1518149.0,1495.234049,1.0,-0.68,2.34,-9.59,9.88,-18.75,37.38,-4.75,3.0,8.63,0.3584118074625909,0.4145119636557579,-0.07291582083735547,-155.10823234547746,-21.823871652385925,2.8994758203914888,-0.0997,-0.9765,-0.1893,0.0253
264,1518184.0,1495.248971,1.0,-0.62,1.65,-9.59,9.88,-18.75,37.75,3.38,6.0,7.38,0.13724855792822924,-0.1986811177260968,0.058999583268503734,-155.32181611488016,-21.742186134206424,2.7619239753850606,-0.0981,-0.9769,-0.1886,0.0241
265,1518184.0,1495.248971,1.0,-0.62,1.65,-9.59,9.88,-18.75,37.75,3.38,6.0,7.38,0.13724855792822924,-0.1986811177260968,0.058999583268503734,-155.32181611488016,-21.742186134206424,2.7619239753850606,-0.0981,-0.9769,-0.1886,0.0241
266,1518219.0,1495.2530160000001,1.0,-0.46,1.46,-9.67,9.06,-18.75,36.56,0.56,10.31,8.81,0.15083439850654828,-0.4212519605393471,0.026471281286884363,-155.5372354443148,-21.56718332965744,2.372214704126748,-0.0975,-0.9773,-0.1871,0.0207
267,1518219.0,1495.2530160000001,1.0,-0.46,1.46,-9.67,9.06,-18.75,36.56,0.56,10.31,8.81,0.15083439850654828,-0.4212519605393471,0.026471281286884363,-155.5372354443148,-21.56718332965744,2.372214704126748,-0.0975,-0.9773,-0.1871,0.0207
268,1518256.0,1495.256169,1.0,-0.88,1.83,-9.52,8.0,-19.19,37.69,-2.56,6.5,12.06,-0.1430251092609821,0.0951979705616195,0.07401514788919883,-155.80916562137492,-21.24064723466595,2.1773706400327653,-0.0979,-0.9778,-0.1843,0.019
269,1518256.0,1495.256169,1.0,-0.88,1.83,-9.52,8.0,-19.19,37.69,-2.56,6.5,12.06,-0.1430251092609821,0.0951979705616195,0.07401514788919883,-155.80916562137492,-21.24064723466595,2.1773706400327653,-0.0979,-0.9778,-0.1843,0.019
270,1518288.0,1495.296372,1.0,0.19,-2.15,-14.03,8.0,-19.19,37.69,7.56,20.37,16.56,-0.6572794058662623,-4.8947317946104345,-3.5015837085525323,-156.19500732541925,-20.623036118505983,1.8106219718873997,-0.1013,-0.9785,-0.179,0.0158
271,1518288.0,1495.296372,1.0,0.19,-2.15,-14.03,8.0,-19.19,37.69,7.56,20.37,16.56,-0.6572794058662623,-4.8947317946104345,-3.5015837085525323,-156.19500732541925,-20.623036118505983,1.8106219718873997,-0.1013,-0.9785,-0.179,0.0158
272,1518325.0,1495.313813,1.0,0.31,2.5,-10.72,8.0,-18.75,39.0,1.31,12.06,0.88,1.116740285267955,-0.08380931159363247,-1.1482743326711269,-156.19500732541925,-20.378490735265764,1.9137679978932431,-0.105,-0.9785,-0.1769,0.0167
273,1518325.0,1495.313813,1.0,0.31,2.5,-10.72,8.0,-18.75,39.0,1.31,12.06,0.88,1.116740285267955,-0.08380931159363247,-1.1482743326711269,-156.19500732541925,-20.378490735265764,1.9137679978932431,-0.105,-0.9785,-0.1769,0.0167
274,1518362.0,1495.357508,1.0,-1.45,2.12,-8.97,8.38,-19.56,36.88,-6.0,-3.94,13.88,-0.6561840622379922,0.5418563537933883,0.5150616444862504,-156.5307030363511,-19.95948754584176,1.9825328715837252,-0.1046,-0.9791,-0.1733,0.0173
275,1518362.0,1495.357508,1.0,-1.45,2.12,-8.97,8.38,-19.56,36.88,-6.0,-3.94,13.88,-0.6561840622379922,0.5418563537933883,0.5150616444862504,-156.5307030363511,-19.95948754584176,1.9825328715837252,-0.1046,-0.9791,-0.1733,0.0173
276,1518397.0,1495.373765,1.0,-1.18,-0.14,-9.32,8.38,-19.56,36.88,-7.56,-14.44,27.25,-1.1796972633659883,-1.7194924938295095,0.6455332596418284,-156.98580474112185,-19.43611171140661,1.94815034703792,-0.1053,-0.9799,-0.1688,0.017
277,1518397.0,1495.373765,1.0,-1.18,-0.14,-9.32,8.38,-19.56,36.88,-7.56,-14.44,27.25,-1.1796972633659883,-1.7194924938295095,0.6455332596418284,-156.98580474112185,-19.43611171140661,1.94815034703792,-0.1053,-0.9799,-0.1688,0.017
278,1518430.0,1495.455198,1.0,-0.84,6.18,-11.92,7.19,-19.19,37.88,1.5,-57.19,7.81,1.417511285032202,3.3451824132026062,-3.146527848667345,-157.56748354792904,-18.30932175034793,3.2204467196467967,-0.1081,-0.9809,-0.1591,0.0281
279,1518430.0,1495.455198,1.0,-0.84,6.18,-11.92,7.19,-19.19,37.88,1.5,-57.19,7.81,1.417511285032202,3.3451824132026062,-3.146527848667345,-157.56748354792904,-18.30932175034793,3.2204467196467967,-0.1081,-0.9809,-0.1591,0.0281
280,1518467.0,1495.46498,1.0,0.62,1.33,-10.18,8.38,-20.25,37.75,5.94,-23.31,17.56,1.3131237224852843,-1.1741376025407781,-0.3266025370557202,-157.98368078519854,-17.90319186690899,3.701951248377608,-0.1062,-0.9816,-0.1556,0.0323
281,1518467.0,1495.46498,1.0,0.62,1.33,-10.18,8.38,-20.25,37.75,5.94,-23.31,17.56,1.3131237224852843,-1.1741376025407781,-0.3266025370557202,-157.98368078519854,-17.90319186690899,3.701951248377608,-0.1062,-0.9816,-0.1556,0.0323
282,1518501.0,1495.5052150000001,1.0,-0.39,2.74,-10.58,8.0,-19.87,37.75,15.31,-52.88,23.06,1.124873653071156,0.3372176462940366,-1.0661161394722465,-158.4690600176697,-16.894639006068054,5.536926565771378,-0.105,-0.9824,-0.1469,0.0483
283,1518501.0,1495.5052150000001,1.0,-0.39,2.74,-10.58,8.0,-19.87,37.75,15.31,-52.88,23.06,1.124873653071156,0.3372176462940366,-1.0661161394722465,-158.4690600176697,-16.894639006068054,5.536926565771378,-0.105,-0.9824,-0.1469,0.0483
284,1518536.0,1495.567557,1.0,-1.11,-0.93,-12.44,8.0,-19.87,37.75,88.25,-45.38,6.06,-0.08237520090819739,-3.0522003393738464,-2.3394558539188424,-159.09143242656367,-16.396650200988272,7.361841150905901,-0.0918,-0.9834,-0.1426,0.0642
285,1518536.0,1495.567557,1.0,-1.11,-0.93,-12.44,8.0,-19.87,37.75,88.25,-45.38,6.06,-0.08237520090819739,-3.0522003393738464,-2.3394558539188424,-159.09143242656367,-16.396650200988272,7.361841150905901,-0.0918,-0.9834,-0.1426,0.0642
286,1518573.0,1495.588213,1.0,0.24,2.82,-15.42,9.06,-19.87,37.38,11.19,-44.38,15.94,3.0072355432002773,-0.42007114039934135,-5.574067623853461,-159.3455716366145,-15.470980940849387,8.935735653853007,-0.0893,-0.9838,-0.1346,0.0779
287,1518573.0,1495.588213,1.0,0.24,2.82,-15.42,9.06,-19.87,37.38,11.19,-44.38,15.94,3.0072355432002773,-0.42007114039934135,-5.574067623853461,-159.3455716366145,-15.470980940849387,8.935735653853007,-0.0893,-0.9838,-0.1346,0.0779
288,1518610.0,1495.594123,1.0,-1.1,1.23,-15.05,11.0,-18.37,36.88,31.81,-63.19,12.38,1.740254387164495,-1.4528245520037055,-5.16285952733756,-159.0283735374385,-14.962299399917931,10.787532942523713,-0.0851,-0.9833,-0.1302,0.094
289,1518610.0,1495.594123,1.0,-1.1,1.23,-15.05,11.0,-18.37,36.88,31.81,-63.19,12.38,1.740254387164495,-1.4528245520037055,-5.16285952733756,-159.0283735374385,-14.962299399917931,10.787532942523713,-0.0851,-0.9833,-0.1302,0.094
290,1518643.0,1495.631797,1.0,-1.1,-1.07,-13.56,11.0,-18.37,36.88,16.37,-88.19,43.25,1.651903783230325,-3.3313260463985266,-3.3235434739567338,-158.4690600176697,-13.51876311679545,13.865006554805131,-0.0808,-0.9824,-0.1177,0.1207
291,1518643.0,1495.631797,1.0,-1.1,-1.07,-13.56,11.0,-18.37,36.88,16.37,-88.19,43.25,1.651903783230325,-3.3313260463985266,-3.3235434739567338,-158.4690600176697,-13.51876311679545,13.865006554805131,-0.0808,-0.9824,-0.1177,0.1207
292,1518678.0,1495.6864859999998,1.0,1.04,-0.49,-13.01,12.5,-16.87,37.75,3.25,-89.75,48.0,4.44566102476452,-3.1796814247298064,-2.0553702364571063,-157.1587733939545,-11.501374957383893,17.137959104392678,-0.0839,-0.9802,-0.1002,0.149
293,1518678.0,1495.6864859999998,1.0,1.04,-0.49,-13.01,12.5,-16.87,37.75,3.25,-89.75,48.0,4.44566102476452,-3.1796814247298064,-2.0553702364571063,-157.1587733939545,-11.501374957383893,17.137959104392678,-0.0839,-0.9802,-0.1002,0.149
294,1518716.0,1495.7021539999998,1.0,1.24,-3.89,-8.44,13.56,-16.87,38.19,16.75,-95.19,85.87,3.15346244807752,-5.5533046725026365,2.942264972706929,-156.0841409493743,-9.200123661166053,19.784982749875187,-0.0833,-0.9783,-0.0802,0.1718
295,1518716.0,1495.7021539999998,1.0,1.24,-3.89,-8.44,13.56,-16.87,38.19,16.75,-95.19,85.87,3.15346244807752,-5.5533046725026365,2.942264972706929,-156.0841409493743,-9.200123661166053,19.784982749875187,-0.0833,-0.9783,-0.0802,0.1718
296,1518751.0,1495.743682,1.0,0.7,-0.43,-5.78,13.56,-16.87,38.19,-30.25,-100.12,136.81,2.799261564678136,-1.6572635274523972,4.9588760476491105,-153.8627830260387,-4.137654318321577,23.015443848374385,-0.1006,-0.9741,-0.0361,0.1995
297,1518751.0,1495.743682,1.0,0.7,-0.43,-5.78,13.56,-16.87,38.19,-30.25,-100.12,136.81,2.799261564678136,-1.6572635274523972,4.9588760476491105,-153.8627830260387,-4.137654318321577,23.015443848374385,-0.1006,-0.9741,-0.0361,0.1995
298,1518786.0,1495.811442,1.0,-0.03,2.84,-3.29,15.38,-16.56,34.88,-45.38,-68.0,138.31,1.4920148902940904,1.9882786721951096,6.241367474191596,-151.57882322936237,-0.1833465726697912,24.725463298356363,-0.1201,-0.9694,-0.0016,0.2141
299,1518786.0,1495.811442,1.0,-0.03,2.84,-3.29,15.38,-16.56,34.88,-45.38,-68.0,138.31,1.4920148902940904,1.9882786721951096,6.241367474191596,-151.57882322936237,-0.1833465726697912,24.725463298356363,-0.1201,-0.9694,-0.0016,0.2141
300,1518823.0,1495.81477,1.0,0.46,4.34,-3.75,15.06,-18.75,34.06,-9.63,-14.13,115.0,1.9678497988336163,3.2925234394922764,5.5175292777977845,-149.63651807466178,4.573417240623146,25.28886585104528,-0.1378,-0.9651,0.0399,0.2189
301,1518823.0,1495.81477,1.0,0.46,4.34,-3.75,15.06,-18.75,34.06,-9.63,-14.13,115.0,1.9678497988336163,3.2925234394922764,5.5175292777977845,-149.63651807466178,4.573417240623146,25.28886585104528,-0.1378,-0.9651,0.0399,0.2189
302,1518858.0,1495.855378,1.0,-0.4,1.67,-1.42,13.88,-20.75,32.25,-11.63,25.5,112.31,0.13396191340176825,1.1505654642656649,7.9030866787004745,-149.0298356031949,7.9016186202083185,24.631622257728548,-0.1451,-0.9637,0.0689,0.2133
303,1518858.0,1495.855378,1.0,-0.4,1.67,-1.42,13.88,-20.75,32.25,-11.63,25.5,112.31,0.13396191340176825,1.1505654642656649,7.9030866787004745,-149.0298356031949,7.9016186202083185,24.631622257728548,-0.1451,-0.9637,0.0689,0.2133
304,1518893.0,1495.921282,1.0,0.0,1.13,-1.38,13.88,-20.75,32.25,-66.81,80.0,133.06,0.3948810819230997,0.645982444052189,8.191696250471672,-148.26644461114088,11.881504040605064,21.695513718287586,-0.1691,-0.9619,0.1035,0.1882
305,1518893.0,1495.921282,1.0,0.0,1.13,-1.38,13.88,-20.75,32.25,-66.81,80.0,133.06,0.3948810819230997,0.645982444052189,8.191696250471672,-148.26644461114088,11.881504040605064,21.695513718287586,-0.1691,-0.9619,0.1035,0.1882
306,1518929.0,1495.939394,1.0,-0.48,6.62,-2.56,10.88,-22.75,32.69,-31.0,91.69,127.06,-0.8941673843834338,4.873486834288158,4.701947191341605,-147.1943287474599,15.702300646279072,17.601642377536205,-0.1941,-0.9593,0.1366,0.153
307,1518929.0,1495.939394,1.0,-0.48,6.62,-2.56,10.88,-22.75,32.69,-31.0,91.69,127.06,-0.8941673843834338,4.873486834288158,4.701947191341605,-147.1943287474599,15.702300646279072,17.601642377536205,-0.1941,-0.9593,0.1366,0.153
308,1518966.0,1495.978227,1.0,0.93,5.27,-4.75,6.38,-23.56,31.69,23.62,140.94,107.12,0.854636046660187,3.262254087152039,3.4957391704438683,-147.72605283657722,17.996001378555594,13.103434321670449,-0.1996,-0.9606,0.1564,0.1141
309,1518966.0,1495.978227,1.0,0.93,5.27,-4.75,6.38,-23.56,31.69,23.62,140.94,107.12,0.854636046660187,3.262254087152039,3.4957391704438683,-147.72605283657722,17.996001378555594,13.103434321670449,-0.1996,-0.9606,0.1564,0.1141
310,1519001.0,1496.037067,1.0,-1.38,4.19,-2.33,6.38,-23.56,31.69,-37.13,196.44,107.75,-2.2209463996105514,2.065684185059921,5.8456216060535136,-146.5113892939378,20.378490735265764,5.491036825631306,-0.2221,-0.9576,0.1769,0.0479
311,1519001.0,1496.037067,1.0,-1.38,4.19,-2.33,6.38,-23.56,31.69,-37.13,196.44,107.75,-2.2209463996105514,2.065684185059921,5.8456216060535136,-146.5113892939378,20.378490735265764,5.491036825631306,-0.2221,-0.9576,0.1769,0.0479
312,1519036.0,1496.102893,1.0,-0.6,8.34,-5.12,-0.5,-24.87,32.75,-13.19,190.69,88.81,-3.1209518772112057,4.197462042523828,1.5138234745200683,-144.388983618951,21.462206102543455,-0.5615008861828721,-0.2424,-0.9521,0.1862,-0.0049
313,1519036.0,1496.102893,1.0,-0.6,8.34,-5.12,-0.5,-24.87,32.75,-13.19,190.69,88.81,-3.1209518772112057,4.197462042523828,1.5138234745200683,-144.388983618951,21.462206102543455,-0.5615008861828721,-0.2424,-0.9521,0.1862,-0.0049
314,1519073.0,1496.120414,1.0,2.14,5.91,-7.48,-9.19,-25.0,30.75,83.62,305.63,85.62,-1.27088524122539,1.7178811570447188,0.2729290562180697,-141.95828650840244,22.022297601396428,-11.927589126675839,-0.2427,-0.9454,0.191,-0.1039
315,1519073.0,1496.120414,1.0,2.14,5.91,-7.48,-9.19,-25.0,30.75,83.62,305.63,85.62,-1.27088524122539,1.7178811570447188,0.2729290562180697,-141.95828650840244,22.022297601396428,-11.927589126675839,-0.2427,-0.9454,0.191,-0.1039
316,1519110.0,1496.12606,1.0,3.13,3.09,-8.04,-17.75,-23.69,28.69,-17.62,200.25,92.62,-0.4319670593851471,-0.7785053707302463,0.6855791282574568,-138.4562899093435,22.840057573731933,-19.273367657733324,-0.2419,-0.935,0.198,-0.1674
317,1519110.0,1496.12606,1.0,3.13,3.09,-8.04,-17.75,-23.69,28.69,-17.62,200.25,92.62,-0.4319670593851471,-0.7785053707302463,0.6855791282574568,-138.4562899093435,22.840057573731933,-19.273367657733324,-0.2419,-0.935,0.198,-0.1674
318,1519144.0,1496.1738599999999,1.0,2.24,4.43,-5.44,-17.75,-23.69,28.69,-31.81,241.5,80.19,-2.251471179383726,0.8535127020411553,2.846873164794803,-131.31561745343842,23.705831329603118,-28.068278987313843,-0.2626,-0.9111,0.2054,-0.2425
319,1519144.0,1496.1738599999999,1.0,2.24,4.43,-5.44,-17.75,-23.69,28.69,-31.81,241.5,80.19,-2.251471179383726,0.8535127020411553,2.846873164794803,-131.31561745343842,23.705831329603118,-28.068278987313843,-0.2626,-0.9111,0.2054,-0.2425
320,1519179.0,1496.1930869999999,1.0,7.73,6.23,-9.92,-25.0,-22.06,23.5,-28.62,113.12,58.31,-1.674091200466972,0.2314200944135565,-4.125904087188058,-125.67114640173416,24.58470803246293,-34.087279935508434,-0.2778,-0.8897,0.2129,-0.2931
321,1519179.0,1496.1930869999999,1.0,7.73,6.23,-9.92,-25.0,-22.06,23.5,-28.62,113.12,58.31,-1.674091200466972,0.2314200944135565,-4.125904087188058,-125.67114640173416,24.58470803246293,-34.087279935508434,-0.2778,-0.8897,0.2129,-0.2931
322,1519216.0,1496.24262,1.0,7.18,6.36,-10.81,-30.69,-20.75,19.5,24.0,101.94,64.44,-3.322648687938329,-0.4807033351811487,-4.249915369964578,-123.18829850358513,25.265378432632104,-37.301660334972226,-0.2759,-0.8796,0.2187,-0.3198
323,1519216.0,1496.24262,1.0,7.18,6.36,-10.81,-30.69,-20.75,19.5,24.0,101.94,64.44,-3.322648687938329,-0.4807033351811487,-4.249915369964578,-123.18829850358513,25.265378432632104,-37.301660334972226,-0.2759,-0.8796,0.2187,-0.3198
324,1519253.0,1496.261396,1.0,6.58,5.93,-9.26,-30.69,-20.75,19.5,44.88,176.63,55.44,-4.1925748587305645,-0.12350200878618578,-2.301857889404303,-118.7680354914018,25.018825462277388,-44.04862567408432,-0.268,-0.8606,0.2166,-0.375
325,1519253.0,1496.261396,1.0,6.58,5.93,-9.26,-30.69,-20.75,19.5,44.88,176.63,55.44,-4.1925748587305645,-0.12350200878618578,-2.301857889404303,-118.7680354914018,25.018825462277388,-44.04862567408432,-0.268,-0.8606,0.2166,-0.375
326,1519288.0,1496.308096,1.0,16.38,7.71,-16.24,-33.0,-19.25,16.25,3.75,359.19,24.75,-6.019322044624988,-2.88328326364163,-13.580109924040265,-111.9308545002648,23.331277218076693,-52.69317728708804,-0.2744,-0.8287,0.2022,-0.4438
327,1519288.0,1496.308096,1.0,16.38,7.71,-16.24,-33.0,-19.25,16.25,3.75,359.19,24.75,-6.019322044624988,-2.88328326364163,-13.580109924040265,-111.9308545002648,23.331277218076693,-52.69317728708804,-0.2744,-0.8287,0.2022,-0.4438
328,1519325.0,1496.3264570000001,1.0,10.72,3.55,-12.87,-36.25,-17.06,11.75,-57.0,116.44,25.44,-6.066073673430506,-5.194940678005677,-5.338419875722436,-106.56632775318519,21.987276416568136,-58.87843997243265,-0.2819,-0.8016,0.1907,-0.4915
329,1519325.0,1496.3264570000001,1.0,10.72,3.55,-12.87,-36.25,-17.06,11.75,-57.0,116.44,25.44,-6.066073673430506,-5.194940678005677,-5.338419875722436,-106.56632775318519,21.987276416568136,-58.87843997243265,-0.2819,-0.8016,0.1907,-0.4915
330,1519360.0,1496.370244,1.0,7.97,8.6,-6.02,-38.25,-17.06,6.5,39.88,142.31,-22.75,-6.109145024614147,2.589470400962478,-1.5816900946218464,-103.33043920857978,21.100756747738608,-62.22230638887762,-0.2904,-0.7844,0.1831,-0.5167
331,1519360.0,1496.370244,1.0,7.97,8.6,-6.02,-38.25,-17.06,6.5,39.88,142.31,-22.75,-6.109145024614147,2.589470400962478,-1.5816900946218464,-103.33043920857978,21.100756747738608,-62.22230638887762,-0.2904,-0.7844,0.1831,-0.5167
332,1519394.0,1496.3786929999999,1.0,12.56,2.6,-6.98,-38.25,-17.06,6.5,125.75,130.44,-38.94,-2.628223861344875,-3.092618328781392,-4.2205432761740616,-100.67186484879734,15.852692930840096,-68.08393507833873,-0.2738,-0.7698,0.1379,-0.5598
333,1519394.0,1496.3786929999999,1.0,12.56,2.6,-6.98,-38.25,-17.06,6.5,125.75,130.44,-38.94,-2.628223861344875,-3.092618328781392,-4.2205432761740616,-100.67186484879734,15.852692930840096,-68.08393507833873,-0.2738,-0.7698,0.1379,-0.5598
334,1519429.0,1496.4434130000002,1.0,10.15,0.49,-6.09,-38.19,-17.06,2.0,52.69,-25.81,-28.44,-1.6535852558861863,-4.024534160966478,-1.2124008025296698,-101.75523946512085,13.830376539145913,-68.12542738094108,-0.2645,-0.7758,0.1204,-0.5601
335,1519429.0,1496.4434130000002,1.0,10.15,0.49,-6.09,-38.19,-17.06,2.0,52.69,-25.81,-28.44,-1.6535852558861863,-4.024534160966478,-1.2124008025296698,-101.75523946512085,13.830376539145913,-68.12542738094108,-0.2645,-0.7758,0.1204,-0.5601
336,1519466.0,1496.46034,1.0,7.95,3.49,-3.06,-37.0,-17.87,2.0,18.37,-2.63,-9.13,-1.333256933508742,0.4064021224334462,0.7070091683994201,-102.39305734069332,13.461068017168213,-67.75236088092288,-0.2614,-0.7793,0.1172,-0.5574
337,1519466.0,1496.46034,1.0,7.95,3.49,-3.06,-37.0,-17.87,2.0,18.37,-2.63,-9.13,-1.333256933508742,0.4064021224334462,0.7070091683994201,-102.39305734069332,13.461068017168213,-67.75236088092288,-0.2614,-0.7793,0.1172,-0.5574
338,1519503.0,1496.5057980000001,1.0,8.67,2.51,-3.02,-37.0,-17.87,2.0,37.88,25.37,-16.0,-0.632933677220979,-0.5203735813817032,0.3241394518361034,-102.30167093062992,12.042810329741009,-68.4993168665412,-0.2562,-0.7788,0.1049,-0.5628
339,1519503.0,1496.5057980000001,1.0,8.67,2.51,-3.02,-37.0,-17.87,2.0,37.88,25.37,-16.0,-0.632933677220979,-0.5203735813817032,0.3241394518361034,-102.30167093062992,12.042810329741009,-68.4993168665412,-0.2562,-0.7788,0.1049,-0.5628
340,1519536.0,1496.524916,1.0,9.33,2.0,-2.23,-36.5,-19.37,1.75,14.63,-39.69,-5.19,0.585659930226365,-0.584087590894871,0.04255023953616721,-103.14587806891129,11.512892133606984,-68.0148037838229,-0.2517,-0.7834,0.1003,-0.5593
341,1519536.0,1496.524916,1.0,9.33,2.0,-2.23,-36.5,-19.37,1.75,14.63,-39.69,-5.19,0.585659930226365,-0.584087590894871,0.04255023953616721,-103.14587806891129,11.512892133606984,-68.0148037838229,-0.2517,-0.7834,0.1003,-0.5593
342,1519572.0,1496.569175,1.0,9.48,2.97,-2.24,-37.25,-20.06,1.75,-14.69,-35.13,-4.25,0.4360090138470202,0.2956738182995302,-0.3634715889003175,-104.37102298797173,11.962154211464537,-66.50092772303125,-0.2535,-0.79,0.1042,-0.5483
343,1519572.0,1496.569175,1.0,9.48,2.97,-2.24,-37.25,-20.06,1.75,-14.69,-35.13,-4.25,0.4360090138470202,0.2956738182995302,-0.3634715889003175,-104.37102298797173,11.962154211464537,-66.50092772303125,-0.2535,-0.79,0.1042,-0.5483
344,1519607.0,1496.630405,1.0,8.78,3.79,-1.64,-35.75,-20.87,3.75,-20.12,-38.38,-10.63,0.453511251162745,1.4088814162705872,0.2175165302877229,-105.23498190512574,12.400074265032766,-65.25839194352429,-0.2573,-0.7946,0.10800000000000001,-0.5392
345,1519607.0,1496.630405,1.0,8.78,3.79,-1.64,-35.75,-20.87,3.75,-20.12,-38.38,-10.63,0.453511251162745,1.4088814162705872,0.2175165302877229,-105.23498190512574,12.400074265032766,-65.25839194352429,-0.2573,-0.7946,0.10800000000000001,-0.5392
346,1519642.0,1496.648136,1.0,8.58,4.01,-1.88,-35.75,-20.87,3.75,-2.06,-21.69,-13.06,0.25305320763461125,1.4908757954120948,0.2701855903374657,-106.12661834568745,12.365495103087909,-64.15961512656168,-0.2597,-0.7993,0.1077,-0.5311
347,1519642.0,1496.648136,1.0,8.58,4.01,-1.88,-35.75,-20.87,3.75,-2.06,-21.69,-13.06,0.25305320763461125,1.4908757954120948,0.2701855903374657,-106.12661834568745,12.365495103087909,-64.15961512656168,-0.2597,-0.7993,0.1077,-0.5311
348,1519679.0,1496.692166,1.0,8.39,2.72,-2.03,-36.88,-20.56,4.06,30.69,-31.37,-11.44,0.7936686780428736,0.4014159984231567,0.7999660805042303,-107.27847580775386,11.881504040605064,-63.33648650708331,-0.2553,-0.8053,0.1035,-0.525
349,1519679.0,1496.692166,1.0,8.39,2.72,-2.03,-36.88,-20.56,4.06,30.69,-31.37,-11.44,0.7936686780428736,0.4014159984231567,0.7999660805042303,-107.27847580775386,11.881504040605064,-63.33648650708331,-0.2553,-0.8053,0.1035,-0.525
350,1519716.0,1496.708466,1.0,9.13,2.19,-2.96,-34.88,-21.25,5.0,24.62,-11.56,-10.31,0.7549216054541686,-0.5409144641141395,0.006032421901636553,-108.44628015323634,11.167427069301608,-62.65108786966293,-0.249,-0.8113,0.0973,-0.5199
351,1519716.0,1496.708466,1.0,9.13,2.19,-2.96,-34.88,-21.25,5.0,24.62,-11.56,-10.31,0.7549216054541686,-0.5409144641141395,0.006032421901636553,-108.44628015323634,11.167427069301608,-62.65108786966293,-0.249,-0.8113,0.0973,-0.5199
352,1519751.0,1496.764691,1.0,8.68,2.2,-2.9,-34.88,-21.25,5.0,13.5,-6.63,-3.5,0.6645530035261829,-0.4260698500805268,0.42745846829767054,-108.97720765299681,10.8450849117299,-62.35619623181861,-0.24600000000000002,-0.8140000000000001,0.0945,-0.5177
353,1519751.0,1496.764691,1.0,8.68,2.2,-2.9,-34.88,-21.25,5.0,13.5,-6.63,-3.5,0.6645530035261829,-0.4260698500805268,0.42745846829767054,-108.97720765299681,10.8450849117299,-62.35619623181861,-0.24600000000000002,-0.8140000000000001,0.0945,-0.5177
354,1519783.0,1496.8066720000002,1.0,8.93,2.61,-3.76,-35.25,-21.25,5.0,13.5,-26.19,-2.13,0.03168440371218728,-0.458837963867083,-0.2174740924818828,-109.7303356928047,10.68394626499923,-61.78113721204743,-0.2426,-0.8178,0.0931,-0.5134
355,1519783.0,1496.8066720000002,1.0,8.93,2.61,-3.76,-35.25,-21.25,5.0,13.5,-26.19,-2.13,0.03168440371218728,-0.458837963867083,-0.2174740924818828,-109.7303356928047,10.68394626499923,-61.78113721204743,-0.2426,-0.8178,0.0931,-0.5134
356,1519820.0,1496.828067,1.0,8.19,2.34,-3.27,-35.75,-21.69,5.38,14.19,-6.0,2.38,0.25516682713729755,-0.30509750254526113,0.6914755417534995,-110.24971070475245,10.971708923508501,-61.31433804552232,-0.2404,-0.8204,0.0956,-0.5099
357,1519820.0,1496.828067,1.0,8.19,2.34,-3.27,-35.75,-21.69,5.38,14.19,-6.0,2.38,0.25516682713729755,-0.30509750254526113,0.6914755417534995,-110.24971070475245,10.971708923508501,-61.31433804552232,-0.2404,-0.8204,0.0956,-0.5099
358,1519855.0,1496.84275,1.0,9.21,3.0,-4.8,-35.75,-22.06,5.38,7.13,-2.88,3.38,-0.7744281827491689,-0.5526023899664392,-0.9617756782673316,-110.10954773943891,11.38620958683243,-61.34098184227653,-0.2408,-0.8197,0.0992,-0.5101
359,1519855.0,1496.84275,1.0,9.21,3.0,-4.8,-35.75,-22.06,5.38,7.13,-2.88,3.38,-0.7744281827491689,-0.5526023899664392,-0.9617756782673316,-110.10954773943891,11.38620958683243,-61.34098184227653,-0.2408,-0.8197,0.0992,-0.5101
360,1519890.0,1496.938173,1.0,7.82,2.52,-3.56,-35.75,-22.06,5.38,12.75,-2.88,8.44,-0.23256841059142006,-0.14999081252149327,0.8568000185447726,-110.43028252227127,11.432274343860266,-61.30101752415778,-0.2357,-0.8213,0.0996,-0.5098
361,1519890.0,1496.938173,1.0,7.82,2.52,-3.56,-35.75,-22.06,5.38,12.75,-2.88,8.44,-0.23256841059142006,-0.14999081252149327,0.8568000185447726,-110.43028252227127,11.432274343860266,-61.30101752415778,-0.2357,-0.8213,0.0996,-0.5098
362,1519927.0,1496.9555699999999,1.0,8.44,2.42,-3.83,-36.88,-20.87,7.75,-1.37,42.38,6.44,-0.2812264950492321,-0.4549537308187887,0.24250713399803026,-109.45205367310278,11.639588800101585,-62.22230638887762,-0.237,-0.8164,0.1014,-0.5167
363,1519927.0,1496.9555699999999,1.0,8.44,2.42,-3.83,-36.88,-20.87,7.75,-1.37,42.38,6.44,-0.2812264950492321,-0.4549537308187887,0.24250713399803026,-109.45205367310278,11.639588800101585,-62.22230638887762,-0.237,-0.8164,0.1014,-0.5167
364,1519962.0,1496.9595140000001,1.0,9.14,2.77,-4.11,-36.5,-20.87,7.75,-11.25,12.38,-0.31,-0.4669612790899419,-0.4172589551788681,-0.5718104893092768,-108.54434186923865,12.00824269100582,-62.838986778788296,-0.2412,-0.8118,0.1046,-0.5213
365,1519962.0,1496.9595140000001,1.0,9.14,2.77,-4.11,-36.5,-20.87,7.75,-11.25,12.38,-0.31,-0.4669612790899419,-0.4172589551788681,-0.5718104893092768,-108.54434186923865,12.00824269100582,-62.838986778788296,-0.2412,-0.8118,0.1046,-0.5213
366,1519996.0,1497.003588,1.0,8.89,3.51,-4.14,-36.5,-20.87,7.75,-19.62,17.44,3.25,-0.9750737757756248,0.16202548133093142,-0.5622833528186106,-108.01618391845108,12.353968967121856,-63.05395914548726,-0.2454,-0.8091,0.1076,-0.5229
367,1519996.0,1497.003588,1.0,8.89,3.51,-4.14,-36.5,-20.87,7.75,-19.62,17.44,3.25,-0.9750737757756248,0.16202548133093142,-0.5622833528186106,-108.01618391845108,12.353968967121856,-63.05395914548726,-0.2454,-0.8091,0.1076,-0.5229
368,1520031.0,1497.0646060000001,1.0,8.68,3.48,-3.59,-35.69,-21.25,6.19,-19.31,58.44,1.12,-0.8903694296011366,0.2506704066187988,-0.16758213215319984,-106.1456894229273,12.492290914481535,-64.5657923959142,-0.2528,-0.7994,0.1088,-0.5341
369,1520031.0,1497.0646060000001,1.0,8.68,3.48,-3.59,-35.69,-21.25,6.19,-19.31,58.44,1.12,-0.8903694296011366,0.2506704066187988,-0.16758213215319984,-106.1456894229273,12.492290914481535,-64.5657923959142,-0.2528,-0.7994,0.1088,-0.5341
370,1520068.0,1497.084803,1.0,10.27,2.03,-4.17,-36.5,-20.56,3.25,-21.44,10.31,8.0,-0.1874603704342389,-1.5237492845270713,-1.3569402257033742,-105.140661692498,13.126503557539667,-65.06800105005402,-0.2592,-0.7941,0.1143,-0.5378
371,1520068.0,1497.084803,1.0,10.27,2.03,-4.17,-36.5,-20.56,3.25,-21.44,10.31,8.0,-0.1874603704342389,-1.5237492845270713,-1.3569402257033742,-105.140661692498,13.126503557539667,-65.06800105005402,-0.2592,-0.7941,0.1143,-0.5378
372,1520103.0,1497.1282529999999,1.0,9.18,2.8,-3.1,-36.5,-20.56,3.25,-61.88,-52.56,19.25,-0.02223652570331458,-0.16827731655169376,-0.27767388817707683,-105.04644280430534,15.494110041456645,-63.605960216714145,-0.2723,-0.7936,0.1348,-0.527
373,1520103.0,1497.1282529999999,1.0,9.18,2.8,-3.1,-36.5,-20.56,3.25,-61.88,-52.56,19.25,-0.02223652570331458,-0.16827731655169376,-0.27767388817707683,-105.04644280430534,15.494110041456645,-63.605960216714145,-0.2723,-0.7936,0.1348,-0.527
374,1520138.0,1497.136011,1.0,8.28,4.79,-3.01,-36.5,-21.19,2.0,-36.63,-38.0,15.19,-1.2129620729574149,1.6085445135001473,-0.016990239628864146,-105.61328387022331,16.96415115593626,-62.08851089054388,-0.2787,-0.7966,0.1475,-0.5157
375,1520138.0,1497.136011,1.0,8.28,4.79,-3.01,-36.5,-21.19,2.0,-36.63,-38.0,15.19,-1.2129620729574149,1.6085445135001473,-0.016990239628864146,-105.61328387022331,16.96415115593626,-62.08851089054388,-0.2787,-0.7966,0.1475,-0.5157
376,1520173.0,1497.1953210000001,1.0,7.26,3.82,-1.93,-37.56,-19.37,3.69,-0.81,-25.75,7.25,-0.2864168526646623,1.6169385360557245,1.5405520597909879,-106.1456894229273,18.03080801097451,-61.07470873985765,-0.2799,-0.7994,0.1567,-0.5081
377,1520173.0,1497.1953210000001,1.0,7.26,3.82,-1.93,-37.56,-19.37,3.69,-0.81,-25.75,7.25,-0.2864168526646623,1.6169385360557245,1.5405520597909879,-106.1456894229273,18.03080801097451,-61.07470873985765,-0.2799,-0.7994,0.1567,-0.5081
378,1520207.0,1497.2167279999999,1.0,9.92,3.65,-5.16,-37.25,-19.37,3.25,14.94,11.56,1.44,-1.4127052781523333,-0.5606722487296993,-1.8571577156040624,-105.97420139443399,18.286108128329392,-61.15455226396579,-0.2802,-0.7985,0.1589,-0.5087
379,1520207.0,1497.2167279999999,1.0,9.92,3.65,-5.16,-37.25,-19.37,3.25,14.94,11.56,1.44,-1.4127052781523333,-0.5606722487296993,-1.8571577156040624,-105.97420139443399,18.286108128329392,-61.15455226396579,-0.2802,-0.7985,0.1589,-0.5087
380,1520242.0,1497.256331,1.0,8.26,2.67,-3.52,-37.25,-19.37,3.25,19.25,-6.13,11.63,-0.4640359480199472,-0.184729041997159,0.4526430607259026,-106.18384425288782,18.088822794467358,-61.52759147164257,-0.2725,-0.7996,0.1572,-0.5115
381,1520242.0,1497.256331,1.0,8.26,2.67,-3.52,-37.25,-19.37,3.25,19.25,-6.13,11.63,-0.4640359480199472,-0.184729041997159,0.4526430607259026,-106.18384425288782,18.088822794467358,-61.52759147164257,-0.2725,-0.7996,0.1572,-0.5115
382,1520279.0,1497.3037550000001,1.0,9.02,2.35,-3.97,-37.25,-19.5,4.19,8.0,18.19,2.75,-0.3701468261874396,-0.7362554866603472,-0.2911081267044597,-105.80305309851605,18.251289114029838,-61.88799370587642,-0.2725,-0.7976,0.1586,-0.5142
383,1520279.0,1497.3037550000001,1.0,9.02,2.35,-3.97,-37.25,-19.5,4.19,8.0,18.19,2.75,-0.3701468261874396,-0.7362554866603472,-0.2911081267044597,-105.80305309851605,18.251289114029838,-61.88799370587642,-0.2725,-0.7976,0.1586,-0.5142
384,1520316.0,1497.32186,1.0,9.29,3.23,-4.52,-37.25,-17.56,5.75,-5.25,-9.38,6.19,-1.1528859702912446,-0.36544317087523015,-0.9499621631472,-105.57537971529776,18.72729753587516,-61.84791552643628,-0.2741,-0.7964,0.1627,-0.5139
385,1520316.0,1497.32186,1.0,9.29,3.23,-4.52,-37.25,-17.56,5.75,-5.25,-9.38,6.19,-1.1528859702912446,-0.36544317087523015,-0.9499621631472,-105.57537971529776,18.72729753587516,-61.84791552643628,-0.2741,-0.7964,0.1627,-0.5139
386,1520349.0,1497.38293,1.0,7.96,2.09,-3.08,-37.25,-17.56,5.75,33.56,-1.25,23.06,-0.06908452275032456,-0.2627756669727971,1.0235824107369318,-105.86006493054606,18.855062255560348,-61.96817529160685,-0.2672,-0.7979,0.1638,-0.5148
387,1520349.0,1497.38293,1.0,7.96,2.09,-3.08,-37.25,-17.56,5.75,33.56,-1.25,23.06,-0.06908452275032456,-0.2627756669727971,1.0235824107369318,-105.86006493054606,18.855062255560348,-61.96817529160685,-0.2672,-0.7979,0.1638,-0.5148
388,1520384.0,1497.4008800000001,1.0,8.17,2.07,-3.23,-37.25,-19.06,5.0,4.44,19.12,16.06,-0.2121844226850651,-0.3173145639863878,0.7888348966475327,-105.31051129197044,19.215254308568724,-62.691336115096064,-0.2634,-0.795,0.1669,-0.5202
389,1520384.0,1497.4008800000001,1.0,8.17,2.07,-3.23,-37.25,-19.06,5.0,4.44,19.12,16.06,-0.2121844226850651,-0.3173145639863878,0.7888348966475327,-105.31051129197044,19.215254308568724,-62.691336115096064,-0.2634,-0.795,0.1669,-0.5202
390,1520418.0,1497.441722,1.0,9.03,3.27,-3.52,-38.0,-18.25,5.0,-23.0,12.44,1.0,-0.8155080074919361,0.3696631023093335,-0.38268245509770615,-104.48323564898183,19.72682480222871,-62.973315569507676,-0.2699,-0.7906,0.1713,-0.5223
391,1520418.0,1497.441722,1.0,9.03,3.27,-3.52,-38.0,-18.25,5.0,-23.0,12.44,1.0,-0.8155080074919361,0.3696631023093335,-0.38268245509770615,-104.48323564898183,19.72682480222871,-62.973315569507676,-0.2699,-0.7906,0.1713,-0.5223
392,1520455.0,1497.462733,1.0,8.74,3.3,-3.25,-36.88,-18.0,5.0,-6.19,0.81,6.19,-0.784351104045236,0.5325996618753333,-0.0392238030584835,-104.10974226118626,20.20387293870638,-62.95987835378689,-0.2732,-0.7886,0.1754,-0.5222
393,1520455.0,1497.462733,1.0,8.74,3.3,-3.25,-36.88,-18.0,5.0,-6.19,0.81,6.19,-0.784351104045236,0.5325996618753333,-0.0392238030584835,-104.10974226118626,20.20387293870638,-62.95987835378689,-0.2732,-0.7886,0.1754,-0.5222
