,TIME,ELAPSED_SECONDS,PSTATE,acc_x,acc_y,acc_z,mag_x,mag_y,mag_z,gyr_x,gyr_y,gyr_z,lin_x,lin_y,lin_z,eul_x,eul_y,eul_z,qua_w,qua_x,qua_y,qua_z
0,1681733.0,1659.0945199999999,1.0,9.13,3.22,1.15,-27.75,-18.87,-4.5,-1.0,-1.75,0.37,-0.1688217484201361,-0.03999906524761698,0.05894774295297368,-80.40634821732151,14.800508833176535,-81.15862069013602,-0.379,-0.6455,0.1288,-0.6505
1,1681733.0,1659.0945199999999,1.0,9.13,3.22,1.15,-27.75,-18.87,-4.5,-1.0,-1.75,0.37,-0.1688217484201361,-0.03999906524761698,0.05894774295297368,-80.40634821732151,14.800508833176535,-81.15862069013602,-0.379,-0.6455,0.1288,-0.6505
2,1681770.0,1659.181277,1.0,9.16,3.08,1.04,-27.37,-18.19,-4.5,2.63,-4.06,0.44,-0.13459067775844485,-0.1990172808118245,0.08986671171992988,-80.55646739590921,14.823619947246295,-81.03797395445109,-0.3785,-0.6465,0.129,-0.6497
3,1681770.0,1659.181277,1.0,9.16,3.08,1.04,-27.37,-18.19,-4.5,2.63,-4.06,0.44,-0.13459067775844485,-0.1990172808118245,0.08986671171992988,-80.55646739590921,14.823619947246295,-81.03797395445109,-0.3785,-0.6465,0.129,-0.6497
4,1681803.0,1659.1955890000002,1.0,9.03,3.22,1.13,-27.37,-18.19,-4.5,-1.25,-4.44,-0.75,-0.16354771738210938,0.011091890516397696,0.15474194438198907,-80.64661893327633,14.881400387429185,-80.93249704821434,-0.3784,-0.6471,0.1295,-0.649
5,1681803.0,1659.1955890000002,1.0,9.03,3.22,1.13,-27.37,-18.19,-4.5,-1.25,-4.44,-0.75,-0.16354771738210938,0.011091890516397696,0.15474194438198907,-80.64661893327633,14.881400387429185,-80.93249704821434,-0.3784,-0.6471,0.1295,-0.649
6,1681838.0,1659.244034,1.0,8.98,3.06,1.29,-28.87,-18.19,-4.06,3.56,-2.94,0.94,0.07327214050146247,0.040305307036334385,0.23266928790061314,-80.8120533305175,14.869843995469049,-80.85720708472816,-0.3777,-0.6482,0.1294,-0.6485
7,1681838.0,1659.244034,1.0,8.98,3.06,1.29,-28.87,-18.19,-4.06,3.56,-2.94,0.94,0.07327214050146247,0.040305307036334385,0.23266928790061314,-80.8120533305175,14.869843995469049,-80.85720708472816,-0.3777,-0.6482,0.1294,-0.6485
8,1681874.0,1659.255774,1.0,8.88,3.1,1.36,-28.87,-18.56,-5.69,-1.44,-3.25,0.06,0.09551241697842457,0.15635646905687262,0.3050485543074348,-80.87226170457619,14.916070477056891,-80.76691471699652,-0.3776,-0.6486,0.1298,-0.6479
9,1681874.0,1659.255774,1.0,8.88,3.1,1.36,-28.87,-18.56,-5.69,-1.44,-3.25,0.06,0.09551241697842457,0.15635646905687262,0.3050485543074348,-80.87226170457619,14.916070477056891,-80.76691471699652,-0.3776,-0.6486,0.1298,-0.6479
10,1681907.0,1659.2654539999999,1.0,8.94,3.12,1.19,-28.87,-18.56,-5.69,-1.31,-2.44,0.06,-0.030522034908899712,0.04442569484781567,0.263527095886154,-80.91743568101406,14.973857013009212,-80.7067534127589,-0.3779,-0.6489,0.1303,-0.6475
11,1681907.0,1659.2654539999999,1.0,8.94,3.12,1.19,-28.87,-18.56,-5.69,-1.31,-2.44,0.06,-0.030522034908899712,0.04442569484781567,0.263527095886154,-80.91743568101406,14.973857013009212,-80.7067534127589,-0.3779,-0.6489,0.1303,-0.6475
12,1681944.0,1659.268413,1.0,8.78,3.12,1.37,-27.75,-18.87,-4.88,-2.19,-2.38,-0.19,0.08677977188307895,0.21878906895186034,0.3915397715162641,-80.93249704821434,15.031647378904806,-80.63158949863124,-0.3782,-0.649,0.1308,-0.647
13,1681944.0,1659.268413,1.0,8.78,3.12,1.37,-27.75,-18.87,-4.88,-2.19,-2.38,-0.19,0.08677977188307895,0.21878906895186034,0.3915397715162641,-80.93249704821434,15.031647378904806,-80.63158949863124,-0.3782,-0.649,0.1308,-0.647
14,1681979.0,1659.308271,1.0,8.82,3.05,1.47,-28.06,-18.87,-4.88,-4.19,0.25,-1.31,0.20009797649760053,0.2088052164833132,0.3635487519263077,-80.8120533305175,15.066323443247011,-80.66165004119368,-0.3793,-0.6482,0.1311,-0.6472
15,1681979.0,1659.308271,1.0,8.82,3.05,1.47,-28.06,-18.87,-4.88,-4.19,0.25,-1.31,0.20009797649760053,0.2088052164833132,0.3635487519263077,-80.8120533305175,15.066323443247011,-80.66165004119368,-0.3793,-0.6482,0.1311,-0.6472
16,1682014.0,1659.373369,1.0,9.25,3.12,0.89,-28.06,-18.87,-4.88,-4.5,6.75,-0.25,-0.24284604145385816,-0.288465069369916,0.011405556704895405,-80.6165617364412,15.066323443247011,-80.76691471699652,-0.3802,-0.6469,0.1311,-0.6479
17,1682014.0,1659.373369,1.0,9.25,3.12,0.89,-28.06,-18.87,-4.88,-4.5,6.75,-0.25,-0.24284604145385816,-0.288465069369916,0.011405556704895405,-80.6165617364412,15.066323443247011,-80.76691471699652,-0.3802,-0.6469,0.1311,-0.6479
18,1682046.0,1659.391029,1.0,9.48,3.42,0.58,-27.75,-18.19,-5.25,-2.63,6.0,0.56,-0.6767062765247356,-0.3954515820032217,-0.25758800700297435,-80.34634707870403,15.077882439571027,-80.93249704821434,-0.3813,-0.6451,0.1312,-0.649
19,1682046.0,1659.391029,1.0,9.48,3.42,0.58,-27.75,-18.19,-5.25,-2.63,6.0,0.56,-0.6767062765247356,-0.3954515820032217,-0.25758800700297435,-80.34634707870403,15.077882439571027,-80.93249704821434,-0.3813,-0.6451,0.1312,-0.649
20,1682083.0,1659.39429,1.0,9.42,3.38,0.79,-28.0,-18.19,-4.88,4.88,2.56,2.5,-0.5126025719377842,-0.264972723574987,-0.21592093060478312,-80.31635645484546,15.02008899858815,-81.03797395445109,-0.3807,-0.6449,0.1307,-0.6497
21,1682083.0,1659.39429,1.0,9.42,3.38,0.79,-28.0,-18.19,-4.88,4.88,2.56,2.5,-0.5126025719377842,-0.264972723574987,-0.21592093060478312,-80.31635645484546,15.02008899858815,-81.03797395445109,-0.3807,-0.6449,0.1307,-0.6497
22,1682120.0,1659.4348539999999,1.0,9.35,3.16,0.94,-27.25,-19.25,-4.88,8.81,-3.88,1.69,-0.2310685418505174,-0.25291713033074315,-0.10164653644623024,-80.63158949863124,14.927627478593793,-80.94756010432137,-0.3783,-0.647,0.1299,-0.6491
23,1682120.0,1659.4348539999999,1.0,9.35,3.16,0.94,-27.25,-19.25,-4.88,8.81,-3.88,1.69,-0.2310685418505174,-0.25291713033074315,-0.10164653644623024,-80.63158949863124,14.927627478593793,-80.94756010432137,-0.3783,-0.647,0.1299,-0.6491
24,1682153.0,1659.451784,1.0,9.16,3.05,1.24,-27.25,-19.25,-4.88,4.56,-5.69,1.31,0.06234937378610544,-0.04526894475612941,0.07321467231485634,-80.8271028985237,14.916070477056891,-80.85720708472816,-0.3772,-0.6483,0.1298,-0.6485
25,1682153.0,1659.451784,1.0,9.16,3.05,1.24,-27.25,-19.25,-4.88,4.56,-5.69,1.31,0.06234937378610544,-0.04526894475612941,0.07321467231485634,-80.8271028985237,14.916070477056891,-80.85720708472816,-0.3772,-0.6483,0.1298,-0.6485
26,1682190.0,1659.494656,1.0,9.04,3.11,1.4,-28.06,-18.19,-5.25,1.69,-3.69,1.25,0.14596102651544995,0.16602965151551796,0.14720749364611765,-81.00782923439904,14.950741939900693,-80.75187187324588,-0.3762,-0.6495,0.1301,-0.6478
27,1682190.0,1659.494656,1.0,9.04,3.11,1.4,-28.06,-18.19,-5.25,1.69,-3.69,1.25,0.14596102651544995,0.16602965151551796,0.14720749364611765,-81.00782923439904,14.950741939900693,-80.75187187324588,-0.3762,-0.6495,0.1301,-0.6478
28,1682225.0,1659.512458,1.0,9.26,2.6,0.97,-28.06,-18.87,-5.69,6.69,-4.75,5.0,0.20336853395177834,-0.4995153957092264,0.15483019185771418,-81.2189848647937,14.962299399917931,-80.7067534127589,-0.3743,-0.6509,0.1302,-0.6475
29,1682225.0,1659.512458,1.0,9.26,2.6,0.97,-28.06,-18.87,-5.69,6.69,-4.75,5.0,0.20336853395177834,-0.4995153957092264,0.15483019185771418,-81.2189848647937,14.962299399917931,-80.7067534127589,-0.3743,-0.6509,0.1302,-0.6475
30,1682259.0,1659.557687,1.0,8.95,3.1,1.1,-28.06,-18.87,-5.69,-5.56,-13.31,2.5,-0.04378320981085215,0.0908533032460872,0.2718543174576631,-81.50608810294752,15.239724647140953,-80.46637592020761,-0.3729,-0.6528,0.1326,-0.6459
31,1682259.0,1659.557687,1.0,8.95,3.1,1.1,-28.06,-18.87,-5.69,-5.56,-13.31,2.5,-0.04378320981085215,0.0908533032460872,0.2718543174576631,-81.50608810294752,15.239724647140953,-80.46637592020761,-0.3729,-0.6528,0.1326,-0.6459
32,1682294.0,1659.6049699999999,1.0,8.98,2.75,1.12,-28.0,-18.56,-2.88,-3.0,-9.25,6.13,0.22044006646475625,-0.10115861497203847,0.35157342116078105,-81.70288473795871,15.447852474357363,-80.2863724526912,-0.3721,-0.6541,0.1344,-0.6447
33,1682294.0,1659.6049699999999,1.0,8.98,2.75,1.12,-28.0,-18.56,-2.88,-3.0,-9.25,6.13,0.22044006646475625,-0.10115861497203847,0.35157342116078105,-81.70288473795871,15.447852474357363,-80.2863724526912,-0.3721,-0.6541,0.1344,-0.6447
34,1682331.0,1659.6669570000001,1.0,8.71,3.15,1.44,-28.5,-17.75,-4.5,-5.19,-11.44,5.13,0.1768888923289154,0.5399159773715112,0.4505075760546689,-81.96067611888428,15.910543420989347,-79.94203028891886,-0.3716,-0.6558,0.1384,-0.6424
35,1682331.0,1659.6669570000001,1.0,8.71,3.15,1.44,-28.5,-17.75,-4.5,-5.19,-11.44,5.13,0.1768888923289154,0.5399159773715112,0.4505075760546689,-81.96067611888428,15.910543420989347,-79.94203028891886,-0.3716,-0.6558,0.1384,-0.6424
36,1682366.0,1659.685263,1.0,8.63,2.75,1.4,-28.5,-17.75,-4.5,-0.5,-12.25,1.06,0.4246793601416424,0.30472639784996125,0.6564484031212121,-82.18855815257656,16.13041264048083,-79.6731491009361,-0.3713,-0.6573,0.1403,-0.6406
37,1682366.0,1659.685263,1.0,8.63,2.75,1.4,-28.5,-17.75,-4.5,-0.5,-12.25,1.06,0.4246793601416424,0.30472639784996125,0.6564484031212121,-82.18855815257656,16.13041264048083,-79.6731491009361,-0.3713,-0.6573,0.1403,-0.6406
38,1682401.0,1659.705317,1.0,8.66,3.11,1.01,-28.06,-17.37,-3.69,-4.25,-3.56,2.06,-0.08256794069308387,0.3144050288632827,0.5555888709729526,-82.32547723365738,16.396650200988272,-79.43458474445285,-0.3717,-0.6582,0.1426,-0.639
39,1682401.0,1659.705317,1.0,8.66,3.11,1.01,-28.06,-17.37,-3.69,-4.25,-3.56,2.06,-0.08256794069308387,0.3144050288632827,0.5555888709729526,-82.32547723365738,16.396650200988272,-79.43458474445285,-0.3717,-0.6582,0.1426,-0.639
40,1682436.0,1659.788865,1.0,9.26,2.9,0.67,-28.5,-17.75,-4.06,-3.63,-2.94,-1.31,-0.09997297068201703,-0.22340215144074627,0.08314256266728037,-82.34069929138175,16.524012627926176,-79.30057349706065,-0.3725,-0.6583,0.1437,-0.6381
41,1682436.0,1659.788865,1.0,9.26,2.9,0.67,-28.5,-17.75,-4.06,-3.63,-2.94,-1.31,-0.09997297068201703,-0.22340215144074627,0.08314256266728037,-82.34069929138175,16.524012627926176,-79.30057349706065,-0.3725,-0.6583,0.1437,-0.6381
42,1682472.0,1659.8033189999999,1.0,9.55,3.47,0.23,-29.25,-18.56,-3.69,-10.81,-11.81,-4.81,-0.7263623662964326,-0.20767287474981175,-0.32871233639042075,-82.46253949499255,16.755633464025784,-78.95868851235781,-0.3745,-0.6591,0.1457,-0.6358
43,1682472.0,1659.8033189999999,1.0,9.55,3.47,0.23,-29.25,-18.56,-3.69,-10.81,-11.81,-4.81,-0.7263623662964326,-0.20767287474981175,-0.32871233639042075,-82.46253949499255,16.755633464025784,-78.95868851235781,-0.3745,-0.6591,0.1457,-0.6358
44,1682507.0,1659.814439,1.0,9.36,3.13,0.4,-29.25,-18.56,-3.69,-3.0,-14.63,-5.44,-0.3193561134826397,-0.23929031011771215,-0.06286122499311197,-82.87459184999501,16.940979741891212,-78.32175344327142,-0.3761,-0.6618,0.1473,-0.6315
45,1682507.0,1659.814439,1.0,9.36,3.13,0.4,-29.25,-18.56,-3.69,-3.0,-14.63,-5.44,-0.3193561134826397,-0.23929031011771215,-0.06286122499311197,-82.87459184999501,16.940979741891212,-78.32175344327142,-0.3761,-0.6618,0.1473,-0.6315
46,1682544.0,1659.860383,1.0,10.16,3.66,-1.0,-27.69,-17.06,-2.0,-7.94,-20.69,-9.13,-1.4574267033020916,-1.0383904934303874,-0.8900248378949733,-83.33396753816719,17.137959104392678,-77.64355736158599,-0.3779,-0.6648,0.149,-0.6269
47,1682544.0,1659.860383,1.0,10.16,3.66,-1.0,-27.69,-17.06,-2.0,-7.94,-20.69,-9.13,-1.4574267033020916,-1.0383904934303874,-0.8900248378949733,-83.33396753816719,17.137959104392678,-77.64355736158599,-0.3779,-0.6648,0.149,-0.6269
48,1682579.0,1659.876979,1.0,9.83,3.16,0.08,-29.25,-17.75,-2.75,14.69,-62.06,-7.44,-0.0985673848799441,-0.3403520308289054,-0.5130081806641531,-85.18817401740314,17.520477052231193,-75.80214927173115,-0.3761,-0.6768,0.1523,-0.6143
49,1682579.0,1659.876979,1.0,9.83,3.16,0.08,-29.25,-17.75,-2.75,14.69,-62.06,-7.44,-0.0985673848799441,-0.3403520308289054,-0.5130081806641531,-85.18817401740314,17.520477052231193,-75.80214927173115,-0.3761,-0.6768,0.1523,-0.6143
50,1682614.0,1659.9611710000001,1.0,9.34,3.51,-0.15,-29.25,-17.75,-2.75,-9.69,-62.13,-20.75,-0.3217438762565388,-0.01189168438802235,-0.16704236872352496,-86.67586147437744,18.07721946422553,-73.84009584056888,-0.3787,-0.6863,0.1571,-0.6007
51,1682614.0,1659.9611710000001,1.0,9.34,3.51,-0.15,-29.25,-17.75,-2.75,-9.69,-62.13,-20.75,-0.3217438762565388,-0.01189168438802235,-0.16704236872352496,-86.67586147437744,18.07721946422553,-73.84009584056888,-0.3787,-0.6863,0.1571,-0.6007
52,1682649.0,1659.97221,1.0,9.51,3.94,-0.65,-28.5,-18.87,-2.38,-8.0,-54.94,-10.19,-0.6087286428745214,0.054348007700960384,-0.4895966818449473,-88.45354239097509,18.72729753587516,-71.66250640989891,-0.3799,-0.6975,0.1627,-0.5854
53,1682649.0,1659.97221,1.0,9.51,3.94,-0.65,-28.5,-18.87,-2.38,-8.0,-54.94,-10.19,-0.6087286428745214,0.054348007700960384,-0.4895966818449473,-88.45354239097509,18.72729753587516,-71.66250640989891,-0.3799,-0.6975,0.1627,-0.5854
54,1682685.0,1660.017476,1.0,11.0,5.16,-3.21,-28.87,-19.25,0.37,13.69,-73.94,-36.69,-2.3770297810858216,-1.1823597804705148,-2.47673124334488,-90.3072214419173,18.855062255560348,-69.51439870357002,-0.3814,-0.7090000000000001,0.1638,-0.5701
55,1682685.0,1660.017476,1.0,11.0,5.16,-3.21,-28.87,-19.25,0.37,13.69,-73.94,-36.69,-2.3770297810858216,-1.1823597804705148,-2.47673124334488,-90.3072214419173,18.855062255560348,-69.51439870357002,-0.3814,-0.7090000000000001,0.1638,-0.5701
56,1682722.0,1660.033341,1.0,12.27,4.73,-4.75,-28.5,-19.69,2.88,12.38,-119.19,-35.13,-1.9048678011342772,-2.4793640933134617,-3.820988546461004,-93.89021932509144,18.88991127772655,-65.84443673875893,-0.3792,-0.7307,0.1641,-0.5435
57,1682722.0,1660.033341,1.0,12.27,4.73,-4.75,-28.5,-19.69,2.88,12.38,-119.19,-35.13,-1.9048678011342772,-2.4793640933134617,-3.820988546461004,-93.89021932509144,18.88991127772655,-65.84443673875893,-0.3792,-0.7307,0.1641,-0.5435
58,1682757.0,1660.083301,1.0,11.26,4.81,-4.59,-28.5,-19.69,2.88,15.5,-172.38,-30.87,-1.004388493458825,-1.4169424231958605,-3.1538776869252314,-99.40561118069314,20.064212846329454,-59.90739833750701,-0.3724,-0.7627,0.1742,-0.4993
59,1682757.0,1660.083301,1.0,11.26,4.81,-4.59,-28.5,-19.69,2.88,15.5,-172.38,-30.87,-1.004388493458825,-1.4169424231958605,-3.1538776869252314,-99.40561118069314,20.064212846329454,-59.90739833750701,-0.3724,-0.7627,0.1742,-0.4993
60,1682794.0,1660.107588,1.0,9.18,5.03,-3.86,-27.37,-21.06,5.25,6.56,-198.19,-32.88,-0.7120145126976549,0.03018252575431957,-1.3273081618060285,-104.05385291977898,21.33392533931821,-54.46469598924939,-0.3674,-0.7883,0.1851,-0.4576
61,1682794.0,1660.107588,1.0,9.18,5.03,-3.86,-27.37,-21.06,5.25,6.56,-198.19,-32.88,-0.7120145126976549,0.03018252575431957,-1.3273081618060285,-104.05385291977898,21.33392533931821,-54.46469598924939,-0.3674,-0.7883,0.1851,-0.4576
62,1682829.0,1660.1127960000001,1.0,8.86,6.38,-4.51,-27.5,-21.75,10.69,-1.12,-194.31,-33.69,-0.9251271070130236,1.2232434779148926,-1.9062452539330932,-110.02956467321043,23.109005518751957,-47.1938685290374,-0.3584,-0.8193,0.2003,-0.4003
63,1682829.0,1660.1127960000001,1.0,8.86,6.38,-4.51,-27.5,-21.75,10.69,-1.12,-194.31,-33.69,-0.9251271070130236,1.2232434779148926,-1.9062452539330932,-110.02956467321043,23.109005518751957,-47.1938685290374,-0.3584,-0.8193,0.2003,-0.4003
64,1682864.0,1660.166181,1.0,7.91,6.16,-5.51,-27.5,-21.75,10.69,51.75,-193.31,-32.19,-0.9949527703223742,1.0315145667462513,-1.5432331132050925,-115.12990385023735,23.998630403703213,-41.84440708007335,-0.342,-0.8440000000000001,0.2079,-0.3571
65,1682864.0,1660.166181,1.0,7.91,6.16,-5.51,-27.5,-21.75,10.69,51.75,-193.31,-32.19,-0.9949527703223742,1.0315145667462513,-1.5432331132050925,-115.12990385023735,23.998630403703213,-41.84440708007335,-0.342,-0.8440000000000001,0.2079,-0.3571
66,1682898.0,1660.203826,1.0,8.31,3.6,-6.75,-25.0,-23.0,16.06,78.25,-188.75,-29.37,1.3175497809148924,-0.46123567168519,-1.401825553346951,-122.11362560713808,24.467440757791284,-35.35993976529708,-0.3115,-0.8751,0.2119,-0.3037
67,1682898.0,1660.203826,1.0,8.31,3.6,-6.75,-25.0,-23.0,16.06,78.25,-188.75,-29.37,1.3175497809148924,-0.46123567168519,-1.401825553346951,-122.11362560713808,24.467440757791284,-35.35993976529708,-0.3115,-0.8751,0.2119,-0.3037
68,1682935.0,1660.264495,1.0,7.78,4.7,-7.63,-22.06,-23.0,20.75,33.69,-233.13,-16.19,0.9413520124769428,0.5229285201032683,-2.0117975355889417,-126.9655039569828,25.617803632217928,-29.55902139879445,-0.2916,-0.8948,0.2217,-0.2551
69,1682935.0,1660.264495,1.0,7.78,4.7,-7.63,-22.06,-23.0,20.75,33.69,-233.13,-16.19,0.9413520124769428,0.5229285201032683,-2.0117975355889417,-126.9655039569828,25.617803632217928,-29.55902139879445,-0.2916,-0.8948,0.2217,-0.2551
70,1682972.0,1660.2829570000001,1.0,5.21,4.68,-6.47,-17.75,-23.69,26.87,48.88,-276.69,-11.63,0.5376552714433994,1.6813645210517856,0.4369466879181605,-133.50255170239728,27.666855466190324,-20.157316215575328,-0.2607,-0.9188,0.2391,-0.175
71,1682972.0,1660.2829570000001,1.0,5.21,4.68,-6.47,-17.75,-23.69,26.87,48.88,-276.69,-11.63,0.5376552714433994,1.6813645210517856,0.4369466879181605,-133.50255170239728,27.666855466190324,-20.157316215575328,-0.2607,-0.9188,0.2391,-0.175
72,1683007.0,1660.2882730000001,1.0,3.81,4.21,-8.46,-17.75,-23.69,26.87,32.56,-221.94,-19.62,0.4140926224171225,0.7587517615019501,-0.3454248157446784,-138.26285199839916,29.10890564472929,-11.869983070722633,-0.2303,-0.9344,0.2513,-0.1034
73,1683007.0,1660.2882730000001,1.0,3.81,4.21,-8.46,-17.75,-23.69,26.87,32.56,-221.94,-19.62,0.4140926224171225,0.7587517615019501,-0.3454248157446784,-138.26285199839916,29.10890564472929,-11.869983070722633,-0.2303,-0.9344,0.2513,-0.1034
74,1683044.0,1660.327874,1.0,0.8,0.94,-6.69,-12.88,-22.19,30.75,54.5,-206.81,-11.0,0.21089806467008296,-1.6721437374009749,3.2158111059145784,-141.02009032147248,29.8198276164604,-6.420486066048695,-0.205,-0.9427,0.2573,-0.055999999999999994
75,1683044.0,1660.327874,1.0,0.8,0.94,-6.69,-12.88,-22.19,30.75,54.5,-206.81,-11.0,0.21089806467008296,-1.6721437374009749,3.2158111059145784,-141.02009032147248,29.8198276164604,-6.420486066048695,-0.205,-0.9427,0.2573,-0.055999999999999994
76,1683081.0,1660.385788,1.0,-0.57,2.08,-7.78,-5.88,-22.19,35.19,6.19,-158.63,-9.13,-0.8250569786075279,-1.3778803684995464,1.89460685855072,-142.24057734218397,30.793329976755963,-0.4010712754482724,-0.1849,-0.9462,0.2655,-0.0035
77,1683081.0,1660.385788,1.0,-0.57,2.08,-7.78,-5.88,-22.19,35.19,6.19,-158.63,-9.13,-0.8250569786075279,-1.3778803684995464,1.89460685855072,-142.24057734218397,30.793329976755963,-0.4010712754482724,-0.1849,-0.9462,0.2655,-0.0035
78,1683116.0,1660.4012109999999,1.0,-0.51,1.02,-9.21,-5.88,-22.19,35.19,33.38,-132.5,-7.38,0.3851385389639761,-2.276818711640844,0.8181926874169959,-142.70368938881398,31.257132968636736,3.2089830530311807,-0.1698,-0.9475,0.2694,0.027999999999999997
79,1683116.0,1660.4012109999999,1.0,-0.51,1.02,-9.21,-5.88,-22.19,35.19,33.38,-132.5,-7.38,0.3851385389639761,-2.276818711640844,0.8181926874169959,-142.70368938881398,31.257132968636736,3.2089830530311807,-0.1698,-0.9475,0.2694,0.027999999999999997
80,1683148.0,1660.4526019999998,1.0,-1.96,0.41,-7.64,-2.06,-21.87,35.75,21.81,-124.0,6.19,-0.2607183347600568,-2.6223048109600366,2.361192094112964,-142.4180463131718,32.25789123557385,7.557060298129735,-0.1494,-0.9467,0.2778,0.0659
81,1683148.0,1660.4526019999998,1.0,-1.96,0.41,-7.64,-2.06,-21.87,35.75,21.81,-124.0,6.19,-0.2607183347600568,-2.6223048109600366,2.361192094112964,-142.4180463131718,32.25789123557385,7.557060298129735,-0.1494,-0.9467,0.2778,0.0659
82,1683185.0,1660.496056,1.0,-1.84,1.35,-7.76,2.19,-20.37,35.56,13.13,-75.19,19.25,-0.3515005133344673,-1.6519594913640072,1.896329069214831,-141.5733981273395,33.15356371555689,9.660046657878476,-0.141,-0.9443,0.2853,0.0842
83,1683185.0,1660.496056,1.0,-1.84,1.35,-7.76,2.19,-20.37,35.56,13.13,-75.19,19.25,-0.3515005133344673,-1.6519594913640072,1.896329069214831,-141.5733981273395,33.15356371555689,9.660046657878476,-0.141,-0.9443,0.2853,0.0842
84,1683222.0,1660.550654,1.0,-1.83,1.75,-7.29,3.88,-20.06,37.06,8.13,-47.31,25.06,-0.4560360162345251,-1.0405499088966257,2.17351256910095,-140.40650617828152,34.435022863600715,11.558962006616273,-0.1306,-0.9409,0.29600000000000004,0.1007
85,1683222.0,1660.550654,1.0,-1.83,1.75,-7.29,3.88,-20.06,37.06,8.13,-47.31,25.06,-0.4560360162345251,-1.0405499088966257,2.17351256910095,-140.40650617828152,34.435022863600715,11.558962006616273,-0.1306,-0.9409,0.29600000000000004,0.1007
86,1683257.0,1660.567998,1.0,-1.72,1.69,-6.75,3.88,-20.06,37.06,22.94,-37.63,24.37,-0.4017588193686849,-0.8206947485351265,2.697356787536025,-139.63551670559374,35.31183406453793,12.434654560583265,-0.1236,-0.9386,0.3033,0.1083
87,1683257.0,1660.567998,1.0,-1.72,1.69,-6.75,3.88,-20.06,37.06,22.94,-37.63,24.37,-0.4017588193686849,-0.8206947485351265,2.697356787536025,-139.63551670559374,35.31183406453793,12.434654560583265,-0.1236,-0.9386,0.3033,0.1083
88,1683294.0,1660.6282130000002,1.0,-2.26,2.91,-5.99,4.88,-20.87,36.5,24.06,-32.13,28.31,-1.6503169204871786,0.004482435318378997,2.9705521386665827,-138.48861330559185,36.60091053338324,13.299539926123945,-0.1161,-0.9351,0.314,0.1158
89,1683294.0,1660.6282130000002,1.0,-2.26,2.91,-5.99,4.88,-20.87,36.5,24.06,-32.13,28.31,-1.6503169204871786,0.004482435318378997,2.9705521386665827,-138.48861330559185,36.60091053338324,13.299539926123945,-0.1161,-0.9351,0.314,0.1158
90,1683329.0,1660.631142,1.0,-2.0,2.67,-6.07,5.19,-19.37,36.88,24.81,-8.81,8.63,-1.306178816906849,0.032359529433487084,3.0046907411453363,-138.1664535645985,37.192829183479816,13.47260676237266,-0.1095,-0.9341,0.3189,0.1173
91,1683329.0,1660.631142,1.0,-2.0,2.67,-6.07,5.19,-19.37,36.88,24.81,-8.81,8.63,-1.306178816906849,0.032359529433487084,3.0046907411453363,-138.1664535645985,37.192829183479816,13.47260676237266,-0.1095,-0.9341,0.3189,0.1173
92,1683363.0,1660.670928,1.0,-1.2,2.41,-6.94,5.19,-19.37,36.88,28.25,20.81,-2.69,-0.4207586545072943,0.2829720739201069,2.380036440642102,-138.585728177911,37.313754836919216,12.711338126294773,-0.1024,-0.9354,0.3199,0.1107
93,1683363.0,1660.670928,1.0,-1.2,2.41,-6.94,5.19,-19.37,36.88,28.25,20.81,-2.69,-0.4207586545072943,0.2829720739201069,2.380036440642102,-138.585728177911,37.313754836919216,12.711338126294773,-0.1024,-0.9354,0.3199,0.1107
94,1683398.0,1660.7321539999998,1.0,-1.04,0.71,-7.14,5.5,-18.69,38.0,39.06,25.94,-7.0,0.5339788820649763,-0.8926738417253983,2.6314635936543187,-139.5028685781741,37.07194645139856,11.37469368630907,-0.0938,-0.9382,0.3179,0.0991
95,1683398.0,1660.7321539999998,1.0,-1.04,0.71,-7.14,5.5,-18.69,38.0,39.06,25.94,-7.0,0.5339788820649763,-0.8926738417253983,2.6314635936543187,-139.5028685781741,37.07194645139856,11.37469368630907,-0.0938,-0.9382,0.3179,0.0991
96,1683435.0,1660.736129,1.0,0.37,1.33,-8.68,5.38,-18.69,39.19,13.75,23.06,7.0,1.5176588335825971,0.2579254407945997,1.1534201907415174,-139.83527593342114,37.05986053192884,10.476799088278916,-0.0927,-0.9392,0.3178,0.0913
97,1683435.0,1660.736129,1.0,0.37,1.33,-8.68,5.38,-18.69,39.19,13.75,23.06,7.0,1.5176588335825971,0.2579254407945997,1.1534201907415174,-139.83527593342114,37.05986053192884,10.476799088278916,-0.0927,-0.9392,0.3178,0.0913
98,1683470.0,1660.75306,1.0,-0.96,1.86,-6.95,5.38,-18.69,39.19,11.13,9.81,12.19,-0.3226122037236507,0.054019760246692194,2.555670532954774,-139.63551670559374,37.543632473884564,9.80955486143351,-0.0903,-0.9386,0.3218,0.0855
99,1683470.0,1660.75306,1.0,-0.96,1.86,-6.95,5.38,-18.69,39.19,11.13,9.81,12.19,-0.3226122037236507,0.054019760246692194,2.555670532954774,-139.63551670559374,37.543632473884564,9.80955486143351,-0.0903,-0.9386,0.3218,0.0855
100,1683505.0,1660.795564,1.0,1.66,2.53,-10.16,5.0,-17.25,38.75,5.56,34.75,-0.88,1.8520283392168533,1.7371811153330448,-0.4857886227593262,-139.83527593342114,37.56783922201158,8.717364176475899,-0.0917,-0.9392,0.322,0.076
101,1683505.0,1660.795564,1.0,1.66,2.53,-10.16,5.0,-17.25,38.75,5.56,34.75,-0.88,1.8520283392168533,1.7371811153330448,-0.4857886227593262,-139.83527593342114,37.56783922201158,8.717364176475899,-0.0917,-0.9392,0.322,0.076
102,1683539.0,1660.852979,1.0,3.22,0.62,-9.79,5.0,-17.56,39.19,44.94,56.06,13.06,3.756123068591538,1.2684760841074296,0.27358082383003257,-140.17034192327273,37.87057079932817,6.627085616027942,-0.0856,-0.9402,0.3245,0.0578
103,1683539.0,1660.852979,1.0,3.22,0.62,-9.79,5.0,-17.56,39.19,44.94,56.06,13.06,3.756123068591538,1.2684760841074296,0.27358082383003257,-140.17034192327273,37.87057079932817,6.627085616027942,-0.0856,-0.9402,0.3245,0.0578
104,1683574.0,1660.870519,1.0,2.26,1.98,-11.82,2.25,-16.87,40.0,18.75,29.5,34.75,2.2564432277154527,1.421810456979277,-2.094077666177453,-139.5691405181039,38.719689385129655,5.4336758888612415,-0.0852,-0.9384,0.3315,0.0474
105,1683574.0,1660.870519,1.0,2.26,1.98,-11.82,2.25,-16.87,40.0,18.75,29.5,34.75,2.2564432277154527,1.421810456979277,-2.094077666177453,-139.5691405181039,38.719689385129655,5.4336758888612415,-0.0852,-0.9384,0.3315,0.0474
106,1683609.0,1660.9140519999999,1.0,2.44,0.19,-12.72,2.25,-16.87,40.0,60.13,22.37,45.5,3.1356258508194226,0.26264790710710234,-2.7586580583233324,-138.5533323833026,40.314760397567724,3.6560909909367436,-0.0733,-0.9353,0.3446,0.0319
107,1683609.0,1660.9140519999999,1.0,2.44,0.19,-12.72,2.25,-16.87,40.0,60.13,22.37,45.5,3.1356258508194226,0.26264790710710234,-2.7586580583233324,-138.5533323833026,40.314760397567724,3.6560909909367436,-0.0733,-0.9353,0.3446,0.0319
108,1683646.0,1660.93154,1.0,2.42,2.63,-10.84,1.19,-15.75,40.0,-16.5,27.5,20.31,1.2331825090306814,2.1359723937234163,-1.3376661671173071,-138.585728177911,40.253732215798784,2.7619239753850606,-0.0782,-0.9354,0.3441,0.0241
109,1683646.0,1660.93154,1.0,2.42,2.63,-10.84,1.19,-15.75,40.0,-16.5,27.5,20.31,1.2331825090306814,2.1359723937234163,-1.3376661671173071,-138.585728177911,40.253732215798784,2.7619239753850606,-0.0782,-0.9354,0.3441,0.0241
110,1683683.0,1660.973483,1.0,1.38,1.99,-7.33,1.19,-14.56,41.5,-1.75,42.75,5.38,0.4199825621174442,1.2754052762328616,2.2046531551654374,-139.40365501423122,39.278884517127096,1.5126525087430307,-0.0854,-0.9379,0.3361,0.0132
111,1683683.0,1660.973483,1.0,1.38,1.99,-7.33,1.19,-14.56,41.5,-1.75,42.75,5.38,0.4199825621174442,1.2754052762328616,2.2046531551654374,-139.40365501423122,39.278884517127096,1.5126525087430307,-0.0854,-0.9379,0.3361,0.0132
112,1683718.0,1661.038003,1.0,2.12,1.99,-13.3,1.19,-14.56,41.5,26.31,71.87,4.31,1.0195738543367985,0.6663397267025231,-3.752883934622199,-139.43670037409964,39.266717795122325,-0.5958787923837214,-0.0855,-0.938,0.336,-0.0052
113,1683718.0,1661.038003,1.0,2.12,1.99,-13.3,1.19,-14.56,41.5,26.31,71.87,4.31,1.0195738543367985,0.6663397267025231,-3.752883934622199,-139.43670037409964,39.266717795122325,-0.5958787923837214,-0.0855,-0.938,0.336,-0.0052
114,1683750.0,1661.057825,1.0,1.52,-3.82,-10.03,-0.75,-15.38,40.69,79.0,62.25,3.38,3.3846313322996413,-3.540551216669618,0.1364655226203233,-140.74624891732873,38.197829443298346,-3.793673550039814,-0.0681,-0.9419,0.3272,-0.0331
115,1683750.0,1661.057825,1.0,1.52,-3.82,-10.03,-0.75,-15.38,40.69,79.0,62.25,3.38,3.3846313322996413,-3.540551216669618,0.1364655226203233,-140.74624891732873,38.197829443298346,-3.793673550039814,-0.0681,-0.9419,0.3272,-0.0331
116,1683787.0,1661.095284,1.0,0.5,0.58,-7.44,-2.56,-12.75,41.06,-4.19,50.13,54.19,-0.2604576414679247,-0.4770081979126733,2.347117508206355,-140.1367137765361,38.549690389311564,-5.238658808769412,-0.07200000000000001,-0.9401,0.3301,-0.0457
117,1683787.0,1661.095284,1.0,0.5,0.58,-7.44,-2.56,-12.75,41.06,-4.19,50.13,54.19,-0.2604576414679247,-0.4770081979126733,2.347117508206355,-140.1367137765361,38.549690389311564,-5.238658808769412,-0.07200000000000001,-0.9401,0.3301,-0.0457
118,1683824.0,1661.111024,1.0,1.72,4.06,-12.34,-3.75,-12.75,41.06,-43.0,30.81,7.69,-1.8281471606871755,1.6936887958164109,-3.0582983567481734,-139.30467314730421,38.780424772104546,-6.443440527613203,-0.0866,-0.9376,0.332,-0.0562
119,1683824.0,1661.111024,1.0,1.72,4.06,-12.34,-3.75,-12.75,41.06,-43.0,30.81,7.69,-1.8281471606871755,1.6936887958164109,-3.0582983567481734,-139.30467314730421,38.780424772104546,-6.443440527613203,-0.0866,-0.9376,0.332,-0.0562
120,1683857.0,1661.151801,1.0,1.78,3.35,-10.17,-3.75,-12.75,41.06,-0.31,22.25,-25.87,-1.3061326576254229,1.5059836256192414,-0.8632061752280045,-139.80191665328087,38.0038595239246,-7.247016388579905,-0.0905,-0.9391,0.3256,-0.0632
121,1683857.0,1661.151801,1.0,1.78,3.35,-10.17,-3.75,-12.75,41.06,-0.31,22.25,-25.87,-1.3061326576254229,1.5059836256192414,-0.8632061752280045,-139.80191665328087,38.0038595239246,-7.247016388579905,-0.0905,-0.9391,0.3256,-0.0632
122,1683896.0,1661.217298,1.0,1.73,1.9,-9.29,-6.0,-13.5,41.56,-5.56,58.63,-43.69,-0.4894872362791406,0.3629484518918407,0.1871037182469415,-141.6082344949301,35.56446095223015,-8.522006076442151,-0.0968,-0.9444,0.3054,-0.0743
123,1683896.0,1661.217298,1.0,1.73,1.9,-9.29,-6.0,-13.5,41.56,-5.56,58.63,-43.69,-0.4894872362791406,0.3629484518918407,0.1871037182469415,-141.6082344949301,35.56446095223015,-8.522006076442151,-0.0968,-0.9444,0.3054,-0.0743
124,1683931.0,1661.235372,1.0,5.0,-2.93,-11.85,-6.75,-14.25,39.88,32.94,87.62,-35.5,4.063162160066316,-2.659637286792229,-2.4581142767282618,-143.13615512462272,32.902567850463264,-11.766299745968876,-0.0958,-0.9487,0.2832,-0.1025
125,1683931.0,1661.235372,1.0,5.0,-2.93,-11.85,-6.75,-14.25,39.88,32.94,87.62,-35.5,4.063162160066316,-2.659637286792229,-2.4581142767282618,-143.13615512462272,32.902567850463264,-11.766299745968876,-0.0958,-0.9487,0.2832,-0.1025
126,1683965.0,1661.278404,1.0,0.39,3.35,-7.34,-6.75,-14.25,39.88,-38.44,39.19,-11.06,-2.595300690928345,1.0017090682584062,2.2230365297448245,-142.59632676400983,32.818938689500946,-12.296340166976414,-0.1073,-0.9472,0.2825,-0.1071
127,1683965.0,1661.278404,1.0,0.39,3.35,-7.34,-6.75,-14.25,39.88,-38.44,39.19,-11.06,-2.595300690928345,1.0017090682584062,2.2230365297448245,-142.59632676400983,32.818938689500946,-12.296340166976414,-0.1073,-0.9472,0.2825,-0.1071
128,1684000.0,1661.3099650000001,1.0,3.31,-0.21,-8.66,-7.88,-14.25,40.25,12.69,92.56,-26.5,1.1301445019026208,-1.083164366748889,0.6663366377883548,-143.02758111671002,30.57944178497209,-15.551935573755918,-0.1123,-0.9484,0.2637,-0.1353
129,1684000.0,1661.3099650000001,1.0,3.31,-0.21,-8.66,-7.88,-14.25,40.25,12.69,92.56,-26.5,1.1301445019026208,-1.083164366748889,0.6663366377883548,-143.02758111671002,30.57944178497209,-15.551935573755918,-0.1123,-0.9484,0.2637,-0.1353
130,1684035.0,1661.3418359999998,1.0,3.03,1.72,-9.99,-10.06,-14.56,39.0,-14.94,37.06,-23.81,-0.5528999064275055,-0.1774674881251087,-0.7575445733752488,-143.46374555627918,29.06155185997118,-16.871469682269606,-0.1179,-0.9496,0.2509,-0.1467
131,1684035.0,1661.3418359999998,1.0,3.03,1.72,-9.99,-10.06,-14.56,39.0,-14.94,37.06,-23.81,-0.5528999064275055,-0.1774674881251087,-0.7575445733752488,-143.46374555627918,29.06155185997118,-16.871469682269606,-0.1179,-0.9496,0.2509,-0.1467
132,1684072.0,1661.361674,1.0,2.68,-0.25,-9.02,-11.25,-14.56,36.06,11.31,30.62,-31.56,0.19794007886800769,-1.877437218907128,0.5848633393663913,-144.53918747848587,26.770798221316568,-18.019205613951,-0.1215,-0.9525,0.2315,-0.1566
133,1684072.0,1661.361674,1.0,2.68,-0.25,-9.02,-11.25,-14.56,36.06,11.31,30.62,-31.56,0.19794007886800769,-1.877437218907128,0.5848633393663913,-144.53918747848587,26.770798221316568,-18.019205613951,-0.1215,-0.9525,0.2315,-0.1566
134,1684107.0,1661.4024630000001,1.0,4.12,1.97,-11.01,-11.25,-14.56,36.06,-11.13,26.69,-36.81,-0.2540293404553489,-0.19365979058868896,-2.1086076547759536,-144.53918747848587,25.700071520307283,-18.93637938388069,-0.1274,-0.9525,0.2224,-0.1645
135,1684107.0,1661.4024630000001,1.0,4.12,1.97,-11.01,-11.25,-14.56,36.06,-11.13,26.69,-36.81,-0.2540293404553489,-0.19365979058868896,-2.1086076547759536,-144.53918747848587,25.700071520307283,-18.93637938388069,-0.1274,-0.9525,0.2224,-0.1645
136,1684144.0,1661.46616,1.0,4.39,1.59,-11.48,-11.56,-15.75,36.75,12.19,24.87,-26.62,-0.2048717912820508,-0.8705557624945542,-2.554205966053664,-145.4536804163923,22.699787605080815,-20.518219394705007,-0.1331,-0.9549,0.1968,-0.1781
137,1684144.0,1661.46616,1.0,4.39,1.59,-11.48,-11.56,-15.75,36.75,12.19,24.87,-26.62,-0.2048717912820508,-0.8705557624945542,-2.554205966053664,-145.4536804163923,22.699787605080815,-20.518219394705007,-0.1331,-0.9549,0.1968,-0.1781
138,1684180.0,1661.48442,1.0,5.52,1.41,-13.1,-12.75,-15.75,35.56,14.56,27.12,-39.19,0.21553616349805133,-1.2695483455041001,-4.420447074268253,-146.39227073603638,20.657978898652157,-21.31060447484913,-0.1315,-0.9573,0.1793,-0.1849
139,1684180.0,1661.48442,1.0,5.52,1.41,-13.1,-12.75,-15.75,35.56,14.56,27.12,-39.19,0.21553616349805133,-1.2695483455041001,-4.420447074268253,-146.39227073603638,20.657978898652157,-21.31060447484913,-0.1315,-0.9573,0.1793,-0.1849
140,1684215.0,1661.5303099999999,1.0,6.99,4.54,-16.41,-12.75,-15.75,35.56,3.38,49.5,-66.87,-0.8834651883422616,0.6029561090130517,-8.567672659395944,-146.7508698708792,18.51827857520288,-22.267504416511226,-0.1367,-0.9582,0.1609,-0.1931
141,1684215.0,1661.5303099999999,1.0,6.99,4.54,-16.41,-12.75,-15.75,35.56,3.38,49.5,-66.87,-0.8834651883422616,0.6029561090130517,-8.567672659395944,-146.7508698708792,18.51827857520288,-22.267504416511226,-0.1367,-0.9582,0.1609,-0.1931
142,1684248.0,1661.548654,1.0,4.67,3.12,-14.49,-12.5,-15.38,36.75,29.75,11.88,-52.56,-1.8849787785250276,-0.5414505269180172,-5.609480718549662,-148.5189029496625,14.881400387429185,-23.050527648721737,-0.1299,-0.9625,0.1295,-0.1998
143,1684248.0,1661.548654,1.0,4.67,3.12,-14.49,-12.5,-15.38,36.75,29.75,11.88,-52.56,-1.8849787785250276,-0.5414505269180172,-5.609480718549662,-148.5189029496625,14.881400387429185,-23.050527648721737,-0.1299,-0.9625,0.1295,-0.1998
144,1684285.0,1661.590698,1.0,5.96,1.32,-15.21,-12.06,-16.19,35.69,17.25,-15.56,-67.37,-0.4576839817394655,-2.080558805597831,-6.4435777039218225,-150.43438697810743,11.674144907935558,-23.038832805407413,-0.1223,-0.9669,0.1017,-0.1997
145,1684285.0,1661.590698,1.0,5.96,1.32,-15.21,-12.06,-16.19,35.69,17.25,-15.56,-67.37,-0.4576839817394655,-2.080558805597831,-6.4435777039218225,-150.43438697810743,11.674144907935558,-23.038832805407413,-0.1223,-0.9669,0.1017,-0.1997
146,1684322.0,1661.653415,1.0,5.38,3.21,-14.26,-11.69,-15.88,36.75,20.69,-1.44,-78.75,-0.8606129412280554,-0.19173489676678512,-5.743870348038282,-152.28767595523584,7.4192563007107175,-22.68809999960854,-0.1206,-0.9709,0.0647,-0.1967
147,1684322.0,1661.653415,1.0,5.38,3.21,-14.26,-11.69,-15.88,36.75,20.69,-1.44,-78.75,-0.8606129412280554,-0.19173489676678512,-5.743870348038282,-152.28767595523584,7.4192563007107175,-22.68809999960854,-0.1206,-0.9709,0.0647,-0.1967
148,1684357.0,1661.670699,1.0,3.45,3.11,-11.31,-11.69,-15.88,36.75,44.63,19.12,-70.62,-1.419968952835336,0.423750659555868,-2.3298578812444912,-153.2614432071201,5.078067932263361,-22.53618284114898,-0.1153,-0.9729,0.0443,-0.1954
149,1684357.0,1661.670699,1.0,3.45,3.11,-11.31,-11.69,-15.88,36.75,44.63,19.12,-70.62,-1.419968952835336,0.423750659555868,-2.3298578812444912,-153.2614432071201,5.078067932263361,-22.53618284114898,-0.1153,-0.9729,0.0443,-0.1954
150,1684393.0,1661.712549,1.0,3.43,2.47,-10.36,-10.19,-15.5,33.88,41.19,-24.75,-49.44,-1.01351232542603,0.2878352871794145,-1.332710107908527,-154.11739099299157,1.100095864564908,-23.097309457161245,-0.1,-0.9746,0.0096,-0.2002
151,1684393.0,1661.712549,1.0,3.43,2.47,-10.36,-10.19,-15.5,33.88,41.19,-24.75,-49.44,-1.01351232542603,0.2878352871794145,-1.332710107908527,-154.11739099299157,1.100095864564908,-23.097309457161245,-0.1,-0.9746,0.0096,-0.2002
152,1684430.0,1661.769844,1.0,2.67,2.46,-8.88,-8.38,-14.75,36.0,88.19,-44.75,-48.5,-0.8815186270316451,0.8095892573538624,0.2881212195332665,-155.591382770185,-2.2117544130994498,-22.150726459273766,-0.0858,-0.9774,-0.0193,-0.1921
153,1684430.0,1661.769844,1.0,2.67,2.46,-8.88,-8.38,-14.75,36.0,88.19,-44.75,-48.5,-0.8815186270316451,0.8095892573538624,0.2881212195332665,-155.591382770185,-2.2117544130994498,-22.150726459273766,-0.0858,-0.9774,-0.0193,-0.1921
154,1684463.0,1661.787601,1.0,0.63,0.95,-7.77,-8.38,-14.75,36.0,112.0,-18.69,-16.0,-2.119491586309071,0.1646364927975485,2.2466929736139125,-158.16444882979192,-3.7707427489739196,-20.56480245757989,-0.0535,-0.9819,-0.0329,-0.1785
155,1684463.0,1661.787601,1.0,0.63,0.95,-7.77,-8.38,-14.75,36.0,112.0,-18.69,-16.0,-2.119491586309071,0.1646364927975485,2.2466929736139125,-158.16444882979192,-3.7707427489739196,-20.56480245757989,-0.0535,-0.9819,-0.0329,-0.1785
156,1684498.0,1661.791126,1.0,1.02,-2.01,-7.39,-7.56,-13.69,34.69,91.12,-43.13,-9.63,-1.6186733736249337,-2.3382698748915445,2.6229886423292217,-160.12726585571855,-4.779853967883568,-19.09904255892851,-0.0239,-0.985,-0.0417,-0.1659
157,1684498.0,1661.791126,1.0,1.02,-2.01,-7.39,-7.56,-13.69,34.69,91.12,-43.13,-9.63,-1.6186733736249337,-2.3382698748915445,2.6229886423292217,-160.12726585571855,-4.779853967883568,-19.09904255892851,-0.0239,-0.985,-0.0417,-0.1659
158,1684535.0,1661.877952,1.0,1.75,-0.28,-7.81,-7.19,-11.5,36.25,54.88,-28.62,11.88,-0.8006547855609508,-0.4661690572139533,1.8518628674329325,-161.21954183361512,-4.66516502390792,-18.146842253651585,-0.0092,-0.9866,-0.0407,-0.1577
159,1684535.0,1661.877952,1.0,1.75,-0.28,-7.81,-7.19,-11.5,36.25,54.88,-28.62,11.88,-0.8006547855609508,-0.4661690572139533,1.8518628674329325,-161.21954183361512,-4.66516502390792,-18.146842253651585,-0.0092,-0.9866,-0.0407,-0.1577
160,1684572.0,1661.884644,1.0,0.41,-1.68,-4.9,-7.19,-11.5,36.25,35.25,-23.56,28.12,-1.1634924552896613,-1.5936306682824573,4.999662731492453,-162.45372607444324,-3.977125506843028,-17.080018727926856,0.0061,-0.9883,-0.0347,-0.1485
161,1684572.0,1661.884644,1.0,0.41,-1.68,-4.9,-7.19,-11.5,36.25,35.25,-23.56,28.12,-1.1634924552896613,-1.5936306682824573,4.999662731492453,-162.45372607444324,-3.977125506843028,-17.080018727926856,0.0061,-0.9883,-0.0347,-0.1485
162,1684606.0,1661.940951,1.0,1.05,-1.28,-5.32,-5.38,-10.19,36.25,13.63,9.0,34.81,-0.6308128675389146,-1.1312845207993285,4.387649127223988,-162.52901727888843,-3.266301709643329,-17.056843809922572,0.0148,-0.9884,-0.0285,-0.1483
163,1684606.0,1661.940951,1.0,1.05,-1.28,-5.32,-5.38,-10.19,36.25,13.63,9.0,34.81,-0.6308128675389146,-1.1312845207993285,4.387649127223988,-162.52901727888843,-3.266301709643329,-17.056843809922572,0.0148,-0.9884,-0.0285,-0.1483
164,1684643.0,1661.9573269999999,1.0,1.94,-3.36,-5.0,-6.19,-8.69,37.19,-5.81,-66.25,49.0,0.393944923067409,-3.177595125172537,4.347630251174287,-164.1089976777972,-2.016915574628728,-15.563501157916,0.0212,-0.9904,-0.0176,-0.1354
165,1684643.0,1661.9573269999999,1.0,1.94,-3.36,-5.0,-6.19,-8.69,37.19,-5.81,-66.25,49.0,0.393944923067409,-3.177595125172537,4.347630251174287,-164.1089976777972,-2.016915574628728,-15.563501157916,0.0212,-0.9904,-0.0176,-0.1354
166,1684678.0,1661.996564,1.0,1.26,-1.77,-4.82,-4.69,-7.88,38.0,-1.94,-64.0,49.81,0.05986007551429709,-1.5813536762915903,4.761985757273979,-166.14541230093116,-0.6990128451499703,-13.634163660769715,0.0198,-0.9927,-0.0061,-0.1187
167,1684678.0,1661.996564,1.0,1.26,-1.77,-4.82,-4.69,-7.88,38.0,-1.94,-64.0,49.81,0.05986007551429709,-1.5813536762915903,4.761985757273979,-166.14541230093116,-0.6990128451499703,-13.634163660769715,0.0198,-0.9927,-0.0061,-0.1187
168,1684711.0,1662.0061039999998,1.0,1.87,-0.11,-5.71,-4.69,-7.88,38.0,-20.12,-44.94,30.75,0.6604927734274268,0.058571714043023436,3.833927115873848,-168.08593042045837,0.7677691897415189,-11.823900394126868,0.0129,-0.9946,0.0067,-0.10300000000000001
169,1684711.0,1662.0061039999998,1.0,1.87,-0.11,-5.71,-4.69,-7.88,38.0,-20.12,-44.94,30.75,0.6604927734274268,0.058571714043023436,3.833927115873848,-168.08593042045837,0.7677691897415189,-11.823900394126868,0.0129,-0.9946,0.0067,-0.10300000000000001
170,1684748.0,1662.062956,1.0,2.23,0.52,-6.11,-4.25,-8.25,37.88,-45.38,-47.81,30.25,1.0755042136483743,0.633102240837889,3.402130327216516,-169.4938307856925,1.8220825674649568,-10.373238415502241,0.0048,-0.9958,0.0159,-0.0904
171,1684748.0,1662.062956,1.0,2.23,0.52,-6.11,-4.25,-8.25,37.88,-45.38,-47.81,30.25,1.0755042136483743,0.633102240837889,3.402130327216516,-169.4938307856925,1.8220825674649568,-10.373238415502241,0.0048,-0.9958,0.0159,-0.0904
172,1684785.0,1662.122413,1.0,2.15,0.66,-5.87,-2.75,-8.5,38.75,-37.94,-39.31,38.25,1.209586692854259,0.6549118702673826,3.6728917332721065,-170.9747190636711,2.4065996467302937,-8.69437956401469,-0.0063,-0.9969,0.021,-0.0758
173,1684785.0,1662.122413,1.0,2.15,0.66,-5.87,-2.75,-8.5,38.75,-37.94,-39.31,38.25,1.209586692854259,0.6549118702673826,3.6728917332721065,-170.9747190636711,2.4065996467302937,-8.69437956401469,-0.0063,-0.9969,0.021,-0.0758
174,1684819.0,1662.1360300000001,1.0,1.13,1.35,-6.07,-2.75,-8.5,38.75,-30.5,-55.81,32.88,0.28781061594675555,1.2236859970718514,3.612777412521418,-171.89546411123382,3.495584654482353,-7.1207175606295605,-0.0138,-0.9975,0.0305,-0.0621
175,1684819.0,1662.1360300000001,1.0,1.13,1.35,-6.07,-2.75,-8.5,38.75,-30.5,-55.81,32.88,0.28781061594675555,1.2236859970718514,3.612777412521418,-171.89546411123382,3.495584654482353,-7.1207175606295605,-0.0138,-0.9975,0.0305,-0.0621
176,1684852.0,1662.143426,1.0,1.3,0.72,-6.75,-2.5,-9.38,39.06,-32.81,-18.87,21.19,0.5662685469713014,0.4816739473608161,2.9350977633401616,-172.57231796598282,3.965659465674837,-5.812283928177061,-0.0222,-0.9979,0.0346,-0.0507
177,1684852.0,1662.143426,1.0,1.3,0.72,-6.75,-2.5,-9.38,39.06,-32.81,-18.87,21.19,0.5662685469713014,0.4816739473608161,2.9350977633401616,-172.57231796598282,3.965659465674837,-5.812283928177061,-0.0222,-0.9979,0.0346,-0.0507
178,1684889.0,1662.2016720000001,1.0,1.42,1.17,-7.13,-1.0,-9.75,37.88,-33.0,-5.25,21.0,0.6554910951042138,0.8063509718067181,2.5167714321152483,-172.3974616580246,3.931261580029344,-5.525454047712893,-0.0301,-0.9978,0.0343,-0.0482
179,1684889.0,1662.2016720000001,1.0,1.42,1.17,-7.13,-1.0,-9.75,37.88,-33.0,-5.25,21.0,0.6554910951042138,0.8063509718067181,2.5167714321152483,-172.3974616580246,3.931261580029344,-5.525454047712893,-0.0301,-0.9978,0.0343,-0.0482
180,1684924.0,1662.204674,1.0,1.77,2.27,-7.76,-0.56,-10.5,38.19,-33.0,27.25,7.44,0.7904649614151475,1.6830426800409366,1.7415441431661574,-171.27085645575488,3.908329853329541,-6.099150260471113,-0.0425,-0.9971,0.0341,-0.0532
181,1684924.0,1662.204674,1.0,1.77,2.27,-7.76,-0.56,-10.5,38.19,-33.0,27.25,7.44,0.7904649614151475,1.6830426800409366,1.7415441431661574,-171.27085645575488,3.908329853329541,-6.099150260471113,-0.0425,-0.9971,0.0341,-0.0532
182,1684959.0,1662.250743,1.0,1.89,2.13,-7.78,-0.56,-10.5,38.19,-8.5,27.5,10.63,0.7531468029897859,1.4829866466387267,1.6905597775445165,-170.00697332479714,4.309658496908005,-7.189606746883267,-0.0468,-0.9962,0.0376,-0.0627
183,1684959.0,1662.250743,1.0,1.89,2.13,-7.78,-0.56,-10.5,38.19,-8.5,27.5,10.63,0.7531468029897859,1.4829866466387267,1.6905597775445165,-170.00697332479714,4.309658496908005,-7.189606746883267,-0.0468,-0.9962,0.0376,-0.0627
184,1684996.0,1662.303521,1.0,2.65,-0.38,-9.04,-2.75,-11.56,39.0,11.75,25.75,16.75,1.3843440684108992,-1.0542644777039087,0.5405495304763068,-169.4938307856925,4.1720543955147065,-8.22327089407658,-0.0447,-0.9958,0.0364,-0.0717
185,1684996.0,1662.303521,1.0,2.65,-0.38,-9.04,-2.75,-11.56,39.0,11.75,25.75,16.75,1.3843440684108992,-1.0542644777039087,0.5405495304763068,-169.4938307856925,4.1720543955147065,-8.22327089407658,-0.0447,-0.9958,0.0364,-0.0717
186,1685032.0,1662.367178,1.0,2.67,0.72,-9.68,-3.56,-11.56,38.56,-8.63,24.94,2.56,1.0484476011491142,-0.092193708654062,-0.2054405882702284,-168.4218955829601,4.045922594423996,-9.269102460835224,-0.0477,-0.9949,0.0353,-0.0808
187,1685032.0,1662.367178,1.0,2.67,0.72,-9.68,-3.56,-11.56,38.56,-8.63,24.94,2.56,1.0484476011491142,-0.092193708654062,-0.2054405882702284,-168.4218955829601,4.045922594423996,-9.269102460835224,-0.0477,-0.9949,0.0353,-0.0808
188,1685065.0,1662.386652,1.0,2.82,1.54,-10.58,-3.56,-11.56,38.56,-20.0,16.87,-7.56,0.8818707221880032,0.5301324128180318,-1.2025127135866835,-167.75915046700433,4.137654318321577,-9.844059122531188,-0.0527,-0.9943,0.0361,-0.0858
189,1685065.0,1662.386652,1.0,2.82,1.54,-10.58,-3.56,-11.56,38.56,-20.0,16.87,-7.56,0.8818707221880032,0.5301324128180318,-1.2025127135866835,-167.75915046700433,4.137654318321577,-9.844059122531188,-0.0527,-0.9943,0.0361,-0.0858
190,1685100.0,1662.431223,1.0,3.45,0.18,-10.82,-3.56,-11.56,38.56,-27.5,23.12,-4.44,1.4327739955278578,-0.9663803804265044,-1.4192382783531148,-167.02852064224476,3.4841201823987773,-10.557352206642195,-0.0584,-0.9936,0.0304,-0.092
191,1685100.0,1662.431223,1.0,3.45,0.18,-10.82,-3.56,-11.56,38.56,-27.5,23.12,-4.44,1.4327739955278578,-0.9663803804265044,-1.4192382783531148,-167.02852064224476,3.4841201823987773,-10.557352206642195,-0.0584,-0.9936,0.0304,-0.092
192,1685137.0,1662.449172,1.0,2.97,1.73,-10.16,-4.25,-12.0,39.0,-25.0,12.69,9.13,0.9014737218705496,0.4873155824740958,-0.8699256987835184,-166.33674754112943,3.1975194185389717,-10.971708923508501,-0.0644,-0.9929,0.0279,-0.0956
193,1685137.0,1662.449172,1.0,2.97,1.73,-10.16,-4.25,-12.0,39.0,-25.0,12.69,9.13,0.9014737218705496,0.4873155824740958,-0.8699256987835184,-166.33674754112943,3.1975194185389717,-10.971708923508501,-0.0644,-0.9929,0.0279,-0.0956
194,1685172.0,1662.48675,1.0,2.53,1.55,-9.58,-4.25,-12.0,39.0,-6.13,8.13,8.19,0.526720902108752,0.3092014191445658,-0.20368264051103854,-165.86324083896642,3.117274866889664,-11.351662230904264,-0.0671,-0.9924,0.0272,-0.0989
195,1685172.0,1662.48675,1.0,2.53,1.55,-9.58,-4.25,-12.0,39.0,-6.13,8.13,8.19,0.526720902108752,0.3092014191445658,-0.20368264051103854,-165.86324083896642,3.117274866889664,-11.351662230904264,-0.0671,-0.9924,0.0272,-0.0989
196,1685207.0,1662.499622,1.0,2.7,0.82,-9.67,-5.06,-12.75,37.75,1.94,10.25,10.56,0.6570611490395762,-0.4128011554939837,-0.2367142696282638,-165.5865648948541,3.40386984812725,-11.731740790019305,-0.0671,-0.9921,0.0297,-0.1022
197,1685207.0,1662.499622,1.0,2.7,0.82,-9.67,-5.06,-12.75,37.75,1.94,10.25,10.56,0.6570611490395762,-0.4128011554939837,-0.2367142696282638,-165.5865648948541,3.40386984812725,-11.731740790019305,-0.0671,-0.9921,0.0297,-0.1022
198,1685241.0,1662.561329,1.0,2.3,1.08,-9.0,-6.19,-13.06,38.69,-5.38,6.5,15.19,0.32664475070341803,-0.09028928475510817,0.4609798232873441,-165.2256794561049,3.5529075421905287,-12.054333120262198,-0.0677,-0.9917,0.031,-0.105
199,1685241.0,1662.561329,1.0,2.3,1.08,-9.0,-6.19,-13.06,38.69,-5.38,6.5,15.19,0.32664475070341803,-0.09028928475510817,0.4609798232873441,-165.2256794561049,3.5529075421905287,-12.054333120262198,-0.0677,-0.9917,0.031,-0.105
200,1685278.0,1662.5799849999999,1.0,2.07,1.58,-8.97,-5.75,-13.06,37.38,-3.63,-8.06,18.44,0.06458511896259392,0.4103809373865529,0.475539870511744,-165.2256794561049,3.6560909909367436,-12.07737906844118,-0.0671,-0.9917,0.0319,-0.1052
201,1685278.0,1662.5799849999999,1.0,2.07,1.58,-8.97,-5.75,-13.06,37.38,-3.63,-8.06,18.44,0.06458511896259392,0.4103809373865529,0.475539870511744,-165.2256794561049,3.6560909909367436,-12.07737906844118,-0.0671,-0.9917,0.0319,-0.1052
202,1685311.0,1662.643242,1.0,2.13,0.11,-9.45,-5.75,-13.06,37.38,29.06,-13.63,28.44,0.2166339194729025,-1.1030124776328003,0.1843876246996814,-165.49550626988113,3.919795697049856,-11.628070333672753,-0.0673,-0.992,0.0342,-0.1013
203,1685311.0,1662.643242,1.0,2.13,0.11,-9.45,-5.75,-13.06,37.38,29.06,-13.63,28.44,0.2166339194729025,-1.1030124776328003,0.1843876246996814,-165.49550626988113,3.919795697049856,-11.628070333672753,-0.0673,-0.992,0.0342,-0.1013
204,1685348.0,1662.6863720000001,1.0,1.52,1.18,-9.26,-5.75,-12.75,38.69,-3.81,-10.06,6.44,-0.4539612134656849,-0.07087176012971064,0.3599946971806549,-165.31507383873742,3.7822081305683333,-11.789339646395064,-0.0682,-0.9918,0.033,-0.1027
205,1685348.0,1662.6863720000001,1.0,1.52,1.18,-9.26,-5.75,-12.75,38.69,-3.81,-10.06,6.44,-0.4539612134656849,-0.07087176012971064,0.3599946971806549,-165.31507383873742,3.7822081305683333,-11.789339646395064,-0.0682,-0.9918,0.033,-0.1027
206,1685385.0,1662.704052,1.0,2.25,1.82,-9.86,-5.75,-13.88,39.88,2.81,0.06,7.38,0.08273007942518204,0.4839539247528922,-0.4575325944726174,-165.31507383873742,3.4153340784378665,-11.869983070722633,-0.0693,-0.9918,0.0298,-0.1034
207,1685385.0,1662.704052,1.0,2.25,1.82,-9.86,-5.75,-13.88,39.88,2.81,0.06,7.38,0.08273007942518204,0.4839539247528922,-0.4575325944726174,-165.31507383873742,3.4153340784378665,-11.869983070722633,-0.0693,-0.9918,0.0298,-0.1034
208,1685420.0,1662.7516050000002,1.0,1.76,1.75,-9.02,-5.75,-13.88,39.88,5.69,-2.94,15.06,-0.21975745818835726,0.5616735589798287,0.4708731457305291,-165.4050127335264,3.805139007503523,-11.800859775906506,-0.067,-0.9919,0.0332,-0.1028
209,1685420.0,1662.7516050000002,1.0,1.76,1.75,-9.02,-5.75,-13.88,39.88,5.69,-2.94,15.06,-0.21975745818835726,0.5616735589798287,0.4708731457305291,-165.4050127335264,3.805139007503523,-11.800859775906506,-0.067,-0.9919,0.0332,-0.1028
210,1685452.0,1662.765024,1.0,2.47,-1.87,-10.11,-5.75,-12.75,37.75,-7.44,-2.56,28.44,0.5330986010254111,-2.9801132292952284,-0.3247186648036031,-165.5865648948541,4.240855681461491,-11.916067673936475,-0.0599,-0.9921,0.037000000000000005,-0.1038
211,1685452.0,1662.765024,1.0,2.47,-1.87,-10.11,-5.75,-12.75,37.75,-7.44,-2.56,28.44,0.5330986010254111,-2.9801132292952284,-0.3247186648036031,-165.5865648948541,4.240855681461491,-11.916067673936475,-0.0599,-0.9921,0.037000000000000005,-0.1038
212,1685489.0,1662.820683,1.0,1.96,0.37,-9.02,-6.19,-12.38,39.0,-9.06,-5.44,-15.94,0.07471613932104709,-0.769198720870178,0.6011271562753375,-165.49550626988113,3.5873017007906127,-11.858462221253813,-0.0655,-0.992,0.0313,-0.1033
213,1685489.0,1662.820683,1.0,1.96,0.37,-9.02,-6.19,-12.38,39.0,-9.06,-5.44,-15.94,0.07471613932104709,-0.769198720870178,0.6011271562753375,-165.49550626988113,3.5873017007906127,-11.858462221253813,-0.0655,-0.992,0.0313,-0.1033
214,1685524.0,1662.838326,1.0,2.87,1.8,-10.31,-6.19,-12.38,39.5,-2.81,-17.12,4.81,0.6467893131615302,0.44110399994192384,-1.0174014986586857,-165.5865648948541,3.3121572228147254,-11.628070333672753,-0.0686,-0.9921,0.0289,-0.1013
215,1685524.0,1662.838326,1.0,2.87,1.8,-10.31,-6.19,-12.38,39.5,-2.81,-17.12,4.81,0.6467893131615302,0.44110399994192384,-1.0174014986586857,-165.5865648948541,3.3121572228147254,-11.628070333672753,-0.0686,-0.9921,0.0289,-0.1013
216,1685559.0,1662.876068,1.0,1.71,1.18,-9.17,-6.19,-12.38,39.5,-2.56,-13.63,10.81,-0.1064033262249605,-0.017635762019970302,0.4048540379475245,-166.14541230093116,3.82807003686826,-10.902639624835572,-0.0669,-0.9927,0.0334,-0.095
217,1685559.0,1662.876068,1.0,1.71,1.18,-9.17,-6.19,-12.38,39.5,-2.56,-13.63,10.81,-0.1064033262249605,-0.017635762019970302,0.4048540379475245,-166.14541230093116,3.82807003686826,-10.902639624835572,-0.0669,-0.9927,0.0334,-0.095
218,1685596.0,1662.884041,1.0,1.83,1.17,-9.31,-5.06,-12.75,39.5,-6.38,3.81,5.38,0.005898343095531878,-0.04975253649423517,0.2467655919822373,-166.33674754112943,3.438262641755622,-10.810553401892458,-0.0671,-0.9929,0.03,-0.0942
219,1685596.0,1662.884041,1.0,1.83,1.17,-9.31,-5.06,-12.75,39.5,-6.38,3.81,5.38,0.005898343095531878,-0.04975253649423517,0.2467655919822373,-166.33674754112943,3.438262641755622,-10.810553401892458,-0.0671,-0.9929,0.03,-0.0942
220,1685633.0,1662.94957,1.0,2.21,0.96,-9.34,-5.06,-13.06,38.19,-1.06,-11.0,1.56,0.3911231536786013,-0.263795550016023,0.17240199683710067,-166.33674754112943,3.0599582684028324,-10.810553401892458,-0.0677,-0.9929,0.0267,-0.0942
221,1685633.0,1662.94957,1.0,2.21,0.96,-9.34,-5.06,-13.06,38.19,-1.06,-11.0,1.56,0.3911231536786013,-0.263795550016023,0.17240199683710067,-166.33674754112943,3.0599582684028324,-10.810553401892458,-0.0677,-0.9929,0.0267,-0.0942
222,1685665.0,1662.952754,1.0,2.85,1.16,-9.85,-5.06,-13.06,38.19,12.69,-27.56,-3.19,1.0426766516641,-0.103215593741101,-0.459448184864744,-166.92746455946425,2.968253297538604,-10.085614182042526,-0.0674,-0.9935,0.0259,-0.0879
223,1685665.0,1662.952754,1.0,2.85,1.16,-9.85,-5.06,-13.06,38.19,12.69,-27.56,-3.19,1.0426766516641,-0.103215593741101,-0.459448184864744,-166.92746455946425,2.968253297538604,-10.085614182042526,-0.0674,-0.9935,0.0259,-0.0879
224,1685700.0,1662.994023,1.0,2.18,1.38,-9.72,-5.5,-12.75,38.69,-2.5,-49.5,4.44,0.70008268664825,0.1580074452224356,-0.22430797414731884,-168.4218955829601,2.865087475133015,-8.326672787534774,-0.0652,-0.9949,0.025,-0.0726
225,1685700.0,1662.994023,1.0,2.18,1.38,-9.72,-5.5,-12.75,38.69,-2.5,-49.5,4.44,0.70008268664825,0.1580074452224356,-0.22430797414731884,-168.4218955829601,2.865087475133015,-8.326672787534774,-0.0652,-0.9949,0.025,-0.0726
226,1685737.0,1663.0704640000001,1.0,2.53,2.33,-10.95,-4.69,-13.06,38.19,14.94,-76.56,3.75,1.207114252908706,1.0096830032543886,-1.5624183617156555,-170.00697332479714,2.7160742546883188,-6.3631010384043885,-0.0629,-0.9962,0.0237,-0.0555
227,1685737.0,1663.0704640000001,1.0,2.53,2.33,-10.95,-4.69,-13.06,38.19,14.94,-76.56,3.75,1.207114252908706,1.0096830032543886,-1.5624183617156555,-170.00697332479714,2.7160742546883188,-6.3631010384043885,-0.0629,-0.9962,0.0237,-0.0555
228,1685772.0,1663.074562,1.0,4.08,2.11,-13.35,-4.69,-13.06,38.19,46.31,-113.12,-5.06,3.170845138248609,0.8186950718995359,-3.9263933440112786,-172.3974616580246,2.7504615040371316,-3.5414428939599265,-0.054000000000000006,-0.9978,0.024,-0.0309
229,1685772.0,1663.074562,1.0,4.08,2.11,-13.35,-4.69,-13.06,38.19,46.31,-113.12,-5.06,3.170845138248609,0.8186950718995359,-3.9263933440112786,-172.3974616580246,2.7504615040371316,-3.5414428939599265,-0.054000000000000006,-0.9978,0.024,-0.0309
230,1685807.0,1663.113936,1.0,5.38,2.16,-14.52,-2.5,-12.0,40.25,41.19,-107.81,18.37,5.556471282498117,1.697479221421944,-4.708328166694381,-175.4160320064456,3.1287382797377283,1.1115555540621913,-0.0262,-0.9992,0.0273,0.0097
231,1685807.0,1663.113936,1.0,5.38,2.16,-14.52,-2.5,-12.0,40.25,41.19,-107.81,18.37,5.556471282498117,1.697479221421944,-4.708328166694381,-175.4160320064456,3.1287382797377283,1.1115555540621913,-0.0262,-0.9992,0.0273,0.0097
232,1685841.0,1663.174859,1.0,5.51,2.54,-14.18,1.25,-10.5,40.25,23.19,-132.56,-3.25,6.907685755295639,2.3551042558058857,-3.780898029367578,-172.93498296022824,2.704611892754087,6.236859579751598,-0.0172,-0.9981,0.0236,0.0544
233,1685841.0,1663.174859,1.0,5.51,2.54,-14.18,1.25,-10.5,40.25,23.19,-132.56,-3.25,6.907685755295639,2.3551042558058857,-3.780898029367578,-172.93498296022824,2.704611892754087,6.236859579751598,-0.0172,-0.9981,0.0236,0.0544
234,1685878.0,1663.1873460000002,1.0,3.32,3.5,-8.97,5.0,-8.25,41.38,5.19,-130.38,8.06,4.728632034959324,3.4388555675794814,1.4671289428118792,-169.24641346971597,2.509755787270372,10.304202691653053,-0.0137,-0.9956,0.0219,0.0898
235,1685878.0,1663.1873460000002,1.0,3.32,3.5,-8.97,5.0,-8.25,41.38,5.19,-130.38,8.06,4.728632034959324,3.4388555675794814,1.4671289428118792,-169.24641346971597,2.509755787270372,10.304202691653053,-0.0137,-0.9956,0.0219,0.0898
236,1685911.0,1663.246501,1.0,4.25,3.71,-8.48,5.0,-8.25,41.38,-10.38,-48.75,-37.13,5.929479558187867,3.6037761884739674,2.350708117687596,-167.13036680379562,1.4668120111410634,12.699808169946316,-0.0148,-0.9937,0.0128,0.1106
237,1685911.0,1663.246501,1.0,4.25,3.71,-8.48,5.0,-8.25,41.38,-10.38,-48.75,-37.13,5.929479558187867,3.6037761884739674,2.350708117687596,-167.13036680379562,1.4668120111410634,12.699808169946316,-0.0148,-0.9937,0.0128,0.1106
238,1685948.0,1663.2616560000001,1.0,4.25,3.59,-6.08,8.69,-8.25,38.5,-46.88,-24.19,-99.37,5.64738243694139,3.222608302624212,4.743166284337095,-166.33674754112943,-1.5011923619341792,13.380300633180664,-0.0211,-0.9929,-0.0131,0.1165
239,1685948.0,1663.2616560000001,1.0,4.25,3.59,-6.08,8.69,-8.25,38.5,-46.88,-24.19,-99.37,5.64738243694139,3.222608302624212,4.743166284337095,-166.33674754112943,-1.5011923619341792,13.380300633180664,-0.0211,-0.9929,-0.0131,0.1165
240,1685985.0,1663.308668,1.0,1.85,4.33,-3.93,10.69,-9.75,38.06,-43.88,-32.69,-129.69,3.284051655072282,3.793716044805642,6.279750044202945,-163.53886738912243,-6.707435672786218,14.54632631618216,-0.0309,-0.9897,-0.0585,0.1266
241,1685985.0,1663.308668,1.0,1.85,4.33,-3.93,10.69,-9.75,38.06,-43.88,-32.69,-129.69,3.284051655072282,3.793716044805642,6.279750044202945,-163.53886738912243,-6.707435672786218,14.54632631618216,-0.0309,-0.9897,-0.0585,0.1266
242,1686020.0,1663.327927,1.0,3.24,2.91,-6.98,10.69,-9.75,38.06,56.75,8.94,-123.0,5.3146110262865465,1.9018760066562197,3.821344887093988,-162.15571301144445,-10.350226089325556,14.315313760812993,-0.0173,-0.9879,-0.0902,0.1246
243,1686020.0,1663.327927,1.0,3.24,2.91,-6.98,10.69,-9.75,38.06,56.75,8.94,-123.0,5.3146110262865465,1.9018760066562197,3.821344887093988,-162.15571301144445,-10.350226089325556,14.315313760812993,-0.0173,-0.9879,-0.0902,0.1246
244,1686052.0,1663.369441,1.0,1.37,1.04,-4.77,12.5,-9.75,36.5,136.0,-102.25,-106.12,2.9916947458921923,0.6964184332382889,5.772277197042028,-156.814109146573,-14.292215737283833,17.93799404290059,0.0234,-0.9796,-0.1244,0.1559
245,1686052.0,1663.369441,1.0,1.37,1.04,-4.77,12.5,-9.75,36.5,136.0,-102.25,-106.12,2.9916947458921923,0.6964184332382889,5.772277197042028,-156.814109146573,-14.292215737283833,17.93799404290059,0.0234,-0.9796,-0.1244,0.1559
246,1686089.0,1663.388981,1.0,-3.07,-3.1,-3.17,15.19,-7.88,36.06,80.44,-83.12,-78.25,-2.380059824023604,-1.8754894040237888,5.345522930585452,-152.47972490837182,-16.59349169701811,20.9608980601766,0.0528,-0.9713,-0.1443,0.1819
247,1686089.0,1663.388981,1.0,-3.07,-3.1,-3.17,15.19,-7.88,36.06,80.44,-83.12,-78.25,-2.380059824023604,-1.8754894040237888,5.345522930585452,-152.47972490837182,-16.59349169701811,20.9608980601766,0.0528,-0.9713,-0.1443,0.1819
248,1686126.0,1663.4350029999998,1.0,-5.05,-3.68,-3.36,18.5,-3.75,36.06,40.63,-61.38,-96.37,-4.0280060682856575,-1.3811306081176289,4.13195658474182,-147.43869005154224,-20.320279509683687,23.940057930305638,0.067,-0.9599,-0.1764,0.2074
249,1686126.0,1663.4350029999998,1.0,-5.05,-3.68,-3.36,18.5,-3.75,36.06,40.63,-61.38,-96.37,-4.0280060682856575,-1.3811306081176289,4.13195658474182,-147.43869005154224,-20.320279509683687,23.940057930305638,0.067,-0.9599,-0.1764,0.2074
250,1686161.0,1663.452229,1.0,-3.42,-4.58,-6.95,18.5,-3.75,36.06,29.87,-10.0,-99.75,-1.3779436512235463,-2.201693067189526,1.191017757851876,-144.0161283848301,-23.82293200606416,24.79585513058625,0.0817,-0.9511,-0.2064,0.2147
251,1686161.0,1663.452229,1.0,-3.42,-4.58,-6.95,18.5,-3.75,36.06,29.87,-10.0,-99.75,-1.3779436512235463,-2.201693067189526,1.191017757851876,-144.0161283848301,-23.82293200606416,24.79585513058625,0.0817,-0.9511,-0.2064,0.2147
252,1686198.0,1663.543244,1.0,-6.06,-4.7,-6.36,20.37,-1.56,36.06,4.25,-119.31,-104.0,-3.571065901516775,-0.9590936587434192,0.5551189007287896,-140.20399733163396,-26.923951406436,27.100727545597238,0.0817,-0.9403,-0.2328,0.2343
253,1686198.0,1663.543244,1.0,-6.06,-4.7,-6.36,20.37,-1.56,36.06,4.25,-119.31,-104.0,-3.571065901516775,-0.9590936587434192,0.5551189007287896,-140.20399733163396,-26.923951406436,27.100727545597238,0.0817,-0.9403,-0.2328,0.2343
254,1686235.0,1663.585043,1.0,-8.53,-9.47,-4.79,22.56,-0.75,34.69,66.87,-121.19,-36.19,-7.3838242173469135,-3.6459214663413935,-1.0364259744913848,-135.12607315636853,-28.671075748006672,31.98362621241675,0.0923,-0.9243,-0.2476,0.2755
255,1686235.0,1663.585043,1.0,-8.53,-9.47,-4.79,22.56,-0.75,34.69,66.87,-121.19,-36.19,-7.3838242173469135,-3.6459214663413935,-1.0364259744913848,-135.12607315636853,-28.671075748006672,31.98362621241675,0.0923,-0.9243,-0.2476,0.2755
256,1686267.0,1663.650744,1.0,-7.41,-7.01,-9.47,22.56,-0.75,34.69,-46.69,-96.81,-27.87,-2.548569412390842,-2.217713997050054,-3.6957808395753013,-132.7820481898819,-29.713115141941444,34.54300944397086,0.08,-0.9163,-0.2564,0.2969
257,1686267.0,1663.650744,1.0,-7.41,-7.01,-9.47,22.56,-0.75,34.69,-46.69,-96.81,-27.87,-2.548569412390842,-2.217713997050054,-3.6957808395753013,-132.7820481898819,-29.713115141941444,34.54300944397086,0.08,-0.9163,-0.2564,0.2969
258,1686302.0,1663.660479,1.0,-5.61,-9.79,-10.95,26.56,2.19,32.19,39.88,-188.38,1.69,-0.3222622178609149,-6.085130237440075,-4.687695002666793,-127.7928177632481,-30.057061369867114,40.77896631080099,0.0703,-0.898,-0.2593,0.3484
259,1686302.0,1663.660479,1.0,-5.61,-9.79,-10.95,26.56,2.19,32.19,39.88,-188.38,1.69,-0.3222622178609149,-6.085130237440075,-4.687695002666793,-127.7928177632481,-30.057061369867114,40.77896631080099,0.0703,-0.898,-0.2593,0.3484
260,1686339.0,1663.685984,1.0,-8.69,-4.15,-8.47,28.69,1.69,30.56,-86.12,-140.13,81.62,-0.7470376402783193,-0.5428211139308059,-2.9850183822822083,-125.04696377500795,-28.836690473319894,45.461363019954995,0.04,-0.8872,-0.249,0.3864
261,1686339.0,1663.685984,1.0,-8.69,-4.15,-8.47,28.69,1.69,30.56,-86.12,-140.13,81.62,-0.7470376402783193,-0.5428211139308059,-2.9850183822822083,-125.04696377500795,-28.836690473319894,45.461363019954995,0.04,-0.8872,-0.249,0.3864
262,1686376.0,1663.690933,1.0,-7.44,-3.43,-8.99,32.25,-0.88,26.0,-41.31,-51.75,87.62,0.8806301290445339,-1.5507120065864863,-2.224907789764698,-124.25742213626366,-26.994654003838164,47.80732155074712,0.0062,-0.884,-0.2334,0.4052
263,1686376.0,1663.690933,1.0,-7.44,-3.43,-8.99,32.25,-0.88,26.0,-41.31,-51.75,87.62,0.8806301290445339,-1.5507120065864863,-2.224907789764698,-124.25742213626366,-26.994654003838164,47.80732155074712,0.0062,-0.884,-0.2334,0.4052
264,1686411.0,1663.74072,1.0,-7.75,1.22,-7.28,32.25,-0.88,26.0,-76.12,7.25,91.19,1.2360993351848235,2.451764469252336,-0.5379239120017623,-124.94770072590693,-25.312354349514575,47.97031813194389,-0.019,-0.8868,-0.2191,0.4065
265,1686411.0,1663.74072,1.0,-7.75,1.22,-7.28,32.25,-0.88,26.0,-76.12,7.25,91.19,1.2360993351848235,2.451764469252336,-0.5379239120017623,-124.94770072590693,-25.312354349514575,47.97031813194389,-0.019,-0.8868,-0.2191,0.4065
266,1686448.0,1663.7583880000002,1.0,-6.48,0.82,-7.28,34.06,-3.38,25.19,0.81,38.5,48.81,1.4042711651314284,1.3516362957785573,0.22216765515140224,-127.30014547607834,-23.600462193143148,46.23275206665912,-0.0333,-0.8961,-0.2045,0.3926
267,1686448.0,1663.7583880000002,1.0,-6.48,0.82,-7.28,34.06,-3.38,25.19,0.81,38.5,48.81,1.4042711651314284,1.3516362957785573,0.22216765515140224,-127.30014547607834,-23.600462193143148,46.23275206665912,-0.0333,-0.8961,-0.2045,0.3926
268,1686482.0,1663.80269,1.0,-6.83,-1.48,-5.61,32.56,-6.75,26.0,29.94,45.75,27.44,-1.0379438886260401,-0.2533996035742501,0.9089052787252728,-128.87098138309108,-22.53618284114898,45.10129990098643,-0.0297,-0.9021,-0.1954,0.3835
269,1686482.0,1663.80269,1.0,-6.83,-1.48,-5.61,32.56,-6.75,26.0,29.94,45.75,27.44,-1.0379438886260401,-0.2533996035742501,0.9089052787252728,-128.87098138309108,-22.53618284114898,45.10129990098643,-0.0297,-0.9021,-0.1954,0.3835
270,1686517.0,1663.859602,1.0,-7.32,-2.31,-6.39,32.56,-6.75,26.0,-13.0,36.69,29.87,-1.3921412261618404,-1.0139034625509091,-0.031263527524414414,-130.92785324394194,-21.43888030792546,43.480576858025245,-0.0272,-0.9097,-0.18600000000000003,0.3704
271,1686517.0,1663.859602,1.0,-7.32,-2.31,-6.39,32.56,-6.75,26.0,-13.0,36.69,29.87,-1.3921412261618404,-1.0139034625509091,-0.031263527524414414,-130.92785324394194,-21.43888030792546,43.480576858025245,-0.0272,-0.9097,-0.18600000000000003,0.3704
272,1686550.0,1663.876089,1.0,-8.35,-1.62,-6.53,30.56,-7.5,27.19,-21.0,25.06,25.37,-1.9844931604299596,-0.2266848919595925,-0.7289183689093885,-132.269639855159,-20.751169149926106,42.274097288223146,-0.0344,-0.9145,-0.1801,0.3606
273,1686550.0,1663.876089,1.0,-8.35,-1.62,-6.53,30.56,-7.5,27.19,-21.0,25.06,25.37,-1.9844931604299596,-0.2266848919595925,-0.7289183689093885,-132.269639855159,-20.751169149926106,42.274097288223146,-0.0344,-0.9145,-0.1801,0.3606
274,1686587.0,1663.9326839999999,1.0,-7.82,-1.89,-8.94,29.5,-8.25,26.69,-2.5,70.25,10.44,-0.5198841896594735,-1.0680920720407758,-2.1615160982368447,-133.9692588477758,-20.471639758994087,40.54677652678586,-0.0347,-0.9204,-0.1777,0.3465
275,1686587.0,1663.9326839999999,1.0,-7.82,-1.89,-8.94,29.5,-8.25,26.69,-2.5,70.25,10.44,-0.5198841896594735,-1.0680920720407758,-2.1615160982368447,-133.9692588477758,-20.471639758994087,40.54677652678586,-0.0347,-0.9204,-0.1777,0.3465
276,1686624.0,1663.936205,1.0,-8.93,-3.47,-7.83,29.5,-8.25,26.69,22.62,26.75,9.13,-2.749835225949232,-1.8691350914301308,-2.1113800486327534,-135.3668779333915,-20.01766618340029,39.327556017124884,-0.0278,-0.9251,-0.1738,0.3365
277,1686624.0,1663.936205,1.0,-8.93,-3.47,-7.83,29.5,-8.25,26.69,22.62,26.75,9.13,-2.749835225949232,-1.8691350914301308,-2.1113800486327534,-135.3668779333915,-20.01766618340029,39.327556017124884,-0.0278,-0.9251,-0.1738,0.3365
278,1686659.0,1663.982349,1.0,-7.28,-2.72,-8.44,28.75,-8.25,28.0,-10.0,65.81,20.25,-1.224877209430314,-1.7617111657721238,-1.4639511192931511,-136.77619735313192,-19.75008736458169,37.88268575548643,-0.0288,-0.9297,-0.1715,0.3246
279,1686659.0,1663.982349,1.0,-7.28,-2.72,-8.44,28.75,-8.25,28.0,-10.0,65.81,20.25,-1.224877209430314,-1.7617111657721238,-1.4639511192931511,-136.77619735313192,-19.75008736458169,37.88268575548643,-0.0288,-0.9297,-0.1715,0.3246
280,1686693.0,1664.001761,1.0,-5.93,-0.67,-9.15,27.69,-8.25,29.69,-41.5,67.62,19.56,0.2724301030646202,-0.4728175349149437,-1.1038277813632522,-139.5691405181039,-19.319861939553064,34.87917065061918,-0.0381,-0.9384,-0.1678,0.2997
281,1686693.0,1664.001761,1.0,-5.93,-0.67,-9.15,27.69,-8.25,29.69,-41.5,67.62,19.56,0.2724301030646202,-0.4728175349149437,-1.1038277813632522,-139.5691405181039,-19.319861939553064,34.87917065061918,-0.0381,-0.9384,-0.1678,0.2997
282,1686730.0,1664.047242,1.0,-5.5,-1.3,-9.41,26.56,-9.38,30.06,12.25,42.25,11.44,0.22954896375945416,-1.2023973256179619,-1.1015876186340812,-141.1232586742633,-19.05256341690962,33.2731430190265,-0.0384,-0.943,-0.1655,0.2863
283,1686730.0,1664.047242,1.0,-5.5,-1.3,-9.41,26.56,-9.38,30.06,12.25,42.25,11.44,0.22954896375945416,-1.2023973256179619,-1.1015876186340812,-141.1232586742633,-19.05256341690962,33.2731430190265,-0.0384,-0.943,-0.1655,0.2863
284,1686763.0,1664.058718,1.0,-5.52,-2.01,-8.07,26.56,-9.38,30.06,18.5,-0.12,9.5,-0.7416396442795459,-1.5787843771016836,-0.02151414843853594,-141.64310130769366,-18.506668239532367,33.0459740960127,-0.0335,-0.9445,-0.1608,0.2844
285,1686763.0,1664.058718,1.0,-5.52,-2.01,-8.07,26.56,-9.38,30.06,18.5,-0.12,9.5,-0.7416396442795459,-1.5787843771016836,-0.02151414843853594,-141.64310130769366,-18.506668239532367,33.0459740960127,-0.0335,-0.9445,-0.1608,0.2844
286,1686800.0,1664.109338,1.0,-5.81,-0.9,-7.03,25.06,-10.06,30.87,-7.31,4.44,6.25,-1.1541147782808892,-0.3470541029472657,0.7217959820104358,-141.5733981273395,-18.402183827223173,33.14160783025417,-0.0367,-0.9443,-0.1599,0.2852
287,1686800.0,1664.109338,1.0,-5.81,-0.9,-7.03,25.06,-10.06,30.87,-7.31,4.44,6.25,-1.1541147782808892,-0.3470541029472657,0.7217959820104358,-141.5733981273395,-18.402183827223173,33.14160783025417,-0.0367,-0.9443,-0.1599,0.2852
288,1686837.0,1664.174182,1.0,-5.21,-0.57,-7.64,24.25,-9.75,29.56,16.69,4.38,0.5,-0.31293350490001576,-0.2726448170769806,0.5510388680848308,-142.0286696964437,-18.286108128329392,32.75921457984873,-0.0353,-0.9456,-0.1589,0.282
289,1686837.0,1664.174182,1.0,-5.21,-0.57,-7.64,24.25,-9.75,29.56,16.69,4.38,0.5,-0.31293350490001576,-0.2726448170769806,0.5510388680848308,-142.0286696964437,-18.286108128329392,32.75921457984873,-0.0353,-0.9456,-0.1589,0.282
290,1686870.0,1664.193129,1.0,-4.85,-1.45,-8.3,24.25,-9.75,29.56,28.12,-6.06,-2.75,0.07840665820053483,-1.2032619256876886,0.15983637403312126,-142.06390845011202,-18.13523798699121,32.878671967526124,-0.0289,-0.9457,-0.1576,0.28300000000000003
291,1686870.0,1664.193129,1.0,-4.85,-1.45,-8.3,24.25,-9.75,29.56,28.12,-6.06,-2.75,0.07840665820053483,-1.2032619256876886,0.15983637403312126,-142.06390845011202,-18.13523798699121,32.878671967526124,-0.0289,-0.9457,-0.1576,0.28300000000000003
292,1686904.0,1664.234421,1.0,-6.09,-1.86,-6.55,25.06,-10.06,30.5,19.94,-39.81,-2.63,-1.7256515106805732,-0.9560351207203756,0.8871027182353561,-140.91718374591224,-18.03080801097451,34.24312448272413,-0.0241,-0.9424,-0.1567,0.2944
293,1686904.0,1664.234421,1.0,-6.09,-1.86,-6.55,25.06,-10.06,30.5,19.94,-39.81,-2.63,-1.7256515106805732,-0.9560351207203756,0.8871027182353561,-140.91718374591224,-18.03080801097451,34.24312448272413,-0.0241,-0.9424,-0.1567,0.2944
294,1686939.0,1664.239093,1.0,-5.66,-1.65,-7.76,26.19,-10.06,30.5,7.44,-5.56,2.81,-0.6023525072348749,-1.0394113606129918,0.13543004177050474,-140.57602612666605,-18.088822794467358,34.60301565627788,-0.0235,-0.9414,-0.1572,0.2974
295,1686939.0,1664.239093,1.0,-5.66,-1.65,-7.76,26.19,-10.06,30.5,7.44,-5.56,2.81,-0.6023525072348749,-1.0394113606129918,0.13543004177050474,-140.57602612666605,-18.088822794467358,34.60301565627788,-0.0235,-0.9414,-0.1572,0.2974
296,1686976.0,1664.2992980000001,1.0,-6.78,-1.3,-7.59,26.19,-9.38,30.5,2.19,-11.25,3.5,-1.3968305590471068,-0.39880572153050137,-0.3499398994587093,-140.33889297208822,-17.972797887176398,34.951245408405796,-0.0242,-0.9407,-0.1562,0.3003
297,1686976.0,1664.2992980000001,1.0,-6.78,-1.3,-7.59,26.19,-9.38,30.5,2.19,-11.25,3.5,-1.3968305590471068,-0.39880572153050137,-0.3499398994587093,-140.33889297208822,-17.972797887176398,34.951245408405796,-0.0242,-0.9407,-0.1562,0.3003
298,1687011.0,1664.317148,1.0,-5.43,-1.75,-8.05,26.19,-9.38,30.5,19.12,5.81,12.5,-0.2098295441653371,-1.2317665475046964,0.019483774026122447,-140.44035437538835,-17.62483410357088,35.03535067049245,-0.0211,-0.941,-0.1532,0.301
299,1687011.0,1664.317148,1.0,-5.43,-1.75,-8.05,26.19,-9.38,30.5,19.12,5.81,12.5,-0.2098295441653371,-1.2317665475046964,0.019483774026122447,-140.44035437538835,-17.62483410357088,35.03535067049245,-0.0211,-0.941,-0.1532,0.301
300,1687048.0,1664.362394,1.0,-4.7,-0.17,-8.71,25.37,-10.5,30.5,-2.69,10.19,16.69,1.1046241457300765,-0.0375244413322289,-0.03008713245265149,-141.26122730722247,-16.871469682269606,34.54300944397086,-0.0217,-0.9434,-0.1467,0.2969
301,1687048.0,1664.362394,1.0,-4.7,-0.17,-8.71,25.37,-10.5,30.5,-2.69,10.19,16.69,1.1046241457300765,-0.0375244413322289,-0.03008713245265149,-141.26122730722247,-16.871469682269606,34.54300944397086,-0.0217,-0.9434,-0.1467,0.2969
302,1687083.0,1664.416775,1.0,-4.71,-0.35,-8.17,26.19,-9.0,29.56,24.94,7.63,9.06,0.7094072579294387,-0.08326924017285592,0.3967983765131482,-141.6082344949301,-16.63981448789728,34.279097871531036,-0.0186,-0.9444,-0.1447,0.2947
303,1687083.0,1664.416775,1.0,-4.71,-0.35,-8.17,26.19,-9.0,29.56,24.94,7.63,9.06,0.7094072579294387,-0.08326924017285592,0.3967983765131482,-141.6082344949301,-16.63981448789728,34.279097871531036,-0.0186,-0.9444,-0.1447,0.2947
304,1687117.0,1664.480965,1.0,-5.21,-0.72,-7.73,26.19,-9.0,29.56,7.0,-10.0,12.44,0.0061809825188088655,-0.2259755536876041,0.4597629864221293,-141.78287468010964,-15.933684759016295,34.471014881449136,-0.0149,-0.9449,-0.1386,0.2963
305,1687117.0,1664.480965,1.0,-5.21,-0.72,-7.73,26.19,-9.0,29.56,7.0,-10.0,12.44,0.0061809825188088655,-0.2259755536876041,0.4597629864221293,-141.78287468010964,-15.933684759016295,34.471014881449136,-0.0149,-0.9449,-0.1386,0.2963
306,1687152.0,1664.493706,1.0,-4.53,-0.66,-9.62,25.37,-9.0,30.37,45.25,-56.0,9.19,1.9930581740185531,-0.44747311058445305,-0.6493715632085255,-140.27139021079807,-15.239724647140953,36.46817032738551,-0.0068,-0.9405,-0.1326,0.3129
307,1687152.0,1664.493706,1.0,-4.53,-0.66,-9.62,25.37,-9.0,30.37,45.25,-56.0,9.19,1.9930581740185531,-0.44747311058445305,-0.6493715632085255,-140.27139021079807,-15.239724647140953,36.46817032738551,-0.0068,-0.9405,-0.1326,0.3129
308,1687189.0,1664.502682,1.0,-6.27,-2.08,-5.92,24.69,-9.75,30.5,39.13,-61.06,24.69,-1.5160567296517802,-1.0550177332349266,1.1305789090604268,-138.5209607780903,-14.338412369029564,38.707543665525726,-0.0009,-0.9352,-0.1248,0.3314
309,1687189.0,1664.502682,1.0,-6.27,-2.08,-5.92,24.69,-9.75,30.5,39.13,-61.06,24.69,-1.5160567296517802,-1.0550177332349266,1.1305789090604268,-138.5209607780903,-14.338412369029564,38.707543665525726,-0.0009,-0.9352,-0.1248,0.3314
310,1687224.0,1664.5451289999999,1.0,-6.75,-1.86,-6.52,24.69,-9.75,30.5,-3.94,-26.25,26.31,-1.2464501551222846,-0.9306289445934692,0.3666928084508552,-137.75115489107054,-13.161108413553293,39.96096228867753,-0.0031,-0.9328,-0.1146,0.3417
311,1687224.0,1664.5451289999999,1.0,-6.75,-1.86,-6.52,24.69,-9.75,30.5,-3.94,-26.25,26.31,-1.2464501551222846,-0.9306289445934692,0.3666928084508552,-137.75115489107054,-13.161108413553293,39.96096228867753,-0.0031,-0.9328,-0.1146,0.3417
312,1687259.0,1664.550714,1.0,-6.27,-0.72,-7.36,26.56,-9.38,30.87,12.06,-4.0,15.0,-0.0713471920639899,-0.049712966292304366,0.11163384740040704,-137.655868969081,-12.676748644427741,40.22932427895751,-0.0044,-0.9325,-0.1104,0.3439
313,1687259.0,1664.550714,1.0,-6.27,-0.72,-7.36,26.56,-9.38,30.87,12.06,-4.0,15.0,-0.0713471920639899,-0.049712966292304366,0.11163384740040704,-137.655868969081,-12.676748644427741,40.22932427895751,-0.0044,-0.9325,-0.1104,0.3439
314,1687293.0,1664.616959,1.0,-6.3,-1.76,-6.84,26.87,-9.0,28.87,7.75,-8.06,24.87,-0.5774260819672874,-1.0725031456242895,0.4210484677331472,-137.6241524258607,-11.674144907935558,40.5589927006499,-0.0036,-0.9324,-0.1017,0.3466
315,1687293.0,1664.616959,1.0,-6.3,-1.76,-6.84,26.87,-9.0,28.87,7.75,-8.06,24.87,-0.5774260819672874,-1.0725031456242895,0.4210484677331472,-137.6241524258607,-11.674144907935558,40.5589927006499,-0.0036,-0.9324,-0.1017,0.3466
316,1687330.0,1664.635731,1.0,-6.87,-0.5,-6.56,27.25,-9.0,30.5,-3.06,-4.19,20.75,-0.905209936600052,0.1717088357193622,0.3392527311400713,-137.56078717941855,-11.04078222065542,40.84009791641019,-0.0076,-0.9322,-0.0962,0.3489
317,1687330.0,1664.635731,1.0,-6.87,-0.5,-6.56,27.25,-9.0,30.5,-3.06,-4.19,20.75,-0.905209936600052,0.1717088357193622,0.3392527311400713,-137.56078717941855,-11.04078222065542,40.84009791641019,-0.0076,-0.9322,-0.0962,0.3489
318,1687363.0,1664.685726,1.0,-6.65,-0.19,-7.19,27.25,-9.0,30.5,-15.69,5.88,15.06,-0.3322708185992443,0.2684429582894581,0.020321041639148163,-137.91042216197232,-10.603384906468607,40.595644110417574,-0.0128,-0.9333,-0.0924,0.3469
319,1687363.0,1664.685726,1.0,-6.65,-0.19,-7.19,27.25,-9.0,30.5,-15.69,5.88,15.06,-0.3322708185992443,0.2684429582894581,0.020321041639148163,-137.91042216197232,-10.603384906468607,40.595644110417574,-0.0128,-0.9333,-0.0924,0.3469
320,1687400.0,1664.704938,1.0,-6.39,-0.53,-7.13,27.25,-10.06,29.56,1.19,-6.63,7.88,-0.2113216553295531,-0.1353732630622525,0.22088361240027327,-137.78296246704429,-10.292697102933527,40.77896631080099,-0.0134,-0.9329,-0.0897,0.3484
321,1687400.0,1664.704938,1.0,-6.39,-0.53,-7.13,27.25,-10.06,29.56,1.19,-6.63,7.88,-0.2113216553295531,-0.1353732630622525,0.22088361240027327,-137.78296246704429,-10.292697102933527,40.77896631080099,-0.0134,-0.9329,-0.0897,0.3484
322,1687437.0,1664.751968,1.0,-6.39,-0.39,-7.43,26.87,-10.06,28.0,-7.75,-15.81,7.94,0.08353432850853748,-0.10665587939417484,-1.8473000972463183e-05,-137.3712305266047,-10.039600263356236,41.26836056402613,-0.0167,-0.9316,-0.0875,0.3524
323,1687437.0,1664.751968,1.0,-6.39,-0.39,-7.43,26.87,-10.06,28.0,-7.75,-15.81,7.94,0.08353432850853748,-0.10665587939417484,-1.8473000972463183e-05,-137.3712305266047,-10.039600263356236,41.26836056402613,-0.0167,-0.9316,-0.0875,0.3524
324,1687470.0,1664.765607,1.0,-6.45,-0.63,-6.95,26.87,-10.06,28.0,-8.06,-4.06,7.38,-0.28632558182001194,-0.3404032802780417,0.3143350416786408,-137.1824741414482,-9.91307033213892,41.47659109099214,-0.019,-0.9309999999999999,-0.0864,0.3541
325,1687470.0,1664.765607,1.0,-6.45,-0.63,-6.95,26.87,-10.06,28.0,-8.06,-4.06,7.38,-0.28632558182001194,-0.3404032802780417,0.3143350416786408,-137.1824741414482,-9.91307033213892,41.47659109099214,-0.019,-0.9309999999999999,-0.0864,0.3541
326,1687504.0,1664.811089,1.0,-6.72,-0.61,-7.01,26.87,-10.88,28.75,0.81,-17.87,3.94,-0.3581906909562875,-0.3326450925209774,0.08905530422605068,-136.7450958533554,-9.683046840720888,41.99165970563765,-0.0203,-0.9296,-0.0844,0.3583
327,1687504.0,1664.811089,1.0,-6.72,-0.61,-7.01,26.87,-10.88,28.75,0.81,-17.87,3.94,-0.3581906909562875,-0.3326450925209774,0.08905530422605068,-136.7450958533554,-9.683046840720888,41.99165970563765,-0.0203,-0.9296,-0.0844,0.3583
328,1687539.0,1664.830113,1.0,-7.08,-0.78,-6.39,26.56,-10.5,28.37,0.37,-9.44,3.19,-1.002137131675178,-0.39754651299800337,0.29851779965060743,-136.43524351543036,-9.441564242690683,42.335532323855574,-0.0195,-0.9286,-0.0823,0.3611
329,1687539.0,1664.830113,1.0,-7.08,-0.78,-6.39,26.56,-10.5,28.37,0.37,-9.44,3.19,-1.002137131675178,-0.39754651299800337,0.29851779965060743,-136.43524351543036,-9.441564242690683,42.335532323855574,-0.0195,-0.9286,-0.0823,0.3611
330,1687576.0,1664.889045,1.0,-6.99,-1.08,-6.29,28.0,-11.25,29.19,0.37,10.63,11.38,-1.0314591376922313,-0.7097659142178081,0.4245966855977787,-136.43524351543036,-9.085166406176855,42.45844069063149,-0.0186,-0.9286,-0.0792,0.3621
331,1687576.0,1664.889045,1.0,-6.99,-1.08,-6.29,28.0,-11.25,29.19,0.37,10.63,11.38,-1.0314591376922313,-0.7097659142178081,0.4245966855977787,-136.43524351543036,-9.085166406176855,42.45844069063149,-0.0186,-0.9286,-0.0792,0.3621
332,1687611.0,1664.934367,1.0,-6.67,0.45,-7.46,28.0,-11.25,29.19,-21.81,-6.81,10.69,0.2038650305816117,0.5472663073648044,-0.19344693143668226,-136.55893204947213,-8.912747665103913,42.36010990852977,-0.0236,-0.929,-0.0777,0.3613
333,1687611.0,1664.934367,1.0,-6.67,0.45,-7.46,28.0,-11.25,29.19,-21.81,-6.81,10.69,0.2038650305816117,0.5472663073648044,-0.19344693143668226,-136.55893204947213,-8.912747665103913,42.36010990852977,-0.0236,-0.929,-0.0777,0.3613
334,1687648.0,1664.953121,1.0,-7.24,-0.12,-6.73,26.56,-10.88,28.06,-0.19,1.31,3.56,-0.7721211192840076,0.09314832984684084,-0.048300652631519725,-136.46613430112782,-8.579461739762628,42.48302850521899,-0.0242,-0.9287,-0.0748,0.3623
335,1687648.0,1664.953121,1.0,-7.24,-0.12,-6.73,26.56,-10.88,28.06,-0.19,1.31,3.56,-0.7721211192840076,0.09314832984684084,-0.048300652631519725,-136.46613430112782,-8.579461739762628,42.48302850521899,-0.0242,-0.9287,-0.0748,0.3623
336,1687683.0,1665.001386,1.0,-6.67,0.08,-7.02,27.69,-11.25,27.5,-3.25,4.0,-1.63,-0.15208482505444992,0.17674346376080555,0.1256721592028196,-136.55893204947213,-8.671395302011161,42.37239946677662,-0.0255,-0.929,-0.0756,0.3614
337,1687683.0,1665.001386,1.0,-6.67,0.08,-7.02,27.69,-11.25,27.5,-3.25,4.0,-1.63,-0.15208482505444992,0.17674346376080555,0.1256721592028196,-136.55893204947213,-8.671395302011161,42.37239946677662,-0.0255,-0.929,-0.0756,0.3614
338,1687717.0,1665.0680439999999,1.0,-6.52,-0.38,-7.48,27.69,-11.25,27.5,-13.06,1.31,1.56,0.15096020232059176,-0.362733974132536,-0.11558941866579532,-136.77619735313192,-8.625427825614647,42.151265384526,-0.0266,-0.9297,-0.0752,0.3596
339,1687717.0,1665.0680439999999,1.0,-6.52,-0.38,-7.48,27.69,-11.25,27.5,-13.06,1.31,1.56,0.15096020232059176,-0.362733974132536,-0.11558941866579532,-136.77619735313192,-8.625427825614647,42.151265384526,-0.0266,-0.9297,-0.0752,0.3596
340,1687752.0,1665.087677,1.0,-6.84,0.59,-7.51,27.69,-10.88,29.19,-21.06,-1.75,-6.06,0.09485208895585212,0.5446087645187594,-0.35347816724425485,-136.65191882638644,-8.95872400294449,42.163546289132256,-0.0322,-0.9293,-0.0781,0.3597
341,1687752.0,1665.087677,1.0,-6.84,0.59,-7.51,27.69,-10.88,29.19,-21.06,-1.75,-6.06,0.09485208895585212,0.5446087645187594,-0.35347816724425485,-136.65191882638644,-8.95872400294449,42.163546289132256,-0.0322,-0.9293,-0.0781,0.3597
342,1687789.0,1665.103826,1.0,-6.77,0.79,-7.53,26.87,-11.56,28.75,16.06,8.25,-15.81,0.17780917264774446,0.78612162043538,-0.3179881019770985,-136.7140156295355,-9.246109154854068,42.028484200807156,-0.0303,-0.9295,-0.0806,0.3586
343,1687789.0,1665.103826,1.0,-6.77,0.79,-7.53,26.87,-11.56,28.75,16.06,8.25,-15.81,0.17780917264774446,0.78612162043538,-0.3179881019770985,-136.7140156295355,-9.246109154854068,42.028484200807156,-0.0303,-0.9295,-0.0806,0.3586
344,1687824.0,1665.142353,1.0,-5.55,-0.63,-8.06,26.87,-11.56,28.75,30.44,11.56,-17.12,1.1478489438138004,-0.6451471921481575,0.08917975807752042,-137.02578084639396,-9.315090195791667,41.7585431287547,-0.0209,-0.9305,-0.0812,0.3564
345,1687824.0,1665.142353,1.0,-5.55,-0.63,-8.06,26.87,-11.56,28.75,30.44,11.56,-17.12,1.1478489438138004,-0.6451471921481575,0.08917975807752042,-137.02578084639396,-9.315090195791667,41.7585431287547,-0.0209,-0.9305,-0.0812,0.3564
346,1687859.0,1665.162576,1.0,-6.37,-0.61,-7.42,27.69,-11.56,28.25,2.88,-11.5,-15.13,0.18131855722308055,-0.33627435666439953,0.01586641859771909,-136.7450958533554,-9.694547078719877,42.01620886419129,-0.0156,-0.9296,-0.0845,0.3585
347,1687859.0,1665.162576,1.0,-6.37,-0.61,-7.42,27.69,-11.56,28.25,2.88,-11.5,-15.13,0.18131855722308055,-0.33627435666439953,0.01586641859771909,-136.7450958533554,-9.694547078719877,42.01620886419129,-0.0156,-0.9296,-0.0845,0.3585
348,1687894.0,1665.212046,1.0,-6.49,-0.92,-7.09,26.87,-11.25,29.06,18.87,2.56,-15.81,-0.14503757890652286,-0.4618212837414241,0.16298445195301525,-136.58990657854866,-9.878564278366849,42.12670509670736,-0.0087,-0.9291,-0.0861,0.3594
349,1687894.0,1665.212046,1.0,-6.49,-0.92,-7.09,26.87,-11.25,29.06,18.87,2.56,-15.81,-0.14503757890652286,-0.4618212837414241,0.16298445195301525,-136.58990657854866,-9.878564278366849,42.12670509670736,-0.0087,-0.9291,-0.0861,0.3594
350,1687930.0,1665.2311359999999,1.0,-6.6,-1.74,-6.99,27.69,-10.06,28.0,16.94,0.63,-10.31,-0.4250483581169324,-1.134955360807567,0.11237796842195637,-136.65191882638644,-10.028097037556813,42.0775906009399,-0.0031,-0.9293,-0.0874,0.359
351,1687930.0,1665.2311359999999,1.0,-6.6,-1.74,-6.99,27.69,-10.06,28.0,16.94,0.63,-10.31,-0.4250483581169324,-1.134955360807567,0.11237796842195637,-136.65191882638644,-10.028097037556813,42.0775906009399,-0.0031,-0.9293,-0.0874,0.359
352,1687963.0,1665.2802140000001,1.0,-6.54,-1.63,-6.82,27.69,-10.06,28.0,5.13,15.25,-5.25,-0.5354598322005233,-0.9497159273137276,0.2802539119976544,-136.99450746728783,-10.13162973120474,41.67270371214475,0.0005,-0.9304,-0.0883,0.3557
353,1687963.0,1665.2802140000001,1.0,-6.54,-1.63,-6.82,27.69,-10.06,28.0,5.13,15.25,-5.25,-0.5354598322005233,-0.9497159273137276,0.2802539119976544,-136.99450746728783,-10.13162973120474,41.67270371214475,0.0005,-0.9304,-0.0883,0.3557
354,1688000.0,1665.302566,1.0,-6.5,-1.25,-7.14,28.75,-8.25,29.06,-3.31,37.5,-11.75,-0.3732843367551735,-0.553511265432932,0.09344331616112987,-137.75115489107054,-10.396251161173769,40.827870624577365,0.0016,-0.9328,-0.0906,0.3488
355,1688000.0,1665.302566,1.0,-6.5,-1.25,-7.14,28.75,-8.25,29.06,-3.31,37.5,-11.75,-0.3732843367551735,-0.553511265432932,0.09344331616112987,-137.75115489107054,-10.396251161173769,40.827870624577365,0.0016,-0.9328,-0.0906,0.3488
356,1688037.0,1665.393393,1.0,-4.97,-0.86,-8.44,26.87,-9.38,29.19,8.13,25.69,-4.5,1.4860815439597994,-0.4143246118795917,0.09614039644710992,-138.87838831455554,-10.396251161173769,39.68064610609173,0.0056,-0.9363,-0.0906,0.3394
357,1688037.0,1665.393393,1.0,-4.97,-0.86,-8.44,26.87,-9.38,29.19,8.13,25.69,-4.5,1.4860815439597994,-0.4143246118795917,0.09614039644710992,-138.87838831455554,-10.396251161173769,39.68064610609173,0.0056,-0.9363,-0.0906,0.3394
358,1688070.0,1665.40655,1.0,-6.01,-0.45,-7.82,26.87,-9.38,29.19,-1.5,-14.88,-1.06,0.4256959837237426,0.20986605746028653,-0.05487823690971183,-138.585728177911,-10.430771068314456,39.96096228867753,0.0062,-0.9354,-0.0909,0.3417
359,1688070.0,1665.40655,1.0,-6.01,-0.45,-7.82,26.87,-9.38,29.19,-1.5,-14.88,-1.06,0.4256959837237426,0.20986605746028653,-0.05487823690971183,-138.585728177911,-10.430771068314456,39.96096228867753,0.0062,-0.9354,-0.0909,0.3417
