,TIME,ELAPSED_SECONDS,PSTATE,acc_x,acc_y,acc_z,mag_x,mag_y,mag_z,gyr_x,gyr_y,gyr_z,lin_x,lin_y,lin_z,eul_x,eul_y,eul_z,qua_w,qua_x,qua_y,qua_z
0,1788950.0,1766.46255,1.0,1.95,0.69,-9.51,-0.25,-15.5,32.88,2.19,-1.94,-0.31,-0.2358050840288019,-0.09383033188993596,0.07760627355064109,-149.20198320614296,-27.501664319152926,-13.426452603767608,-0.0181,-0.9641,-0.2377,-0.1169
1,1788950.0,1766.46255,1.0,1.95,0.69,-9.51,-0.25,-15.5,32.88,2.19,-1.94,-0.31,-0.2358050840288019,-0.09383033188993596,0.07760627355064109,-149.20198320614296,-27.501664319152926,-13.426452603767608,-0.0181,-0.9641,-0.2377,-0.1169
2,1788985.0,1766.489799,1.0,1.97,0.84,-9.47,0.06,-15.06,32.75,0.0,0.37,0.31,-0.13833848659349154,0.03233073082703164,0.0985494037468282,-149.20198320614296,-27.501664319152926,-13.414914406298776,-0.0179,-0.9641,-0.2377,-0.1168
3,1788985.0,1766.489799,1.0,1.97,0.84,-9.47,0.06,-15.06,32.75,0.0,0.37,0.31,-0.13833848659349154,0.03233073082703164,0.0985494037468282,-149.20198320614296,-27.501664319152926,-13.414914406298776,-0.0179,-0.9641,-0.2377,-0.1168
4,1789020.0,1766.5338530000001,1.0,2.22,1.02,-9.67,0.06,-15.06,32.75,-0.63,0.31,0.37,0.1038499997430002,0.08259113165753529,-0.166318158102424,-149.20198320614296,-27.48986718541275,-13.461068017168213,-0.0179,-0.9641,-0.2376,-0.1172
5,1789020.0,1766.5338530000001,1.0,2.22,1.02,-9.67,0.06,-15.06,32.75,-0.63,0.31,0.37,0.1038499997430002,0.08259113165753529,-0.166318158102424,-149.20198320614296,-27.48986718541275,-13.461068017168213,-0.0179,-0.9641,-0.2376,-0.1172
6,1789057.0,1766.539755,1.0,2.06,0.89,-9.61,-0.25,-15.5,31.56,3.25,-1.5,1.44,-0.06465766161937067,0.038925091855614435,-0.06158713861893439,-149.24516700325162,-27.478070348739482,-13.380300633180664,-0.0178,-0.9642,-0.2375,-0.1165
7,1789057.0,1766.539755,1.0,2.06,0.89,-9.61,-0.25,-15.5,31.56,3.25,-1.5,1.44,-0.06465766161937067,0.038925091855614435,-0.06158713861893439,-149.24516700325162,-27.478070348739482,-13.380300633180664,-0.0178,-0.9642,-0.2375,-0.1165
8,1789091.0,1766.597077,1.0,1.71,0.64,-9.29,-0.25,-15.88,32.0,-2.38,-3.25,0.06,-0.3895569527210156,-0.03097159554859702,0.34699429057506137,-149.33171261025748,-27.4544775660039,-13.288003224878931,-0.0178,-0.9644,-0.2373,-0.1157
9,1789091.0,1766.597077,1.0,1.71,0.64,-9.29,-0.25,-15.88,32.0,-2.38,-3.25,0.06,-0.3895569527210156,-0.03097159554859702,0.34699429057506137,-149.33171261025748,-27.4544775660039,-13.288003224878931,-0.0178,-0.9644,-0.2373,-0.1157
10,1789124.0,1766.61516,1.0,1.87,0.92,-9.74,-0.25,-15.88,32.0,-1.5,0.44,-0.31,-0.2243204174830915,0.13943245448322972,-0.1503143436610248,-149.33171261025748,-27.44268161964677,-13.24185777158118,-0.0184,-0.9644,-0.2372,-0.1153
11,1789124.0,1766.61516,1.0,1.87,0.92,-9.74,-0.25,-15.88,32.0,-1.5,0.44,-0.31,-0.2243204174830915,0.13943245448322972,-0.1503143436610248,-149.33171261025748,-27.44268161964677,-13.24185777158118,-0.0184,-0.9644,-0.2372,-0.1153
12,1789161.0,1766.668514,1.0,1.92,0.91,-9.9,-0.56,-15.5,32.0,-0.31,-1.37,-1.63,-0.2122947842703034,0.10102508722515358,-0.3160583755446993,-149.33171261025748,-27.48986718541275,-13.172643633299911,-0.0187,-0.9644,-0.2376,-0.1147
13,1789161.0,1766.668514,1.0,1.92,0.91,-9.9,-0.56,-15.5,32.0,-0.31,-1.37,-1.63,-0.2122947842703034,0.10102508722515358,-0.3160583755446993,-149.33171261025748,-27.48986718541275,-13.172643633299911,-0.0187,-0.9644,-0.2376,-0.1147
14,1789198.0,1766.686834,1.0,1.88,0.86,-9.76,-0.25,-15.88,32.75,4.56,-0.25,-1.5,-0.21669714947621124,0.08682113212565334,-0.16717095470062482,-149.33171261025748,-27.57245336826063,-13.080365619179068,-0.0177,-0.9644,-0.2383,-0.1139
15,1789198.0,1766.686834,1.0,1.88,0.86,-9.76,-0.25,-15.88,32.75,4.56,-0.25,-1.5,-0.21669714947621124,0.08682113212565334,-0.16717095470062482,-149.33171261025748,-27.57245336826063,-13.080365619179068,-0.0177,-0.9644,-0.2383,-0.1139
16,1789231.0,1766.749797,1.0,1.73,0.65,-9.73,-0.25,-15.88,32.75,2.0,-5.38,-2.69,-0.4034631736249107,-0.028493243351348892,-0.08904126451567684,-149.33171261025748,-27.631452438914533,-12.907367253850758,-0.0172,-0.9644,-0.2388,-0.1124
17,1789231.0,1766.749797,1.0,1.73,0.65,-9.73,-0.25,-15.88,32.75,2.0,-5.38,-2.69,-0.4034631736249107,-0.028493243351348892,-0.08904126451567684,-149.33171261025748,-27.631452438914533,-12.907367253850758,-0.0172,-0.9644,-0.2388,-0.1124
18,1789265.0,1766.7536530000002,1.0,1.65,1.04,-9.73,-0.25,-15.88,32.38,0.63,-1.44,-3.75,-0.2703577698449726,0.34602976448996403,-0.10718730340434313,-149.24516700325162,-27.784885032921768,-12.768989848771893,-0.0172,-0.9642,-0.2401,-0.1112
19,1789265.0,1766.7536530000002,1.0,1.65,1.04,-9.73,-0.25,-15.88,32.38,0.63,-1.44,-3.75,-0.2703577698449726,0.34602976448996403,-0.10718730340434313,-149.24516700325162,-27.784885032921768,-12.768989848771893,-0.0172,-0.9642,-0.2401,-0.1112
20,1789300.0,1766.7948920000001,1.0,1.7,1.19,-9.58,-0.25,-15.5,32.0,1.94,-3.94,-7.06,-0.10395510114286248,0.44855004196834747,0.015301972440331825,-149.1588584140195,-27.950176987884003,-12.653689634339962,-0.017,-0.9640000000000001,-0.2415,-0.1102
21,1789300.0,1766.7948920000001,1.0,1.7,1.19,-9.58,-0.25,-15.5,32.0,1.94,-3.94,-7.06,-0.10395510114286248,0.44855004196834747,0.015301972440331825,-149.1588584140195,-27.950176987884003,-12.653689634339962,-0.017,-0.9640000000000001,-0.2415,-0.1102
22,1789337.0,1766.851152,1.0,1.7,0.94,-9.47,0.5,-14.75,30.69,7.38,-0.37,-8.5,-0.16380947134115567,0.2305469660381085,0.14360107362331576,-148.90133503664836,-28.292756752714663,-12.492290914481535,-0.0161,-0.9634,-0.2444,-0.1088
23,1789337.0,1766.851152,1.0,1.7,0.94,-9.47,0.5,-14.75,30.69,7.38,-0.37,-8.5,-0.16380947134115567,0.2305469660381085,0.14360107362331576,-148.90133503664836,-28.292756752714663,-12.492290914481535,-0.0161,-0.9634,-0.2444,-0.1088
24,1789370.0,1766.910196,1.0,1.81,0.76,-9.35,0.5,-14.75,30.69,2.81,1.75,-9.88,-0.11757979643989135,0.029783016758013536,0.2535621241672885,-148.68831050830863,-28.576466242296,-12.457708722341449,-0.0151,-0.9629,-0.2468,-0.1085
25,1789370.0,1766.910196,1.0,1.81,0.76,-9.35,0.5,-14.75,30.69,2.81,1.75,-9.88,-0.11757979643989135,0.029783016758013536,0.2535621241672885,-148.68831050830863,-28.576466242296,-12.457708722341449,-0.0151,-0.9629,-0.2468,-0.1085
26,1789407.0,1766.926766,1.0,2.17,0.88,-9.43,-0.25,-15.5,31.5,5.31,2.75,-8.69,0.22467492836955444,-0.01892636215094512,0.09287818008484017,-148.30838490049834,-28.95502437185985,-12.515346343653171,-0.0139,-0.9620000000000001,-0.25,-0.109
27,1789407.0,1766.926766,1.0,2.17,0.88,-9.43,-0.25,-15.5,31.5,5.31,2.75,-8.69,0.22467492836955444,-0.01892636215094512,0.09287818008484017,-148.30838490049834,-28.95502437185985,-12.515346343653171,-0.0139,-0.9620000000000001,-0.25,-0.109
28,1789442.0,1766.966216,1.0,2.33,0.95,-9.7,0.5,-15.88,32.0,2.75,-1.44,-8.81,0.33510869615542016,-0.0262481201194793,-0.20875878835962425,-148.0575479662478,-29.227312357898,-12.526874248925028,-0.0135,-0.9614,-0.2523,-0.1091
29,1789442.0,1766.966216,1.0,2.33,0.95,-9.7,0.5,-15.88,32.0,2.75,-1.44,-8.81,0.33510869615542016,-0.0262481201194793,-0.20875878835962425,-148.0575479662478,-29.227312357898,-12.526874248925028,-0.0135,-0.9614,-0.2523,-0.1091
30,1789476.0,1766.97331,1.0,2.28,0.45,-9.5,0.5,-15.88,32.0,1.75,1.56,-5.44,0.10675511125739544,-0.4248048501353656,0.036335563630927936,-147.84997349806363,-29.487919662093987,-12.480763390340035,-0.0121,-0.9609,-0.2545,-0.1087
31,1789476.0,1766.97331,1.0,2.28,0.45,-9.5,0.5,-15.88,32.0,1.75,1.56,-5.44,0.10675511125739544,-0.4248048501353656,0.036335563630927936,-147.84997349806363,-29.487919662093987,-12.480763390340035,-0.0121,-0.9609,-0.2545,-0.1087
32,1789511.0,1767.0328829999999,1.0,2.21,0.53,-9.48,0.5,-15.5,33.25,0.56,3.44,-3.94,0.07995549331374728,-0.3217850648839551,0.06368015035422836,-147.68484875398153,-29.630134776789287,-12.538402281482075,-0.0121,-0.9605,-0.2557,-0.1092
33,1789511.0,1767.0328829999999,1.0,2.21,0.53,-9.48,0.5,-15.5,33.25,0.56,3.44,-3.94,0.07995549331374728,-0.3217850648839551,0.06368015035422836,-147.68484875398153,-29.630134776789287,-12.538402281482075,-0.0121,-0.9605,-0.2557,-0.1092
34,1789548.0,1767.0501350000002,1.0,2.09,0.39,-9.27,0.06,-15.5,31.06,-2.44,4.63,-1.31,-0.0711482310638942,-0.3698886701117324,0.3034284251371133,-147.52054122823532,-29.701259829199124,-12.7228682118641,-0.0113,-0.9601,-0.2563,-0.1108
35,1789548.0,1767.0501350000002,1.0,2.09,0.39,-9.27,0.06,-15.5,31.06,-2.44,4.63,-1.31,-0.0711482310638942,-0.3698886701117324,0.3034284251371133,-147.52054122823532,-29.701259829199124,-12.7228682118641,-0.0113,-0.9601,-0.2563,-0.1108
36,1789581.0,1767.088202,1.0,1.95,0.49,-9.57,0.06,-15.5,31.06,-0.5,5.81,0.19,-0.22668777146914496,-0.18972871311387288,0.03218757643488068,-147.4795905833761,-29.701259829199124,-12.861239362009446,-0.0109,-0.96,-0.2563,-0.11199999999999999
37,1789581.0,1767.088202,1.0,1.95,0.49,-9.57,0.06,-15.5,31.06,-0.5,5.81,0.19,-0.22668777146914496,-0.18972871311387288,0.03218757643488068,-147.4795905833761,-29.701259829199124,-12.861239362009446,-0.0109,-0.96,-0.2563,-0.11199999999999999
38,1789614.0,1767.1042329999998,1.0,2.09,0.8,-9.77,0.88,-15.06,32.38,-4.88,3.75,-1.63,-0.03857974720109328,0.017109329306397636,-0.2162846438035082,-147.39783944401512,-29.701259829199124,-13.06883146764636,-0.0114,-0.9598,-0.2563,-0.1138
39,1789614.0,1767.1042329999998,1.0,2.09,0.8,-9.77,0.88,-15.06,32.38,-4.88,3.75,-1.63,-0.03857974720109328,0.017109329306397636,-0.2162846438035082,-147.39783944401512,-29.701259829199124,-13.06883146764636,-0.0114,-0.9598,-0.2563,-0.1138
40,1789650.0,1767.145938,1.0,2.1,0.63,-9.62,-0.25,-15.5,32.38,1.81,9.5,-1.06,-0.10266923915324176,-0.119125492329905,-0.058772856847488335,-147.31628725286762,-29.72497078004789,-13.230321745568984,-0.0106,-0.9596,-0.2565,-0.1152
41,1789650.0,1767.145938,1.0,2.1,0.63,-9.62,-0.25,-15.5,32.38,1.81,9.5,-1.06,-0.10266923915324176,-0.119125492329905,-0.058772856847488335,-147.31628725286762,-29.72497078004789,-13.230321745568984,-0.0106,-0.9596,-0.2565,-0.1152
42,1789685.0,1767.165167,1.0,1.8,0.77,-9.53,-0.25,-15.5,32.38,-0.56,-0.31,-3.19,-0.2767818715559188,0.15217113703399476,0.08276005098105088,-147.15377378773437,-29.85540431723644,-13.299539926123945,-0.0104,-0.9592,-0.2576,-0.1158
43,1789685.0,1767.165167,1.0,1.8,0.77,-9.53,-0.25,-15.5,32.38,-0.56,-0.31,-3.19,-0.2767818715559188,0.15217113703399476,0.08276005098105088,-147.15377378773437,-29.85540431723644,-13.299539926123945,-0.0104,-0.9592,-0.2576,-0.1158
44,1789720.0,1767.222106,1.0,2.2,0.6,-10.0,0.88,-15.06,32.06,4.5,5.69,-3.75,-0.15384799438464491,-0.1396706656305301,-0.44795008482954657,-146.992038514199,-29.96215210560615,-13.47260676237266,-0.0089,-0.9588,-0.2585,-0.1173
45,1789720.0,1767.222106,1.0,2.2,0.6,-10.0,0.88,-15.06,32.06,4.5,5.69,-3.75,-0.15384799438464491,-0.1396706656305301,-0.44795008482954657,-146.992038514199,-29.96215210560615,-13.47260676237266,-0.0089,-0.9588,-0.2585,-0.1173
46,1789755.0,1767.2626510000002,1.0,1.75,0.6,-9.68,-0.25,-15.5,32.75,4.88,2.63,-7.69,-0.4552433122652837,0.09445447233282016,-0.03757327455518755,-146.71084020226166,-30.258813745298948,-13.495684664619233,-0.0075,-0.9581,-0.261,-0.1175
47,1789755.0,1767.2626510000002,1.0,1.75,0.6,-9.68,-0.25,-15.5,32.75,4.88,2.63,-7.69,-0.4552433122652837,0.09445447233282016,-0.03757327455518755,-146.71084020226166,-30.258813745298948,-13.495684664619233,-0.0075,-0.9581,-0.261,-0.1175
48,1789790.0,1767.318061,1.0,1.96,-0.06,-9.7,-0.25,-15.06,32.0,11.06,3.5,-8.81,-0.6071742705908252,-0.5302227795564783,-0.056686312281554414,-146.47163743677675,-30.54380438300529,-13.51876311679545,-0.0048,-0.9575,-0.2634,-0.1177
49,1789790.0,1767.318061,1.0,1.96,-0.06,-9.7,-0.25,-15.06,32.0,11.06,3.5,-8.81,-0.6071742705908252,-0.5302227795564783,-0.056686312281554414,-146.47163743677675,-30.54380438300529,-13.51876311679545,-0.0048,-0.9575,-0.2634,-0.1177
50,1789825.0,1767.3430629999998,1.0,1.89,-0.29,-9.92,-0.25,-15.06,32.0,8.63,0.44,-11.44,-0.8162068910763148,-0.6380965818555779,-0.2426902302431664,-146.07660730478975,-31.00732816596471,-13.461068017168213,-0.0023,-0.9565,-0.2673,-0.1172
51,1789825.0,1767.3430629999998,1.0,1.89,-0.29,-9.92,-0.25,-15.06,32.0,8.63,0.44,-11.44,-0.8162068910763148,-0.6380965818555779,-0.2426902302431664,-146.07660730478975,-31.00732816596471,-13.461068017168213,-0.0023,-0.9565,-0.2673,-0.1172
52,1789861.0,1767.3846019999999,1.0,1.68,-0.63,-9.88,-0.25,-14.38,31.56,9.38,-0.63,-9.25,-1.1397524758539634,-0.7908526169476162,-0.13866127879122206,-145.8027223342799,-31.316632714824518,-13.391838421127119,-0.0004,-0.9558,-0.2699,-0.1166
53,1789861.0,1767.3846019999999,1.0,1.68,-0.63,-9.88,-0.25,-14.38,31.56,9.38,-0.63,-9.25,-1.1397524758539634,-0.7908526169476162,-0.13866127879122206,-145.8027223342799,-31.316632714824518,-13.391838421127119,-0.0004,-0.9558,-0.2699,-0.1166
54,1789896.0,1767.4008239999998,1.0,1.71,-0.86,-9.69,-0.25,-15.06,33.19,10.75,-2.63,-8.5,-1.1515347485113818,-0.9708079961885806,0.04492374090488482,-145.53094905314887,-31.697637029521523,-13.184178987120148,0.0024,-0.9551,-0.2731,-0.1148
55,1789896.0,1767.4008239999998,1.0,1.71,-0.86,-9.69,-0.25,-15.06,33.19,10.75,-2.63,-8.5,-1.1515347485113818,-0.9708079961885806,0.04492374090488482,-145.53094905314887,-31.697637029521523,-13.184178987120148,0.0024,-0.9551,-0.2731,-0.1148
56,1789931.0,1767.455191,1.0,1.67,-1.16,-9.97,-0.25,-15.06,33.19,23.56,-8.19,-4.88,-1.340028078886058,-1.1379198194331233,-0.21556847857739392,-145.41510886588998,-31.971705924950353,-12.872771138472865,0.0056,-0.9548,-0.2754,-0.1121
57,1789931.0,1767.455191,1.0,1.67,-1.16,-9.97,-0.25,-15.06,33.19,23.56,-8.19,-4.88,-1.340028078886058,-1.1379198194331233,-0.21556847857739392,-145.41510886588998,-31.971705924950353,-12.872771138472865,0.0056,-0.9548,-0.2754,-0.1121
58,1789966.0,1767.473207,1.0,1.22,-2.4,-9.89,0.06,-13.25,33.56,27.56,-6.81,3.69,-2.2119324674479395,-1.824452438811672,-0.0340424582553549,-145.53094905314887,-32.007467853657644,-12.296340166976414,0.013999999999999999,-0.9551,-0.2757,-0.1071
59,1789966.0,1767.473207,1.0,1.22,-2.4,-9.89,0.06,-13.25,33.56,27.56,-6.81,3.69,-2.2119324674479395,-1.824452438811672,-0.0340424582553549,-145.53094905314887,-32.007467853657644,-12.296340166976414,0.013999999999999999,-0.9551,-0.2757,-0.1071
60,1790001.0,1767.5614699999999,1.0,0.27,-4.52,-8.51,1.19,-14.38,33.25,35.63,-6.19,19.75,-3.7315144480614713,-3.1450198213540896,1.493524820670725,-145.95896619488119,-31.6738137680446,-11.835420883076136,0.022000000000000002,-0.9562,-0.2729,-0.1031
61,1790001.0,1767.5614699999999,1.0,0.27,-4.52,-8.51,1.19,-14.38,33.25,35.63,-6.19,19.75,-3.7315144480614713,-3.1450198213540896,1.493524820670725,-145.95896619488119,-31.6738137680446,-11.835420883076136,0.022000000000000002,-0.9562,-0.2729,-0.1031
62,1790038.0,1767.609147,1.0,-0.74,-5.24,-6.87,0.88,-12.5,33.56,17.37,-1.94,39.06,-4.502381101060922,-3.378300937830801,3.2098517467364527,-147.15377378773437,-30.47253865250361,-11.455307417011952,0.0303,-0.9592,-0.2628,-0.0998
63,1790038.0,1767.609147,1.0,-0.74,-5.24,-6.87,0.88,-12.5,33.56,17.37,-1.94,39.06,-4.502381101060922,-3.378300937830801,3.2098517467364527,-147.15377378773437,-30.47253865250361,-11.455307417011952,0.0303,-0.9592,-0.2628,-0.0998
64,1790072.0,1767.6579559999998,1.0,-1.74,-4.61,-6.31,0.88,-12.5,33.56,-23.37,32.19,39.81,-4.929702356513349,-2.485499356676729,4.008708328669884,-148.0575479662478,-29.250997524768877,-12.088902226339815,0.0296,-0.9614,-0.2525,-0.1053
65,1790072.0,1767.6579559999998,1.0,-1.74,-4.61,-6.31,0.88,-12.5,33.56,-23.37,32.19,39.81,-4.929702356513349,-2.485499356676729,4.008708328669884,-148.0575479662478,-29.250997524768877,-12.088902226339815,0.0296,-0.9614,-0.2525,-0.1053
66,1790109.0,1767.6653850000002,1.0,0.28,-2.59,-7.56,0.5,-11.0,33.56,-60.44,73.5,20.31,-2.7798947058865,-1.6402939817369462,2.4907959092145813,-148.0992206918234,-27.950176987884003,-14.835175731606341,0.0208,-0.9615,-0.2415,-0.1291
67,1790109.0,1767.6653850000002,1.0,0.28,-2.59,-7.56,0.5,-11.0,33.56,-60.44,73.5,20.31,-2.7798947058865,-1.6402939817369462,2.4907959092145813,-148.0992206918234,-27.950176987884003,-14.835175731606341,0.0208,-0.9615,-0.2415,-0.1291
68,1790144.0,1767.681536,1.0,1.13,-1.89,-8.66,-2.06,-12.5,32.0,-72.75,59.94,10.44,-2.3627517141294696,-1.4451736878167938,1.3111525249005975,-147.72605283657722,-27.053580833430228,-17.26544349477142,0.0081,-0.9606,-0.2339,-0.1501
69,1790144.0,1767.681536,1.0,1.13,-1.89,-8.66,-2.06,-12.5,32.0,-72.75,59.94,10.44,-2.3627517141294696,-1.4451736878167938,1.3111525249005975,-147.72605283657722,-27.053580833430228,-17.26544349477142,0.0081,-0.9606,-0.2339,-0.1501
70,1790179.0,1767.685307,1.0,-0.31,-0.88,-6.76,-2.06,-12.5,32.0,-131.5,73.5,9.69,-2.955124478384903,-0.3849190143935512,3.6676617552149815,-146.79094642726758,-26.06456338881546,-20.087487431641744,-0.0203,-0.9583,-0.2255,-0.1744
71,1790179.0,1767.685307,1.0,-0.31,-0.88,-6.76,-2.06,-12.5,32.0,-131.5,73.5,9.69,-2.955124478384903,-0.3849190143935512,3.6676617552149815,-146.79094642726758,-26.06456338881546,-20.087487431641744,-0.0203,-0.9583,-0.2255,-0.1744
72,1790214.0,1767.72607,1.0,3.0,4.23,-8.88,-4.38,-15.06,32.75,-109.62,124.94,10.25,0.1670292198976815,2.570172291148803,-0.14893213433605898,-143.68372432172094,-24.819321185763364,-25.47680417585264,-0.0476,-0.9502,-0.2149,-0.2205
73,1790214.0,1767.72607,1.0,3.0,4.23,-8.88,-4.38,-15.06,32.75,-109.62,124.94,10.25,0.1670292198976815,2.570172291148803,-0.14893213433605898,-143.68372432172094,-24.819321185763364,-25.47680417585264,-0.0476,-0.9502,-0.2149,-0.2205
74,1790251.0,1767.743352,1.0,3.0,-0.64,-5.11,-7.75,-17.87,30.69,-55.69,61.5,41.06,-0.2684090618148216,-1.7340933773513794,4.110811454696791,-142.88329260111254,-23.179187018494158,-28.080090858618394,-0.0452,-0.948,-0.2009,-0.2426
75,1790251.0,1767.743352,1.0,3.0,-0.64,-5.11,-7.75,-17.87,30.69,-55.69,61.5,41.06,-0.2684090618148216,-1.7340933773513794,4.110811454696791,-142.88329260111254,-23.179187018494158,-28.080090858618394,-0.0452,-0.948,-0.2009,-0.2426
76,1790285.0,1767.786764,1.0,3.03,4.44,-5.72,-7.75,-17.87,30.69,-175.56,116.81,-10.63,0.4185057163356659,2.5216875677881148,2.3851377029100576,-138.585728177911,-21.765523710742034,-33.22530683110648,-0.087,-0.9354,-0.1888,-0.2859
77,1790285.0,1767.786764,1.0,3.03,4.44,-5.72,-7.75,-17.87,30.69,-175.56,116.81,-10.63,0.4185057163356659,2.5216875677881148,2.3851377029100576,-138.585728177911,-21.765523710742034,-33.22530683110648,-0.087,-0.9354,-0.1888,-0.2859
78,1790320.0,1767.833563,1.0,3.88,4.47,-3.84,-11.06,-18.19,30.25,-86.06,155.38,39.0,1.5123644416079318,2.317416576223832,3.3164085400847427,-134.5590130176977,-20.459995384570266,-38.306987464775865,-0.0995,-0.9224,-0.1776,-0.3281
79,1790320.0,1767.833563,1.0,3.88,4.47,-3.84,-11.06,-18.19,30.25,-86.06,155.38,39.0,1.5123644416079318,2.317416576223832,3.3164085400847427,-134.5590130176977,-20.459995384570266,-38.306987464775865,-0.0995,-0.9224,-0.1776,-0.3281
80,1790357.0,1767.851882,1.0,8.87,5.03,-5.6,-13.38,-21.06,25.87,-57.19,100.19,33.13,2.908480722051484,0.8488790326844353,-1.4253553542243136,-129.40467932878911,-19.180388694494322,-44.469220271844826,-0.10800000000000001,-0.9041,-0.1666,-0.3784
81,1790357.0,1767.851882,1.0,8.87,5.03,-5.6,-13.38,-21.06,25.87,-57.19,100.19,33.13,2.908480722051484,0.8488790326844353,-1.4253553542243136,-129.40467932878911,-19.180388694494322,-44.469220271844826,-0.10800000000000001,-0.9041,-0.1666,-0.3784
82,1790394.0,1767.909091,1.0,7.47,6.13,-4.63,-18.25,-22.25,22.56,-65.94,47.13,12.75,2.4376887571328814,2.443954277758293,-0.3372871553443151,-127.71474062830828,-17.648026557290144,-46.50700231874489,-0.1211,-0.8977,-0.1534,-0.3948
83,1790394.0,1767.909091,1.0,7.47,6.13,-4.63,-18.25,-22.25,22.56,-65.94,47.13,12.75,2.4376887571328814,2.443954277758293,-0.3372871553443151,-127.71474062830828,-17.648026557290144,-46.50700231874489,-0.1211,-0.8977,-0.1534,-0.3948
84,1790429.0,1767.9688469999999,1.0,8.13,8.51,-3.06,-18.25,-22.25,22.56,-37.88,56.56,24.94,3.983448659455812,4.6200569464020615,-0.7132269284379795,-126.20062569892963,-16.338764939656073,-48.371981330891565,-0.1287,-0.8918,-0.1421,-0.4097
85,1790429.0,1767.9688469999999,1.0,8.13,8.51,-3.06,-18.25,-22.25,22.56,-37.88,56.56,24.94,3.983448659455812,4.6200569464020615,-0.7132269284379795,-126.20062569892963,-16.338764939656073,-48.371981330891565,-0.1287,-0.8918,-0.1421,-0.4097
86,1790464.0,1767.981914,1.0,10.97,4.62,-7.16,-19.25,-22.37,21.25,55.44,125.44,4.5,1.179752981240373,-0.12891828093994562,-4.033236667891972,-122.75621380444773,-17.137959104392678,-52.348173087212714,-0.1123,-0.8778,-0.149,-0.4411
87,1790464.0,1767.981914,1.0,10.97,4.62,-7.16,-19.25,-22.37,21.25,55.44,125.44,4.5,1.179752981240373,-0.12891828093994562,-4.033236667891972,-122.75621380444773,-17.137959104392678,-52.348173087212714,-0.1123,-0.8778,-0.149,-0.4411
88,1790500.0,1767.991494,1.0,8.58,3.72,-2.51,-22.56,-21.87,21.25,-22.25,43.69,32.31,3.1995465940904464,0.3597602283771277,0.6749264950792391,-121.43061785942284,-16.998909587512788,-54.117000476338404,-0.1022,-0.8722,-0.1478,-0.4549
89,1790500.0,1767.991494,1.0,8.58,3.72,-2.51,-22.56,-21.87,21.25,-22.25,43.69,32.31,3.1995465940904464,0.3597602283771277,0.6749264950792391,-121.43061785942284,-16.998909587512788,-54.117000476338404,-0.1022,-0.8722,-0.1478,-0.4549
90,1790537.0,1768.0321780000002,1.0,12.13,2.34,-6.64,-22.56,-21.87,21.25,-11.44,81.19,17.62,0.8526556738300155,-2.207811591088108,-4.017265736148806,-119.10638959402516,-16.19985740781584,-56.84895982984303,-0.1022,-0.8621,-0.1409,-0.47600000000000003
91,1790537.0,1768.0321780000002,1.0,12.13,2.34,-6.64,-22.56,-21.87,21.25,-11.44,81.19,17.62,0.8526556738300155,-2.207811591088108,-4.017265736148806,-119.10638959402516,-16.19985740781584,-56.84895982984303,-0.1022,-0.8621,-0.1409,-0.47600000000000003
92,1790570.0,1768.091187,1.0,10.56,3.82,-3.82,-24.37,-19.56,21.37,-85.12,-49.31,33.94,2.630639892282676,-0.15985889308966916,-1.7584950008822275,-119.31022017941788,-14.788953503219902,-56.77079436287129,-0.1129,-0.863,-0.1287,-0.4754
93,1790570.0,1768.091187,1.0,10.56,3.82,-3.82,-24.37,-19.56,21.37,-85.12,-49.31,33.94,2.630639892282676,-0.15985889308966916,-1.7584950008822275,-119.31022017941788,-14.788953503219902,-56.77079436287129,-0.1129,-0.863,-0.1287,-0.4754
94,1790607.0,1768.1083019999999,1.0,10.4,6.62,-4.83,-26.19,-21.75,21.5,-48.31,-46.81,33.0,2.094624446066574,2.495750360868976,-3.0267859610418717,-121.12678863705332,-11.789339646395064,-55.097091918968275,-0.1307,-0.8709,-0.1027,-0.4625
95,1790607.0,1768.1083019999999,1.0,10.4,6.62,-4.83,-26.19,-21.75,21.5,-48.31,-46.81,33.0,2.094624446066574,2.495750360868976,-3.0267859610418717,-121.12678863705332,-11.789339646395064,-55.097091918968275,-0.1307,-0.8709,-0.1027,-0.4625
96,1790644.0,1768.1490670000003,1.0,9.88,2.37,-4.9,-26.69,-21.69,22.19,-63.88,-18.19,6.38,1.5730409478479308,-1.4198984829466406,-1.2726428688847076,-121.47748834883792,-10.568860221135683,-54.64519627292022,-0.1409,-0.8724,-0.0921,-0.45899999999999996
97,1790644.0,1768.1490670000003,1.0,9.88,2.37,-4.9,-26.69,-21.69,22.19,-63.88,-18.19,6.38,1.5730409478479308,-1.4198984829466406,-1.2726428688847076,-121.47748834883792,-10.568860221135683,-54.64519627292022,-0.1409,-0.8724,-0.0921,-0.45899999999999996
98,1790679.0,1768.211532,1.0,10.28,5.28,-6.18,-26.69,-21.69,22.19,-133.75,-82.0,19.5,0.8746437974343741,0.5590917970557792,-3.2574846667153783,-121.87727845049913,-7.8212153932673,-53.218059503427035,-0.1749,-0.8741,-0.0682,-0.4479
99,1790679.0,1768.211532,1.0,10.28,5.28,-6.18,-26.69,-21.69,22.19,-133.75,-82.0,19.5,0.8746437974343741,0.5590917970557792,-3.2574846667153783,-121.87727845049913,-7.8212153932673,-53.218059503427035,-0.1749,-0.8741,-0.0682,-0.4479
100,1790713.0,1768.2780899999998,1.0,8.52,7.46,-3.83,-26.87,-22.75,23.06,-72.06,-70.87,25.19,1.69697131053769,3.5494044417303288,-1.481968891619866,-123.11607559607694,-5.536926565771378,-51.18910455675295,-0.1948,-0.8793,-0.0483,-0.43200000000000005
101,1790713.0,1768.2780899999998,1.0,8.52,7.46,-3.83,-26.87,-22.75,23.06,-72.06,-70.87,25.19,1.69697131053769,3.5494044417303288,-1.481968891619866,-123.11607559607694,-5.536926565771378,-51.18910455675295,-0.1948,-0.8793,-0.0483,-0.43200000000000005
102,1790750.0,1768.297843,1.0,7.28,4.66,-4.21,-26.06,-26.0,23.19,-0.5,13.88,-6.0,0.8836891564554588,1.0337898369412954,0.2888523530755833,-123.09201996316364,-4.71104003397371,-50.51663080170575,-0.2078,-0.8792,-0.0411,-0.4267
103,1790750.0,1768.297843,1.0,7.28,4.66,-4.21,-26.06,-26.0,23.19,-0.5,13.88,-6.0,0.8836891564554588,1.0337898369412954,0.2888523530755833,-123.09201996316364,-4.71104003397371,-50.51663080170575,-0.2078,-0.8792,-0.0411,-0.4267
104,1790785.0,1768.301298,1.0,8.53,4.51,-4.83,-26.06,-26.0,23.19,-44.19,11.81,-2.0,1.1192209052870792,0.2460377589000111,-0.9225955460001388,-122.35085755126808,-4.6192907619204595,-50.88435563772038,-0.2151,-0.8761,-0.0403,-0.4296
105,1790785.0,1768.301298,1.0,8.53,4.51,-4.83,-26.06,-26.0,23.19,-44.19,11.81,-2.0,1.1192209052870792,0.2460377589000111,-0.9225955460001388,-122.35085755126808,-4.6192907619204595,-50.88435563772038,-0.2151,-0.8761,-0.0403,-0.4296
106,1790820.0,1768.345434,1.0,7.86,5.66,-5.49,-25.69,-27.0,24.0,-23.0,20.12,-5.06,-0.11743974467505636,1.0340745930272162,-1.2781232336943322,-121.24347666895369,-4.000057708800217,-51.37976979085595,-0.2269,-0.8714,-0.0349,-0.4335
107,1790820.0,1768.345434,1.0,7.86,5.66,-5.49,-25.69,-27.0,24.0,-23.0,20.12,-5.06,-0.11743974467505636,1.0340745930272162,-1.2781232336943322,-121.24347666895369,-4.000057708800217,-51.37976979085595,-0.2269,-0.8714,-0.0349,-0.4335
108,1790855.0,1768.3641129999999,1.0,7.3,2.59,-4.34,-25.19,-27.56,22.75,-25.31,24.06,-24.62,0.7268735933486499,-1.353258123466227,1.061705904663247,-119.99417813762396,-4.573417240623146,-52.054682916137764,-0.2365,-0.866,-0.0399,-0.4388
109,1790855.0,1768.3641129999999,1.0,7.3,2.59,-4.34,-25.19,-27.56,22.75,-25.31,24.06,-24.62,0.7268735933486499,-1.353258123466227,1.061705904663247,-119.99417813762396,-4.573417240623146,-52.054682916137764,-0.2365,-0.866,-0.0399,-0.4388
110,1790892.0,1768.4022519999999,1.0,7.22,4.69,-3.32,-23.37,-28.87,23.19,-104.44,-12.94,-34.25,1.137292346349187,0.5447958438593661,0.6657165899236972,-118.74553859011928,-4.298191253728037,-51.67242009850218,-0.2611,-0.8605,-0.0375,-0.4358
111,1790892.0,1768.4022519999999,1.0,7.22,4.69,-3.32,-23.37,-28.87,23.19,-104.44,-12.94,-34.25,1.137292346349187,0.5447958438593661,0.6657165899236972,-118.74553859011928,-4.298191253728037,-51.67242009850218,-0.2611,-0.8605,-0.0375,-0.4358
112,1790926.0,1768.413551,1.0,7.76,8.19,-5.14,-23.37,-28.87,23.19,-89.25,8.31,-22.75,-0.7646223065958668,2.0134453586696366,-2.4029646751610354,-116.64120406641233,-3.5987664920103746,-51.77429627625306,-0.2903,-0.851,-0.0314,-0.4366
113,1790926.0,1768.413551,1.0,7.76,8.19,-5.14,-23.37,-28.87,23.19,-89.25,8.31,-22.75,-0.7646223065958668,2.0134453586696366,-2.4029646751610354,-116.64120406641233,-3.5987664920103746,-51.77429627625306,-0.2903,-0.851,-0.0314,-0.4366
114,1790963.0,1768.4630920000002,1.0,7.05,4.48,-3.28,-23.25,-32.38,21.87,-42.31,66.06,-63.81,0.8019627881237158,-0.30759004355958863,0.8739267841174065,-114.6401464115957,-4.860139072417077,-52.85947382737936,-0.3027,-0.8417,-0.0424,-0.4451
115,1790963.0,1768.4630920000002,1.0,7.05,4.48,-3.28,-23.25,-32.38,21.87,-42.31,66.06,-63.81,0.8019627881237158,-0.30759004355958863,0.8739267841174065,-114.6401464115957,-4.860139072417077,-52.85947382737936,-0.3027,-0.8417,-0.0424,-0.4451
116,1791000.0,1768.5176179999999,1.0,7.25,6.98,-3.21,-22.56,-35.56,18.69,-122.06,31.75,-107.19,0.26680231990830505,0.7264280554293436,-0.7284398810772696,-110.65153929836842,-6.764830589593756,-53.60288337963247,-0.3419,-0.8224,-0.059000000000000004,-0.4509
117,1791000.0,1768.5176179999999,1.0,7.25,6.98,-3.21,-22.56,-35.56,18.69,-122.06,31.75,-107.19,0.26680231990830505,0.7264280554293436,-0.7284398810772696,-110.65153929836842,-6.764830589593756,-53.60288337963247,-0.3419,-0.8224,-0.059000000000000004,-0.4509
118,1791035.0,1768.580172,1.0,7.57,8.66,-3.81,-22.56,-35.56,18.69,-87.25,52.94,-148.0,-0.3750433873606268,0.4930740136716602,-2.2942929580772238,-107.4913564581971,-8.95872400294449,-53.17961278851925,-0.3786,-0.8064,-0.0781,-0.4476
119,1791035.0,1768.580172,1.0,7.57,8.66,-3.81,-22.56,-35.56,18.69,-87.25,52.94,-148.0,-0.3750433873606268,0.4930740136716602,-2.2942929580772238,-107.4913564581971,-8.95872400294449,-53.17961278851925,-0.3786,-0.8064,-0.0781,-0.4476
120,1791070.0,1768.5995289999998,1.0,8.36,5.27,-3.66,-19.19,-40.0,14.88,-68.25,87.87,-157.94,0.7779009047876756,-3.428394199239282,-0.12809123452407434,-102.46623177403809,-14.199829470388696,-53.692769431450216,-0.4158,-0.7797,-0.1236,-0.4516
121,1791070.0,1768.5995289999998,1.0,8.36,5.27,-3.66,-19.19,-40.0,14.88,-68.25,87.87,-157.94,0.7779009047876756,-3.428394199239282,-0.12809123452407434,-102.46623177403809,-14.199829470388696,-53.692769431450216,-0.4158,-0.7797,-0.1236,-0.4516
122,1791105.0,1768.602813,1.0,6.28,12.86,-2.02,-13.69,-41.75,12.0,-177.88,-7.63,-207.19,-0.41152668831247,1.0191987248486978,-4.60481348377129,-96.45571791729996,-17.566856150665245,-51.278062716299324,-0.4829,-0.7458,-0.1527,-0.4327
123,1791105.0,1768.602813,1.0,6.28,12.86,-2.02,-13.69,-41.75,12.0,-177.88,-7.63,-207.19,-0.41152668831247,1.0191987248486978,-4.60481348377129,-96.45571791729996,-17.566856150665245,-51.278062716299324,-0.4829,-0.7458,-0.1527,-0.4327
124,1791141.0,1768.643943,1.0,4.04,10.02,-0.8,-7.75,-46.25,6.25,14.31,59.44,-134.5,0.16416351441757904,0.8007832002992652,-0.9958402965312844,-93.55504179839458,-21.25230621784773,-49.089017824092124,-0.5122,-0.7287,-0.1844,-0.4154
125,1791141.0,1768.643943,1.0,4.04,10.02,-0.8,-7.75,-46.25,6.25,14.31,59.44,-134.5,0.16416351441757904,0.8007832002992652,-0.9958402965312844,-93.55504179839458,-21.25230621784773,-49.089017824092124,-0.5122,-0.7287,-0.1844,-0.4154
126,1791176.0,1768.7028460000001,1.0,4.9,11.11,-1.0,-7.75,-46.25,6.25,15.06,90.69,-51.56,0.4817022177863735,0.05814778431191048,-2.367366667006797,-91.36838194343346,-25.00708778933191,-50.111510359679706,-0.5118,-0.7155,-0.2165,-0.4235
127,1791176.0,1768.7028460000001,1.0,4.9,11.11,-1.0,-7.75,-46.25,6.25,15.06,90.69,-51.56,0.4817022177863735,0.05814778431191048,-2.367366667006797,-91.36838194343346,-25.00708778933191,-50.111510359679706,-0.5118,-0.7155,-0.2165,-0.4235
128,1791213.0,1768.720841,1.0,4.66,11.89,-1.36,-3.5,-47.0,5.69,12.38,26.5,-73.87,0.17529940270465727,-0.12496201483098625,-3.0343372912584403,-90.11239605684216,-27.124302654398626,-49.39154002007115,-0.519,-0.7078,-0.2345,-0.4178
129,1791213.0,1768.720841,1.0,4.66,11.89,-1.36,-3.5,-47.0,5.69,12.38,26.5,-73.87,0.17529940270465727,-0.12496201483098625,-3.0343372912584403,-90.11239605684216,-27.124302654398626,-49.39154002007115,-0.519,-0.7078,-0.2345,-0.4178
130,1791250.0,1768.7578190000002,1.0,3.57,14.74,-1.1,-3.56,-45.0,6.19,43.81,15.94,-66.87,-0.04108445059352084,1.3962123991268145,-5.335060702706086,-89.23974978700055,-29.74868303296809,-48.56047848444357,-0.5213,-0.7024,-0.2567,-0.4112
131,1791250.0,1768.7578190000002,1.0,3.57,14.74,-1.1,-3.56,-45.0,6.19,43.81,15.94,-66.87,-0.04108445059352084,1.3962123991268145,-5.335060702706086,-89.23974978700055,-29.74868303296809,-48.56047848444357,-0.5213,-0.7024,-0.2567,-0.4112
132,1791285.0,1768.7712420000003,1.0,4.16,14.31,-0.62,-3.56,-45.0,6.19,99.25,54.56,-59.69,1.3933321932192022,0.9466199458883456,-5.013223011513468,-89.75607508695732,-32.651734221557824,-47.68200947327645,-0.5096,-0.7056,-0.2811,-0.4042
133,1791285.0,1768.7712420000003,1.0,4.16,14.31,-0.62,-3.56,-45.0,6.19,99.25,54.56,-59.69,1.3933321932192022,0.9466199458883456,-5.013223011513468,-89.75607508695732,-32.651734221557824,-47.68200947327645,-0.5096,-0.7056,-0.2811,-0.4042
134,1791318.0,1768.824194,1.0,4.12,13.16,-1.69,-1.0,-41.5,6.56,82.81,-15.38,-108.5,1.506312523734089,-0.2712733647559542,-4.001808760571935,-90.20976719290563,-37.24119428419274,-45.287480525770206,-0.498,-0.7084,-0.3193,-0.385
135,1791318.0,1768.824194,1.0,4.12,13.16,-1.69,-1.0,-41.5,6.56,82.81,-15.38,-108.5,1.506312523734089,-0.2712733647559542,-4.001808760571935,-90.20976719290563,-37.24119428419274,-45.287480525770206,-0.498,-0.7084,-0.3193,-0.385
136,1791354.0,1768.878351,1.0,0.16,14.86,0.55,-0.37,-39.19,8.56,80.25,-30.75,-91.37,2.4608466051507945,4.2593881574668835,-4.227221401361378,-91.10624511400431,-39.72937892373464,-42.20039204818604,-0.4952,-0.7139,-0.3398,-0.36
137,1791354.0,1768.878351,1.0,0.16,14.86,0.55,-0.37,-39.19,8.56,80.25,-30.75,-91.37,2.4608466051507945,4.2593881574668835,-4.227221401361378,-91.10624511400431,-39.72937892373464,-42.20039204818604,-0.4952,-0.7139,-0.3398,-0.36
138,1791391.0,1768.8990670000003,1.0,0.69,12.38,0.22,4.25,-35.5,9.75,104.62,53.56,-99.12,3.278360646796013,2.6537769384579857,-1.8551988855947616,-91.61469420099053,-44.63020241766851,-39.351894536966725,-0.4778,-0.7170000000000001,-0.3797,-0.3367
139,1791391.0,1768.8990670000003,1.0,0.69,12.38,0.22,4.25,-35.5,9.75,104.62,53.56,-99.12,3.278360646796013,2.6537769384579857,-1.8551988855947616,-91.61469420099053,-44.63020241766851,-39.351894536966725,-0.4778,-0.7170000000000001,-0.3797,-0.3367
140,1791424.0,1768.9356070000001,1.0,1.72,12.62,-2.27,4.25,-35.5,9.75,77.75,58.06,-110.37,2.6518630717715226,0.29842198151347965,-2.852507419414767,-90.37223725523552,-50.187419272308674,-37.65257654707046,-0.4613,-0.7094,-0.4241,-0.3227
141,1791424.0,1768.9356070000001,1.0,1.72,12.62,-2.27,4.25,-35.5,9.75,77.75,58.06,-110.37,2.6518630717715226,0.29842198151347965,-2.852507419414767,-90.37223725523552,-50.187419272308674,-37.65257654707046,-0.4613,-0.7094,-0.4241,-0.3227
142,1791461.0,1769.000416,1.0,-0.13,10.63,-0.86,8.38,-32.56,11.5,124.81,36.94,-102.44,3.2130256760356235,1.8613538561897276,-0.19161124019489328,-90.33972471015196,-54.14273717736637,-35.540393572715686,-0.4435,-0.7092,-0.4551,-0.3052
143,1791461.0,1769.000416,1.0,-0.13,10.63,-0.86,8.38,-32.56,11.5,124.81,36.94,-102.44,3.2130256760356235,1.8613538561897276,-0.19161124019489328,-90.33972471015196,-54.14273717736637,-35.540393572715686,-0.4435,-0.7092,-0.4551,-0.3052
144,1791498.0,1769.007216,1.0,0.74,8.15,-1.84,11.25,-30.37,13.69,105.12,51.94,-132.63,2.5611793695374803,-0.15228722603681,1.820858314898164,-88.82192034919494,-60.47692253879284,-32.54428338361999,-0.4221,-0.6998,-0.5036,-0.2802
145,1791498.0,1769.007216,1.0,0.74,8.15,-1.84,11.25,-30.37,13.69,105.12,51.94,-132.63,2.5611793695374803,-0.15228722603681,1.820858314898164,-88.82192034919494,-60.47692253879284,-32.54428338361999,-0.4221,-0.6998,-0.5036,-0.2802
146,1791533.0,1769.062665,1.0,-0.66,6.21,-1.92,11.25,-30.37,13.69,75.81,62.19,-99.62,1.4824223394121825,0.6540907410339569,3.477298586932041,-87.05458100062674,-64.68782282646684,-30.888426648702456,-0.4105,-0.6887,-0.535,-0.2663
147,1791533.0,1769.062665,1.0,-0.66,6.21,-1.92,11.25,-30.37,13.69,75.81,62.19,-99.62,1.4824223394121825,0.6540907410339569,3.477298586932041,-87.05458100062674,-64.68782282646684,-30.888426648702456,-0.4105,-0.6887,-0.535,-0.2663
148,1791567.0,1769.069493,1.0,0.25,8.3,-3.68,15.25,-28.19,15.75,39.06,74.12,-98.87,1.7697305571397444,-0.7731150281234322,0.9316713009598948,-84.36588268573803,-69.65393554150937,-30.270684516880635,-0.3934,-0.6715,-0.5711,-0.2611
149,1791567.0,1769.069493,1.0,0.25,8.3,-3.68,15.25,-28.19,15.75,39.06,74.12,-98.87,1.7697305571397444,-0.7731150281234322,0.9316713009598948,-84.36588268573803,-69.65393554150937,-30.270684516880635,-0.3934,-0.6715,-0.5711,-0.2611
150,1791602.0,1769.1289510000001,1.0,-0.04,6.58,-3.66,18.37,-25.87,15.88,102.25,52.31,-124.56,1.1023697299373405,-0.8174963248809899,2.4032669397143867,-81.99103761990294,-74.21322028612755,-28.54099280947513,-0.3807,-0.6559999999999999,-0.6033,-0.2465
151,1791602.0,1769.1289510000001,1.0,-0.04,6.58,-3.66,18.37,-25.87,15.88,102.25,52.31,-124.56,1.1023697299373405,-0.8174963248809899,2.4032669397143867,-81.99103761990294,-74.21322028612755,-28.54099280947513,-0.3807,-0.6559999999999999,-0.6033,-0.2465
152,1791641.0,1769.146226,1.0,0.48,3.71,-4.73,21.75,-23.19,18.5,123.19,41.0,-87.12,-0.8529717417248189,-1.490654229986935,4.025837844736607,-81.15862069013602,-79.70299876376654,-25.15969838503005,-0.3446,-0.6505,-0.6408,-0.2178
153,1791641.0,1769.146226,1.0,0.48,3.71,-4.73,21.75,-23.19,18.5,123.19,41.0,-87.12,-0.8529717417248189,-1.490654229986935,4.025837844736607,-81.15862069013602,-79.70299876376654,-25.15969838503005,-0.3446,-0.6505,-0.6408,-0.2178
154,1791676.0,1769.187744,1.0,0.25,3.73,-4.88,21.75,-23.19,18.5,82.94,17.37,-136.75,-0.650875858036194,-1.5523489441218297,3.894258489527312,-78.08549020583642,-85.00152199363876,-21.777192841624235,-0.3334,-0.6299,-0.6756,-0.1889
155,1791676.0,1769.187744,1.0,0.25,3.73,-4.88,21.75,-23.19,18.5,82.94,17.37,-136.75,-0.650875858036194,-1.5523489441218297,3.894258489527312,-78.08549020583642,-85.00152199363876,-21.777192841624235,-0.3334,-0.6299,-0.6756,-0.1889
156,1791713.0,1769.2062640000001,1.0,0.0,2.45,-6.33,23.19,-19.19,21.37,112.06,26.94,-54.19,-2.32680610923327,-1.4630842251541083,3.6004629354538515,-76.53006953196333,-88.13414829642569,-19.54075377357945,-0.3224,-0.6193,-0.6955,-0.1697
157,1791713.0,1769.2062640000001,1.0,0.0,2.45,-6.33,23.19,-19.19,21.37,112.06,26.94,-54.19,-2.32680610923327,-1.4630842251541083,3.6004629354538515,-76.53006953196333,-88.13414829642569,-19.54075377357945,-0.3224,-0.6193,-0.6955,-0.1697
158,1791750.0,1769.2543600000001,1.0,1.38,-2.44,-6.38,25.06,-16.5,21.75,150.0,35.38,-3.81,-5.780442838960264,-1.9263496887547984,6.4246302688116526,-77.74655203029216,-90.38849700989724,-16.442961442690333,-0.2868,-0.6276,-0.7095,-0.14300000000000002
159,1791750.0,1769.2543600000001,1.0,1.38,-2.44,-6.38,25.06,-16.5,21.75,150.0,35.38,-3.81,-5.780442838960264,-1.9263496887547984,6.4246302688116526,-77.74655203029216,-90.38849700989724,-16.442961442690333,-0.2868,-0.6276,-0.7095,-0.14300000000000002
160,1791782.0,1769.272478,1.0,3.71,-3.64,-9.87,25.06,-16.5,21.75,45.31,22.0,-25.25,-8.706734579511203,-4.415756645750979,4.40994116892064,-77.96750667649074,-91.74628360102051,-15.274409087771584,-0.2669,-0.6291,-0.7178,-0.1329
161,1791782.0,1769.272478,1.0,3.71,-3.64,-9.87,25.06,-16.5,21.75,45.31,22.0,-25.25,-8.706734579511203,-4.415756645750979,4.40994116892064,-77.96750667649074,-91.74628360102051,-15.274409087771584,-0.2669,-0.6291,-0.7178,-0.1329
162,1791817.0,1769.360297,1.0,0.62,-1.68,-8.7,24.87,-13.06,25.75,-3.88,-52.88,-1.44,-6.215350101440697,-1.7926475066751038,3.7195621878083056,-77.99699333524984,-91.48326004604112,-14.095906005217,-0.2758,-0.6293,-0.7162,-0.1227
163,1791817.0,1769.360297,1.0,0.62,-1.68,-8.7,24.87,-13.06,25.75,-3.88,-52.88,-1.44,-6.215350101440697,-1.7926475066751038,3.7195621878083056,-77.99699333524984,-91.48326004604112,-14.095906005217,-0.2758,-0.6293,-0.7162,-0.1227
164,1791854.0,1769.372521,1.0,0.5,-1.21,-8.18,26.0,-12.38,24.56,2.75,-41.31,59.56,-5.518946644014727,-1.8603132893308283,3.9153884707468887,-79.55381523993225,-89.6914080232464,-13.761120312162008,-0.2811,-0.6398,-0.7052,-0.1198
165,1791854.0,1769.372521,1.0,0.5,-1.21,-8.18,26.0,-12.38,24.56,2.75,-41.31,59.56,-5.518946644014727,-1.8603132893308283,3.9153884707468887,-79.55381523993225,-89.6914080232464,-13.761120312162008,-0.2811,-0.6398,-0.7052,-0.1198
166,1791891.0,1769.3780359999998,1.0,0.2,0.28,-8.39,26.56,-12.69,24.06,-48.63,-33.19,64.37,-4.539292740487998,-2.0132125107801087,3.0352175959519894,-81.43047462829705,-86.73889922301962,-14.407711711634985,-0.2952,-0.6523,-0.6867,-0.1254
167,1791891.0,1769.3780359999998,1.0,0.2,0.28,-8.39,26.56,-12.69,24.06,-48.63,-33.19,64.37,-4.539292740487998,-2.0132125107801087,3.0352175959519894,-81.43047462829705,-86.73889922301962,-14.407711711634985,-0.2952,-0.6523,-0.6867,-0.1254
168,1791926.0,1769.4556530000002,1.0,2.12,1.67,-9.19,26.56,-12.69,24.06,-16.44,-57.0,104.0,-3.777764887740224,-4.3946019820545885,2.180683446685008,-84.79962950157953,-82.37114871332962,-14.916070477056891,-0.3081,-0.6743,-0.6585,-0.1298
169,1791926.0,1769.4556530000002,1.0,2.12,1.67,-9.19,26.56,-12.69,24.06,-16.44,-57.0,104.0,-3.777764887740224,-4.3946019820545885,2.180683446685008,-84.79962950157953,-82.37114871332962,-14.916070477056891,-0.3081,-0.6743,-0.6585,-0.1298
170,1791963.0,1769.4666149999998,1.0,0.33,0.83,-6.42,24.69,-14.56,22.0,-25.31,-78.37,124.56,-3.010740321347541,-2.1283990968067394,4.4756500935917884,-88.43755212986639,-77.90855177137034,-14.800508833176535,-0.319,-0.6974,-0.6287,-0.1288
171,1791963.0,1769.4666149999998,1.0,0.33,0.83,-6.42,24.69,-14.56,22.0,-25.31,-78.37,124.56,-3.010740321347541,-2.1283990968067394,4.4756500935917884,-88.43755212986639,-77.90855177137034,-14.800508833176535,-0.319,-0.6974,-0.6287,-0.1288
172,1791997.0,1769.5117100000002,1.0,0.88,1.56,-6.03,24.25,-17.19,21.19,-75.87,-59.56,110.19,-2.2597236867641657,-2.683510015646738,4.585412325329306,-91.28639832349863,-72.75460720541858,-16.13041264048083,-0.3424,-0.715,-0.5931,-0.1403
173,1791997.0,1769.5117100000002,1.0,0.88,1.56,-6.03,24.25,-17.19,21.19,-75.87,-59.56,110.19,-2.2597236867641657,-2.683510015646738,4.585412325329306,-91.28639832349863,-72.75460720541858,-16.13041264048083,-0.3424,-0.715,-0.5931,-0.1403
174,1792032.0,1769.533555,1.0,-1.41,3.55,-4.07,24.25,-17.19,21.19,-34.31,-70.12,176.75,-0.4445383663658802,0.2892207802675779,4.250190967388478,-95.03777424913531,-67.32502809337325,-16.917809025605248,-0.3566,-0.7375,-0.5543,-0.1471
175,1792032.0,1769.533555,1.0,-1.41,3.55,-4.07,24.25,-17.19,21.19,-34.31,-70.12,176.75,-0.4445383663658802,0.2892207802675779,4.250190967388478,-95.03777424913531,-67.32502809337325,-16.917809025605248,-0.3566,-0.7375,-0.5543,-0.1471
176,1792067.0,1769.5744690000001,1.0,-0.39,3.77,-3.92,23.56,-20.06,20.0,-68.06,-51.19,113.87,-0.14259320818260054,-0.4790674951614031,4.376957420114838,-98.4534931114122,-61.52759147164257,-18.4137924426918,-0.3733,-0.7573,-0.5115,-0.16
177,1792067.0,1769.5744690000001,1.0,-0.39,3.77,-3.92,23.56,-20.06,20.0,-68.06,-51.19,113.87,-0.14259320818260054,-0.4790674951614031,4.376957420114838,-98.4534931114122,-61.52759147164257,-18.4137924426918,-0.3733,-0.7573,-0.5115,-0.16
178,1792104.0,1769.6349989999999,1.0,-1.01,6.88,-2.15,19.87,-23.06,18.69,-50.69,-38.88,192.5,2.2602067161714388,1.737008856216089,3.1095412332559205,-101.42891378684288,-56.45841982476564,-20.11076285425295,-0.3831,-0.774,-0.473,-0.1746
179,1792104.0,1769.6349989999999,1.0,-1.01,6.88,-2.15,19.87,-23.06,18.69,-50.69,-38.88,192.5,2.2602067161714388,1.737008856216089,3.1095412332559205,-101.42891378684288,-56.45841982476564,-20.11076285425295,-0.3831,-0.774,-0.473,-0.1746
180,1792141.0,1769.653818,1.0,0.9,5.39,-2.79,17.19,-26.19,16.69,-108.31,-4.0,88.06,1.5026865608413882,-0.2116018144996561,3.8616220125160776,-104.40841146453569,-50.87166614791169,-23.08561363949995,-0.3886,-0.7902,-0.4295,-0.2001
181,1792141.0,1769.653818,1.0,0.9,5.39,-2.79,17.19,-26.19,16.69,-108.31,-4.0,88.06,1.5026865608413882,-0.2116018144996561,3.8616220125160776,-104.40841146453569,-50.87166614791169,-23.08561363949995,-0.3886,-0.7902,-0.4295,-0.2001
182,1792176.0,1769.699268,1.0,-1.75,12.05,-0.28,17.19,-26.19,16.69,-174.38,-52.44,100.44,3.744118613281044,5.260971961570583,-0.5203606918338526,-103.33043920857978,-45.53591791274641,-26.041039726290627,-0.4293,-0.7844,-0.387,-0.2253
183,1792176.0,1769.699268,1.0,-1.75,12.05,-0.28,17.19,-26.19,16.69,-174.38,-52.44,100.44,3.744118613281044,5.260971961570583,-0.5203606918338526,-103.33043920857978,-45.53591791274641,-26.041039726290627,-0.4293,-0.7844,-0.387,-0.2253
184,1792212.0,1769.7588170000001,1.0,2.83,8.79,-4.15,12.25,-28.06,15.19,-63.69,49.5,105.94,1.8670408206649816,-1.0687934406988973,-0.08614228302553961,-103.64505914352164,-42.70441132531611,-29.440524955343975,-0.4301,-0.7861,-0.3641,-0.2541
185,1792212.0,1769.7588170000001,1.0,2.83,8.79,-4.15,12.25,-28.06,15.19,-63.69,49.5,105.94,1.8670408206649816,-1.0687934406988973,-0.08614228302553961,-103.64505914352164,-42.70441132531611,-29.440524955343975,-0.4301,-0.7861,-0.3641,-0.2541
186,1792249.0,1769.771288,1.0,1.29,11.58,-1.35,10.0,-28.87,15.69,-150.44,-11.13,99.44,2.6783205385640954,2.497875781109517,-1.336519014012678,-101.68262407663977,-38.25846833636598,-32.890619725136126,-0.4596,-0.7754,-0.3277,-0.2831
187,1792249.0,1769.771288,1.0,1.29,11.58,-1.35,10.0,-28.87,15.69,-150.44,-11.13,99.44,2.6783205385640954,2.497875781109517,-1.336519014012678,-101.68262407663977,-38.25846833636598,-32.890619725136126,-0.4596,-0.7754,-0.3277,-0.2831
188,1792284.0,1769.8239829999998,1.0,4.25,12.05,-2.74,10.0,-28.87,15.69,-50.06,53.13,116.94,2.75568130965239,0.029379703918817945,-2.96746278142753,-101.32039083270723,-35.227664546585345,-36.1305141127441,-0.4626,-0.7734,-0.3026,-0.3101
189,1792284.0,1769.8239829999998,1.0,4.25,12.05,-2.74,10.0,-28.87,15.69,-50.06,53.13,116.94,2.75568130965239,0.029379703918817945,-2.96746278142753,-101.32039083270723,-35.227664546585345,-36.1305141127441,-0.4626,-0.7734,-0.3026,-0.3101
190,1792319.0,1769.840954,1.0,4.8,13.41,-2.47,6.06,-32.38,12.56,-146.44,-35.88,39.75,2.3653133726046853,0.15938878603021056,-4.4533951564595435,-99.0872085325556,-31.721461697138416,-38.82902123966127,-0.4856,-0.7609,-0.2733,-0.3324
191,1792319.0,1769.840954,1.0,4.8,13.41,-2.47,6.06,-32.38,12.56,-146.44,-35.88,39.75,2.3653133726046853,0.15938878603021056,-4.4533951564595435,-99.0872085325556,-31.721461697138416,-38.82902123966127,-0.4856,-0.7609,-0.2733,-0.3324
192,1792354.0,1769.882081,1.0,3.52,15.34,-0.43,1.88,-33.88,12.56,-40.75,24.31,98.5,2.5154739067552585,3.180423071795348,-5.406771709425703,-98.62911597051672,-29.037876869982465,-40.42464121289,-0.4927,-0.7583,-0.2507,-0.3455
193,1792354.0,1769.882081,1.0,3.52,15.34,-0.43,1.88,-33.88,12.56,-40.75,24.31,98.5,2.5154739067552585,3.180423071795348,-5.406771709425703,-98.62911597051672,-29.037876869982465,-40.42464121289,-0.4927,-0.7583,-0.2507,-0.3455
194,1792391.0,1769.8978,1.0,4.33,14.7,-1.87,-0.37,-38.25,11.25,-66.12,9.88,2.44,1.1450589233241235,1.4045763072023334,-5.5247493314166105,-96.71406744218916,-27.89113735405041,-42.69210790112656,-0.5009,-0.7473,-0.24100000000000002,-0.364
195,1792391.0,1769.8978,1.0,4.33,14.7,-1.87,-0.37,-38.25,11.25,-66.12,9.88,2.44,1.1450589233241235,1.4045763072023334,-5.5247493314166105,-96.71406744218916,-27.89113735405041,-42.69210790112656,-0.5009,-0.7473,-0.24100000000000002,-0.364
196,1792425.0,1769.9359809999999,1.0,4.07,14.05,-2.28,-0.37,-38.25,11.25,-27.12,32.19,30.5,0.17925582165478593,1.0687832998485725,-4.9578807954017865,-95.4287628527733,-27.20682475697043,-44.3578252491314,-0.5048,-0.7398,-0.2352,-0.3775
197,1792425.0,1769.9359809999999,1.0,4.07,14.05,-2.28,-0.37,-38.25,11.25,-27.12,32.19,30.5,0.17925582165478593,1.0687832998485725,-4.9578807954017865,-95.4287628527733,-27.20682475697043,-44.3578252491314,-0.5048,-0.7398,-0.2352,-0.3775
198,1792462.0,1769.9552170000002,1.0,4.43,10.64,-2.58,-1.5,-41.19,9.19,-26.75,25.56,6.38,0.07075072836154361,-0.6149839256487244,-1.987742273687948,-94.8512940516321,-27.112514953816074,-45.51106402154343,-0.5032,-0.7364,-0.2344,-0.3868
199,1792462.0,1769.9552170000002,1.0,4.43,10.64,-2.58,-1.5,-41.19,9.19,-26.75,25.56,6.38,0.07075072836154361,-0.6149839256487244,-1.987742273687948,-94.8512940516321,-27.112514953816074,-45.51106402154343,-0.5032,-0.7364,-0.2344,-0.3868
200,1792499.0,1769.9979170000001,1.0,4.02,11.5,-2.42,-2.88,-43.0,9.0,-30.5,24.06,-5.25,-0.32473936433224426,-0.07449407626232674,-2.6092992177543497,-93.42126267707391,-27.20682475697043,-46.44464801216442,-0.5093,-0.7279,-0.2352,-0.3943
201,1792499.0,1769.9979170000001,1.0,4.02,11.5,-2.42,-2.88,-43.0,9.0,-30.5,24.06,-5.25,-0.32473936433224426,-0.07449407626232674,-2.6092992177543497,-93.42126267707391,-27.20682475697043,-46.44464801216442,-0.5093,-0.7279,-0.2352,-0.3943
202,1792534.0,1770.067134,1.0,4.62,9.7,-2.42,-2.88,-43.0,9.0,-7.06,30.69,18.69,-0.02397981851155584,-1.13149010637453,-1.1482555270906245,-92.97097603348081,-27.265777919115557,-47.50667419847937,-0.5063,-0.7252,-0.2357,-0.4028
203,1792534.0,1770.067134,1.0,4.62,9.7,-2.42,-2.88,-43.0,9.0,-7.06,30.69,18.69,-0.02397981851155584,-1.13149010637453,-1.1482555270906245,-92.97097603348081,-27.265777919115557,-47.50667419847937,-0.5063,-0.7252,-0.2357,-0.4028
204,1792567.0,1770.089945,1.0,3.96,9.92,-1.97,-2.0,-44.69,8.19,-25.81,19.87,14.13,-0.2886932825279245,-0.3295092732624933,-1.0458603007303022,-91.97694079477051,-26.935734446758048,-48.72395587995984,-0.5082,-0.7192,-0.2329,-0.4125
205,1792567.0,1770.089945,1.0,3.96,9.92,-1.97,-2.0,-44.69,8.19,-25.81,19.87,14.13,-0.2886932825279245,-0.3295092732624933,-1.0458603007303022,-91.97694079477051,-26.935734446758048,-48.72395587995984,-0.5082,-0.7192,-0.2329,-0.4125
206,1792604.0,1770.093084,1.0,4.19,9.9,-1.37,-1.88,-45.0,6.75,-23.69,4.69,15.63,0.16567085413604032,-0.18770164329210196,-1.0275699193663836,-91.40119221425032,-26.558820285317804,-49.517699264874096,-0.5096,-0.7157,-0.2297,-0.4188
207,1792604.0,1770.093084,1.0,4.19,9.9,-1.37,-1.88,-45.0,6.75,-23.69,4.69,15.63,0.16567085413604032,-0.18770164329210196,-1.0275699193663836,-91.40119221425032,-26.558820285317804,-49.517699264874096,-0.5096,-0.7157,-0.2297,-0.4188
208,1792641.0,1770.1843379999998,1.0,3.67,9.01,-0.4,-1.88,-45.69,6.88,-27.75,-5.0,20.69,0.5880462708981993,0.4178328606375361,0.09641739290689344,-91.02445270227787,-25.45330808515709,-50.035624947359274,-0.5135,-0.7134,-0.2203,-0.4229
209,1792641.0,1770.1843379999998,1.0,3.67,9.01,-0.4,-1.88,-45.69,6.88,-27.75,-5.0,20.69,0.5880462708981993,0.4178328606375361,0.09641739290689344,-91.02445270227787,-25.45330808515709,-50.035624947359274,-0.5135,-0.7134,-0.2203,-0.4229
210,1792673.0,1770.1963260000002,1.0,3.38,8.72,0.35,-1.88,-45.69,6.88,-47.06,28.87,29.81,0.8398636213000749,0.9223484267416722,0.5314571460856445,-90.07995743217865,-24.596436196111345,-51.125583264636,-0.5175,-0.7076,-0.213,-0.4315
211,1792673.0,1770.1963260000002,1.0,3.38,8.72,0.35,-1.88,-45.69,6.88,-47.06,28.87,29.81,0.8398636213000749,0.9223484267416722,0.5314571460856445,-90.07995743217865,-24.596436196111345,-51.125583264636,-0.5175,-0.7076,-0.213,-0.4315
212,1792712.0,1770.247316,1.0,5.45,9.46,-1.67,-1.75,-46.25,6.5,-7.5,41.56,41.38,-0.331960277506872,-1.3779702947773034,-1.1466143646024085,-88.50152621211956,-23.975200651636385,-53.82124003233572,-0.5149,-0.6978,-0.2077,-0.4526
213,1792712.0,1770.247316,1.0,5.45,9.46,-1.67,-1.75,-46.25,6.5,-7.5,41.56,41.38,-0.331960277506872,-1.3779702947773034,-1.1466143646024085,-88.50152621211956,-23.975200651636385,-53.82124003233572,-0.5149,-0.6978,-0.2077,-0.4526
214,1792747.0,1770.25473,1.0,5.53,6.74,-1.4,-2.0,-46.56,3.25,23.94,-4.81,45.19,0.357343070650176,-2.1181731336355463,1.2419463562185715,-89.25585014264172,-23.49511329436541,-54.658094766102636,-0.5042,-0.7025,-0.2036,-0.4591
215,1792747.0,1770.25473,1.0,5.53,6.74,-1.4,-2.0,-46.56,3.25,23.94,-4.81,45.19,0.357343070650176,-2.1181731336355463,1.2419463562185715,-89.25585014264172,-23.49511329436541,-54.658094766102636,-0.5042,-0.7025,-0.2036,-0.4591
216,1792780.0,1770.313666,1.0,6.72,9.84,-1.13,-2.0,-46.56,3.25,-50.63,-102.81,13.69,0.6145387848323112,-1.4750897811915094,-2.055362991872892,-90.06374156785668,-21.12406961438943,-53.55153591306849,-0.5127,-0.7075,-0.1833,-0.4505
217,1792780.0,1770.313666,1.0,6.72,9.84,-1.13,-2.0,-46.56,3.25,-50.63,-102.81,13.69,0.6145387848323112,-1.4750897811915094,-2.055362991872892,-90.06374156785668,-21.12406961438943,-53.55153591306849,-0.5127,-0.7075,-0.1833,-0.4505
218,1792817.0,1770.3742100000002,1.0,5.82,11.36,-0.56,-2.75,-47.69,5.06,52.94,-114.31,45.75,0.6614628444180133,0.7190837428674008,-2.932305431125357,-93.94058643018808,-18.251289114029838,-50.630692516856975,-0.5076,-0.731,-0.1586,-0.4276
219,1792817.0,1770.3742100000002,1.0,5.82,11.36,-0.56,-2.75,-47.69,5.06,52.94,-114.31,45.75,0.6614628444180133,0.7190837428674008,-2.932305431125357,-93.94058643018808,-18.251289114029838,-50.630692516856975,-0.5076,-0.731,-0.1586,-0.4276
220,1792854.0,1770.3947170000001,1.0,7.75,11.34,-2.75,-2.25,-51.0,4.56,5.19,-49.38,1.63,0.3184358942157405,-1.6201748828958102,-4.103570412707649,-95.59921590362794,-17.381357078894993,-49.492462296741046,-0.5031,-0.7408,-0.1511,-0.4186
221,1792854.0,1770.3947170000001,1.0,7.75,11.34,-2.75,-2.25,-51.0,4.56,5.19,-49.38,1.63,0.3184358942157405,-1.6201748828958102,-4.103570412707649,-95.59921590362794,-17.381357078894993,-49.492462296741046,-0.5031,-0.7408,-0.1511,-0.4186
222,1792888.0,1770.399461,1.0,8.4,14.5,-3.68,-2.25,-51.0,4.56,8.31,-107.56,-5.81,-0.20803254175548114,-1.0919202370371854,-7.314005146854621,-97.18075578145829,-16.19985740781584,-47.30643546064212,-0.5067,-0.75,-0.1409,-0.4012
223,1792888.0,1770.399461,1.0,8.4,14.5,-3.68,-2.25,-51.0,4.56,8.31,-107.56,-5.81,-0.20803254175548114,-1.0919202370371854,-7.314005146854621,-97.18075578145829,-16.19985740781584,-47.30643546064212,-0.5067,-0.75,-0.1409,-0.4012
224,1792923.0,1770.4457,1.0,7.93,16.67,-2.93,-7.06,-50.88,8.38,93.06,-127.87,26.25,0.7716936844490112,1.7185817205647416,-8.789308316987116,-102.59442725393292,-14.280666944469896,-42.901336489189035,-0.4918,-0.7804,-0.1243,-0.3657
225,1792923.0,1770.4457,1.0,7.93,16.67,-2.93,-7.06,-50.88,8.38,93.06,-127.87,26.25,0.7716936844490112,1.7185817205647416,-8.789308316987116,-102.59442725393292,-14.280666944469896,-42.901336489189035,-0.4918,-0.7804,-0.1243,-0.3657
226,1792958.0,1770.465087,1.0,10.36,17.67,-5.8,-8.19,-47.5,10.5,103.81,-98.62,-55.0,2.196974085378508,-0.1721021117384094,-11.36744232367023,-107.627107150319,-14.800508833176535,-38.270597450084026,-0.4739,-0.8071,-0.1288,-0.3278
227,1792958.0,1770.465087,1.0,10.36,17.67,-5.8,-8.19,-47.5,10.5,103.81,-98.62,-55.0,2.196974085378508,-0.1721021117384094,-11.36744232367023,-107.627107150319,-14.800508833176535,-38.270597450084026,-0.4739,-0.8071,-0.1288,-0.3278
228,1792995.0,1770.5085100000001,1.0,9.06,14.89,-3.06,-8.19,-40.0,15.0,121.62,-143.94,-115.94,4.991266255955099,1.2150388063331317,-7.127641891344871,-111.4817285033188,-16.605072138436235,-33.05792701658909,-0.4638,-0.8265,-0.1444,-0.2845
229,1792995.0,1770.5085100000001,1.0,9.06,14.89,-3.06,-8.19,-40.0,15.0,121.62,-143.94,-115.94,4.991266255955099,1.2150388063331317,-7.127641891344871,-111.4817285033188,-16.605072138436235,-33.05792701658909,-0.4638,-0.8265,-0.1444,-0.2845
230,1793030.0,1770.5753809999999,1.0,9.41,11.21,-2.33,-8.19,-40.0,15.0,206.69,-156.56,-78.75,7.89256928066421,0.6811480218680757,-2.7187037883055787,-119.56019073883043,-18.611168175342147,-25.147957501678356,-0.4241,-0.8641,-0.1617,-0.2177
231,1793030.0,1770.5753809999999,1.0,9.41,11.21,-2.33,-8.19,-40.0,15.0,206.69,-156.56,-78.75,7.89256928066421,0.6811480218680757,-2.7187037883055787,-119.56019073883043,-18.611168175342147,-25.147957501678356,-0.4241,-0.8641,-0.1617,-0.2177
232,1793064.0,1770.595976,1.0,9.08,5.24,-1.66,-1.88,-34.5,18.19,248.25,-165.13,-24.75,8.269632664999207,-1.4471503581717549,3.3121499093986104,-126.86293079671191,-19.08742247639564,-19.110662839696182,-0.3807,-0.8944,-0.1658,-0.166
233,1793064.0,1770.595976,1.0,9.08,5.24,-1.66,-1.88,-34.5,18.19,248.25,-165.13,-24.75,8.269632664999207,-1.4471503581717549,3.3121499093986104,-126.86293079671191,-19.08742247639564,-19.110662839696182,-0.3807,-0.8944,-0.1658,-0.166
234,1793103.0,1770.6480210000002,1.0,6.21,2.16,-0.96,3.69,-28.06,21.69,179.63,-155.94,23.25,5.9528793118907775,-1.1009555264644946,7.067594537470976,-136.40437355406192,-17.381357078894993,-12.377021364647927,-0.3217,-0.9285,-0.1511,-0.1078
235,1793103.0,1770.6480210000002,1.0,6.21,2.16,-0.96,3.69,-28.06,21.69,179.63,-155.94,23.25,5.9528793118907775,-1.1009555264644946,7.067594537470976,-136.40437355406192,-17.381357078894993,-12.377021364647927,-0.3217,-0.9285,-0.1511,-0.1078
236,1793138.0,1770.6519649999998,1.0,4.18,-1.62,0.53,3.69,-28.06,21.69,136.5,-125.94,24.62,3.734338594147873,-2.269736785262283,10.938334668927226,-141.5038163967487,-15.922114008308865,-8.142851840335263,-0.2905,-0.9441,-0.1385,-0.071
237,1793138.0,1770.6519649999998,1.0,4.18,-1.62,0.53,3.69,-28.06,21.69,136.5,-125.94,24.62,3.734338594147873,-2.269736785262283,10.938334668927226,-141.5038163967487,-15.922114008308865,-8.142851840335263,-0.2905,-0.9441,-0.1385,-0.071
238,1793173.0,1770.688933,1.0,3.02,-2.64,1.61,5.88,-24.37,23.25,-16.62,-164.06,90.0,2.6541108571611316,-1.9847755661213795,12.581260154603155,-145.22287322309495,-12.019765115233204,-3.5299782811888885,-0.2781,-0.9543,-0.1047,-0.0308
239,1793173.0,1770.688933,1.0,3.02,-2.64,1.61,5.88,-24.37,23.25,-16.62,-164.06,90.0,2.6541108571611316,-1.9847755661213795,12.581260154603155,-145.22287322309495,-12.019765115233204,-3.5299782811888885,-0.2781,-0.9543,-0.1047,-0.0308
240,1793208.0,1770.754967,1.0,2.3,0.25,2.29,7.25,-23.5,23.06,-107.94,-155.69,82.62,2.363095316616145,1.3029939802801032,11.6272507832418,-142.81135091208287,-7.086273935339353,1.0084187350403075,-0.3129,-0.9478,-0.0618,0.0088
241,1793208.0,1770.754967,1.0,2.3,0.25,2.29,7.25,-23.5,23.06,-107.94,-155.69,82.62,2.363095316616145,1.3029939802801032,11.6272507832418,-142.81135091208287,-7.086273935339353,1.0084187350403075,-0.3129,-0.9478,-0.0618,0.0088
242,1793245.0,1770.762257,1.0,1.34,-0.03,2.89,7.19,-25.5,21.56,-186.5,-85.31,71.94,1.284651880657344,1.816345425913972,12.086816406051307,-138.3272359651665,-4.344060485976967,2.6473004867786654,-0.353,-0.9346,-0.0379,0.0231
243,1793245.0,1770.762257,1.0,1.34,-0.03,2.89,7.19,-25.5,21.56,-186.5,-85.31,71.94,1.284651880657344,1.816345425913972,12.086816406051307,-138.3272359651665,-4.344060485976967,2.6473004867786654,-0.353,-0.9346,-0.0379,0.0231
244,1793277.0,1770.7795429999999,1.0,0.25,3.07,3.24,7.19,-25.5,21.56,-198.5,-101.37,104.94,0.0969026891969103,4.464989734586137,9.607962962509283,-130.57034285366944,0.3666936147093117,4.332593112917143,-0.4163,-0.9084,0.0032,0.0378
245,1793277.0,1770.7795429999999,1.0,0.25,3.07,3.24,7.19,-25.5,21.56,-198.5,-101.37,104.94,0.0969026891969103,4.464989734586137,9.607962962509283,-130.57034285366944,0.3666936147093117,4.332593112917143,-0.4163,-0.9084,0.0032,0.0378
246,1793314.0,1770.8198949999999,1.0,1.36,4.29,4.63,6.69,-27.56,16.87,-111.19,-63.44,220.13,0.5488011483474353,6.403779520376696,9.189377650079333,-126.60729740721462,6.294241112432486,3.931261580029344,-0.4445,-0.8934,0.0549,0.0343
247,1793314.0,1770.8198949999999,1.0,1.36,4.29,4.63,6.69,-27.56,16.87,-111.19,-63.44,220.13,0.5488011483474353,6.403779520376696,9.189377650079333,-126.60729740721462,6.294241112432486,3.931261580029344,-0.4445,-0.8934,0.0549,0.0343
248,1793353.0,1770.837778,1.0,0.23,5.75,5.05,2.06,-29.5,13.5,-160.94,32.88,217.31,-1.5949284601754623,7.1407736220817695,7.5519980789479915,-119.51467199760063,13.899637842978935,0.687553479519944,-0.4889,-0.8639,0.121,0.006
249,1793353.0,1770.837778,1.0,0.23,5.75,5.05,2.06,-29.5,13.5,-160.94,32.88,217.31,-1.5949284601754623,7.1407736220817695,7.5519980789479915,-119.51467199760063,13.899637842978935,0.687553479519944,-0.4889,-0.8639,0.121,0.006
250,1793388.0,1770.882075,1.0,-0.8,6.2,2.84,2.06,-29.5,13.5,-186.19,67.81,224.94,-2.95832110588966,4.756738985665109,5.835835164641713,-112.8163105430652,18.51827857520288,-3.5414428939599265,-0.5284,-0.833,0.1609,-0.0309
251,1793388.0,1770.882075,1.0,-0.8,6.2,2.84,2.06,-29.5,13.5,-186.19,67.81,224.94,-2.95832110588966,4.756738985665109,5.835835164641713,-112.8163105430652,18.51827857520288,-3.5414428939599265,-0.5284,-0.833,0.1609,-0.0309
252,1793423.0,1770.949879,1.0,-2.94,7.61,3.42,-5.0,-30.25,9.5,-142.81,56.88,258.75,-6.379644293165607,4.283723597813955,5.424646938589457,-103.27503144100895,25.47680417585264,-8.878266355561609,-0.575,-0.7841,0.2205,-0.0774
253,1793423.0,1770.949879,1.0,-2.94,7.61,3.42,-5.0,-30.25,9.5,-142.81,56.88,258.75,-6.379644293165607,4.283723597813955,5.424646938589457,-103.27503144100895,25.47680417585264,-8.878266355561609,-0.575,-0.7841,0.2205,-0.0774
254,1793458.0,1770.9678600000002,1.0,8.07,8.78,1.66,-12.69,-27.87,4.69,-118.5,169.06,274.5,1.2314990057049566,4.2870998304540455,-1.3769578812996937,-94.10864838411064,30.99543647635929,-18.297714844671226,-0.6063,-0.732,0.2672,-0.159
255,1793458.0,1770.9678600000002,1.0,8.07,8.78,1.66,-12.69,-27.87,4.69,-118.5,169.06,274.5,1.2314990057049566,4.2870998304540455,-1.3769578812996937,-94.10864838411064,30.99543647635929,-18.297714844671226,-0.6063,-0.732,0.2672,-0.159
256,1793495.0,1771.0114199999998,1.0,15.75,20.01,-0.46,-21.0,-25.06,-0.69,-189.94,94.31,264.13,-1.9512519003248068,2.0335754620485584,-15.506022455938599,-85.6404088628468,35.04736729747761,-24.162667241251796,-0.6353,-0.6797,0.3011,-0.2093
257,1793495.0,1771.0114199999998,1.0,15.75,20.01,-0.46,-21.0,-25.06,-0.69,-189.94,94.31,264.13,-1.9512519003248068,2.0335754620485584,-15.506022455938599,-85.6404088628468,35.04736729747761,-24.162667241251796,-0.6353,-0.6797,0.3011,-0.2093
258,1793529.0,1771.080316,1.0,11.73,23.11,-2.96,-21.0,-25.06,-0.69,-21.12,25.56,249.44,-10.743640057531774,-2.7851287393951942,-13.799363136893609,-78.88447691741733,41.46433827740303,-30.92409351880312,-0.6324,-0.6353,0.354,-0.2666
259,1793529.0,1771.080316,1.0,11.73,23.11,-2.96,-21.0,-25.06,-0.69,-21.12,25.56,249.44,-10.743640057531774,-2.7851287393951942,-13.799363136893609,-78.88447691741733,41.46433827740303,-30.92409351880312,-0.6324,-0.6353,0.354,-0.2666
260,1793566.0,1771.0984239999998,1.0,12.99,10.48,-5.0,-28.19,-18.69,-5.5,163.31,135.63,179.88,-2.094249568928458,-4.079274188259846,-7.002399373478567,-78.46961958186714,41.9548397514564,-38.82902123966127,-0.6011,-0.6325,0.358,-0.3324
261,1793566.0,1771.0984239999998,1.0,12.99,10.48,-5.0,-28.19,-18.69,-5.5,163.31,135.63,179.88,-2.094249568928458,-4.079274188259846,-7.002399373478567,-78.46961958186714,41.9548397514564,-38.82902123966127,-0.6011,-0.6325,0.358,-0.3324
262,1793603.0,1771.101789,1.0,15.23,7.35,-8.15,-32.75,-13.38,-6.75,-54.94,81.87,80.06,-0.1490435335209086,-8.134682814797527,-7.1108740956752765,-75.88930894202932,40.97463022944533,-45.685088838323495,-0.5904,-0.6149,0.35,-0.3882
263,1793603.0,1771.101789,1.0,15.23,7.35,-8.15,-32.75,-13.38,-6.75,-54.94,81.87,80.06,-0.1490435335209086,-8.134682814797527,-7.1108740956752765,-75.88930894202932,40.97463022944533,-45.685088838323495,-0.5904,-0.6149,0.35,-0.3882
264,1793638.0,1771.14187,1.0,10.36,14.66,-5.5,-32.75,-13.38,-6.75,-178.0,15.5,45.13,-8.839129996231776,-6.227946020708607,-5.5418896462613185,-71.30954553159043,43.44356934572808,-45.54834570673154,-0.611,-0.5829,0.3701,-0.3871
265,1793638.0,1771.14187,1.0,10.36,14.66,-5.5,-32.75,-13.38,-6.75,-178.0,15.5,45.13,-8.839129996231776,-6.227946020708607,-5.5418896462613185,-71.30954553159043,43.44356934572808,-45.54834570673154,-0.611,-0.5829,0.3701,-0.3871
266,1793673.0,1771.2023609999999,1.0,12.44,12.36,-6.15,-34.69,-10.38,-9.69,28.19,65.69,15.19,-5.892585308418778,-7.733295250520286,-6.030625111309004,-68.41615870880295,44.07334918943469,-45.88411078347371,-0.6255,-0.5622,0.3752,-0.3898
267,1793673.0,1771.2023609999999,1.0,12.44,12.36,-6.15,-34.69,-10.38,-9.69,28.19,65.69,15.19,-5.892585308418778,-7.733295250520286,-6.030625111309004,-68.41615870880295,44.07334918943469,-45.88411078347371,-0.6255,-0.5622,0.3752,-0.3898
268,1793708.0,1771.2600350000002,1.0,14.55,5.75,-5.92,-35.19,-8.75,-12.5,117.37,79.62,45.56,0.13138379804841227,-7.5346341308056966,-5.127318890168091,-69.34710995579182,41.26836056402613,-50.111510359679706,-0.6105,-0.5689,0.3524,-0.4235
269,1793708.0,1771.2600350000002,1.0,14.55,5.75,-5.92,-35.19,-8.75,-12.5,117.37,79.62,45.56,0.13138379804841227,-7.5346341308056966,-5.127318890168091,-69.34710995579182,41.26836056402613,-50.111510359679706,-0.6105,-0.5689,0.3524,-0.4235
270,1793744.0,1771.268052,1.0,9.85,7.32,-2.01,-33.75,-8.19,-12.38,-30.94,-24.87,3.25,-3.0395317302045943,-3.0893214228044537,-1.849350171914935,-69.13823625091533,41.611404826079344,-50.326646830888215,-0.6092,-0.5674,0.3552,-0.4252
271,1793744.0,1771.268052,1.0,9.85,7.32,-2.01,-33.75,-8.19,-12.38,-30.94,-24.87,3.25,-3.0395317302045943,-3.0893214228044537,-1.849350171914935,-69.13823625091533,41.611404826079344,-50.326646830888215,-0.6092,-0.5674,0.3552,-0.4252
272,1793779.0,1771.288344,1.0,7.47,8.15,-0.14,-33.75,-8.19,-12.38,-36.5,-20.62,-14.63,-4.5488906000825695,-1.0335623677695565,-0.21743814508387335,-68.79069483955588,42.55680426104336,-48.90012665540839,-0.6147,-0.5649,0.3629,-0.4139
273,1793779.0,1771.288344,1.0,7.47,8.15,-0.14,-33.75,-8.19,-12.38,-36.5,-20.62,-14.63,-4.5488906000825695,-1.0335623677695565,-0.21743814508387335,-68.79069483955588,42.55680426104336,-48.90012665540839,-0.6147,-0.5649,0.3629,-0.4139
274,1793816.0,1771.333468,1.0,6.05,6.27,1.64,-35.25,-8.0,-12.38,37.31,-23.87,-33.13,-3.208012524731015,1.051925487278945,1.6086558300592877,-70.0032963629689,42.22495842729175,-48.10831891577421,-0.6125,-0.5736,0.3602,-0.4076
275,1793816.0,1771.333468,1.0,6.05,6.27,1.64,-35.25,-8.0,-12.38,37.31,-23.87,-33.13,-3.208012524731015,1.051925487278945,1.6086558300592877,-70.0032963629689,42.22495842729175,-48.10831891577421,-0.6125,-0.5736,0.3602,-0.4076
276,1793853.0,1771.3976519999999,1.0,7.54,4.42,1.01,-33.5,-8.75,-12.38,33.88,-20.25,-14.81,-0.7705553302285506,0.5157323065181196,1.0574577703670318,-71.95960119494845,41.29285086382844,-47.90761495262175,-0.6048,-0.5875,0.3526,-0.406
277,1793853.0,1771.3976519999999,1.0,7.54,4.42,1.01,-33.5,-8.75,-12.38,33.88,-20.25,-14.81,-0.7705553302285506,0.5157323065181196,1.0574577703670318,-71.95960119494845,41.29285086382844,-47.90761495262175,-0.6048,-0.5875,0.3526,-0.406
278,1793888.0,1771.4016170000002,1.0,5.93,5.72,1.76,-33.5,-8.75,-12.38,4.75,-29.25,-27.75,-2.495499877269601,1.5258879483608805,1.9056977579221872,-72.88275430640832,41.31734313597096,-46.9938686467816,-0.603,-0.594,0.3528,-0.3987
279,1793888.0,1771.4016170000002,1.0,5.93,5.72,1.76,-33.5,-8.75,-12.38,4.75,-29.25,-27.75,-2.495499877269601,1.5258879483608805,1.9056977579221872,-72.88275430640832,41.31734313597096,-46.9938686467816,-0.603,-0.594,0.3528,-0.3987
280,1793921.0,1771.418702,1.0,4.5,5.2,3.15,-32.38,-9.25,-11.56,24.81,29.44,-37.56,-2.392392456035176,3.0349264278859325,3.3044826756668675,-73.96915070870061,40.15611188549902,-46.35737642818546,-0.6044,-0.6016,0.3433,-0.3936
281,1793921.0,1771.418702,1.0,4.5,5.2,3.15,-32.38,-9.25,-11.56,24.81,29.44,-37.56,-2.392392456035176,3.0349264278859325,3.3044826756668675,-73.96915070870061,40.15611188549902,-46.35737642818546,-0.6044,-0.6016,0.3433,-0.3936
282,1793955.0,1771.4620760000003,1.0,6.81,4.57,0.82,-34.69,-10.75,-10.38,39.63,70.06,-24.19,-0.7823626935971761,0.39621512817248217,1.6112657998618118,-74.1844858325427,38.0038595239246,-47.35648075084825,-0.6074,-0.6031,0.3256,-0.4016
283,1793955.0,1771.4620760000003,1.0,6.81,4.57,0.82,-34.69,-10.75,-10.38,39.63,70.06,-24.19,-0.7823626935971761,0.39621512817248217,1.6112657998618118,-74.1844858325427,38.0038595239246,-47.35648075084825,-0.6074,-0.6031,0.3256,-0.4016
284,1793994.0,1771.525264,1.0,7.95,4.05,-0.48,-31.69,-12.25,-12.0,46.0,57.94,-7.13,0.11724573575298634,-1.2464250776565475,0.9597252256370687,-74.4576837501471,35.39602326525133,-49.2528385760365,-0.6065,-0.605,0.304,-0.4167
285,1793994.0,1771.525264,1.0,7.95,4.05,-0.48,-31.69,-12.25,-12.0,46.0,57.94,-7.13,0.11724573575298634,-1.2464250776565475,0.9597252256370687,-74.4576837501471,35.39602326525133,-49.2528385760365,-0.6065,-0.605,0.304,-0.4167
286,1794027.0,1771.5461489999998,1.0,7.02,3.75,0.71,-31.69,-12.25,-12.0,36.44,60.25,11.19,0.0690916650206923,-0.14848432144345058,1.8178967338069447,-74.2850802819462,33.428651899003285,-51.48152030899618,-0.6035,-0.6038,0.2876,-0.4343
287,1794027.0,1771.5461489999998,1.0,7.02,3.75,0.71,-31.69,-12.25,-12.0,36.44,60.25,11.19,0.0690916650206923,-0.14848432144345058,1.8178967338069447,-74.2850802819462,33.428651899003285,-51.48152030899618,-0.6035,-0.6038,0.2876,-0.4343
288,1794064.0,1771.589972,1.0,7.87,5.24,-0.11,-31.69,-12.25,-11.56,3.63,84.56,-15.38,-0.9913508233032118,-1.3037102395624012,0.4940690926254892,-72.66923443071872,32.24596273355917,-52.360941896715254,-0.6142,-0.5925,0.2777,-0.4412
289,1794064.0,1771.589972,1.0,7.87,5.24,-0.11,-31.69,-12.25,-11.56,3.63,84.56,-15.38,-0.9913508233032118,-1.3037102395624012,0.4940690926254892,-72.66923443071872,32.24596273355917,-52.360941896715254,-0.6142,-0.5925,0.2777,-0.4412
290,1794101.0,1771.609461,1.0,7.12,4.22,1.3,-30.19,-13.0,-14.5,29.87,52.13,-12.19,-0.12210845471921815,-0.09947345275354946,1.4300161559380893,-72.058757038671,30.52004779633356,-53.320615694584525,-0.6193,-0.5882,0.2632,-0.4487
291,1794101.0,1771.609461,1.0,7.12,4.22,1.3,-30.19,-13.0,-14.5,29.87,52.13,-12.19,-0.12210845471921815,-0.09947345275354946,1.4300161559380893,-72.058757038671,30.52004779633356,-53.320615694584525,-0.6193,-0.5882,0.2632,-0.4487
292,1794136.0,1771.657903,1.0,8.17,4.86,1.1,-30.19,-13.0,-14.5,24.31,36.0,8.06,-0.2558119183528245,-0.5982446562723389,0.2591286675456832,-71.95960119494845,29.36944254732168,-54.52914355096097,-0.6171,-0.5875,0.2535,-0.4581
293,1794136.0,1771.657903,1.0,8.17,4.86,1.1,-30.19,-13.0,-14.5,24.31,36.0,8.06,-0.2558119183528245,-0.5982446562723389,0.2591286675456832,-71.95960119494845,29.36944254732168,-54.52914355096097,-0.6171,-0.5875,0.2535,-0.4581
294,1794168.0,1771.676908,1.0,7.74,5.77,1.6,-30.19,-13.75,-15.75,22.37,48.5,4.0,-1.1444282381511692,-0.06622921925095948,0.0882963483653949,-71.3377536515333,28.446410631571,-55.485171978249646,-0.6188,-0.5831,0.2457,-0.4655
295,1794168.0,1771.676908,1.0,7.74,5.77,1.6,-30.19,-13.75,-15.75,22.37,48.5,4.0,-1.1444282381511692,-0.06622921925095948,0.0882963483653949,-71.3377536515333,28.446410631571,-55.485171978249646,-0.6188,-0.5831,0.2457,-0.4655
296,1794205.0,1771.7360600000002,1.0,8.44,4.12,2.58,-29.0,-13.38,-16.06,40.06,69.56,-6.06,0.8783158661044401,0.23458590460152665,0.10933435634316703,-70.78858910682754,27.006438787370872,-56.39339939535494,-0.6219,-0.5792,0.2335,-0.4725
297,1794205.0,1771.7360600000002,1.0,8.44,4.12,2.58,-29.0,-13.38,-16.06,40.06,69.56,-6.06,0.8783158661044401,0.23458590460152665,0.10933435634316703,-70.78858910682754,27.006438787370872,-56.39339939535494,-0.6219,-0.5792,0.2335,-0.4725
298,1794242.0,1771.774793,1.0,8.43,4.8,1.92,-27.87,-14.88,-19.0,16.56,52.81,10.06,0.07237556163623626,-0.5471285967086432,-0.06688594598923281,-69.8914199628782,25.8058643261674,-57.69761729678852,-0.6238,-0.5728,0.2233,-0.4825
299,1794242.0,1771.774793,1.0,8.43,4.8,1.92,-27.87,-14.88,-19.0,16.56,52.81,10.06,0.07237556163623626,-0.5471285967086432,-0.06688594598923281,-69.8914199628782,25.8058643261674,-57.69761729678852,-0.6238,-0.5728,0.2233,-0.4825
300,1794277.0,1771.7933859999998,1.0,8.26,5.36,2.16,-27.87,-14.88,-19.0,15.88,56.75,15.81,-0.5163250499772984,-0.3203255703368346,-0.2558347811936752,-69.33317685680693,25.03056340197877,-59.14177438587889,-0.6212,-0.5688,0.2167,-0.4935
301,1794277.0,1771.7933859999998,1.0,8.26,5.36,2.16,-27.87,-14.88,-19.0,15.88,56.75,15.81,-0.5163250499772984,-0.3203255703368346,-0.2558347811936752,-69.33317685680693,25.03056340197877,-59.14177438587889,-0.6212,-0.5688,0.2167,-0.4935
302,1794314.0,1771.852093,1.0,8.72,4.23,4.57,-28.0,-14.5,-19.0,23.25,85.44,20.12,1.2886801013993925,1.141784848003235,-0.7693525981997329,-67.77996741979399,23.35467940290321,-61.18117407576951,-0.624,-0.5576,0.2024,-0.5089
303,1794314.0,1771.852093,1.0,8.72,4.23,4.57,-28.0,-14.5,-19.0,23.25,85.44,20.12,1.2886801013993925,1.141784848003235,-0.7693525981997329,-67.77996741979399,23.35467940290321,-61.18117407576951,-0.624,-0.5576,0.2024,-0.5089
304,1794349.0,1771.881284,1.0,8.72,4.24,4.22,-26.87,-14.88,-21.5,4.69,72.12,28.94,1.0229635452933663,0.5106333559142193,-0.7060660696381706,-66.22709184452836,22.53618284114898,-62.75843566799939,-0.6263,-0.5463,0.1954,-0.5207
305,1794349.0,1771.881284,1.0,8.72,4.24,4.22,-26.87,-14.88,-21.5,4.69,72.12,28.94,1.0229635452933663,0.5106333559142193,-0.7060660696381706,-66.22709184452836,22.53618284114898,-62.75843566799939,-0.6263,-0.5463,0.1954,-0.5207
306,1794383.0,1771.903365,1.0,8.23,5.33,2.51,-26.87,-14.88,-21.5,-20.37,-7.75,11.25,-0.8530138342487049,-0.7588783170747808,-0.2501074843213793,-65.13597459719793,22.617979384064764,-63.889331204462884,-0.626,-0.5383,0.1961,-0.5291
307,1794383.0,1771.903365,1.0,8.23,5.33,2.51,-26.87,-14.88,-21.5,-20.37,-7.75,11.25,-0.8530138342487049,-0.7588783170747808,-0.2501074843213793,-65.13597459719793,22.617979384064764,-63.889331204462884,-0.626,-0.5383,0.1961,-0.5291
308,1794418.0,1771.92175,1.0,6.17,4.68,3.2,-26.06,-14.19,-22.19,-16.25,-26.25,0.12,-0.8715758649031454,0.7421700401224371,1.5059970652446282,-64.97288126664843,23.95177191669858,-62.785282198587254,-0.6302,-0.5371,0.2075,-0.5209
309,1794418.0,1771.92175,1.0,6.17,4.68,3.2,-26.06,-14.19,-22.19,-16.25,-26.25,0.12,-0.8715758649031454,0.7421700401224371,1.5059970652446282,-64.97288126664843,23.95177191669858,-62.785282198587254,-0.6302,-0.5371,0.2075,-0.5209
310,1794455.0,1771.967548,1.0,7.89,4.85,2.56,-26.5,-13.38,-23.0,-15.13,47.19,30.62,-0.7330655877226306,-0.7060824497093074,0.25195155272761305,-63.605960216714145,24.33847679675364,-63.30956065668752,-0.6343,-0.527,0.2108,-0.5248
311,1794455.0,1771.967548,1.0,7.89,4.85,2.56,-26.5,-13.38,-23.0,-15.13,47.19,30.62,-0.7330655877226306,-0.7060824497093074,0.25195155272761305,-63.605960216714145,24.33847679675364,-63.30956065668752,-0.6343,-0.527,0.2108,-0.5248
312,1794490.0,1771.984696,1.0,9.59,3.16,2.47,-26.5,-13.38,-23.0,3.31,37.69,24.69,1.167692517210404,-1.9049118257212656,-0.3453155792106646,-62.235691121359,24.38536915234885,-64.2949069533977,-0.6365,-0.5168,0.2112,-0.5321
313,1794490.0,1771.984696,1.0,9.59,3.16,2.47,-26.5,-13.38,-23.0,3.31,37.69,24.69,1.167692517210404,-1.9049118257212656,-0.3453155792106646,-62.235691121359,24.38536915234885,-64.2949069533977,-0.6365,-0.5168,0.2112,-0.5321
314,1794525.0,1772.032207,1.0,7.38,4.15,5.29,-26.5,-13.75,-23.87,-79.56,20.44,-0.25,0.10351640330242584,1.5567559494150656,-0.05422193245141749,-60.7025381110459,25.147957501678356,-64.36259051293125,-0.6431,-0.5053,0.2177,-0.5326
315,1794525.0,1772.032207,1.0,7.38,4.15,5.29,-26.5,-13.75,-23.87,-79.56,20.44,-0.25,0.10351640330242584,1.5567559494150656,-0.05422193245141749,-60.7025381110459,25.147957501678356,-64.36259051293125,-0.6431,-0.5053,0.2177,-0.5326
316,1794560.0,1772.082775,1.0,8.44,5.24,4.43,-26.5,-11.88,-25.5,-50.13,5.5,-20.62,-0.8542782945917902,0.1335103535993345,-1.036250146218773,-58.81265977015818,26.31162955164407,-62.785282198587254,-0.6602,-0.491,0.2276,-0.5209
317,1794560.0,1772.082775,1.0,8.44,5.24,4.43,-26.5,-11.88,-25.5,-50.13,5.5,-20.62,-0.8542782945917902,0.1335103535993345,-1.036250146218773,-58.81265977015818,26.31162955164407,-62.785282198587254,-0.6602,-0.491,0.2276,-0.5209
318,1794596.0,1772.145039,1.0,7.31,3.47,5.35,-25.87,-11.19,-25.06,11.56,-8.69,18.87,0.5259774225345597,1.5113132994123626,0.23905992401935985,-58.996898086234786,26.841478236677798,-62.3829855554336,-0.6599,-0.4924,0.2321,-0.5179
319,1794596.0,1772.145039,1.0,7.31,3.47,5.35,-25.87,-11.19,-25.06,11.56,-8.69,18.87,0.5259774225345597,1.5113132994123626,0.23905992401935985,-58.996898086234786,26.841478236677798,-62.3829855554336,-0.6599,-0.4924,0.2321,-0.5179
320,1794631.0,1772.1632399999999,1.0,7.86,4.48,4.04,-25.87,-11.19,-25.06,-5.56,15.13,19.44,-0.592901256383094,0.07241978271300509,-0.08348768737580238,-58.4578132506004,26.982869511205863,-63.20189622403351,-0.6577,-0.4883,0.2333,-0.524
321,1794631.0,1772.1632399999999,1.0,7.86,4.48,4.04,-25.87,-11.19,-25.06,-5.56,15.13,19.44,-0.592901256383094,0.07241978271300509,-0.08348768737580238,-58.4578132506004,26.982869511205863,-63.20189622403351,-0.6577,-0.4883,0.2333,-0.524
322,1794666.0,1772.1663879999999,1.0,8.98,3.39,3.62,-26.56,-10.75,-25.06,23.44,54.31,42.31,0.5718276106015392,-0.9959090629401356,-0.38737169519505343,-57.64529274825973,26.641245110498453,-64.37613024312793,-0.6564,-0.4821,0.2304,-0.5327
323,1794666.0,1772.1663879999999,1.0,8.98,3.39,3.62,-26.56,-10.75,-25.06,23.44,54.31,42.31,0.5718276106015392,-0.9959090629401356,-0.38737169519505343,-57.64529274825973,26.641245110498453,-64.37613024312793,-0.6564,-0.4821,0.2304,-0.5327
324,1794703.0,1772.2108739999999,1.0,9.82,3.89,3.46,-25.06,-10.0,-26.37,11.88,68.12,53.5,0.034471659318414234,-1.8301283147012808,-1.1562666765251135,-55.96475865649774,25.99399574998519,-66.76146977168455,-0.6531,-0.4692,0.2249,-0.5502
325,1794703.0,1772.2108739999999,1.0,9.82,3.89,3.46,-25.06,-10.0,-26.37,11.88,68.12,53.5,0.034471659318414234,-1.8301283147012808,-1.1562666765251135,-55.96475865649774,25.99399574998519,-66.76146977168455,-0.6531,-0.4692,0.2249,-0.5502
326,1794738.0,1772.2758390000001,1.0,8.18,4.78,4.54,-25.06,-10.0,-26.37,-2.75,69.62,52.88,-1.2976511695962365,-0.2797104882939676,-0.6149748006145312,-54.31009785710634,25.312354349514575,-69.19391021689427,-0.649,-0.4564,0.2191,-0.5678
327,1794738.0,1772.2758390000001,1.0,8.18,4.78,4.54,-25.06,-10.0,-26.37,-2.75,69.62,52.88,-1.2976511695962365,-0.2797104882939676,-0.6149748006145312,-54.31009785710634,25.312354349514575,-69.19391021689427,-0.649,-0.4564,0.2191,-0.5678
328,1794772.0,1772.283575,1.0,7.85,4.03,4.87,-24.69,-9.69,-28.37,4.06,85.81,37.75,-0.8651877146300582,-0.2721328054359673,-0.23116320580627026,-51.837991208733065,24.57298013035922,-71.23904701158034,-0.6515,-0.4371,0.2128,-0.5824
329,1794772.0,1772.283575,1.0,7.85,4.03,4.87,-24.69,-9.69,-28.37,4.06,85.81,37.75,-0.8651877146300582,-0.2721328054359673,-0.23116320580627026,-51.837991208733065,24.57298013035922,-71.23904701158034,-0.6515,-0.4371,0.2128,-0.5824
