,TIME,ELAPSED_SECONDS,PSTATE,acc_x,acc_y,acc_z,mag_x,mag_y,mag_z,gyr_x,gyr_y,gyr_z,lin_x,lin_y,lin_z,eul_x,eul_y,eul_z,qua_w,qua_x,qua_y,qua_z
0,1865879.0,1758.460891,1.0,7.1,-1.19,6.58,-21.5,-2.06,-26.5,-1.25,-1.19,0.19,0.06806102438779592,0.21002278759544316,0.0560726773154645,-42.384689535903355,22.96866884885643,-119.37830144711691,-0.2905,-0.3615,0.1991,-0.8633
1,1865879.0,1758.460891,1.0,7.1,-1.19,6.58,-21.5,-2.06,-26.5,-1.25,-1.19,0.19,0.06806102438779592,0.21002278759544316,0.0560726773154645,-42.384689535903355,22.96866884885643,-119.37830144711691,-0.2905,-0.3615,0.1991,-0.8633
2,1865916.0,1758.5052699999999,1.0,7.22,-1.53,6.45,-23.0,-1.69,-26.5,4.88,1.25,1.06,0.15270741709356014,-0.17025292630448866,0.007696260653672127,-42.384689535903355,22.88682192770989,-119.44645197451608,-0.29,-0.3615,0.1984,-0.8636
3,1865916.0,1758.5052699999999,1.0,7.22,-1.53,6.45,-23.0,-1.69,-26.5,4.88,1.25,1.06,0.15270741709356014,-0.17025292630448866,0.007696260653672127,-42.384689535903355,22.88682192770989,-119.44645197451608,-0.29,-0.3615,0.1984,-0.8636
4,1865951.0,1758.529804,1.0,7.3,-1.4,6.35,-23.0,-1.69,-26.5,-2.56,-1.0,1.44,-0.033509372919022014,-0.15130942165958405,0.031759587271904983,-42.37239946677662,22.91020555294516,-119.49192425354241,-0.2896,-0.3614,0.1986,-0.8638
5,1865951.0,1758.529804,1.0,7.3,-1.4,6.35,-23.0,-1.69,-26.5,-2.56,-1.0,1.44,-0.033509372919022014,-0.15130942165958405,0.031759587271904983,-42.37239946677662,22.91020555294516,-119.49192425354241,-0.2896,-0.3614,0.1986,-0.8638
6,1865986.0,1758.5349469999999,1.0,7.23,-1.34,6.34,-22.25,-1.69,-26.5,-0.63,-1.75,0.56,-0.03472065181170614,-0.07806492029808565,0.0980558512801828,-42.396980116115046,22.95697570537593,-119.44645197451608,-0.2896,-0.3616,0.19899999999999998,-0.8636
7,1865986.0,1758.5349469999999,1.0,7.23,-1.34,6.34,-22.25,-1.69,-26.5,-0.63,-1.75,0.56,-0.03472065181170614,-0.07806492029808565,0.0980558512801828,-42.396980116115046,22.95697570537593,-119.44645197451608,-0.2896,-0.3616,0.19899999999999998,-0.8636
8,1866020.0,1758.5884440000002,1.0,7.05,-1.48,6.59,-23.0,-2.06,-28.06,0.25,-1.75,1.31,0.28651958975459224,0.032797633383577995,0.04766281689891372,-42.43385492531204,23.015443848374385,-119.42372742198721,-0.2891,-0.3619,0.1995,-0.8635
9,1866020.0,1758.5884440000002,1.0,7.05,-1.48,6.59,-23.0,-2.06,-28.06,0.25,-1.75,1.31,0.28651958975459224,0.032797633383577995,0.04766281689891372,-42.43385492531204,23.015443848374385,-119.42372742198721,-0.2891,-0.3619,0.1995,-0.8635
10,1866055.0,1758.635934,1.0,7.15,-1.32,6.53,-22.25,-1.69,-26.5,-1.94,-0.63,3.44,0.08779339165643896,0.09795725871387027,0.034828435120362045,-42.421562810614134,23.08561363949995,-119.44645197451608,-0.2885,-0.3618,0.2001,-0.8636
11,1866055.0,1758.635934,1.0,7.15,-1.32,6.53,-22.25,-1.69,-26.5,-1.94,-0.63,3.44,0.08779339165643896,0.09795725871387027,0.034828435120362045,-42.421562810614134,23.08561363949995,-119.44645197451608,-0.2885,-0.3618,0.2001,-0.8636
12,1866090.0,1758.708294,1.0,7.28,-1.13,6.43,-22.25,-1.69,-26.5,-1.25,-0.37,3.0,-0.17330571095041825,0.1558068648746378,0.030869245942048092,-42.384689535903355,23.179187018494158,-119.49192425354241,-0.2878,-0.3615,0.2009,-0.8638
13,1866090.0,1758.708294,1.0,7.28,-1.13,6.43,-22.25,-1.69,-26.5,-1.25,-0.37,3.0,-0.17330571095041825,0.1558068648746378,0.030869245942048092,-42.384689535903355,23.179187018494158,-119.49192425354241,-0.2878,-0.3615,0.2009,-0.8638
14,1866125.0,1758.7461260000002,1.0,7.21,-1.17,6.35,-22.56,-1.69,-26.5,2.69,-0.19,0.94,-0.1505780463507146,0.10934354736614416,0.12982871196297374,-42.384689535903355,23.190884791431422,-119.51467199760063,-0.2875,-0.3615,0.201,-0.8639
15,1866125.0,1758.7461260000002,1.0,7.21,-1.17,6.35,-22.56,-1.69,-26.5,2.69,-0.19,0.94,-0.1505780463507146,0.10934354736614416,0.12982871196297374,-42.384689535903355,23.190884791431422,-119.51467199760063,-0.2875,-0.3615,0.201,-0.8639
16,1866162.0,1758.753354,1.0,7.22,-1.37,6.43,-22.56,-2.06,-25.69,1.81,-0.31,0.37,0.019915130329558384,-0.008960998937628695,0.04193171998382539,-42.421562810614134,23.109005518751957,-119.53742748975634,-0.2872,-0.3618,0.2003,-0.8640000000000001
17,1866162.0,1758.753354,1.0,7.22,-1.37,6.43,-22.56,-2.06,-25.69,1.81,-0.31,0.37,0.019915130329558384,-0.008960998937628695,0.04193171998382539,-42.421562810614134,23.109005518751957,-119.53742748975634,-0.2872,-0.3618,0.2003,-0.8640000000000001
18,1866194.0,1758.8075379999998,1.0,7.27,-1.29,6.29,-22.56,-2.06,-25.69,1.31,-0.19,-0.56,-0.13090959718433148,-0.04536248561841205,0.10809830800682896,-42.421562810614134,23.097309457161245,-119.53742748975634,-0.2872,-0.3618,0.2002,-0.8640000000000001
19,1866194.0,1758.8075379999998,1.0,7.27,-1.29,6.29,-22.56,-2.06,-25.69,1.31,-0.19,-0.56,-0.13090959718433148,-0.04536248561841205,0.10809830800682896,-42.421562810614134,23.097309457161245,-119.53742748975634,-0.2872,-0.3618,0.2002,-0.8640000000000001
20,1866229.0,1758.823995,1.0,7.13,-1.53,6.42,-22.56,-2.06,-26.06,2.13,-1.56,-1.88,0.18360510270510533,-0.11178031687943067,0.09336042709942838,-42.49532318150223,23.027138205337288,-119.51467199760063,-0.2872,-0.3624,0.1996,-0.8639
21,1866229.0,1758.823995,1.0,7.13,-1.53,6.42,-22.56,-2.06,-26.06,2.13,-1.56,-1.88,0.18360510270510533,-0.11178031687943067,0.09336042709942838,-42.49532318150223,23.027138205337288,-119.51467199760063,-0.2872,-0.3624,0.1996,-0.8639
22,1866266.0,1758.865262,1.0,7.17,-1.36,6.48,-21.5,-1.69,-26.06,-1.19,-0.19,-0.12,0.0828310592307051,0.035055761357648874,0.04751017575205019,-42.49532318150223,23.027138205337288,-119.51467199760063,-0.2873,-0.3624,0.1996,-0.8639
23,1866266.0,1758.865262,1.0,7.17,-1.36,6.48,-21.5,-1.69,-26.06,-1.19,-0.19,-0.12,0.0828310592307051,0.035055761357648874,0.04751017575205019,-42.49532318150223,23.027138205337288,-119.51467199760063,-0.2873,-0.3624,0.1996,-0.8639
24,1866301.0,1758.880649,1.0,7.18,-1.45,6.41,-21.5,-1.69,-26.06,1.63,0.31,0.25,0.09676479527277217,-0.07709897244451958,0.07383476889426,-42.48302850521899,23.015443848374385,-119.53742748975634,-0.2872,-0.3623,0.1995,-0.8640000000000001
25,1866301.0,1758.880649,1.0,7.18,-1.45,6.41,-21.5,-1.69,-26.06,1.63,0.31,0.25,0.09676479527277217,-0.07709897244451958,0.07383476889426,-42.48302850521899,23.015443848374385,-119.53742748975634,-0.2872,-0.3623,0.1995,-0.8640000000000001
26,1866336.0,1758.9189920000001,1.0,7.22,-1.26,6.32,-22.25,-2.06,-26.87,-1.37,-0.56,0.5,-0.09670493670023628,0.005383838030219801,0.12940766710857154,-42.47073434166396,23.038832805407413,-119.53742748975634,-0.2872,-0.3622,0.1997,-0.8640000000000001
27,1866336.0,1758.9189920000001,1.0,7.22,-1.26,6.32,-22.25,-2.06,-26.87,-1.37,-0.56,0.5,-0.09670493670023628,0.005383838030219801,0.12940766710857154,-42.47073434166396,23.038832805407413,-119.53742748975634,-0.2872,-0.3622,0.1997,-0.8640000000000001
28,1866371.0,1758.9265149999999,1.0,7.18,-1.23,6.5,-21.5,-1.25,-27.25,-1.19,-0.44,-0.5,-0.0006040934296281941,0.14609036895926142,0.04478761420657485,-42.47073434166396,23.073918065630973,-119.49192425354241,-0.2874,-0.3622,0.2,-0.8638
29,1866371.0,1758.9265149999999,1.0,7.18,-1.23,6.5,-21.5,-1.25,-27.25,-1.19,-0.44,-0.5,-0.0006040934296281941,0.14609036895926142,0.04478761420657485,-42.47073434166396,23.073918065630973,-119.49192425354241,-0.2874,-0.3622,0.2,-0.8638
30,1866405.0,1758.98532,1.0,7.19,-1.37,6.52,-22.56,-2.06,-26.5,1.44,-0.44,-0.88,0.09708414834751156,0.043437014678145314,0.00501299927937815,-42.48302850521899,23.038832805407413,-119.49192425354241,-0.2874,-0.3623,0.1997,-0.8638
31,1866405.0,1758.98532,1.0,7.19,-1.37,6.52,-22.56,-2.06,-26.5,1.44,-0.44,-0.88,0.09708414834751156,0.043437014678145314,0.00501299927937815,-42.48302850521899,23.038832805407413,-119.49192425354241,-0.2874,-0.3623,0.1997,-0.8638
32,1866440.0,1759.0013170000002,1.0,7.18,-1.32,6.45,-22.56,-2.06,-26.5,-0.25,0.31,-0.12,0.034219521609596286,0.043030147083467966,0.06528061829689236,-42.47073434166396,23.027138205337288,-119.49192425354241,-0.2875,-0.3622,0.1996,-0.8638
33,1866440.0,1759.0013170000002,1.0,7.18,-1.32,6.45,-22.56,-2.06,-26.5,-0.25,0.31,-0.12,0.034219521609596286,0.043030147083467966,0.06528061829689236,-42.47073434166396,23.027138205337288,-119.49192425354241,-0.2875,-0.3622,0.1996,-0.8638
34,1866477.0,1759.0541460000002,1.0,7.22,-1.38,6.27,-22.25,-1.0,-27.25,1.63,-0.19,-0.63,-0.03807375880809505,-0.12224408142383048,0.1459405657272228,-42.49532318150223,22.98036223475966,-119.53742748975634,-0.2875,-0.3624,0.1992,-0.8640000000000001
35,1866477.0,1759.0541460000002,1.0,7.22,-1.38,6.27,-22.25,-1.0,-27.25,1.63,-0.19,-0.63,-0.03807375880809505,-0.12224408142383048,0.1459405657272228,-42.49532318150223,22.98036223475966,-119.53742748975634,-0.2875,-0.3624,0.1992,-0.8640000000000001
36,1866512.0,1759.0971170000003,1.0,7.25,-1.29,6.37,-22.25,-2.06,-27.69,0.88,0.06,-0.63,-0.06028752608840893,-0.010629292670028656,0.07013355764057039,-42.49532318150223,22.98036223475966,-119.51467199760063,-0.2877,-0.3624,0.1992,-0.8639
37,1866512.0,1759.0971170000003,1.0,7.25,-1.29,6.37,-22.25,-2.06,-27.69,0.88,0.06,-0.63,-0.06028752608840893,-0.010629292670028656,0.07013355764057039,-42.49532318150223,22.98036223475966,-119.51467199760063,-0.2877,-0.3624,0.1992,-0.8639
38,1866547.0,1759.1041969999999,1.0,7.17,-1.44,6.45,-22.25,-2.06,-27.69,0.44,0.12,-1.12,0.12480922500098154,-0.05514968466689352,0.056450967691182186,-42.49532318150223,22.95697570537593,-119.49192425354241,-0.2878,-0.3624,0.19899999999999998,-0.8638
39,1866547.0,1759.1041969999999,1.0,7.17,-1.44,6.45,-22.25,-2.06,-27.69,0.44,0.12,-1.12,0.12480922500098154,-0.05514968466689352,0.056450967691182186,-42.49532318150223,22.95697570537593,-119.49192425354241,-0.2878,-0.3624,0.19899999999999998,-0.8638
40,1866582.0,1759.1579160000001,1.0,7.21,-1.28,6.29,-23.0,-2.06,-26.87,-1.25,0.25,-0.56,-0.08287362683445565,-0.034945114973686575,0.15374832221860935,-42.49532318150223,22.98036223475966,-119.49192425354241,-0.28800000000000003,-0.3624,0.1992,-0.8638
41,1866582.0,1759.1579160000001,1.0,7.21,-1.28,6.29,-23.0,-2.06,-26.87,-1.25,0.25,-0.56,-0.08287362683445565,-0.034945114973686575,0.15374832221860935,-42.49532318150223,22.98036223475966,-119.49192425354241,-0.28800000000000003,-0.3624,0.1992,-0.8638
42,1866616.0,1759.175259,1.0,7.19,-1.39,6.41,-21.87,-1.25,-26.87,0.44,0.5,-0.06,0.06217597467771185,-0.04655879865738189,0.0747300236314885,-42.49532318150223,22.96866884885643,-119.46918424877704,-0.2881,-0.3624,0.1991,-0.8637
43,1866616.0,1759.175259,1.0,7.19,-1.39,6.41,-21.87,-1.25,-26.87,0.44,0.5,-0.06,0.06217597467771185,-0.04655879865738189,0.0747300236314885,-42.49532318150223,22.96866884885643,-119.46918424877704,-0.2881,-0.3624,0.1991,-0.8637
44,1866653.0,1759.2275399999999,1.0,7.2,-1.34,6.48,-22.56,-1.69,-27.25,-0.37,0.56,0.19,0.05785924383268237,0.030550048288011226,0.028014154318215745,-42.48302850521899,23.003749734381753,-119.44645197451608,-0.2882,-0.3623,0.1994,-0.8636
45,1866653.0,1759.2275399999999,1.0,7.2,-1.34,6.48,-22.56,-1.69,-27.25,-0.37,0.56,0.19,0.05785924383268237,0.030550048288011226,0.028014154318215745,-42.48302850521899,23.003749734381753,-119.44645197451608,-0.2882,-0.3623,0.1994,-0.8636
46,1866688.0,1759.269105,1.0,7.28,-1.07,6.44,-22.56,-1.69,-27.25,-2.06,0.44,1.31,-0.18597516323529867,0.1877017164716399,0.031831264888168675,-42.47073434166396,23.027138205337288,-119.46918424877704,-0.28800000000000003,-0.3622,0.1996,-0.8637
47,1866688.0,1759.269105,1.0,7.28,-1.07,6.44,-22.56,-1.69,-27.25,-2.06,0.44,1.31,-0.18597516323529867,0.1877017164716399,0.031831264888168675,-42.47073434166396,23.027138205337288,-119.46918424877704,-0.28800000000000003,-0.3622,0.1996,-0.8637
48,1866725.0,1759.326093,1.0,7.23,-1.47,6.32,-22.56,-1.69,-27.25,3.25,-0.06,0.0,0.042025232301337916,-0.16645325710827685,0.09342565413790282,-42.49532318150223,22.99205586322248,-119.49192425354241,-0.2879,-0.3624,0.1993,-0.8638
49,1866725.0,1759.326093,1.0,7.23,-1.47,6.32,-22.56,-1.69,-27.25,3.25,-0.06,0.0,0.042025232301337916,-0.16645325710827685,0.09342565413790282,-42.49532318150223,22.99205586322248,-119.49192425354241,-0.2879,-0.3624,0.1993,-0.8638
50,1866760.0,1759.331786,1.0,7.3,-1.17,6.46,-22.56,-1.69,-28.06,-2.19,-0.12,0.63,-0.1212123998746083,0.11381423746710828,-0.00980831618850786,-42.48302850521899,23.003749734381753,-119.49192425354241,-0.2879,-0.3623,0.1994,-0.8638
51,1866760.0,1759.331786,1.0,7.3,-1.17,6.46,-22.56,-1.69,-28.06,-2.19,-0.12,0.63,-0.1212123998746083,0.11381423746710828,-0.00980831618850786,-42.48302850521899,23.003749734381753,-119.49192425354241,-0.2879,-0.3623,0.1994,-0.8638
52,1866792.0,1759.351407,1.0,7.15,-1.29,6.54,-22.56,-1.69,-28.06,1.25,-0.63,-2.19,0.08986056721864111,0.1161685930864952,0.032365886243157505,-42.507618370719364,22.98036223475966,-119.44645197451608,-0.2883,-0.3625,0.1992,-0.8636
53,1866792.0,1759.351407,1.0,7.15,-1.29,6.54,-22.56,-1.69,-28.06,1.25,-0.63,-2.19,0.08986056721864111,0.1161685930864952,0.032365886243157505,-42.507618370719364,22.98036223475966,-119.44645197451608,-0.2883,-0.3625,0.1992,-0.8636
54,1866827.0,1759.3941320000001,1.0,7.56,-0.98,6.43,-22.25,-1.25,-26.5,0.0,0.19,-0.69,-0.3924808447695063,0.13538820230207982,-0.15761258290930336,-42.53221028877852,22.921897728102717,-119.44645197451608,-0.2885,-0.3627,0.1987,-0.8636
55,1866827.0,1759.3941320000001,1.0,7.56,-0.98,6.43,-22.25,-1.25,-26.5,0.0,0.19,-0.69,-0.3924808447695063,0.13538820230207982,-0.15761258290930336,-42.53221028877852,22.921897728102717,-119.44645197451608,-0.2885,-0.3627,0.1987,-0.8636
56,1866864.0,1759.4402920000002,1.0,7.94,-1.17,6.16,-21.87,-1.69,-27.25,0.88,0.81,-10.31,-0.6050381775840339,-0.3219744274527312,-0.2873264846036907,-42.55680426104336,22.79329707445838,-119.3556000073112,-0.2902,-0.3629,0.1976,-0.8632
57,1866864.0,1759.4402920000002,1.0,7.94,-1.17,6.16,-21.87,-1.69,-27.25,0.88,0.81,-10.31,-0.6050381775840339,-0.3219744274527312,-0.2873264846036907,-42.55680426104336,22.79329707445838,-119.3556000073112,-0.2902,-0.3629,0.1976,-0.8632
58,1866899.0,1759.498176,1.0,8.57,-0.79,6.26,-21.87,-1.69,-27.25,-8.38,-3.56,-20.5,-1.110328412681307,-0.2390898505540866,-0.7747774490427144,-42.64289936464318,22.769918267605057,-118.9708445669936,-0.2944,-0.3636,0.1974,-0.8615
59,1866899.0,1759.498176,1.0,8.57,-0.79,6.26,-21.87,-1.69,-27.25,-8.38,-3.56,-20.5,-1.110328412681307,-0.2390898505540866,-0.7747774490427144,-42.64289936464318,22.769918267605057,-118.9708445669936,-0.2944,-0.3636,0.1974,-0.8615
60,1866934.0,1759.5564350000002,1.0,9.69,-0.36,5.29,-22.25,-2.06,-26.06,2.13,-15.63,-36.75,-2.347083773230749,-0.950079507667807,-0.9450171586571444,-43.14768015800515,22.559552093060894,-118.02953078996279,-0.3027,-0.3677,0.1956,-0.8573
61,1866934.0,1759.5564350000002,1.0,9.69,-0.36,5.29,-22.25,-2.06,-26.06,2.13,-15.63,-36.75,-2.347083773230749,-0.950079507667807,-0.9450171586571444,-43.14768015800515,22.559552093060894,-118.02953078996279,-0.3027,-0.3677,0.1956,-0.8573
62,1866969.0,1759.5730059999999,1.0,9.51,-0.17,6.16,-21.87,-2.5,-27.25,-17.19,-28.06,-55.81,-1.588583354940035,-0.33113605285589265,-1.4085785682863603,-44.33307679780215,22.51281453874211,-115.92476601153635,-0.3179,-0.3773,0.1952,-0.8477
63,1866969.0,1759.5730059999999,1.0,9.51,-0.17,6.16,-21.87,-2.5,-27.25,-17.19,-28.06,-55.81,-1.588583354940035,-0.33113605285589265,-1.4085785682863603,-44.33307679780215,22.51281453874211,-115.92476601153635,-0.3179,-0.3773,0.1952,-0.8477
64,1867005.0,1759.575875,1.0,10.8,1.76,6.02,-24.06,-3.19,-26.06,-49.94,-20.06,-92.5,-3.3872844133738576,0.31327100003605035,-2.210261649148917,-45.01445861245965,22.79329707445838,-113.71219000408917,-0.3366,-0.3828,0.1976,-0.8373
65,1867005.0,1759.575875,1.0,10.8,1.76,6.02,-24.06,-3.19,-26.06,-49.94,-20.06,-92.5,-3.3872844133738576,0.31327100003605035,-2.210261649148917,-45.01445861245965,22.79329707445838,-113.71219000408917,-0.3366,-0.3828,0.1976,-0.8373
66,1867040.0,1759.6122890000001,1.0,11.88,2.2,5.53,-24.06,-3.19,-26.06,-30.75,-26.0,-115.44,-3.851223103385964,-0.5723433943203353,-2.8975148150094494,-46.33244691855332,22.53618284114898,-109.82995506205258,-0.3707,-0.3934,0.1954,-0.8183
67,1867040.0,1759.6122890000001,1.0,11.88,2.2,5.53,-24.06,-3.19,-26.06,-30.75,-26.0,-115.44,-3.851223103385964,-0.5723433943203353,-2.8975148150094494,-46.33244691855332,22.53618284114898,-109.82995506205258,-0.3707,-0.3934,0.1954,-0.8183
68,1867077.0,1759.667353,1.0,13.12,1.72,4.66,-23.0,-3.56,-26.5,-18.5,-43.94,-154.44,-3.5862120191186917,-2.434955614955734,-3.5357064075887354,-48.08322235291628,21.555518290408003,-106.12661834568745,-0.4003,-0.4074,0.187,-0.7993
69,1867077.0,1759.667353,1.0,13.12,1.72,4.66,-23.0,-3.56,-26.5,-18.5,-43.94,-154.44,-3.5862120191186917,-2.434955614955734,-3.5357064075887354,-48.08322235291628,21.555518290408003,-106.12661834568745,-0.4003,-0.4074,0.187,-0.7993
70,1867114.0,1759.683272,1.0,12.04,1.23,5.61,-23.37,-6.19,-25.25,-20.06,-92.0,-173.06,-0.8848096965261921,-1.907899350466293,-3.366186895271399,-51.77429627625306,20.506574164810864,-99.299361288376,-0.4437,-0.4366,0.17800000000000002,-0.7621
71,1867114.0,1759.683272,1.0,12.04,1.23,5.61,-23.37,-6.19,-25.25,-20.06,-92.0,-173.06,-0.8848096965261921,-1.907899350466293,-3.366186895271399,-51.77429627625306,20.506574164810864,-99.299361288376,-0.4437,-0.4366,0.17800000000000002,-0.7621
72,1867149.0,1759.7637,1.0,11.97,3.1,7.2,-23.37,-6.19,-25.25,-32.44,-88.12,-148.75,-0.6352392869280075,0.130401890393274,-4.4870677247672335,-54.42603640579737,20.262073582983945,-94.19277872550184,-0.4725,-0.4573,0.1759,-0.7325
73,1867149.0,1759.7637,1.0,11.97,3.1,7.2,-23.37,-6.19,-25.25,-32.44,-88.12,-148.75,-0.6352392869280075,0.130401890393274,-4.4870677247672335,-54.42603640579737,20.262073582983945,-94.19277872550184,-0.4725,-0.4573,0.1759,-0.7325
74,1867184.0,1759.7665949999998,1.0,12.42,6.53,7.8,-23.87,-9.19,-23.56,-6.38,-82.75,-178.81,-1.9686290721287765,1.743813761254022,-6.0306765781327645,-57.88085702604191,19.52912606682039,-87.52965940298756,-0.5087,-0.4839,0.1696,-0.6917
75,1867184.0,1759.7665949999998,1.0,12.42,6.53,7.8,-23.87,-9.19,-23.56,-6.38,-82.75,-178.81,-1.9686290721287765,1.743813761254022,-6.0306765781327645,-57.88085702604191,19.52912606682039,-87.52965940298756,-0.5087,-0.4839,0.1696,-0.6917
76,1867218.0,1759.8132260000002,1.0,10.93,5.44,8.17,-24.19,-11.38,-24.5,41.56,-94.56,-201.5,1.013626803726822,2.1590217726658003,-4.688817763681229,-62.77185845365902,16.59349169701811,-80.04673804640113,-0.5426,-0.5208,0.1443,-0.6431
77,1867218.0,1759.8132260000002,1.0,10.93,5.44,8.17,-24.19,-11.38,-24.5,41.56,-94.56,-201.5,1.013626803726822,2.1590217726658003,-4.688817763681229,-62.77185845365902,16.59349169701811,-80.04673804640113,-0.5426,-0.5208,0.1443,-0.6431
78,1867257.0,1759.820944,1.0,10.87,6.77,8.16,-23.37,-15.56,-19.56,53.31,-76.19,-170.44,1.2131465497766356,2.5515862882210065,-5.112903708557359,-66.17237591930831,14.211377245158012,-75.07781120147467,-0.5618,-0.5459,0.1237,-0.6093
79,1867257.0,1759.820944,1.0,10.87,6.77,8.16,-23.37,-15.56,-19.56,53.31,-76.19,-170.44,1.2131465497766356,2.5515862882210065,-5.112903708557359,-66.17237591930831,14.211377245158012,-75.07781120147467,-0.5618,-0.5459,0.1237,-0.6093
80,1867292.0,1759.863224,1.0,9.15,8.17,8.84,-23.37,-15.56,-19.56,86.0,-81.31,-155.63,1.8230408007333423,4.525391393160451,-4.5046865894863535,-71.39418485009088,10.637910557080565,-68.98522882076507,-0.5746,-0.5835,0.0927,-0.5663
81,1867292.0,1759.863224,1.0,9.15,8.17,8.84,-23.37,-15.56,-19.56,86.0,-81.31,-155.63,1.8230408007333423,4.525391393160451,-4.5046865894863535,-71.39418485009088,10.637910557080565,-68.98522882076507,-0.5746,-0.5835,0.0927,-0.5663
82,1867327.0,1759.9166890000001,1.0,7.72,6.57,8.82,-21.19,-20.37,-18.75,172.63,-60.5,-169.25,4.053604038950828,4.7959161415436755,-2.072877880294,-76.44252722312795,6.386054856968827,-64.6200179960006,-0.5731,-0.6187,0.0557,-0.5345
83,1867327.0,1759.9166890000001,1.0,7.72,6.57,8.82,-21.19,-20.37,-18.75,172.63,-60.5,-169.25,4.053604038950828,4.7959161415436755,-2.072877880294,-76.44252722312795,6.386054856968827,-64.6200179960006,-0.5731,-0.6187,0.0557,-0.5345
84,1867366.0,1759.971771,1.0,7.59,5.88,6.74,-19.75,-24.19,-17.56,183.31,-28.44,-151.63,5.044454623889896,2.875611768906173,-0.38621193873164295,-82.84402467387862,-0.4812859628976946,-59.788402375885155,-0.5603,-0.6616,-0.0042,-0.4984
85,1867366.0,1759.971771,1.0,7.59,5.88,6.74,-19.75,-24.19,-17.56,183.31,-28.44,-151.63,5.044454623889896,2.875611768906173,-0.38621193873164295,-82.84402467387862,-0.4812859628976946,-59.788402375885155,-0.5603,-0.6616,-0.0042,-0.4984
86,1867401.0,1759.987118,1.0,4.19,5.51,6.48,-19.75,-24.19,-17.56,190.38,-17.06,-165.13,4.426742564218703,4.308916646335582,2.613334519286917,-87.24438704610047,-5.823757869537403,-56.107543888708584,-0.5479999999999999,-0.6899,-0.0508,-0.4703
87,1867401.0,1759.987118,1.0,4.19,5.51,6.48,-19.75,-24.19,-17.56,190.38,-17.06,-165.13,4.426742564218703,4.308916646335582,2.613334519286917,-87.24438704610047,-5.823757869537403,-56.107543888708584,-0.5479999999999999,-0.6899,-0.0508,-0.4703
88,1867436.0,1760.029677,1.0,2.89,4.43,4.14,-15.88,-29.5,-11.75,149.56,55.69,-182.63,3.5263099667301723,2.5746750257517714,4.702456965806487,-90.56750793260044,-14.38461134345722,-52.28433952334372,-0.5342,-0.7106,-0.1252,-0.4406
89,1867436.0,1760.029677,1.0,2.89,4.43,4.14,-15.88,-29.5,-11.75,149.56,55.69,-182.63,3.5263099667301723,2.5746750257517714,4.702456965806487,-90.56750793260044,-14.38461134345722,-52.28433952334372,-0.5342,-0.7106,-0.1252,-0.4406
90,1867470.0,1760.0472079999997,1.0,2.24,5.63,2.57,-11.38,-33.25,-6.88,134.56,60.88,-161.56,2.4737608910735096,2.0282103265962834,4.05458342137946,-91.6475769685171,-22.57123707542117,-49.45461164689416,-0.5219,-0.7172,-0.1957,-0.4183
91,1867470.0,1760.0472079999997,1.0,2.24,5.63,2.57,-11.38,-33.25,-6.88,134.56,60.88,-161.56,2.4737608910735096,2.0282103265962834,4.05458342137946,-91.6475769685171,-22.57123707542117,-49.45461164689416,-0.5219,-0.7172,-0.1957,-0.4183
92,1867507.0,1760.085712,1.0,2.22,5.1,1.29,-5.88,-36.69,-3.69,157.69,67.94,-152.19,2.0444555713996464,0.8471570429332771,4.543093563408719,-92.34037663402384,-28.63559484770936,-47.40653562717492,-0.5067,-0.7214,-0.2473,-0.402
93,1867507.0,1760.085712,1.0,2.22,5.1,1.29,-5.88,-36.69,-3.69,157.69,67.94,-152.19,2.0444555713996464,0.8471570429332771,4.543093563408719,-92.34037663402384,-28.63559484770936,-47.40653562717492,-0.5067,-0.7214,-0.2473,-0.402
94,1867542.0,1760.145906,1.0,2.03,3.67,0.46,-5.88,-36.69,-3.69,168.13,76.44,-131.88,1.7692224830169585,-0.18964373108327348,5.981040628821583,-93.12086388400516,-36.72162758785172,-44.91524480207666,-0.4771,-0.7261,-0.315,-0.382
95,1867542.0,1760.145906,1.0,2.03,3.67,0.46,-5.88,-36.69,-3.69,168.13,76.44,-131.88,1.7692224830169585,-0.18964373108327348,5.981040628821583,-93.12086388400516,-36.72162758785172,-44.91524480207666,-0.4771,-0.7261,-0.315,-0.382
96,1867579.0,1760.162613,1.0,0.84,3.85,-1.21,-1.88,-36.88,1.88,135.06,69.56,-93.25,0.03794436213480279,0.08338257094314949,5.68550846248335,-93.25427154355759,-41.67270371214475,-43.65334169783373,-0.455,-0.7269,-0.3557,-0.3718
97,1867579.0,1760.162613,1.0,0.84,3.85,-1.21,-1.88,-36.88,1.88,135.06,69.56,-93.25,0.03794436213480279,0.08338257094314949,5.68550846248335,-93.25427154355759,-41.67270371214475,-43.65334169783373,-0.455,-0.7269,-0.3557,-0.3718
98,1867616.0,1760.197988,1.0,1.39,3.2,-1.33,2.5,-36.88,5.88,119.25,74.75,-60.0,0.3167528433934955,-0.6380687498724402,6.141471163075617,-93.5048551721208,-47.11885074218369,-42.384689535903355,-0.4231,-0.7284,-0.3997,-0.3615
99,1867616.0,1760.197988,1.0,1.39,3.2,-1.33,2.5,-36.88,5.88,119.25,74.75,-60.0,0.3167528433934955,-0.6380687498724402,6.141471163075617,-93.5048551721208,-47.11885074218369,-42.384689535903355,-0.4231,-0.7284,-0.3997,-0.3615
100,1867651.0,1760.2055469999998,1.0,2.76,3.78,-3.5,2.5,-36.88,5.88,101.25,78.44,-36.13,-0.7335866420535867,-2.2596029897712513,4.46698287861337,-93.33773486561995,-50.389958349814904,-42.286383276048326,-0.3994,-0.7274,-0.4257,-0.3607
101,1867651.0,1760.2055469999998,1.0,2.76,3.78,-3.5,2.5,-36.88,5.88,101.25,78.44,-36.13,-0.7335866420535867,-2.2596029897712513,4.46698287861337,-93.33773486561995,-50.389958349814904,-42.286383276048326,-0.3994,-0.7274,-0.4257,-0.3607
102,1867685.0,1760.261185,1.0,2.7,4.04,-4.82,5.0,-36.19,10.0,94.5,51.31,-30.0,-1.6292455209015329,-2.2613765139415376,3.5555912660881277,-93.42126267707391,-53.85979546306142,-41.881213444145885,-0.3705,-0.7279,-0.4529,-0.3574
103,1867685.0,1760.261185,1.0,2.7,4.04,-4.82,5.0,-36.19,10.0,94.5,51.31,-30.0,-1.6292455209015329,-2.2613765139415376,3.5555912660881277,-93.42126267707391,-53.85979546306142,-41.881213444145885,-0.3705,-0.7279,-0.4529,-0.3574
104,1867720.0,1760.317257,1.0,1.76,3.27,-3.53,4.25,-34.69,13.5,61.0,65.75,-41.0,-1.052835645669135,-1.2428531832187613,4.9488466828440405,-92.42314314089434,-57.26633156409672,-41.94256744155725,-0.348,-0.7219,-0.4792,-0.3579
105,1867720.0,1760.317257,1.0,1.76,3.27,-3.53,4.25,-34.69,13.5,61.0,65.75,-41.0,-1.052835645669135,-1.2428531832187613,4.9488466828440405,-92.42314314089434,-57.26633156409672,-41.94256744155725,-0.348,-0.7219,-0.4792,-0.3579
106,1867757.0,1760.329411,1.0,2.55,2.65,-5.0,4.88,-33.56,15.0,19.12,75.62,-19.69,-2.4354110461503686,-2.249851396873985,4.559561118698963,-90.99175237676184,-59.286754689259176,-42.97521768410124,-0.3355,-0.7132,-0.4946,-0.3663
107,1867757.0,1760.329411,1.0,2.55,2.65,-5.0,4.88,-33.56,15.0,19.12,75.62,-19.69,-2.4354110461503686,-2.249851396873985,4.559561118698963,-90.99175237676184,-59.286754689259176,-42.97521768410124,-0.3355,-0.7132,-0.4946,-0.3663
108,1867790.0,1760.3729329999999,1.0,3.43,4.19,-4.98,4.88,-33.56,15.0,2.69,37.69,25.19,-1.592655684904992,-2.4472196942779063,3.0541716670263828,-90.6326728543478,-59.511020790239144,-44.43208368482341,-0.3245,-0.711,-0.4963,-0.3781
109,1867790.0,1760.3729329999999,1.0,3.43,4.19,-4.98,4.88,-33.56,15.0,2.69,37.69,25.19,-1.592655684904992,-2.4472196942779063,3.0541716670263828,-90.6326728543478,-59.511020790239144,-44.43208368482341,-0.3245,-0.711,-0.4963,-0.3781
110,1867827.0,1760.3947879999998,1.0,3.0,5.01,-3.87,4.88,-32.38,16.56,2.88,20.62,21.06,-0.3747738376219104,-1.5852118789457448,2.9931598613498043,-90.94271968197992,-59.10225237254154,-45.076485318116525,-0.3189,-0.7129,-0.4932,-0.3833
111,1867827.0,1760.3947879999998,1.0,3.0,5.01,-3.87,4.88,-32.38,16.56,2.88,20.62,21.06,-0.3747738376219104,-1.5852118789457448,2.9931598613498043,-90.94271968197992,-59.10225237254154,-45.076485318116525,-0.3189,-0.7129,-0.4932,-0.3833
112,1867864.0,1760.4347710000002,1.0,3.02,3.37,-3.92,3.0,-33.19,17.06,-15.63,53.88,9.56,-1.3118369896464643,-1.9838275331452992,4.3123609621598975,-90.0151077513171,-59.16812669186737,-46.918907837056295,-0.3126,-0.7072,-0.4937,-0.3981
113,1867864.0,1760.4347710000002,1.0,3.02,3.37,-3.92,3.0,-33.19,17.06,-15.63,53.88,9.56,-1.3118369896464643,-1.9838275331452992,4.3123609621598975,-90.0151077513171,-59.16812669186737,-46.918907837056295,-0.3126,-0.7072,-0.4937,-0.3981
114,1867898.0,1760.4889510000003,1.0,4.93,5.25,-4.47,3.0,-33.19,17.06,-81.56,52.69,40.5,-0.9236334131086379,-3.050546275189723,1.9523919993283003,-88.88610446361312,-58.077365284994315,-49.56818089392642,-0.3138,-0.7002,-0.4854,-0.4192
115,1867898.0,1760.4889510000003,1.0,4.93,5.25,-4.47,3.0,-33.19,17.06,-81.56,52.69,40.5,-0.9236334131086379,-3.050546275189723,1.9523919993283003,-88.88610446361312,-58.077365284994315,-49.56818089392642,-0.3138,-0.7002,-0.4854,-0.4192
116,1867931.0,1760.507259,1.0,5.44,7.52,-4.14,2.69,-33.19,17.06,-101.81,39.75,42.13,-0.2797053959195378,-2.5177036256323437,-0.035429726611203805,-87.32356135651855,-55.49811986129514,-53.35908614472047,-0.3238,-0.6904,-0.4656,-0.449
117,1867931.0,1760.507259,1.0,5.44,7.52,-4.14,2.69,-33.19,17.06,-101.81,39.75,42.13,-0.2797053959195378,-2.5177036256323437,-0.035429726611203805,-87.32356135651855,-55.49811986129514,-53.35908614472047,-0.3238,-0.6904,-0.4656,-0.449
118,1867968.0,1760.563874,1.0,5.5,8.42,-3.15,0.75,-36.19,14.5,-88.87,16.75,30.5,0.5154096421106193,-2.0972847728005264,-0.5086129381222513,-86.48694417859592,-53.538700860812206,-55.43338813739566,-0.3339,-0.6851,-0.4504,-0.4651
119,1867968.0,1760.563874,1.0,5.5,8.42,-3.15,0.75,-36.19,14.5,-88.87,16.75,30.5,0.5154096421106193,-2.0972847728005264,-0.5086129381222513,-86.48694417859592,-53.538700860812206,-55.43338813739566,-0.3339,-0.6851,-0.4504,-0.4651
120,1868005.0,1760.5669460000001,1.0,5.86,10.65,-3.29,-1.06,-36.19,12.06,-100.94,26.62,29.25,0.3068934063485225,-1.42977129014509,-2.701258318140836,-84.84619121478758,-51.02398420663922,-58.484077048449976,-0.3477,-0.6746,-0.4307,-0.4885
121,1868005.0,1760.5669460000001,1.0,5.86,10.65,-3.29,-1.06,-36.19,12.06,-100.94,26.62,29.25,0.3068934063485225,-1.42977129014509,-2.701258318140836,-84.84619121478758,-51.02398420663922,-58.484077048449976,-0.3477,-0.6746,-0.4307,-0.4885
122,1868040.0,1760.6057670000002,1.0,6.45,11.82,-3.49,-1.06,-36.19,12.06,-57.44,16.0,23.06,0.004475612805457496,-1.4063833690670764,-4.032319101349332,-83.91820775613573,-49.69442993487328,-60.158846336733674,-0.3538,-0.6686,-0.4202,-0.5012
123,1868040.0,1760.6057670000002,1.0,6.45,11.82,-3.49,-1.06,-36.19,12.06,-57.44,16.0,23.06,0.004475612805457496,-1.4063833690670764,-4.032319101349332,-83.91820775613573,-49.69442993487328,-60.158846336733674,-0.3538,-0.6686,-0.4202,-0.5012
124,1868077.0,1760.6591449999999,1.0,4.72,10.81,-3.02,-2.19,-37.25,8.75,-38.13,5.88,-4.0,-0.3765158088927345,-0.1969001442777074,-2.3619311078710936,-83.0275358707213,-48.57304992918911,-61.30101752415778,-0.3627,-0.6628,-0.4113,-0.5098
125,1868077.0,1760.6591449999999,1.0,4.72,10.81,-3.02,-2.19,-37.25,8.75,-38.13,5.88,-4.0,-0.3765158088927345,-0.1969001442777074,-2.3619311078710936,-83.0275358707213,-48.57304992918911,-61.30101752415778,-0.3627,-0.6628,-0.4113,-0.5098
126,1868111.0,1760.6759600000003,1.0,4.18,10.4,-2.5,-3.25,-38.06,6.38,-36.56,2.94,-2.75,-0.21525813948435532,0.1121640926117271,-1.6747908133175695,-82.50825884494826,-47.982860599138895,-61.72773131964304,-0.3699,-0.6594,-0.4066,-0.513
127,1868111.0,1760.6759600000003,1.0,4.18,10.4,-2.5,-3.25,-38.06,6.38,-36.56,2.94,-2.75,-0.21525813948435532,0.1121640926117271,-1.6747908133175695,-82.50825884494826,-47.982860599138895,-61.72773131964304,-0.3699,-0.6594,-0.4066,-0.513
128,1868146.0,1760.7146239999997,1.0,3.98,10.34,-2.73,-3.25,-38.06,6.38,-5.63,7.94,-1.69,-0.6250137411345613,0.23501823961878102,-1.5847074366903016,-81.96067611888428,-47.70706703894191,-62.22230638887762,-0.3732,-0.6558,-0.4044,-0.5167
129,1868146.0,1760.7146239999997,1.0,3.98,10.34,-2.73,-3.25,-38.06,6.38,-5.63,7.94,-1.69,-0.6250137411345613,0.23501823961878102,-1.5847074366903016,-81.96067611888428,-47.70706703894191,-62.22230638887762,-0.3732,-0.6558,-0.4044,-0.5167
130,1868181.0,1760.8146239999999,1.0,4.15,10.44,-3.22,-3.25,-37.69,6.0,13.13,-10.56,-4.13,-1.0382226841539168,0.08267292576234375,-1.8337863683435067,-82.09735799224998,-47.71959673028522,-62.08851089054388,-0.373,-0.6567,-0.4045,-0.5157
131,1868181.0,1760.8146239999999,1.0,4.15,10.44,-3.22,-3.25,-37.69,6.0,13.13,-10.56,-4.13,-1.0382226841539168,0.08267292576234375,-1.8337863683435067,-82.09735799224998,-47.71959673028522,-62.08851089054388,-0.373,-0.6567,-0.4045,-0.5157
132,1868216.0,1760.826164,1.0,3.74,9.61,-2.47,-2.56,-38.38,7.19,9.13,-3.0,-3.0,-0.3787731448358751,0.15140970280980515,-0.7893023407122897,-82.27982166286779,-48.20872972254528,-61.660994863575795,-0.3712,-0.6579,-0.4084,-0.5125
133,1868216.0,1760.826164,1.0,3.74,9.61,-2.47,-2.56,-38.38,7.19,9.13,-3.0,-3.0,-0.3787731448358751,0.15140970280980515,-0.7893023407122897,-82.27982166286779,-48.20872972254528,-61.660994863575795,-0.3712,-0.6579,-0.4084,-0.5125
134,1868251.0,1760.829558,1.0,4.02,10.45,-2.38,-2.56,-38.38,7.19,1.56,-9.81,-9.13,-0.07967044849248928,0.18883473094374548,-1.63823069243303,-82.38637607932448,-48.30917991037589,-61.35430511840602,-0.3722,-0.6586,-0.4092,-0.5102
135,1868251.0,1760.829558,1.0,4.02,10.45,-2.38,-2.56,-38.38,7.19,1.56,-9.81,-9.13,-0.07967044849248928,0.18883473094374548,-1.63823069243303,-82.38637607932448,-48.30917991037589,-61.35430511840602,-0.3722,-0.6586,-0.4092,-0.5102
136,1868285.0,1760.8693640000001,1.0,4.11,11.4,-2.41,-3.0,-38.06,6.75,22.56,-13.56,-18.31,0.19608678974346727,0.3543289290478437,-2.5422852164843683,-82.63025542276526,-48.78685991006569,-60.52998522199608,-0.3736,-0.6602,-0.413,-0.504
137,1868285.0,1760.8693640000001,1.0,4.11,11.4,-2.41,-3.0,-38.06,6.75,22.56,-13.56,-18.31,0.19608678974346727,0.3543289290478437,-2.5422852164843683,-82.63025542276526,-48.78685991006569,-60.52998522199608,-0.3736,-0.6602,-0.413,-0.504
138,1868320.0,1760.88927,1.0,3.77,11.3,-2.42,-2.56,-38.38,7.19,52.5,-12.19,-29.37,0.419046191950029,0.4985879006620202,-2.3315175056132613,-83.073454311338,-49.947121594647854,-59.313125954036636,-0.3705,-0.6631,-0.4222,-0.4948
139,1868320.0,1760.88927,1.0,3.77,11.3,-2.42,-2.56,-38.38,7.19,52.5,-12.19,-29.37,0.419046191950029,0.4985879006620202,-2.3315175056132613,-83.073454311338,-49.947121594647854,-59.313125954036636,-0.3705,-0.6631,-0.4222,-0.4948
140,1868357.0,1760.9308640000002,1.0,3.61,10.62,-3.42,-2.19,-38.0,8.0,58.88,-5.63,-46.94,-0.23934609954070815,0.07336689863542922,-1.91726703923306,-83.41068938154757,-52.207762274679794,-57.344681030456115,-0.3654,-0.6653,-0.44,-0.4798
141,1868357.0,1760.9308640000002,1.0,3.61,10.62,-3.42,-2.19,-38.0,8.0,58.88,-5.63,-46.94,-0.23934609954070815,0.07336689863542922,-1.91726703923306,-83.41068938154757,-52.207762274679794,-57.344681030456115,-0.3654,-0.6653,-0.44,-0.4798
142,1868390.0,1760.978534,1.0,3.5,11.79,-3.97,-2.19,-38.0,8.0,49.31,-26.25,-50.31,0.012508854987673512,0.1454966498999557,-3.1159532305187927,-83.7488111988913,-54.38738352787694,-54.864572903487776,-0.3651,-0.6675,-0.457,-0.4607
143,1868390.0,1760.978534,1.0,3.5,11.79,-3.97,-2.19,-38.0,8.0,49.31,-26.25,-50.31,0.012508854987673512,0.1454966498999557,-3.1159532305187927,-83.7488111988913,-54.38738352787694,-54.864572903487776,-0.3651,-0.6675,-0.457,-0.4607
144,1868429.0,1761.033068,1.0,2.16,11.92,-3.47,-0.25,-36.5,8.56,87.75,-30.5,-71.56,0.8610257679643789,1.0936893882771876,-2.7175417163891757,-84.2113335545649,-56.53647049567268,-52.182242098214466,-0.3644,-0.6705,-0.4736,-0.4398
145,1868429.0,1761.033068,1.0,2.16,11.92,-3.47,-0.25,-36.5,8.56,87.75,-30.5,-71.56,0.8610257679643789,1.0936893882771876,-2.7175417163891757,-84.2113335545649,-56.53647049567268,-52.182242098214466,-0.3644,-0.6705,-0.4736,-0.4398
146,1868464.0,1761.0400809999999,1.0,1.36,11.03,-4.06,2.69,-36.5,12.19,122.69,-14.81,-78.75,0.921205061085316,1.0825153209922416,-1.9395681920500625,-84.70655785585106,-60.941709061307236,-48.070674990989744,-0.3508,-0.6737,-0.5071,-0.4073
147,1868464.0,1761.0400809999999,1.0,1.36,11.03,-4.06,2.69,-36.5,12.19,122.69,-14.81,-78.75,0.921205061085316,1.0825153209922416,-1.9395681920500625,-84.70655785585106,-60.941709061307236,-48.070674990989744,-0.3508,-0.6737,-0.5071,-0.4073
148,1868498.0,1761.057038,1.0,2.04,9.91,-6.31,2.69,-36.5,12.19,143.63,-28.56,-82.12,-0.5607243139028952,-0.3144918794098466,-2.100175063869182,-85.31276410779735,-64.47093657541295,-44.38257587959071,-0.337,-0.6776,-0.5334,-0.3777
149,1868498.0,1761.057038,1.0,2.04,9.91,-6.31,2.69,-36.5,12.19,143.63,-28.56,-82.12,-0.5607243139028952,-0.3144918794098466,-2.100175063869182,-85.31276410779735,-64.47093657541295,-44.38257587959071,-0.337,-0.6776,-0.5334,-0.3777
150,1868533.0,1761.093972,1.0,0.33,9.73,-4.97,4.5,-34.69,15.38,122.56,-39.75,-92.44,1.2985451257009044,0.8004016657954196,-1.017205030898667,-85.45307732114466,-69.01303790274106,-39.278884517127096,-0.3252,-0.6785,-0.5665,-0.3361
151,1868533.0,1761.093972,1.0,0.33,9.73,-4.97,4.5,-34.69,15.38,122.56,-39.75,-92.44,1.2985451257009044,0.8004016657954196,-1.017205030898667,-85.45307732114466,-69.01303790274106,-39.278884517127096,-0.3252,-0.6785,-0.5665,-0.3361
152,1868568.0,1761.1561530000001,1.0,1.69,7.96,-6.84,7.88,-32.38,18.69,181.5,-5.94,-93.25,-0.1281128757995902,-1.2188406005089876,-0.7527682927661878,-85.57793352438526,-73.09656835470321,-35.119475421316324,-0.3049,-0.6793,-0.5955,-0.3017
153,1868568.0,1761.1561530000001,1.0,1.69,7.96,-6.84,7.88,-32.38,18.69,181.5,-5.94,-93.25,-0.1281128757995902,-1.2188406005089876,-0.7527682927661878,-85.57793352438526,-73.09656835470321,-35.119475421316324,-0.3049,-0.6793,-0.5955,-0.3017
154,1868605.0,1761.194497,1.0,1.36,6.38,-7.32,11.19,-28.25,21.87,173.69,-17.81,-101.12,-0.3967440589156955,-1.4905781751085418,0.12382134017103395,-85.18817401740314,-78.61764169313197,-29.203628467396108,-0.2774,-0.6768,-0.6335,-0.2521
155,1868605.0,1761.194497,1.0,1.36,6.38,-7.32,11.19,-28.25,21.87,173.69,-17.81,-101.12,-0.3967440589156955,-1.4905781751085418,0.12382134017103395,-85.18817401740314,-78.61764169313197,-29.203628467396108,-0.2774,-0.6768,-0.6335,-0.2521
156,1868640.0,1761.211487,1.0,0.69,5.25,-6.42,11.19,-28.25,21.87,138.81,-35.38,-102.87,-0.024437651958005624,-1.1696984089084528,1.5673412648351466,-84.42775523713395,-82.18855815257656,-24.9131959920262,-0.2644,-0.6719,-0.6573,-0.2157
157,1868640.0,1761.211487,1.0,0.69,5.25,-6.42,11.19,-28.25,21.87,138.81,-35.38,-102.87,-0.024437651958005624,-1.1696984089084528,1.5673412648351466,-84.42775523713395,-82.18855815257656,-24.9131959920262,-0.2644,-0.6719,-0.6573,-0.2157
158,1868677.0,1761.274359,1.0,0.6,4.5,-6.22,13.5,-23.06,26.87,114.75,-30.75,-111.94,0.1343017816791302,-1.5060893679849534,2.256017056525625,-82.18855815257656,-87.22855844047754,-19.83151281371854,-0.2499,-0.6573,-0.6898,-0.1722
159,1868677.0,1761.274359,1.0,0.6,4.5,-6.22,13.5,-23.06,26.87,114.75,-30.75,-111.94,0.1343017816791302,-1.5060893679849534,2.256017056525625,-82.18855815257656,-87.22855844047754,-19.83151281371854,-0.2499,-0.6573,-0.6898,-0.1722
160,1868713.0,1761.27792,1.0,0.19,3.57,-6.25,15.69,-18.25,27.25,106.62,-32.25,-114.5,-0.2699399342764913,-1.3487145127199676,2.7390053007341013,-80.04673804640113,-90.926380189859,-16.223006993376618,-0.2418,-0.6431,-0.7128,-0.1411
161,1868713.0,1761.27792,1.0,0.19,3.57,-6.25,15.69,-18.25,27.25,106.62,-32.25,-114.5,-0.2699399342764913,-1.3487145127199676,2.7390053007341013,-80.04673804640113,-90.926380189859,-16.223006993376618,-0.2418,-0.6431,-0.7128,-0.1411
162,1868748.0,1761.318533,1.0,-1.58,1.5,-5.35,15.69,-18.25,27.25,77.0,-40.63,-115.37,-1.053857540950645,0.4601389979168046,4.145682204121137,-77.2029916928957,-95.1566161753118,-11.662626087112969,-0.2355,-0.6239,-0.7382,-0.1016
163,1868748.0,1761.318533,1.0,-1.58,1.5,-5.35,15.69,-18.25,27.25,77.0,-40.63,-115.37,-1.053857540950645,0.4601389979168046,4.145682204121137,-77.2029916928957,-95.1566161753118,-11.662626087112969,-0.2355,-0.6239,-0.7382,-0.1016
164,1868783.0,1761.3791670000003,1.0,-1.74,1.65,-5.24,19.19,-14.5,29.0,54.56,-35.75,-99.31,-0.5878477973029894,0.2942576936588771,4.08165677931156,-73.9834968931097,-98.89313900458244,-8.200293609338797,-0.2357,-0.6017,-0.7598,-0.0715
165,1868783.0,1761.3791670000003,1.0,-1.74,1.65,-5.24,19.19,-14.5,29.0,54.56,-35.75,-99.31,-0.5878477973029894,0.2942576936588771,4.08165677931156,-73.9834968931097,-98.89313900458244,-8.200293609338797,-0.2357,-0.6017,-0.7598,-0.0715
166,1868818.0,1761.3959690000002,1.0,-1.25,2.49,-6.14,21.75,-10.38,28.56,76.0,-35.25,-85.37,-0.11805246902583287,-0.8104540080774179,3.1140101684127544,-72.01625404214369,-101.23005073336391,-5.6516548202737225,-0.2336,-0.5879,-0.7729,-0.0493
167,1868818.0,1761.3959690000002,1.0,-1.25,2.49,-6.14,21.75,-10.38,28.56,76.0,-35.25,-85.37,-0.11805246902583287,-0.8104540080774179,3.1140101684127544,-72.01625404214369,-101.23005073336391,-5.6516548202737225,-0.2336,-0.5879,-0.7729,-0.0493
168,1868855.0,1761.432425,1.0,-2.77,0.86,-6.23,21.75,-10.38,28.56,89.94,-44.56,-86.31,-0.8863418417746158,0.6919082345971141,3.027191235879055,-69.73771440110959,-103.96078153770134,-1.283452294756085,-0.2288,-0.5717,-0.7878,-0.0112
169,1868855.0,1761.432425,1.0,-2.77,0.86,-6.23,21.75,-10.38,28.56,89.94,-44.56,-86.31,-0.8863418417746158,0.6919082345971141,3.027191235879055,-69.73771440110959,-103.96078153770134,-1.283452294756085,-0.2288,-0.5717,-0.7878,-0.0112
170,1868890.0,1761.45245,1.0,-2.98,-0.64,-6.95,23.25,-7.5,28.56,99.19,-42.56,-49.13,-2.109082437224735,0.9208135386997376,2.5750268281292854,-68.86014526786532,-105.12180982139752,2.1773706400327653,-0.2227,-0.5654,-0.794,0.019
171,1868890.0,1761.45245,1.0,-2.98,-0.64,-6.95,23.25,-7.5,28.56,99.19,-42.56,-49.13,-2.109082437224735,0.9208135386997376,2.5750268281292854,-68.86014526786532,-105.12180982139752,2.1773706400327653,-0.2227,-0.5654,-0.794,0.019
172,1868926.0,1761.4908719999999,1.0,-1.98,0.2,-8.32,25.19,-2.25,27.5,68.37,-44.31,-49.56,-1.6994104544933044,-1.0550586457763194,1.489098956505794,-67.58681526824894,-106.27930542410908,5.789336220308418,-0.2189,-0.5562,-0.8001,0.0505
173,1868926.0,1761.4908719999999,1.0,-1.98,0.2,-8.32,25.19,-2.25,27.5,68.37,-44.31,-49.56,-1.6994104544933044,-1.0550586457763194,1.489098956505794,-67.58681526824894,-106.27930542410908,5.789336220308418,-0.2189,-0.5562,-0.8001,0.0505
174,1868961.0,1761.551061,1.0,-3.22,-0.77,-7.83,26.75,1.06,27.0,44.13,-38.63,-61.88,-1.8695023803705633,0.2847508232952133,1.5184609445777308,-65.96734252761773,-107.54950844448109,8.016487142063689,-0.2191,-0.5444,-0.8067,0.0699
175,1868961.0,1761.551061,1.0,-3.22,-0.77,-7.83,26.75,1.06,27.0,44.13,-38.63,-61.88,-1.8695023803705633,0.2847508232952133,1.5184609445777308,-65.96734252761773,-107.54950844448109,8.016487142063689,-0.2191,-0.5444,-0.8067,0.0699
176,1868996.0,1761.567368,1.0,-4.01,-1.14,-8.71,26.75,1.06,27.0,48.63,-34.06,-52.06,-1.9301318612730316,0.4432309202271776,0.3556216247673181,-64.13256877996223,-108.8195376256316,10.557352206642195,-0.2197,-0.5309,-0.8132,0.092
177,1868996.0,1761.567368,1.0,-4.01,-1.14,-8.71,26.75,1.06,27.0,48.63,-34.06,-52.06,-1.9301318612730316,0.4432309202271776,0.3556216247673181,-64.13256877996223,-108.8195376256316,10.557352206642195,-0.2197,-0.5309,-0.8132,0.092
178,1869031.0,1761.6037620000002,1.0,-4.28,-1.33,-8.51,27.5,2.06,26.37,8.94,-46.5,-44.31,-1.8474726760189089,0.4949486779198811,0.3806608997734937,-62.36959041979664,-109.7303356928047,12.434654560583265,-0.2267,-0.5178,-0.8178,0.1083
179,1869031.0,1761.6037620000002,1.0,-4.28,-1.33,-8.51,27.5,2.06,26.37,8.94,-46.5,-44.31,-1.8474726760189089,0.4949486779198811,0.3806608997734937,-62.36959041979664,-109.7303356928047,12.434654560583265,-0.2267,-0.5178,-0.8178,0.1083
180,1869068.0,1761.658866,1.0,-5.27,-0.54,-6.75,27.87,4.69,25.87,-15.25,-45.94,-44.13,-0.3821173716744513,1.4663033578830629,1.360885334978514,-60.56979164506137,-110.59113537677601,12.872771138472865,-0.2392,-0.5043,-0.8221,0.1121
181,1869068.0,1761.658866,1.0,-5.27,-0.54,-6.75,27.87,4.69,25.87,-15.25,-45.94,-44.13,-0.3821173716744513,1.4663033578830629,1.360885334978514,-60.56979164506137,-110.59113537677601,12.872771138472865,-0.2392,-0.5043,-0.8221,0.1121
182,1869105.0,1761.6984850000001,1.0,-5.15,-1.43,-7.57,27.87,4.69,25.87,15.69,-13.31,-25.44,-1.3629507612329947,1.2802098412250582,0.7305424651101173,-59.43183945325738,-111.23783703748735,13.807290567361374,-0.2422,-0.4957,-0.8253,0.1202
183,1869105.0,1761.6984850000001,1.0,-5.15,-1.43,-7.57,27.87,4.69,25.87,15.69,-13.31,-25.44,-1.3629507612329947,1.2802098412250582,0.7305424651101173,-59.43183945325738,-111.23783703748735,13.807290567361374,-0.2422,-0.4957,-0.8253,0.1202
184,1869137.0,1761.7227329999998,1.0,-4.75,-1.18,-9.0,29.37,5.5,24.25,3.94,-7.38,-7.63,-1.6595095880562003,0.18232947803466626,-0.3011531188082213,-59.18130413501813,-111.40034681062792,14.130545861300053,-0.2419,-0.4938,-0.8261,0.12300000000000001
185,1869137.0,1761.7227329999998,1.0,-4.75,-1.18,-9.0,29.37,5.5,24.25,3.94,-7.38,-7.63,-1.6595095880562003,0.18232947803466626,-0.3011531188082213,-59.18130413501813,-111.40034681062792,14.130545861300053,-0.2419,-0.4938,-0.8261,0.12300000000000001
186,1869174.0,1761.777688,1.0,-5.19,-0.5,-8.34,29.37,6.56,25.5,-7.19,-25.0,-4.5,-0.7739140876978516,0.36392740592775263,0.008164717667961341,-58.628588254962324,-111.46137512854489,14.407711711634985,-0.2484,-0.4896,-0.8264,0.1254
187,1869174.0,1761.777688,1.0,-5.19,-0.5,-8.34,29.37,6.56,25.5,-7.19,-25.0,-4.5,-0.7739140876978516,0.36392740592775263,0.008164717667961341,-58.628588254962324,-111.46137512854489,14.407711711634985,-0.2484,-0.4896,-0.8264,0.1254
188,1869209.0,1761.793089,1.0,-7.89,0.78,-8.64,29.0,7.0,23.5,-7.75,-4.81,8.44,1.2643763914670174,1.5574575545869882,-1.7469545590266229,-58.39216848405749,-111.42068428698192,14.419262116395176,-0.2523,-0.4878,-0.8262,0.1255
189,1869209.0,1761.793089,1.0,-7.89,0.78,-8.64,29.0,7.0,23.5,-7.75,-4.81,8.44,1.2643763914670174,1.5574575545869882,-1.7469545590266229,-58.39216848405749,-111.42068428698192,14.419262116395176,-0.2523,-0.4878,-0.8262,0.1255
190,1869244.0,1761.848173,1.0,-4.8,0.81,-7.61,29.0,7.0,23.5,-6.56,3.44,3.75,0.3196853245504891,-0.2339340926280701,0.7816139261899159,-58.54975129457163,-111.3393661020306,14.003539375629765,-0.2531,-0.489,-0.8258,0.1219
191,1869244.0,1761.848173,1.0,-4.8,0.81,-7.61,29.0,7.0,23.5,-6.56,3.44,3.75,0.3196853245504891,-0.2339340926280701,0.7816139261899159,-58.54975129457163,-111.3393661020306,14.003539375629765,-0.2531,-0.489,-0.8258,0.1219
192,1869279.0,1761.8861809999999,1.0,-3.4,-2.61,-9.91,29.5,6.56,23.5,53.63,18.75,2.38,-3.614137428639313,-0.6851649943238223,-0.3446434928245292,-59.02323151633205,-111.35968772291412,14.985414779298193,-0.2415,-0.4926,-0.8259,0.1304
193,1869279.0,1761.8861809999999,1.0,-3.4,-2.61,-9.91,29.5,6.56,23.5,53.63,18.75,2.38,-3.614137428639313,-0.6851649943238223,-0.3446434928245292,-59.02323151633205,-111.35968772291412,14.985414779298193,-0.2415,-0.4926,-0.8259,0.1304
194,1869316.0,1761.8935079999999,1.0,-6.37,-1.67,-8.39,30.19,7.38,25.06,-28.75,-3.13,6.56,-1.2590900377418677,1.8338324108071185,-0.6245364601267944,-58.891598569681705,-111.4817285033188,14.511670666824136,-0.2435,-0.4916,-0.8265,0.1263
195,1869316.0,1761.8935079999999,1.0,-6.37,-1.67,-8.39,30.19,7.38,25.06,-28.75,-3.13,6.56,-1.2590900377418677,1.8338324108071185,-0.6245364601267944,-58.891598569681705,-111.4817285033188,14.511670666824136,-0.2435,-0.4916,-0.8265,0.1263
196,1869350.0,1761.909546,1.0,-4.56,1.45,-7.92,30.19,7.38,25.06,-32.69,3.19,20.75,0.6547084282728244,-0.7084527057156325,0.6038269745521719,-58.95740435856217,-111.35968772291412,13.103434321670449,-0.2504,-0.4921,-0.8259,0.1141
197,1869350.0,1761.909546,1.0,-4.56,1.45,-7.92,30.19,7.38,25.06,-32.69,3.19,20.75,0.6547084282728244,-0.7084527057156325,0.6038269745521719,-58.95740435856217,-111.35968772291412,13.103434321670449,-0.2504,-0.4921,-0.8259,0.1141
198,1869383.0,1761.9492879999998,1.0,-4.29,-0.14,-9.44,29.5,6.5,23.87,18.19,5.88,14.63,-1.2619418061562342,-0.7686918950136175,-0.4575555536907245,-59.64305925688446,-110.87341536801529,13.138038375794716,-0.2479,-0.4973,-0.8235,0.1144
199,1869383.0,1761.9492879999998,1.0,-4.29,-0.14,-9.44,29.5,6.5,23.87,18.19,5.88,14.63,-1.2619418061562342,-0.7686918950136175,-0.4575555536907245,-59.64305925688446,-110.87341536801529,13.138038375794716,-0.2479,-0.4973,-0.8235,0.1144
200,1869420.0,1762.061302,1.0,-5.17,-0.49,-7.89,29.06,6.06,25.06,-22.94,-5.56,12.44,-0.8311975169314334,0.7564536448650752,0.4280579643574765,-59.669477410983546,-110.77248545181585,12.89583508427226,-0.2501,-0.4975,-0.823,0.1123
201,1869420.0,1762.061302,1.0,-5.17,-0.49,-7.89,29.06,6.06,25.06,-22.94,-5.56,12.44,-0.8311975169314334,0.7564536448650752,0.4280579643574765,-59.669477410983546,-110.77248545181585,12.89583508427226,-0.2501,-0.4975,-0.823,0.1123
202,1869457.0,1762.108147,1.0,-5.01,0.26,-8.39,29.06,5.75,25.06,-28.75,0.88,11.63,-0.5687010447004064,0.15642086361476126,0.04899087318158557,-59.577029137074135,-110.75231492282506,11.789339646395064,-0.2558,-0.4968,-0.8229,0.1027
203,1869457.0,1762.108147,1.0,-5.01,0.26,-8.39,29.06,5.75,25.06,-28.75,0.88,11.63,-0.5687010447004064,0.15642086361476126,0.04899087318158557,-59.577029137074135,-110.75231492282506,11.789339646395064,-0.2558,-0.4968,-0.8229,0.1027
204,1869490.0,1762.1250280000002,1.0,-4.93,-0.2,-8.33,29.06,5.75,25.06,-19.25,-0.94,17.5,-1.0898965508268712,0.3986247614756439,0.19483311618275856,-59.80162063871753,-110.47046523443146,11.2019689418816,-0.259,-0.4985,-0.8215,0.0976
205,1869490.0,1762.1250280000002,1.0,-4.93,-0.2,-8.33,29.06,5.75,25.06,-19.25,-0.94,17.5,-1.0898965508268712,0.3986247614756439,0.19483311618275856,-59.80162063871753,-110.47046523443146,11.2019689418816,-0.259,-0.4985,-0.8215,0.0976
206,1869529.0,1762.1281760000002,1.0,-5.03,-0.78,-8.49,29.87,5.0,24.25,-27.5,2.56,30.31,-1.7887826485901488,0.80173264794864,0.10371841221087053,-60.370840106403314,-109.88978590326799,10.166142467644526,-0.2631,-0.5028,-0.8186,0.0886
207,1869529.0,1762.1281760000002,1.0,-5.03,-0.78,-8.49,29.87,5.0,24.25,-27.5,2.56,30.31,-1.7887826485901488,0.80173264794864,0.10371841221087053,-60.370840106403314,-109.88978590326799,10.166142467644526,-0.2631,-0.5028,-0.8186,0.0886
208,1869563.0,1762.1616760000002,1.0,-5.37,0.0,-7.08,29.06,3.06,24.69,-64.87,6.19,36.81,-0.7257582470339401,1.4148737499267583,1.0639554932343405,-60.92841409128425,-109.253864399006,8.705871826379285,-0.2688,-0.507,-0.8154,0.0759
209,1869563.0,1762.1616760000002,1.0,-5.37,0.0,-7.08,29.06,3.06,24.69,-64.87,6.19,36.81,-0.7257582470339401,1.4148737499267583,1.0639554932343405,-60.92841409128425,-109.253864399006,8.705871826379285,-0.2688,-0.507,-0.8154,0.0759
210,1869596.0,1762.1679570000001,1.0,-5.37,0.83,-7.02,29.06,3.06,24.69,-65.12,28.56,31.31,-0.3652794274006945,1.366669250291166,1.0428046054128493,-61.048101525799574,-108.9180458077566,5.479564528582773,-0.2784,-0.5079,-0.8137,0.0478
211,1869596.0,1762.1679570000001,1.0,-5.37,0.83,-7.02,29.06,3.06,24.69,-65.12,28.56,31.31,-0.3652794274006945,1.366669250291166,1.0428046054128493,-61.048101525799574,-108.9180458077566,5.479564528582773,-0.2784,-0.5079,-0.8137,0.0478
212,1869633.0,1762.216601,1.0,-3.88,0.6,-8.45,29.5,0.88,25.06,-41.06,24.31,70.87,-1.9038111019880608,0.11915525195516626,0.6864413777217546,-62.89270673851754,-107.35582470459705,2.9453273542124467,-0.2795,-0.5217,-0.8057,0.0257
213,1869633.0,1762.216601,1.0,-3.88,0.6,-8.45,29.5,0.88,25.06,-41.06,24.31,70.87,-1.9038111019880608,0.11915525195516626,0.6864413777217546,-62.89270673851754,-107.35582470459705,2.9453273542124467,-0.2795,-0.5217,-0.8057,0.0257
214,1869670.0,1762.2362190000001,1.0,-2.8,3.94,-7.5,29.5,-1.37,25.56,-50.13,6.25,112.0,0.8065940830252298,-1.647878820678626,1.0746684735887424,-65.4626072017906,-104.74561874233255,0.9511208605830096,-0.2834,-0.5407,-0.792,0.0083
215,1869670.0,1762.2362190000001,1.0,-2.8,3.94,-7.5,29.5,-1.37,25.56,-50.13,6.25,112.0,0.8065940830252298,-1.647878820678626,1.0746684735887424,-65.4626072017906,-104.74561874233255,0.9511208605830096,-0.2834,-0.5407,-0.792,0.0083
216,1869705.0,1762.3161690000002,1.0,-2.88,3.25,-7.83,29.5,-1.37,25.56,-18.12,22.44,84.75,-0.13331977734130607,-1.02350202527821,0.9128055308617498,-68.40230300517993,-101.93702600813637,-1.2719924264668117,-0.2836,-0.5621,-0.7768,-0.0111
217,1869705.0,1762.3161690000002,1.0,-2.88,3.25,-7.83,29.5,-1.37,25.56,-18.12,22.44,84.75,-0.13331977734130607,-1.02350202527821,0.9128055308617498,-68.40230300517993,-101.93702600813637,-1.2719924264668117,-0.2836,-0.5621,-0.7768,-0.0111
218,1869740.0,1762.363552,1.0,-2.22,1.13,-8.65,28.0,-4.56,25.5,-40.63,45.94,66.81,-2.5582210506135725,-0.7953068060514339,1.2130016397023855,-69.97532009784457,-100.77964420318249,-3.0026424356334624,-0.2775,-0.5734,-0.7704,-0.0262
219,1869740.0,1762.363552,1.0,-2.22,1.13,-8.65,28.0,-4.56,25.5,-40.63,45.94,66.81,-2.5582210506135725,-0.7953068060514339,1.2130016397023855,-69.97532009784457,-100.77964420318249,-3.0026424356334624,-0.2775,-0.5734,-0.7704,-0.0262
220,1869774.0,1762.3790829999998,1.0,-1.94,3.96,-6.75,27.56,-7.25,24.69,-94.37,16.56,93.0,0.2517810607798687,-1.0612274611393684,1.8180266784785584,-72.04458809955408,-97.84125321339735,-6.971466463000762,-0.2867,-0.5881,-0.7538,-0.0608
221,1869774.0,1762.3790829999998,1.0,-1.94,3.96,-6.75,27.56,-7.25,24.69,-94.37,16.56,93.0,0.2517810607798687,-1.0612274611393684,1.8180266784785584,-72.04458809955408,-97.84125321339735,-6.971466463000762,-0.2867,-0.5881,-0.7538,-0.0608
222,1869811.0,1762.381818,1.0,-2.41,4.4,-5.78,25.37,-10.69,26.37,-40.5,19.19,82.5,0.8885876213978726,-0.255895808373964,2.2091879649283466,-73.9261202682898,-95.25858813139106,-9.246109154854068,-0.2933,-0.6013,-0.7388,-0.0806
223,1869811.0,1762.381818,1.0,-2.41,4.4,-5.78,25.37,-10.69,26.37,-40.5,19.19,82.5,0.8885876213978726,-0.255895808373964,2.2091879649283466,-73.9261202682898,-95.25858813139106,-9.246109154854068,-0.2933,-0.6013,-0.7388,-0.0806
224,1869844.0,1762.4240690000001,1.0,-2.09,3.45,-5.92,25.37,-10.69,26.37,-45.13,30.12,75.75,-0.2730777116156842,-0.008060997833247097,2.64827283867826,-75.93290816428274,-92.78805970081837,-12.06585603312212,-0.2935,-0.6152,-0.7241,-0.1051
225,1869844.0,1762.4240690000001,1.0,-2.09,3.45,-5.92,25.37,-10.69,26.37,-45.13,30.12,75.75,-0.2730777116156842,-0.008060997833247097,2.64827283867826,-75.93290816428274,-92.78805970081837,-12.06585603312212,-0.2935,-0.6152,-0.7241,-0.1051
226,1869881.0,1762.439702,1.0,-1.31,4.74,-6.54,24.25,-14.38,24.25,-59.63,27.62,81.5,0.12224500395609185,-0.8546851362615169,1.6697052738228937,-77.46716810896245,-90.534939503876,-14.592535930080526,-0.29600000000000004,-0.6257,-0.7104,-0.127
227,1869881.0,1762.439702,1.0,-1.31,4.74,-6.54,24.25,-14.38,24.25,-59.63,27.62,81.5,0.12224500395609185,-0.8546851362615169,1.6697052738228937,-77.46716810896245,-90.534939503876,-14.592535930080526,-0.29600000000000004,-0.6257,-0.7104,-0.127
228,1869918.0,1762.487013,1.0,-1.87,4.18,-6.35,23.19,-17.06,24.0,-45.88,7.63,74.0,-0.4652416177570479,0.08740310142084429,1.992066777910108,-79.76271757028876,-87.52965940298756,-16.651395613206027,-0.2993,-0.6412,-0.6917,-0.1448
229,1869918.0,1762.487013,1.0,-1.87,4.18,-6.35,23.19,-17.06,24.0,-45.88,7.63,74.0,-0.4652416177570479,0.08740310142084429,1.992066777910108,-79.76271757028876,-87.52965940298756,-16.651395613206027,-0.2993,-0.6412,-0.6917,-0.1448
230,1869953.0,1762.535961,1.0,-1.75,4.87,-5.71,23.19,-17.06,24.0,-85.56,17.94,74.44,0.14131181030200246,0.22092784036492885,2.105044851615615,-80.72179122194791,-85.35951757320912,-19.110662839696182,-0.3058,-0.6476,-0.6779,-0.166
231,1869953.0,1762.535961,1.0,-1.75,4.87,-5.71,23.19,-17.06,24.0,-85.56,17.94,74.44,0.14131181030200246,0.22092784036492885,2.105044851615615,-80.72179122194791,-85.35951757320912,-19.110662839696182,-0.3058,-0.6476,-0.6779,-0.166
232,1869987.0,1762.5561309999998,1.0,-0.67,6.16,-6.81,21.69,-20.37,24.75,-33.88,13.31,75.44,0.06617437005082816,-0.7931827671065483,0.634023219697994,-82.43206880803427,-82.24939344216158,-21.963930115303267,-0.3115,-0.6589,-0.6577,-0.1905
233,1869987.0,1762.5561309999998,1.0,-0.67,6.16,-6.81,21.69,-20.37,24.75,-33.88,13.31,75.44,0.06617437005082816,-0.7931827671065483,0.634023219697994,-82.43206880803427,-82.24939344216158,-21.963930115303267,-0.3115,-0.6589,-0.6577,-0.1905
234,1870022.0,1762.604321,1.0,-0.85,4.4,-7.67,19.5,-22.25,23.56,-59.63,6.5,75.69,-2.1910365784454737,-0.4144525602551954,1.2078717270584374,-84.2113335545649,-79.06265131180031,-24.38536915234885,-0.3174,-0.6705,-0.6365,-0.2112
235,1870022.0,1762.604321,1.0,-0.85,4.4,-7.67,19.5,-22.25,23.56,-59.63,6.5,75.69,-2.1910365784454737,-0.4144525602551954,1.2078717270584374,-84.2113335545649,-79.06265131180031,-24.38536915234885,-0.3174,-0.6705,-0.6365,-0.2112
236,1870059.0,1762.650028,1.0,-1.42,7.23,-4.5,17.56,-23.37,23.19,-151.25,8.0,67.12,1.3234664459041012,0.7985504754257535,1.312531228475594,-84.13412960499036,-76.18021553240146,-27.737669605365127,-0.3362,-0.67,-0.6169,-0.2397
237,1870059.0,1762.650028,1.0,-1.42,7.23,-4.5,17.56,-23.37,23.19,-151.25,8.0,67.12,1.3234664459041012,0.7985504754257535,1.312531228475594,-84.13412960499036,-76.18021553240146,-27.737669605365127,-0.3362,-0.67,-0.6169,-0.2397
238,1870094.0,1762.668749,1.0,-1.3,8.56,-3.82,17.56,-23.37,23.19,-123.0,29.81,51.94,1.875589601251396,1.0689694657244218,0.5927763342160741,-83.211307567833,-73.18217678230073,-32.3533321925502,-0.3553,-0.664,-0.5961,-0.2786
239,1870094.0,1762.668749,1.0,-1.3,8.56,-3.82,17.56,-23.37,23.19,-123.0,29.81,51.94,1.875589601251396,1.0689694657244218,0.5927763342160741,-83.211307567833,-73.18217678230073,-32.3533321925502,-0.3553,-0.664,-0.5961,-0.2786
240,1870131.0,1762.726011,1.0,-0.74,9.72,-6.05,15.38,-28.0,20.69,-68.44,10.56,65.19,0.3786339371976308,0.5501159906380435,-1.6468432984852532,-83.57963882568777,-70.94329161439869,-34.66303165808797,-0.3611,-0.6664,-0.5803,-0.2979
241,1870131.0,1762.726011,1.0,-0.74,9.72,-6.05,15.38,-28.0,20.69,-68.44,10.56,65.19,0.3786339371976308,0.5501159906380435,-1.6468432984852532,-83.57963882568777,-70.94329161439869,-34.66303165808797,-0.3611,-0.6664,-0.5803,-0.2979
242,1870168.0,1762.729032,1.0,-0.21,10.21,-4.66,12.38,-30.56,18.69,-64.44,19.25,45.94,1.3166324678545354,0.579572652054817,-1.3259316630996023,-83.94903131476774,-68.3053449313366,-37.192829183479816,-0.3685,-0.6688,-0.5614,-0.3189
243,1870168.0,1762.729032,1.0,-0.21,10.21,-4.66,12.38,-30.56,18.69,-64.44,19.25,45.94,1.3166324678545354,0.579572652054817,-1.3259316630996023,-83.94903131476774,-68.3053449313366,-37.192829183479816,-0.3685,-0.6688,-0.5614,-0.3189
244,1870202.0,1762.770675,1.0,0.84,9.6,-4.86,12.38,-30.56,18.69,-73.06,31.75,35.69,0.5959910344080628,-0.35196477377182056,-0.9639635147877712,-83.39534135240477,-67.03614692743177,-39.40057712393039,-0.3728,-0.6652,-0.5522,-0.3371
245,1870202.0,1762.770675,1.0,0.84,9.6,-4.86,12.38,-30.56,18.69,-73.06,31.75,35.69,0.5959910344080628,-0.35196477377182056,-0.9639635147877712,-83.39534135240477,-67.03614692743177,-39.40057712393039,-0.3728,-0.6652,-0.5522,-0.3371
246,1870237.0,1762.8182539999998,1.0,0.56,11.23,-6.39,12.38,-32.5,16.25,-63.69,26.5,37.44,-0.614661846644224,0.21302220158667584,-3.109828326382587,-82.82874378341789,-65.13597459719793,-42.11442571308733,-0.379,-0.6615,-0.5383,-0.3593
247,1870237.0,1762.8182539999998,1.0,0.56,11.23,-6.39,12.38,-32.5,16.25,-63.69,26.5,37.44,-0.614661846644224,0.21302220158667584,-3.109828326382587,-82.82874378341789,-65.13597459719793,-42.11442571308733,-0.379,-0.6615,-0.5383,-0.3593
248,1870272.0,1762.8725399999998,1.0,0.72,11.97,-5.29,11.25,-32.75,14.69,-28.75,8.69,28.0,0.4107978735100213,0.43489089895218935,-3.2863066948465924,-82.78291189155357,-63.99739696031453,-43.27093047786308,-0.3823,-0.6612,-0.5299,-0.3687
249,1870272.0,1762.8725399999998,1.0,0.72,11.97,-5.29,11.25,-32.75,14.69,-28.75,8.69,28.0,0.4107978735100213,0.43489089895218935,-3.2863066948465924,-82.78291189155357,-63.99739696031453,-43.27093047786308,-0.3823,-0.6612,-0.5299,-0.3687
250,1870309.0,1762.8864449999999,1.0,1.66,10.32,-6.07,10.06,-35.06,13.0,10.31,3.69,17.62,-0.8285547597172711,-0.6333582651545164,-2.2355779632180326,-83.42603924278487,-63.33648650708331,-43.70272222782621,-0.3783,-0.6654,-0.525,-0.3722
251,1870309.0,1762.8864449999999,1.0,1.66,10.32,-6.07,10.06,-35.06,13.0,10.31,3.69,17.62,-0.8285547597172711,-0.6333582651545164,-2.2355779632180326,-83.42603924278487,-63.33648650708331,-43.70272222782621,-0.3783,-0.6654,-0.525,-0.3722
252,1870344.0,1762.924797,1.0,0.81,9.96,-5.59,10.06,-35.06,13.0,0.44,0.5,13.06,-0.6935238730006992,0.2913947212865517,-1.6187565027894932,-83.8257817667832,-62.973315569507676,-43.887975339090566,-0.376,-0.6679999999999999,-0.5223,-0.3737
253,1870344.0,1762.924797,1.0,0.81,9.96,-5.59,10.06,-35.06,13.0,0.44,0.5,13.06,-0.6935238730006992,0.2913947212865517,-1.6187565027894932,-83.8257817667832,-62.973315569507676,-43.887975339090566,-0.376,-0.6679999999999999,-0.5223,-0.3737
254,1870381.0,1762.9408870000002,1.0,1.81,10.08,-6.5,9.38,-34.69,14.19,4.06,5.63,4.94,-1.2740492931055118,-0.7093358462231141,-2.2351995695636493,-83.90279877211277,-62.95987835378689,-44.060987161952966,-0.3739,-0.6685,-0.5222,-0.3751
255,1870381.0,1762.9408870000002,1.0,1.81,10.08,-6.5,9.38,-34.69,14.19,4.06,5.63,4.94,-1.2740492931055118,-0.7093358462231141,-2.2351995695636493,-83.90279877211277,-62.95987835378689,-44.060987161952966,-0.3739,-0.6685,-0.5222,-0.3751
256,1870415.0,1762.998464,1.0,1.54,10.09,-5.95,7.19,-35.06,14.69,7.25,-6.31,-7.56,-0.7724390388881299,-0.4238458953173021,-1.97494125874872,-83.94903131476774,-63.134637551415004,-43.75211129257185,-0.3739,-0.6688,-0.5235,-0.3726
257,1870415.0,1762.998464,1.0,1.54,10.09,-5.95,7.19,-35.06,14.69,7.25,-6.31,-7.56,-0.7724390388881299,-0.4238458953173021,-1.97494125874872,-83.94903131476774,-63.134637551415004,-43.75211129257185,-0.3739,-0.6688,-0.5235,-0.3726
258,1870450.0,1763.035605,1.0,0.78,9.66,-5.6,7.19,-35.06,14.69,13.25,-3.13,-13.31,-0.6924906563620112,0.21198464325865274,-1.3629300817163161,-83.9336186033691,-63.525076929588316,-43.25860308220909,-0.374,-0.6687,-0.5264,-0.3686
259,1870450.0,1763.035605,1.0,0.78,9.66,-5.6,7.19,-35.06,14.69,13.25,-3.13,-13.31,-0.6924906563620112,0.21198464325865274,-1.3629300817163161,-83.9336186033691,-63.525076929588316,-43.25860308220909,-0.374,-0.6687,-0.5264,-0.3686
260,1870485.0,1763.0863120000001,1.0,1.01,10.17,-6.25,8.38,-34.25,14.19,14.94,0.19,-7.94,-0.8805650690598852,-0.04422197615333978,-2.14048980733366,-83.99528064351469,-64.05145371860036,-42.76593619701882,-0.3718,-0.6691,-0.5303,-0.3646
261,1870485.0,1763.0863120000001,1.0,1.01,10.17,-6.25,8.38,-34.25,14.19,14.94,0.19,-7.94,-0.8805650690598852,-0.04422197615333978,-2.14048980733366,-83.99528064351469,-64.05145371860036,-42.76593619701882,-0.3718,-0.6691,-0.5303,-0.3646
262,1870520.0,1763.0929230000002,1.0,0.84,11.14,-5.85,8.69,-34.25,15.0,30.62,-5.19,-18.81,0.04370456331333061,0.25381531919763395,-2.8013382493158367,-84.11869444886841,-64.63357693133646,-42.065313242449655,-0.3695,-0.6699,-0.5346,-0.3589
263,1870520.0,1763.0929230000002,1.0,0.84,11.14,-5.85,8.69,-34.25,15.0,30.62,-5.19,-18.81,0.04370456331333061,0.25381531919763395,-2.8013382493158367,-84.11869444886841,-64.63357693133646,-42.065313242449655,-0.3695,-0.6699,-0.5346,-0.3589
264,1870557.0,1763.1485879999998,1.0,0.24,10.0,-5.53,8.69,-34.25,15.0,40.63,5.81,-32.13,0.03576248701946394,0.569651228592237,-1.6088096281658988,-83.94903131476774,-66.26813997300863,-40.85232569399261,-0.3633,-0.6688,-0.5466,-0.349
265,1870557.0,1763.1485879999998,1.0,0.24,10.0,-5.53,8.69,-34.25,15.0,40.63,5.81,-32.13,0.03576248701946394,0.569651228592237,-1.6088096281658988,-83.94903131476774,-66.26813997300863,-40.85232569399261,-0.3633,-0.6688,-0.5466,-0.349
266,1870589.0,1763.156312,1.0,0.01,9.48,-5.49,9.5,-33.56,15.5,43.94,31.75,-29.5,-0.0005111848155663344,0.6816587896101769,-1.1270566465694696,-83.47209982838507,-67.75236088092288,-40.400219905352074,-0.3563,-0.6657,-0.5574,-0.3453
267,1870589.0,1763.156312,1.0,0.01,9.48,-5.49,9.5,-33.56,15.5,43.94,31.75,-29.5,-0.0005111848155663344,0.6816587896101769,-1.1270566465694696,-83.47209982838507,-67.75236088092288,-40.400219905352074,-0.3563,-0.6657,-0.5574,-0.3453
268,1870626.0,1763.2155920000002,1.0,0.26,7.93,-5.0,10.19,-34.0,14.69,64.12,45.94,-10.94,0.051806447891310066,0.4092744077213757,0.4374285514941949,-83.61038082086074,-69.65393554150937,-39.88781236546699,-0.3365,-0.6666,-0.5711,-0.3411
269,1870626.0,1763.2155920000002,1.0,0.26,7.93,-5.0,10.19,-34.0,14.69,64.12,45.94,-10.94,0.051806447891310066,0.4092744077213757,0.4374285514941949,-83.61038082086074,-69.65393554150937,-39.88781236546699,-0.3365,-0.6666,-0.5711,-0.3411
270,1870661.0,1763.27513,1.0,0.78,7.88,-4.98,10.19,-32.75,17.87,57.13,84.56,9.25,0.3495122377968345,0.1428252309428215,0.4599584918225528,-83.56427059214394,-71.0981430834236,-40.43685258518578,-0.314,-0.6663,-0.5814,-0.3456
271,1870661.0,1763.27513,1.0,0.78,7.88,-4.98,10.19,-32.75,17.87,57.13,84.56,9.25,0.3495122377968345,0.1428252309428215,0.4599584918225528,-83.56427059214394,-71.0981430834236,-40.43685258518578,-0.314,-0.6663,-0.5814,-0.3456
272,1870696.0,1763.291071,1.0,0.4,7.14,-5.06,10.19,-32.75,17.87,77.25,102.0,-7.94,0.21685506622491849,0.7699770663960543,1.082928936286608,-82.72182782084748,-73.84009584056888,-41.40308164369669,-0.2785,-0.6608,-0.6007,-0.3535
273,1870696.0,1763.291071,1.0,0.4,7.14,-5.06,10.19,-32.75,17.87,77.25,102.0,-7.94,0.21685506622491849,0.7699770663960543,1.082928936286608,-82.72182782084748,-73.84009584056888,-41.40308164369669,-0.2785,-0.6608,-0.6007,-0.3535
274,1870733.0,1763.346936,1.0,1.11,5.85,-6.2,9.06,-32.06,19.87,66.62,119.69,1.56,-1.1886039301370523,0.3512367900398829,1.3002727796678784,-81.71803504011511,-76.04923610928397,-42.446147551916006,-0.2479,-0.6542,-0.616,-0.36200000000000004
275,1870733.0,1763.346936,1.0,1.11,5.85,-6.2,9.06,-32.06,19.87,66.62,119.69,1.56,-1.1886039301370523,0.3512367900398829,1.3002727796678784,-81.71803504011511,-76.04923610928397,-42.446147551916006,-0.2479,-0.6542,-0.616,-0.36200000000000004
276,1870770.0,1763.386838,1.0,1.98,6.58,-6.53,6.19,-29.5,22.75,46.06,53.0,3.63,-0.7689708235457728,-0.027133297770416842,0.3586000606375155,-80.96262485016383,-77.71711737256554,-43.307915821839245,-0.2209,-0.6492,-0.6274,-0.369
277,1870770.0,1763.386838,1.0,1.98,6.58,-6.53,6.19,-29.5,22.75,46.06,53.0,3.63,-0.7689708235457728,-0.027133297770416842,0.3586000606375155,-80.96262485016383,-77.71711737256554,-43.307915821839245,-0.2209,-0.6492,-0.6274,-0.369
278,1870802.0,1763.4021530000002,1.0,2.38,5.54,-4.96,6.19,-29.5,22.75,71.12,46.5,11.0,-0.07527015103562562,-0.693809850042018,2.030367964454494,-81.00782923439904,-78.75099556338243,-43.01216531236248,-0.2031,-0.6495,-0.6344,-0.3666
279,1870802.0,1763.4021530000002,1.0,2.38,5.54,-4.96,6.19,-29.5,22.75,71.12,46.5,11.0,-0.07527015103562562,-0.693809850042018,2.030367964454494,-81.00782923439904,-78.75099556338243,-43.01216531236248,-0.2031,-0.6495,-0.6344,-0.3666
280,1870837.0,1763.4052329999997,1.0,3.29,5.57,-6.4,4.56,-29.06,24.5,69.56,33.13,2.5,-0.8025169809982929,-1.0698410574859525,0.8055163710104409,-81.26427589274175,-80.12157851666187,-42.335532323855574,-0.1768,-0.6512,-0.6436,-0.3611
281,1870837.0,1763.4052329999997,1.0,3.29,5.57,-6.4,4.56,-29.06,24.5,69.56,33.13,2.5,-0.8025169809982929,-1.0698410574859525,0.8055163710104409,-81.26427589274175,-80.12157851666187,-42.335532323855574,-0.1768,-0.6512,-0.6436,-0.3611
282,1870872.0,1763.45662,1.0,3.25,3.86,-6.6,4.19,-26.75,25.69,59.44,-6.13,-15.44,-1.9403462130221156,-1.1776416667687453,1.814759317670763,-81.3246878357526,-81.2793763154813,-41.158178579890034,-0.1665,-0.6516,-0.6513,-0.3515
283,1870872.0,1763.45662,1.0,3.25,3.86,-6.6,4.19,-26.75,25.69,59.44,-6.13,-15.44,-1.9403462130221156,-1.1776416667687453,1.814759317670763,-81.3246878357526,-81.2793763154813,-41.158178579890034,-0.1665,-0.6516,-0.6513,-0.3515
284,1870909.0,1763.50197,1.0,2.85,2.87,-6.58,2.69,-26.75,28.06,12.0,4.06,-12.13,-2.4302112417491193,-0.94021929184259,2.5357586513603265,-81.38512714905085,-82.37114871332962,-39.79030547860814,-0.1594,-0.652,-0.6585,-0.3403
285,1870909.0,1763.50197,1.0,2.85,2.87,-6.58,2.69,-26.75,28.06,12.0,4.06,-12.13,-2.4302112417491193,-0.94021929184259,2.5357586513603265,-81.38512714905085,-82.37114871332962,-39.79030547860814,-0.1594,-0.652,-0.6585,-0.3403
286,1870944.0,1763.5561089999999,1.0,-1.64,5.86,-8.96,2.69,-26.75,28.06,-20.06,1.94,-24.94,-1.4541393340918076,4.19169256510987,-0.07393663423633612,-80.46637592020761,-82.61499961080214,-40.461276767806375,-0.1656,-0.6459,-0.6601,-0.3458
287,1870944.0,1763.5561089999999,1.0,-1.64,5.86,-8.96,2.69,-26.75,28.06,-20.06,1.94,-24.94,-1.4541393340918076,4.19169256510987,-0.07393663423633612,-80.46637592020761,-82.61499961080214,-40.461276767806375,-0.1656,-0.6459,-0.6601,-0.3458
288,1870981.0,1763.573439,1.0,2.76,5.31,-5.14,3.06,-24.56,27.75,36.63,-70.56,8.38,0.2467119744537201,-1.175864483036929,2.009870157065261,-81.41535708644898,-82.0669719838208,-39.327556017124884,-0.1744,-0.6522,-0.6565,-0.3365
289,1870981.0,1763.573439,1.0,2.76,5.31,-5.14,3.06,-24.56,27.75,36.63,-70.56,8.38,0.2467119744537201,-1.175864483036929,2.009870157065261,-81.41535708644898,-82.0669719838208,-39.327556017124884,-0.1744,-0.6522,-0.6565,-0.3365
290,1871015.0,1763.617121,1.0,7.98,4.62,-10.79,4.56,-26.75,27.75,46.94,-38.13,4.31,-3.9484056515269716,-5.3572659141204495,-2.7296450960957004,-83.0275358707213,-82.00622099250181,-37.10820677500307,-0.1701,-0.6628,-0.6561,-0.3182
291,1871015.0,1763.617121,1.0,7.98,4.62,-10.79,4.56,-26.75,27.75,46.94,-38.13,4.31,-3.9484056515269716,-5.3572659141204495,-2.7296450960957004,-83.0275358707213,-82.00622099250181,-37.10820677500307,-0.1701,-0.6628,-0.6561,-0.3182
292,1871050.0,1763.631887,1.0,2.55,6.12,-4.45,4.56,-26.75,27.75,-100.81,-132.69,-76.75,1.3858352105568177,-1.6328893318308335,2.114281496140218,-82.15815106961863,-82.18855815257656,-35.624636497255686,-0.2065,-0.6571,-0.6573,-0.3059
293,1871050.0,1763.631887,1.0,2.55,6.12,-4.45,4.56,-26.75,27.75,-100.81,-132.69,-76.75,1.3858352105568177,-1.6328893318308335,2.114281496140218,-82.15815106961863,-82.18855815257656,-35.624636497255686,-0.2065,-0.6571,-0.6573,-0.3059
294,1871085.0,1763.638932,1.0,-2.31,5.8,-1.91,5.25,-24.56,29.0,-28.0,-105.19,-76.19,2.8817255740801766,2.450036309188576,4.485261102414155,-80.8120533305175,-82.59974558341173,-33.428651899003285,-0.2481,-0.6482,-0.66,-0.2876
295,1871085.0,1763.638932,1.0,-2.31,5.8,-1.91,5.25,-24.56,29.0,-28.0,-105.19,-76.19,2.8817255740801766,2.450036309188576,4.485261102414155,-80.8120533305175,-82.59974558341173,-33.428651899003285,-0.2481,-0.6482,-0.66,-0.2876
296,1871122.0,1763.6844440000002,1.0,1.29,10.86,-6.59,10.5,-26.5,25.69,-61.0,-129.0,-5.75,2.7639842651527347,-1.125033233236041,-2.6081190758266803,-81.33979509600317,-80.96262485016383,-32.75921457984873,-0.2725,-0.6517,-0.6492,-0.282
297,1871122.0,1763.6844440000002,1.0,1.29,10.86,-6.59,10.5,-26.5,25.69,-61.0,-129.0,-5.75,2.7639842651527347,-1.125033233236041,-2.6081190758266803,-81.33979509600317,-80.96262485016383,-32.75921457984873,-0.2725,-0.6517,-0.6492,-0.282
298,1871159.0,1763.7252600000002,1.0,-0.26,6.68,-4.53,12.0,-26.5,23.69,112.31,-130.25,-17.31,1.8075511011356962,-0.0941908106228535,1.9367842382492098,-83.94903131476774,-80.54144798375755,-26.806136930452627,-0.2847,-0.6688,-0.6464,-0.2318
299,1871159.0,1763.7252600000002,1.0,-0.26,6.68,-4.53,12.0,-26.5,23.69,112.31,-130.25,-17.31,1.8075511011356962,-0.0941908106228535,1.9367842382492098,-83.94903131476774,-80.54144798375755,-26.806136930452627,-0.2847,-0.6688,-0.6464,-0.2318
300,1871194.0,1763.78559,1.0,-0.71,4.12,-6.84,12.0,-26.5,23.69,56.13,-72.25,18.37,-1.3272748578097109,-0.08419722578832989,1.9012498027300504,-85.74981673368876,-80.21144137505003,-23.63558298502357,-0.28300000000000003,-0.6804,-0.6442,-0.2048
301,1871194.0,1763.78559,1.0,-0.71,4.12,-6.84,12.0,-26.5,23.69,56.13,-72.25,18.37,-1.3272748578097109,-0.08419722578832989,1.9012498027300504,-85.74981673368876,-80.21144137505003,-23.63558298502357,-0.28300000000000003,-0.6804,-0.6442,-0.2048
302,1871230.0,1763.8366649999998,1.0,-2.14,6.74,-6.06,15.0,-24.19,25.25,-5.75,-59.5,5.31,0.9919521628318184,1.2260761923918966,0.628220500510281,-86.86507311557956,-78.82513609744035,-21.975603150496873,-0.2966,-0.6875,-0.6349,-0.1906
303,1871230.0,1763.8366649999998,1.0,-2.14,6.74,-6.06,15.0,-24.19,25.25,-5.75,-59.5,5.31,0.9919521628318184,1.2260761923918966,0.628220500510281,-86.86507311557956,-78.82513609744035,-21.975603150496873,-0.2966,-0.6875,-0.6349,-0.1906
304,1871265.0,1763.854025,1.0,-2.2,6.17,-6.52,17.25,-23.19,24.5,17.5,-22.75,-9.06,0.30241491060114145,1.071780207379453,0.6317313404741451,-87.14944663280797,-78.61764169313197,-21.019168663575197,-0.3005,-0.6893,-0.6335,-0.1824
305,1871265.0,1763.854025,1.0,-2.2,6.17,-6.52,17.25,-23.19,24.5,17.5,-22.75,-9.06,0.30241491060114145,1.071780207379453,0.6317313404741451,-87.14944663280797,-78.61764169313197,-21.019168663575197,-0.3005,-0.6893,-0.6335,-0.1824
306,1871300.0,1763.8958989999999,1.0,-2.05,5.0,-7.31,17.25,-23.19,24.5,2.63,-15.44,-6.75,-0.9845068445713248,0.6602133450673131,0.7936890763086469,-87.08619458392643,-78.91415680820512,-20.20387293870638,-0.3013,-0.6889,-0.6355,-0.1754
307,1871300.0,1763.8958989999999,1.0,-2.05,5.0,-7.31,17.25,-23.19,24.5,2.63,-15.44,-6.75,-0.9845068445713248,0.6602133450673131,0.7936890763086469,-87.08619458392643,-78.91415680820512,-20.20387293870638,-0.3013,-0.6889,-0.6355,-0.1754
308,1871335.0,1763.951955,1.0,-1.69,5.89,-7.21,17.25,-23.75,24.5,-3.44,-20.37,8.88,-0.22377393925333236,0.2543648197223653,0.35056604507454203,-87.41863949905357,-78.35131422864524,-19.81987998842397,-0.3062,-0.691,-0.6317,-0.1721
309,1871335.0,1763.951955,1.0,-1.69,5.89,-7.21,17.25,-23.75,24.5,-3.44,-20.37,8.88,-0.22377393925333236,0.2543648197223653,0.35056604507454203,-87.41863949905357,-78.35131422864524,-19.81987998842397,-0.3062,-0.691,-0.6317,-0.1721
310,1871372.0,1763.959573,1.0,-1.68,6.79,-6.88,16.87,-23.5,23.69,-16.0,-23.87,-1.44,0.6006366973501589,0.2423921457336231,0.016788836250894338,-87.5931456195006,-77.79071544905813,-19.598895357607173,-0.3125,-0.6921,-0.6279,-0.1702
311,1871372.0,1763.959573,1.0,-1.68,6.79,-6.88,16.87,-23.5,23.69,-16.0,-23.87,-1.44,0.6006366973501589,0.2423921457336231,0.016788836250894338,-87.5931456195006,-77.79071544905813,-19.598895357607173,-0.3125,-0.6921,-0.6279,-0.1702
312,1871407.0,1764.015884,1.0,-1.79,6.3,-6.82,16.87,-23.5,23.69,8.38,-25.44,-4.44,0.2563970308568904,0.2540066168232653,0.3580394565826328,-87.68843823597489,-77.5994395892969,-19.029325032716933,-0.3165,-0.6927,-0.6266,-0.1653
313,1871407.0,1764.015884,1.0,-1.79,6.3,-6.82,16.87,-23.5,23.69,8.38,-25.44,-4.44,0.2563970308568904,0.2540066168232653,0.3580394565826328,-87.68843823597489,-77.5994395892969,-19.029325032716933,-0.3165,-0.6927,-0.6266,-0.1653
314,1871441.0,1764.0230010000002,1.0,-1.69,5.5,-7.26,18.0,-23.75,22.87,17.81,-14.56,1.37,-0.5000540158246539,-0.0366879571191916,0.5566608121652319,-88.2618022796064,-77.34969619182397,-18.019205613951,-0.3164,-0.6963,-0.6249,-0.1566
315,1871441.0,1764.0230010000002,1.0,-1.69,5.5,-7.26,18.0,-23.75,22.87,17.81,-14.56,1.37,-0.5000540158246539,-0.0366879571191916,0.5566608121652319,-88.2618022796064,-77.34969619182397,-18.019205613951,-0.3164,-0.6963,-0.6249,-0.1566
316,1871476.0,1764.039648,1.0,-1.22,5.7,-7.68,19.06,-24.19,22.5,13.06,-18.56,8.0,-0.44116007524391776,-0.6463899417792911,0.19684470378419405,-89.030647823847,-76.7637741365913,-17.242262917799223,-0.317,-0.7011,-0.6209,-0.1499
317,1871476.0,1764.039648,1.0,-1.22,5.7,-7.68,19.06,-24.19,22.5,13.06,-18.56,8.0,-0.44116007524391776,-0.6463899417792911,0.19684470378419405,-89.030647823847,-76.7637741365913,-17.242262917799223,-0.317,-0.7011,-0.6209,-0.1499
318,1871513.0,1764.0811600000002,1.0,-1.29,6.09,-7.72,19.5,-23.5,22.87,0.5,-10.06,4.81,-0.14222665856704886,-0.6032655448839028,-0.09114986966541848,-89.49762416816229,-76.34046104575957,-16.859885280956842,-0.3177,-0.7040000000000001,-0.618,-0.1466
319,1871513.0,1764.0811600000002,1.0,-1.29,6.09,-7.72,19.5,-23.5,22.87,0.5,-10.06,4.81,-0.14222665856704886,-0.6032655448839028,-0.09114986966541848,-89.49762416816229,-76.34046104575957,-16.859885280956842,-0.3177,-0.7040000000000001,-0.618,-0.1466
320,1871546.0,1764.153004,1.0,-1.8,5.83,-7.38,19.5,-23.5,22.87,3.5,-8.19,-1.75,-0.22444777023239504,-0.0729446219103278,0.23389688083035945,-89.56218264522055,-76.25303259821837,-16.581911426258042,-0.319,-0.7044,-0.6174,-0.1442
321,1871546.0,1764.153004,1.0,-1.8,5.83,-7.38,19.5,-23.5,22.87,3.5,-8.19,-1.75,-0.22444777023239504,-0.0729446219103278,0.23389688083035945,-89.56218264522055,-76.25303259821837,-16.581911426258042,-0.319,-0.7044,-0.6174,-0.1442
322,1871583.0,1764.156086,1.0,-1.55,5.63,-7.78,19.5,-22.75,22.37,8.38,-5.31,-1.25,-0.5270545942103825,-0.444147367208434,0.10341617972525974,-89.7237370153758,-76.2239014164758,-16.30403579859025,-0.3184,-0.7054,-0.6172,-0.1418
323,1871583.0,1764.156086,1.0,-1.55,5.63,-7.78,19.5,-22.75,22.37,8.38,-5.31,-1.25,-0.5270545942103825,-0.444147367208434,0.10341617972525974,-89.7237370153758,-76.2239014164758,-16.30403579859025,-0.3184,-0.7054,-0.6172,-0.1418
324,1871620.0,1764.196132,1.0,-1.65,5.65,-7.66,20.25,-23.5,21.37,2.56,-8.06,-2.75,-0.3969679380031419,-0.3366087677186247,0.1604221883788952,-90.06374156785668,-76.04923610928397,-15.852692930840096,-0.3176,-0.7075,-0.616,-0.1379
325,1871620.0,1764.196132,1.0,-1.65,5.65,-7.66,20.25,-23.5,21.37,2.56,-8.06,-2.75,-0.3969679380031419,-0.3366087677186247,0.1604221883788952,-90.06374156785668,-76.04923610928397,-15.852692930840096,-0.3176,-0.7075,-0.616,-0.1379
326,1871652.0,1764.213087,1.0,-2.04,5.36,-7.28,20.25,-23.5,21.37,-0.12,-7.38,-5.25,-0.4429394294796626,0.1013541885307796,0.5501316485743661,-90.07995743217865,-76.13654269852312,-15.551935573755918,-0.3176,-0.7076,-0.6166,-0.1353
327,1871652.0,1764.213087,1.0,-2.04,5.36,-7.28,20.25,-23.5,21.37,-0.12,-7.38,-5.25,-0.4429394294796626,0.1013541885307796,0.5501316485743661,-90.07995743217865,-76.13654269852312,-15.551935573755918,-0.3176,-0.7076,-0.6166,-0.1353
328,1871687.0,1764.2545309999998,1.0,-2.18,5.38,-7.54,20.0,-22.75,23.0,1.0,-3.44,-1.25,-0.6013321193658063,0.13450781691589775,0.3109295255226936,-90.06374156785668,-76.12198798415724,-15.401597439742238,-0.3185,-0.7075,-0.6165,-0.134
329,1871687.0,1764.2545309999998,1.0,-2.18,5.38,-7.54,20.0,-22.75,23.0,1.0,-3.44,-1.25,-0.6013321193658063,0.13450781691589775,0.3109295255226936,-90.06374156785668,-76.12198798415724,-15.401597439742238,-0.3185,-0.7075,-0.6165,-0.134
330,1871722.0,1764.312677,1.0,-2.04,5.8,-7.35,20.25,-22.75,23.75,-5.56,-2.81,1.0,-0.14555827190237525,0.057438196948976124,0.2254385085959978,-90.07995743217865,-76.03469006904194,-15.39003407585724,-0.3195,-0.7076,-0.6159,-0.1339
331,1871722.0,1764.312677,1.0,-2.04,5.8,-7.35,20.25,-22.75,23.75,-5.56,-2.81,1.0,-0.14555827190237525,0.057438196948976124,0.2254385085959978,-90.07995743217865,-76.03469006904194,-15.39003407585724,-0.3195,-0.7076,-0.6159,-0.1339
332,1871757.0,1764.328021,1.0,-1.86,5.7,-7.68,20.25,-22.75,23.75,0.63,-2.5,0.06,-0.3707506240492918,-0.22582242844064426,0.07302024509457539,-90.16107125343979,-75.9619815049614,-15.274409087771584,-0.3198,-0.7081,-0.6154,-0.1329
333,1871757.0,1764.328021,1.0,-1.86,5.7,-7.68,20.25,-22.75,23.75,0.63,-2.5,0.06,-0.3707506240492918,-0.22582242844064426,0.07302024509457539,-90.16107125343979,-75.9619815049614,-15.274409087771584,-0.3198,-0.7081,-0.6154,-0.1329
334,1871792.0,1764.369519,1.0,-2.28,5.8,-7.19,20.56,-22.75,22.5,-5.13,-4.31,-2.88,-0.10104353831617308,0.2901843934886381,0.2966508821693257,-90.07995743217865,-75.9619815049614,-15.18192036535379,-0.3212,-0.7076,-0.6154,-0.1321
335,1871792.0,1764.369519,1.0,-2.28,5.8,-7.19,20.56,-22.75,22.5,-5.13,-4.31,-2.88,-0.10104353831617308,0.2901843934886381,0.2966508821693257,-90.07995743217865,-75.9619815049614,-15.18192036535379,-0.3212,-0.7076,-0.6154,-0.1321
336,1871826.0,1764.42621,1.0,-2.33,5.36,-7.11,20.56,-22.37,23.37,7.69,-3.0,1.63,-0.3883139486099492,0.3380444644237333,0.6172246524939098,-90.177300926755,-75.93290816428274,-15.02008899858815,-0.3208,-0.7082,-0.6152,-0.1307
337,1871826.0,1764.42621,1.0,-2.33,5.36,-7.11,20.56,-22.37,23.37,7.69,-3.0,1.63,-0.3883139486099492,0.3380444644237333,0.6172246524939098,-90.177300926755,-75.93290816428274,-15.02008899858815,-0.3208,-0.7082,-0.6152,-0.1307
338,1871863.0,1764.481057,1.0,-2.09,5.62,-7.29,21.0,-22.37,22.5,-5.13,4.44,2.81,-0.2511137919773984,0.08712671072248622,0.3712935785521374,-90.20976719290563,-75.87477874230648,-15.158799741488714,-0.3204,-0.7084,-0.6148,-0.1319
339,1871863.0,1764.481057,1.0,-2.09,5.62,-7.29,21.0,-22.37,22.5,-5.13,4.44,2.81,-0.2511137919773984,0.08712671072248622,0.3712935785521374,-90.20976719290563,-75.87477874230648,-15.158799741488714,-0.3204,-0.7084,-0.6148,-0.1319
340,1871896.0,1764.4882519999999,1.0,-1.73,5.78,-7.92,21.0,-22.37,22.5,-2.5,4.19,3.31,-0.4324665270229528,-0.4055996185342443,-0.13196970559541832,-90.27472743998257,-75.81667229763626,-15.332219618835126,-0.3199,-0.7088,-0.6144,-0.1334
341,1871896.0,1764.4882519999999,1.0,-1.73,5.78,-7.92,21.0,-22.37,22.5,-2.5,4.19,3.31,-0.4324665270229528,-0.4055996185342443,-0.13196970559541832,-90.27472743998257,-75.81667229763626,-15.332219618835126,-0.3199,-0.7088,-0.6144,-0.1334
342,1871933.0,1764.50055,1.0,-1.6,5.74,-7.72,19.5,-23.19,22.5,-1.56,-2.44,3.75,-0.3138791553098124,-0.4737580542744713,0.07099218032124455,-90.56750793260044,-75.526483262398,-15.216602467156429,-0.3201,-0.7106,-0.6124,-0.1324
343,1871933.0,1764.50055,1.0,-1.6,5.74,-7.72,19.5,-23.19,22.5,-1.56,-2.44,3.75,-0.3138791553098124,-0.4737580542744713,0.07099218032124455,-90.56750793260044,-75.526483262398,-15.216602467156429,-0.3201,-0.7106,-0.6124,-0.1324
344,1871970.0,1764.5536399999999,1.0,-1.92,5.85,-7.31,20.25,-23.5,23.37,-3.75,-3.31,0.75,-0.0785127218908821,-0.05098328449677059,0.24965065620996366,-90.64896993931684,-75.35264288775507,-15.22816347918777,-0.3212,-0.7111,-0.6112,-0.1325
345,1871970.0,1764.5536399999999,1.0,-1.92,5.85,-7.31,20.25,-23.5,23.37,-3.75,-3.31,0.75,-0.0785127218908821,-0.05098328449677059,0.24965065620996366,-90.64896993931684,-75.35264288775507,-15.22816347918777,-0.3212,-0.7111,-0.6112,-0.1325
346,1872005.0,1764.630479,1.0,-1.95,5.79,-7.21,20.25,-23.5,23.37,1.19,1.19,2.44,-0.07852401660838693,0.0077485033822739515,0.35654555933316523,-90.71418173754832,-75.28026949834307,-15.239724647140953,-0.3213,-0.7115,-0.6107,-0.1326
347,1872005.0,1764.630479,1.0,-1.95,5.79,-7.21,20.25,-23.5,23.37,1.19,1.19,2.44,-0.07852401660838693,0.0077485033822739515,0.35654555933316523,-90.71418173754832,-75.28026949834307,-15.239724647140953,-0.3213,-0.7115,-0.6107,-0.1326
348,1872037.0,1764.6398149999998,1.0,-1.8,5.82,-7.67,20.25,-23.5,22.5,-1.0,2.19,0.69,-0.29610765487749624,-0.257805553254578,0.01955867757768992,-90.84471821404394,-75.13562834382228,-15.274409087771584,-0.3212,-0.7123,-0.6097,-0.1329
349,1872037.0,1764.6398149999998,1.0,-1.8,5.82,-7.67,20.25,-23.5,22.5,-1.0,2.19,0.69,-0.29610765487749624,-0.257805553254578,0.01955867757768992,-90.84471821404394,-75.13562834382228,-15.274409087771584,-0.3212,-0.7123,-0.6097,-0.1329
350,1872074.0,1764.6563370000001,1.0,-1.76,5.76,-7.58,20.25,-23.5,22.5,0.81,-2.0,1.63,-0.2757661235667521,-0.27748309480205524,0.13304900671978004,-90.99175237676184,-75.00557127858174,-15.18192036535379,-0.3214,-0.7132,-0.6088,-0.1321
351,1872074.0,1764.6563370000001,1.0,-1.76,5.76,-7.58,20.25,-23.5,22.5,0.81,-2.0,1.63,-0.2757661235667521,-0.27748309480205524,0.13304900671978004,-90.99175237676184,-75.00557127858174,-15.18192036535379,-0.3214,-0.7132,-0.6088,-0.1321
352,1872109.0,1764.692352,1.0,-1.74,5.73,-7.4,19.87,-23.5,21.69,1.06,-3.25,2.13,-0.17696554790663788,-0.2348702112398673,0.2917133644397687,-91.33558129123823,-74.70254413195292,-15.054764601110485,-0.321,-0.7153,-0.6067,-0.131
353,1872109.0,1764.692352,1.0,-1.74,5.73,-7.4,19.87,-23.5,21.69,1.06,-3.25,2.13,-0.17696554790663788,-0.2348702112398673,0.2917133644397687,-91.33558129123823,-74.70254413195292,-15.054764601110485,-0.321,-0.7153,-0.6067,-0.131
354,1872142.0,1764.709587,1.0,-2.01,5.81,-7.36,19.87,-23.5,21.69,-0.94,0.44,1.63,-0.16529952531242642,0.03697599604095414,0.21826594205529126,-91.35198041570484,-74.64489405402493,-15.089441590206313,-0.3215,-0.7154,-0.6063,-0.1313
355,1872142.0,1764.709587,1.0,-2.01,5.81,-7.36,19.87,-23.5,21.69,-0.94,0.44,1.63,-0.16529952531242642,0.03697599604095414,0.21826594205529126,-91.35198041570484,-74.64489405402493,-15.089441590206313,-0.3215,-0.7154,-0.6063,-0.1313
356,1872179.0,1764.763663,1.0,-1.64,5.65,-7.66,19.87,-23.19,22.5,-0.69,-1.31,3.13,-0.37256805284040173,-0.3961484548094996,0.1634161312319744,-91.54895776302857,-74.50086547711395,-15.089441590206313,-0.3208,-0.7166,-0.6053,-0.1313
357,1872179.0,1764.763663,1.0,-1.64,5.65,-7.66,19.87,-23.19,22.5,-0.69,-1.31,3.13,-0.37256805284040173,-0.3961484548094996,0.1634161312319744,-91.54895776302857,-74.50086547711395,-15.089441590206313,-0.3208,-0.7166,-0.6053,-0.1313
358,1872214.0,1764.8127129999998,1.0,-1.76,5.73,-7.59,19.87,-23.5,21.37,-0.31,-3.0,1.37,-0.3000799349214439,-0.25788203879791904,0.1432112286969538,-91.82860613360762,-74.1844858325427,-14.996972698908555,-0.3213,-0.7183,-0.6031,-0.1305
359,1872214.0,1764.8127129999998,1.0,-1.76,5.73,-7.59,19.87,-23.5,21.37,-0.31,-3.0,1.37,-0.3000799349214439,-0.25788203879791904,0.1432112286969538,-91.82860613360762,-74.1844858325427,-14.996972698908555,-0.3213,-0.7183,-0.6031,-0.1305
360,1872248.0,1764.8314679999999,1.0,-2.0,5.77,-7.29,19.87,-23.5,21.37,-2.5,-4.75,1.44,-0.15628696326279068,0.04645770926060777,0.29821079756701785,-91.89450814603757,-74.08395810619946,-14.904513628099544,-0.3222,-0.7187,-0.6024,-0.1297
361,1872248.0,1764.8314679999999,1.0,-2.0,5.77,-7.29,19.87,-23.5,21.37,-2.5,-4.75,1.44,-0.15628696326279068,0.04645770926060777,0.29821079756701785,-91.89450814603757,-74.08395810619946,-14.904513628099544,-0.3222,-0.7187,-0.6024,-0.1297
362,1872283.0,1764.870646,1.0,-1.85,5.83,-7.47,20.56,-23.19,22.19,0.5,-0.81,1.75,-0.18481192035487992,-0.1511286352772001,0.1549504248114939,-91.96044935664196,-73.96915070870061,-14.89295693159816,-0.3227,-0.7191,-0.6016,-0.1296
363,1872283.0,1764.870646,1.0,-1.85,5.83,-7.47,20.56,-23.19,22.19,0.5,-0.81,1.75,-0.18481192035487992,-0.1511286352772001,0.1549504248114939,-91.96044935664196,-73.96915070870061,-14.89295693159816,-0.3227,-0.7191,-0.6016,-0.1296
364,1872320.0,1764.8869359999999,1.0,-1.91,6.03,-7.27,20.56,-23.19,20.87,-2.5,-0.88,0.69,0.06459901623527864,-0.02134717663196506,0.17040222064359334,-92.14199055285606,-73.76844586798647,-14.84673166768115,-0.3233,-0.7202,-0.6002,-0.1292
365,1872320.0,1764.8869359999999,1.0,-1.91,6.03,-7.27,20.56,-23.19,20.87,-2.5,-0.88,0.69,0.06459901623527864,-0.02134717663196506,0.17040222064359334,-92.14199055285606,-73.76844586798647,-14.84673166768115,-0.3233,-0.7202,-0.6002,-0.1292
366,1872355.0,1764.996605,1.0,-1.76,5.82,-7.4,20.56,-23.19,20.87,4.81,-1.5,1.81,-0.12820596281281196,-0.2226370856890476,0.2325183966024813,-92.17503011644877,-73.73979529168805,-14.777398324484167,-0.3232,-0.7204,-0.6,-0.1286
367,1872355.0,1764.996605,1.0,-1.76,5.82,-7.4,20.56,-23.19,20.87,4.81,-1.5,1.81,-0.12820596281281196,-0.2226370856890476,0.2325183966024813,-92.17503011644877,-73.73979529168805,-14.777398324484167,-0.3232,-0.7204,-0.6,-0.1286
368,1872388.0,1765.0080719999999,1.0,-1.91,5.79,-7.43,19.5,-23.75,22.5,1.0,-3.81,-0.94,-0.1935829758850549,-0.10174617047772604,0.19783772437297564,-92.34037663402384,-73.59662288630017,-14.627194705880914,-0.3234,-0.7214,-0.599,-0.1273
369,1872388.0,1765.0080719999999,1.0,-1.91,5.79,-7.43,19.5,-23.75,22.5,1.0,-3.81,-0.94,-0.1935829758850549,-0.10174617047772604,0.19783772437297564,-92.34037663402384,-73.59662288630017,-14.627194705880914,-0.3234,-0.7214,-0.599,-0.1273
370,1872424.0,1765.01112,1.0,-1.86,5.74,-7.43,20.25,-23.5,22.5,2.75,-0.31,0.25,-0.2078065578451891,-0.16037779021182752,0.23882917188436714,-92.40658485258841,-73.56800446686195,-14.523222401516824,-0.3234,-0.7218,-0.5988,-0.1264
371,1872424.0,1765.01112,1.0,-1.86,5.74,-7.43,20.25,-23.5,22.5,2.75,-0.31,0.25,-0.2078065578451891,-0.16037779021182752,0.23882917188436714,-92.40658485258841,-73.56800446686195,-14.523222401516824,-0.3234,-0.7218,-0.5988,-0.1264
372,1872459.0,1765.0505039999998,1.0,-2.05,5.87,-7.26,21.37,-23.19,23.37,0.12,-0.37,-0.12,-0.04774759653679217,0.0861940327210009,0.2485492077009237,-92.37347575931804,-73.62524665323141,-14.511670666824136,-0.3229,-0.7216,-0.5992,-0.1263
373,1872459.0,1765.0505039999998,1.0,-2.05,5.87,-7.26,21.37,-23.19,23.37,0.12,-0.37,-0.12,-0.04774759653679217,0.0861940327210009,0.2485492077009237,-92.37347575931804,-73.62524665323141,-14.511670666824136,-0.3229,-0.7216,-0.5992,-0.1263
374,1872496.0,1765.067182,1.0,-1.75,5.91,-7.71,21.37,-23.19,23.37,1.44,-1.0,0.75,-0.19234485248959976,-0.3312270812955749,-0.0568175483998612,-92.42314314089434,-73.61093410103018,-14.500119080393965,-0.3226,-0.7219,-0.5991,-0.1262
375,1872496.0,1765.067182,1.0,-1.75,5.91,-7.71,21.37,-23.19,23.37,1.44,-1.0,0.75,-0.19234485248959976,-0.3312270812955749,-0.0568175483998612,-92.42314314089434,-73.61093410103018,-14.500119080393965,-0.3226,-0.7219,-0.5991,-0.1262
376,1872533.0,1765.106996,1.0,-2.12,5.79,-7.55,20.56,-23.75,21.69,-0.31,-2.75,0.31,-0.2722807831748919,0.04799113691756096,0.06270008090194601,-92.6386286008021,-73.41069853307816,-14.303764676023915,-0.3228,-0.7232,-0.5977,-0.1245
377,1872533.0,1765.106996,1.0,-2.12,5.79,-7.55,20.56,-23.75,21.69,-0.31,-2.75,0.31,-0.2722807831748919,0.04799113691756096,0.06270008090194601,-92.6386286008021,-73.41069853307816,-14.303764676023915,-0.3228,-0.7232,-0.5977,-0.1245
378,1872568.0,1765.1474289999999,1.0,-1.89,5.73,-7.56,20.56,-23.19,23.0,2.38,-1.19,2.31,-0.2535454348870496,-0.1757839490895945,0.13900216220147674,-92.70501720124949,-73.38211475609262,-14.2344732300193,-0.3224,-0.7236,-0.5975,-0.1239
379,1872568.0,1765.1474289999999,1.0,-1.89,5.73,-7.56,20.56,-23.19,23.0,2.38,-1.19,2.31,-0.2535454348870496,-0.1757839490895945,0.13900216220147674,-92.70501720124949,-73.38211475609262,-14.2344732300193,-0.3224,-0.7236,-0.5975,-0.1239
380,1872601.0,1765.1766289999998,1.0,-2.14,6.1,-7.43,20.56,-23.19,23.0,-1.88,-4.13,0.37,0.029199581276671323,0.11307386304029655,-0.041236153177768735,-92.73822662555115,-73.26783271865594,-14.211377245158012,-0.3237,-0.7238,-0.5967,-0.1237
381,1872601.0,1765.1766289999998,1.0,-2.14,6.1,-7.43,20.56,-23.19,23.0,-1.88,-4.13,0.37,0.029199581276671323,0.11307386304029655,-0.041236153177768735,-92.73822662555115,-73.26783271865594,-14.211377245158012,-0.3237,-0.7238,-0.5967,-0.1237
382,1872635.0,1765.2188399999998,1.0,-2.13,5.73,-7.33,20.56,-23.5,22.19,2.06,-1.75,-0.44,-0.1912656440159437,0.0961137102598686,0.26448674379235904,-92.83791553872564,-73.18217678230073,-14.084359674365961,-0.3239,-0.7244,-0.5961,-0.1226
383,1872635.0,1765.2188399999998,1.0,-2.13,5.73,-7.33,20.56,-23.5,22.19,2.06,-1.75,-0.44,-0.1912656440159437,0.0961137102598686,0.26448674379235904,-92.83791553872564,-73.18217678230073,-14.084359674365961,-0.3239,-0.7244,-0.5961,-0.1226
384,1872672.0,1765.279263,1.0,-1.98,5.96,-7.35,20.25,-23.5,23.37,-2.56,1.75,1.37,0.004771375736134065,-0.03527948348549037,0.1390115814399362,-92.80467578226568,-73.15363536728181,-14.130545861300053,-0.3243,-0.7242,-0.5959,-0.12300000000000001
385,1872672.0,1765.279263,1.0,-1.98,5.96,-7.35,20.25,-23.5,23.37,-2.56,1.75,1.37,0.004771375736134065,-0.03527948348549037,0.1390115814399362,-92.80467578226568,-73.15363536728181,-14.130545861300053,-0.3243,-0.7242,-0.5959,-0.12300000000000001
386,1872707.0,1765.2967670000003,1.0,-1.75,6.02,-7.44,20.25,-23.5,23.37,-2.56,3.06,1.12,0.0483480440191556,-0.2644411059332499,0.0812074204495783,-92.80467578226568,-73.13936663783453,-14.2344732300193,-0.3242,-0.7242,-0.5958,-0.1239
387,1872707.0,1765.2967670000003,1.0,-1.75,6.02,-7.44,20.25,-23.5,23.37,-2.56,3.06,1.12,0.0483480440191556,-0.2644411059332499,0.0812074204495783,-92.80467578226568,-73.13936663783453,-14.2344732300193,-0.3242,-0.7242,-0.5958,-0.1239
388,1872740.0,1765.372838,1.0,-1.78,6.25,-7.57,19.87,-23.19,22.19,-0.06,-0.06,0.75,0.12902497685254188,-0.2492593637758218,-0.16616416275858548,-92.83791553872564,-73.06804274776655,-14.338412369029564,-0.3244,-0.7244,-0.5953,-0.1248
389,1872740.0,1765.372838,1.0,-1.78,6.25,-7.57,19.87,-23.19,22.19,-0.06,-0.06,0.75,0.12902497685254188,-0.2492593637758218,-0.16616416275858548,-92.83791553872564,-73.06804274776655,-14.338412369029564,-0.3244,-0.7244,-0.5953,-0.1248
390,1872775.0,1765.376525,1.0,-1.67,6.03,-7.52,19.5,-23.75,21.37,2.19,-0.75,0.81,0.02569390859223597,-0.34359431846055344,0.030071724990749612,-93.12086388400516,-72.84002686008644,-14.24602144035678,-0.324,-0.7261,-0.5937,-0.124
391,1872775.0,1765.376525,1.0,-1.67,6.03,-7.52,19.5,-23.75,21.37,2.19,-0.75,0.81,0.02569390859223597,-0.34359431846055344,0.030071724990749612,-93.12086388400516,-72.84002686008644,-14.24602144035678,-0.324,-0.7261,-0.5937,-0.124
392,1872812.0,1765.425507,1.0,-1.97,5.93,-7.37,19.5,-23.75,21.37,0.12,-0.12,-1.06,-0.0457272613357308,-0.024141431125505708,0.1443507804108073,-93.28764914604751,-72.66923443071872,-14.165187015253306,-0.3243,-0.7271,-0.5925,-0.1233
393,1872812.0,1765.425507,1.0,-1.97,5.93,-7.37,19.5,-23.75,21.37,0.12,-0.12,-1.06,-0.0457272613357308,-0.024141431125505708,0.1443507804108073,-93.28764914604751,-72.66923443071872,-14.165187015253306,-0.3243,-0.7271,-0.5925,-0.1233
394,1872846.0,1765.432365,1.0,-1.92,5.87,-7.47,19.5,-23.75,21.37,1.5,1.44,0.63,-0.13041970280838666,-0.10040742925035318,0.11556600236223424,-93.30434180891346,-72.68345997623392,-14.176734355559056,-0.3238,-0.7272,-0.5926,-0.1234
395,1872846.0,1765.432365,1.0,-1.92,5.87,-7.47,19.5,-23.75,21.37,1.5,1.44,0.63,-0.13041970280838666,-0.10040742925035318,0.11556600236223424,-93.30434180891346,-72.68345997623392,-14.176734355559056,-0.3238,-0.7272,-0.5926,-0.1234
396,1872883.0,1765.4492850000001,1.0,-2.06,5.81,-7.55,19.87,-22.75,23.37,-0.63,-0.5,-0.69,-0.2589007831284139,-0.0002706403752061881,0.06318191562422902,-93.22090422842993,-72.7688405556102,-14.199829470388696,-0.3237,-0.7267,-0.5932,-0.1236
397,1872883.0,1765.4492850000001,1.0,-2.06,5.81,-7.55,19.87,-22.75,23.37,-0.63,-0.5,-0.69,-0.2589007831284139,-0.0002706403752061881,0.06318191562422902,-93.22090422842993,-72.7688405556102,-14.199829470388696,-0.3237,-0.7267,-0.5932,-0.1236
398,1872918.0,1765.491496,1.0,-1.92,5.81,-7.45,20.25,-23.5,20.87,0.75,-0.88,1.69,-0.15970148159397046,-0.10049901968472508,0.16769801423831687,-93.43797599516577,-72.55547677388151,-14.095906005217,-0.3238,-0.728,-0.5917,-0.1227
399,1872918.0,1765.491496,1.0,-1.92,5.81,-7.45,20.25,-23.5,20.87,0.75,-0.88,1.69,-0.15970148159397046,-0.10049901968472508,0.16769801423831687,-93.43797599516577,-72.55547677388151,-14.095906005217,-0.3238,-0.728,-0.5917,-0.1227
