TIME,ELAPSED_SECONDS,PSTATE,acc_x,acc_y,acc_z,mag_x,mag_y,mag_z,gyr_x,gyr_y,gyr_z,lin_x,lin_y,lin_z,eul_x,eul_y,eul_z,qua_w,qua_x,qua_y,qua_z
150726.0,94.753263,1.0,4.59,2.23,-8.19,-21.5,-24.0,26.06,0.25,6.06,1.81,-0.0009188063187792472,0.15553349373999192,0.15818336078110207,-144.1648201843402,17.010496081346126,-26.01751718039721,-0.1487,-0.9515,0.1479,-0.2251
150763.0,94.779439,1.0,4.55,2.13,-8.12,-20.69,-24.0,27.56,5.44,15.38,0.75,-0.04730306089109351,0.07877117148014356,0.2585948303346086,-143.9049982588089,16.929394296591493,-26.47640945025204,-0.1479,-0.9508,0.1472,-0.22899999999999998
150796.0,94.826476,1.0,4.65,1.96,-8.36,-20.69,-24.0,27.56,2.31,4.75,-0.5,-0.03634099207648517,-0.13612428141473798,0.04274455636197772,-143.79419791151398,16.883054257264604,-26.71190613338563,-0.1473,-0.9505,0.1468,-0.231
150833.0,94.90329200000001,1.0,4.57,1.96,-8.2,-21.87,-24.37,27.25,0.94,4.06,1.12,-0.0659196943947643,-0.09339806720595444,0.2174148169974952,-143.68372432172094,16.906223928806188,-26.85325924989716,-0.1469,-0.9502,0.147,-0.2322
150867.0,94.917162,1.0,4.42,2.0,-7.85,-21.5,-24.0,26.06,3.31,12.25,4.25,-0.10788133433677094,0.03040744466202272,0.5791727171771992,-143.5003197378201,16.929394296591493,-27.100727545597238,-0.1467,-0.9497,0.1472,-0.2343
150900.0,94.924913,1.0,4.88,1.75,-8.27,-21.5,-24.0,26.06,7.19,18.81,11.38,0.05971202186544727,-0.2251209774247684,0.04880418137957854,-142.91931394004666,17.137959104392678,-27.87933033417513,-0.1447,-0.9481,0.149,-0.2409
150937.0,94.969172,1.0,6.06,2.5,-9.17,-22.56,-24.0,26.06,-12.75,0.31,3.0,0.3524344633340615,0.3784976705924308,-1.4536799002476195,-142.5249164652642,17.358172932119437,-28.16278249153404,-0.1457,-0.9470000000000001,0.1509,-0.2433
150974.0,94.986227,1.0,4.81,2.52,-8.28,-22.56,-22.5,26.5,5.75,-33.06,-0.5,-0.16262133488096045,0.5058405410003182,-0.08084612634675102,-143.35423456188457,17.427727524479447,-27.13609064749141,-0.14400000000000002,-0.9493,0.1515,-0.2346
151007.0,95.024586,1.0,5.86,2.4,-9.59,-22.56,-22.5,26.5,25.44,-74.94,-6.25,0.5191553484163043,0.3784772137962569,-1.6674483402988065,-144.87941908090357,17.474100846214462,-25.61780363221793,-0.1375,-0.9534,0.1519,-0.2217
151042.0,95.08296700000001,1.0,4.31,1.75,-9.03,-22.19,-24.69,26.87,-1.12,-192.13,-18.37,0.5799806661459704,0.006256830996127283,-0.3345078865020543,-149.50552295905456,17.474100846214462,-20.01766618340029,-0.1265,-0.9648,0.1519,-0.1738
151076.0,95.138222,1.0,2.53,2.19,-8.89,-20.69,-23.56,28.06,26.62,-247.81,-17.81,-0.06425246206732918,0.4300701432138699,0.3177084735159088,-154.11739099299157,17.729205890532434,-13.276466658923828,-0.114,-0.9746,0.1541,-0.1156
151113.0,95.203561,1.0,0.9,1.21,-8.83,-14.38,-23.19,32.5,41.5,-217.5,-16.81,0.022076421324476736,-0.2469927528880128,0.8522372771218354,-158.840311807755,17.90319186690899,-4.596353909147252,-0.0886,-0.983,0.1556,-0.0401
151148.0,95.219937,1.0,-0.29,1.14,-8.87,-14.38,-23.19,32.5,26.44,-173.5,-15.69,-0.09952315243649187,-0.1778758376170438,0.8613129281775489,-160.32749140960402,17.82199325799314,2.1659094260652934,-0.0695,-0.9853,0.1549,0.0189
151185.0,95.223712,1.0,-1.41,0.79,-8.64,-8.38,-22.06,35.56,21.44,-86.06,-11.13,-0.6360410375766911,-0.5813056723474178,1.0591168898131629,-160.39468315225946,17.613238149656624,5.238658808769412,-0.0597,-0.9854,0.1531,0.0457
151222.0,95.267635,1.0,-1.05,0.92,-9.07,-3.0,-20.56,35.5,3.19,1.44,1.06,-0.2024077906566502,-0.3215682184814612,0.6377119498687751,-160.39468315225946,17.555261104447528,5.823757869537403,-0.0566,-0.9854,0.1526,0.0508
151255.0,95.276379,1.0,-0.22,1.39,-10.62,-3.0,-20.56,35.5,-3.06,4.75,-0.19,0.5630933254863439,0.1863684746709092,-0.8897555971359647,-160.39468315225946,17.578451378167774,5.4451479667522715,-0.0581,-0.9854,0.1528,0.0475
151289.0,95.335854,1.0,-1.16,0.99,-9.05,-2.06,-21.0,35.5,2.5,-1.31,-0.63,-0.3694011637511084,-0.3060308656320678,0.6416029248617701,-160.39468315225946,17.555261104447528,5.5598717686300585,-0.0573,-0.9854,0.1526,0.0485
151326.0,95.353592,1.0,-0.6,1.24,-9.73,-1.37,-21.69,36.0,-0.94,1.75,-0.63,0.14274010763051587,0.0210492054497784,-0.0193197838240664,-160.59764077497127,17.416134643761747,5.410731896463338,-0.0579,-0.9857,0.1514,0.0472
151361.0,95.402073,1.0,-0.89,1.14,-9.36,-1.37,-21.69,36.0,5.81,-11.06,-2.63,-0.10191233997103492,-0.08535708190553748,0.3365059650061166,-160.59764077497127,17.346581127291525,5.697547703194251,-0.0562,-0.9857,0.1508,0.0497
151396.0,95.417107,1.0,-0.74,1.11,-9.67,-1.69,-20.19,36.5,1.81,11.94,0.06,0.05309494305481742,-0.09473535311477732,0.045666128489287416,-160.66576217664587,17.31180678552449,5.513981585080581,-0.0558,-0.9858,0.1505,0.0481
151431.0,95.477829,1.0,-0.8,0.88,-9.42,-1.37,-21.37,36.06,-0.81,11.44,2.13,-0.043318998645351874,-0.3337766593063871,0.31783992675801365,-160.8715680310398,17.277034050168414,5.020716482682318,-0.0566,-0.9861,0.1502,0.0438
151465.0,95.516335,1.0,-0.25,1.2,-10.12,-1.69,-20.19,36.0,-10.06,20.31,4.81,0.3672834968038397,0.0007562947159899247,-0.38069520181749184,-160.80272323312002,17.36976491594495,4.4587366294239885,-0.0591,-0.986,0.151,0.0389
151500.0,95.528149,1.0,-0.49,1.52,-9.77,-1.69,-20.19,36.0,-8.94,0.81,-0.5,-0.005943165327800065,0.2030385007243768,-0.09093253544821422,-160.66576217664587,17.381357078894993,4.298191253728037,-0.0622,-0.9858,0.1511,0.0375
151537.0,95.575645,1.0,-0.16,1.28,-10.33,-3.19,-21.37,35.56,4.63,0.81,0.94,0.40642995037203455,0.02880512938969504,-0.5956038403925419,-160.73412214644492,17.427727524479447,4.183521171347446,-0.0613,-0.9859,0.1515,0.0365
151572.0,95.592907,1.0,-0.71,1.05,-9.4,-2.5,-20.56,35.56,-2.38,-1.25,-1.69,-0.11995695026400854,-0.2508575502930012,0.325654228481886,-160.80272323312002,17.358172932119437,4.263789782102698,-0.0613,-0.986,0.1509,0.0372
151607.0,95.641818,1.0,-0.64,1.15,-9.41,-2.5,-20.56,35.56,-2.88,5.5,0.56,-0.0991142413462137,-0.1597621922734902,0.3069209297010822,-160.80272323312002,17.346581127291525,4.137654318321577,-0.0624,-0.986,0.1508,0.0361
151640.0,95.70458199999999,1.0,-0.42,1.35,-9.77,-2.5,-21.69,37.25,-0.44,7.63,3.13,0.0407777331672962,0.03689431230359908,-0.06496465952745467,-160.80272323312002,17.381357078894993,3.873932556571698,-0.063,-0.986,0.1511,0.0338
151676.0,95.71953,1.0,-0.34,1.28,-9.77,-2.5,-21.37,35.25,-1.69,0.75,0.0,0.11938877185854148,-0.011816585493708232,-0.051976004137765486,-160.80272323312002,17.31180678552449,3.7592774051414257,-0.0632,-0.986,0.1505,0.0328
151711.0,95.77329399999999,1.0,-0.41,1.27,-9.66,-2.5,-21.37,35.25,-2.06,5.63,-0.19,0.023109493417802062,-0.050516945564441966,0.05505966869891488,-160.8715680310398,17.207493384994194,3.5987664920103746,-0.0641,-0.9861,0.1496,0.0314
151746.0,95.777872,1.0,-0.65,1.06,-9.29,-2.5,-21.0,36.0,-1.69,9.69,-0.69,-0.2098559936197528,-0.2941853590826643,0.4407749508418473,-160.94065918134044,17.184314583414665,3.369477361207863,-0.0647,-0.9862,0.1494,0.0294
151781.0,95.84121400000001,1.0,-0.3,1.19,-9.28,-3.19,-21.0,36.0,-1.88,22.25,5.88,-0.026912062129859984,-0.11686210989076586,0.4466222763132883,-160.8715680310398,17.288624783675054,2.6473004867786654,-0.0665,-0.9861,0.1503,0.0231
151818.0,95.849041,1.0,0.07,1.53,-10.3,-3.56,-21.69,35.25,-5.0,4.44,0.31,0.2384850220960221,0.14467439004374316,-0.6028646003596769,-160.80272323312002,17.32339805412093,2.314906939637541,-0.0682,-0.986,0.1506,0.0202
151851.0,95.91374300000001,1.0,-0.19,1.42,-9.7,-3.56,-21.69,35.25,-1.88,3.13,-0.44,-0.018318504347359533,0.023277961929542457,0.0014665458831490956,-160.80272323312002,17.288624783675054,2.269061145645111,-0.069,-0.986,0.1503,0.0198
151887.0,95.921808,1.0,-0.13,1.23,-9.81,-4.0,-21.69,35.56,4.88,-4.63,-2.75,0.10527751624306116,-0.1359690951541096,-0.0795185727958696,-160.8715680310398,17.230672895970507,2.3034454566839293,-0.0682,-0.9861,0.1498,0.0201
151922.0,95.942015,1.0,-0.32,1.04,-9.56,-4.38,-21.0,36.06,-1.5,-0.25,-3.25,-0.02349066947266837,-0.3377741625209205,0.1908839460872347,-161.00999937311443,17.114782424924247,2.372214704126748,-0.0682,-0.9863,0.1488,0.0207
151955.0,95.994787,1.0,-0.21,1.48,-9.54,-4.38,-21.0,36.06,-7.13,2.13,1.0,-0.0483519038650123,0.08244683000510232,0.15072101239788793,-160.94065918134044,17.09160645080068,2.337829975144579,-0.0698,-0.9862,0.1486,0.0204
151990.0,96.01494699999999,1.0,0.0,1.41,-9.97,-4.38,-21.37,34.75,5.25,-3.88,0.81,0.21040231561042025,0.035808234137053696,-0.26029832786747603,-160.94065918134044,17.126370676427072,2.4180613422720283,-0.0692,-0.9862,0.1489,0.0211
152027.0,96.078273,1.0,-0.3,1.23,-9.55,-3.19,-21.0,35.25,-2.19,-1.5,-2.13,-0.03252449388782214,-0.15765558895860354,0.1744390973791763,-161.07959134463854,16.96415115593626,2.521217704700676,-0.0688,-0.9864,0.1475,0.022000000000000002
152061.0,96.087423,1.0,-0.31,1.43,-9.44,-3.19,-21.0,35.25,-2.88,4.06,0.06,-0.1127245066753014,0.021027115562704424,0.2546108959130677,-161.07959134463854,16.940979741891212,2.4639083675369537,-0.0699,-0.9864,0.1473,0.0215
152096.0,96.13773499999999,1.0,-0.15,1.12,-9.81,-3.19,-21.37,35.56,0.81,7.25,0.81,0.10291292918119327,-0.2713811714408085,-0.06395085247067556,-161.21954183361512,16.859885280956842,2.1773706400327653,-0.0694,-0.9866,0.1466,0.019
152129.0,96.157735,1.0,-0.14,1.45,-9.69,-4.0,-21.37,35.56,-3.75,5.56,0.19,-0.011008303049399036,0.03694509371066845,0.00783813950820722,-161.21954183361512,16.83671699887327,2.0283765158457068,-0.0704,-0.9866,0.1464,0.0177
152164.0,96.202652,1.0,0.1,1.31,-9.99,-4.0,-21.37,34.75,1.69,7.38,0.31,0.23269816918870834,-0.07842047213262783,-0.2663784319864142,-161.21954183361512,16.813549410004512,1.7762402933693409,-0.0707,-0.9866,0.1462,0.0155
152199.0,96.25383599999999,1.0,-0.15,1.36,-9.66,-4.0,-21.37,34.75,-8.69,-0.69,-2.81,-0.025446374672493124,-0.08281560487279271,0.05061627426875148,-161.21954183361512,16.732468293463864,1.8220825674649568,-0.07200000000000001,-0.9866,0.1455,0.0159
152236.0,96.274096,1.0,-0.07,1.35,-9.6,-4.0,-21.69,34.75,-3.31,5.69,-1.63,0.041409466734321096,-0.10524151682425777,0.11259978973177807,-161.21954183361512,16.581911426258042,1.7189378496716434,-0.0742,-0.9866,0.1442,0.015
152268.0,96.291045,1.0,-0.04,1.57,-9.54,-4.38,-22.06,35.25,-2.44,1.25,0.63,-0.003391726209067636,0.09765763874059796,0.13873649801887564,-161.21954183361512,16.581911426258042,1.6501754833924644,-0.0753,-0.9866,0.1442,0.0144
152303.0,96.331065,1.0,-0.13,1.46,-9.64,-4.38,-22.06,35.25,-0.63,2.88,0.44,-0.07194319962924124,-0.0553382831561513,0.05627247651689693,-161.21954183361512,16.581911426258042,1.5355728478655368,-0.0756,-0.9866,0.1442,0.0134
