,TIME,ELAPSED_SECONDS,PSTATE,acc_x,acc_y,acc_z,mag_x,mag_y,mag_z,gyr_x,gyr_y,gyr_z,lin_x,lin_y,lin_z,eul_x,eul_y,eul_z,qua_w,qua_x,qua_y,qua_z
0,1942935.0,1874.337477,1.0,4.83,4.46,7.12,-0.37,-29.56,-31.87,0.5,1.25,1.94,-0.08105245925978277,-0.01773261413594707,0.11603515607787608,-41.158178579890034,-9.039186076064473,-107.74364009530142,-0.4667,-0.3515,-0.0788,-0.8077
1,1942935.0,1874.337477,1.0,4.83,4.46,7.12,-0.37,-29.56,-31.87,0.5,1.25,1.94,-0.08105245925978277,-0.01773261413594707,0.11603515607787608,-41.158178579890034,-9.039186076064473,-107.74364009530142,-0.4667,-0.3515,-0.0788,-0.8077
2,1942972.0,1874.3407739999998,1.0,4.91,4.43,7.19,-0.37,-29.87,-30.69,0.75,0.37,0.69,-0.04222003024305832,-0.08507227194183375,0.038329766838471,-41.145938594336435,-9.050681021579294,-107.7825204980392,-0.4664,-0.3514,-0.0789,-0.8079
3,1942972.0,1874.3407739999998,1.0,4.91,4.43,7.19,-0.37,-29.87,-30.69,0.75,0.37,0.69,-0.04222003024305832,-0.08507227194183375,0.038329766838471,-41.145938594336435,-9.050681021579294,-107.7825204980392,-0.4664,-0.3514,-0.0789,-0.8079
4,1943007.0,1874.371036,1.0,4.76,4.45,7.25,-0.37,-29.87,-30.69,-0.06,-1.94,1.56,0.03478911087538261,0.06751580602186591,0.05899226423076698,-41.19490148271794,-9.027691221695424,-107.7825204980392,-0.4662,-0.3518,-0.0787,-0.8079
5,1943007.0,1874.371036,1.0,4.76,4.45,7.25,-0.37,-29.87,-30.69,-0.06,-1.94,1.56,0.03478911087538261,0.06751580602186591,0.05899226423076698,-41.19490148271794,-9.027691221695424,-107.7825204980392,-0.4662,-0.3518,-0.0787,-0.8079
6,1943040.0,1874.4087149999998,1.0,4.95,4.5,6.86,-0.37,-29.56,-31.5,1.25,-0.06,0.63,-0.3023150270400648,-0.1334219911332868,0.23048666614297095,-41.24387223496928,-9.050681021579294,-107.7825204980392,-0.4658,-0.3522,-0.0789,-0.8079
7,1943040.0,1874.4087149999998,1.0,4.95,4.5,6.86,-0.37,-29.56,-31.5,1.25,-0.06,0.63,-0.3023150270400648,-0.1334219911332868,0.23048666614297095,-41.24387223496928,-9.050681021579294,-107.7825204980392,-0.4658,-0.3522,-0.0789,-0.8079
8,1943076.0,1874.484727,1.0,5.03,4.84,7.17,0.69,-29.87,-31.5,1.0,-3.19,1.06,-0.34790497387497626,0.06413455247445699,-0.1938624312873092,-41.36633360366066,-9.039186076064473,-107.72420666963673,-0.4656,-0.3532,-0.0788,-0.8076
9,1943076.0,1874.484727,1.0,5.03,4.84,7.17,0.69,-29.87,-31.5,1.0,-3.19,1.06,-0.34790497387497626,0.06413455247445699,-0.1938624312873092,-41.36633360366066,-9.039186076064473,-107.72420666963673,-0.4656,-0.3532,-0.0788,-0.8076
10,1943111.0,1874.534814,1.0,5.41,5.28,7.1,-0.37,-28.37,-31.06,6.25,-6.56,-1.44,-0.7678525399620724,0.002023709930641715,-0.5358302818991127,-41.66044293714295,-9.096661717453259,-107.54950844448109,-0.4653,-0.3556,-0.0793,-0.8067
11,1943111.0,1874.534814,1.0,5.41,5.28,7.1,-0.37,-28.37,-31.06,6.25,-6.56,-1.44,-0.7678525399620724,0.002023709930641715,-0.5358302818991127,-41.66044293714295,-9.096661717453259,-107.54950844448109,-0.4653,-0.3556,-0.0793,-0.8067
12,1943146.0,1874.5419379999998,1.0,6.98,5.18,7.13,-0.37,-28.37,-31.06,14.5,-9.88,-11.0,-1.0723361905527482,-1.3254005313235633,-1.3056453761137077,-42.0775906009399,-9.3380846266553,-107.1625852400296,-0.4657,-0.359,-0.0814,-0.8047
13,1943146.0,1874.5419379999998,1.0,6.98,5.18,7.13,-0.37,-28.37,-31.06,14.5,-9.88,-11.0,-1.0723361905527482,-1.3254005313235633,-1.3056453761137077,-42.0775906009399,-9.3380846266553,-107.1625852400296,-0.4657,-0.359,-0.0814,-0.8047
14,1943181.0,1874.579331,1.0,8.21,5.57,7.2,-0.37,-31.06,-31.5,11.31,-47.75,-24.31,-1.4035839258044247,-2.095712868188752,-2.189471862390844,-43.18464974314042,-9.464560757916416,-105.76506603938064,-0.4711,-0.368,-0.0825,-0.7974
15,1943181.0,1874.579331,1.0,8.21,5.57,7.2,-0.37,-31.06,-31.5,11.31,-47.75,-24.31,-1.4035839258044247,-2.095712868188752,-2.189471862390844,-43.18464974314042,-9.464560757916416,-105.76506603938064,-0.4711,-0.368,-0.0825,-0.7974
16,1943218.0,1874.6053359999999,1.0,9.58,8.39,8.2,-0.37,-29.87,-30.25,-13.75,-80.81,-31.37,-2.7407781423659046,-1.3011415628027176,-5.032610958951988,-44.77888374446125,-8.717364176475899,-103.99799847995277,-0.4777,-0.3809,-0.076,-0.7879999999999999
17,1943218.0,1874.6053359999999,1.0,9.58,8.39,8.2,-0.37,-29.87,-30.25,-13.75,-80.81,-31.37,-2.7407781423659046,-1.3011415628027176,-5.032610958951988,-44.77888374446125,-8.717364176475899,-103.99799847995277,-0.4777,-0.3809,-0.076,-0.7879999999999999
18,1943250.0,1874.6218030000002,1.0,9.7,6.89,8.31,-0.37,-29.87,-30.25,12.75,-112.19,-59.19,-0.8140943135559727,-1.875161440335788,-4.5613429016308205,-48.258949886108525,-7.660420468145224,-99.77840482252957,-0.4935,-0.4088,-0.0668,-0.7648
19,1943250.0,1874.6218030000002,1.0,9.7,6.89,8.31,-0.37,-29.87,-30.25,12.75,-112.19,-59.19,-0.8140943135559727,-1.875161440335788,-4.5613429016308205,-48.258949886108525,-7.660420468145224,-99.77840482252957,-0.4935,-0.4088,-0.0668,-0.7648
20,1943287.0,1874.678484,1.0,8.41,5.98,8.56,-2.56,-30.25,-29.87,21.44,-145.69,-25.0,0.9225760303499192,-0.7087675829174858,-3.550318293053225,-51.901703351821595,-6.569694717687418,-96.4901268036236,-0.4987,-0.4376,-0.0573,-0.746
21,1943287.0,1874.678484,1.0,8.41,5.98,8.56,-2.56,-30.25,-29.87,21.44,-145.69,-25.0,0.9225760303499192,-0.7087675829174858,-3.550318293053225,-51.901703351821595,-6.569694717687418,-96.4901268036236,-0.4987,-0.4376,-0.0573,-0.746
22,1943324.0,1874.7226670000002,1.0,7.66,5.78,8.44,-4.5,-31.37,-29.87,50.0,-144.63,-50.19,2.0375678016187595,0.4379609044492074,-2.801843474637664,-57.26633156409672,-5.376316314590642,-91.49968085011842,-0.505,-0.4792,-0.0469,-0.7163
23,1943324.0,1874.7226670000002,1.0,7.66,5.78,8.44,-4.5,-31.37,-29.87,50.0,-144.63,-50.19,2.0375678016187595,0.4379609044492074,-2.801843474637664,-57.26633156409672,-5.376316314590642,-91.49968085011842,-0.505,-0.4792,-0.0469,-0.7163
24,1943359.0,1874.74023,1.0,7.07,1.98,7.28,-4.5,-31.37,-29.87,62.75,-124.44,-34.44,4.432964671134714,-1.0563520632772174,0.5256670486698134,-61.31433804552232,-5.318958088351593,-87.79970924377666,-0.507,-0.5099,-0.0464,-0.6934
25,1943359.0,1874.74023,1.0,7.07,1.98,7.28,-4.5,-31.37,-29.87,62.75,-124.44,-34.44,4.432964671134714,-1.0563520632772174,0.5256670486698134,-61.31433804552232,-5.318958088351593,-87.79970924377666,-0.507,-0.5099,-0.0464,-0.6934
26,1943394.0,1874.795204,1.0,6.15,4.01,5.36,-8.19,-31.25,-28.37,26.81,-109.31,-16.75,2.1616024485032743,0.1993551192561125,0.9794232332826632,-65.70797477306883,-4.3669953627837845,-84.1804463370788,-0.5049,-0.5425,-0.0381,-0.6703
27,1943394.0,1874.795204,1.0,6.15,4.01,5.36,-8.19,-31.25,-28.37,26.81,-109.31,-16.75,2.1616024485032743,0.1993551192561125,0.9794232332826632,-65.70797477306883,-4.3669953627837845,-84.1804463370788,-0.5049,-0.5425,-0.0381,-0.6703
28,1943429.0,1874.8362300000001,1.0,5.88,3.93,4.74,-10.38,-32.75,-26.25,27.0,-91.19,-30.37,2.1535393044311397,0.3408052409108231,1.5766426942901217,-69.22175419689292,-3.851001219583861,-80.72179122194791,-0.5068,-0.568,-0.0336,-0.6476
29,1943429.0,1874.8362300000001,1.0,5.88,3.93,4.74,-10.38,-32.75,-26.25,27.0,-91.19,-30.37,2.1535393044311397,0.3408052409108231,1.5766426942901217,-69.22175419689292,-3.851001219583861,-80.72179122194791,-0.5068,-0.568,-0.0336,-0.6476
30,1943465.0,1874.849095,1.0,6.4,5.23,3.67,-12.25,-34.0,-25.19,16.81,-78.06,-10.13,0.8820767752975559,0.22991069481540105,0.809379211872626,-71.3377536515333,-3.369477361207863,-78.70653013539808,-0.5071,-0.5831,-0.0294,-0.6341
31,1943465.0,1874.849095,1.0,6.4,5.23,3.67,-12.25,-34.0,-25.19,16.81,-78.06,-10.13,0.8820767752975559,0.22991069481540105,0.809379211872626,-71.3377536515333,-3.369477361207863,-78.70653013539808,-0.5071,-0.5831,-0.0294,-0.6341
32,1943500.0,1874.904434,1.0,6.5,7.22,2.49,-12.25,-34.0,-25.19,11.38,-65.87,-24.81,-0.8632728788275637,0.6410527760092002,-0.16442372728993782,-73.7541199081015,-2.8192367490322434,-76.12198798415724,-0.5092,-0.6001,-0.0246,-0.6165
33,1943500.0,1874.904434,1.0,6.5,7.22,2.49,-12.25,-34.0,-25.19,11.38,-65.87,-24.81,-0.8632728788275637,0.6410527760092002,-0.16442372728993782,-73.7541199081015,-2.8192367490322434,-76.12198798415724,-0.5092,-0.6001,-0.0246,-0.6165
34,1943537.0,1874.9228649999998,1.0,7.43,5.66,1.45,-14.19,-33.5,-23.69,32.88,-63.81,-43.38,-0.11823470309987,-1.2679923529310897,0.4406895074562058,-75.72955562090883,-3.163128706652845,-73.82576315428821,-0.5117,-0.6138,-0.0276,-0.6006
35,1943537.0,1874.9228649999998,1.0,7.43,5.66,1.45,-14.19,-33.5,-23.69,32.88,-63.81,-43.38,-0.11823470309987,-1.2679923529310897,0.4406895074562058,-75.72955562090883,-3.163128706652845,-73.82576315428821,-0.5117,-0.6138,-0.0276,-0.6006
36,1943574.0,1874.967657,1.0,8.88,5.89,0.24,-14.88,-35.38,-22.5,25.25,-97.75,-13.38,-0.2111936696765806,-2.5519699145479176,-0.5396994426358326,-78.89931607211645,-2.8536247508829486,-70.87295386927123,-0.5094,-0.6354,-0.0249,-0.5798
37,1943574.0,1874.967657,1.0,8.88,5.89,0.24,-14.88,-35.38,-22.5,25.25,-97.75,-13.38,-0.2111936696765806,-2.5519699145479176,-0.5396994426358326,-78.89931607211645,-2.8536247508829486,-70.87295386927123,-0.5094,-0.6354,-0.0249,-0.5798
38,1943609.0,1875.029672,1.0,8.9,6.98,-0.87,-14.88,-35.38,-22.5,32.38,-149.06,-19.56,-1.0608467798514172,-2.3948613245647734,-1.230856210452739,-82.24939344216158,-1.6730962049034406,-67.53166897221763,-0.5082,-0.6577,-0.0146,-0.5558
39,1943609.0,1875.029672,1.0,8.9,6.98,-0.87,-14.88,-35.38,-22.5,32.38,-149.06,-19.56,-1.0608467798514172,-2.3948613245647734,-1.230856210452739,-82.24939344216158,-1.6730962049034406,-67.53166897221763,-0.5082,-0.6577,-0.0146,-0.5558
40,1943644.0,1875.0476370000001,1.0,7.06,6.49,0.55,-15.56,-35.69,-18.56,48.06,-190.56,7.63,0.35561905366822233,0.09615041139825388,0.20818709247902234,-88.62957889033545,0.6646347687728765,-61.78113721204743,-0.4984,-0.6986,0.0058,-0.5134
41,1943644.0,1875.0476370000001,1.0,7.06,6.49,0.55,-15.56,-35.69,-18.56,48.06,-190.56,7.63,0.35561905366822233,0.09615041139825388,0.20818709247902234,-88.62957889033545,0.6646347687728765,-61.78113721204743,-0.4984,-0.6986,0.0058,-0.5134
42,1943678.0,1875.08717,1.0,6.97,6.59,-0.26,-19.06,-36.0,-15.75,55.0,-176.31,7.94,0.2218684674562601,0.2342598916593848,0.2164207698768568,-93.40455194632291,2.7619239753850606,-57.61913540426363,-0.4872,-0.7278,0.0241,-0.4819
43,1943678.0,1875.08717,1.0,6.97,6.59,-0.26,-19.06,-36.0,-15.75,55.0,-176.31,7.94,0.2218684674562601,0.2342598916593848,0.2164207698768568,-93.40455194632291,2.7619239753850606,-57.61913540426363,-0.4872,-0.7278,0.0241,-0.4819
44,1943715.0,1875.109514,1.0,7.64,6.93,-1.79,-20.69,-36.25,-12.75,50.44,-204.06,8.06,0.2316792932613584,-0.13171674595350202,-0.6588922890507369,-99.8317785547328,5.4336758888612415,-51.723352699323634,-0.4713,-0.7651,0.0474,-0.4362
45,1943715.0,1875.109514,1.0,7.64,6.93,-1.79,-20.69,-36.25,-12.75,50.44,-204.06,8.06,0.2316792932613584,-0.13171674595350202,-0.6588922890507369,-99.8317785547328,5.4336758888612415,-51.723352699323634,-0.4713,-0.7651,0.0474,-0.4362
46,1943750.0,1875.147498,1.0,4.36,6.04,0.13,-20.69,-36.25,-12.75,75.69,-238.25,39.25,0.2636143869008378,2.7911914350026885,2.9039072242487163,-107.627107150319,9.384074619875276,-44.85325420187507,-0.44299999999999995,-0.8071,0.0818,-0.3815
47,1943750.0,1875.147498,1.0,4.36,6.04,0.13,-20.69,-36.25,-12.75,75.69,-238.25,39.25,0.2636143869008378,2.7911914350026885,2.9039072242487163,-107.627107150319,9.384074619875276,-44.85325420187507,-0.44299999999999995,-0.8071,0.0818,-0.3815
48,1943787.0,1875.156473,1.0,4.07,5.94,-1.86,-22.06,-35.88,-5.5,47.13,-165.88,32.5,-0.7046251820998458,1.7414454554014074,2.6108893676128586,-112.11534046927385,12.100425506938455,-40.73006975326216,-0.4238,-0.8296,0.1054,-0.348
49,1943787.0,1875.156473,1.0,4.07,5.94,-1.86,-22.06,-35.88,-5.5,47.13,-165.88,32.5,-0.7046251820998458,1.7414454554014074,2.6108893676128586,-112.11534046927385,12.100425506938455,-40.73006975326216,-0.4238,-0.8296,0.1054,-0.348
50,1943824.0,1875.221632,1.0,5.07,5.93,-3.48,-24.5,-35.19,1.25,46.5,-147.69,27.81,-0.3554493108424092,1.0124660577807971,1.33146455841446,-116.77224597329428,14.835175731606341,-36.29930145114271,-0.4012,-0.8516,0.1291,-0.3115
51,1943824.0,1875.221632,1.0,5.07,5.93,-3.48,-24.5,-35.19,1.25,46.5,-147.69,27.81,-0.3554493108424092,1.0124660577807971,1.33146455841446,-116.77224597329428,14.835175731606341,-36.29930145114271,-0.4012,-0.8516,0.1291,-0.3115
52,1943859.0,1875.2386219999999,1.0,4.04,4.67,-3.04,-24.5,-35.19,1.25,59.06,-148.94,45.94,-0.1600607657735792,1.0376905753244725,3.0044680837952624,-120.50027377126791,16.97573712493423,-33.105742400688804,-0.3786,-0.8682,0.1476,-0.2849
53,1943859.0,1875.2386219999999,1.0,4.04,4.67,-3.04,-24.5,-35.19,1.25,59.06,-148.94,45.94,-0.1600607657735792,1.0376905753244725,3.0044680837952624,-120.50027377126791,16.97573712493423,-33.105742400688804,-0.3786,-0.8682,0.1476,-0.2849
54,1943891.0,1875.2805010000002,1.0,2.98,5.86,-3.84,-23.87,-33.69,6.5,20.37,-123.44,40.13,-1.6767236021788507,1.5851368982155098,2.551201083784539,-123.52645816564731,19.971122857066124,-29.357596603435567,-0.3598,-0.8809999999999999,0.1734,-0.2534
55,1943891.0,1875.2805010000002,1.0,2.98,5.86,-3.84,-23.87,-33.69,6.5,20.37,-123.44,40.13,-1.6767236021788507,1.5851368982155098,2.551201083784539,-123.52645816564731,19.971122857066124,-29.357596603435567,-0.3598,-0.8809999999999999,0.1734,-0.2534
56,1943928.0,1875.3324260000002,1.0,3.38,5.03,-5.09,-24.87,-32.5,9.38,17.81,-87.06,4.5,-1.1453214908074203,0.3915450010167838,1.985631447734992,-125.24598763170715,21.08910064572278,-27.112514953816074,-0.3507,-0.888,0.183,-0.2344
57,1943928.0,1875.3324260000002,1.0,3.38,5.03,-5.09,-24.87,-32.5,9.38,17.81,-87.06,4.5,-1.1453214908074203,0.3915450010167838,1.985631447734992,-125.24598763170715,21.08910064572278,-27.112514953816074,-0.3507,-0.888,0.183,-0.2344
58,1943965.0,1875.347325,1.0,3.82,4.23,-5.73,-23.69,-30.87,11.75,31.31,-77.44,20.25,-0.3324161986493185,-0.20598997189190627,1.7341492968501058,-127.3259688536123,22.39598723123728,-24.596436196111345,-0.3371,-0.8962,0.1942,-0.213
59,1943965.0,1875.347325,1.0,3.82,4.23,-5.73,-23.69,-30.87,11.75,31.31,-77.44,20.25,-0.3324161986493185,-0.20598997189190627,1.7341492968501058,-127.3259688536123,22.39598723123728,-24.596436196111345,-0.3371,-0.8962,0.1942,-0.213
60,1944000.0,1875.393571,1.0,4.08,4.12,-6.24,-23.69,-30.87,11.75,6.56,-74.25,33.56,-0.017637708944476138,-0.2594729162666773,1.2924992662540171,-128.55324310023371,24.31503217113493,-22.501130743263236,-0.3254,-0.9009,0.2106,-0.1951
61,1944000.0,1875.393571,1.0,4.08,4.12,-6.24,-23.69,-30.87,11.75,6.56,-74.25,33.56,-0.017637708944476138,-0.2594729162666773,1.2924992662540171,-128.55324310023371,24.31503217113493,-22.501130743263236,-0.3254,-0.9009,0.2106,-0.1951
62,1944037.0,1875.410214,1.0,3.88,4.71,-6.52,-23.5,-29.75,14.69,-0.25,-56.19,32.19,-0.4530365641321881,0.07520124431358788,0.8882419220741546,-128.87098138309108,25.758842544663853,-21.21732993545333,-0.3203,-0.9021,0.2229,-0.1841
63,1944037.0,1875.410214,1.0,3.88,4.71,-6.52,-23.5,-29.75,14.69,-0.25,-56.19,32.19,-0.4530365641321881,0.07520124431358788,0.8882419220741546,-128.87098138309108,25.758842544663853,-21.21732993545333,-0.3203,-0.9021,0.2229,-0.1841
64,1944072.0,1875.467173,1.0,4.01,4.94,-6.78,-23.56,-30.19,15.25,-2.0,-47.69,24.06,-0.4107421099906389,0.2671241466202345,0.5216063485477971,-128.97730409708814,27.466273808985672,-19.73845598070809,-0.3157,-0.9025,0.2374,-0.1714
65,1944072.0,1875.467173,1.0,4.01,4.94,-6.78,-23.56,-30.19,15.25,-2.0,-47.69,24.06,-0.4107421099906389,0.2671241466202345,0.5216063485477971,-128.97730409708814,27.466273808985672,-19.73845598070809,-0.3157,-0.9025,0.2374,-0.1714
66,1944107.0,1875.506405,1.0,3.28,4.5,-6.6,-23.56,-30.19,15.25,-3.94,-38.44,20.69,-0.6714261585641518,-0.06779144716616381,1.1977597559971829,-129.0571819857357,28.387306821530828,-18.773754707559725,-0.3132,-0.9028,0.2452,-0.1631
67,1944107.0,1875.506405,1.0,3.28,4.5,-6.6,-23.56,-30.19,15.25,-3.94,-38.44,20.69,-0.6714261585641518,-0.06779144716616381,1.1977597559971829,-129.0571819857357,28.387306821530828,-18.773754707559725,-0.3132,-0.9028,0.2452,-0.1631
68,1944141.0,1875.513967,1.0,3.75,4.69,-7.28,-23.06,-29.06,16.0,-6.13,-25.25,22.69,-0.4380614840962481,-0.1437930862905108,0.3809178966307076,-128.71188283967422,29.72497078004789,-17.972797887176398,-0.3117,-0.9015,0.2565,-0.1562
69,1944141.0,1875.513967,1.0,3.75,4.69,-7.28,-23.06,-29.06,16.0,-6.13,-25.25,22.69,-0.4380614840962481,-0.1437930862905108,0.3809178966307076,-128.71188283967422,29.72497078004789,-17.972797887176398,-0.3117,-0.9015,0.2565,-0.1562
70,1944176.0,1875.5754399999998,1.0,3.75,5.03,-7.32,-23.5,-29.06,17.69,-5.88,-17.75,17.12,-0.6133467825090919,0.08475620875834311,0.18571334552281196,-128.31613447366578,30.61508221704001,-17.49728858817925,-0.3116,-0.9,0.264,-0.1521
71,1944176.0,1875.5754399999998,1.0,3.75,5.03,-7.32,-23.5,-29.06,17.69,-5.88,-17.75,17.12,-0.6133467825090919,0.08475620875834311,0.18571334552281196,-128.31613447366578,30.61508221704001,-17.49728858817925,-0.3116,-0.9,0.264,-0.1521
72,1944213.0,1875.5846579999998,1.0,3.66,4.78,-7.25,-23.19,-29.06,16.5,-8.0,-15.63,7.31,-0.4907847394549315,-0.050237923504693686,0.39585266446247935,-128.10621848828742,31.233335490801053,-16.97573712493423,-0.3119,-0.8992,0.2692,-0.1476
73,1944213.0,1875.5846579999998,1.0,3.66,4.78,-7.25,-23.19,-29.06,16.5,-8.0,-15.63,7.31,-0.4907847394549315,-0.050237923504693686,0.39585266446247935,-128.10621848828742,31.233335490801053,-16.97573712493423,-0.3119,-0.8992,0.2692,-0.1476
74,1944248.0,1875.641544,1.0,3.62,5.19,-7.54,-23.19,-29.06,16.5,-9.19,-9.44,14.38,-0.7461207091313793,0.015310946478770847,-0.008398113092631831,-127.87100362286014,31.64999191142923,-16.581911426258042,-0.313,-0.8983,0.2727,-0.1442
75,1944248.0,1875.641544,1.0,3.62,5.19,-7.54,-23.19,-29.06,16.5,-9.19,-9.44,14.38,-0.7461207091313793,0.015310946478770847,-0.008398113092631831,-127.87100362286014,31.64999191142923,-16.581911426258042,-0.313,-0.8983,0.2727,-0.1442
76,1944285.0,1875.658949,1.0,3.14,5.26,-7.29,-23.5,-29.06,16.56,-5.69,-6.81,2.88,-1.134139450737957,0.013647915653833831,0.352294313826663,-127.5070627749377,32.162473260424385,-16.29245975343786,-0.3142,-0.8969,0.27699999999999997,-0.1417
77,1944285.0,1875.658949,1.0,3.14,5.26,-7.29,-23.5,-29.06,16.56,-5.69,-6.81,2.88,-1.134139450737957,0.013647915653833831,0.352294313826663,-127.5070627749377,32.162473260424385,-16.29245975343786,-0.3142,-0.8969,0.27699999999999997,-0.1417
78,1944320.0,1875.6964899999998,1.0,3.4,4.83,-7.58,-23.87,-28.69,17.37,-0.69,-2.56,-3.69,-0.6705281283408497,-0.35265527819661546,0.22691481139150585,-127.40350962041992,32.2936788968098,-16.10726571114575,-0.315,-0.8965,0.2781,-0.1401
79,1944320.0,1875.6964899999998,1.0,3.4,4.83,-7.58,-23.87,-28.69,17.37,-0.69,-2.56,-3.69,-0.6705281283408497,-0.35265527819661546,0.22691481139150585,-127.40350962041992,32.2936788968098,-16.10726571114575,-0.315,-0.8965,0.2781,-0.1401
80,1944354.0,1875.7629579999998,1.0,3.52,4.85,-7.4,-23.87,-28.69,17.37,2.5,2.31,2.25,-0.5772668719275253,-0.15316112543447868,0.3031661846704505,-127.5070627749377,32.305608836158264,-16.10726571114575,-0.3139,-0.8969,0.2782,-0.1401
81,1944354.0,1875.7629579999998,1.0,3.52,4.85,-7.4,-23.87,-28.69,17.37,2.5,2.31,2.25,-0.5772668719275253,-0.15316112543447868,0.3031661846704505,-127.5070627749377,32.305608836158264,-16.10726571114575,-0.3139,-0.8969,0.2782,-0.1401
82,1944389.0,1875.7806690000002,1.0,4.01,5.19,-7.85,-23.5,-27.87,18.19,-0.06,4.31,-3.88,-0.4286376737366111,-0.0336163734784507,-0.4136161258935793,-127.37765090836372,32.38912849332685,-16.16513427708501,-0.3144,-0.8964,0.2789,-0.1406
83,1944389.0,1875.7806690000002,1.0,4.01,5.19,-7.85,-23.5,-27.87,18.19,-0.06,4.31,-3.88,-0.4286376737366111,-0.0336163734784507,-0.4136161258935793,-127.37765090836372,32.38912849332685,-16.16513427708501,-0.3144,-0.8964,0.2789,-0.1406
84,1944426.0,1875.8194839999999,1.0,3.56,4.31,-7.5,-22.0,-28.69,17.37,3.69,2.75,-11.06,-0.2306814204505394,-0.5572649911973113,0.4719865453357244,-127.68873899317936,31.98362621241675,-16.17670848781425,-0.314,-0.8976,0.2755,-0.1407
85,1944426.0,1875.8194839999999,1.0,3.56,4.31,-7.5,-22.0,-28.69,17.37,3.69,2.75,-11.06,-0.2306814204505394,-0.5572649911973113,0.4719865453357244,-127.68873899317936,31.98362621241675,-16.17670848781425,-0.314,-0.8976,0.2755,-0.1407
86,1944461.0,1875.883695,1.0,3.81,4.24,-7.5,-22.0,-28.69,17.37,1.56,7.69,-5.5,0.008493269156328642,-0.5093246880812807,0.400045074391084,-127.84492955883974,31.697637029521523,-16.29245975343786,-0.314,-0.8982,0.2731,-0.1417
87,1944461.0,1875.883695,1.0,3.81,4.24,-7.5,-22.0,-28.69,17.37,1.56,7.69,-5.5,0.008493269156328642,-0.5093246880812807,0.400045074391084,-127.84492955883974,31.697637029521523,-16.29245975343786,-0.314,-0.8982,0.2731,-0.1417
88,1944494.0,1875.8914519999998,1.0,4.24,4.83,-7.83,-22.5,-28.56,16.56,-3.88,7.69,-6.88,-0.030179318345484263,-0.2218746009197794,-0.3208008574572165,-127.71474062830828,31.459467480314125,-16.5471716366683,-0.3161,-0.8977,0.2711,-0.1439
89,1944494.0,1875.8914519999998,1.0,4.24,4.83,-7.83,-22.5,-28.56,16.56,-3.88,7.69,-6.88,-0.030179318345484263,-0.2218746009197794,-0.3208008574572165,-127.71474062830828,31.459467480314125,-16.5471716366683,-0.3161,-0.8977,0.2711,-0.1439
90,1944528.0,1875.909668,1.0,4.08,4.9,-7.65,-23.5,-28.56,16.56,1.69,-0.63,-8.0,-0.1675129230782768,-0.13432510058126912,-0.14989539425978116,-127.7407542896587,31.376141122007805,-16.489275388774946,-0.3168,-0.8978,0.2704,-0.1434
91,1944528.0,1875.909668,1.0,4.08,4.9,-7.65,-23.5,-28.56,16.56,1.69,-0.63,-8.0,-0.1675129230782768,-0.13432510058126912,-0.14989539425978116,-127.7407542896587,31.376141122007805,-16.489275388774946,-0.3168,-0.8978,0.2704,-0.1434
92,1944565.0,1875.951117,1.0,3.87,4.46,-7.41,-23.5,-29.0,17.37,3.31,2.81,-2.13,-0.06539187262715329,-0.3255021999481875,0.3374170732617827,-127.89708982203928,31.292831778140112,-16.489275388774946,-0.3155,-0.8984,0.2697,-0.1434
93,1944565.0,1875.951117,1.0,3.87,4.46,-7.41,-23.5,-29.0,17.37,3.31,2.81,-2.13,-0.06539187262715329,-0.3255021999481875,0.3374170732617827,-127.89708982203928,31.292831778140112,-16.489275388774946,-0.3155,-0.8984,0.2697,-0.1434
94,1944600.0,1876.007198,1.0,4.22,4.54,-7.71,-23.5,-29.0,17.37,6.31,2.81,-4.38,0.13587532782755618,-0.3084846681804119,-0.08023399369514905,-128.1324147334415,31.078685498016352,-16.59349169701811,-0.3141,-0.8993,0.2679,-0.1443
95,1944600.0,1876.007198,1.0,4.22,4.54,-7.71,-23.5,-29.0,17.37,6.31,2.81,-4.38,0.13587532782755618,-0.3084846681804119,-0.08023399369514905,-128.1324147334415,31.078685498016352,-16.59349169701811,-0.3141,-0.8993,0.2679,-0.1443
96,1944637.0,1876.026234,1.0,4.2,4.58,-7.78,-22.75,-28.56,16.69,6.06,-0.44,-4.0,0.08782930154038926,-0.3147989915030172,-0.14513313714379805,-128.2635811405088,30.99543647635929,-16.605072138436235,-0.313,-0.8998,0.2672,-0.1444
97,1944637.0,1876.026234,1.0,4.2,4.58,-7.78,-22.75,-28.56,16.69,6.06,-0.44,-4.0,0.08782930154038926,-0.3147989915030172,-0.14513313714379805,-128.2635811405088,30.99543647635929,-16.605072138436235,-0.313,-0.8998,0.2672,-0.1444
98,1944672.0,1876.0696329999998,1.0,3.8,4.29,-7.38,-23.06,-29.69,17.37,1.69,1.94,-5.06,-0.030126639191337845,-0.3930791648736141,0.4710685421713929,-128.44773606463812,30.86465043933479,-16.59349169701811,-0.3123,-0.9005,0.2661,-0.1443
99,1944672.0,1876.0696329999998,1.0,3.8,4.29,-7.38,-23.06,-29.69,17.37,1.69,1.94,-5.06,-0.030126639191337845,-0.3930791648736141,0.4710685421713929,-128.44773606463812,30.86465043933479,-16.59349169701811,-0.3123,-0.9005,0.2661,-0.1443
100,1944705.0,1876.0891829999998,1.0,4.02,4.46,-7.6,-23.06,-29.69,17.37,-4.44,6.75,-2.75,0.02311503300994844,-0.368434658767796,0.1280281147589175,-128.39505791682004,30.686372188368548,-16.744050792597328,-0.3135,-0.9003,0.2646,-0.1456
101,1944705.0,1876.0891829999998,1.0,4.02,4.46,-7.6,-23.06,-29.69,17.37,-4.44,6.75,-2.75,0.02311503300994844,-0.368434658767796,0.1280281147589175,-128.39505791682004,30.686372188368548,-16.744050792597328,-0.3135,-0.9003,0.2646,-0.1456
102,1944739.0,1876.13359,1.0,4.16,4.6,-7.83,-22.37,-29.25,17.06,0.88,3.63,-2.25,0.02893848514548736,-0.387996491927654,-0.17448827608501286,-128.39505791682004,30.555683180576786,-16.848301053200124,-0.3141,-0.9003,0.2635,-0.1465
103,1944739.0,1876.13359,1.0,4.16,4.6,-7.83,-22.37,-29.25,17.06,0.88,3.63,-2.25,0.02893848514548736,-0.387996491927654,-0.17448827608501286,-128.39505791682004,30.555683180576786,-16.848301053200124,-0.3141,-0.9003,0.2635,-0.1465
104,1944776.0,1876.1903739999998,1.0,3.93,4.58,-7.37,-22.37,-28.56,17.5,-1.94,4.94,0.44,-0.11479491556549325,-0.19850766120169092,0.2837503976832476,-128.3424298098244,30.54380438300529,-16.929394296591493,-0.3141,-0.9001,0.2634,-0.1472
105,1944776.0,1876.1903739999998,1.0,3.93,4.58,-7.37,-22.37,-28.56,17.5,-1.94,4.94,0.44,-0.11479491556549325,-0.19850766120169092,0.2837503976832476,-128.3424298098244,30.54380438300529,-16.929394296591493,-0.3141,-0.9001,0.2634,-0.1472
106,1944811.0,1876.2078219999999,1.0,4.01,4.7,-7.67,-22.37,-28.56,17.5,-5.13,6.19,-2.81,-0.1545846810805015,-0.3133850609056124,-0.0359560258437881,-128.2635811405088,30.44878609284871,-17.045256614539127,-0.3154,-0.8998,0.2626,-0.1482
107,1944811.0,1876.2078219999999,1.0,4.01,4.7,-7.67,-22.37,-28.56,17.5,-5.13,6.19,-2.81,-0.1545846810805015,-0.3133850609056124,-0.0359560258437881,-128.2635811405088,30.44878609284871,-17.045256614539127,-0.3154,-0.8998,0.2626,-0.1482
108,1944846.0,1876.246609,1.0,3.95,4.5,-7.72,-23.06,-29.0,17.5,-0.5,3.69,-0.94,-0.0962014880077604,-0.5087528252775484,0.05048190814768638,-128.23732310544656,30.413159765182687,-17.068431181009654,-0.3157,-0.8997,0.2623,-0.1484
109,1944846.0,1876.246609,1.0,3.95,4.5,-7.72,-23.06,-29.0,17.5,-0.5,3.69,-0.94,-0.0962014880077604,-0.5087528252775484,0.05048190814768638,-128.23732310544656,30.413159765182687,-17.068431181009654,-0.3157,-0.8997,0.2623,-0.1484
110,1944879.0,1876.254762,1.0,4.05,4.68,-7.57,-23.06,-29.0,16.19,-3.75,4.81,0.19,-0.10899983966071536,-0.26172588970253274,0.032734786861848164,-128.1586232989387,30.48441543516209,-17.103194349757633,-0.316,-0.8994,0.2629,-0.1487
111,1944879.0,1876.254762,1.0,4.05,4.68,-7.57,-23.06,-29.0,16.19,-3.75,4.81,0.19,-0.10899983966071536,-0.26172588970253274,0.032734786861848164,-128.1586232989387,30.48441543516209,-17.103194349757633,-0.316,-0.8994,0.2629,-0.1487
112,1944915.0,1876.32254,1.0,3.92,4.67,-7.45,-23.06,-29.0,17.06,-4.75,7.06,-3.75,-0.19703771497274825,-0.27287641683487474,0.18560459942040985,-128.0277034878583,30.425034873037013,-17.161136490218524,-0.3175,-0.8989,0.2624,-0.1492
113,1944915.0,1876.32254,1.0,3.92,4.67,-7.45,-23.06,-29.0,17.06,-4.75,7.06,-3.75,-0.19703771497274825,-0.27287641683487474,0.18560459942040985,-128.0277034878583,30.425034873037013,-17.161136490218524,-0.3175,-0.8989,0.2624,-0.1492
114,1944948.0,1876.341376,1.0,4.5,4.88,-7.79,-23.06,-29.0,17.06,-2.75,2.94,-0.63,0.1226151234159436,-0.16569641801727375,-0.4259454785951515,-127.94929869917114,30.34191613696452,-17.230672895970507,-0.3187,-0.8986,0.2617,-0.1498
115,1944948.0,1876.341376,1.0,4.5,4.88,-7.79,-23.06,-29.0,17.06,-2.75,2.94,-0.63,0.1226151234159436,-0.16569641801727375,-0.4259454785951515,-127.94929869917114,30.34191613696452,-17.230672895970507,-0.3187,-0.8986,0.2617,-0.1498
116,1944987.0,1876.3874879999998,1.0,4.25,4.74,-7.69,-23.06,-29.0,17.87,-0.25,0.88,-2.06,0.0008425288405286003,-0.29220100089022605,-0.17236888289745167,-127.89708982203928,30.377536447956228,-17.26544349477142,-0.3189,-0.8984,0.262,-0.1501
117,1944987.0,1876.3874879999998,1.0,4.25,4.74,-7.69,-23.06,-29.0,17.87,-0.25,0.88,-2.06,0.0008425288405286003,-0.29220100089022605,-0.17236888289745167,-127.89708982203928,30.377536447956228,-17.26544349477142,-0.3189,-0.8984,0.262,-0.1501
118,1945020.0,1876.404802,1.0,4.1,4.69,-7.46,-23.06,-29.25,17.37,-1.37,0.69,-2.5,-0.060310704556720725,-0.23148511646308245,0.09065919824581492,-127.92318817469021,30.34191613696452,-17.219083051744406,-0.319,-0.8985,0.2617,-0.1497
119,1945020.0,1876.404802,1.0,4.1,4.69,-7.46,-23.06,-29.25,17.37,-1.37,0.69,-2.5,-0.060310704556720725,-0.23148511646308245,0.09065919824581492,-127.92318817469021,30.34191613696452,-17.219083051744406,-0.319,-0.8985,0.2617,-0.1497
120,1945055.0,1876.4437510000002,1.0,4.05,4.71,-7.48,-23.06,-29.25,17.37,-1.19,2.5,-2.81,-0.1021722916745076,-0.2592756162580709,0.08763065761632483,-127.97542141388577,30.223203424759074,-17.195903895593172,-0.3195,-0.8987,0.2607,-0.1495
121,1945055.0,1876.4437510000002,1.0,4.05,4.71,-7.48,-23.06,-29.25,17.37,-1.19,2.5,-2.81,-0.1021722916745076,-0.2592756162580709,0.08763065761632483,-127.97542141388577,30.223203424759074,-17.195903895593172,-0.3195,-0.8987,0.2607,-0.1495
122,1945090.0,1876.497302,1.0,4.25,4.74,-7.55,-23.5,-30.06,16.19,-2.13,3.0,0.19,0.033785104235389496,-0.2204275293060216,-0.06669139342177566,-127.92318817469021,30.223203424759074,-17.230672895970507,-0.3199,-0.8985,0.2607,-0.1498
123,1945090.0,1876.497302,1.0,4.25,4.74,-7.55,-23.5,-30.06,16.19,-2.13,3.0,0.19,0.033785104235389496,-0.2204275293060216,-0.06669139342177566,-127.92318817469021,30.223203424759074,-17.230672895970507,-0.3199,-0.8985,0.2607,-0.1498
124,1945126.0,1876.5038350000002,1.0,4.22,4.73,-7.41,-23.5,-29.69,16.56,-1.63,3.5,-1.0,0.022383090290388208,-0.16761951977345246,0.056737041729039824,-127.7928177632481,30.24694330618832,-17.288624783675054,-0.3208,-0.898,0.2609,-0.1503
125,1945126.0,1876.5038350000002,1.0,4.22,4.73,-7.41,-23.5,-29.69,16.56,-1.63,3.5,-1.0,0.022383090290388208,-0.16761951977345246,0.056737041729039824,-127.7928177632481,30.24694330618832,-17.288624783675054,-0.3208,-0.898,0.2609,-0.1503
126,1945161.0,1876.565937,1.0,4.21,4.78,-7.46,-23.5,-29.69,16.56,-2.5,3.31,-2.81,-0.017950236245469542,-0.18951597660034025,-0.000891051845359314,-127.7407542896587,30.187596092266823,-17.32339805412093,-0.3216,-0.8978,0.2604,-0.1506
127,1945161.0,1876.565937,1.0,4.21,4.78,-7.46,-23.5,-29.69,16.56,-2.5,3.31,-2.81,-0.017950236245469542,-0.18951597660034025,-0.000891051845359314,-127.7407542896587,30.187596092266823,-17.32339805412093,-0.3216,-0.8978,0.2604,-0.1506
128,1945194.0,1876.636084,1.0,4.09,4.71,-7.48,-23.06,-29.69,15.5,-2.63,1.56,-0.44,-0.07138717114601711,-0.3066462897538975,0.07199685133692313,-127.71474062830828,30.14012428977767,-17.31180678552449,-0.3223,-0.8977,0.26,-0.1505
129,1945194.0,1876.636084,1.0,4.09,4.71,-7.48,-23.06,-29.69,15.5,-2.63,1.56,-0.44,-0.07138717114601711,-0.3066462897538975,0.07199685133692313,-127.71474062830828,30.14012428977767,-17.31180678552449,-0.3223,-0.8977,0.26,-0.1505
130,1945229.0,1876.65372,1.0,4.11,4.91,-7.4,-22.75,-29.69,16.25,-2.06,1.75,1.25,-0.1611583486889776,-0.12507361180737409,0.02306248936376676,-127.66274936627121,30.17572764472251,-17.32339805412093,-0.3228,-0.8975,0.2603,-0.1506
131,1945229.0,1876.65372,1.0,4.11,4.91,-7.4,-22.75,-29.69,16.25,-2.06,1.75,1.25,-0.1611583486889776,-0.12507361180737409,0.02306248936376676,-127.66274936627121,30.17572764472251,-17.32339805412093,-0.3228,-0.8975,0.2603,-0.1506
132,1945264.0,1876.657366,1.0,4.3,4.76,-7.42,-22.75,-29.69,16.25,-1.06,1.56,-1.81,0.0780164851870313,-0.17578030409632195,0.00017179869190542263,-127.6108060653337,30.15199174363297,-17.33498950133432,-0.3232,-0.8973,0.2601,-0.1507
133,1945264.0,1876.657366,1.0,4.3,4.76,-7.42,-22.75,-29.69,16.25,-1.06,1.56,-1.81,0.0780164851870313,-0.17578030409632195,0.00017179869190542263,-127.6108060653337,30.15199174363297,-17.33498950133432,-0.3232,-0.8973,0.2601,-0.1507
134,1945298.0,1876.702864,1.0,4.26,4.66,-7.54,-22.75,-29.25,15.0,-2.19,0.81,-1.75,0.09791785925298202,-0.3427184129366645,-0.021257009240242646,-127.6108060653337,30.09265778200395,-17.31180678552449,-0.3236,-0.8973,0.2596,-0.1505
135,1945298.0,1876.702864,1.0,4.26,4.66,-7.54,-22.75,-29.25,15.0,-2.19,0.81,-1.75,0.09791785925298202,-0.3427184129366645,-0.021257009240242646,-127.6108060653337,30.09265778200395,-17.31180678552449,-0.3236,-0.8973,0.2596,-0.1505
136,1945333.0,1876.767262,1.0,4.14,4.99,-7.41,-22.0,-29.69,15.75,-2.31,-0.19,2.25,-0.1734767543792416,-0.08966290949067668,-0.037620738777540914,-127.55891058236664,30.15199174363297,-17.300215695418142,-0.3239,-0.8971,0.2601,-0.1504
137,1945333.0,1876.767262,1.0,4.14,4.99,-7.41,-22.0,-29.69,15.75,-2.31,-0.19,2.25,-0.1734767543792416,-0.08966290949067668,-0.037620738777540914,-127.55891058236664,30.15199174363297,-17.300215695418142,-0.3239,-0.8971,0.2601,-0.1504
138,1945368.0,1876.7746989999998,1.0,4.1,5.01,-7.29,-23.06,-30.06,17.06,-0.81,0.19,-0.5,-0.20365192229008625,-0.01710824207671724,0.05921786622237767,-127.53298072808481,30.17572764472251,-17.288624783675054,-0.3242,-0.897,0.2603,-0.1503
139,1945368.0,1876.7746989999998,1.0,4.1,5.01,-7.29,-23.06,-30.06,17.06,-0.81,0.19,-0.5,-0.20365192229008625,-0.01710824207671724,0.05921786622237767,-127.53298072808481,30.17572764472251,-17.288624783675054,-0.3242,-0.897,0.2603,-0.1503
140,1945405.0,1876.846391,1.0,4.08,4.95,-7.44,-23.06,-30.06,17.06,0.63,1.06,-2.19,-0.19531166186192306,-0.1624944647045936,-0.013632526673108105,-127.58485235552216,30.10452391311007,-17.277034050168414,-0.3242,-0.8972,0.2597,-0.1502
141,1945405.0,1876.846391,1.0,4.08,4.95,-7.44,-23.06,-30.06,17.06,0.63,1.06,-2.19,-0.19531166186192306,-0.1624944647045936,-0.013632526673108105,-127.58485235552216,30.10452391311007,-17.277034050168414,-0.3242,-0.8972,0.2597,-0.1502
142,1945440.0,1876.8599570000001,1.0,3.97,4.64,-7.35,-22.75,-29.0,15.0,0.81,0.56,-2.69,-0.09120417917131464,-0.34587564575100993,0.2575635601682791,-127.6108060653337,30.080791981197944,-17.219083051744406,-0.3243,-0.8973,0.2595,-0.1497
143,1945440.0,1876.8599570000001,1.0,3.97,4.64,-7.35,-22.75,-29.0,15.0,0.81,0.56,-2.69,-0.09120417917131464,-0.34587564575100993,0.2575635601682791,-127.6108060653337,30.080791981197944,-17.219083051744406,-0.3243,-0.8973,0.2595,-0.1497
144,1945477.0,1876.9114559999998,1.0,4.21,4.81,-7.31,-22.0,-29.25,15.38,-2.88,3.81,-1.0,0.011329422412949652,-0.1371218772137852,0.09699659552787132,-127.55891058236664,30.021467926252928,-17.277034050168414,-0.325,-0.8971,0.259,-0.1502
145,1945477.0,1876.9114559999998,1.0,4.21,4.81,-7.31,-22.0,-29.25,15.38,-2.88,3.81,-1.0,0.011329422412949652,-0.1371218772137852,0.09699659552787132,-127.55891058236664,30.021467926252928,-17.277034050168414,-0.325,-0.8971,0.259,-0.1502
146,1945511.0,1876.927417,1.0,4.36,4.82,-7.39,-22.0,-29.25,15.38,-3.0,3.63,-1.63,0.11691059976024187,-0.15083459661975684,-0.03294759523356916,-127.48115670522915,29.96215210560615,-17.346581127291525,-0.3259,-0.8968,0.2585,-0.1508
147,1945511.0,1876.927417,1.0,4.36,4.82,-7.39,-22.0,-29.25,15.38,-3.0,3.63,-1.63,0.11691059976024187,-0.15083459661975684,-0.03294759523356916,-127.48115670522915,29.96215210560615,-17.346581127291525,-0.3259,-0.8968,0.2585,-0.1508
148,1945544.0,1876.9308460000002,1.0,4.24,4.95,-7.43,-23.06,-30.06,16.19,-4.0,1.5,-1.31,-0.04903556510036766,-0.16394498525942902,-0.07544074817487889,-127.37765090836372,29.92656655764556,-17.33498950133432,-0.3273,-0.8964,0.2582,-0.1507
149,1945544.0,1876.9308460000002,1.0,4.24,4.95,-7.43,-23.06,-30.06,16.19,-4.0,1.5,-1.31,-0.04903556510036766,-0.16394498525942902,-0.07544074817487889,-127.37765090836372,29.92656655764556,-17.33498950133432,-0.3273,-0.8964,0.2582,-0.1507
150,1945579.0,1876.972756,1.0,4.13,5.06,-7.3,-22.75,-31.19,17.0,-2.69,1.0,-0.19,-0.18614195105291045,-0.06301227547321052,0.013188884173894522,-127.3259688536123,29.89098396291072,-17.358172932119437,-0.3281,-0.8962,0.2579,-0.1509
151,1945579.0,1876.972756,1.0,4.13,5.06,-7.3,-22.75,-31.19,17.0,-2.69,1.0,-0.19,-0.18614195105291045,-0.06301227547321052,0.013188884173894522,-127.3259688536123,29.89098396291072,-17.358172932119437,-0.3281,-0.8962,0.2579,-0.1509
152,1945616.0,1877.031309,1.0,4.13,5.04,-7.2,-23.06,-29.69,15.38,-1.81,6.19,-3.06,-0.1665157675334923,-0.030501123713331687,0.0973842100128426,-127.22274573469288,29.85540431723644,-17.404541942676424,-0.32899999999999996,-0.8958,0.2576,-0.1513
153,1945616.0,1877.031309,1.0,4.13,5.04,-7.2,-23.06,-29.69,15.38,-1.81,6.19,-3.06,-0.1665157675334923,-0.030501123713331687,0.0973842100128426,-127.22274573469288,29.85540431723644,-17.404541942676424,-0.32899999999999996,-0.8958,0.2576,-0.1513
154,1945649.0,1877.0386640000002,1.0,4.39,4.79,-7.47,-23.06,-29.69,15.38,0.06,6.5,-3.44,0.14991902046792516,-0.3007155425358943,-0.08800484237723794,-127.22274573469288,29.68940484166728,-17.54366623938741,-0.3296,-0.8958,0.2562,-0.1525
155,1945649.0,1877.0386640000002,1.0,4.39,4.79,-7.47,-23.06,-29.69,15.38,0.06,6.5,-3.44,0.14991902046792516,-0.3007155425358943,-0.08800484237723794,-127.22274573469288,29.68940484166728,-17.54366623938741,-0.3296,-0.8958,0.2562,-0.1525
156,1945686.0,1877.10762,1.0,4.32,4.78,-7.32,-22.75,-29.69,14.56,-1.19,4.75,-0.19,0.09940568025445527,-0.2515498801943425,0.05882761915475676,-127.14545121783674,29.630134776789287,-17.6712197397126,-0.3302,-0.8955,0.2557,-0.1536
157,1945686.0,1877.10762,1.0,4.32,4.78,-7.32,-22.75,-29.69,14.56,-1.19,4.75,-0.19,0.09940568025445527,-0.2515498801943425,0.05882761915475676,-127.14545121783674,29.630134776789287,-17.6712197397126,-0.3302,-0.8955,0.2557,-0.1536
158,1945720.0,1877.1282059999999,1.0,4.34,4.81,-7.41,-21.56,-30.06,15.0,-0.81,2.06,-0.19,0.07875426619010227,-0.29259912046257863,-0.031438407829101685,-127.14545121783674,29.57087281914313,-17.763999776816537,-0.3303,-0.8955,0.2552,-0.1544
159,1945720.0,1877.1282059999999,1.0,4.34,4.81,-7.41,-21.56,-30.06,15.0,-0.81,2.06,-0.19,0.07875426619010227,-0.29259912046257863,-0.031438407829101685,-127.14545121783674,29.57087281914313,-17.763999776816537,-0.3303,-0.8955,0.2552,-0.1544
160,1945755.0,1877.1708219999998,1.0,4.15,4.79,-7.24,-21.56,-30.06,15.0,-2.56,2.0,-0.75,-0.049430345521349284,-0.2619784329795896,0.18827571212810132,-127.1197096819897,29.57087281914313,-17.77559810564146,-0.3304,-0.8954,0.2552,-0.1545
161,1945755.0,1877.1708219999998,1.0,4.15,4.79,-7.24,-21.56,-30.06,15.0,-2.56,2.0,-0.75,-0.049430345521349284,-0.2619784329795896,0.18827571212810132,-127.1197096819897,29.57087281914313,-17.77559810564146,-0.3304,-0.8954,0.2552,-0.1545
162,1945790.0,1877.19357,1.0,4.24,4.89,-7.32,-22.75,-30.06,16.56,-2.56,1.81,-0.56,-0.04069745026573235,-0.2292294392864469,0.03844148555343807,-127.09397976921673,29.55902139879445,-17.798795314151782,-0.3309,-0.8953,0.2551,-0.1547
163,1945790.0,1877.19357,1.0,4.24,4.89,-7.32,-22.75,-30.06,16.56,-2.56,1.81,-0.56,-0.04069745026573235,-0.2292294392864469,0.03844148555343807,-127.09397976921673,29.55902139879445,-17.798795314151782,-0.3309,-0.8953,0.2551,-0.1547
164,1945827.0,1877.197235,1.0,4.47,5.13,-7.25,-23.06,-30.06,15.38,-2.25,1.31,1.06,0.017454001147620524,0.031687248743106355,-0.13613589109264626,-126.93984342653314,29.606429021936968,-17.833592505981915,-0.332,-0.8947,0.2555,-0.155
165,1945827.0,1877.197235,1.0,4.47,5.13,-7.25,-23.06,-30.06,15.38,-2.25,1.31,1.06,0.017454001147620524,0.031687248743106355,-0.13613589109264626,-126.93984342653314,29.606429021936968,-17.833592505981915,-0.332,-0.8947,0.2555,-0.155
166,1945860.0,1877.240797,1.0,4.24,5.02,-7.2,-23.06,-30.06,15.38,-1.56,-0.25,-0.88,-0.0997647874937444,-0.09243147638761727,0.059881129787209275,-126.91419440082724,29.606429021936968,-17.81039419409229,-0.3323,-0.8946,0.2555,-0.1548
167,1945860.0,1877.240797,1.0,4.24,5.02,-7.2,-23.06,-30.06,15.38,-1.56,-0.25,-0.88,-0.0997647874937444,-0.09243147638761727,0.059881129787209275,-126.91419440082724,29.606429021936968,-17.81039419409229,-0.3323,-0.8946,0.2555,-0.1548
