,TIME,ELAPSED_SECONDS,PSTATE,acc_x,acc_y,acc_z,mag_x,mag_y,mag_z,gyr_x,gyr_y,gyr_z,lin_x,lin_y,lin_z,eul_x,eul_y,eul_z,qua_w,qua_x,qua_y,qua_z
0,4098187.0,1332.634006,1.0,-0.2,0.84,-9.04,21.56,-17.56,36.25,-3.25,-7.5,1.25,-0.10052173558935754,0.5243978986487977,0.7412155247767185,-121.33697927503367,-58.444682614751024,-3.6675560000932936,-0.0233,-0.8718,-0.4882,-0.032
1,4098187.0,1332.634006,1.0,-0.2,0.84,-9.04,21.56,-17.56,36.25,-3.25,-7.5,1.25,-0.10052173558935754,0.5243978986487977,0.7412155247767185,-121.33697927503367,-58.444682614751024,-3.6675560000932936,-0.0233,-0.8718,-0.4882,-0.032
2,4098222.0,1332.638357,1.0,0.54,0.67,-10.02,22.0,-17.56,36.69,4.25,9.75,1.44,0.06130625054482788,-0.16348812502095686,-0.2487173814844397,-121.40719542947477,-58.37904205289053,-3.793673550039814,-0.0216,-0.8721,-0.4877,-0.0331
3,4098222.0,1332.638357,1.0,0.54,0.67,-10.02,22.0,-17.56,36.69,4.25,9.75,1.44,0.06130625054482788,-0.16348812502095686,-0.2487173814844397,-121.40719542947477,-58.37904205289053,-3.793673550039814,-0.0216,-0.8721,-0.4877,-0.0331
4,4098258.0,1332.656784,1.0,0.61,1.12,-10.21,22.0,-16.5,37.88,-5.0,0.63,-1.31,0.4261332804729563,0.025526969652738152,-0.4738343660740885,-121.3603761475579,-58.40529575549325,-4.022990071019942,-0.0219,-0.8719,-0.4879,-0.0351
5,4098258.0,1332.656784,1.0,0.61,1.12,-10.21,22.0,-16.5,37.88,-5.0,0.63,-1.31,0.4261332804729563,0.025526969652738152,-0.4738343660740885,-121.3603761475579,-58.40529575549325,-4.022990071019942,-0.0219,-0.8719,-0.4879,-0.0351
6,4098293.0,1332.7105689999999,1.0,0.19,0.61,-9.7,22.0,-16.5,37.88,3.69,6.06,-1.0,-0.18277276276884608,0.14032209732313658,0.08836291707264543,-121.29021101561548,-58.4578132506004,-4.080321683767285,-0.0209,-0.8716,-0.4883,-0.0356
7,4098293.0,1332.7105689999999,1.0,0.19,0.61,-9.7,22.0,-16.5,37.88,3.69,6.06,-1.0,-0.18277276276884608,0.14032209732313658,0.08836291707264543,-121.29021101561548,-58.4578132506004,-4.080321683767285,-0.0209,-0.8716,-0.4883,-0.0356
8,4098330.0,1332.729338,1.0,0.51,0.74,-9.89,22.25,-17.19,36.25,1.31,10.69,5.88,0.06882244335993855,-0.008493934814960469,-0.12385811007983173,-121.40719542947477,-58.33966779766776,-4.2867240536107065,-0.0187,-0.8721,-0.4874,-0.0374
9,4098330.0,1332.729338,1.0,0.51,0.74,-9.89,22.25,-17.19,36.25,1.31,10.69,5.88,0.06882244335993855,-0.008493934814960469,-0.12385811007983173,-121.40719542947477,-58.33966779766776,-4.2867240536107065,-0.0187,-0.8721,-0.4874,-0.0374
10,4098365.0,1332.830801,1.0,0.94,0.9,-10.45,21.56,-17.19,35.88,-2.75,10.31,1.12,0.3438113372597949,-0.23636505831344146,-0.7158033889953703,-121.5243930799012,-58.22159029859478,-4.6078223124450055,-0.0175,-0.8726,-0.4865,-0.0402
11,4098365.0,1332.830801,1.0,0.94,0.9,-10.45,21.56,-17.19,35.88,-2.75,10.31,1.12,0.3438113372597949,-0.23636505831344146,-0.7158033889953703,-121.5243930799012,-58.22159029859478,-4.6078223124450055,-0.0175,-0.8726,-0.4865,-0.0402
12,4098400.0,1332.83505,1.0,0.5,0.35,-9.92,21.56,-17.19,35.88,1.94,2.13,-2.13,-0.30663654666252604,-0.13140937964579538,-0.12650688002520205,-121.40719542947477,-58.33966779766776,-4.6766337060034,-0.0164,-0.8721,-0.4874,-0.0408
13,4098400.0,1332.83505,1.0,0.5,0.35,-9.92,21.56,-17.19,35.88,1.94,2.13,-2.13,-0.30663654666252604,-0.13140937964579538,-0.12650688002520205,-121.40719542947477,-58.33966779766776,-4.6766337060034,-0.0164,-0.8721,-0.4874,-0.0408
14,4098433.0,1332.873206,1.0,0.25,0.58,-9.44,21.56,-16.75,36.25,0.25,5.5,0.56,-0.2190480546973133,0.22469795927011715,0.3507508477864363,-121.40719542947477,-58.326544724242076,-4.860139072417077,-0.0156,-0.8721,-0.4873,-0.0424
15,4098433.0,1332.873206,1.0,0.25,0.58,-9.44,21.56,-16.75,36.25,0.25,5.5,0.56,-0.2190480546973133,0.22469795927011715,0.3507508477864363,-121.40719542947477,-58.326544724242076,-4.860139072417077,-0.0156,-0.8721,-0.4873,-0.0424
16,4098469.0,1332.889794,1.0,0.88,1.14,-10.14,20.5,-16.75,36.25,-5.25,13.44,1.81,0.4779573597689966,0.04355842682810096,-0.42385631326206585,-121.45404882910117,-58.26094192949911,-5.215716631990905,-0.0145,-0.8723,-0.4868,-0.0455
17,4098469.0,1332.889794,1.0,0.88,1.14,-10.14,20.5,-16.75,36.25,-5.25,13.44,1.81,0.4779573597689966,0.04355842682810096,-0.42385631326206585,-121.45404882910117,-58.26094192949911,-5.215716631990905,-0.0145,-0.8723,-0.4868,-0.0455
18,4098506.0,1332.931461,1.0,0.88,0.85,-10.12,20.5,-16.75,36.25,0.44,7.06,-3.56,0.1905592082669857,-0.07434838934779148,-0.3849867431902734,-121.3603761475579,-58.31342248941901,-5.525454047712893,-0.013999999999999999,-0.8719,-0.4872,-0.0482
19,4098506.0,1332.931461,1.0,0.88,0.85,-10.12,20.5,-16.75,36.25,0.44,7.06,-3.56,0.1905592082669857,-0.07434838934779148,-0.3849867431902734,-121.3603761475579,-58.31342248941901,-5.525454047712893,-0.013999999999999999,-0.8719,-0.4872,-0.0482
20,4098539.0,1332.947792,1.0,0.72,0.61,-9.82,20.75,-17.19,36.69,-1.44,0.12,-2.19,-0.05809057681584673,-0.06323324749229088,-0.058213255073370725,-121.2668396082864,-58.40529575549325,-5.502509177758649,-0.0134,-0.8715,-0.4879,-0.048
21,4098539.0,1332.947792,1.0,0.72,0.61,-9.82,20.75,-17.19,36.69,-1.44,0.12,-2.19,-0.05809057681584673,-0.06323324749229088,-0.058213255073370725,-121.2668396082864,-58.40529575549325,-5.502509177758649,-0.0134,-0.8715,-0.4879,-0.048
22,4098574.0,1332.952992,1.0,0.52,0.33,-9.53,21.19,-17.19,37.06,-0.75,1.25,-0.5,-0.3854266511402668,-0.047398589384468816,0.2646690908640377,-121.24347666895369,-58.41842386753149,-5.571344453661866,-0.0138,-0.8714,-0.488,-0.0486
23,4098574.0,1332.952992,1.0,0.52,0.33,-9.53,21.19,-17.19,37.06,-0.75,1.25,-0.5,-0.3854266511402668,-0.047398589384468816,0.2646690908640377,-121.24347666895369,-58.41842386753149,-5.571344453661866,-0.0138,-0.8714,-0.488,-0.0486
24,4098611.0,1332.997223,1.0,0.73,0.7,-9.58,20.75,-16.75,37.06,-6.81,6.44,6.31,0.01148385375068058,-0.01350920252331672,0.17342698677383162,-121.38378152894909,-58.24782388270019,-5.7319679651977244,-0.0136,-0.872,-0.4867,-0.05
25,4098611.0,1332.997223,1.0,0.73,0.7,-9.58,20.75,-16.75,37.06,-6.81,6.44,6.31,0.01148385375068058,-0.01350920252331672,0.17342698677383162,-121.38378152894909,-58.24782388270019,-5.7319679651977244,-0.0136,-0.872,-0.4867,-0.05
26,4098646.0,1333.050614,1.0,0.92,1.37,-9.77,20.75,-16.75,37.06,-7.38,12.31,0.56,0.5879167990482944,0.2145291087813368,-0.08195612517670803,-121.45404882910117,-58.14290959834098,-6.17947961245989,-0.013999999999999999,-0.8723,-0.4859,-0.0539
27,4098646.0,1333.050614,1.0,0.92,1.37,-9.77,20.75,-16.75,37.06,-7.38,12.31,0.56,0.5879167990482944,0.2145291087813368,-0.08195612517670803,-121.45404882910117,-58.14290959834098,-6.17947961245989,-0.013999999999999999,-0.8723,-0.4859,-0.0539
28,4098680.0,1333.11247,1.0,0.95,0.5,-10.08,20.75,-18.0,36.69,1.75,1.06,-1.37,-0.16989675912527175,-0.23870586045465314,-0.3261213190135397,-121.38378152894909,-58.19536005826746,-6.259812004164343,-0.0131,-0.872,-0.4863,-0.0546
29,4098680.0,1333.11247,1.0,0.95,0.5,-10.08,20.75,-18.0,36.69,1.75,1.06,-1.37,-0.16989675912527175,-0.23870586045465314,-0.3261213190135397,-121.38378152894909,-58.19536005826746,-6.259812004164343,-0.0131,-0.872,-0.4863,-0.0546
30,4098717.0,1333.129899,1.0,1.01,0.61,-9.92,20.75,-17.19,37.88,-2.31,5.0,2.75,-0.0514522161765729,-0.22070532808402488,-0.1807040954351784,-121.40719542947477,-58.12979906907962,-6.420486066048695,-0.013000000000000001,-0.8721,-0.4858,-0.055999999999999994
31,4098717.0,1333.129899,1.0,1.01,0.61,-9.92,20.75,-17.19,37.88,-2.31,5.0,2.75,-0.0514522161765729,-0.22070532808402488,-0.1807040954351784,-121.40719542947477,-58.12979906907962,-6.420486066048695,-0.013000000000000001,-0.8721,-0.4858,-0.055999999999999994
32,4098752.0,1333.169835,1.0,1.29,0.81,-10.62,20.75,-17.19,37.88,-4.5,3.19,-1.12,0.149586452605858,-0.3223000114421808,-0.9161456520592672,-121.40719542947477,-58.12979906907962,-6.615607303690656,-0.0135,-0.8721,-0.4858,-0.0577
33,4098752.0,1333.169835,1.0,1.29,0.81,-10.62,20.75,-17.19,37.88,-4.5,3.19,-1.12,0.149586452605858,-0.3223000114421808,-0.9161456520592672,-121.40719542947477,-58.12979906907962,-6.615607303690656,-0.0135,-0.8721,-0.4858,-0.0577
34,4098785.0,1333.17722,1.0,1.28,0.81,-10.57,20.75,-17.56,37.06,-3.5,-4.69,-1.94,0.13936371522927649,-0.3519202023929415,-0.8646259277429049,-121.33697927503367,-58.1822461911917,-6.569694717687418,-0.0152,-0.8718,-0.4862,-0.0573
35,4098785.0,1333.17722,1.0,1.28,0.81,-10.57,20.75,-17.56,37.06,-3.5,-4.69,-1.94,0.13936371522927649,-0.3519202023929415,-0.8646259277429049,-121.33697927503367,-58.1822461911917,-6.569694717687418,-0.0152,-0.8718,-0.4862,-0.0573
36,4098822.0,1333.239902,1.0,1.25,-0.18,-10.61,20.5,-17.56,36.69,2.56,-14.0,4.38,-0.6743808113720583,-0.8926096261031173,-0.819518574638801,-121.43061785942284,-58.12979906907962,-6.248335760592128,-0.0161,-0.8722,-0.4858,-0.0545
37,4098822.0,1333.239902,1.0,1.25,-0.18,-10.61,20.5,-17.56,36.69,2.56,-14.0,4.38,-0.6743808113720583,-0.8926096261031173,-0.819518574638801,-121.43061785942284,-58.12979906907962,-6.248335760592128,-0.0161,-0.8722,-0.4858,-0.0545
38,4098859.0,1333.25972,1.0,1.25,-0.3,-10.17,20.06,-17.56,36.69,-3.31,-18.06,9.88,-0.6605264176856207,-1.0680163573463857,-0.3670634769945221,-121.8536919796764,-57.763041497816594,-5.686074397008276,-0.019,-0.8740000000000001,-0.483,-0.0496
39,4098859.0,1333.25972,1.0,1.25,-0.3,-10.17,20.06,-17.56,36.69,-3.31,-18.06,9.88,-0.6605264176856207,-1.0680163573463857,-0.3670634769945221,-121.8536919796764,-57.763041497816594,-5.686074397008276,-0.019,-0.8740000000000001,-0.483,-0.0496
40,4098891.0,1333.3017109999998,1.0,1.44,-1.88,-9.61,20.06,-17.56,36.69,3.81,-16.81,16.06,-1.7558778865520206,-2.141104395770895,0.3044047488013053,-122.25585789752888,-57.39693028480898,-5.204245622111723,-0.0199,-0.8757,-0.4802,-0.0454
41,4098891.0,1333.3017109999998,1.0,1.44,-1.88,-9.61,20.06,-17.56,36.69,3.81,-16.81,16.06,-1.7558778865520206,-2.141104395770895,0.3044047488013053,-122.25585789752888,-57.39693028480898,-5.204245622111723,-0.0199,-0.8757,-0.4802,-0.0454
42,4098930.0,1333.394914,1.0,1.26,-2.21,-8.3,21.19,-17.56,37.5,-10.75,-12.06,27.12,-1.9462849520920769,-2.285922190262684,1.6612074322002233,-123.21239151549196,-56.45841982476564,-4.837200229263812,-0.0238,-0.8797,-0.473,-0.0422
43,4098930.0,1333.394914,1.0,1.26,-2.21,-8.3,21.19,-17.56,37.5,-10.75,-12.06,27.12,-1.9462849520920769,-2.285922190262684,1.6612074322002233,-123.21239151549196,-56.45841982476564,-4.837200229263812,-0.0238,-0.8797,-0.473,-0.0422
44,4098965.0,1333.4412710000001,1.0,0.87,-3.47,-6.84,20.5,-17.56,37.06,-9.13,-5.0,35.0,-3.0324393617761505,-2.7271023954644718,3.2529774386186645,-124.13498454962264,-55.52401793690186,-4.802792327898413,-0.0262,-0.8835,-0.4658,-0.0419
45,4098965.0,1333.4412710000001,1.0,0.87,-3.47,-6.84,20.5,-17.56,37.06,-9.13,-5.0,35.0,-3.0324393617761505,-2.7271023954644718,3.2529774386186645,-124.13498454962264,-55.52401793690186,-4.802792327898413,-0.0262,-0.8835,-0.4658,-0.0419
46,4099000.0,1333.496339,1.0,0.27,-4.09,-5.48,20.5,-17.56,37.06,-47.56,10.38,52.5,-3.7523685479112503,-2.7281362533385547,4.775904243766008,-125.821937957947,-53.70561320811986,-5.468092286497271,-0.0343,-0.8903,-0.4517,-0.0477
47,4099000.0,1333.496339,1.0,0.27,-4.09,-5.48,20.5,-17.56,37.06,-47.56,10.38,52.5,-3.7523685479112503,-2.7281362533385547,4.775904243766008,-125.821937957947,-53.70561320811986,-5.468092286497271,-0.0343,-0.8903,-0.4517,-0.0477
48,4099035.0,1333.501113,1.0,0.8,-3.39,-5.29,20.5,-19.06,35.88,-69.56,17.94,72.75,-2.9371963639420247,-2.934974048256581,5.023867874949128,-128.1586232989387,-50.87166614791169,-7.338875609975954,-0.0505,-0.8994,-0.4295,-0.064
49,4099035.0,1333.501113,1.0,0.8,-3.39,-5.29,20.5,-19.06,35.88,-69.56,17.94,72.75,-2.9371963639420247,-2.934974048256581,5.023867874949128,-128.1586232989387,-50.87166614791169,-7.338875609975954,-0.0505,-0.8994,-0.4295,-0.064
50,4099072.0,1333.5202789999998,1.0,1.62,-1.33,-4.33,20.06,-21.25,35.5,-83.69,32.31,100.12,-0.7619024651278697,-2.314909000475626,5.659012003121654,-130.40615307468192,-47.995403677336114,-9.200123661166053,-0.0643,-0.9078,-0.4067,-0.0802
51,4099072.0,1333.5202789999998,1.0,1.62,-1.33,-4.33,20.06,-21.25,35.5,-83.69,32.31,100.12,-0.7619024651278697,-2.314909000475626,5.659012003121654,-130.40615307468192,-47.995403677336114,-9.200123661166053,-0.0643,-0.9078,-0.4067,-0.0802
52,4099108.0,1333.5666210000002,1.0,2.38,-0.45,-4.52,17.75,-25.5,34.69,-65.06,58.25,106.62,0.21063881290950612,-2.247269004271939,5.202009589182379,-133.41553604515124,-43.764459893907535,-12.423127669242316,-0.0751,-0.9185,-0.3727,-0.1082
53,4099108.0,1333.5666210000002,1.0,2.38,-0.45,-4.52,17.75,-25.5,34.69,-65.06,58.25,106.62,0.21063881290950612,-2.247269004271939,5.202009589182379,-133.41553604515124,-43.764459893907535,-12.423127669242316,-0.0751,-0.9185,-0.3727,-0.1082
54,4099141.0,1333.583406,1.0,3.17,0.16,-4.05,17.75,-25.5,34.69,-84.12,72.62,112.69,1.1732305277877422,-2.2211829801291425,5.315895464573739,-135.397065246721,-40.43685258518578,-15.274409087771584,-0.0822,-0.9252,-0.3456,-0.1329
55,4099141.0,1333.583406,1.0,3.17,0.16,-4.05,17.75,-25.5,34.69,-84.12,72.62,112.69,1.1732305277877422,-2.2211829801291425,5.315895464573739,-135.397065246721,-40.43685258518578,-15.274409087771584,-0.0822,-0.9252,-0.3456,-0.1329
56,4099178.0,1333.586286,1.0,3.83,0.53,-3.83,14.5,-28.37,34.25,-118.5,100.44,126.31,1.659420792275208,-2.194041053120519,5.1107787824955695,-136.83846436491558,-35.70889932534101,-20.378490735265764,-0.0997,-0.9299,-0.3066,-0.1769
57,4099178.0,1333.586286,1.0,3.83,0.53,-3.83,14.5,-28.37,34.25,-118.5,100.44,126.31,1.659420792275208,-2.194041053120519,5.1107787824955695,-136.83846436491558,-35.70889932534101,-20.378490735265764,-0.0997,-0.9299,-0.3066,-0.1769
58,4099215.0,1333.623438,1.0,6.48,4.62,-5.46,10.75,-32.38,31.5,-133.0,106.62,122.94,4.488064968191585,-0.34868570673522425,1.2695491385125326,-136.99450746728783,-31.602352407672466,-24.88972570037191,-0.1169,-0.9304,-0.2723,-0.2155
59,4099215.0,1333.623438,1.0,6.48,4.62,-5.46,10.75,-32.38,31.5,-133.0,106.62,122.94,4.488064968191585,-0.34868570673522425,1.2695491385125326,-136.99450746728783,-31.602352407672466,-24.88972570037191,-0.1169,-0.9304,-0.2723,-0.2155
60,4099250.0,1333.6401119999998,1.0,7.32,3.88,-7.26,10.75,-32.38,31.5,-85.0,77.25,81.87,3.070403036288992,-1.3355498249896094,-0.6877929037332713,-135.97435612355386,-27.690458980540107,-29.68940484166728,-0.1323,-0.9271,-0.2393,-0.2562
61,4099250.0,1333.6401119999998,1.0,7.32,3.88,-7.26,10.75,-32.38,31.5,-85.0,77.25,81.87,3.070403036288992,-1.3355498249896094,-0.6877929037332713,-135.97435612355386,-27.690458980540107,-29.68940484166728,-0.1323,-0.9271,-0.2393,-0.2562
62,4099284.0,1333.680609,1.0,7.16,3.88,-3.97,5.06,-37.69,28.5,-164.5,81.5,97.62,3.9544904011487136,-0.6947075326356862,1.6850561224829796,-133.64792062272215,-23.12070182440919,-34.49501150829637,-0.1636,-0.9193,-0.2004,-0.2965
63,4099284.0,1333.680609,1.0,7.16,3.88,-3.97,5.06,-37.69,28.5,-164.5,81.5,97.62,3.9544904011487136,-0.6947075326356862,1.6850561224829796,-133.64792062272215,-23.12070182440919,-34.49501150829637,-0.1636,-0.9193,-0.2004,-0.2965
64,4099321.0,1333.740107,1.0,8.46,9.77,-5.0,3.56,-43.0,23.69,-173.44,98.94,99.31,4.4618881473017815,3.669390202164577,-2.7890488573570806,-130.46082634681812,-19.06418290551579,-38.877624971743764,-0.1932,-0.9079999999999999,-0.1656,-0.3328
65,4099321.0,1333.740107,1.0,8.46,9.77,-5.0,3.56,-43.0,23.69,-173.44,98.94,99.31,4.4618881473017815,3.669390202164577,-2.7890488573570806,-130.46082634681812,-19.06418290551579,-38.877624971743764,-0.1932,-0.9079999999999999,-0.1656,-0.3328
66,4099358.0,1333.756764,1.0,7.76,5.36,-5.93,2.19,-47.69,12.38,-73.62,73.44,66.5,1.6257816386009734,-0.062402467658649215,-1.2144679104307752,-127.17120439382437,-15.817984589415364,-43.07375512826057,-0.2103,-0.8956,-0.1376,-0.3671
67,4099358.0,1333.756764,1.0,7.76,5.36,-5.93,2.19,-47.69,12.38,-73.62,73.44,66.5,1.6257816386009734,-0.062402467658649215,-1.2144679104307752,-127.17120439382437,-15.817984589415364,-43.07375512826057,-0.2103,-0.8956,-0.1376,-0.3671
68,4099391.0,1333.795765,1.0,5.93,3.71,-0.16,2.19,-47.69,12.38,-183.75,74.19,75.56,3.8993530024517793,0.8967614111692002,4.066835966975224,-123.98838434414272,-12.7228682118641,-45.95878171202678,-0.2364,-0.8829,-0.1108,-0.3904
69,4099391.0,1333.795765,1.0,5.93,3.71,-0.16,2.19,-47.69,12.38,-183.75,74.19,75.56,3.8993530024517793,0.8967614111692002,4.066835966975224,-123.98838434414272,-12.7228682118641,-45.95878171202678,-0.2364,-0.8829,-0.1108,-0.3904
70,4099428.0,1333.855548,1.0,6.86,9.26,2.28,4.06,-44.56,4.25,-161.88,99.0,141.38,4.684683058072837,6.493178212653197,1.2102564920147376,-117.98502779819529,-6.294241112432486,-51.20181083863504,-0.2751,-0.8571,-0.0549,-0.4321
71,4099428.0,1333.855548,1.0,6.86,9.26,2.28,4.06,-44.56,4.25,-161.88,99.0,141.38,4.684683058072837,6.493178212653197,1.2102564920147376,-117.98502779819529,-6.294241112432486,-51.20181083863504,-0.2751,-0.8571,-0.0549,-0.4321
72,4099465.0,1333.8727279999998,1.0,8.77,7.0,1.04,1.56,-37.75,-0.69,-72.37,114.56,134.25,4.2165622583809315,3.771559643964162,0.060346055774861185,-114.15363047105913,-2.555603608821701,-55.62764107730477,-0.278,-0.8394,-0.0223,-0.4666
73,4099465.0,1333.8727279999998,1.0,8.77,7.0,1.04,1.56,-37.75,-0.69,-72.37,114.56,134.25,4.2165622583809315,3.771559643964162,0.060346055774861185,-114.15363047105913,-2.555603608821701,-55.62764107730477,-0.278,-0.8394,-0.0223,-0.4666
74,4099497.0,1333.876919,1.0,10.23,4.35,2.01,1.56,-37.75,-0.69,-133.63,141.94,118.37,5.075021662534024,1.835372424436927,-0.11761638036418455,-107.84087503637959,1.7189378496716434,-61.95480935564663,-0.2858,-0.8082,0.015,-0.5147
75,4099497.0,1333.876919,1.0,10.23,4.35,2.01,1.56,-37.75,-0.69,-133.63,141.94,118.37,5.075021662534024,1.835372424436927,-0.11761638036418455,-107.84087503637959,1.7189378496716434,-61.95480935564663,-0.2858,-0.8082,0.015,-0.5147
76,4099534.0,1334.038606,1.0,13.19,8.59,3.03,-4.5,-33.38,-0.75,-188.31,160.13,126.19,3.2437614764238787,5.1426584995274425,-5.024943813252387,-98.99894740813559,7.327392950256605,-69.01303790274106,-0.3111,-0.7604,0.0639,-0.5665
77,4099534.0,1334.038606,1.0,13.19,8.59,3.03,-4.5,-33.38,-0.75,-188.31,160.13,126.19,3.2437614764238787,5.1426584995274425,-5.024943813252387,-98.99894740813559,7.327392950256605,-69.01303790274106,-0.3111,-0.7604,0.0639,-0.5665
78,4099571.0,1334.102815,1.0,14.25,5.11,1.96,-11.0,-30.56,-4.75,-84.06,161.44,118.56,2.608959517454169,1.4665698083375949,-5.161940556012878,-93.0209156832062,9.92457255015729,-74.5296601704127,-0.3153,-0.7255,0.0865,-0.6055
79,4099571.0,1334.102815,1.0,14.25,5.11,1.96,-11.0,-30.56,-4.75,-84.06,161.44,118.56,2.608959517454169,1.4665698083375949,-5.161940556012878,-93.0209156832062,9.92457255015729,-74.5296601704127,-0.3153,-0.7255,0.0865,-0.6055
80,4099608.0,1334.151857,1.0,14.86,5.46,2.18,-15.75,-28.69,-9.25,-124.37,146.81,118.69,0.4024101070468341,1.7137597063726675,-6.076822346264848,-85.23488069373651,14.2344732300193,-81.00782923439904,-0.3231,-0.6771,0.1239,-0.6495
81,4099608.0,1334.151857,1.0,14.86,5.46,2.18,-15.75,-28.69,-9.25,-124.37,146.81,118.69,0.4024101070468341,1.7137597063726675,-6.076822346264848,-85.23488069373651,14.2344732300193,-81.00782923439904,-0.3231,-0.6771,0.1239,-0.6495
82,4099643.0,1334.1699939999999,1.0,15.0,9.56,2.21,-15.75,-28.69,-9.25,-141.31,122.56,117.06,-3.966639753898116,4.718482219097954,-7.024255935535723,-79.52399794108469,18.146842253651585,-85.01706567993352,-0.3308,-0.6396,0.1577,-0.6757
83,4099643.0,1334.1699939999999,1.0,15.0,9.56,2.21,-15.75,-28.69,-9.25,-141.31,122.56,117.06,-3.966639753898116,4.718482219097954,-7.024255935535723,-79.52399794108469,18.146842253651585,-85.01706567993352,-0.3308,-0.6396,0.1577,-0.6757
84,4099680.0,1334.173275,1.0,14.77,8.89,-0.39,-18.19,-26.25,-15.69,-38.25,116.5,80.25,-7.376131621577897,2.3311006514954147,-5.604247185230856,-73.26783271865594,20.984205642908503,-89.98269667432403,-0.3329,-0.5967,0.1821,-0.7070000000000001
85,4099680.0,1334.173275,1.0,14.77,8.89,-0.39,-18.19,-26.25,-15.69,-38.25,116.5,80.25,-7.376131621577897,2.3311006514954147,-5.604247185230856,-73.26783271865594,20.984205642908503,-89.98269667432403,-0.3329,-0.5967,0.1821,-0.7070000000000001
86,4099717.0,1334.211435,1.0,12.42,7.82,1.09,-18.56,-24.37,-21.5,24.44,92.62,77.25,-6.156354097367053,3.129504193294879,-3.189595909183991,-70.25529850674774,21.298944377524897,-93.40455194632291,-0.3239,-0.5754,0.1848,-0.7278
87,4099717.0,1334.211435,1.0,12.42,7.82,1.09,-18.56,-24.37,-21.5,24.44,92.62,77.25,-6.156354097367053,3.129504193294879,-3.189595909183991,-70.25529850674774,21.298944377524897,-93.40455194632291,-0.3239,-0.5754,0.1848,-0.7278
88,4099751.0,1334.218925,1.0,16.46,2.32,-3.91,-18.56,-24.37,-21.5,216.25,65.94,141.06,-8.045603710385263,-4.066855410589326,-4.696144489504265,-68.52704538255442,18.564721836939235,-99.74283872407179,-0.26899999999999996,-0.563,0.1613,-0.7646
89,4099751.0,1334.218925,1.0,16.46,2.32,-3.91,-18.56,-24.37,-21.5,216.25,65.94,141.06,-8.045603710385263,-4.066855410589326,-4.696144489504265,-68.52704538255442,18.564721836939235,-99.74283872407179,-0.26899999999999996,-0.563,0.1613,-0.7646
90,4099786.0,1334.236299,1.0,17.22,0.69,-5.82,-17.37,-22.75,-23.5,91.81,103.44,86.94,-10.295846395071786,-5.7004424344216105,-4.0633681348451285,-65.84443673875893,16.350341655632345,-105.4428449688075,-0.2264,-0.5435,0.1422,-0.7957
91,4099786.0,1334.236299,1.0,17.22,0.69,-5.82,-17.37,-22.75,-23.5,91.81,103.44,86.94,-10.295846395071786,-5.7004424344216105,-4.0633681348451285,-65.84443673875893,16.350341655632345,-105.4428449688075,-0.2264,-0.5435,0.1422,-0.7957
92,4099823.0,1334.239497,1.0,14.65,7.41,-2.99,-17.75,-23.5,-21.5,-180.63,37.63,-65.87,-11.286903108213457,1.045728778462152,-2.440103428876468,-62.933006816189014,18.91314493847748,-105.76506603938064,-0.2543,-0.522,0.1643,-0.7974
93,4099823.0,1334.239497,1.0,14.65,7.41,-2.99,-17.75,-23.5,-21.5,-180.63,37.63,-65.87,-11.286903108213457,1.045728778462152,-2.440103428876468,-62.933006816189014,18.91314493847748,-105.76506603938064,-0.2543,-0.522,0.1643,-0.7974
94,4099860.0,1334.282332,1.0,10.62,6.02,3.49,-16.75,-20.87,-23.5,3.69,-30.56,-164.5,-4.129785172809145,3.4043508816682726,-1.7068277326805248,-63.605960216714145,18.855062255560348,-101.86426876300013,-0.3043,-0.527,0.1638,-0.7764
95,4099860.0,1334.282332,1.0,10.62,6.02,3.49,-16.75,-20.87,-23.5,3.69,-30.56,-164.5,-4.129785172809145,3.4043508816682726,-1.7068277326805248,-63.605960216714145,18.855062255560348,-101.86426876300013,-0.3043,-0.527,0.1638,-0.7764
96,4099895.0,1334.294723,1.0,7.36,-1.43,5.7,-16.75,-20.87,-23.5,18.25,-43.19,-135.06,3.8196926355476175,-0.3912706217094785,1.2065711939348829,-66.30919770158441,15.864262703092981,-97.92848570683063,-0.3361,-0.5469,0.138,-0.7543
97,4099895.0,1334.294723,1.0,7.36,-1.43,5.7,-16.75,-20.87,-23.5,18.25,-43.19,-135.06,3.8196926355476175,-0.3912706217094785,1.2065711939348829,-66.30919770158441,15.864262703092981,-97.92848570683063,-0.3361,-0.5469,0.138,-0.7543
98,4099932.0,1334.425611,1.0,7.22,0.05,4.98,-16.0,-23.19,-23.06,-51.06,-42.0,-93.0,2.648011146712064,0.2914691977762021,1.4499531242220858,-67.38010802744758,15.748572284340513,-94.98688318439542,-0.3607,-0.5547,0.13699999999999998,-0.7372
99,4099932.0,1334.425611,1.0,7.22,0.05,4.98,-16.0,-23.19,-23.06,-51.06,-42.0,-93.0,2.648011146712064,0.2914691977762021,1.4499531242220858,-67.38010802744758,15.748572284340513,-94.98688318439542,-0.3607,-0.5547,0.13699999999999998,-0.7372
100,4099969.0,1334.4816720000001,1.0,7.22,0.11,5.11,-13.5,-23.19,-23.5,-32.0,-29.69,-67.44,2.9760484106286365,0.3920049812948965,1.4854681156620089,-68.29149832235984,15.679165793853409,-92.19155360917374,-0.3838,-0.5613,0.1364,-0.7205
101,4099969.0,1334.4816720000001,1.0,7.22,0.11,5.11,-13.5,-23.19,-23.5,-32.0,-29.69,-67.44,2.9760484106286365,0.3920049812948965,1.4854681156620089,-68.29149832235984,15.679165793853409,-92.19155360917374,-0.3838,-0.5613,0.1364,-0.7205
102,4100003.0,1334.561341,1.0,7.1,1.02,4.97,-13.5,-23.19,-23.5,-36.56,-11.5,-41.63,2.327144328223837,0.9345971494588574,1.4482872749300348,-68.40230300517993,15.817984589415364,-90.86104588243143,-0.397,-0.5621,0.1376,-0.7124
103,4100003.0,1334.561341,1.0,7.1,1.02,4.97,-13.5,-23.19,-23.5,-36.56,-11.5,-41.63,2.327144328223837,0.9345971494588574,1.4482872749300348,-68.40230300517993,15.817984589415364,-90.86104588243143,-0.397,-0.5621,0.1376,-0.7124
104,4100038.0,1334.583934,1.0,7.41,0.78,4.55,-13.75,-25.0,-23.56,-10.94,2.13,-21.44,2.2463391202364726,0.3162062773956177,1.376171119946335,-68.2776528480455,15.656031584502133,-90.19353290614056,-0.406,-0.5612,0.1362,-0.7083
105,4100038.0,1334.583934,1.0,7.41,0.78,4.55,-13.75,-25.0,-23.56,-10.94,2.13,-21.44,2.2463391202364726,0.3162062773956177,1.376171119946335,-68.2776528480455,15.656031584502133,-90.19353290614056,-0.406,-0.5612,0.1362,-0.7083
106,4100073.0,1334.5895150000001,1.0,8.21,0.48,3.87,-12.25,-23.5,-24.37,-19.62,12.0,-3.69,1.9405435588208668,-0.7032577259112384,0.9550332399236244,-67.86281386047486,15.632898017228825,-90.24224269381638,-0.4097,-0.5582,0.136,-0.7086
107,4100073.0,1334.5895150000001,1.0,8.21,0.48,3.87,-12.25,-23.5,-24.37,-19.62,12.0,-3.69,1.9405435588208668,-0.7032577259112384,0.9550332399236244,-67.86281386047486,15.632898017228825,-90.24224269381638,-0.4097,-0.5582,0.136,-0.7086
108,4100110.0,1334.646631,1.0,8.42,1.63,4.25,-12.0,-23.5,-23.56,-26.81,11.94,14.06,1.191497916807963,0.18278366069741606,0.31124464542854113,-66.95369808518734,16.315612011260463,-90.64896993931684,-0.4122,-0.5516,0.1419,-0.7111
109,4100110.0,1334.646631,1.0,8.42,1.63,4.25,-12.0,-23.5,-23.56,-26.81,11.94,14.06,1.191497916807963,0.18278366069741606,0.31124464542854113,-66.95369808518734,16.315612011260463,-90.64896993931684,-0.4122,-0.5516,0.1419,-0.7111
110,4100145.0,1334.6682210000001,1.0,9.03,2.09,3.33,-12.0,-23.5,-23.56,-15.81,17.81,10.56,0.0326961267402025,-0.41859273462852903,-0.03314730918337183,-65.9810040052897,16.825133117850115,-91.28639832349863,-0.4135,-0.5445,0.1463,-0.715
111,4100145.0,1334.6682210000001,1.0,9.03,2.09,3.33,-12.0,-23.5,-23.56,-15.81,17.81,10.56,0.0326961267402025,-0.41859273462852903,-0.03314730918337183,-65.9810040052897,16.825133117850115,-91.28639832349863,-0.4135,-0.5445,0.1463,-0.715
112,4100182.0,1334.672409,1.0,8.9,1.51,3.53,-12.0,-21.19,-24.75,5.63,5.19,6.69,0.5684369812160509,-0.5906554251646796,0.14854430752025927,-65.83078581086856,16.778799324271787,-91.59825645648041,-0.4117,-0.5434,0.1459,-0.7169
113,4100182.0,1334.672409,1.0,8.9,1.51,3.53,-12.0,-21.19,-24.75,5.63,5.19,6.69,0.5684369812160509,-0.5906554251646796,0.14854430752025927,-65.83078581086856,16.778799324271787,-91.59825645648041,-0.4117,-0.5434,0.1459,-0.7169
114,4100218.0,1334.727124,1.0,8.96,1.08,3.39,-12.19,-22.37,-24.75,-10.06,11.38,2.0,0.722587194356205,-1.0128907340040698,0.2467326307168776,-65.38089307689471,16.744050792597328,-92.02642985732345,-0.4117,-0.5401,0.1456,-0.7195
115,4100218.0,1334.727124,1.0,8.96,1.08,3.39,-12.19,-22.37,-24.75,-10.06,11.38,2.0,0.722587194356205,-1.0128907340040698,0.2467326307168776,-65.38089307689471,16.744050792597328,-92.02642985732345,-0.4117,-0.5401,0.1456,-0.7195
116,4100253.0,1334.7490970000001,1.0,8.71,1.98,3.66,-12.19,-22.37,-24.75,-22.62,12.75,6.81,0.14512720166908075,-0.1894891166233668,0.1566172554950871,-64.71495187215974,17.184314583414665,-92.20807957779185,-0.4147,-0.5352,0.1494,-0.7206
117,4100253.0,1334.7490970000001,1.0,8.71,1.98,3.66,-12.19,-22.37,-24.75,-22.62,12.75,6.81,0.14512720166908075,-0.1894891166233668,0.1566172554950871,-64.71495187215974,17.184314583414665,-92.20807957779185,-0.4147,-0.5352,0.1494,-0.7206
118,4100286.0,1334.753275,1.0,9.33,2.13,2.75,-11.06,-21.19,-26.0,-3.0,11.94,12.88,-0.7370843911858243,-0.9695732639738472,-0.07590707223881132,-64.07848807925822,17.508882729880764,-92.77144614855234,-0.4139,-0.5305,0.1522,-0.7240000000000001
119,4100286.0,1334.753275,1.0,9.33,2.13,2.75,-11.06,-21.19,-26.0,-3.0,11.94,12.88,-0.7370843911858243,-0.9695732639738472,-0.07590707223881132,-64.07848807925822,17.508882729880764,-92.77144614855234,-0.4139,-0.5305,0.1522,-0.7240000000000001
120,4100323.0,1334.808333,1.0,9.19,2.12,3.01,-10.69,-22.0,-26.75,-1.63,5.56,19.06,-0.6318160489084989,-0.7137138793254239,-0.0473857711345822,-63.79482577106735,17.694413651857158,-93.22090422842993,-0.4111,-0.5284,0.1538,-0.7267
121,4100323.0,1334.808333,1.0,9.19,2.12,3.01,-10.69,-22.0,-26.75,-1.63,5.56,19.06,-0.6318160489084989,-0.7137138793254239,-0.0473857711345822,-63.79482577106735,17.694413651857158,-93.22090422842993,-0.4111,-0.5284,0.1538,-0.7267
122,4100360.0,1334.898395,1.0,9.09,3.1,3.56,-11.06,-21.25,-27.19,-17.12,3.75,21.62,-1.17262017572053,0.3761642638552214,-0.3616911808461421,-63.242263086553784,18.471838381894354,-93.7392599390293,-0.4084,-0.5243,0.1605,-0.7298
123,4100360.0,1334.898395,1.0,9.09,3.1,3.56,-11.06,-21.25,-27.19,-17.12,3.75,21.62,-1.17262017572053,0.3761642638552214,-0.3616911808461421,-63.242263086553784,18.471838381894354,-93.7392599390293,-0.4084,-0.5243,0.1605,-0.7298
124,4100395.0,1334.9554679999999,1.0,9.16,3.57,3.8,-11.06,-21.25,-27.19,-15.25,1.63,19.37,-1.5044122234588313,0.8651272449866159,-0.5894453589263264,-62.86584483464826,19.09904255892851,-94.04139186402159,-0.4064,-0.5215,0.1659,-0.7316
125,4100395.0,1334.9554679999999,1.0,9.16,3.57,3.8,-11.06,-21.25,-27.19,-15.25,1.63,19.37,-1.5044122234588313,0.8651272449866159,-0.5894453589263264,-62.86584483464826,19.09904255892851,-94.04139186402159,-0.4064,-0.5215,0.1659,-0.7316
126,4100431.0,1334.974117,1.0,8.87,2.44,3.57,-11.5,-20.87,-27.19,-3.88,-4.5,-8.25,-0.7812485615846985,0.14362247945403195,-0.0292243011700446,-62.65108786966293,19.377984308584086,-94.00777948611471,-0.4078,-0.5199,0.1683,-0.7314
127,4100431.0,1334.974117,1.0,8.87,2.44,3.57,-11.5,-20.87,-27.19,-3.88,-4.5,-8.25,-0.7812485615846985,0.14362247945403195,-0.0292243011700446,-62.65108786966293,19.377984308584086,-94.00777948611471,-0.4078,-0.5199,0.1683,-0.7314
128,4100466.0,1334.97853,1.0,7.93,1.86,4.92,-12.19,-20.5,-27.19,2.19,-8.69,-7.06,0.6857387641835788,1.101196123228114,0.3796658881281996,-62.973315569507676,19.33148601143644,-93.63873819335464,-0.4089,-0.5223,0.1679,-0.7292
129,4100466.0,1334.97853,1.0,7.93,1.86,4.92,-12.19,-20.5,-27.19,2.19,-8.69,-7.06,0.6857387641835788,1.101196123228114,0.3796658881281996,-62.973315569507676,19.33148601143644,-93.63873819335464,-0.4089,-0.5223,0.1679,-0.7292
130,4100501.0,1335.034632,1.0,8.39,2.53,4.21,-12.19,-20.5,-27.19,-5.44,7.25,6.56,-0.36773267878093,0.8463363873898677,0.1285516642557063,-62.79870690317408,19.494244164289388,-93.75602271423008,-0.4088,-0.521,0.1693,-0.7299
131,4100501.0,1335.034632,1.0,8.39,2.53,4.21,-12.19,-20.5,-27.19,-5.44,7.25,6.56,-0.36773267878093,0.8463363873898677,0.1285516642557063,-62.79870690317408,19.494244164289388,-93.75602271423008,-0.4088,-0.521,0.1693,-0.7299
132,4100536.0,1335.057017,1.0,8.74,1.98,3.67,-11.5,-21.25,-27.19,3.88,3.94,5.19,-0.35784110396662205,-0.0032874134600364697,0.1294169792845885,-62.65108786966293,19.412860145181693,-94.09183027952132,-0.4069,-0.5199,0.1686,-0.7319
133,4100536.0,1335.057017,1.0,8.74,1.98,3.67,-11.5,-21.25,-27.19,3.88,3.94,5.19,-0.35784110396662205,-0.0032874134600364697,0.1294169792845885,-62.65108786966293,19.412860145181693,-94.09183027952132,-0.4069,-0.5199,0.1686,-0.7319
134,4100571.0,1335.061916,1.0,8.38,2.13,4.12,-11.06,-21.25,-26.75,-13.5,-7.69,4.25,-0.16380395421531813,0.5753671183515625,0.24747530007410745,-62.65108786966293,19.645412292934687,-94.07501482571972,-0.4063,-0.5199,0.1706,-0.7318
135,4100571.0,1335.061916,1.0,8.38,2.13,4.12,-11.06,-21.25,-26.75,-13.5,-7.69,4.25,-0.16380395421531813,0.5753671183515625,0.24747530007410745,-62.65108786966293,19.645412292934687,-94.07501482571972,-0.4063,-0.5199,0.1706,-0.7318
136,4100608.0,1335.111353,1.0,8.22,2.11,4.6,-11.06,-21.25,-26.75,5.31,1.63,-2.13,0.17460422499165146,0.9661653317380784,0.2037057683404964,-62.691336115096064,19.75008736458169,-93.95738073569972,-0.4067,-0.5202,0.1715,-0.7311
137,4100608.0,1335.111353,1.0,8.22,2.11,4.6,-11.06,-21.25,-26.75,5.31,1.63,-2.13,0.17460422499165146,0.9661653317380784,0.2037057683404964,-62.691336115096064,19.75008736458169,-93.95738073569972,-0.4067,-0.5202,0.1715,-0.7311
138,4100640.0,1335.131932,1.0,8.46,1.46,4.13,-12.19,-20.5,-27.19,9.81,10.5,-2.5,0.35768560139872985,0.08987112431065203,0.2869817184070307,-62.59743692135864,19.284990927591146,-94.24328884347399,-0.4061,-0.5195,0.1675,-0.7328
139,4100640.0,1335.131932,1.0,8.46,1.46,4.13,-12.19,-20.5,-27.19,9.81,10.5,-2.5,0.35768560139872985,0.08987112431065203,0.2869817184070307,-62.59743692135864,19.284990927591146,-94.24328884347399,-0.4061,-0.5195,0.1675,-0.7328
140,4100677.0,1335.135544,1.0,8.54,1.57,4.16,-12.56,-20.87,-25.56,7.25,9.63,4.38,0.251117413815529,0.09847393862654896,0.18223609951286332,-62.44997546195721,18.83183055191492,-94.8512940516321,-0.4028,-0.5184,0.1636,-0.7364
141,4100677.0,1335.135544,1.0,8.54,1.57,4.16,-12.56,-20.87,-25.56,7.25,9.63,4.38,0.251117413815529,0.09847393862654896,0.18223609951286332,-62.44997546195721,18.83183055191492,-94.8512940516321,-0.4028,-0.5184,0.1636,-0.7364
142,4100712.0,1335.1792990000001,1.0,8.8,1.4,3.84,-11.5,-20.87,-26.37,6.19,5.5,5.75,0.11639433557494527,-0.3382923163176041,0.11038212687651773,-62.36959041979664,18.657617598655087,-95.19059578646072,-0.4005,-0.5178,0.1621,-0.7384
143,4100712.0,1335.1792990000001,1.0,8.8,1.4,3.84,-11.5,-20.87,-26.37,6.19,5.5,5.75,0.11639433557494527,-0.3382923163176041,0.11038212687651773,-62.36959041979664,18.657617598655087,-95.19059578646072,-0.4005,-0.5178,0.1621,-0.7384
144,4100747.0,1335.185758,1.0,8.61,1.79,4.03,-11.5,-20.87,-26.37,-2.38,5.75,6.25,-0.08266492468065234,0.10592900583120456,0.13405750595006438,-62.115262460964935,18.69245669557365,-95.49691057600175,-0.3994,-0.5159,0.1624,-0.7402
145,4100747.0,1335.185758,1.0,8.61,1.79,4.03,-11.5,-20.87,-26.37,-2.38,5.75,6.25,-0.08266492468065234,0.10592900583120456,0.13405750595006438,-62.115262460964935,18.69245669557365,-95.49691057600175,-0.3994,-0.5159,0.1624,-0.7402
146,4100784.0,1335.203683,1.0,8.65,1.76,4.11,-11.06,-20.19,-27.19,13.0,9.69,9.31,-0.04879007563615978,0.10967496384119603,0.07023428728385461,-61.98154216378515,18.51827857520288,-95.90673837953938,-0.397,-0.5149,0.1609,-0.7426
147,4100784.0,1335.203683,1.0,8.65,1.76,4.11,-11.06,-20.19,-27.19,13.0,9.69,9.31,-0.04879007563615978,0.10967496384119603,0.07023428728385461,-61.98154216378515,18.51827857520288,-95.90673837953938,-0.397,-0.5149,0.1609,-0.7426
148,4100818.0,1335.249697,1.0,8.96,1.34,3.86,-11.88,-20.5,-26.37,9.88,17.44,4.06,-0.002441790095583429,-0.5160160926903001,-0.02750077318554389,-61.60762239703414,18.06561632088332,-96.59342299000929,-0.3945,-0.5121,0.157,-0.7466
149,4100818.0,1335.249697,1.0,8.96,1.34,3.86,-11.88,-20.5,-26.37,9.88,17.44,4.06,-0.002441790095583429,-0.5160160926903001,-0.02750077318554389,-61.60762239703414,18.06561632088332,-96.59342299000929,-0.3945,-0.5121,0.157,-0.7466
150,4100853.0,1335.266518,1.0,8.92,1.63,3.77,-11.88,-20.5,-26.37,-3.88,9.44,2.31,-0.3257169716351732,-0.41852686265026295,0.0007872781570625875,-61.22111365086855,17.93799404290059,-96.95578604014551,-0.3948,-0.5092,0.1559,-0.7487
151,4100853.0,1335.266518,1.0,8.92,1.63,3.77,-11.88,-20.5,-26.37,-3.88,9.44,2.31,-0.3257169716351732,-0.41852686265026295,0.0007872781570625875,-61.22111365086855,17.93799404290059,-96.95578604014551,-0.3948,-0.5092,0.1559,-0.7487
152,4100888.0,1335.30989,1.0,8.67,1.81,4.04,-12.56,-20.87,-27.19,6.25,2.75,6.06,-0.2719733405087336,-0.022400531878044028,0.07566193515148889,-61.12793410600524,17.868391355752113,-97.21541095446709,-0.3929,-0.5085,0.1553,-0.7502
153,4100888.0,1335.30989,1.0,8.67,1.81,4.04,-12.56,-20.87,-27.19,6.25,2.75,6.06,-0.2719733405087336,-0.022400531878044028,0.07566193515148889,-61.12793410600524,17.868391355752113,-97.21541095446709,-0.3929,-0.5085,0.1553,-0.7502
154,4100923.0,1335.385754,1.0,8.88,1.44,3.82,-10.69,-20.87,-25.56,4.0,6.31,-1.0,-0.18192923783439496,-0.5090722388813802,0.04815896869698655,-61.12793410600524,17.578451378167774,-97.52784465140512,-0.3907,-0.5085,0.1528,-0.752
155,4100923.0,1335.385754,1.0,8.88,1.44,3.82,-10.69,-20.87,-25.56,4.0,6.31,-1.0,-0.18192923783439496,-0.5090722388813802,0.04815896869698655,-61.12793410600524,17.578451378167774,-97.52784465140512,-0.3907,-0.5085,0.1528,-0.752
156,4100960.0,1335.3907140000001,1.0,8.69,1.51,3.88,-10.69,-20.87,-27.19,-3.88,-1.88,-2.0,-0.1590875022853272,-0.3515720723159539,0.17847840594414244,-61.088013713590534,17.613238149656624,-97.44096021432264,-0.3918,-0.5082,0.1531,-0.7515
157,4100960.0,1335.3907140000001,1.0,8.69,1.51,3.88,-10.69,-20.87,-27.19,-3.88,-1.88,-2.0,-0.1590875022853272,-0.3515720723159539,0.17847840594414244,-61.088013713590534,17.613238149656624,-97.44096021432264,-0.3918,-0.5082,0.1531,-0.7515
158,4100993.0,1335.394217,1.0,8.33,1.73,4.47,-10.69,-20.87,-27.19,4.0,-0.5,3.56,0.12757176828698974,0.3338953037718466,0.2027477009313987,-61.18117407576951,17.648026557290144,-97.42359233173357,-0.3911,-0.5089,0.1534,-0.7514
159,4100993.0,1335.394217,1.0,8.33,1.73,4.47,-10.69,-20.87,-27.19,4.0,-0.5,3.56,0.12757176828698974,0.3338953037718466,0.2027477009313987,-61.18117407576951,17.648026557290144,-97.42359233173357,-0.3911,-0.5089,0.1534,-0.7514
160,4101029.0,1335.439236,1.0,8.71,1.51,3.97,-11.06,-20.87,-27.19,-2.31,4.31,-3.31,-0.11621037397672905,-0.3116983606860291,0.12189707176657905,-61.03479928474157,17.54366623938741,-97.58001140346657,-0.3912,-0.5078,0.1525,-0.7523
161,4101029.0,1335.439236,1.0,8.71,1.51,3.97,-11.06,-20.87,-27.19,-2.31,4.31,-3.31,-0.11621037397672905,-0.3116983606860291,0.12189707176657905,-61.03479928474157,17.54366623938741,-97.58001140346657,-0.3912,-0.5078,0.1525,-0.7523
162,4101066.0,1335.502174,1.0,8.3,1.65,4.54,-11.5,-20.19,-25.56,-3.75,-3.0,-0.81,0.21937368703478355,0.3152873899207289,0.2109963460171844,-61.008197532736816,17.613238149656624,-97.49308186392095,-0.392,-0.5076,0.1531,-0.7518
163,4101066.0,1335.502174,1.0,8.3,1.65,4.54,-11.5,-20.19,-25.56,-3.75,-3.0,-0.81,0.21937368703478355,0.3152873899207289,0.2109963460171844,-61.008197532736816,17.613238149656624,-97.49308186392095,-0.392,-0.5076,0.1531,-0.7518
164,4101099.0,1335.50827,1.0,8.31,1.67,4.46,-11.5,-20.19,-25.56,-3.63,1.37,3.19,0.13963566597102686,0.2877493360039649,0.23406925077578045,-60.98159941844144,17.717608294742977,-97.51046175424892,-0.3917,-0.5074,0.154,-0.7519
165,4101099.0,1335.50827,1.0,8.31,1.67,4.46,-11.5,-20.19,-25.56,-3.63,1.37,3.19,0.13963566597102686,0.2877493360039649,0.23406925077578045,-60.98159941844144,17.717608294742977,-97.51046175424892,-0.3917,-0.5074,0.154,-0.7519
166,4101134.0,1335.5262910000001,1.0,8.46,1.71,4.18,-10.69,-20.19,-27.19,-3.94,2.69,-0.69,-0.1141767318591128,0.06436401223991406,0.21754571712610904,-60.84866331035058,17.787196618044018,-97.52784465140512,-0.3926,-0.5064,0.1546,-0.752
167,4101134.0,1335.5262910000001,1.0,8.46,1.71,4.18,-10.69,-20.19,-27.19,-3.94,2.69,-0.69,-0.1141767318591128,0.06436401223991406,0.21754571712610904,-60.84866331035058,17.787196618044018,-97.52784465140512,-0.3926,-0.5064,0.1546,-0.752
