TIME,ELAPSED_SECONDS,PSTATE,acc_x,acc_y,acc_z,mag_x,mag_y,mag_z,gyr_x,gyr_y,gyr_z,lin_x,lin_y,lin_z,eul_x,eul_y,eul_z,qua_w,qua_x,qua_y,qua_z
564703.0,470.491289,1.0,-1.55,0.2,-9.28,-2.69,17.25,46.88,0.25,23.69,-2.56,-0.3763933705059082,-0.013392361459496738,0.40350963758416825,-163.84428828550256,-13.438148492237522,8.926544631079112,-0.00044295756976303423,-0.9900780404373928,-0.11700136547702637,0.07782003667921993
564738.0,470.552864,1.0,-1.48,-0.4,-9.72,-2.69,16.56,45.25,-0.19,13.06,0.88,0.14714255615639354,-0.08614774998260566,-0.032035259390132964,-164.08858001550527,-13.438819086430911,8.470577554326944,0.0034344462432446443,-0.9903753545752227,-0.11700717732009293,0.07385243452038907
564774.0,470.563234,1.0,-1.53,-0.45,-9.65,-3.88,16.56,47.38,-0.37,8.75,1.94,0.12476474051503031,-0.1619059845211266,0.027891376754384467,-164.15670353640343,-13.391784094558986,8.39484880510979,0.006426362628529377,-0.9904574614636524,-0.11659952914502413,0.07319336511940652
564807.0,470.608761,1.0,-1.49,0.01,-9.71,-3.88,16.56,47.38,-7.0,5.63,2.06,-0.21014664983298842,-0.047213493487596736,-0.014648756864934498,-164.32624941598485,-13.307274892724381,8.243326042939364,0.0010324429425739405,-0.9906602893873654,-0.11586704594853257,0.07187456264682526
564842.0,470.649788,1.0,-1.44,-0.06,-9.98,-3.5,17.0,45.25,-1.75,7.25,1.25,-0.055485744551543016,-0.032683689332815846,-0.2766754984951856,-164.5230972762008,-13.239211354719988,7.974084080260005,-0.0027578988798501076,-0.9908930580493783,-0.11527705964820376,0.0695308638101398
564877.0,470.67724,1.0,-1.66,0.12,-9.75,-4.56,18.06,45.69,-1.5,3.56,-1.63,-0.2319480485603082,-0.2125068319870863,-0.07937756162089116,-164.39286921262914,-13.280311643625302,8.138368115231824,-0.00537852455931578,-0.990739393263712,-0.11563332880633734,0.07096097080918638
564912.0,470.711973,1.0,-1.39,-0.25,-10.29,-4.56,17.0,44.38,4.31,4.69,-3.63,0.09609296489281455,0.005409036117412502,-0.5793712249170007,-164.4085575236922,-13.424653503344715,7.892661245587733,-0.0004523342413032859,-0.9907579727417453,-0.11688440751744994,0.06882201771014902
564946.0,470.744049,1.0,-1.42,0.97,-10.33,-4.56,17.0,44.38,-1.0,-13.88,-3.75,-1.0014584049255593,0.338246082640565,-0.6120289302090622,-164.07382775686298,-13.53233867399869,8.34143330209661,-0.004641000566113863,-0.9903575280894381,-0.11781764480412878,0.07272846927532119
564983.0,470.794117,1.0,-1.0,1.44,-11.31,-5.0,17.25,46.06,36.19,-35.69,-38.81,-1.4673483007698749,1.2813521032958706,-1.471413918581371,-162.3824072072072,-14.764656212956,9.552952348946029,0.002796901027520026,-0.9882048824845939,-0.12848972661528002,0.08326870800356245
565018.0,470.813915,1.0,-1.77,0.23,-9.31,-4.19,17.0,45.25,43.0,-65.19,-51.38,-0.6469868036630457,0.3720919335328421,0.35652536225655496,-159.50749239726548,-16.400071947519518,12.134388863427429,0.011244798965290683,-0.9840523301148023,-0.14262955514693434,0.10569473066546904
565053.0,470.861392,1.0,-2.04,0.85,-8.96,-4.19,17.0,45.25,24.44,-58.5,-74.12,-1.3639814987495085,0.6219742657812742,0.7006957675334817,-156.20781432524728,-18.86869766189479,14.256982907665913,0.014973118497789262,-0.9785230444781409,-0.16391738305899842,0.12409491802153287
565088.0,470.887877,1.0,-2.87,0.15,-6.55,-2.0,18.5,44.88,52.06,-16.81,-96.0,-1.2912483485365756,-0.7220172621146888,2.8085596336493355,-152.84041346018154,-21.943416158111205,15.386104820446223,0.031421066063767746,-0.9720438686339047,-0.19032425722310464,0.13386601947888813
565125.0,470.93276,1.0,-2.13,-1.11,-7.37,-0.06,19.19,44.88,56.56,39.69,-95.94,-0.32020430934357313,-0.3209271634573818,2.068408923629156,-150.22392689623268,-24.959187020787088,14.594551782030488,0.05643056144148121,-0.9664297479830779,-0.2160918822096917,0.12701744916284663
565159.0,470.966672,1.0,-2.06,-3.1,-5.84,-0.06,19.19,44.88,25.12,86.69,-75.81,1.1904645764765303,-1.7793535625614856,3.2206121173611297,-148.86786474973096,-27.30439215468521,11.852997234239826,0.07510873166327846,-0.9633216607122905,-0.23602746546950973,0.10325256400926536
565192.0,470.988213,1.0,-0.74,-1.66,-7.96,-3.88,21.37,44.06,-0.63,135.06,-68.5,-0.05754264200846486,-0.1790984316268049,1.6439658461116782,-148.14735272632922,-29.33489573206016,6.721319979150528,0.088005938482421,-0.9616153418352388,-0.2532083583050499,0.05862095549704475
565229.0,471.035908,1.0,-0.17,-1.85,-7.94,-8.69,22.87,43.19,17.81,102.37,-70.87,-0.03425066414115546,-0.2532025026437383,1.656207350385145,-146.07339786052248,-31.453088198657284,2.938527131496991,0.10487982708499578,-0.9564918288778128,-0.2710464146109343,0.025640676417667103
565266.0,471.052996,1.0,0.54,-4.05,-6.96,-14.38,21.37,42.06,-26.62,147.75,-43.44,2.026346804721365,-1.5565231026316302,2.151138622046888,-144.91124266164329,-32.38152161378011,-2.389105535910036,0.11262534081845674,-0.9534837518398436,-0.2788362508881165,-0.02084736850543897
565299.0,471.098376,1.0,1.33,-1.89,-6.6,-14.38,21.37,42.06,-66.31,189.38,-38.25,0.5139203976089501,-0.5952171765336814,2.8580816339492827,-143.23261666891702,-32.819394348747565,-9.719965921070303,0.1117041605132878,-0.9489658176955251,-0.28250381440624706,-0.08472102581653297
565338.0,471.141739,1.0,3.9,-2.62,-9.29,-19.56,19.87,41.25,-56.56,209.94,-36.88,1.262144098238112,-0.47653456998211174,-0.5160631646139731,-139.95862304349208,-32.96962725898535,-17.659050419434422,0.11458108968953758,-0.9395690621910533,-0.283761197482204,-0.15349506201323948
565374.0,471.168678,1.0,5.36,-2.49,-10.14,-27.0,16.87,37.88,-69.87,169.88,-9.06,1.278715127039976,-0.6722591099145765,-1.840764104126979,-137.25358751574367,-32.07707422272028,-24.249043395009345,0.11121684361562761,-0.9312263447734063,-0.2762838375348269,-0.21003701962551202
565407.0,471.213728,1.0,6.17,-0.82,-10.46,-27.0,16.87,37.88,-62.88,120.81,14.31,-0.03132815478320339,-0.22187878632187763,-2.3630947939921203,-135.38187607828203,-30.611895736306348,-29.205186848098972,0.10418811471343338,-0.9251496916279943,-0.2639731791358934,-0.25211316016816154
565442.0,471.237378,1.0,6.56,-0.33,-10.88,-32.56,15.69,34.06,-44.19,77.56,6.75,-0.417452750761821,-0.515105690873054,-2.884973195167417,-134.1003313862323,-29.789458805109764,-32.204097286410686,0.09511829094361714,-0.9208466077653223,-0.2570438958281439,-0.2773490063305694
565479.0,471.290411,1.0,6.92,-2.41,-9.95,-36.38,13.88,30.37,-34.25,31.0,20.37,1.7378985756457355,-1.0961118302597845,-2.3783919529984825,-134.121125284296,-28.536660111137294,-33.39532093538574,0.09280871899908309,-0.9209173487861788,-0.2464633566068345,-0.2873214092831878
565516.0,471.328443,1.0,6.88,-0.61,-10.17,-37.06,13.5,30.06,-61.13,13.81,53.63,0.17611838524240597,-0.3806497840847287,-2.479907209253371,-135.64253126994996,-26.006663287141368,-33.898071276341724,0.08301285660224315,-0.9260107586631863,-0.22500771178002882,-0.29152095999821576
565549.0,471.359007,1.0,6.59,-0.14,-10.48,-37.06,13.5,30.06,-35.13,-1.37,49.31,-0.3591904982299078,-0.4655437274435017,-2.5599320348154144,-137.217142702693,-24.046380098603297,-33.66162173242117,0.07618522859692385,-0.9311103903914729,-0.20830757189187746,-0.2895465547043924
565587.0,471.392972,1.0,6.45,-0.53,-10.68,-37.88,13.88,30.06,-16.94,-35.13,69.75,-0.13077144865116608,-0.4308321839485507,-2.6730568257828775,-139.98554512090695,-21.62906498878865,-32.035942659180506,0.07557404570668191,-0.9396494699940465,-0.18763045577181967,-0.2759388505127375
565622.0,471.426399,1.0,5.35,0.76,-8.64,-36.0,15.0,30.5,-26.62,-56.0,90.69,-1.1177331900207588,0.5552160870339549,-0.3073060812090116,-143.52369838009386,-18.59669010968948,-30.021678185528476,0.0689934012619935,-0.9497638704787695,-0.1615753164567198,-0.2590017722476038
565657.0,471.466265,1.0,5.06,1.55,-9.45,-36.0,15.0,30.5,-13.81,-45.13,65.75,-2.0771423665459015,0.4692478464812826,-0.8128549812913928,-146.18127449034125,-16.473732630849952,-28.33358918622319,0.06460068891767537,-0.9567660673761164,-0.14326576435613975,-0.24474550878913673
565690.0,471.481029,1.0,4.61,0.98,-9.38,-34.06,17.19,32.5,1.88,-53.31,62.31,-1.6469146901060963,0.3036862680155812,-0.5563778709521721,-148.91128608096363,-14.600789794359251,-26.24663708268477,0.06417001270483717,-0.9634232751877687,-0.12707144498874712,-0.22704768257880453
565727.0,471.545291,1.0,4.39,2.59,-9.94,-31.06,18.37,33.0,21.94,-115.94,39.81,-3.300105193576062,1.0801996817494264,-0.8106130352120733,-152.84923371396354,-13.773911016845684,-22.006289201857424,0.06548548474442643,-0.9720619385474495,-0.1199108153268744,-0.19086287036195929
565764.0,471.55892,1.0,2.7,0.81,-7.24,-31.06,18.37,33.0,64.25,-112.31,20.44,-1.581589636914727,0.6559768127348027,2.2282617385318497,-155.66729887757714,-13.833807632203417,-17.74970343639883,0.078174424084301,-0.9775398353959125,-0.12042972406763233,-0.15427673575174622
565796.0,471.604967,1.0,2.38,0.39,-8.51,-28.5,18.0,36.25,36.06,-57.81,3.19,-1.5287434684052712,0.25139325865563844,1.0982434386760058,-156.83639897139034,-14.1370567943535,-15.49638534886947,0.08359468892794147,-0.9796390707621744,-0.12305638696859125,-0.1348196745490093
565833.0,471.64397,1.0,2.76,1.1,-10.33,-23.56,21.37,35.5,57.5,-95.0,-31.44,-2.5185118043148327,1.0518190632872946,-0.5898530154197683,-157.36757942351662,-15.830974897667712,-12.037672635689253,0.09243571270790384,-0.9805591816486562,-0.13771228262923707,-0.10485541241988741
565868.0,471.668909,1.0,1.01,-1.75,-6.07,-21.75,22.5,37.5,50.44,-84.5,-15.31,0.51134358316969,-0.285912273681936,3.4360705984299047,-157.45010307075268,-16.75967740811864,-8.679126798625159,0.10612652860515845,-0.9807002386914868,-0.14573491339210198,-0.07566727677983204
565903.0,471.728411,1.0,1.33,0.91,-8.35,-21.75,22.5,37.5,15.69,-29.94,-45.06,-2.3408444677025018,0.7251638593812351,1.6633039705675081,-156.4958596571499,-18.518927100443257,-7.754296338616589,0.10498407118379496,-0.9790381140028078,-0.1609055857091884,-0.06761736918191924
565940.0,471.737381,1.0,1.51,-2.37,-7.7,-20.25,23.19,37.06,49.94,-4.56,-71.0,0.647487311340433,-0.13420384158225396,1.6365980105352023,-153.48097108495898,-21.086247664258536,-7.574489619747455,0.12150745088356268,-0.9733411843415412,-0.18297552342038703,-0.06605176813242698
565977.0,471.769471,1.0,2.06,-3.29,-8.52,-20.19,24.06,38.75,22.56,15.31,-50.44,1.2622431381015053,-0.1838705020828153,0.5313584197433716,-151.3087107329456,-22.791854090582746,-8.213678133943315,0.13122733557704688,-0.9688186523835606,-0.19758765586237753,-0.07161650258049033
566011.0,471.809,1.0,2.26,-2.89,-8.54,-20.19,24.06,38.75,8.69,31.0,-55.38,0.8273402794037634,-0.10272717644452634,0.5494228131315797,-149.06554658842495,-24.56213293193407,-9.582017303479919,0.13748348524768336,-0.9637831564134094,-0.2127075074890971,-0.08352146404207383
566044.0,471.85038,1.0,2.77,-2.37,-9.42,-22.0,24.37,38.25,1.94,26.0,-40.06,0.22198881725362385,0.21773623793976982,-0.28936465409505807,-147.40025948109687,-25.848551962066697,-10.996569999621947,0.13988102886173814,-0.9598059275143499,-0.2236630981820844,-0.09581595788015303
566081.0,471.87277,1.0,2.8,-2.11,-8.8,-24.37,23.19,35.88,17.44,28.37,-46.25,0.052233061886787974,0.19343025071574194,0.3360662563570571,-145.2552852919996,-27.39156023121945,-12.415859994314982,0.14628132098105856,-0.9543844912360047,-0.23676658997891506,-0.10813694969798907
566118.0,471.928298,1.0,3.2,-3.4,-9.24,-25.5,22.87,34.56,7.94,32.13,-41.25,0.9884348836706587,-0.3915624498637513,-0.4912757779710031,-143.40344102080974,-28.61866084282758,-13.67061784153033,0.15271572838751735,-0.9494349059587235,-0.2471568103392338,-0.11901586765282972
566151.0,471.980428,1.0,3.69,-2.89,-10.0,-25.5,22.87,34.56,7.19,27.56,-20.44,0.328991962802437,-0.0363495678292276,-1.2323102317124945,-142.1322346979345,-29.16804915609657,-14.824519792166553,0.1588685293132067,-0.9458936403686734,-0.2517995281848498,-0.12900778701242968
566188.0,472.002912,1.0,3.43,-3.09,-9.33,-27.69,21.75,35.75,0.88,11.81,-14.06,0.5313039473026492,-0.31596135658105595,-0.5846821829651905,-141.46062027038863,-29.51255272840035,-15.231945789224744,0.16269271063692783,-0.9439756654783333,-0.25470788000411254,-0.13253271578805464
566224.0,472.052788,1.0,3.6,-2.7,-9.53,-27.69,21.5,35.0,-10.38,18.31,-7.56,0.14542107810535504,-0.14299067405224353,-0.7303944801745423,-140.9960136043767,-29.557276590695004,-16.055574246194478,0.163943155850062,-0.9426298780940167,-0.2550852774151914,-0.13965334160125384
566259.0,472.057765,1.0,3.33,-2.15,-9.02,-27.69,21.5,35.0,-1.31,4.44,-3.5,-0.165806304065176,-0.020549857690490114,-0.04443552256456407,-141.03937989604213,-29.699788636549492,-16.146444227061707,0.16063790463425315,-0.9427561496311542,-0.25628759024440934,-0.14043851684659475
566292.0,472.112119,1.0,3.19,-1.85,-9.05,-28.5,20.56,34.69,-7.44,10.5,-4.31,-0.41028372925689494,-0.06379452946638708,0.04300838841279564,-141.07257223322267,-29.803219200726044,-16.487647025497296,0.15600645033559105,-0.9428527059976204,-0.2571599412882509,-0.14338593669979116
566329.0,472.11911,1.0,3.59,-1.92,-9.46,-29.56,21.37,34.88,-4.31,5.69,5.69,-0.26701072772161194,0.09522182365237519,-0.48828749741016786,-141.31143012632623,-29.632532983772673,-16.735018714588723,0.1521609104848953,-0.943545209185189,-0.25572023251121506,-0.14552201973754952
566364.0,472.175461,1.0,3.49,-1.73,-9.38,-29.56,21.37,34.88,3.88,0.19,-2.25,-0.38918120583563187,0.11695898614989186,-0.34186016576241585,-141.3147538954534,-29.800787601222,-16.711552679997865,0.14988624352797048,-0.9435548166323572,-0.2571394351647315,-0.1453194167828769
566398.0,472.18397,1.0,3.31,-1.66,-9.04,-29.19,21.0,33.69,-9.56,0.69,-0.06,-0.29493658190768923,0.03388340211986618,0.04216515297845014,-141.5973946017153,-29.814507396023345,-16.773370693690257,0.1439237763725691,-0.944368892753313,-0.25725513518791815,-0.14585313302766764
566433.0,472.240815,1.0,3.46,-2.11,-9.25,-29.87,21.0,33.69,2.88,2.75,-2.38,0.0156052488993067,-0.07161261937495933,-0.29190574371667566,-141.51407201727554,-29.814911141665583,-16.566397249843472,0.1472498256080009,-0.9441294997855061,-0.2572585399483103,-0.14406602693503748
566468.0,472.294997,1.0,3.22,-1.3,-9.16,-29.5,20.19,33.75,-6.38,-3.56,2.06,-0.6216798813532984,0.16600361664773633,0.03168417272569535,-141.85699282242524,-29.799642782014182,-16.468954236119522,0.14189855012856534,-0.94511153912906,-0.2571297806547992,-0.1432244950311412
566503.0,472.300988,1.0,2.95,-1.67,-8.53,-29.5,20.19,33.75,2.5,1.0,-5.94,-0.1775561162976383,-0.10491236884450195,0.6300620055203137,-141.86371063059963,-30.02912984314775,-16.237732113870543,0.14024403951490363,-0.94513069275179,-0.2590645807202731,-0.14122721414547773
566538.0,472.350283,1.0,3.32,-1.94,-9.54,-30.37,19.87,34.5,-2.0,8.25,1.94,-0.10363955534013397,-0.1323477317270687,-0.47777234257596035,-142.05235575049971,-29.906402826336805,-16.186282303979155,0.1389756946600941,-0.9456672257776129,-0.2580300008546166,-0.1407827157103611
566575.0,472.371313,1.0,3.23,-1.49,-8.91,-29.56,20.19,33.25,-3.44,-1.94,2.63,-0.22612283444887143,0.1304868285214822,0.21639757103217683,-142.284978139976,-29.884534767280826,-16.203467347513342,0.1346196383210017,-0.9463253074538247,-0.2578456235990527,-0.1409311883209758
566609.0,472.413906,1.0,3.31,-1.82,-8.86,-29.56,20.19,33.25,-3.75,5.38,-4.06,0.04612045690366201,-0.028717776220263058,0.17518343499631328,-141.9468514772449,-29.939943299954603,-16.630778551817958,0.13652595511051807,-0.9453674726746933,-0.25831277405899583,-0.14462197601944848
566642.0,472.436863,1.0,3.4,-1.64,-9.16,-29.56,19.87,34.88,-2.56,8.69,1.75,-0.11785380312871291,0.00456334836334249,-0.09997857166552748,-141.97329188645452,-29.899947303886137,-16.995667318881654,0.13322985564245426,-0.9454426690131761,-0.25797557306388136,-0.14777201655622993
566679.0,472.478752,1.0,3.59,-1.58,-9.48,-30.0,20.56,34.88,-2.56,-0.56,-2.38,-0.10892258514129494,0.07875397981967458,-0.4518505571530156,-141.9924282443339,-30.050796331373235,-17.123067488494335,0.12908708636195299,-0.9454970612830416,-0.2592471968201491,-0.14887149552754866
566716.0,472.519351,1.0,3.36,-1.9,-8.85,-30.0,20.56,34.88,2.38,-4.06,-2.13,0.2026510132471842,-0.08804955319125995,0.1540192786363832,-141.92187738930437,-30.075830822571188,-16.86860766628174,0.13259910227679242,-0.9452964003224174,-0.2594581886077997,-0.14667529436557547
566749.0,472.552267,1.0,3.29,-1.51,-8.93,-29.5,20.56,34.06,-8.25,4.13,2.19,-0.09075721382871393,-0.00750935643692352,0.17125656030570013,-142.1489880085556,-30.005589774829748,-17.04815432458726,0.12733087258843245,-0.945941068843744,-0.2588661626444143,-0.14822500800600188
566786.0,472.603864,1.0,3.69,-1.4,-9.44,-29.5,20.56,34.88,-4.69,3.0,0.25,-0.11169888559735569,0.1809845646359114,-0.42293786786251175,-142.09781643303975,-30.035437971908145,-17.457486211269355,0.12368331231189716,-0.945796139130089,-0.2591177497697532,-0.15175669084569096
566820.0,472.621685,1.0,3.41,-1.77,-8.91,-29.5,20.56,33.69,-1.75,0.0,-2.44,0.18992710032542998,-0.1017737809866377,0.10599693981556513,-142.0135421596334,-30.03010966742757,-17.38602172972892,0.12633197837636173,-0.9455570438717769,-0.2590728393739073,-0.15114023925719694
566855.0,472.663346,1.0,3.44,-1.22,-9.0,-29.5,20.56,33.69,-1.06,-0.63,1.56,-0.22187018221233346,0.16017388972808444,0.09855451492701839,-142.11022200195774,-30.05452931214104,-17.48407028239422,0.12279252040869255,-0.9458312918851957,-0.2592786593306639,-0.15198598961139756
566890.0,472.708279,1.0,3.63,-1.98,-9.31,-29.87,20.19,34.5,7.94,2.75,-5.25,0.2960408110482596,-0.13102828328266858,-0.375127419840501,-141.74559900385086,-30.18904453366798,-17.473417669884313,0.1283704669810772,-0.9447934628261795,-0.2604122039441087,-0.1518941073410968
566927.0,472.731218,1.0,3.35,-1.76,-8.6,-30.25,21.0,34.06,-0.94,-2.0,1.06,0.16519603087401152,-0.051883009318272055,0.4124965828618947,-141.7520584344825,-30.079070924641943,-17.35341525173109,0.13129838815626846,-0.944811931610576,-0.25948549542501403,-0.15085895670424515
