TIME,ELAPSED_SECONDS,PSTATE,acc_x,acc_y,acc_z,mag_x,mag_y,mag_z,gyr_x,gyr_y,gyr_z,lin_x,lin_y,lin_z,eul_x,eul_y,eul_z,qua_w,qua_x,qua_y,qua_z
1108926.0,1015.663801,1.0,-1.18,-0.8,-9.52,-6.5,17.0,45.25,2.13,-5.06,2.44,-0.03986529095998673,-0.06920332880607016,0.18082942937544644,-141.78478940599567,-37.282679082751734,7.742176209227621,0.02059426712357986,-0.9449054697558966,-0.319643051652991,0.06751184279068641
1108963.0,1015.702726,1.0,-1.0,-0.73,-9.82,-7.56,16.69,45.0,-0.75,-3.69,2.06,0.026776342575315915,0.10325303500600108,-0.09051736436442859,-141.90825489383187,-37.22672959512838,7.469959107393812,0.0191966460125589,-0.9452576139033891,-0.31918037681399203,0.06514153203922712
1108998.0,1015.76395,1.0,-1.03,-0.69,-9.6,-6.75,17.37,44.5,5.81,-0.81,1.25,-0.025732910930672953,0.03481805819597683,0.12702575522074078,-142.01556469521574,-37.16839310675061,7.247496369754876,0.01865223229902403,-0.9455627880147516,-0.3186978816225946,0.06320418025181254
1109030.0,1015.778464,1.0,-1.07,-0.8,-9.85,-6.75,17.37,44.5,2.44,-3.63,0.75,-0.012576549005405613,0.0405799890651517,-0.1334503563798375,-141.94164972381628,-37.15418632361467,7.537213116627424,0.02224437474227313,-0.945352672999369,-0.3185803662457781,0.06572717617530398
1109065.0,1015.816908,1.0,-1.14,-0.81,-9.77,-6.5,17.37,44.5,2.13,0.88,0.63,-0.003948537709388189,0.012197168730967767,-0.06292119829047671,-141.93752277359158,-37.09822967272366,7.857589155431096,0.020911103102219983,-0.9453409298952438,-0.31811745756172954,0.06851667845353643
1109102.0,1015.846863,1.0,-1.22,-0.88,-9.29,-6.5,17.37,44.06,4.31,3.5,2.94,-0.0279457322388513,-0.09739739945685777,0.39619662183438464,-141.96800278735913,-36.97320321506589,8.16606827674915,0.023564819755253288,-0.9454276308796355,-0.31708288597812934,0.07120208886684862
1109137.0,1015.892396,1.0,-1.12,-0.72,-9.24,-6.5,17.37,44.06,-5.06,4.94,4.56,-0.031741749173780115,-0.0073833688720994495,0.47126902506258084,-142.24279236601075,-36.80355963228596,7.840953991837593,0.01913349936923116,-0.9462062545831734,-0.3156785123488084,0.06837184969571651
1109172.0,1015.917778,1.0,-1.23,-0.85,-8.84,-6.5,17.37,44.06,-0.88,14.5,1.94,-0.03894841064412505,-0.23295461628885866,0.844216448332352,-142.33320496313644,-36.72010845120566,7.7245039907807085,0.02137589376513092,-0.9464612517085909,-0.3149874178942843,0.06735797464473345
1109207.0,1015.958674,1.0,-2.01,-1.51,-7.4,-6.75,17.0,44.5,-7.88,58.69,8.81,-0.09745222379125773,-1.637223600915613,2.1653018241423467,-142.9661508276197,-36.37291076077124,6.054510228923581,0.02565581502861967,-0.9482298852902644,-0.31211033809622274,0.052810989870393746
1109243.0,1015.978771,1.0,-0.28,-0.83,-8.52,-7.56,16.69,45.0,-39.63,152.13,22.25,0.03146341541442199,-0.5142770244853239,1.2572506529360794,-144.31227754097577,-35.50540125677456,0.26625514775225395,0.030343229142415464,-0.9518950970321873,-0.3049091897293799,0.002323512398663774
1109276.0,1016.020634,1.0,1.28,0.47,-10.02,-7.56,16.69,45.0,-37.19,129.81,14.56,-0.48352497357723423,0.6966940579170874,-0.27008166208122475,-144.63865066574786,-34.831857520945945,-4.797631151718011,0.03008064418862002,-0.9527639745820731,-0.29930606839740526,-0.04185499975219795
1109315.0,1016.06633,1.0,1.3,0.1,-8.64,-12.75,15.88,44.06,-19.87,132.0,3.88,-0.36884769098691444,-0.1101774492843004,1.077307968064094,-143.819249554018,-34.500284716595765,-9.77263752490989,0.03502681115916779,-0.9505679069008542,-0.2965439478372799,-0.08517901074343215
1109350.0,1016.097708,1.0,2.74,0.8,-9.76,-17.25,15.5,42.5,-30.0,152.19,-3.94,-0.641698998044858,0.3485683111981497,-0.3359296781852663,-141.8595210727064,-34.325689962528436,-15.510077848875508,0.0382758312278413,-0.9451187479852149,-0.29508851147280335,-0.13493807226814425
1109385.0,1016.146493,1.0,4.21,0.97,-11.09,-17.25,15.5,42.5,4.31,115.12,-12.06,-0.6381602378885449,0.5387382534014975,-2.065822893424521,-139.4792352553466,-34.60125664205653,-19.67053869973431,0.04794330267352352,-0.9381286018310522,-0.29738534422528845,-0.17081605075424539
1109420.0,1016.165742,1.0,5.54,0.9,-12.66,-22.56,13.69,39.88,26.37,67.06,-22.06,-0.5721583874527405,0.5946822302213088,-4.017104476433911,-137.3119392631283,-35.42815646749118,-22.00316557014718,0.0589503508555625,-0.9314118030531614,-0.30426713165704017,-0.19083611256903815
1109456.0,1016.214653,1.0,4.31,0.35,-10.37,-27.06,13.69,37.0,64.62,-18.0,-28.56,-0.39052578057314347,0.37687482761057756,-1.4156917778564022,-136.39591968063644,-36.976289166370854,-20.739543408116955,0.07057477105215125,-0.928472602810722,-0.31710842622183694,-0.18000020427746635
1109493.0,1016.244679,1.0,4.49,-1.15,-11.13,-27.75,15.5,37.5,69.37,-40.06,-32.69,0.5102143927406653,-0.13437965445843636,-2.238312572872861,-135.60696980851523,-38.57244422819711,-18.540743051850395,0.08763681972030948,-0.9258935645277354,-0.33028742784192766,-0.1610934821927869
1109526.0,1016.270532,1.0,4.76,-1.21,-12.68,-27.75,15.5,37.5,60.0,-179.81,-1.12,0.8390962189564204,1.143957668665026,-3.7170838922220515,-137.3781912865718,-39.40985647835743,-11.731110890288852,0.08915585808779583,-0.9316220778547055,-0.33717623682343417,-0.10219453186886743
1109565.0,1016.325315,1.0,1.55,-0.17,-8.33,-26.25,17.37,36.69,118.44,-263.88,-17.94,-0.36607113190276896,1.3730489579041119,1.451949018780752,-137.2984553084018,-41.22973544443798,-1.6060823940748754,0.09160729658927948,-0.9313689687039076,-0.3520845353051169,-0.014015254047038713
1109600.0,1016.384187,1.0,-0.8,-4.42,-6.12,-18.75,18.19,41.69,86.06,-174.81,-13.25,1.7256858752719961,-2.531111721653111,2.8606956586299868,-135.7684724305669,-42.22008650836704,5.34904362672116,0.09921555174502461,-0.9264250852445061,-0.3601603380107907,0.046662261471053706
1109635.0,1016.401143,1.0,-0.36,-4.28,-9.48,-18.75,18.19,41.69,-25.06,-104.81,35.75,1.9640554470491645,-1.1238873072917928,-0.3519800021914836,-136.4837903868751,-41.36556703750593,8.737024725325542,0.08283929668289884,-0.928757126169767,-0.3531937415964878,0.07617107332203979
1109669.0,1016.413184,1.0,-1.51,-1.82,-8.14,-12.5,21.75,41.69,-75.56,-131.13,55.19,0.3376746938283237,-0.3456752873217741,1.3438735999712872,-137.58060054310863,-39.96896332352229,12.606812963719753,0.04503526189247764,-0.9322625676373819,-0.3417656187054473,0.10979340617411619
1109706.0,1016.464081,1.0,-3.31,1.55,-6.88,-8.0,21.06,42.88,-33.06,-48.56,17.5,-3.083422134878061,0.1964577327274344,2.6549430500896767,-137.761628295852,-39.529058612592024,13.951355588153007,0.026908032002497438,-0.932832935327257,-0.3381553745337571,0.12144799404033244
1109743.0,1016.480836,1.0,-1.52,-2.74,-9.76,-2.69,18.37,43.75,11.0,-18.81,10.31,1.4266054009633962,-0.2859823224038984,-0.3402022774905209,-137.76959076931124,-39.18072367336091,14.708767793033475,0.031128839906628927,-0.9328579694078891,-0.33529309428214704,0.1280060356583251
1109778.0,1016.531409,1.0,-2.28,-0.74,-8.92,-2.69,18.37,43.75,-32.44,-27.19,19.56,-0.3035938516630512,0.14977797745691435,0.5763847096250121,-138.18727471297225,-38.633573406218495,15.287162627579288,0.014888523143513868,-0.9341648531347821,-0.33079089638425674,0.13301030755387208
1109815.0,1016.565343,1.0,-3.19,-0.31,-7.57,-2.0,19.56,44.19,-22.25,3.31,17.56,-1.1391294599954058,-0.6847314014580981,1.6942750714585575,-138.76979904551428,-38.081995602531556,15.201878578217807,0.00588091408207278,-0.9359667742922755,-0.3262446336720285,0.1322726399172394
1109850.0,1016.593271,1.0,-1.66,-0.67,-10.7,-1.19,18.75,45.0,2.88,37.56,1.44,0.12772367807143525,0.7793845386347575,-1.0132735858206061,-139.42023822499118,-38.024334524424674,13.59919797884661,0.010304451953829142,-0.9379501929248508,-0.3257689362920784,0.1183970185827938
1109884.0,1016.638931,1.0,-1.97,-1.24,-9.6,-1.19,18.75,45.0,-0.88,-3.5,-2.63,0.2683710673707897,-0.026856342946893097,-0.06785027631990026,-139.25227642585406,-38.168419735869456,13.652726462356377,0.013245917096963808,-0.9374409097821312,-0.3269574682804309,0.11886084419505662
1109919.0,1016.659918,1.0,-2.32,-1.25,-9.19,-2.0,17.69,44.56,-1.81,11.75,0.69,0.00020352032626666516,-0.38937490804659836,0.25419549136384667,-139.28399013358225,-38.14571754508042,13.59618985700425,0.0152801567799178,-0.9375372243499744,-0.32677023640909003,0.11837095236617101
1109956.0,1016.715855,1.0,-1.71,-0.48,-10.32,-2.0,18.06,45.0,-11.0,19.56,4.75,-0.1755958411013936,0.590510346622415,-0.6469313782224795,-139.81202070452485,-38.011519135235744,12.489219701269542,0.012088109891790851,-0.9391302969795596,-0.32566319957147216,0.1087733576718098
1109991.0,1016.752971,1.0,-1.67,-0.98,-10.12,-2.0,18.06,45.0,8.69,3.94,-7.81,0.1190665256835359,0.23705831289784685,-0.49351148022678615,-139.66463224449225,-38.2794021020732,12.090272532484779,0.016568199130422522,-0.9386876295062381,-0.3278725887576312,0.1053118916879926
1110026.0,1016.779898,1.0,-2.01,-1.31,-9.28,-2.25,17.25,45.38,1.56,1.44,-2.44,0.09973593042536813,-0.3378528736145904,0.22800144292408397,-139.47507317719928,-38.363892337890746,12.3703062177252,0.019298111801668055,-0.9381160237256763,-0.328569058561557,0.10774174059290631
1110061.0,1016.800918,1.0,-1.87,-1.13,-9.65,-3.5,16.87,45.88,-3.5,8.81,2.81,-0.009170686067911382,-0.055334744512630096,-0.08744692516536823,-139.5765881856876,-38.30478014035151,12.163506567348646,0.02237791080804708,-0.9384224564645824,-0.32808180371617,0.1059474038435605
1110097.0,1016.848789,1.0,-1.91,-0.63,-9.39,-3.5,18.37,45.88,1.63,-3.31,-1.69,-0.36680728210992836,0.1643490376540766,0.21209207315348166,-139.5429234350779,-38.32078411076549,12.29356211711406,0.019088066709124232,-0.9383209178097807,-0.3282137311733939,0.10707589635000982
1110130.0,1016.894907,1.0,-1.93,-1.2,-9.32,-3.5,18.37,45.88,6.56,3.06,-2.31,0.003481175546610038,-0.14132971748536471,0.21460570316877892,-139.36057834335227,-38.377238555182124,12.58548791239734,0.023332019793105896,-0.9377695267103954,-0.3286790577564254,0.10960843315221501
1110167.0,1016.917707,1.0,-1.7,-0.84,-9.91,-2.69,18.06,45.06,-6.38,10.38,0.06,-0.10642566698035666,0.2431529837097075,-0.2796402101774209,-139.61213562136072,-38.386486830449385,11.854176972514592,0.020468913845555037,-0.9385295857066943,-0.32875527919877595,0.1032628041365282
1110204.0,1016.969934,1.0,-1.71,-1.12,-9.56,-3.06,18.75,44.56,2.88,1.56,0.12,0.009741515372733767,0.00351756833913186,0.030557082602411967,-139.58460437041842,-38.411938256168696,11.752839655672048,0.024852242969010122,-0.9384466227122665,-0.3289650309702917,0.10238315651544005
1110237.0,1017.00544,1.0,-1.72,-0.86,-9.79,-3.06,18.75,44.56,-7.44,0.94,1.94,-0.11214469887687367,0.12142233567048277,-0.1690595077450059,-139.77581560695475,-38.34799941392824,11.467787291656412,0.019621416431197185,-0.9390217022686637,-0.3284380636592299,0.0999083631407825
1110272.0,1017.032881,1.0,-1.86,-0.92,-9.58,-3.5,18.37,45.06,2.44,-0.37,-0.37,-0.10621927060800038,-0.02565815423866258,0.005096086172226677,-139.72616461960249,-38.310336636756986,11.781919879559888,0.017787669687000244,-0.9388726251152193,-0.3281276089776832,0.10263559247625309
1110306.0,1017.04599,1.0,-1.63,-0.99,-9.88,-3.5,18.37,44.56,-2.0,2.5,-0.19,0.0640648533908178,0.09016163750549788,-0.25511756706705135,-139.8355335158289,-38.35159818308175,11.29139185135369,0.018245714530688604,-0.9392007718365244,-0.3284677264959784,0.09837660663747651
1110343.0,1017.087294,1.0,-1.79,-0.99,-9.52,-3.75,18.06,45.06,-0.63,-0.56,0.44,-0.014326589332868872,-0.0414506058976315,0.06946988478651939,-139.7485933774829,-38.31561534550078,11.695173854877025,0.017758217554087664,-0.9389399893186231,-0.32817112356782585,0.10188255897785677
1110378.0,1017.136225,1.0,-1.8,-0.83,-9.52,-3.75,18.06,45.06,-0.06,2.44,0.0,-0.08929307958750607,0.018090973390169296,0.08291617689379649,-139.8255448095454,-38.27489545276662,11.63368335098094,0.014508636111460029,-0.9391708375572874,-0.3278354345412292,0.1013487307236359
1110415.0,1017.160919,1.0,-1.78,-1.02,-9.55,-2.69,18.06,44.56,4.0,6.69,-2.44,-0.017771689048819567,-0.042727319440825196,0.03888881622601481,-139.70517817141638,-38.36466313015464,11.64826329442712,0.019431164946941065,-0.938809560279635,-0.3285754115337339,0.10147530877903516
1110450.0,1017.202868,1.0,-1.75,-1.2,-9.53,-3.75,18.37,45.88,1.75,-0.31,-0.19,0.08636513976303017,-0.07834689001970718,0.04397604111671072,-139.5913415653346,-38.38875885879676,11.851185026903458,0.023013738833805603,-0.9384669296606334,-0.3287740042304861,0.10323683402974694
1110482.0,1017.229343,1.0,-1.74,-0.73,-9.84,-3.75,18.37,45.88,-5.19,-1.44,1.37,-0.18691843331523292,0.21951471553353474,-0.20848728258136262,-139.73286263016217,-38.3380633765321,11.667362272007272,0.018213288830406536,-0.938892746186313,-0.3283561642389409,0.10164111704912294
1110519.0,1017.280893,1.0,-1.71,-1.04,-9.63,-4.19,18.06,45.38,0.37,-1.75,-0.25,0.0038661108322813054,0.01224889561753073,-0.029123229276040163,-139.6956069872113,-38.38991111523767,11.557877826923495,0.021294301184712382,-0.9387807881610427,-0.328783500558379,0.10069058683593352
1110554.0,1017.304521,1.0,-1.76,-0.69,-9.45,-3.75,17.69,44.56,-2.88,0.88,1.19,-0.2334528350457813,0.10932785421076285,0.17286843749284486,-139.8182943005697,-38.323504252735425,11.460566540235025,0.017053728362867948,-0.9391491046719146,-0.32823615381092275,0.09984566527535932
1110589.0,1017.340429,1.0,-1.69,-0.91,-9.61,-3.75,17.69,44.56,3.0,2.19,-3.63,-0.024180152992049314,-0.004597558809615876,0.006869687020822468,-139.82834021835706,-38.43533660465467,11.083776913479753,0.016464508698710544,-0.9391792155922843,-0.3291578484850828,0.09657345252937173
1110622.0,1017.369428,1.0,-1.77,-1.35,-9.54,-3.06,18.37,44.56,1.94,2.63,-1.69,0.2077239743016906,-0.3002989237700884,0.01718263415813759,-139.6914832262641,-38.50318941104808,11.242242503728281,0.02016196459812188,-0.9387683896261879,-0.32971692183449836,0.09794976915838695
1110659.0,1017.406626,1.0,-1.45,-1.02,-9.92,-3.5,18.06,45.5,-2.06,7.31,1.0,0.10031144769342232,0.1231515464351779,-0.269265408044685,-139.87338706174646,-38.50106507174108,10.600086818742335,0.021325120339421983,-0.9393141470467107,-0.3296994200880306,0.09237134184386367
