TIME,ELAPSED_SECONDS,PSTATE,acc_x,acc_y,acc_z,mag_x,mag_y,mag_z,gyr_x,gyr_y,gyr_z,lin_x,lin_y,lin_z,eul_x,eul_y,eul_z,qua_w,qua_x,qua_y,qua_z
2494932.0,231.410435,1.0,-2.55,-0.48,-9.49,5.69,19.69,44.19,-0.63,8.06,1.12,0.06137626109706823,-0.016982103050108943,-0.03148725065622848,-117.24327793152236,-60.38472553896015,14.473867451809141,-0.04829997213954329,-0.8537475067297958,-0.5029047388091773,0.12597273961952868
2494965.0,231.455196,1.0,-2.68,-0.69,-9.14,5.69,19.69,45.0,0.94,15.38,5.0,-0.0900519586470176,-0.2985186908779245,0.26197204650463846,-117.44736755717115,-60.25511049590705,14.367286298403911,-0.044330894277376895,-0.8546735055037877,-0.5019267562475916,0.12504999866135866
2495002.0,231.476906,1.0,-2.61,-0.65,-9.31,5.38,20.0,45.75,-3.75,25.69,9.25,-0.12247347810883169,-0.2412614125325807,0.1196745598544684,-117.86627694126103,-60.01453803145599,13.864195275316316,-0.04023112466232181,-0.8565656915470871,-0.5001098671100336,0.1206929720076927
2495037.0,231.526284,1.0,-2.35,-0.14,-10.29,4.5,20.0,44.06,-14.44,5.13,13.44,0.05281510987049537,0.3018454520024392,-0.7447622224124473,-118.41325377685422,-59.61089868940661,13.080305195969853,-0.045253892377786896,-0.8590191145863454,-0.4970564910903944,0.11389947613951194
2495072.0,231.556881,1.0,-2.32,0.15,-10.4,4.5,20.0,44.06,-25.0,-7.88,19.31,0.09733847590466882,0.37427011156319834,-0.8430141780245375,-119.00341294554003,-59.01312845003726,12.521655281904573,-0.055651008097819574,-0.8616442763629301,-0.49252327120798317,0.10905472767049844
2495109.0,231.594141,1.0,-2.28,2.11,-10.74,5.25,18.5,45.25,-9.19,-19.5,-6.56,-0.6209312643259641,2.08365395784738,-1.160160409090219,-118.65462465770162,-59.19465088694754,12.718800958295004,-0.06346934074709766,-0.8600955446307129,-0.49390127818154356,0.11076472499024088
2495145.0,231.625921,1.0,-2.13,2.01,-10.15,4.5,18.19,45.75,11.5,-46.5,-40.63,-0.3211642539256889,2.201253991982527,-0.5205390843918085,-117.0305349392611,-60.38349672019899,14.145081984066,-0.06858221390723065,-0.8527793630271897,-0.5028954700393248,0.12312588738543093
2495178.0,231.662745,1.0,-3.48,1.38,-6.36,4.5,18.19,45.75,18.19,-39.5,-56.75,-1.922669834064992,0.7491281793101696,2.7209921138090554,-114.82965246782815,-62.081486036368,15.906552634728662,-0.07072305617892642,-0.8425917846830748,-0.5156474761493888,0.13836550888884372
2495213.0,231.701087,1.0,-2.68,2.22,-7.33,6.0,18.5,44.38,34.13,10.88,-96.56,-1.4261782359925221,2.254665344845901,2.1436088398644095,-111.87680704512456,-65.18118317483389,16.28929608511572,-0.05914273847043914,-0.8284359269164291,-0.5386324405084173,0.14167267030828695
2495248.0,231.728008,1.0,-2.22,-0.11,-6.31,6.38,19.69,44.19,55.13,40.94,-142.63,-0.5912701892442077,0.42516470597031564,3.1563692137392945,-107.57960572281571,-69.77502371767018,16.493652070625295,-0.03555194955587071,-0.8068551871222028,-0.5719671002257103,0.14343779891006467
2495285.0,231.77926,1.0,-2.19,-0.58,-5.13,3.06,21.87,43.25,65.87,133.5,-158.5,-1.2279736008404414,0.018590300369473844,4.334800656645312,-103.22189141714875,-74.88809307520495,14.4914821602781,0.009142187125952151,-0.7838121062599938,-0.6079863720714453,0.12612523090257644
2495320.0,231.804878,1.0,-0.62,-3.12,-4.65,3.06,21.87,43.25,49.13,220.75,-150.94,-0.07568552843562437,-2.0990619145979235,4.578886541362079,-99.1129475853521,-79.5104971028883,9.53811497855528,0.0701775343633333,-0.7610457269462189,-0.6395094286720174,0.08313967649187742
2495358.0,231.856873,1.0,3.29,-4.55,-10.64,-4.38,23.75,42.5,-29.06,268.75,-115.69,1.936364533814922,-2.1203505638902467,-1.8762779668409362,-95.87934404292311,-82.40368466459277,1.313125566340537,0.12144156164780545,-0.7424398714255913,-0.6587136535023499,0.011458931524359669
2495393.0,231.875907,1.0,3.89,-3.47,-9.51,-16.0,24.25,39.5,-43.25,232.44,-76.0,1.007032422759137,-1.691841199179789,-0.8580890524226952,-93.27006770632404,-83.40993796831168,-6.13398883794432,0.16124067599493808,-0.7269946589604748,-0.6652951044490055,-0.05350359094327372
2495428.0,231.909262,1.0,5.75,-5.77,-9.02,-16.0,24.25,39.5,-28.06,256.06,-37.63,1.3165511557297958,-4.122707477852394,-1.5505405023384444,-91.13286314152627,-82.28480341987941,-13.45569317792197,0.2086004181780149,-0.7140626385446218,-0.6579327399014978,-0.11715341879927525
2495463.0,231.963041,1.0,7.35,-3.9,-10.45,-26.06,22.0,35.25,-87.87,227.75,11.31,0.3459840106106785,-2.505874309782,-3.3095952328391736,-90.72800537866019,-78.8736605081513,-21.10642684029049,0.237887007210674,-0.7115847626755406,-0.6352271022801985,-0.1831486441583598
2495500.0,231.991109,1.0,7.6,-1.49,-10.08,-33.19,18.69,30.37,-60.13,152.25,25.25,-0.5981343381920534,-0.44769518315310375,-2.88304283853857,-90.59696659750557,-75.71621560236945,-26.262121958194726,0.25795838750005434,-0.7107808537599403,-0.6137080917603334,-0.2271792824061041
2495537.0,232.028347,1.0,7.92,-2.83,-9.33,-36.69,18.5,25.87,-60.75,65.81,47.44,-0.07671577570660437,-1.8067349691380716,-2.6237169873842188,-92.14182490727376,-72.70066880319568,-28.591665488494158,0.26271956269005003,-0.7201989971386767,-0.5927209590909285,-0.24692853329399403
2495571.0,232.056879,1.0,7.68,-2.98,-8.49,-36.69,18.5,25.87,-72.5,30.19,77.81,0.306587452604679,-1.8951540769305266,-1.866280016007078,-95.14097027599428,-68.99111454633653,-29.927123196123812,0.2603525389264606,-0.7381078882488101,-0.5663423323036023,-0.2582046928704898
2495608.0,232.097884,1.0,8.19,-1.75,-8.8,-37.75,17.69,25.0,-91.19,8.44,105.44,0.2283426025679831,-0.4740600559809556,-2.3301422746982805,-99.43493412103011,-64.42913106696976,-30.771511431636263,0.25190682776846846,-0.7628654731074359,-0.5330913751286531,-0.2653164258534268
2495645.0,232.136813,1.0,8.04,-0.88,-8.6,-37.19,20.0,26.19,-101.5,-8.0,116.69,0.11758658923444854,0.33854616159754336,-1.99367032999527,-104.10134656629323,-59.815753448916944,-31.72267864914236,0.2342515123763623,-0.7885549459821404,-0.4986069114793548,-0.27331021558205487
2495680.0,232.172742,1.0,7.02,0.52,-8.37,-37.19,20.0,26.19,-54.19,-37.13,111.69,-0.8045315596060889,1.5165652948961363,-0.9942971193925576,-108.51549146576427,-56.163108432953045,-30.796346301867715,0.22165519590776134,-0.8116529584089612,-0.4707278651958327,-0.2655253776218894
2495715.0,232.200316,1.0,6.34,0.33,-7.89,-35.06,20.69,27.37,-65.81,-50.5,97.69,-0.5984346094221628,1.3141962942003138,-0.21689049817507922,-112.88633900335263,-52.90359120735443,-29.77087908636815,0.20281965516501504,-0.8333379570814181,-0.44544472424649306,-0.2568872017191177
2495750.0,232.24051,1.0,5.71,2.63,-7.19,-32.06,22.19,29.37,-61.69,-40.75,71.25,-1.6923619765123343,3.1117049337262843,0.9370218597745712,-116.25699964983333,-50.40473350767596,-29.192296695381376,0.1843227297863285,-0.8492344361579691,-0.42581666747833463,-0.2520043043783536
2495787.0,232.282198,1.0,5.3,2.08,-7.66,-28.75,23.0,32.38,-10.94,-13.31,14.69,-1.799678259556318,2.3060977943861007,0.7217685409600438,-116.9686005311491,-50.04465393815978,-29.0049620361308,0.17785664230270037,-0.8524969614399476,-0.4229713988676171,-0.2504219264849571
2495821.0,232.304886,1.0,5.1,-0.06,-8.04,-28.75,23.0,32.38,-1.94,-11.44,3.19,-0.7697043195482571,0.38095485044846766,0.3241593639704252,-117.3280355700643,-50.125479513350236,-28.622201508226773,0.17294727332037046,-0.8541323994349587,-0.42361042908714364,-0.24718674975640492
2495858.0,232.342843,1.0,5.01,0.31,-8.13,-28.0,23.37,32.69,-8.13,-21.62,4.94,-0.9147510636252851,0.6319527676052354,0.3168151125474008,-117.94552283994092,-50.15803339788379,-28.05466444262932,0.1651358567206436,-0.856922353250996,-0.4238677499347467,-0.2423847352643507
2495895.0,232.380345,1.0,4.65,0.36,-7.33,-27.19,23.06,33.19,-2.69,-19.56,-5.38,-0.6399190302412446,0.7045318343383229,1.1709601879966183,-118.11034464854356,-50.56382536934237,-27.618980813334826,0.1582674567162663,-0.8576628533226763,-0.42707243842040593,-0.2386943118648176
2495930.0,232.405922,1.0,4.98,-1.53,-8.08,-27.19,23.06,33.19,17.06,2.63,-13.5,0.2502398521446144,-0.7781318791490857,0.22752734732190838,-117.61937156724142,-51.0493039656875,-27.242040352695895,0.1645243460809482,-0.8554518197899804,-0.4308994017286959,-0.2354986818529969
2495963.0,232.458716,1.0,5.32,-1.07,-8.87,-25.69,23.06,34.38,-4.13,-0.94,-0.19,-0.12907407308218344,-0.38470479545337577,-0.583708131653264,-117.87556376963569,-50.994739879243305,-26.91074672210174,0.16363302835627402,-0.8566075099325322,-0.4304696647900696,-0.23268793190379788
2496000.0,232.506848,1.0,4.98,-0.44,-7.79,-28.06,22.5,34.0,-4.63,-2.69,-8.56,-0.1153880648665957,0.1499545710421426,0.5523375338515901,-117.667000744713,-51.376333700578044,-27.091858777484763,0.158347479886415,-0.8556670000775761,-0.433472978224869,-0.23422475902586537
2496036.0,232.526791,1.0,5.32,-1.12,-8.51,-26.87,22.37,33.56,6.25,3.56,-6.81,0.10761799179110587,-0.36101661651802264,-0.2846821900748413,-117.4705388030063,-51.53484457467007,-26.872971601988716,0.16241456226431994,-0.8547784671409864,-0.4347191182827911,-0.23236731757290535
2496071.0,232.564249,1.0,5.29,-0.96,-8.58,-26.87,22.37,33.56,1.44,-10.63,-0.06,0.021087747516011945,-0.1529308019588944,-0.31749280207055364,-117.80318564592872,-51.560439752550614,-26.166457161463217,0.16243399294222513,-0.8562814438986395,-0.43492025793671385,-0.226366198907807
2496108.0,232.603145,1.0,5.06,-0.56,-8.22,-26.87,22.0,33.19,-11.94,-4.0,-1.75,-0.0778376448630288,0.06641723654458831,0.1383962770295497,-117.94059969453721,-51.65880250943472,-26.295583083822166,0.15541525520960947,-0.8569002076071939,-0.4356930394554434,-0.22746364109667577
2496143.0,232.637252,1.0,5.12,-0.2,-8.24,-27.19,23.06,35.19,1.37,3.0,-5.13,-0.22419330117577052,0.31248109900972887,0.11107921089894823,-117.64853648732823,-51.938051334636924,-26.58526058669624,0.15286582665359227,-0.8555835993377038,-0.43788519101864365,-0.22992455952424767
2496178.0,232.662978,1.0,5.46,-1.22,-8.95,-27.19,23.06,35.19,7.06,0.75,-3.19,0.20437306350890827,-0.4494739472418643,-0.7365328601074168,-117.57916276000053,-51.9969288060442,-26.270446395399677,0.15723366854103332,-0.8552700483908777,-0.4383470578517492,-0.22725002678835785
2496212.0,232.701915,1.0,5.05,-0.41,-8.13,-26.87,23.5,34.88,-0.88,-8.5,-1.12,-0.06364146183676711,0.1790943008239152,0.22900023631853372,-117.61385891120307,-52.19454526801018,-26.2058465074894,0.15278286833772334,-0.8554269050317329,-0.43989642188302,-0.2267009997879241
2496249.0,232.72809,1.0,5.05,-0.91,-8.18,-27.56,21.69,34.75,5.13,7.13,-8.25,0.1165887839353722,-0.21765296285580327,0.15356581704476646,-117.27172460939859,-52.35647062239572,-26.220712946353,0.1575351550490241,-0.8538767379533364,-0.4411649834642627,-0.22682735432664608
2496284.0,232.766853,1.0,5.37,-0.6,-8.76,-27.56,21.69,34.75,-0.25,6.0,0.0,-0.07915136656172272,0.005485377054764928,-0.4854928756022421,-117.21732331093189,-52.433301377795694,-26.39160611334028,0.15507197890447966,-0.8536295508435325,-0.4417665858108566,-0.22827955437650718
2496317.0,232.799584,1.0,5.27,-0.65,-8.62,-26.87,22.75,34.38,2.88,-9.5,-4.44,0.03695539159815375,0.02604999039449707,-0.3174675268283149,-117.38399932120831,-52.683870296375346,-25.74300377584848,0.1533162827124525,-0.8543862801736338,-0.44372721625511724,-0.22276525595518848
