,TIME,ELAPSED_SECONDS,PSTATE,acc_x,acc_y,acc_z,mag_x,mag_y,mag_z,gyr_x,gyr_y,gyr_z,lin_x,lin_y,lin_z,eul_x,eul_y,eul_z,qua_w,qua_x,qua_y,qua_z
0,1416091.0,1276.575341,1.0,3.88,6.54,-6.41,-18.75,-27.87,13.19,-1.69,-0.06,-0.19,-0.056931065954690885,0.10839441956538033,-0.13815314051195138,-120.36186107562722,31.530903656573717,-11.294085603048902,-0.4047,-0.8676,0.2717,-0.0984
1,1416091.0,1276.575341,1.0,3.88,6.54,-6.41,-18.75,-27.87,13.19,-1.69,-0.06,-0.19,-0.056931065954690885,0.10839441956538033,-0.13815314051195138,-120.36186107562722,31.530903656573717,-11.294085603048902,-0.4047,-0.8676,0.2717,-0.0984
2,1416126.0,1276.618119,1.0,3.88,6.45,-6.5,-18.75,-27.87,13.19,3.0,1.75,0.31,-0.010012914781592277,-0.005876533835946329,-0.13853804286211968,-120.38490958888936,31.495183998739208,-11.351662230904264,-0.4045,-0.8677,0.2714,-0.0989
3,1416126.0,1276.618119,1.0,3.88,6.45,-6.5,-18.75,-27.87,13.19,3.0,1.75,0.31,-0.010012914781592277,-0.005876533835946329,-0.13853804286211968,-120.38490958888936,31.495183998739208,-11.351662230904264,-0.4045,-0.8677,0.2714,-0.0989
4,1416163.0,1276.646219,1.0,4.06,6.49,-6.77,-17.69,-27.87,13.5,1.44,4.56,-0.5,0.1163734360016545,-0.1293847296163677,-0.4112909283443802,-120.38490958888936,31.43565821002521,-11.478340954533572,-0.4047,-0.8677,0.2709,-0.1
5,1416163.0,1276.646219,1.0,4.06,6.49,-6.77,-17.69,-27.87,13.5,1.44,4.56,-0.5,0.1163734360016545,-0.1293847296163677,-0.4112909283443802,-120.38490958888936,31.43565821002521,-11.478340954533572,-0.4047,-0.8677,0.2709,-0.1
6,1416198.0,1276.6858220000001,1.0,3.95,6.57,-6.48,-19.19,-28.0,13.56,-2.19,-1.37,-0.19,-0.03402227912846578,0.08613460393114991,-0.2307412604086796,-120.36186107562722,31.43565821002521,-11.489857897732715,-0.4048,-0.8676,0.2709,-0.1001
7,1416198.0,1276.6858220000001,1.0,3.95,6.57,-6.48,-19.19,-28.0,13.56,-2.19,-1.37,-0.19,-0.03402227912846578,0.08613460393114991,-0.2307412604086796,-120.36186107562722,31.43565821002521,-11.489857897732715,-0.4048,-0.8676,0.2709,-0.1001
8,1416232.0,1276.7132869999998,1.0,3.99,6.46,-6.7,-19.19,-28.0,13.56,1.75,0.31,-0.94,0.07217548879769231,-0.11966027532183875,-0.3186733092739669,-120.38490958888936,31.423754097001943,-11.478340954533572,-0.4047,-0.8677,0.2708,-0.1
9,1416232.0,1276.7132869999998,1.0,3.99,6.46,-6.7,-19.19,-28.0,13.56,1.75,0.31,-0.94,0.07217548879769231,-0.11966027532183875,-0.3186733092739669,-120.38490958888936,31.423754097001943,-11.478340954533572,-0.4047,-0.8677,0.2708,-0.1
10,1416265.0,1276.754498,1.0,3.82,6.22,-6.66,-18.06,-28.69,13.19,2.56,0.88,-0.06,0.0567678006544452,-0.2722607071029031,-0.07054856660666252,-120.45410373713348,31.39994691440291,-11.501374957383893,-0.4042,-0.868,0.2706,-0.1002
11,1416265.0,1276.754498,1.0,3.82,6.22,-6.66,-18.06,-28.69,13.19,2.56,0.88,-0.06,0.0567678006544452,-0.2722607071029031,-0.07054856660666252,-120.45410373713348,31.39994691440291,-11.501374957383893,-0.4042,-0.868,0.2706,-0.1002
12,1416302.0,1276.80702,1.0,4.0,6.74,-6.38,-19.19,-28.69,13.5,-4.69,1.44,0.94,-0.0903972215794694,0.26129078792319405,-0.29560496938565883,-120.3388206480064,31.411850331847486,-11.512892133606984,-0.4052,-0.8675,0.2707,-0.1003
13,1416302.0,1276.80702,1.0,4.0,6.74,-6.38,-19.19,-28.69,13.5,-4.69,1.44,0.94,-0.0903972215794694,0.26129078792319405,-0.29560496938565883,-120.3388206480064,31.411850331847486,-11.512892133606984,-0.4052,-0.8675,0.2707,-0.1003
14,1416337.0,1276.82709,1.0,4.07,6.8,-6.57,-19.19,-28.69,13.5,0.5,0.69,0.5,-0.06203165019223356,0.17360731698938725,-0.4858624519653692,-120.31578829659293,31.411850331847486,-11.547444362906596,-0.4052,-0.8674,0.2707,-0.1006
15,1416337.0,1276.82709,1.0,4.07,6.8,-6.57,-19.19,-28.69,13.5,0.5,0.69,0.5,-0.06203165019223356,0.17360731698938725,-0.4858624519653692,-120.31578829659293,31.411850331847486,-11.547444362906596,-0.4052,-0.8674,0.2707,-0.1006
16,1416372.0,1276.869607,1.0,3.87,6.47,-6.58,-18.5,-28.37,13.56,-1.06,-2.44,-1.31,-0.037131095462695766,-0.07991973525547502,-0.19966970894726546,-120.36186107562722,31.376141122007805,-11.501374957383893,-0.4051,-0.8676,0.2704,-0.1002
17,1416372.0,1276.869607,1.0,3.87,6.47,-6.58,-18.5,-28.37,13.56,-1.06,-2.44,-1.31,-0.037131095462695766,-0.07991973525547502,-0.19966970894726546,-120.36186107562722,31.376141122007805,-11.501374957383893,-0.4051,-0.8676,0.2704,-0.1002
18,1416407.0,1276.922953,1.0,3.77,6.33,-6.4,-18.06,-29.06,13.19,0.81,-2.56,-0.94,-0.03742274871001472,-0.04862383821865146,0.04765234346601055,-120.38490958888936,31.388043844509305,-11.397725602729444,-0.405,-0.8677,0.2705,-0.0993
19,1416407.0,1276.922953,1.0,3.77,6.33,-6.4,-18.06,-29.06,13.19,0.81,-2.56,-0.94,-0.03742274871001472,-0.04862383821865146,0.04765234346601055,-120.38490958888936,31.388043844509305,-11.397725602729444,-0.405,-0.8677,0.2705,-0.0993
20,1416443.0,1276.934567,1.0,3.93,6.67,-6.51,-19.19,-28.25,12.38,-1.94,-0.94,0.19,-0.08079198796668187,0.1100573803336129,-0.3074619248164581,-120.38490958888936,31.423754097001943,-11.351662230904264,-0.4051,-0.8677,0.2708,-0.0989
21,1416443.0,1276.934567,1.0,3.93,6.67,-6.51,-19.19,-28.25,12.38,-1.94,-0.94,0.19,-0.08079198796668187,0.1100573803336129,-0.3074619248164581,-120.38490958888936,31.423754097001943,-11.351662230904264,-0.4051,-0.8677,0.2708,-0.0989
22,1416478.0,1276.992561,1.0,3.78,6.54,-6.35,-19.19,-28.25,12.38,2.75,0.0,-1.81,-0.13691531784121425,0.11313327364587478,-0.06000875857347233,-120.45410373713348,31.35233671854589,-11.34014667578332,-0.4047,-0.868,0.2702,-0.0988
23,1416478.0,1276.992561,1.0,3.78,6.54,-6.35,-19.19,-28.25,12.38,2.75,0.0,-1.81,-0.13691531784121425,0.11313327364587478,-0.06000875857347233,-120.45410373713348,31.35233671854589,-11.34014667578332,-0.4047,-0.868,0.2702,-0.0988
24,1416513.0,1277.000518,1.0,3.61,5.93,-6.49,-18.06,-29.0,12.75,9.63,4.13,-5.0,0.05984319118921566,-0.3564554730856586,0.3099948894794764,-120.68528037991206,31.173847836723343,-11.397725602729444,-0.4034,-0.8690000000000001,0.2687,-0.0993
25,1416513.0,1277.000518,1.0,3.61,5.93,-6.49,-18.06,-29.0,12.75,9.63,4.13,-5.0,0.05984319118921566,-0.3564554730856586,0.3099948894794764,-120.68528037991206,31.173847836723343,-11.397725602729444,-0.4034,-0.8690000000000001,0.2687,-0.0993
26,1416550.0,1277.0546470000002,1.0,3.44,5.91,-5.79,-18.5,-29.0,13.19,-0.06,1.69,-2.94,-0.10481969664551137,0.09762018660282347,0.8475605858707524,-120.80117633509359,31.00732816596471,-11.489857897732715,-0.4031,-0.8695,0.2673,-0.1001
27,1416550.0,1277.0546470000002,1.0,3.44,5.91,-5.79,-18.5,-29.0,13.19,-0.06,1.69,-2.94,-0.10481969664551137,0.09762018660282347,0.8475605858707524,-120.80117633509359,31.00732816596471,-11.489857897732715,-0.4031,-0.8695,0.2673,-0.1001
28,1416585.0,1277.061433,1.0,2.93,5.66,-5.76,-18.5,-29.0,13.19,-12.31,12.19,-2.88,-0.4056352690714395,-0.2522420289559002,1.2293582370183105,-120.63897960324066,30.852762845389066,-11.685663847129462,-0.4051,-0.8688,0.266,-0.1018
29,1416585.0,1277.061433,1.0,2.93,5.66,-5.76,-18.5,-29.0,13.19,-12.31,12.19,-2.88,-0.4056352690714395,-0.2522420289559002,1.2293582370183105,-120.63897960324066,30.852762845389066,-11.685663847129462,-0.4051,-0.8688,0.266,-0.1018
30,1416617.0,1277.118426,1.0,1.45,4.06,-4.67,-18.75,-29.0,13.56,-16.5,21.94,-15.19,-0.8022384740036943,-0.9324992484813328,3.5711180593865937,-120.20074735368748,30.128257166842047,-11.996720388635614,-0.4123,-0.8669,0.2599,-0.1045
31,1416617.0,1277.118426,1.0,1.45,4.06,-4.67,-18.75,-29.0,13.56,-16.5,21.94,-15.19,-0.8022384740036943,-0.9324992484813328,3.5711180593865937,-120.20074735368748,30.128257166842047,-11.996720388635614,-0.4123,-0.8669,0.2599,-0.1045
32,1416654.0,1277.168574,1.0,0.37,0.62,-3.89,-17.69,-29.0,11.06,-18.19,44.94,-14.25,0.06253104386738563,-2.5949851313253434,6.820759506905308,-119.74257704437856,29.08522811781525,-12.7228682118641,-0.4202,-0.8649,0.2511,-0.1108
33,1416654.0,1277.168574,1.0,0.37,0.62,-3.89,-17.69,-29.0,11.06,-18.19,44.94,-14.25,0.06253104386738563,-2.5949851313253434,6.820759506905308,-119.74257704437856,29.08522811781525,-12.7228682118641,-0.4202,-0.8649,0.2511,-0.1108
34,1416691.0,1277.175166,1.0,0.63,0.24,-2.85,-17.25,-29.0,11.5,-18.81,40.56,33.81,0.4076657377203438,-1.9489252375372972,7.658977058237427,-118.27481372474286,29.310216034057568,-14.32686299177392,-0.4285,-0.8584,0.253,-0.1247
35,1416691.0,1277.175166,1.0,0.63,0.24,-2.85,-17.25,-29.0,11.5,-18.81,40.56,33.81,0.4076657377203438,-1.9489252375372972,7.658977058237427,-118.27481372474286,29.310216034057568,-14.32686299177392,-0.4285,-0.8584,0.253,-0.1247
36,1416726.0,1277.230963,1.0,4.03,2.49,-3.98,-17.25,-29.0,11.5,-71.06,68.81,62.06,1.8557664845864767,-0.8147412638248629,3.9608200822118818,-115.68754007027454,30.28255562108873,-16.419805484293857,-0.4412,-0.8466,0.2612,-0.1428
37,1416726.0,1277.230963,1.0,4.03,2.49,-3.98,-17.25,-29.0,11.5,-71.06,68.81,62.06,1.8557664845864767,-0.8147412638248629,3.9608200822118818,-115.68754007027454,30.28255562108873,-16.419805484293857,-0.4412,-0.8466,0.2612,-0.1428
38,1416763.0,1277.281841,1.0,3.39,1.81,-1.87,-19.19,-29.06,10.69,-116.25,86.25,39.19,1.6328429263013713,0.07852127458778857,5.857883308048615,-110.63139954579823,31.031112572318907,-18.587944621042265,-0.4756,-0.8223,0.2675,-0.1615
39,1416763.0,1277.281841,1.0,3.39,1.81,-1.87,-19.19,-29.06,10.69,-116.25,86.25,39.19,1.6328429263013713,0.07852127458778857,5.857883308048615,-110.63139954579823,31.031112572318907,-18.587944621042265,-0.4756,-0.8223,0.2675,-0.1615
40,1416798.0,1277.339034,1.0,5.29,1.85,-0.63,-20.69,-28.69,6.19,-150.06,104.94,72.37,3.011226347673475,1.3760915922256278,5.241303593331281,-105.5943297282315,31.6738137680446,-20.727870288694774,-0.5087,-0.7965,0.2729,-0.1799
41,1416798.0,1277.339034,1.0,5.29,1.85,-0.63,-20.69,-28.69,6.19,-150.06,104.94,72.37,3.011226347673475,1.3760915922256278,5.241303593331281,-105.5943297282315,31.6738137680446,-20.727870288694774,-0.5087,-0.7965,0.2729,-0.1799
42,1416833.0,1277.347602,1.0,7.87,4.77,1.11,-20.69,-28.69,6.19,-118.94,88.69,157.88,2.4897250868769603,3.8690584511030783,1.759690593259876,-97.99832666971392,34.73506381234489,-24.666810678302642,-0.5438,-0.7547,0.2985,-0.2136
43,1416833.0,1277.347602,1.0,7.87,4.77,1.11,-20.69,-28.69,6.19,-118.94,88.69,157.88,2.4897250868769603,3.8690584511030783,1.759690593259876,-97.99832666971392,34.73506381234489,-24.666810678302642,-0.5438,-0.7547,0.2985,-0.2136
44,1416867.0,1277.363723,1.0,9.73,5.89,1.33,-23.25,-26.5,1.75,-77.75,98.44,156.5,1.9040663365669543,3.895467045662509,-0.7921125637198774,-91.07352101138805,38.11295365085032,-29.89098396291072,-0.5634,-0.7137,0.3265,-0.2579
45,1416867.0,1277.363723,1.0,9.73,5.89,1.33,-23.25,-26.5,1.75,-77.75,98.44,156.5,1.9040663365669543,3.895467045662509,-0.7921125637198774,-91.07352101138805,38.11295365085032,-29.89098396291072,-0.5634,-0.7137,0.3265,-0.2579
46,1416904.0,1277.403624,1.0,11.62,5.61,2.48,-25.5,-22.37,-3.56,-142.5,126.94,126.94,2.5183091262604917,4.323407035400181,-2.3429660742159,-85.1414848365832,39.71719501771099,-33.4525819599508,-0.5867,-0.6765,0.3397,-0.2878
47,1416904.0,1277.403624,1.0,11.62,5.61,2.48,-25.5,-22.37,-3.56,-142.5,126.94,126.94,2.5183091262604917,4.323407035400181,-2.3429660742159,-85.1414848365832,39.71719501771099,-33.4525819599508,-0.5867,-0.6765,0.3397,-0.2878
48,1416941.0,1277.54561,1.0,12.66,7.67,2.27,-26.75,-18.0,-6.5,-146.5,114.56,136.75,0.11752217304251687,2.651695971139817,-4.931467146212546,-76.4571139486868,42.22495842729175,-37.846342205002045,-0.6182,-0.6188,0.3602,-0.3243
49,1416941.0,1277.54561,1.0,12.66,7.67,2.27,-26.75,-18.0,-6.5,-146.5,114.56,136.75,0.11752217304251687,2.651695971139817,-4.931467146212546,-76.4571139486868,42.22495842729175,-37.846342205002045,-0.6182,-0.6188,0.3602,-0.3243
50,1416976.0,1277.556677,1.0,12.08,6.38,2.83,-26.75,-18.0,-6.5,-88.12,102.87,127.37,-0.020398005298542188,2.232148603036684,-3.964943826981005,-71.3236489687373,43.65334169783373,-41.23162880897231,-0.6308,-0.583,0.3718,-0.3521
51,1416976.0,1277.556677,1.0,12.08,6.38,2.83,-26.75,-18.0,-6.5,-88.12,102.87,127.37,-0.020398005298542188,2.232148603036684,-3.964943826981005,-71.3236489687373,43.65334169783373,-41.23162880897231,-0.6308,-0.583,0.3718,-0.3521
52,1417013.0,1277.595936,1.0,13.9,8.03,2.76,-28.69,-13.75,-11.06,-135.63,105.25,94.94,-1.7359416699944945,0.3246137897088177,-6.3856207612585205,-64.24077819073915,45.10129990098643,-44.71692355018706,-0.6523,-0.5317,0.3835,-0.3804
53,1417013.0,1277.595936,1.0,13.9,8.03,2.76,-28.69,-13.75,-11.06,-135.63,105.25,94.94,-1.7359416699944945,0.3246137897088177,-6.3856207612585205,-64.24077819073915,45.10129990098643,-44.71692355018706,-0.6523,-0.5317,0.3835,-0.3804
54,1417050.0,1277.6589800000002,1.0,12.82,7.53,2.72,-30.25,-8.56,-13.56,-97.56,88.62,82.44,-2.5134582153719007,-0.9927751168671746,-5.064416719200372,-57.97253764637914,46.070826818198796,-47.281416405631816,-0.6718,-0.4846,0.3913,-0.401
55,1417050.0,1277.6589800000002,1.0,12.82,7.53,2.72,-30.25,-8.56,-13.56,-97.56,88.62,82.44,-2.5134582153719007,-0.9927751168671746,-5.064416719200372,-57.97253764637914,46.070826818198796,-47.281416405631816,-0.6718,-0.4846,0.3913,-0.401
56,1417084.0,1277.675418,1.0,11.52,5.46,1.96,-30.25,-8.56,-13.56,-17.31,72.12,91.12,-1.500634236914726,-1.6670855043198327,-2.8950240159825373,-55.17465292180053,46.170461586302004,-50.035624947359274,-0.6729999999999999,-0.4631,0.3921,-0.4229
57,1417084.0,1277.675418,1.0,11.52,5.46,1.96,-30.25,-8.56,-13.56,-17.31,72.12,91.12,-1.500634236914726,-1.6670855043198327,-2.8950240159825373,-55.17465292180053,46.170461586302004,-50.035624947359274,-0.6729999999999999,-0.4631,0.3921,-0.4229
58,1417119.0,1277.678616,1.0,11.63,3.45,1.2,-28.75,-5.5,-15.75,-8.5,69.25,72.31,-0.03523228598133854,-2.5800439312444574,-2.107271772400269,-52.28433952334372,46.14554943586622,-53.218059503427035,-0.6721,-0.4406,0.3919,-0.4479
59,1417119.0,1277.678616,1.0,11.63,3.45,1.2,-28.75,-5.5,-15.75,-8.5,69.25,72.31,-0.03523228598133854,-2.5800439312444574,-2.107271772400269,-52.28433952334372,46.14554943586622,-53.218059503427035,-0.6721,-0.4406,0.3919,-0.4479
60,1417156.0,1277.717253,1.0,10.3,4.53,3.76,-28.75,-2.75,-17.75,66.37,21.81,126.44,-2.3252987342236118,-0.17436893422387456,-1.8256791421535912,-51.03668173616908,46.769049990136345,-56.2374309655145,-0.6595,-0.4308,0.3969,-0.4713
61,1417156.0,1277.717253,1.0,10.3,4.53,3.76,-28.75,-2.75,-17.75,66.37,21.81,126.44,-2.3252987342236118,-0.17436893422387456,-1.8256791421535912,-51.03668173616908,46.769049990136345,-56.2374309655145,-0.6595,-0.4308,0.3969,-0.4713
62,1417193.0,1277.728944,1.0,11.11,4.35,2.7,-28.75,-0.37,-17.5,82.25,29.44,124.12,-2.7410874657009723,-1.2770167136379085,-2.046630888364477,-50.94781312005565,46.46958798664575,-62.44997546195721,-0.6251,-0.4301,0.3945,-0.5184
63,1417193.0,1277.728944,1.0,11.11,4.35,2.7,-28.75,-0.37,-17.5,82.25,29.44,124.12,-2.7410874657009723,-1.2770167136379085,-2.046630888364477,-50.94781312005565,46.46958798664575,-62.44997546195721,-0.6251,-0.4301,0.3945,-0.5184
64,1417226.0,1277.7375470000002,1.0,11.23,3.42,2.13,-28.75,-0.37,-17.5,71.06,44.0,74.62,-2.2162735657962385,-1.85582773669661,-1.7687651067363603,-50.605340832368576,45.64778844933024,-65.94002274269204,-0.6089,-0.4274,0.3879,-0.5442
65,1417226.0,1277.7375470000002,1.0,11.23,3.42,2.13,-28.75,-0.37,-17.5,71.06,44.0,74.62,-2.2162735657962385,-1.85582773669661,-1.7687651067363603,-50.605340832368576,45.64778844933024,-65.94002274269204,-0.6089,-0.4274,0.3879,-0.5442
66,1417265.0,1277.780308,1.0,10.95,2.38,1.65,-29.06,1.06,-19.06,51.5,38.81,51.5,-1.5875493694892209,-2.354632079821408,-1.158056779850989,-50.111510359679706,44.39495201253494,-69.36104422677951,-0.595,-0.4235,0.3778,-0.569
67,1417265.0,1277.780308,1.0,10.95,2.38,1.65,-29.06,1.06,-19.06,51.5,38.81,51.5,-1.5875493694892209,-2.354632079821408,-1.158056779850989,-50.111510359679706,44.39495201253494,-69.36104422677951,-0.595,-0.4235,0.3778,-0.569
68,1417299.0,1277.79727,1.0,10.72,1.68,1.69,-28.69,1.75,-19.37,25.31,30.62,28.87,-1.0799658088123465,-2.377161484632495,-0.8601056983262776,-49.73231720183757,43.61631189309636,-71.12631395587046,-0.589,-0.4205,0.3715,-0.5816
69,1417299.0,1277.79727,1.0,10.72,1.68,1.69,-28.69,1.75,-19.37,25.31,30.62,28.87,-1.0799658088123465,-2.377161484632495,-0.8601056983262776,-49.73231720183757,43.61631189309636,-71.12631395587046,-0.589,-0.4205,0.3715,-0.5816
70,1417334.0,1277.834237,1.0,10.63,1.78,1.88,-28.69,1.75,-19.37,-13.13,4.63,-0.63,-1.261277668641425,-2.2481228481189888,-0.8260741242473593,-49.24023317275956,43.49291375439449,-71.71905293720884,-0.5883,-0.4166,0.3705,-0.5858
71,1417334.0,1277.834237,1.0,10.63,1.78,1.88,-28.69,1.75,-19.37,-13.13,4.63,-0.63,-1.261277668641425,-2.2481228481189888,-0.8260741242473593,-49.24023317275956,43.49291375439449,-71.71905293720884,-0.5883,-0.4166,0.3705,-0.5858
72,1417367.0,1277.841171,1.0,10.05,1.5,2.41,-27.87,1.69,-19.75,-7.5,11.44,-10.75,-0.9313743406620608,-1.6238421135519936,-0.4674085275640376,-48.93789354543228,43.307915821839245,-71.49298753090414,-0.5924,-0.4142,0.369,-0.5842
73,1417367.0,1277.841171,1.0,10.05,1.5,2.41,-27.87,1.69,-19.75,-7.5,11.44,-10.75,-0.9313743406620608,-1.6238421135519936,-0.4674085275640376,-48.93789354543228,43.307915821839245,-71.49298753090414,-0.5924,-0.4142,0.369,-0.5842
74,1417404.0,1277.8916789999998,1.0,9.15,0.79,4.05,-28.25,2.0,-20.56,21.81,6.44,6.81,-0.16340983634947606,0.20307749186024715,-0.22735003775583,-49.164614087930325,42.95058853731749,-71.84635644599051,-0.5906,-0.41600000000000004,0.3661,-0.5867
75,1417404.0,1277.8916789999998,1.0,9.15,0.79,4.05,-28.25,2.0,-20.56,21.81,6.44,6.81,-0.16340983634947606,0.20307749186024715,-0.22735003775583,-49.164614087930325,42.95058853731749,-71.84635644599051,-0.5906,-0.41600000000000004,0.3661,-0.5867
76,1417441.0,1277.965024,1.0,9.11,0.99,3.81,-28.25,2.0,-20.56,6.63,-1.5,14.19,-0.4298498553158823,0.010472945115034936,-0.1081580878706614,-49.21502427217554,42.87671358451489,-72.42759839996175,-0.5865,-0.4164,0.3655,-0.5908
77,1417441.0,1277.965024,1.0,9.11,0.99,3.81,-28.25,2.0,-20.56,6.63,-1.5,14.19,-0.4298498553158823,0.010472945115034936,-0.1081580878706614,-49.21502427217554,42.87671358451489,-72.42759839996175,-0.5865,-0.4164,0.3655,-0.5908
78,1417476.0,1277.968811,1.0,8.9,0.75,3.78,-27.5,1.56,-20.56,27.56,-10.19,12.44,-0.21623963753186135,0.10172739771466333,0.11109473195504194,-49.58080290531658,42.82747400563139,-72.82578699012866,-0.5819,-0.4193,0.3651,-0.5936
79,1417476.0,1277.968811,1.0,8.9,0.75,3.78,-27.5,1.56,-20.56,27.56,-10.19,12.44,-0.21623963753186135,0.10172739771466333,0.11109473195504194,-49.58080290531658,42.82747400563139,-72.82578699012866,-0.5819,-0.4193,0.3651,-0.5936
80,1417510.0,1278.011877,1.0,8.55,0.6,4.23,-27.37,1.88,-20.56,13.56,-6.44,10.69,-0.06460364280415963,0.6989709423240349,0.27445896167501793,-49.74494758083664,43.08607465863793,-72.79731116496349,-0.5798,-0.4206,0.3672,-0.5934
81,1417510.0,1278.011877,1.0,8.55,0.6,4.23,-27.37,1.88,-20.56,13.56,-6.44,10.69,-0.06460364280415963,0.6989709423240349,0.27445896167501793,-49.74494758083664,43.08607465863793,-72.79731116496349,-0.5798,-0.4206,0.3672,-0.5934
82,1417545.0,1278.027803,1.0,8.67,0.19,4.23,-27.37,1.88,-20.19,11.56,3.63,8.56,0.3322409149293504,0.6246428794635375,0.18389897715926476,-49.60604885480682,43.18464974314042,-72.74037515744728,-0.5805,-0.4195,0.368,-0.593
83,1417545.0,1278.027803,1.0,8.67,0.19,4.23,-27.37,1.88,-20.19,11.56,3.63,8.56,0.3322409149293504,0.6246428794635375,0.18389897715926476,-49.60604885480682,43.18464974314042,-72.74037515744728,-0.5805,-0.4195,0.368,-0.593
84,1417580.0,1278.065865,1.0,8.75,0.54,3.81,-27.37,1.88,-20.19,5.56,7.06,5.56,-0.06872748557711694,0.18786896657355331,0.2499674278871833,-49.47984477339551,42.99984891491943,-73.13936663783453,-0.5793,-0.4185,0.3665,-0.5958
85,1417580.0,1278.065865,1.0,8.75,0.54,3.81,-27.37,1.88,-20.19,5.56,7.06,5.56,-0.06872748557711694,0.18786896657355331,0.2499674278871833,-49.47984477339551,42.99984891491943,-73.13936663783453,-0.5793,-0.4185,0.3665,-0.5958
86,1417617.0,1278.118559,1.0,9.01,0.29,3.61,-27.75,1.06,-21.0,-5.38,3.63,1.81,0.15949970811559264,-0.13273661964466088,0.09823917057398468,-49.15201312727976,43.17232602381402,-72.89699940259716,-0.5820000000000001,-0.4159,0.3679,-0.5941
87,1417617.0,1278.118559,1.0,9.01,0.29,3.61,-27.75,1.06,-21.0,-5.38,3.63,1.81,0.15949970811559264,-0.13273661964466088,0.09823917057398468,-49.15201312727976,43.17232602381402,-72.89699940259716,-0.5820000000000001,-0.4159,0.3679,-0.5941
88,1417652.0,1278.1349289999998,1.0,8.85,0.82,4.11,-27.75,1.06,-20.56,-11.88,7.06,-4.13,-0.3565077731085053,0.3643191986755663,0.027735247882072045,-48.54790766181375,43.45590465390315,-72.35660000190678,-0.5877,-0.4111,0.3702,-0.5903
89,1417652.0,1278.1349289999998,1.0,8.85,0.82,4.11,-27.75,1.06,-20.56,-11.88,7.06,-4.13,-0.3565077731085053,0.3643191986755663,0.027735247882072045,-48.54790766181375,43.45590465390315,-72.35660000190678,-0.5877,-0.4111,0.3702,-0.5903
90,1417687.0,1278.175528,1.0,8.62,0.7,4.11,-27.75,1.06,-20.56,-14.31,21.69,-10.63,-0.2289193762599904,0.35270297461003164,0.24057993278462494,-48.08322235291628,43.209298755684706,-72.27144436256579,-0.5922,-0.4074,0.3682,-0.5897
91,1417687.0,1278.175528,1.0,8.62,0.7,4.11,-27.75,1.06,-20.56,-14.31,21.69,-10.63,-0.2289193762599904,0.35270297461003164,0.24057993278462494,-48.08322235291628,43.209298755684706,-72.27144436256579,-0.5922,-0.4074,0.3682,-0.5897
92,1417721.0,1278.192332,1.0,9.22,0.67,3.51,-28.5,2.25,-20.56,-8.0,24.31,-9.75,-0.15531960284458712,-0.5973919459108474,-0.06231137817617949,-47.1938685290374,42.96290285030923,-71.74733376464029,-0.6018,-0.4003,0.3662,-0.586
93,1417721.0,1278.192332,1.0,9.22,0.67,3.51,-28.5,2.25,-20.56,-8.0,24.31,-9.75,-0.15531960284458712,-0.5973919459108474,-0.06231137817617949,-47.1938685290374,42.96290285030923,-71.74733376464029,-0.6018,-0.4003,0.3662,-0.586
94,1417756.0,1278.2339,1.0,8.94,0.83,4.04,-26.69,1.88,-21.37,-6.06,4.88,-5.38,-0.2988727709958252,-0.03147102500326282,-0.034273972947994835,-46.79402040546467,43.17232602381402,-71.1544897805901,-0.607,-0.3971,0.3679,-0.5818
95,1417756.0,1278.2339,1.0,8.94,0.83,4.04,-26.69,1.88,-21.37,-6.06,4.88,-5.38,-0.2988727709958252,-0.03147102500326282,-0.034273972947994835,-46.79402040546467,43.17232602381402,-71.1544897805901,-0.607,-0.3971,0.3679,-0.5818
96,1417791.0,1278.293642,1.0,8.85,1.1,3.73,-26.69,1.88,-21.37,-2.0,-8.38,-5.38,-0.5491791513194482,-0.2506618124912481,0.1588020059904185,-46.68167205165904,43.579286875788114,-70.33938584771147,-0.6111,-0.3962,0.3712,-0.5760000000000001
97,1417791.0,1278.293642,1.0,8.85,1.1,3.73,-26.69,1.88,-21.37,-2.0,-8.38,-5.38,-0.5491791513194482,-0.2506618124912481,0.1588020059904185,-46.68167205165904,43.579286875788114,-70.33938584771147,-0.6111,-0.3962,0.3712,-0.5760000000000001
98,1417826.0,1278.3834539999998,1.0,8.8,1.17,3.99,-27.0,2.56,-21.37,6.81,5.13,-10.94,-0.5728082469661768,0.026445217411825702,0.090673910965835,-46.943892407350866,43.4682404912652,-70.14324952507593,-0.6116,-0.3983,0.3703,-0.5746
99,1417826.0,1278.3834539999998,1.0,8.8,1.17,3.99,-27.0,2.56,-21.37,6.81,5.13,-10.94,-0.5728082469661768,0.026445217411825702,0.090673910965835,-46.943892407350866,43.4682404912652,-70.14324952507593,-0.6116,-0.3983,0.3703,-0.5746
100,1417863.0,1278.389815,1.0,8.8,0.91,4.02,-27.0,1.06,-21.37,-2.94,7.19,-12.75,-0.2302406030833337,0.008967714338907307,0.09194934353140204,-46.85645674888645,43.18464974314042,-69.65393554150937,-0.6167,-0.3976,0.368,-0.5711
101,1417863.0,1278.389815,1.0,8.8,0.91,4.02,-27.0,1.06,-21.37,-2.94,7.19,-12.75,-0.2302406030833337,0.008967714338907307,0.09194934353140204,-46.85645674888645,43.18464974314042,-69.65393554150937,-0.6167,-0.3976,0.368,-0.5711
102,1417897.0,1278.400782,1.0,8.64,1.12,4.38,-28.19,1.06,-21.75,-2.63,10.94,-15.69,-0.3944400210178032,0.3389854260229801,0.0692013633825237,-46.59432285421078,43.061436120560906,-69.082580917068,-0.6225,-0.3955,0.36700000000000005,-0.5670000000000001
103,1417897.0,1278.400782,1.0,8.64,1.12,4.38,-28.19,1.06,-21.75,-2.63,10.94,-15.69,-0.3944400210178032,0.3389854260229801,0.0692013633825237,-46.59432285421078,43.061436120560906,-69.082580917068,-0.6225,-0.3955,0.36700000000000005,-0.5670000000000001
104,1417930.0,1278.445757,1.0,8.71,1.15,4.26,-28.19,1.06,-21.75,1.75,7.88,-20.12,-0.2954988216213565,0.143471464165706,0.048253800552542365,-46.69415285279771,42.507618370719364,-68.63800520067792,-0.6273,-0.3963,0.3625,-0.5638
105,1417930.0,1278.445757,1.0,8.71,1.15,4.26,-28.19,1.06,-21.75,1.75,7.88,-20.12,-0.2954988216213565,0.143471464165706,0.048253800552542365,-46.69415285279771,42.507618370719364,-68.63800520067792,-0.6273,-0.3963,0.3625,-0.5638
106,1417967.0,1278.462166,1.0,8.98,0.63,3.81,-26.69,0.75,-22.19,-11.44,0.81,-23.87,0.3519829268714325,-0.3688581234158768,0.04481350761901304,-46.58184673902731,42.45844069063149,-67.73855928586947,-0.6341,-0.3954,0.3621,-0.5573
107,1417967.0,1278.462166,1.0,8.98,0.63,3.81,-26.69,0.75,-22.19,-11.44,0.81,-23.87,0.3519829268714325,-0.3688581234158768,0.04481350761901304,-46.58184673902731,42.45844069063149,-67.73855928586947,-0.6341,-0.3954,0.3621,-0.5573
108,1418004.0,1278.503776,1.0,8.86,0.68,4.03,-25.5,0.75,-22.19,-12.38,2.25,-10.88,0.3479693775046693,-0.13397290585391652,0.05657981703126148,-46.23275206665912,42.667502601243356,-66.66543528126398,-0.6415,-0.3926,0.3638,-0.5495
109,1418004.0,1278.503776,1.0,8.86,0.68,4.03,-25.5,0.75,-22.19,-12.38,2.25,-10.88,0.3479693775046693,-0.13397290585391652,0.05657981703126148,-46.23275206665912,42.667502601243356,-66.66543528126398,-0.6415,-0.3926,0.3638,-0.5495
110,1418039.0,1278.515241,1.0,8.64,1.18,3.97,-25.5,0.75,-22.19,-10.63,5.88,-8.13,-0.16063842615219534,-0.16700007724965027,0.2280694021117107,-45.99612491286469,42.70441132531611,-66.36395629393388,-0.6443,-0.3907,0.3641,-0.5473
111,1418039.0,1278.515241,1.0,8.64,1.18,3.97,-25.5,0.75,-22.19,-10.63,5.88,-8.13,-0.16063842615219534,-0.16700007724965027,0.2280694021117107,-45.99612491286469,42.70441132531611,-66.36395629393388,-0.6443,-0.3907,0.3641,-0.5473
112,1418072.0,1278.568246,1.0,8.75,1.06,3.8,-26.25,0.69,-22.19,-6.81,6.38,-6.63,0.0074373833465084535,-0.3973201372930391,0.21664575631843694,-45.54834570673154,42.8397831220635,-65.73525876311373,-0.6498,-0.3871,0.3652,-0.5427
113,1418072.0,1278.568246,1.0,8.75,1.06,3.8,-26.25,0.69,-22.19,-6.81,6.38,-6.63,0.0074373833465084535,-0.3973201372930391,0.21664575631843694,-45.54834570673154,42.8397831220635,-65.73525876311373,-0.6498,-0.3871,0.3652,-0.5427
114,1418106.0,1278.585329,1.0,8.62,1.81,4.41,-27.37,-0.06,-22.19,-7.63,-1.81,-2.5,-0.7904905874957173,0.12014399524449447,-0.011154747064761494,-45.29989704883653,43.14768015800515,-65.21757686713724,-0.6527,-0.3851,0.3677,-0.5389
115,1418106.0,1278.585329,1.0,8.62,1.81,4.41,-27.37,-0.06,-22.19,-7.63,-1.81,-2.5,-0.7904905874957173,0.12014399524449447,-0.011154747064761494,-45.29989704883653,43.14768015800515,-65.21757686713724,-0.6527,-0.3851,0.3677,-0.5389
116,1418143.0,1278.626455,1.0,8.54,1.71,4.61,-26.69,1.06,-22.19,-1.94,-0.5,-4.44,-0.7059207553061904,0.34256108537017305,-0.016390659084027703,-45.08889233071614,43.406566594214624,-64.60646007520779,-0.6563,-0.3834,0.3698,-0.5344
117,1418143.0,1278.626455,1.0,8.54,1.71,4.61,-26.69,1.06,-22.19,-1.94,-0.5,-4.44,-0.7059207553061904,0.34256108537017305,-0.016390659084027703,-45.08889233071614,43.406566594214624,-64.60646007520779,-0.6563,-0.3834,0.3698,-0.5344
118,1418178.0,1278.679011,1.0,8.67,1.12,4.29,-26.69,1.06,-22.19,3.31,1.0,-3.25,-0.05628861051781642,0.08015110067104225,0.06920642412305432,-45.18816852620461,43.283258399546064,-64.57934727558172,-0.6565,-0.3842,0.3688,-0.5342
119,1418178.0,1278.679011,1.0,8.67,1.12,4.29,-26.69,1.06,-22.19,3.31,1.0,-3.25,-0.05628861051781642,0.08015110067104225,0.06920642412305432,-45.18816852620461,43.283258399546064,-64.57934727558172,-0.6565,-0.3842,0.3688,-0.5342
120,1418215.0,1278.6964,1.0,8.63,1.13,4.2,-26.25,-0.06,-22.19,3.06,1.56,-1.5,-0.051120176923953764,0.012640258998636744,0.14274670208958715,-45.08889233071614,43.35723698802017,-64.26784056455223,-0.6584,-0.3834,0.3694,-0.5319
121,1418215.0,1278.6964,1.0,8.63,1.13,4.2,-26.25,-0.06,-22.19,3.06,1.56,-1.5,-0.051120176923953764,0.012640258998636744,0.14274670208958715,-45.08889233071614,43.35723698802017,-64.26784056455223,-0.6584,-0.3834,0.3694,-0.5319
122,1418250.0,1278.738907,1.0,8.69,1.17,4.21,-26.25,-0.06,-21.75,-4.13,0.56,-2.0,-0.07636521499537374,-0.015309328644437237,0.08024090011143059,-44.91524480207666,43.49291375439449,-63.94335613096246,-0.6606,-0.382,0.3705,-0.5295
123,1418250.0,1278.738907,1.0,8.69,1.17,4.21,-26.25,-0.06,-21.75,-4.13,0.56,-2.0,-0.07636521499537374,-0.015309328644437237,0.08024090011143059,-44.91524480207666,43.49291375439449,-63.94335613096246,-0.6606,-0.382,0.3705,-0.5295
124,1418285.0,1278.808283,1.0,8.74,1.23,4.17,-26.25,-0.06,-21.75,-1.44,-2.19,0.69,-0.12276067941822301,-0.07442146862535615,0.04607669406164305,-44.927644585005865,43.52992762326994,-63.889331204462884,-0.6607,-0.3821,0.3708,-0.5291
125,1418285.0,1278.808283,1.0,8.74,1.23,4.17,-26.25,-0.06,-21.75,-1.44,-2.19,0.69,-0.12276067941822301,-0.07442146862535615,0.04607669406164305,-44.927644585005865,43.52992762326994,-63.889331204462884,-0.6607,-0.3821,0.3708,-0.5291
126,1418319.0,1278.81103,1.0,8.75,1.34,4.24,-27.37,0.37,-22.56,4.88,-2.38,0.06,-0.2279804043865423,-0.01770135175698151,-0.005761100099800132,-44.84085774318776,43.73976322550855,-63.484648540415236,-0.6626,-0.3814,0.3725,-0.5261
127,1418319.0,1278.81103,1.0,8.75,1.34,4.24,-27.37,0.37,-22.56,4.88,-2.38,0.06,-0.2279804043865423,-0.01770135175698151,-0.005761100099800132,-44.84085774318776,43.73976322550855,-63.484648540415236,-0.6626,-0.3814,0.3725,-0.5261
128,1418354.0,1278.851347,1.0,8.63,1.44,4.39,-25.5,0.37,-21.37,-2.88,-0.56,-0.94,-0.3522901291685865,0.15217461496515414,0.02527307487076591,-44.7293144859979,43.87562138331682,-63.148087344627434,-0.6645,-0.3805,0.3736,-0.5236
129,1418354.0,1278.851347,1.0,8.63,1.44,4.39,-25.5,0.37,-21.37,-2.88,-0.56,-0.94,-0.3522901291685865,0.15217461496515414,0.02527307487076591,-44.7293144859979,43.87562138331682,-63.148087344627434,-0.6645,-0.3805,0.3736,-0.5236
130,1418389.0,1278.86351,1.0,8.68,1.16,4.11,-25.5,0.37,-21.37,3.31,2.38,-0.88,-0.025715776122720246,-0.0812353402734991,0.13334448852415193,-44.77888374446125,43.75211129257185,-63.17498984222817,-0.6646,-0.3809,0.3726,-0.5238
131,1418389.0,1278.86351,1.0,8.68,1.16,4.11,-25.5,0.37,-21.37,3.31,2.38,-0.88,-0.025715776122720246,-0.0812353402734991,0.13334448852415193,-44.77888374446125,43.75211129257185,-63.17498984222817,-0.6646,-0.3809,0.3726,-0.5238
132,1418422.0,1278.9155660000001,1.0,8.75,1.13,4.26,-25.87,1.37,-22.19,-1.81,-1.44,-1.44,0.0018660927541669372,0.034938055930319845,0.00941692887498924,-44.543508213508154,44.03626472561431,-62.65108786966293,-0.6675,-0.379,0.3749,-0.5199
133,1418422.0,1278.9155660000001,1.0,8.75,1.13,4.26,-25.87,1.37,-22.19,-1.81,-1.44,-1.44,0.0018660927541669372,0.034938055930319845,0.00941692887498924,-44.543508213508154,44.03626472561431,-62.65108786966293,-0.6675,-0.379,0.3749,-0.5199
134,1418459.0,1278.992478,1.0,8.63,1.39,4.39,-26.69,0.69,-21.75,-2.5,-3.38,0.88,-0.2954307081073613,0.16156913100391468,0.030775813380479636,-44.320703388770774,44.33307679780215,-62.182157850572864,-0.6699,-0.3772,0.3773,-0.5164
135,1418459.0,1278.992478,1.0,8.63,1.39,4.39,-26.69,0.69,-21.75,-2.5,-3.38,0.88,-0.2954307081073613,0.16156913100391468,0.030775813380479636,-44.320703388770774,44.33307679780215,-62.182157850572864,-0.6699,-0.3772,0.3773,-0.5164
136,1418493.0,1278.997195,1.0,8.84,1.49,4.09,-26.25,-0.06,-21.37,-1.0,-0.81,0.06,-0.31123504447731043,-0.2027527198207486,-0.039964853933023285,-44.22173568720945,44.49398072982355,-61.821201404862826,-0.6716,-0.3764,0.3786,-0.5137
137,1418493.0,1278.997195,1.0,8.84,1.49,4.09,-26.25,-0.06,-21.37,-1.0,-0.81,0.06,-0.31123504447731043,-0.2027527198207486,-0.039964853933023285,-44.22173568720945,44.49398072982355,-61.821201404862826,-0.6716,-0.3764,0.3786,-0.5137
138,1418528.0,1279.035427,1.0,8.76,1.37,4.18,-26.25,-0.06,-21.37,1.88,0.12,-2.25,-0.20104818441545655,-0.059811488323539226,0.006501929005981566,-44.30833052387342,44.444462000793465,-61.74108139765568,-0.6719,-0.3771,0.3782,-0.5131
139,1418528.0,1279.035427,1.0,8.76,1.37,4.18,-26.25,-0.06,-21.37,1.88,0.12,-2.25,-0.20104818441545655,-0.059811488323539226,0.006501929005981566,-44.30833052387342,44.444462000793465,-61.74108139765568,-0.6719,-0.3771,0.3782,-0.5131
140,1418563.0,1279.057696,1.0,8.58,1.33,4.37,-26.25,0.69,-22.19,-0.75,-1.63,-2.44,-0.2019526099274884,0.1946627858759076,0.0905025359513747,-44.19699919021153,44.580659579875785,-61.30101752415778,-0.6743,-0.3762,0.3793,-0.5098
141,1418563.0,1279.057696,1.0,8.58,1.33,4.37,-26.25,0.69,-22.19,-0.75,-1.63,-2.44,-0.2019526099274884,0.1946627858759076,0.0905025359513747,-44.19699919021153,44.580659579875785,-61.30101752415778,-0.6743,-0.3762,0.3793,-0.5098
142,1418598.0,1279.1034439999999,1.0,8.55,1.09,4.37,-26.69,0.25,-21.37,0.88,1.0,-3.56,0.041505502945829775,0.2536815583318732,0.14634860924683402,-44.07334918943469,44.679754048391246,-60.91512002849741,-0.6766,-0.3752,0.3801,-0.5069
143,1418598.0,1279.1034439999999,1.0,8.55,1.09,4.37,-26.69,0.25,-21.37,0.88,1.0,-3.56,0.041505502945829775,0.2536815583318732,0.14634860924683402,-44.07334918943469,44.679754048391246,-60.91512002849741,-0.6766,-0.3752,0.3801,-0.5069
144,1418633.0,1279.115576,1.0,8.69,1.2,4.18,-26.69,0.25,-21.37,-4.13,0.75,-2.31,-0.0017406031121065535,-0.00758522947169249,0.08922032777727472,-43.99918511445215,44.64258950046725,-60.82208696099747,-0.6776,-0.3746,0.3798,-0.5062
145,1418633.0,1279.115576,1.0,8.69,1.2,4.18,-26.69,0.25,-21.37,-4.13,0.75,-2.31,-0.0017406031121065535,-0.00758522947169249,0.08922032777727472,-43.99918511445215,44.64258950046725,-60.82208696099747,-0.6776,-0.3746,0.3798,-0.5062
146,1418668.0,1279.152916,1.0,8.73,1.31,4.17,-26.25,0.69,-22.19,-4.13,2.19,-2.13,-0.09607755695835207,-0.06695634233219505,0.04426371634627202,-43.71506869334832,44.84085774318776,-60.370840106403314,-0.6805,-0.3723,0.3814,-0.5028
147,1418668.0,1279.152916,1.0,8.73,1.31,4.17,-26.25,0.69,-22.19,-4.13,2.19,-2.13,-0.09607755695835207,-0.06695634233219505,0.04426371634627202,-43.71506869334832,44.84085774318776,-60.370840106403314,-0.6805,-0.3723,0.3814,-0.5028
148,1418704.0,1279.209375,1.0,8.78,1.45,4.17,-26.25,-0.06,-22.56,-1.63,2.44,-0.06,-0.21423255940930352,-0.12902729732456786,-0.017669638887673145,-43.55460618777381,44.91524480207666,-60.11912281043993,-0.6823,-0.371,0.382,-0.5009
149,1418704.0,1279.209375,1.0,8.78,1.45,4.17,-26.25,-0.06,-22.56,-1.63,2.44,-0.06,-0.21423255940930352,-0.12902729732456786,-0.017669638887673145,-43.55460618777381,44.91524480207666,-60.11912281043993,-0.6823,-0.371,0.382,-0.5009
150,1418737.0,1279.226751,1.0,8.8,1.63,4.08,-26.25,-0.06,-22.56,2.06,-1.31,1.31,-0.3643880221122966,-0.2478947502729183,-0.01928860972722468,-43.64099789729804,44.89044689976561,-60.13236310008998,-0.682,-0.3717,0.3818,-0.501
151,1418737.0,1279.226751,1.0,8.8,1.63,4.08,-26.25,-0.06,-22.56,2.06,-1.31,1.31,-0.3643880221122966,-0.2478947502729183,-0.01928860972722468,-43.64099789729804,44.89044689976561,-60.13236310008998,-0.682,-0.3717,0.3818,-0.501
152,1418772.0,1279.267085,1.0,8.66,1.28,4.18,-26.25,-0.5,-23.0,7.88,-1.88,-0.31,-0.04699247231189041,-0.001785183209525254,0.10591866052528333,-43.801508905676954,44.878048779944685,-59.9867685475142,-0.6821,-0.373,0.3817,-0.4999
153,1418772.0,1279.267085,1.0,8.66,1.28,4.18,-26.25,-0.5,-23.0,7.88,-1.88,-0.31,-0.04699247231189041,-0.001785183209525254,0.10591866052528333,-43.801508905676954,44.878048779944685,-59.9867685475142,-0.6821,-0.373,0.3817,-0.4999
154,1418807.0,1279.325884,1.0,8.58,1.19,4.29,-26.25,0.69,-21.37,4.19,-0.06,0.25,0.012991921105764527,0.15130725908464404,0.14158210974003005,-43.665686030942155,45.02686284001362,-59.629851488997545,-0.684,-0.3719,0.3829,-0.4972
155,1418807.0,1279.325884,1.0,8.58,1.19,4.29,-26.25,0.69,-21.37,4.19,-0.06,0.25,0.012991921105764527,0.15130725908464404,0.14158210974003005,-43.665686030942155,45.02686284001362,-59.629851488997545,-0.684,-0.3719,0.3829,-0.4972
156,1418842.0,1279.33284,1.0,8.63,1.47,4.18,-26.25,0.69,-21.37,-2.25,0.94,0.69,-0.2275566996298599,-0.03584563337103197,0.1083443212217805,-43.49291375439449,45.16334612512468,-59.32631288225003,-0.6858,-0.3705,0.384,-0.4949
157,1418842.0,1279.33284,1.0,8.63,1.47,4.18,-26.25,0.69,-21.37,-2.25,0.94,0.69,-0.2275566996298599,-0.03584563337103197,0.1083443212217805,-43.49291375439449,45.16334612512468,-59.32631288225003,-0.6858,-0.3705,0.384,-0.4949
158,1418876.0,1279.4086109999998,1.0,8.67,1.41,4.28,-26.69,0.25,-22.19,0.0,0.94,-1.94,-0.17029369252864535,0.047300543140976536,0.037097158804888515,-43.480576858025245,45.13852596002858,-59.286754689259176,-0.6862,-0.3704,0.3838,-0.4946
159,1418876.0,1279.4086109999998,1.0,8.67,1.41,4.28,-26.69,0.25,-22.19,0.0,0.94,-1.94,-0.17029369252864535,0.047300543140976536,0.037097158804888515,-43.480576858025245,45.13852596002858,-59.286754689259176,-0.6862,-0.3704,0.3838,-0.4946
160,1418911.0,1279.41175,1.0,8.71,1.28,4.51,-27.0,1.0,-22.19,1.19,-0.44,0.5,-0.07156691443717156,0.26450166607064096,-0.08109580202200739,-43.283258399546064,45.31231413333559,-58.891598569681705,-0.6884,-0.3688,0.3852,-0.4916
161,1418911.0,1279.41175,1.0,8.71,1.28,4.51,-27.0,1.0,-22.19,1.19,-0.44,0.5,-0.07156691443717156,0.26450166607064096,-0.08109580202200739,-43.283258399546064,45.31231413333559,-58.891598569681705,-0.6884,-0.3688,0.3852,-0.4916
162,1418948.0,1279.448965,1.0,8.84,1.4,4.12,-25.87,0.25,-21.37,5.38,0.88,1.63,-0.09155911376437163,-0.16140877332394865,-0.0445206987840141,-43.17232602381402,45.424093194951936,-58.66801815565057,-0.6896,-0.3679,0.3861,-0.4899
163,1418948.0,1279.448965,1.0,8.84,1.4,4.12,-25.87,0.25,-21.37,5.38,0.88,1.63,-0.09155911376437163,-0.16140877332394865,-0.0445206987840141,-43.17232602381402,45.424093194951936,-58.66801815565057,-0.6896,-0.3679,0.3861,-0.4899
164,1418981.0,1279.465793,1.0,8.83,1.13,4.07,-25.87,0.25,-21.37,2.0,-1.12,1.19,0.17387539323027695,-0.12422590377905453,0.02068886823275129,-43.283258399546064,45.39924946360132,-58.76005092877733,-0.6888,-0.3688,0.3859,-0.4906
165,1418981.0,1279.465793,1.0,8.83,1.13,4.07,-25.87,0.25,-21.37,2.0,-1.12,1.19,0.17387539323027695,-0.12422590377905453,0.02068886823275129,-43.283258399546064,45.39924946360132,-58.76005092877733,-0.6888,-0.3688,0.3859,-0.4906
