,TIME,ELAPSED_SECONDS,PSTATE,acc_x,acc_y,acc_z,mag_x,mag_y,mag_z,gyr_x,gyr_y,gyr_z,lin_x,lin_y,lin_z,eul_x,eul_y,eul_z,qua_w,qua_x,qua_y,qua_z
0,1011556.0,871.320322,1.0,3.3,6.6,-6.84,-15.69,-30.06,13.25,-0.81,0.56,0.12,-0.07863650375867759,-0.06514293110172265,-0.2544221445979158,-125.29584795913513,25.47680417585264,-10.591876570929834,-0.3923,-0.8882,0.2205,-0.0923
1,1011556.0,871.320322,1.0,3.3,6.6,-6.84,-15.69,-30.06,13.25,-0.81,0.56,0.12,-0.07863650375867759,-0.06514293110172265,-0.2544221445979158,-125.29584795913513,25.47680417585264,-10.591876570929834,-0.3923,-0.8882,0.2205,-0.0923
2,1011591.0,871.3635609999999,1.0,3.29,6.49,-6.58,-15.25,-30.5,13.25,1.31,-1.0,-0.19,-0.039190308248044925,0.06712563423534368,-0.003271420121972568,-125.3457502614118,25.488552629562964,-10.580368342525214,-0.3919,-0.8884,0.2206,-0.0922
3,1011591.0,871.3635609999999,1.0,3.29,6.49,-6.58,-15.25,-30.5,13.25,1.31,-1.0,-0.19,-0.039190308248044925,0.06712563423534368,-0.003271420121972568,-125.3457502614118,25.488552629562964,-10.580368342525214,-0.3919,-0.8884,0.2206,-0.0922
4,1011625.0,871.390801,1.0,3.32,6.63,-6.7,-15.25,-30.5,13.25,-1.19,0.94,-0.69,-0.07484685718004203,0.06792198253074222,-0.18630174371713792,-125.3457502614118,25.47680417585264,-10.580368342525214,-0.3921,-0.8884,0.2205,-0.0922
5,1011625.0,871.390801,1.0,3.32,6.63,-6.7,-15.25,-30.5,13.25,-1.19,0.94,-0.69,-0.07484685718004203,0.06792198253074222,-0.18630174371713792,-125.3457502614118,25.47680417585264,-10.580368342525214,-0.3921,-0.8884,0.2205,-0.0922
6,1011660.0,871.430986,1.0,3.32,6.31,-6.89,-15.0,-30.06,12.88,-0.06,2.0,-1.12,0.07264726218997752,-0.2615095617216152,-0.10480474309520638,-125.37071718924679,25.394572616004382,-10.62640189942489,-0.3919,-0.8885,0.2198,-0.0926
7,1011660.0,871.430986,1.0,3.32,6.31,-6.89,-15.0,-30.06,12.88,-0.06,2.0,-1.12,0.07264726218997752,-0.2615095617216152,-0.10480474309520638,-125.37071718924679,25.394572616004382,-10.62640189942489,-0.3919,-0.8885,0.2198,-0.0926
8,1011695.0,871.448517,1.0,3.31,6.19,-6.66,-16.5,-30.06,14.19,4.31,0.5,-0.44,0.1173805514924231,-0.16022042836609618,0.13254274297283786,-125.42068267085124,25.382826336621637,-10.62640189942489,-0.3916,-0.8887,0.2197,-0.0926
9,1011695.0,871.448517,1.0,3.31,6.19,-6.66,-16.5,-30.06,14.19,4.31,0.5,-0.44,0.1173805514924231,-0.16022042836609618,0.13254274297283786,-125.42068267085124,25.382826336621637,-10.62640189942489,-0.3916,-0.8887,0.2197,-0.0926
10,1011732.0,871.5345060000001,1.0,3.31,6.49,-6.63,-15.25,-30.06,13.75,-0.31,0.94,0.25,-0.024710838307414718,0.04240663848255544,-0.04376578064006331,-125.42068267085124,25.394572616004382,-10.637910557080565,-0.3915,-0.8887,0.2198,-0.0927
11,1011732.0,871.5345060000001,1.0,3.31,6.49,-6.63,-15.25,-30.06,13.75,-0.31,0.94,0.25,-0.024710838307414718,0.04240663848255544,-0.04376578064006331,-125.42068267085124,25.394572616004382,-10.637910557080565,-0.3915,-0.8887,0.2198,-0.0927
12,1011765.0,871.5485189999999,1.0,3.45,6.58,-6.91,-15.25,-30.06,13.75,-1.0,1.88,-0.75,0.053019667356927765,-0.06844854035911352,-0.3392606891494001,-125.42068267085124,25.35933459116607,-10.695455461898506,-0.3915,-0.8887,0.2195,-0.0932
13,1011765.0,871.5485189999999,1.0,3.45,6.58,-6.91,-15.25,-30.06,13.75,-1.0,1.88,-0.75,0.053019667356927765,-0.06844854035911352,-0.3392606891494001,-125.42068267085124,25.35933459116607,-10.695455461898506,-0.3915,-0.8887,0.2195,-0.0932
14,1011802.0,871.6038560000001,1.0,3.25,6.38,-6.78,-15.25,-30.5,13.75,0.56,-0.88,-0.88,-0.03229259489121894,-0.14399630554420506,-0.053041792967201566,-125.49571017669871,25.35933459116607,-10.68394626499923,-0.391,-0.889,0.2195,-0.0931
15,1011802.0,871.6038560000001,1.0,3.25,6.38,-6.78,-15.25,-30.5,13.75,0.56,-0.88,-0.88,-0.03229259489121894,-0.14399630554420506,-0.053041792967201566,-125.49571017669871,25.35933459116607,-10.68394626499923,-0.391,-0.889,0.2195,-0.0931
16,1011836.0,871.6244849999999,1.0,3.23,6.49,-6.54,-14.56,-29.69,12.88,-1.75,0.44,0.0,-0.09924637508428946,0.08808485210412309,0.04412004020666594,-125.47069041747116,25.34758912480893,-10.67243717618693,-0.3912,-0.8889,0.2194,-0.09300000000000001
17,1011836.0,871.6244849999999,1.0,3.23,6.49,-6.54,-14.56,-29.69,12.88,-1.75,0.44,0.0,-0.09924637508428946,0.08808485210412309,0.04412004020666594,-125.47069041747116,25.34758912480893,-10.67243717618693,-0.3912,-0.8889,0.2194,-0.09300000000000001
18,1011871.0,871.6564199999999,1.0,3.46,6.6,-6.83,-14.56,-29.69,12.88,2.06,1.19,0.19,0.04937293415466215,0.01212824108301902,-0.3016592166366365,-125.47069041747116,25.35933459116607,-10.706964767003905,-0.3912,-0.8889,0.2195,-0.0933
19,1011871.0,871.6564199999999,1.0,3.46,6.6,-6.83,-14.56,-29.69,12.88,2.06,1.19,0.19,0.04937293415466215,0.01212824108301902,-0.3016592166366365,-125.47069041747116,25.35933459116607,-10.706964767003905,-0.3912,-0.8889,0.2195,-0.0933
20,1011906.0,871.672896,1.0,3.35,6.44,-6.93,-16.56,-30.06,12.38,2.5,-0.25,-0.94,0.02746626922199602,-0.17973414855692882,-0.22768810671623815,-125.5457815403515,25.312354349514575,-10.706964767003905,-0.3906,-0.8892,0.2191,-0.0933
21,1011906.0,871.672896,1.0,3.35,6.44,-6.93,-16.56,-30.06,12.38,2.5,-0.25,-0.94,0.02746626922199602,-0.17973414855692882,-0.22768810671623815,-125.5457815403515,25.312354349514575,-10.706964767003905,-0.3906,-0.8892,0.2191,-0.0933
22,1011941.0,871.7291359999999,1.0,3.08,6.27,-6.68,-15.75,-30.5,12.88,0.37,-0.37,-0.81,-0.13759181630679473,-0.16708867270682326,0.14358372331854066,-125.64605206137207,25.28886585104528,-10.718474180434589,-0.3898,-0.8896,0.2189,-0.0934
23,1011941.0,871.7291359999999,1.0,3.08,6.27,-6.68,-15.75,-30.5,12.88,0.37,-0.37,-0.81,-0.13759181630679473,-0.16708867270682326,0.14358372331854066,-125.64605206137207,25.28886585104528,-10.718474180434589,-0.3898,-0.8896,0.2189,-0.0934
24,1011978.0,871.7839880000001,1.0,2.81,5.68,-6.27,-15.75,-30.5,12.88,4.81,2.13,-1.06,-0.10825924708012367,-0.29694245496240995,0.8975812992960641,-125.72136723881637,25.241892093139462,-10.741493332748478,-0.3893,-0.8899,0.2185,-0.0936
25,1011978.0,871.7839880000001,1.0,2.81,5.68,-6.27,-15.75,-30.5,12.88,4.81,2.13,-1.06,-0.10825924708012367,-0.29694245496240995,0.8975812992960641,-125.72136723881637,25.241892093139462,-10.741493332748478,-0.3893,-0.8899,0.2185,-0.0936
26,1012011.0,871.841576,1.0,1.92,4.67,-5.4,-16.87,-29.69,14.19,-5.19,11.13,7.0,-0.4631129019948841,-0.5647877712153515,2.4498951982214683,-125.59589546247182,25.21840683143225,-11.00624507066077,-0.3899,-0.8894,0.2183,-0.0959
27,1012011.0,871.841576,1.0,1.92,4.67,-5.4,-16.87,-29.69,14.19,-5.19,11.13,7.0,-0.4631129019948841,-0.5647877712153515,2.4498951982214683,-125.59589546247182,25.21840683143225,-11.00624507066077,-0.3899,-0.8894,0.2183,-0.0959
28,1012045.0,871.848545,1.0,1.31,3.58,-4.88,-16.06,-30.5,13.69,12.69,20.87,15.75,-0.605519800886928,-1.0372956490273515,3.7317620580505535,-125.42068267085124,25.382826336621637,-11.985198208002226,-0.3887,-0.8887,0.2197,-0.1044
29,1012045.0,871.848545,1.0,1.31,3.58,-4.88,-16.06,-30.5,13.69,12.69,20.87,15.75,-0.605519800886928,-1.0372956490273515,3.7317620580505535,-125.42068267085124,25.382826336621637,-11.985198208002226,-0.3887,-0.8887,0.2197,-0.1044
30,1012082.0,871.9036990000001,1.0,-1.43,-0.78,-3.05,-16.5,-30.06,13.69,23.25,58.25,21.87,-1.0028642676284971,-3.148913463739834,8.789591860761165,-125.29584795913513,25.230149327633608,-13.51876311679545,-0.3867,-0.8882,0.2184,-0.1177
31,1012082.0,871.9036990000001,1.0,-1.43,-0.78,-3.05,-16.5,-30.06,13.69,23.25,58.25,21.87,-1.0028642676284971,-3.148913463739834,8.789591860761165,-125.29584795913513,25.230149327633608,-13.51876311679545,-0.3867,-0.8882,0.2184,-0.1177
32,1012117.0,871.9195789999999,1.0,-1.49,-2.23,-1.76,-16.5,-30.06,13.69,7.31,82.75,55.06,-0.30353932266823114,-3.072966777074054,10.675752448847783,-123.84213593724544,25.700071520307283,-17.114782424924247,-0.3871,-0.8823,0.2224,-0.1488
33,1012117.0,871.9195789999999,1.0,-1.49,-2.23,-1.76,-16.5,-30.06,13.69,7.31,82.75,55.06,-0.30353932266823114,-3.072966777074054,10.675752448847783,-123.84213593724544,25.700071520307283,-17.114782424924247,-0.3871,-0.8823,0.2224,-0.1488
34,1012154.0,871.922342,1.0,1.7,-3.14,-1.13,-17.19,-29.0,13.25,-38.94,125.0,99.25,2.9688668214591054,-2.257942530619901,10.14432636111683,-120.96377821929032,26.759019228055678,-21.07744476440248,-0.3948,-0.8702,0.2314,-0.1829
35,1012154.0,871.922342,1.0,1.7,-3.14,-1.13,-17.19,-29.0,13.25,-38.94,125.0,99.25,2.9688668214591054,-2.257942530619901,10.14432636111683,-120.96377821929032,26.759019228055678,-21.07744476440248,-0.3948,-0.8702,0.2314,-0.1829
36,1012191.0,871.964752,1.0,6.91,2.18,-1.2,-19.75,-27.75,11.38,-185.81,165.38,118.06,3.740412440678558,1.5233190869570576,3.672376307627823,-112.19747600626744,29.203628467396108,-26.759019228055678,-0.4404,-0.83,0.2521,-0.2314
37,1012191.0,871.964752,1.0,6.91,2.18,-1.2,-19.75,-27.75,11.38,-185.81,165.38,118.06,3.740412440678558,1.5233190869570576,3.672376307627823,-112.19747600626744,29.203628467396108,-26.759019228055678,-0.4404,-0.83,0.2521,-0.2314
38,1012226.0,871.9823949999999,1.0,7.41,3.06,-0.5,-19.75,-27.75,11.38,-99.19,132.5,112.94,3.1423771258989306,2.1123982474864924,2.7225170507504446,-105.55643382820686,31.12626391611525,-30.74578979374247,-0.4728,-0.7963,0.2683,-0.2651
39,1012226.0,871.9823949999999,1.0,7.41,3.06,-0.5,-19.75,-27.75,11.38,-99.19,132.5,112.94,3.1423771258989306,2.1123982474864924,2.7225170507504446,-105.55643382820686,31.12626391611525,-30.74578979374247,-0.4728,-0.7963,0.2683,-0.2651
40,1012260.0,872.0255890000001,1.0,8.38,0.62,2.14,-23.56,-26.25,5.25,-94.75,123.56,131.88,5.312926385048329,3.3067198240215565,3.804415646654558,-99.03424230026712,33.46454755353707,-36.27518399341682,-0.4916,-0.7606,0.2879,-0.3113
41,1012260.0,872.0255890000001,1.0,8.38,0.62,2.14,-23.56,-26.25,5.25,-94.75,123.56,131.88,5.312926385048329,3.3067198240215565,3.804415646654558,-99.03424230026712,33.46454755353707,-36.27518399341682,-0.4916,-0.7606,0.2879,-0.3113
42,1012297.0,872.083392,1.0,16.04,8.31,2.65,-25.87,-23.69,1.19,-223.06,119.31,170.44,2.1163037299098346,5.7708269807234585,-7.38576153769081,-88.38959436761328,38.47686069075838,-40.77896631080099,-0.5331,-0.6971,0.3295,-0.3484
43,1012297.0,872.083392,1.0,16.04,8.31,2.65,-25.87,-23.69,1.19,-223.06,119.31,170.44,2.1163037299098346,5.7708269807234585,-7.38576153769081,-88.38959436761328,38.47686069075838,-40.77896631080099,-0.5331,-0.6971,0.3295,-0.3484
44,1012334.0,872.100734,1.0,14.06,7.99,2.67,-28.5,-17.75,-4.56,-54.88,100.87,163.44,-0.3417418148385756,4.5891779382674684,-5.9246963626896845,-81.91514696476024,42.00393403253583,-44.37020029186166,-0.5471,-0.6555,0.3584,-0.3776
45,1012334.0,872.100734,1.0,14.06,7.99,2.67,-28.5,-17.75,-4.56,-54.88,100.87,163.44,-0.3417418148385756,4.5891779382674684,-5.9246963626896845,-81.91514696476024,42.00393403253583,-44.37020029186166,-0.5471,-0.6555,0.3584,-0.3776
46,1012369.0,872.142915,1.0,11.71,5.53,4.22,-28.5,-17.75,-4.56,-70.37,120.75,106.19,-0.2274953230635273,4.609574397405792,-3.0079303580439305,-75.78762767861531,43.283258399546064,-49.41676675386262,-0.5585,-0.6142,0.3688,-0.418
47,1012369.0,872.142915,1.0,11.71,5.53,4.22,-28.5,-17.75,-4.56,-70.37,120.75,106.19,-0.2274953230635273,4.609574397405792,-3.0079303580439305,-75.78762767861531,43.283258399546064,-49.41676675386262,-0.5585,-0.6142,0.3688,-0.418
48,1012406.0,872.19921,1.0,12.52,3.77,3.43,-31.0,-12.38,-7.5,-106.19,157.38,61.06,0.9874612573808969,2.512893236331283,-3.4386694694568347,-70.33938584771147,43.283258399546064,-52.297104839209034,-0.5813,-0.5760000000000001,0.3688,-0.4407
49,1012406.0,872.19921,1.0,12.52,3.77,3.43,-31.0,-12.38,-7.5,-106.19,157.38,61.06,0.9874612573808969,2.512893236331283,-3.4386694694568347,-70.33938584771147,43.283258399546064,-52.297104839209034,-0.5813,-0.5760000000000001,0.3688,-0.4407
50,1012443.0,872.216025,1.0,14.26,4.59,2.99,-29.75,-9.06,-12.38,-74.37,124.87,97.0,-0.22628675012515576,0.36468609465357504,-5.463307379085383,-63.471174371632316,43.406566594214624,-56.2374309655145,-0.6036,-0.526,0.3698,-0.4713
51,1012443.0,872.216025,1.0,14.26,4.59,2.99,-29.75,-9.06,-12.38,-74.37,124.87,97.0,-0.22628675012515576,0.36468609465357504,-5.463307379085383,-63.471174371632316,43.406566594214624,-56.2374309655145,-0.6036,-0.526,0.3698,-0.4713
52,1012477.0,872.261956,1.0,13.43,5.26,3.13,-29.75,-9.06,-12.38,-61.31,97.94,102.87,-1.941943017009016,-0.1746040395803461,-4.823037992163476,-59.352689332048705,43.87562138331682,-59.550623188016026,-0.6072,-0.4951,0.3736,-0.4966
53,1012477.0,872.261956,1.0,13.43,5.26,3.13,-29.75,-9.06,-12.38,-61.31,97.94,102.87,-1.941943017009016,-0.1746040395803461,-4.823037992163476,-59.352689332048705,43.87562138331682,-59.550623188016026,-0.6072,-0.4951,0.3736,-0.4966
54,1012512.0,872.279893,1.0,11.82,4.34,3.2,-29.87,-5.19,-16.56,-54.94,104.94,39.44,-2.0614165435551395,-0.7355865337938527,-2.9994998618928523,-54.14273717736637,43.96211035016289,-62.28923949337646,-0.6207,-0.4551,0.3743,-0.5172
55,1012512.0,872.279893,1.0,11.82,4.34,3.2,-29.87,-5.19,-16.56,-54.94,104.94,39.44,-2.0614165435551395,-0.7355865337938527,-2.9994998618928523,-54.14273717736637,43.96211035016289,-62.28923949337646,-0.6207,-0.4551,0.3743,-0.5172
56,1012547.0,872.3665689999999,1.0,11.59,3.17,3.07,-28.5,-2.56,-18.19,-48.0,106.25,26.12,-1.2406052560184646,-1.6815239067722725,-2.4177222108619016,-49.947121594647854,42.815165407712406,-64.33551407206754,-0.6364,-0.4222,0.365,-0.5324
57,1012547.0,872.3665689999999,1.0,11.59,3.17,3.07,-28.5,-2.56,-18.19,-48.0,106.25,26.12,-1.2406052560184646,-1.6815239067722725,-2.4177222108619016,-49.947121594647854,42.815165407712406,-64.33551407206754,-0.6364,-0.4222,0.365,-0.5324
58,1012584.0,872.4189039999999,1.0,12.56,2.85,1.94,-28.5,-1.06,-21.5,-52.69,99.19,34.13,-0.975561087954663,-3.7665834810704313,-2.6231862597339184,-46.769049990136345,42.065313242449655,-65.84443673875893,-0.6467,-0.3969,0.3589,-0.5435
59,1012584.0,872.4189039999999,1.0,12.56,2.85,1.94,-28.5,-1.06,-21.5,-52.69,99.19,34.13,-0.975561087954663,-3.7665834810704313,-2.6231862597339184,-46.769049990136345,42.065313242449655,-65.84443673875893,-0.6467,-0.3969,0.3589,-0.5435
60,1012619.0,872.482727,1.0,12.44,2.63,2.07,-28.5,-1.06,-21.5,-58.88,81.0,38.0,-1.125704054317617,-4.3539279312608565,-2.2652803324480573,-42.75363018855425,41.68496498644351,-67.51788517086389,-0.657,-0.3645,0.3558,-0.5557
61,1012619.0,872.482727,1.0,12.44,2.63,2.07,-28.5,-1.06,-21.5,-58.88,81.0,38.0,-1.125704054317617,-4.3539279312608565,-2.2652803324480573,-42.75363018855425,41.68496498644351,-67.51788517086389,-0.657,-0.3645,0.3558,-0.5557
62,1012656.0,872.607741,1.0,11.87,3.03,2.6,-26.87,0.69,-22.56,-30.81,23.44,54.13,-1.9593348562278297,-3.972941169899592,-1.9072112498905565,-40.595644110417574,42.163546289132256,-68.61025837525389,-0.6577,-0.3469,0.3597,-0.5636
63,1012656.0,872.607741,1.0,11.87,3.03,2.6,-26.87,0.69,-22.56,-30.81,23.44,54.13,-1.9593348562278297,-3.972941169899592,-1.9072112498905565,-40.595644110417574,42.163546289132256,-68.61025837525389,-0.6577,-0.3469,0.3597,-0.5636
64,1012692.0,872.682818,1.0,10.95,3.08,3.8,-25.25,3.5,-23.75,2.06,-20.69,56.81,-2.6763779056592574,-2.4168799081202015,-1.6312078770600156,-39.79030547860814,43.41890031609472,-70.19926439078702,-0.6456,-0.3403,0.3699,-0.575
65,1012692.0,872.682818,1.0,10.95,3.08,3.8,-25.25,3.5,-23.75,2.06,-20.69,56.81,-2.6763779056592574,-2.4168799081202015,-1.6312078770600156,-39.79030547860814,43.41890031609472,-70.19926439078702,-0.6456,-0.3403,0.3699,-0.575
66,1012727.0,872.7282759999999,1.0,10.28,3.88,4.77,-25.25,3.5,-23.75,-5.38,-7.5,25.12,-3.8092306773893783,-1.2616423182457988,-1.4797896648033824,-39.48578948035391,44.13516742855202,-70.81670578777461,-0.6396,-0.3378,0.3757,-0.5794
67,1012727.0,872.7282759999999,1.0,10.28,3.88,4.77,-25.25,3.5,-23.75,-5.38,-7.5,25.12,-3.8092306773893783,-1.2616423182457988,-1.4797896648033824,-39.48578948035391,44.13516742855202,-70.81670578777461,-0.6396,-0.3378,0.3757,-0.5794
68,1012762.0,872.7452089999999,1.0,9.59,3.28,4.82,-25.25,5.0,-23.69,2.69,-8.88,-13.13,-3.2554768880972134,-0.7625447514716763,-0.9068599632691718,-39.6684640703974,44.38257587959071,-70.64807912994407,-0.6387,-0.3393,0.3777,-0.5782
69,1012762.0,872.7452089999999,1.0,9.59,3.28,4.82,-25.25,5.0,-23.69,2.69,-8.88,-13.13,-3.2554768880972134,-0.7625447514716763,-0.9068599632691718,-39.6684640703974,44.38257587959071,-70.64807912994407,-0.6387,-0.3393,0.3777,-0.5782
70,1012797.0,872.74823,1.0,8.58,1.17,5.52,-26.06,5.69,-22.87,9.0,-12.81,-19.19,-1.1367076702747894,0.6387694142167719,-0.3793977766305243,-40.43685258518578,44.24647435383947,-70.0172862891219,-0.6401,-0.3456,0.3766,-0.5737
71,1012797.0,872.74823,1.0,8.58,1.17,5.52,-26.06,5.69,-22.87,9.0,-12.81,-19.19,-1.1367076702747894,0.6387694142167719,-0.3793977766305243,-40.43685258518578,44.24647435383947,-70.0172862891219,-0.6401,-0.3456,0.3766,-0.5737
72,1012834.0,872.751339,1.0,8.09,1.14,5.31,-25.19,5.0,-24.06,19.0,-15.44,-12.06,-1.0450790912690855,0.7737473222744782,0.1498946042024425,-41.03580078188174,44.24647435383947,-69.61206209055514,-0.6399,-0.3505,0.3766,-0.5708
73,1012834.0,872.751339,1.0,8.09,1.14,5.31,-25.19,5.0,-24.06,19.0,-15.44,-12.06,-1.0450790912690855,0.7737473222744782,0.1498946042024425,-41.03580078188174,44.24647435383947,-69.61206209055514,-0.6399,-0.3505,0.3766,-0.5708
74,1012867.0,872.7916730000001,1.0,7.76,0.26,5.33,-25.19,5.0,-24.06,23.56,-16.56,-0.5,-0.10068543571483146,1.1510103822425892,0.4600389808655922,-42.10214683605518,44.060987161952966,-69.66789572403633,-0.6356,-0.3592,0.3751,-0.5712
75,1012867.0,872.7916730000001,1.0,7.76,0.26,5.33,-25.19,5.0,-24.06,23.56,-16.56,-0.5,-0.10068543571483146,1.1510103822425892,0.4600389808655922,-42.10214683605518,44.060987161952966,-69.66789572403633,-0.6356,-0.3592,0.3751,-0.5712
76,1012903.0,872.808717,1.0,8.19,0.41,4.65,-25.19,4.56,-22.06,40.5,-12.56,4.25,-0.12178470750165493,0.4242342383281255,0.3900745186453829,-43.01216531236248,43.78915870024722,-70.05926324812907,-0.6301,-0.3666,0.3729,-0.574
77,1012903.0,872.808717,1.0,8.19,0.41,4.65,-25.19,4.56,-22.06,40.5,-12.56,4.25,-0.12178470750165493,0.4242342383281255,0.3900745186453829,-43.01216531236248,43.78915870024722,-70.05926324812907,-0.6301,-0.3666,0.3729,-0.574
78,1012940.0,872.865376,1.0,8.3,0.33,4.35,-26.0,3.06,-23.69,52.75,-5.88,-3.38,0.13747430555191031,0.17042199763344068,0.4325656629548238,-44.506361779453115,42.70441132531611,-70.76047732673608,-0.6235,-0.3787,0.3641,-0.579
79,1012940.0,872.865376,1.0,8.3,0.33,4.35,-26.0,3.06,-23.69,52.75,-5.88,-3.38,0.13747430555191031,0.17042199763344068,0.4325656629548238,-44.506361779453115,42.70441132531611,-70.76047732673608,-0.6235,-0.3787,0.3641,-0.579
80,1012975.0,873.138733,1.0,8.21,-1.1,4.93,-26.0,3.06,-23.69,34.81,-2.56,-0.44,1.6870887616308172,0.7887765085804195,0.3488192164698418,-45.57320299258629,41.84440708007335,-71.25314422862833,-0.619,-0.3873,0.3571,-0.5825
81,1012975.0,873.138733,1.0,8.21,-1.1,4.93,-26.0,3.06,-23.69,34.81,-2.56,-0.44,1.6870887616308172,0.7887765085804195,0.3488192164698418,-45.57320299258629,41.84440708007335,-71.25314422862833,-0.619,-0.3873,0.3571,-0.5825
82,1013008.0,873.1494849999999,1.0,8.37,-0.6,4.63,-26.37,3.06,-22.06,10.56,0.63,11.94,1.173214112650732,0.4424975261083681,0.30498885127105346,-45.461363019954995,41.979385883293695,-71.23904701158034,-0.619,-0.3864,0.3582,-0.5824
83,1013008.0,873.1494849999999,1.0,8.37,-0.6,4.63,-26.37,3.06,-22.06,10.56,0.63,11.94,1.173214112650732,0.4424975261083681,0.30498885127105346,-45.461363019954995,41.979385883293695,-71.23904701158034,-0.619,-0.3864,0.3582,-0.5824
84,1013045.0,873.153332,1.0,8.67,-0.26,3.99,-26.0,1.56,-22.5,5.25,8.56,15.75,0.7967443963517153,-0.2985239539681368,0.2970400281983476,-45.06407886296696,42.163546289132256,-71.3236489687373,-0.6196,-0.3832,0.3597,-0.583
85,1013045.0,873.153332,1.0,8.67,-0.26,3.99,-26.0,1.56,-22.5,5.25,8.56,15.75,0.7967443963517153,-0.2985239539681368,0.2970400281983476,-45.06407886296696,42.163546289132256,-71.3236489687373,-0.6196,-0.3832,0.3597,-0.583
86,1013080.0,873.2127820000001,1.0,8.79,-0.47,4.22,-26.0,1.56,-22.5,11.69,2.25,8.63,0.9811051871054268,-0.15901403238942846,0.09554567817654913,-44.81606648541226,42.26181180963939,-71.38007517925647,-0.6199,-0.3812,0.3605,-0.5834
87,1013080.0,873.2127820000001,1.0,8.79,-0.47,4.22,-26.0,1.56,-22.5,11.69,2.25,8.63,0.9811051871054268,-0.15901403238942846,0.09554567817654913,-44.81606648541226,42.26181180963939,-71.38007517925647,-0.6199,-0.3812,0.3605,-0.5834
88,1013114.0,873.2590970000001,1.0,8.44,-0.05,4.6,-26.37,2.25,-23.25,-15.63,-0.94,10.75,0.4760454986637137,0.3291939557542931,0.21180179782937536,-44.543508213508154,42.569102018017894,-71.46475194075083,-0.6192,-0.379,0.363,-0.584
89,1013114.0,873.2590970000001,1.0,8.44,-0.05,4.6,-26.37,2.25,-23.25,-15.63,-0.94,10.75,0.4760454986637137,0.3291939557542931,0.21180179782937536,-44.543508213508154,42.569102018017894,-71.46475194075083,-0.6192,-0.379,0.363,-0.584
90,1013151.0,873.277183,1.0,8.45,0.36,4.44,-26.37,2.69,-22.87,-8.5,2.31,13.19,-0.040331160103561185,0.1517893410486486,0.255679714554196,-43.7274156925049,43.283258399546064,-71.1404012489265,-0.622,-0.3724,0.3688,-0.5817
91,1013151.0,873.277183,1.0,8.45,0.36,4.44,-26.37,2.69,-22.87,-8.5,2.31,13.19,-0.040331160103561185,0.1517893410486486,0.255679714554196,-43.7274156925049,43.283258399546064,-71.1404012489265,-0.622,-0.3724,0.3688,-0.5817
92,1013186.0,873.373138,1.0,8.56,-0.03,4.78,-26.37,3.5,-22.5,-7.69,3.13,16.81,0.2603842540536072,0.40802016169330746,0.014376536299513631,-43.08607465863793,43.801508905676954,-70.8870189593387,-0.6243,-0.3672,0.373,-0.5799
93,1013186.0,873.373138,1.0,8.56,-0.03,4.78,-26.37,3.5,-22.5,-7.69,3.13,16.81,0.2603842540536072,0.40802016169330746,0.014376536299513631,-43.08607465863793,43.801508905676954,-70.8870189593387,-0.6243,-0.3672,0.373,-0.5799
94,1013219.0,873.41695,1.0,8.47,0.86,4.9,-26.37,3.5,-22.5,-30.75,5.31,20.62,-0.8317079144919517,0.459347440296435,0.02975060018695608,-42.053036389733045,44.593044465749166,-71.1404012489265,-0.6237,-0.3588,0.3794,-0.5817
95,1013219.0,873.41695,1.0,8.47,0.86,4.9,-26.37,3.5,-22.5,-30.75,5.31,20.62,-0.8317079144919517,0.459347440296435,0.02975060018695608,-42.053036389733045,44.593044465749166,-71.1404012489265,-0.6237,-0.3588,0.3794,-0.5817
96,1013256.0,873.4359630000001,1.0,8.79,1.16,4.53,-26.69,3.06,-22.06,3.5,1.94,12.75,-1.1764736863264582,-0.06372740922738251,-0.07982806262142184,-41.501098206620334,45.002054941253824,-71.0277375402144,-0.6249,-0.3543,0.3827,-0.5809
97,1013256.0,873.4359630000001,1.0,8.79,1.16,4.53,-26.69,3.06,-22.06,3.5,1.94,12.75,-1.1764736863264582,-0.06372740922738251,-0.07982806262142184,-41.501098206620334,45.002054941253824,-71.0277375402144,-0.6249,-0.3543,0.3827,-0.5809
98,1013293.0,873.439066,1.0,8.88,0.77,4.76,-26.37,4.06,-22.5,3.38,-2.0,10.56,-0.8545520033024556,0.1293700560630775,-0.2610162768610902,-41.24387223496928,45.29989704883653,-70.9995839667978,-0.6248,-0.3522,0.3851,-0.5807
99,1013293.0,873.439066,1.0,8.88,0.77,4.76,-26.37,4.06,-22.5,3.38,-2.0,10.56,-0.8545520033024556,0.1293700560630775,-0.2610162768610902,-41.24387223496928,45.29989704883653,-70.9995839667978,-0.6248,-0.3522,0.3851,-0.5807
100,1013327.0,873.4793960000001,1.0,9.06,0.54,4.04,-26.37,4.06,-22.5,1.94,-1.69,2.5,-0.585442454542938,-0.5711448262539194,-0.09425151046166924,-41.26836056402613,45.287480525770206,-71.18267056189946,-0.6235,-0.3524,0.385,-0.5820000000000001
101,1013327.0,873.4793960000001,1.0,9.06,0.54,4.04,-26.37,4.06,-22.5,1.94,-1.69,2.5,-0.585442454542938,-0.5711448262539194,-0.09425151046166924,-41.26836056402613,45.287480525770206,-71.18267056189946,-0.6235,-0.3524,0.385,-0.5820000000000001
102,1013360.0,873.48648,1.0,8.83,0.82,4.29,-25.56,3.69,-21.69,-10.19,-2.31,-4.0,-0.8717441345308563,-0.2523834312664379,-0.002619328932368603,-41.109221581061185,45.61049316943376,-70.52172446832354,-0.6271,-0.3511,0.3876,-0.5773
103,1013360.0,873.48648,1.0,8.83,0.82,4.29,-25.56,3.69,-21.69,-10.19,-2.31,-4.0,-0.8717441345308563,-0.2523834312664379,-0.002619328932368603,-41.109221581061185,45.61049316943376,-70.52172446832354,-0.6271,-0.3511,0.3876,-0.5773
104,1013395.0,873.5050960000001,1.0,8.76,0.18,4.42,-25.56,4.5,-22.06,7.19,-0.5,-3.5,-0.21563723409428334,-0.048329574998713376,-0.004443967313360275,-41.02356569436402,45.685088838323495,-70.04526973118621,-0.6301,-0.3504,0.3882,-0.5739
105,1013395.0,873.5050960000001,1.0,8.76,0.18,4.42,-25.56,4.5,-22.06,7.19,-0.5,-3.5,-0.21563723409428334,-0.048329574998713376,-0.004443967313360275,-41.02356569436402,45.685088838323495,-70.04526973118621,-0.6301,-0.3504,0.3882,-0.5739
106,1013432.0,873.508355,1.0,8.73,0.45,4.22,-25.19,4.06,-22.87,0.94,-2.94,-3.0,-0.4506328126194472,-0.22171503421243788,0.11275643178939987,-40.99909698527016,45.84678304356361,-69.65393554150937,-0.6321,-0.3502,0.3895,-0.5711
107,1013432.0,873.508355,1.0,8.73,0.45,4.22,-25.19,4.06,-22.87,0.94,-2.94,-3.0,-0.4506328126194472,-0.22171503421243788,0.11275643178939987,-40.99909698527016,45.84678304356361,-69.65393554150937,-0.6321,-0.3502,0.3895,-0.5711
108,1013467.0,873.5481130000001,1.0,8.58,-0.26,4.35,-25.19,4.06,-22.87,14.5,-5.13,-7.5,0.292539088502102,0.05606837486516625,0.188033819954228,-41.39083180240233,45.62292436209528,-69.62601872527647,-0.6317,-0.3534,0.3877,-0.5709
109,1013467.0,873.5481130000001,1.0,8.58,-0.26,4.35,-25.19,4.06,-22.87,14.5,-5.13,-7.5,0.292539088502102,0.05606837486516625,0.188033819954228,-41.39083180240233,45.62292436209528,-69.62601872527647,-0.6317,-0.3534,0.3877,-0.5709
110,1013504.0,873.5651019999999,1.0,8.43,0.0,4.53,-25.56,3.75,-22.06,-1.63,-2.06,-3.63,0.04378540570876677,0.2872908358465156,0.2410163663150069,-41.452085959696824,45.74726752330664,-69.11040625696496,-0.6339,-0.3539,0.3887,-0.5672
111,1013504.0,873.5651019999999,1.0,8.43,0.0,4.53,-25.56,3.75,-22.06,-1.63,-2.06,-3.63,0.04378540570876677,0.2872908358465156,0.2410163663150069,-41.452085959696824,45.74726752330664,-69.11040625696496,-0.6339,-0.3539,0.3887,-0.5672
112,1013538.0,873.5680050000001,1.0,8.45,-0.31,4.58,-26.0,3.5,-22.5,1.56,2.31,-3.44,0.3598958130211103,0.3514652644137932,0.20342412680090935,-41.280605467484456,45.84678304356361,-68.73515523864087,-0.6367,-0.3525,0.3895,-0.5645
113,1013538.0,873.5680050000001,1.0,8.45,-0.31,4.58,-26.0,3.5,-22.5,1.56,2.31,-3.44,0.3598958130211103,0.3514652644137932,0.20342412680090935,-41.280605467484456,45.84678304356361,-68.73515523864087,-0.6367,-0.3525,0.3895,-0.5645
114,1013573.0,873.5940220000001,1.0,8.42,0.06,4.62,-26.0,3.5,-22.5,-15.44,1.69,1.94,-0.04349431939728543,0.33752226787343065,0.2082862351247723,-40.98686336329807,45.98367660557063,-68.66575661319368,-0.6377,-0.3501,0.3906,-0.564
115,1013573.0,873.5940220000001,1.0,8.42,0.06,4.62,-26.0,3.5,-22.5,-15.44,1.69,1.94,-0.04349431939728543,0.33752226787343065,0.2082862351247723,-40.98686336329807,45.98367660557063,-68.66575661319368,-0.6377,-0.3501,0.3906,-0.564
116,1013608.0,873.712433,1.0,8.48,0.03,4.22,-26.37,4.19,-23.25,6.69,3.63,-3.19,0.034917468601179065,-0.057977132272923886,0.33484344462103444,-40.69340241756593,46.12063959224854,-68.2776528480455,-0.6409,-0.3477,0.3917,-0.5612
117,1013608.0,873.712433,1.0,8.48,0.03,4.22,-26.37,4.19,-23.25,6.69,3.63,-3.19,0.034917468601179065,-0.057977132272923886,0.33484344462103444,-40.69340241756593,46.12063959224854,-68.2776528480455,-0.6409,-0.3477,0.3917,-0.5612
118,1013643.0,873.71551,1.0,8.46,-0.11,4.6,-26.0,3.75,-21.25,-14.31,1.81,2.81,0.1362547502274616,0.29537603558766196,0.18179220153663955,-40.43685258518578,46.25767230528911,-67.83519390579393,-0.6441,-0.3456,0.3928,-0.5579999999999999
119,1013643.0,873.71551,1.0,8.46,-0.11,4.6,-26.0,3.75,-21.25,-14.31,1.81,2.81,0.1362547502274616,0.29537603558766196,0.18179220153663955,-40.43685258518578,46.25767230528911,-67.83519390579393,-0.6441,-0.3456,0.3928,-0.5579999999999999
120,1013678.0,873.807612,1.0,8.43,0.94,4.67,-26.0,3.75,-21.25,-15.19,0.44,7.25,-0.9928992793430174,0.2039235600548719,0.17701001697184005,-39.9000028418168,46.7191162156521,-67.66956803559746,-0.6452,-0.3412,0.3965,-0.5568
121,1013678.0,873.807612,1.0,8.43,0.94,4.67,-26.0,3.75,-21.25,-15.19,0.44,7.25,-0.9928992793430174,0.2039235600548719,0.17701001697184005,-39.9000028418168,46.7191162156521,-67.66956803559746,-0.6452,-0.3412,0.3965,-0.5568
122,1013712.0,873.90895,1.0,8.68,0.11,4.37,-26.69,4.19,-21.69,9.81,3.88,1.94,-0.10850444959722272,-0.07316766170655288,0.08892015822635635,-39.72937892373464,46.70663424071843,-67.51788517086389,-0.647,-0.3398,0.3964,-0.5557
123,1013712.0,873.90895,1.0,8.68,0.11,4.37,-26.69,4.19,-21.69,9.81,3.88,1.94,-0.10850444959722272,-0.07316766170655288,0.08892015822635635,-39.72937892373464,46.70663424071843,-67.51788517086389,-0.647,-0.3398,0.3964,-0.5557
