TIME,ELAPSED_SECONDS,PSTATE,acc_x,acc_y,acc_z,mag_x,mag_y,mag_z,gyr_x,gyr_y,gyr_z,lin_x,lin_y,lin_z,eul_x,eul_y,eul_z,qua_w,qua_x,qua_y,qua_z
2634428.0,2606.495487,1.0,4.11,2.15,-8.8,-15.5,-23.06,27.5,3.5,-0.81,0.31,-0.09516558576015577,0.023605731500660143,-0.14045944348795558,-151.20776005427302,5.8008100451393725,-24.40881688456287,-0.1207,-0.9686,0.0506,-0.2114
2634463.0,2606.51827,1.0,4.17,2.16,-8.72,-15.5,-23.06,27.5,2.06,-0.37,-1.69,-0.005676037273088261,0.06294595659105262,-0.09733432900364568,-151.2538864729402,5.754915093896803,-24.38536915234885,-0.1203,-0.9687,0.0502,-0.2112
2634498.0,2606.56246,1.0,4.11,2.08,-8.87,-15.88,-24.25,27.87,2.5,-0.69,-1.88,-0.10179296941035228,-0.0461560229997362,-0.18749367581932566,-151.34635737161238,5.663127955663872,-24.361922456785425,-0.1197,-0.9689,0.0494,-0.21100000000000002
2634532.0,2606.579882,1.0,4.07,2.12,-8.69,-16.56,-23.5,27.19,4.13,-0.75,-1.37,-0.06945849657199868,0.04596559876457218,-0.02027539307102621,-151.3927025567389,5.605762844556931,-24.350199497398,-0.1191,-0.9690000000000001,0.0489,-0.2109
2634567.0,2606.6260350000002,1.0,3.87,2.05,-8.59,-16.56,-23.5,27.19,1.0,-0.88,-2.81,-0.1931663687602728,0.003567034178436401,0.16662022669291154,-151.48561418277666,5.513981585080581,-24.31503217113493,-0.1185,-0.9692,0.0481,-0.2106
2634602.0,2606.681816,1.0,4.03,1.88,-8.67,-15.5,-23.87,27.06,2.38,3.56,-2.81,-0.06480040323645084,-0.17021841227807355,0.06442096348777683,-151.48561418277666,5.364844561963229,-24.38536915234885,-0.11800000000000001,-0.9692,0.0468,-0.2112
2634635.0,2606.6854949999997,1.0,4.14,1.8,-8.87,-15.5,-23.06,27.5,2.31,3.0,-2.13,-0.04840790665959965,-0.2893912982298377,-0.14173727387920287,-151.43912137388486,5.273072468222583,-24.479166312304468,-0.1176,-0.9691,0.046,-0.212
2634672.0,2606.740702,1.0,4.2,1.95,-9.09,-15.88,-22.75,27.19,3.63,4.5,0.0,-0.12456934033056545,-0.19268174296795326,-0.3922693655689038,-151.34635737161238,5.192774664418371,-24.608164621444825,-0.1172,-0.9689,0.0453,-0.2131
2634706.0,2606.745139,1.0,4.95,1.29,-10.02,-15.88,-22.75,27.19,8.75,2.31,5.44,0.2433772829884769,-0.984199021135136,-1.3977741166122293,-151.34635737161238,5.238658808769412,-24.737194611496925,-0.115,-0.9689,0.0457,-0.2142
2634743.0,2606.805478,1.0,5.22,1.61,-11.54,-16.19,-23.06,26.69,4.63,-28.31,12.0,-0.06783707892612281,-0.9479972122166824,-2.9255453887125142,-151.86026450485573,5.548399139371833,-24.24470448957822,-0.1125,-0.97,0.0484,-0.21
2634778.0,2606.8229899999997,1.0,5.44,1.29,-11.49,-16.19,-23.06,29.06,10.19,-76.19,41.38,0.5650902923561036,-1.0313346096676124,-2.917139603902868,-153.36074062083046,6.569694717687418,-22.524498571325392,-0.1075,-0.9731,0.0573,-0.1953
2634813.0,2606.8676219999998,1.0,5.8,0.39,-11.44,-16.19,-23.06,29.06,37.06,-142.69,67.37,1.9296677098680592,-1.2338601201384505,-2.8195003132753964,-156.92843283344138,8.92424161449454,-18.44861943332721,-0.0911,-0.9798,0.0778,-0.1603
2634848.0,2606.9237160000002,1.0,3.24,1.03,-10.27,-14.69,-22.37,28.69,22.75,-179.75,72.19,0.9023968588400044,-0.1107309659977158,-0.9731838838001076,-160.8715680310398,12.111948910357555,-12.042810329741009,-0.0742,-0.9861,0.1055,-0.1049
2634885.0,2606.981009,1.0,1.72,1.34,-9.58,-11.38,-21.25,30.75,29.0,-203.25,82.5,0.3568658266779205,0.4227878650343092,-0.002748411876703827,-162.37875406030932,14.754288420181696,-6.627085616027943,-0.0605,-0.9882,0.1284,-0.0578
2634921.0,2606.999005,1.0,0.83,1.66,-7.89,-7.56,-20.56,32.06,15.13,-173.63,64.81,0.4327205961040749,1.1672411753328722,1.7974739547182583,-161.50259041794217,17.833592505981915,0.3323159869732291,-0.0429,-0.987,0.155,0.0029
2634956.0,2607.002426,1.0,-1.1,1.74,-7.02,-7.56,-20.56,32.06,23.19,-113.12,44.31,-1.043878522090183,0.9000922906072439,2.6220726638229985,-159.73268910086296,19.459364085641027,4.045922594423996,-0.0327,-0.9844,0.16899999999999998,0.0353
2634993.0,2607.042675,1.0,-1.43,1.18,-6.94,-2.25,-18.0,33.25,21.31,-37.88,26.62,-0.9379840074724918,0.429923882850828,2.6977646122137875,-158.4690600176697,20.401776712875193,6.271288310584378,-0.0226,-0.9824,0.1771,0.0547
2635028.0,2607.106994,1.0,-1.08,0.71,-7.18,-1.56,-17.56,34.56,14.0,-5.94,20.87,-0.3946512441600348,0.17111394098011856,2.523939624412817,-157.863978815261,20.984205642908503,6.604129057804274,-0.018000000000000002,-0.9814,0.1821,0.0576
2635063.0,2607.1208300000008,1.0,-0.84,0.62,-7.22,-1.56,-17.56,34.56,0.63,19.37,15.25,-0.19901660018171674,0.16638845056790974,2.516169407037027,-157.39142911741774,21.660511797125544,6.133576755953128,-0.0172,-0.9806,0.1879,0.0535
2635098.0,2607.166253000001,1.0,-0.8,0.1,-6.35,-0.75,-17.56,34.19,-7.81,42.19,16.75,-0.21048908567925256,-0.3927786679515917,3.421204106187095,-157.33304425296922,21.998949913651906,4.699571210920838,-0.0228,-0.9805,0.1908,0.040999999999999995
2635134.0,2607.170632,1.0,-0.35,0.75,-6.02,-2.0,-17.5,33.38,-36.31,121.25,2.81,-0.3081178149612301,0.1807527244186045,3.7405316476498953,-157.50864759230302,22.01062364188303,2.0742204847835874,-0.0358,-0.9808,0.1909,0.0181
2635169.0,2607.235472,1.0,1.31,0.84,-7.46,-2.0,-17.5,33.38,-42.25,169.0,-1.69,0.5979257531721095,0.2857046720784603,2.214933617386244,-156.92843283344138,21.660511797125544,-3.701951248377608,-0.0599,-0.9798,0.1879,-0.0323
2635204.0,2607.2993699999997,1.0,2.42,0.11,-6.45,-4.19,-17.06,33.38,-30.87,178.25,-0.88,1.4706282543907132,-0.18971539550793928,3.0781835620889817,-155.32181611488016,21.42721774773248,-8.200293609338797,-0.0771,-0.9769,0.1859,-0.0715
2635241.0,2607.316763,1.0,3.32,3.22,-7.07,-9.38,-18.56,31.75,-84.69,194.13,3.69,0.255158631320322,2.1043516144684227,1.628490160797364,-150.84131999821054,21.03082344341432,-15.031647378904806,-0.1136,-0.9678,0.1825,-0.1308
2635276.0,2607.353087,1.0,6.07,2.02,-8.2,-15.0,-20.75,29.37,-45.69,238.81,-3.88,1.9993824901831296,0.8651995110796202,-0.362873069641795,-146.35265556905202,20.25043303206116,-21.263965423591053,-0.1374,-0.9572,0.1758,-0.1845
2635311.0,2607.361121,1.0,7.11,1.11,-8.83,-15.0,-20.75,29.37,-38.0,214.56,18.31,1.6207566847940422,-0.7572304618307149,-1.4429210938849175,-139.43670037409964,19.83151281371854,-29.357596603435567,-0.1621,-0.938,0.1722,-0.2534
2635345.0,2607.417468,1.0,7.54,2.84,-7.9,-21.37,-22.0,25.5,-75.0,207.13,2.81,0.7063871207082455,0.4825748770244023,-1.444809404173416,-133.91067619883825,19.61052428537218,-34.77108519878443,-0.1866,-0.9202,0.1703,-0.2988
2635382.0,2607.4336399999997,1.0,8.92,2.29,-6.79,-25.06,-23.0,21.87,-31.56,221.63,11.19,1.161718858658811,-0.24301411802985504,-1.573418252513893,-126.32740410450675,18.69245669557365,-42.53221028877852,-0.2145,-0.8923,0.1624,-0.3627
2635419.0,2607.4754199999998,1.0,10.2,3.03,-7.91,-25.06,-23.0,21.87,-53.13,216.38,9.13,-0.2206679806284248,-0.8184803889067589,-3.424766987431859,-120.31578829659293,18.088822794467358,-48.547907661813746,-0.2321,-0.8674,0.1572,-0.4111
2635454.0,2607.491905,1.0,9.66,3.31,-7.2,-31.0,-24.87,16.19,-57.69,122.31,7.69,-1.34915702408259,-1.1640096262744342,-2.5601020762045335,-114.00619273526415,17.613238149656624,-54.14273717736637,-0.2568,-0.8387,0.1531,-0.4551
2635489.0,2607.569316,1.0,9.33,3.78,-5.71,-34.56,-26.0,9.0,-47.06,76.69,24.69,-1.3576797551503277,-0.3662721465465832,-1.6809063283545722,-110.16958750511162,18.320928845487863,-57.109720271622784,-0.2715,-0.82,0.1592,-0.478
2635526.0,2607.580012,1.0,8.83,4.94,-6.54,-34.5,-26.75,5.69,-45.75,66.25,7.56,-3.146435020505636,-0.2428154918239809,-1.8202621996627268,-107.86033561317936,18.72729753587516,-58.78635364877629,-0.2815,-0.8083,0.1627,-0.4908
2635558.0,2607.5922570000002,1.0,9.67,4.7,-6.71,-34.5,-26.75,5.69,-17.81,49.06,5.06,-3.1221881463778254,-0.8569165517369997,-2.4465387768848568,-105.67017110275856,18.72729753587516,-60.609606145201504,-0.2897,-0.7969,0.1627,-0.5046
2635595.0,2607.626161,1.0,9.14,3.74,-5.27,-35.06,-25.69,3.0,-9.31,3.63,10.31,-1.9126568915515465,-0.6962091321206391,-1.2004902489271547,-105.140661692498,18.971232525472267,-61.114626396297396,-0.2896,-0.7941,0.1648,-0.5084
2635632.0,2607.681571,1.0,8.45,4.73,-3.41,-36.06,-25.69,2.19,-6.5,-7.19,-11.44,-1.3745251554197293,1.2469135028784208,-0.29084411059287696,-105.32940383389915,19.203632237851558,-60.596333747101795,-0.2924,-0.7951,0.1668,-0.5045
2635667.0,2607.737143,1.0,7.93,5.94,-3.91,-36.06,-25.69,2.19,9.25,-4.63,-26.25,-2.5356910867396047,1.833306092050083,-0.3749932605685711,-105.65120455426174,18.669230437467,-60.304567590109755,-0.2943,-0.7968,0.1622,-0.5023
2635700.0,2607.757214,1.0,7.33,6.96,-3.73,-35.38,-26.25,1.88,26.31,-15.94,-37.13,-2.957980618055002,2.772637590949118,-0.17564590086703724,-106.89278954728873,17.242262917799223,-59.511020790239144,-0.2931,-0.8033,0.1499,-0.4963
2635737.0,2607.801866,1.0,7.28,7.46,-3.37,-34.69,-26.69,2.75,60.44,-14.38,-59.56,-2.649255114334645,3.4365103142939306,-0.2521145463507679,-108.34833475115198,15.35534492966006,-58.82581410721354,-0.289,-0.8108,0.1336,-0.4911
2635773.0,2607.822555,1.0,7.15,6.14,-2.95,-33.38,-27.06,3.88,102.62,-1.44,-82.5,-1.2044418595418631,2.7016688750927123,0.3846064267437885,-110.8936168375535,11.443790822449785,-58.0118417792849,-0.2768,-0.8236,0.0997,-0.4849
2635806.0,2607.867109,1.0,8.21,4.25,-2.78,-33.38,-27.06,3.88,105.0,11.06,-87.5,0.5965928347178059,1.0159237662654133,0.225054313962076,-112.48564315719341,7.8212153932673,-57.763041497816594,-0.2661,-0.8314,0.0682,-0.483
2635845.0,2607.884674,1.0,9.46,2.62,-3.2,-30.06,-29.69,6.0,103.19,23.0,-87.44,1.7398370198786988,-1.0217844788058867,-0.3188091808535294,-114.02723737175656,2.8306993879474716,-57.763041497816594,-0.25,-0.8388,0.0247,-0.483
2635880.0,2607.936552,1.0,9.46,0.92,-2.89,-28.19,-31.19,10.0,98.19,25.25,-73.75,2.4384508998634016,-2.693399102401746,0.5605882175903218,-114.87396927454428,-2.1315259137202647,-58.0118417792849,-0.2327,-0.8428,-0.0186,-0.4849
2635915.0,2607.976474,1.0,10.06,-0.7,-3.35,-28.19,-31.19,10.0,58.63,20.06,-42.88,2.5501998406405684,-4.599872898823199,0.5733542673014789,-115.06583600138664,-4.4702044875913645,-58.300301092865716,-0.2224,-0.8437,-0.039,-0.4871
2635948.0,2608.033821,1.0,9.75,-0.63,-2.98,-26.69,-31.69,10.38,24.0,7.63,-28.31,2.6154412220459733,-4.4782656347433685,1.006399769540682,-115.06583600138664,-6.259812004164343,-58.326544724242076,-0.2183,-0.8437,-0.0546,-0.4873
2635984.0,2608.051919,1.0,9.12,0.23,-2.93,-25.56,-32.0,12.06,-15.69,6.38,0.0,2.1839306884439607,-3.5508024742190285,1.1791098791339871,-114.76759373176695,-6.581172764918962,-58.54975129457163,-0.2194,-0.8423,-0.0574,-0.489
2636021.0,2608.055229,1.0,8.9,1.04,-2.7,-25.56,-32.0,12.06,-33.44,13.38,21.37,2.0632323746099246,-2.6597230487788064,1.0744941681245608,-113.92207363516451,-5.605762844556931,-59.2603868777191,-0.2244,-0.8383,-0.0489,-0.4944
2636056.0,2608.094191,1.0,9.85,2.28,-3.44,-24.5,-31.69,11.69,-50.19,11.31,49.31,1.5654575057012388,-1.9732735016449359,-0.5716944963804149,-113.06525678920107,-3.977125506843028,-60.11912281043993,-0.2281,-0.8342,-0.0347,-0.5009
2636091.0,2608.156677,1.0,9.33,3.14,-2.97,-26.0,-32.38,9.56,-61.81,3.5,62.25,1.3259799667021002,-0.7051277203589317,-0.3655656891154351,-112.05379617607242,-1.0084187350403075,-60.88853462317393,-0.2355,-0.8293,-0.0088,-0.5067
2636128.0,2608.212481,1.0,8.95,2.99,-2.73,-27.06,-32.0,7.19,-55.0,10.06,75.81,1.1570429725848508,-0.44562680797564136,0.06200181201468704,-111.13643927299914,1.6043342375287626,-61.64765035653756,-0.2385,-0.8248,0.013999999999999999,-0.5124
2636161.0,2608.2259670000008,1.0,8.75,3.16,-2.75,-27.06,-32.0,7.19,-65.19,15.81,74.56,0.6238553695028618,-0.030629261133863217,0.12571686696448306,-109.41237708953594,5.123950007684243,-62.973315569507676,-0.2432,-0.8162,0.0447,-0.5223
2636197.0,2608.2778120000007,1.0,9.33,2.44,-3.19,-30.5,-29.75,6.38,-61.75,21.75,86.19,0.4380292286366219,-0.7814002953871794,-0.311459703557718,-107.74364009530142,7.982025743589274,-64.14609145323304,-0.2466,-0.8077,0.0696,-0.531
2636234.0,2608.289873,1.0,8.91,3.5,-2.64,-33.38,-28.25,3.06,-76.37,6.31,80.94,-0.13896715982827734,0.6996329763043498,-0.0978389735390568,-105.5943297282315,12.330917071488786,-65.17677108886933,-0.2529,-0.7965,0.1074,-0.5386
2636269.0,2608.307789,1.0,8.69,3.32,-2.24,-33.38,-28.25,3.06,-71.5,13.44,78.69,-0.13063799383052718,0.9220494740956564,0.28358019652339905,-104.03523089910144,15.18192036535379,-65.83078581086856,-0.2568,-0.7882,0.1321,-0.5434
2636304.0,2608.347797,1.0,9.1,4.66,-2.29,-35.38,-26.75,1.88,-69.69,18.56,71.12,-1.21461276074475,2.1056611675190102,-0.384552426065266,-101.57380680599563,19.029325032716933,-66.8300983122929,-0.263,-0.7748,0.1653,-0.5507
2636339.0,2608.407469,1.0,9.54,3.19,-2.48,-36.75,-24.5,-0.5,-52.69,15.38,58.19,-0.8042584798309979,0.8852556361203079,-0.4844913728671117,-99.37018165058248,22.11569761985897,-67.61439507717935,-0.2688,-0.7625,0.1918,-0.5564
2636376.0,2608.465894,1.0,7.41,2.69,-2.01,-37.19,-21.56,-2.38,-63.88,0.81,40.06,-0.9737299916990356,0.8150531652275738,1.770989588987204,-98.0332655181114,24.291588578811197,-67.64197933171232,-0.2757,-0.7549,0.2104,-0.5566
2636408.0,2608.482622,1.0,9.85,5.17,-2.26,-37.19,-21.56,-2.38,-70.69,18.06,44.13,-2.389565076172861,2.4761067140596795,-1.0108300340617014,-95.92384977618164,26.923951406436,-67.97333851203919,-0.2858,-0.7427,0.2328,-0.5589999999999999
2636445.0,2608.497415,1.0,9.33,3.41,-2.93,-37.88,-19.06,-4.5,-25.0,2.0,31.37,-1.994753788368373,0.7112584319505693,-0.33124765024135705,-94.783564940407,28.422768181257144,-68.16692984371839,-0.2898,-0.736,0.2455,-0.5604
2636482.0,2608.540111,1.0,9.19,2.74,-2.64,-38.0,-19.06,-3.25,-22.69,-3.31,27.19,-1.4907775613868193,0.5093256408099127,-0.014320911986205331,-94.12546914110418,29.736826743672204,-68.19460380315536,-0.2896,-0.7321,0.2566,-0.5606
2636517.0,2608.591209,1.0,9.3,3.32,-2.58,-38.0,-19.06,-3.25,-27.5,-3.25,7.63,-1.8753717659113127,0.9515781112132204,-0.1806559349297281,-93.705742238603,30.460662205117806,-68.04245292301711,-0.2927,-0.7296,0.2627,-0.5595
2636552.0,2608.6095800000007,1.0,9.16,2.15,-2.75,-39.5,-18.0,-3.69,-5.75,-2.31,5.81,-1.1994272692879755,0.02367681279524292,0.07775419244690163,-93.53831032521614,30.86465043933479,-67.90425219273371,-0.2939,-0.7286,0.2661,-0.5585
2636587.0,2608.649515,1.0,9.52,1.83,-2.74,-39.88,-16.69,-5.38,-8.31,-6.88,4.31,-0.8874555009386332,-0.14141948583466535,-0.2272586732379657,-93.42126267707391,31.292831778140112,-67.75236088092288,-0.2946,-0.7279,0.2697,-0.5574
2636623.0,2608.704064,1.0,9.1,1.95,-2.21,-39.5,-16.75,-4.88,-8.56,-12.38,-5.63,-0.6625177049095248,0.31567050125747786,0.2694584623765017,-93.63873819335464,31.53090365657372,-67.22868060325891,-0.2966,-0.7292,0.2717,-0.5536
2636656.0,2608.707983,1.0,9.44,1.49,-2.31,-39.5,-16.75,-4.88,5.63,1.44,0.44,-0.3005776675225805,-0.04088392542724306,-0.020749532451523226,-93.72249978101487,31.495183998739208,-67.173649069206,-0.2964,-0.7297,0.2714,-0.5532
2636693.0,2608.762064,1.0,9.86,0.93,-2.66,-40.56,-16.75,-3.69,3.81,-1.31,3.75,-0.05600110267214475,-0.6286999627393202,-0.4286663230723384,-93.705742238603,31.459467480314125,-67.38010802744758,-0.2943,-0.7296,0.2711,-0.5547
2636728.0,2608.817452,1.0,9.27,1.35,-2.17,-40.25,-17.56,-4.06,-6.5,-6.06,-6.06,-0.14376442012537916,-0.02686634089612605,0.19192639548422008,-93.82310001862528,31.495183998739208,-67.13238693393745,-0.2955,-0.7303,0.2714,-0.5529
2636763.0,2608.824398,1.0,9.36,1.72,-2.26,-40.25,-17.56,-4.06,5.94,0.81,2.94,-0.4364180656166706,0.1693517331184795,0.03646784906273304,-93.89021932509144,31.495183998739208,-67.06363860553823,-0.2955,-0.7307,0.2714,-0.5524
2636797.0,2608.882564,1.0,9.58,1.33,-2.55,-38.75,-18.0,-3.69,4.31,2.75,2.31,-0.3114256376362494,-0.28199120517171883,-0.18691267966678105,-93.94058643018808,31.304732073341746,-67.26996578520281,-0.2933,-0.731,0.2698,-0.5539
2636834.0,2608.8901690000002,1.0,9.2,1.43,-2.14,-39.88,-17.06,-4.06,-2.94,-1.69,-3.13,-0.19404921470314507,0.06103938950414056,0.25557052722824203,-94.00777948611471,31.292831778140112,-67.18740530675933,-0.2934,-0.7314,0.2697,-0.5533
2636869.0,2608.953443,1.0,9.32,1.63,-2.18,-39.88,-17.06,-4.06,3.25,2.88,1.25,-0.3337240913375871,0.1677344691278686,0.1044753273440122,-94.00777948611471,31.233335490801053,-67.21492107332485,-0.2936,-0.7314,0.2692,-0.5535
2636902.0,2608.9719219999997,1.0,9.49,1.36,-2.37,-39.88,-17.5,-3.69,4.81,3.44,0.88,-0.2431899752783123,-0.1429784459777026,-0.06487550520485462,-93.99097726205777,31.102474019884113,-67.39388076848982,-0.2923,-0.7313,0.2681,-0.5548
2636937.0,2609.015346,1.0,9.34,1.53,-2.25,-40.56,-17.5,-4.06,-0.56,-0.81,-5.75,-0.3011695505015748,0.03981115675598956,0.0831366445482562,-94.09183027952132,30.99543647635929,-67.32502809337325,-0.2928,-0.7319,0.2672,-0.5543
2636972.0,2609.075037,1.0,9.25,1.39,-2.18,-40.56,-17.5,-4.06,2.56,0.19,-0.31,-0.15860239742410265,-0.018667816882118604,0.20344757621739085,-94.17594734269699,30.900315264438852,-67.2562029587362,-0.2931,-0.7324,0.2664,-0.5538
2637006.0,2609.0923,1.0,9.64,1.38,-2.62,-39.5,-16.69,-3.25,3.19,3.19,0.25,-0.3683254979395476,-0.3210362446145132,-0.2660691987671058,-94.12546914110418,30.817102104618424,-67.43520561710105,-0.2922,-0.7321,0.2657,-0.5551
2637041.0,2609.0953170000007,1.0,9.42,1.24,-2.37,-39.88,-17.87,-5.38,-0.19,-0.94,-3.88,-0.14067407960412392,-0.2575950522262207,0.01865962442258784,-94.17594734269699,30.769559206882434,-67.35256585531921,-0.2927,-0.7324,0.2653,-0.5545
2637076.0,2609.135174,1.0,9.5,1.56,-2.39,-38.75,-17.5,-2.88,-1.37,-2.38,-0.69,-0.3443533027137025,-0.04495809374381144,-0.10672982590786616,-94.31067299052192,30.66260751391823,-67.29749473790226,-0.2924,-0.7332,0.2644,-0.5541
2637111.0,2609.15685,1.0,9.21,1.63,-2.19,-38.75,-17.5,-2.88,-1.31,-2.0,-0.37,-0.3136389867752074,0.13710481178315548,0.2066534970547771,-94.41182940148542,30.674489682178663,-67.15989392819141,-0.2925,-0.7338,0.2645,-0.5531
2637148.0,2609.2036359999997,1.0,9.26,1.46,-2.23,-39.5,-17.87,-3.69,1.5,0.37,-2.13,-0.2001309954256677,-0.005827995555146348,0.17275080916673954,-94.49620014403057,30.57944178497209,-67.173649069206,-0.2921,-0.7343,0.2637,-0.5532
2637182.0,2609.222259,1.0,9.51,1.32,-2.38,-39.88,-17.5,-4.5,3.94,0.0,-3.5,-0.12481328557063708,-0.20459665251757664,-0.08220543698175753,-94.56374514822487,30.4369103155404,-67.15989392819141,-0.2921,-0.7347,0.2625,-0.5531
2637217.0,2609.2615260000002,1.0,9.41,1.35,-2.35,-39.88,-17.5,-4.5,0.44,-1.44,-1.56,-0.13924679691703326,-0.1616420214646972,0.016472157568070855,-94.64823708998428,30.4369103155404,-67.09113465509711,-0.292,-0.7352,0.2625,-0.5526
2637250.0,2609.318182,1.0,9.24,1.54,-2.4,-39.88,-17.5,-3.25,-2.31,-2.13,-3.94,-0.3178396273343337,-0.08125321224969984,0.14220092688698038,-94.76663946259286,30.401284991821623,-66.91248837447597,-0.2928,-0.7359,0.2622,-0.5513
2637287.0,2609.3820149999997,1.0,9.4,1.51,-2.38,-40.56,-17.5,-4.06,2.69,0.81,-0.56,-0.23706572494901346,-0.07636321907458643,-0.0036745869250918157,-94.80049313653744,30.38941055279805,-66.88502067393459,-0.2928,-0.7361,0.2621,-0.5511
2637320.0,2609.400227,1.0,9.3,1.5,-2.28,-40.56,-17.5,-4.06,0.69,0.0,-1.06,-0.1789004915664546,-0.017956439817372383,0.1161354532699672,-94.8682331378412,30.34191613696452,-66.8438272739107,-0.2928,-0.7365,0.2617,-0.5508
2637355.0,2609.403676000001,1.0,9.44,1.52,-2.39,-40.25,-17.87,-4.06,2.69,0.44,-1.56,-0.22396804078224308,-0.0791759876984719,-0.04625157667680035,-94.90211949213995,30.258813745298948,-66.8438272739107,-0.2927,-0.7367,0.261,-0.5508
2637389.0,2609.450166,1.0,9.41,1.31,-2.44,-39.5,-17.06,-3.69,-0.81,0.31,-0.88,-0.1090791696614749,-0.26116398104777216,0.0016668225667384462,-94.93601676687223,30.258813745298948,-66.80264364391536,-0.2928,-0.7369,0.261,-0.5505
2637426.0,2609.51534,1.0,9.52,1.43,-2.43,-39.88,-17.5,-4.88,-0.37,-0.88,-1.63,-0.15016162655061194,-0.16418406560906407,-0.1196128958995306,-94.90211949213995,30.38941055279805,-66.69286830197329,-0.2938,-0.7367,0.2621,-0.5497
2637459.0,2609.533943,1.0,9.47,1.67,-2.42,-39.88,-17.5,-4.88,-3.5,-4.38,-2.44,-0.29166569599627434,0.008398929399977995,-0.10501285644159353,-95.03777424913531,30.41315976518269,-66.47352485739471,-0.2946,-0.7375,0.2623,-0.5481
2637496.0,2609.5672870000008,1.0,9.52,1.43,-2.61,-40.25,-17.5,-3.69,0.75,-6.81,0.31,-0.20931407600220345,-0.2696245705420106,-0.16184488180373968,-95.19059578646072,30.47253865250361,-66.30919770158441,-0.2943,-0.7384,0.2628,-0.5469
2637531.0,2609.580605,1.0,9.07,1.51,-2.28,-40.56,-17.5,-2.88,-3.31,-5.06,0.19,-0.1474404480297128,0.01727234338926187,0.3345138639196801,-95.32662473165674,30.57944178497209,-66.11767701122476,-0.2941,-0.7392,0.2637,-0.5455
2637563.0,2609.598813,1.0,9.23,1.79,-2.35,-40.56,-17.5,-2.88,1.63,-1.69,1.12,-0.3400117031593971,0.1780636538269651,0.1230460543142584,-95.36065966207356,30.650725683430657,-66.02199478441803,-0.2943,-0.7394,0.2643,-0.5448
2637598.0,2609.651708,1.0,9.38,1.57,-2.58,-39.0,-17.5,-2.88,1.25,-1.81,1.31,-0.28954027889332,-0.11509411138262028,-0.04264539471852125,-95.4287628527733,30.650725683430657,-65.99466654035382,-0.2936,-0.7398,0.2643,-0.5446
