TIME,ELAPSED_SECONDS,PSTATE,acc_x,acc_y,acc_z,mag_x,mag_y,mag_z,gyr_x,gyr_y,gyr_z,lin_x,lin_y,lin_z,eul_x,eul_y,eul_z,qua_w,qua_x,qua_y,qua_z
489076.0,445.16958200000005,1.0,7.98,4.59,-4.23,-21.0,-36.38,20.37,5.75,-9.0,1.37,-0.17968550605131595,-0.032540358731794505,-0.3229133787428697,-102.74115590851987,-35.095437786143385,-65.31282652906373,-0.0877,-0.7812,-0.3015,-0.5396
489109.0,445.18028200000003,1.0,7.62,4.55,-4.02,-21.0,-36.38,20.37,3.63,-8.5,0.88,-0.031858430394143045,0.0884425858590645,0.06403931551612453,-103.05373789076752,-35.131494837214326,-64.95929683143846,-0.0874,-0.7829,-0.3018,-0.537
489144.0,445.277216,1.0,7.55,4.6,-4.21,-20.25,-35.19,19.87,11.88,-4.69,0.31,-0.13804917110156134,0.20630270664032446,0.017626472620419158,-103.29349693464754,-35.27575900730597,-64.64713688163303,-0.0857,-0.7842,-0.303,-0.5347
489179.0,445.333678,1.0,7.5,4.22,-4.07,-20.25,-35.19,20.37,7.56,0.5,3.63,-0.13839458611952318,-0.07521867610366463,0.2883261407641751,-103.38588087785587,-35.383995029265094,-64.52513383249247,-0.0834,-0.7847,-0.3039,-0.5338
489216.0,445.35667,1.0,7.62,4.3,-4.11,-20.69,-35.19,22.37,7.94,2.0,10.19,-0.07575028578074564,-0.011239809920179587,0.14018034655996736,-103.55241005030376,-35.32385988676265,-64.45738978708853,-0.0797,-0.7856,-0.3034,-0.5333
489248.0,445.361654,1.0,7.83,4.39,-4.2,-20.69,-35.19,22.37,19.94,8.44,9.81,-0.04297505157803305,0.0328613347583393,-0.10385317984005303,-103.58945826629656,-35.34791273696944,-64.49803318236535,-0.0751,-0.7858,-0.3036,-0.5336
489285.0,445.417303,1.0,8.4,3.04,-3.86,-21.37,-34.5,21.06,40.5,42.19,49.38,-0.13419191215092552,-1.1476637203179456,0.14403852505290615,-103.42286086216532,-35.227664546585345,-65.05440942764349,-0.0581,-0.7849,-0.3026,-0.5377
489320.0,445.439221,1.0,9.67,2.44,-4.06,-21.0,-34.06,20.0,38.31,69.31,72.75,-0.3435241811130293,-1.7586654053052682,-0.8110327570413425,-102.9800928228657,-34.21914415630217,-66.39134200709483,-0.0369,-0.7825,-0.2942,-0.5475
489355.0,445.443477,1.0,8.01,1.97,-2.31,-21.0,-34.06,20.0,-30.06,155.44,58.94,0.17483184801793686,-1.1905631682540347,1.3255478801505074,-100.24196356728784,-32.329469794230796,-70.52172446832354,-0.0136,-0.7674,-0.2784,-0.5773
489390.0,445.492138,1.0,9.98,2.34,-1.54,-24.0,-31.5,21.06,-35.13,210.88,57.81,0.14005650776955778,-1.1180550570230503,-0.4976179052951935,-93.839875903567,-29.653841828798466,-78.57321863854627,0.0054,-0.7304,-0.2559,-0.6332
489426.0,445.540684,1.0,9.02,6.21,1.22,-29.25,-31.5,15.69,-157.0,417.44,-83.87,2.2316602852836773,2.130517091817317,-0.7713218893822873,-84.50513857353,-27.631452438914533,-88.95032385550869,-0.006,-0.6724,-0.2388,-0.7006
489463.0,445.57553600000006,1.0,10.96,4.1,0.03,-29.25,-31.5,15.69,-26.5,427.13,-78.56,-3.021669729913304,0.5743152554282498,-1.4837075687711518,-67.86281386047486,-28.0210345439132,-105.04644280430534,-0.0041,-0.5582,-0.2421,-0.7936
489498.0,445.59636500000005,1.0,8.4,3.58,1.69,-32.0,-33.0,5.75,-65.75,-12.94,4.5,-1.132362520427413,0.3534780897033041,0.5965843996673375,-65.59888072386629,-26.806136930452627,-107.7825204980392,-0.0084,-0.5417,-0.2318,-0.8079
489535.0,445.65632300000004,1.0,7.82,5.46,3.68,-29.75,-34.56,-4.56,-34.69,39.38,-10.75,1.1546906378013233,1.6466147553440025,-0.21641087871651266,-65.73525876311373,-24.87799095241944,-108.50510319404415,-0.0215,-0.5427,-0.2154,-0.8116
489570.0,445.678572,1.0,8.16,3.42,2.4,-29.75,-34.19,-6.69,0.94,15.94,4.0,-0.6811705120382652,0.14222896128991636,0.6656556527695017,-64.68782282646684,-25.05404008221464,-109.43221295455638,-0.0195,-0.535,-0.2169,-0.8163
489603.0,445.68316699999997,1.0,7.93,4.32,2.47,-29.75,-34.19,-6.69,-25.31,-43.0,3.19,-0.21673021345174767,1.0440621429486512,0.5055123138758635,-65.84443673875893,-24.174386077512,-108.70148376565115,-0.0242,-0.5435,-0.2094,-0.8126
489639.0,445.732533,1.0,7.55,4.68,1.91,-29.37,-35.0,-6.69,3.56,-55.63,-2.75,-0.3156756496813285,1.614193828158632,0.8708944544776838,-67.2562029587362,-23.95177191669858,-107.39452579488425,-0.027999999999999997,-0.5538,-0.2075,-0.8059
489676.0,445.753635,1.0,7.23,3.98,2.06,-29.69,-34.06,-6.69,23.0,-58.5,12.19,0.17627162336498245,0.9216666527655161,1.3522807807160255,-69.65393554150937,-24.479166312304468,-104.83951599711521,-0.0276,-0.5711,-0.212,-0.7925
489711.0,445.81130700000006,1.0,9.25,4.26,1.32,-29.69,-34.06,-6.69,35.06,-46.0,21.25,-0.8442160958812381,0.8300453948925022,-0.3938805659006199,-71.16857955140104,-24.737194611496925,-103.29349693464754,-0.022000000000000002,-0.5819,-0.2142,-0.7842
489744.0,445.88045199999993,1.0,9.68,3.88,1.0,-30.0,-34.5,-3.38,76.81,-129.81,22.94,-0.5817978482690276,0.3313765838415188,-0.6484205795528251,-74.91892947359995,-26.13514108768563,-99.06954993305422,-0.0107,-0.6082,-0.2261,-0.7608
489781.0,445.88981500000006,1.0,9.57,3.3,1.04,-31.19,-33.69,-1.69,65.5,-161.56,38.88,0.5250172873324888,-0.3520787687184346,-0.3499684032196342,-81.17370917960935,-27.301153346475182,-92.40658485258841,0.0007,-0.6506,-0.23600000000000002,-0.7218
489816.0,445.911936,1.0,9.24,3.73,-0.07,-31.87,-33.0,5.25,71.62,-188.69,46.25,0.6512909300094156,0.4061114493274649,-0.12845410691366155,-86.51841003393099,-27.77308072525798,-86.86507311557956,0.0096,-0.6853,-0.24,-0.6875
489850.0,445.96989699999995,1.0,9.54,1.84,-0.8,-31.87,-33.0,5.25,96.25,-152.5,58.56,0.5188114503579547,-1.1654924611000492,0.1417825926272318,-93.05422153236404,-28.588291341239625,-79.80752374562414,0.0289,-0.7257,-0.2469,-0.6415
489887.0,445.99084000000005,1.0,9.4,2.09,-1.79,-32.25,-32.19,11.56,20.25,-95.37,29.5,0.2967865152032396,-0.5349550762628401,0.03127579586979756,-96.30102081146677,-28.399126966206964,-76.53006953196333,0.0366,-0.7449,-0.2453,-0.6193
489924.0,446.000875,1.0,8.43,2.52,-1.92,-32.69,-28.87,15.69,3.75,-48.0,2.38,0.5701961847772784,0.0944457647428636,0.8195672526126412,-98.40086710313936,-28.446410631571002,-74.37135736152693,0.0344,-0.757,-0.2457,-0.6044
489957.0,446.05317699999995,1.0,8.99,2.35,-2.8,-32.69,-28.87,15.69,9.75,20.12,-6.5,-0.2459993281229352,0.06400250368717275,0.1052074263367988,-98.12066633896302,-28.61194247203445,-74.57286253577672,0.0347,-0.7554,-0.2471,-0.6058
489992.0,446.07629699999995,1.0,9.6,2.03,-3.0,-31.19,-28.5,17.25,5.88,8.25,-2.63,-0.5310334155884487,-0.3252051960205581,-0.4350854531353594,-97.64960928769192,-28.89585348706327,-74.89006002631827,0.037000000000000005,-0.7527,-0.2495,-0.608
490027.0,446.13725999999997,1.0,9.03,2.47,-2.33,-31.5,-28.87,18.19,-7.0,-3.81,0.5,0.19016087647383453,-0.007902287711554212,0.1612118868343977,-97.78895026657291,-28.836690473319894,-74.8034850768004,0.0358,-0.7535,-0.249,-0.6074
490063.0,446.153151,1.0,8.91,2.31,-2.32,-31.5,-28.87,18.19,-8.63,10.5,-7.06,0.04060878307218802,-0.12401206366185645,0.3150973380376936,-97.47570497846188,-28.682903338517608,-75.22239615974651,0.0328,-0.7517,-0.2477,-0.6103
490096.0,446.193201,1.0,10.06,2.18,-3.21,-31.87,-27.69,17.0,-7.19,5.13,5.19,-0.7373659322428376,-0.27152099885448444,-0.9470780897904748,-97.14611248818821,-28.48187662578674,-75.67150643533657,0.0326,-0.7498,-0.24600000000000002,-0.6134
490131.0,446.20224299999995,1.0,9.02,2.77,-2.18,-31.5,-27.69,17.37,-18.37,-32.31,1.5,0.4118933303766925,0.16984582349161292,0.13260243547801664,-98.06821663266857,-28.080090858618394,-74.96224409700284,0.0274,-0.7551,-0.2426,-0.6085
490168.0,446.273621,1.0,9.8,1.6,-2.94,-30.75,-29.19,17.37,2.5,-6.63,10.44,-0.5806573340562354,-0.8602875449483985,-0.4970552753081687,-98.40086710313936,-27.867523616250335,-74.71696010988838,0.027000000000000003,-0.757,-0.2408,-0.6068
490201.0,446.335303,1.0,10.22,0.71,-3.09,-30.75,-29.19,17.37,-8.88,-42.44,24.75,-0.7248275403665978,-1.7183370668119649,-0.7300735306591477,-100.00990479193828,-27.077153605664893,-73.45358416852795,0.0266,-0.7661,-0.2341,-0.598
490237.0,446.34268099999997,1.0,9.83,1.31,-3.53,-31.5,-29.56,16.87,-55.44,-91.87,33.06,-0.5733164434461722,-1.0270329368349234,-0.6538667942282164,-102.63108741620243,-25.40631916668005,-71.59185156940322,0.0151,-0.7806,-0.2199,-0.5849
490274.0,446.361066,1.0,10.55,0.54,-3.63,-31.5,-29.19,17.75,-34.44,-121.56,67.19,0.1359385060823406,-1.9212928628170949,-1.1961293969456737,-107.72420666963673,-22.55955209306089,-67.60060461724801,0.006999999999999999,-0.8076,-0.1956,-0.5563
490309.0,446.40669299999996,1.0,8.99,2.06,-4.03,-31.5,-29.19,17.75,-102.25,-167.38,72.06,0.4935643986041398,0.00929483237426254,-0.246255440245708,-112.77489865498623,-19.401234664747328,-63.63292917864976,-0.0078,-0.8328,-0.1685,-0.5272
490344.0,446.47074800000007,1.0,7.89,3.35,-4.49,-31.19,-27.37,20.69,-92.56,-136.94,70.44,0.6407945037218253,1.5550943939655733,0.27744416583644416,-118.79053985855312,-15.089441590206313,-58.81265977015818,-0.0303,-0.8607,-0.1313,-0.491
490379.0,446.528045,1.0,6.55,2.59,-4.6,-30.0,-27.0,21.87,-45.81,-111.94,67.75,0.14204750125620766,1.2188604492869977,1.4841022102573174,-122.54128756505699,-12.492290914481535,-55.66651249731456,-0.0367,-0.8769,-0.1088,-0.4669
490416.0,446.535354,1.0,5.49,3.5,-4.58,-28.87,-27.0,22.37,-50.0,-40.06,25.44,-0.09775866342388584,2.320686321550704,2.192757549965452,-125.37071718924679,-9.867062460142213,-53.25651268144825,-0.0479,-0.8885,-0.086,-0.4482
490450.0,446.55326399999996,1.0,6.37,2.84,-5.27,-28.87,-27.0,22.37,-18.94,-2.06,10.69,-0.2096885695921312,1.488126709049859,1.195209377107984,-125.64605206137207,-9.21161989509871,-53.06431134668802,-0.051,-0.8896,-0.0803,-0.4467
490487.0,446.600212,1.0,6.6,4.49,-5.33,-29.87,-26.56,23.19,-20.5,34.19,-20.81,-0.1422374581396687,2.9163152877372545,0.6631346121411283,-124.89813102655701,-8.740349140335567,-53.74414891259134,-0.0624,-0.8866,-0.0762,-0.452
490522.0,446.61384699999996,1.0,7.45,2.94,-4.75,-28.06,-27.5,23.19,49.81,70.25,-32.69,0.4924125600856709,1.232575464099748,0.589986417337931,-123.18829850358513,-9.993587967554065,-55.31691940731037,-0.057999999999999996,-0.8796,-0.0871,-0.4642
490557.0,446.667809,1.0,8.75,2.57,-4.92,-28.06,-27.5,23.19,19.25,132.5,-79.12,0.38805212052088855,0.44220658112569655,-0.5387677726841158,-118.81305169988,-12.907367253850758,-59.16812669186737,-0.0527,-0.8608,-0.1124,-0.4937
490592.0,446.670774,1.0,8.42,3.93,-4.09,-29.19,-28.06,22.0,-7.06,139.81,-127.62,0.2765497852616482,1.205574687207008,-0.2700314919316309,-112.46502386355527,-16.987323268750952,-64.20019215099853,-0.0692,-0.8313,-0.1477,-0.5314
490629.0,446.752173,1.0,7.27,4.4,-1.27,-29.19,-29.19,18.19,33.63,191.56,-127.5,1.9038243132188504,1.4248070467896738,1.5500660899428098,-106.77742482625295,-20.890980569305803,-68.52704538255442,-0.0761,-0.8027,-0.1813,-0.563
490665.0,446.76421100000016,1.0,10.46,3.13,-2.1,-28.37,-32.19,15.19,116.12,298.0,-112.94,-0.006998210188288223,-1.1849543522610104,-1.2484092132340887,-95.71869958125956,-27.478070348739482,-77.37905512772029,-0.0545,-0.7415,-0.2375,-0.6251
490700.0,446.81420199999997,1.0,7.79,6.36,-1.87,-28.37,-32.19,15.19,20.81,186.69,-171.69,-0.190058105973052,2.2721821401732383,-0.16489282136078032,-87.5931456195006,-31.64999191142923,-83.39534135240477,-0.0639,-0.6921,-0.2727,-0.6652
490737.0,446.833321,1.0,7.98,5.03,0.98,-28.06,-34.88,10.69,149.63,116.5,-40.88,1.7050512753449414,-0.3024847198071923,0.4823267997496039,-82.44730326413901,-37.56783922201158,-85.37510597064201,-0.0474,-0.659,-0.322,-0.6779999999999999
490772.0,446.87988600000006,1.0,8.91,4.96,1.67,-25.06,-37.88,10.25,127.12,185.13,-63.25,1.6925676107564205,-1.2906558187519843,-0.3051264235835429,-77.83489260364539,-41.67270371214475,-87.52965940298756,-0.0184,-0.6282,-0.3557,-0.6917
490807.0,446.90162999999995,1.0,11.19,3.33,0.92,-25.06,-37.88,10.25,108.81,248.06,-93.19,-1.872733230914328,-3.1181351976480363,-1.325353554392965,-68.20844247958603,-47.03135704516996,-93.0209156832062,0.01,-0.5607,-0.39899999999999997,-0.7255
490842.0,446.94924100000003,1.0,11.46,2.9,0.43,-24.69,-36.69,10.19,73.69,159.88,-45.56,-3.771638228757566,-2.8403456995647662,-1.039256203648387,-61.14124272843893,-50.69408334093136,-96.52454726797548,0.0357,-0.5086,-0.4281,-0.7462
490878.0,446.969103,1.0,7.71,5.34,1.16,-24.25,-37.06,9.38,-16.69,-17.87,-30.62,-0.4081819274091095,-0.408552614419845,0.3741650529996967,-60.3443284261737,-50.92242811941736,-97.09416978917605,0.0302,-0.5026,-0.4299,-0.7495
490913.0,447.01658399999997,1.0,7.46,5.69,1.39,-24.25,-37.06,9.38,7.0,1.5,-10.25,0.01803425985947045,-0.3371819439508115,0.3279484485139061,-60.278064818090016,-51.278062716299324,-96.88666490875973,0.0259,-0.5021,-0.4327,-0.7483
490948.0,447.034899,1.0,8.3,5.74,1.32,-23.19,-38.69,9.0,-8.0,-4.81,8.88,-0.42831941902766496,-0.5518488538034836,-0.3467733299828275,-60.14560427540305,-51.23993373594613,-97.02495429303242,0.0284,-0.5011,-0.4324,-0.7491
490983.0,447.08459500000004,1.0,7.72,6.69,1.58,-23.56,-38.0,8.19,-24.31,-24.31,4.94,0.5640794217783706,0.12897459183937346,-0.5140127675060686,-61.008197532736816,-50.491291031563684,-96.88666490875973,0.0232,-0.5076,-0.4265,-0.7483
491020.0,447.10168799999997,1.0,7.53,5.83,0.79,-23.19,-38.69,9.0,11.31,-11.38,-2.56,-0.29464022608816465,0.13497829863763222,0.2563166028840857,-61.30101752415778,-50.59266598447474,-96.54176184653713,0.0215,-0.5098,-0.4273,-0.7463
491053.0,447.151295,1.0,7.02,5.57,0.86,-23.19,-38.69,9.0,-0.06,-19.5,3.63,-0.034110800329874805,0.08635578787156993,0.8046347183421236,-61.94144435552603,-50.630692516856975,-95.95808107467859,0.0203,-0.5146,-0.4276,-0.7429
491089.0,447.16928099999996,1.0,7.35,5.97,0.88,-23.56,-38.0,9.38,-9.31,-16.75,9.75,0.07348009928353559,0.2105172427808526,0.2993852426946049,-62.47677807164217,-50.28866780725309,-95.76994903311295,0.0194,-0.5186,-0.4249,-0.7418
491124.0,447.21559699999995,1.0,7.5,6.19,1.2,-23.19,-38.0,9.38,-7.69,-17.12,7.0,0.42653164908849417,0.09637162312934232,0.018142286227623927,-63.1884425474074,-49.85865006631149,-95.46283114085506,0.0173,-0.5239,-0.4215,-0.74
491159.0,447.23416399999996,1.0,8.09,6.4,1.1,-23.19,-38.0,9.38,-3.63,-2.69,9.06,0.2075370684732312,0.09125092081494124,-0.5647868163075653,-63.40381821677742,-49.555559524438046,-95.49691057600175,0.0175,-0.5255,-0.4191,-0.7402
491192.0,447.276407,1.0,8.11,5.99,0.73,-23.19,-38.69,8.5,4.75,-10.44,8.06,-0.19217133639368025,0.06216400888156892,-0.2999966156420282,-63.94335613096246,-49.353704706731605,-95.17360460220829,0.0178,-0.5295,-0.4175,-0.7383
491229.0,447.344286,1.0,7.59,5.48,0.69,-23.56,-36.75,9.38,4.88,-14.81,-0.31,-0.17600680650300266,-0.06598604010058963,0.42159446225402064,-64.28137325688984,-49.492462296741046,-94.74971670141693,0.0176,-0.532,-0.4186,-0.7358
491264.0,447.347227,1.0,7.31,5.53,0.69,-23.56,-36.75,9.38,-2.44,-13.13,3.69,0.020639398133812232,0.0543196563712911,0.6148208354551983,-64.67425982878002,-49.5176992648741,-94.39496330484008,0.0166,-0.5349,-0.4188,-0.7337
491298.0,447.38807599999996,1.0,7.5,5.9,0.61,-23.87,-38.0,9.38,-8.19,-8.69,8.19,0.1015866526090744,0.2832747313193287,0.24937342251163666,-65.16317122703664,-49.15201312727976,-94.22644947426407,0.0153,-0.5385,-0.4159,-0.7327
491333.0,447.456637,1.0,7.75,6.14,0.58,-24.25,-37.56,9.0,-0.37,-7.56,6.44,0.13795418111454147,0.3729478324575317,-0.0898331409030444,-65.55798771264952,-48.90012665540839,-94.05820202109098,0.0153,-0.5414,-0.4139,-0.7317
491370.0,447.477663,1.0,7.96,5.64,0.71,-25.06,-37.56,10.69,-0.37,-6.19,6.88,-0.03923858157473935,-0.11656520231550127,0.02604813266457562,-65.73525876311373,-48.91271498969397,-93.89021932509144,0.0171,-0.5427,-0.414,-0.7307
491403.0,447.48118099999994,1.0,7.96,5.88,0.8,-25.06,-37.56,10.69,-1.63,-8.88,7.69,0.2067911436971758,0.004706033192280579,-0.11973984103183175,-66.1586995980381,-48.67364391258275,-93.67223499425869,0.0174,-0.5458,-0.4121,-0.7294
491440.0,447.53367000000003,1.0,8.08,5.92,0.51,-24.19,-37.56,10.69,-0.81,-7.44,2.38,-0.01599635903459021,0.15587436039357616,-0.22172710201753001,-66.37764861539371,-48.62334193420396,-93.5048551721208,0.0173,-0.5474,-0.4117,-0.7284
491476.0,447.555041,1.0,7.86,5.8,0.6,-23.75,-38.0,9.38,1.63,-16.94,9.06,0.18088295375494384,0.1039729074865572,0.02216886957976349,-67.07738608365682,-48.40966960291665,-93.0209156832062,0.0163,-0.5525,-0.41,-0.7255
491509.0,447.610593,1.0,8.02,5.91,0.5,-23.75,-38.0,9.38,2.56,-4.75,8.88,0.14471496179906868,0.18210496410945964,-0.16553107346021712,-67.38010802744758,-48.296621479022534,-92.82129439439936,0.0172,-0.5547,-0.4091,-0.7243
491542.0,447.717569,1.0,8.04,5.52,0.15,-24.25,-37.56,10.19,8.56,-8.88,8.88,-0.2373826262262228,0.12958812572245648,0.05670864600008407,-67.79377236455424,-48.3342986251064,-92.40658485258841,0.0196,-0.5577,-0.4094,-0.7218
491579.0,447.72314400000016,1.0,7.91,5.23,0.33,-24.25,-36.75,10.69,-0.5,-12.63,9.25,-0.11622586036365895,-0.1175602179827182,0.31968150924750915,-68.20844247958603,-48.25894988610853,-92.05943487025185,0.0205,-0.5607,-0.4088,-0.7197
491614.0,447.82116399999995,1.0,7.69,5.56,0.37,-24.25,-36.75,10.69,-4.38,-12.38,6.69,0.22738186176188124,0.17897670849933212,0.314397115317858,-68.79069483955588,-47.95777627551156,-91.74628360102051,0.0195,-0.5649,-0.4064,-0.7178
491649.0,447.877168,1.0,7.93,5.52,0.15,-23.87,-37.19,10.69,1.75,-0.75,7.38,-0.02272339382643309,0.1978964219595003,0.1454844050239661,-68.95742437499436,-47.88253794953186,-91.66402199436024,0.0206,-0.5661,-0.4058,-0.7173
491683.0,447.886152,1.0,7.77,5.47,0.23,-24.69,-36.75,10.69,0.31,-3.25,2.75,0.09641497141041608,0.1892645595725333,0.3039354888838339,-69.082580917068,-47.84492701246389,-91.56538823890905,0.0211,-0.5670000000000001,-0.4055,-0.7167
491718.0,447.905679,1.0,7.8,5.46,0.31,-24.25,-37.19,10.19,3.69,9.06,3.88,0.13969333152864855,0.13708443846295948,0.2825020785396344,-69.11040625696496,-47.70706703894191,-91.6475769685171,0.0208,-0.5672,-0.4044,-0.7172
491751.0,447.90875800000003,1.0,8.36,5.42,0.1,-24.25,-37.19,10.19,0.75,3.88,4.69,-0.2506722770026141,0.03163374433609745,-0.15388024270101575,-69.01303790274106,-47.64442766376834,-91.77920529298514,0.0226,-0.5665,-0.4039,-0.718
491788.0,447.917692,1.0,8.15,4.98,0.27,-25.37,-36.5,11.0,-0.06,0.94,4.25,-0.23927824680526644,-0.26105174191843306,0.2583308856926454,-69.06866999114753,-47.59432704723895,-91.74628360102051,0.0238,-0.5669,-0.4035,-0.7178
491823.0,447.964272,1.0,8.29,5.39,0.33,-25.37,-37.19,11.06,-12.94,-0.88,5.56,-0.04424589885048062,-0.04121827526237354,-0.08685510962718722,-69.13823625091533,-47.29392563415834,-91.91098977027544,0.0236,-0.5674,-0.4011,-0.7188
491857.0,447.985898,1.0,8.18,5.4,0.2,-25.37,-37.19,11.06,-4.06,-4.94,5.19,-0.07581116236567419,0.11906297664484633,0.0039729842428624105,-69.40285407677956,-46.9938686467816,-91.87802897168402,0.0234,-0.5693,-0.3987,-0.7186
491892.0,448.03936,1.0,7.99,5.29,0.14,-23.75,-36.5,11.06,-2.44,-4.81,0.06,-0.10013163811106206,0.15834523989692073,0.22496432157935864,-69.55624736247115,-46.88143541316104,-91.82860613360762,0.0224,-0.5704,-0.3978,-0.7183
491929.0,448.049018,1.0,7.84,5.43,0.33,-25.06,-36.5,9.88,-7.81,-4.19,2.88,0.1842395328197768,0.21271062154572684,0.26829532080988194,-69.82153596259464,-46.58184673902731,-91.79566979807731,0.0203,-0.5723,-0.3954,-0.7181
491962.0,448.07164800000004,1.0,7.8,5.62,0.25,-25.06,-36.5,9.88,-0.5,2.13,-1.06,0.21600107340241906,0.4077963648492675,0.20071716340861026,-69.82153596259464,-46.53194812307301,-91.84507796689995,0.0196,-0.5723,-0.395,-0.7184
