TIME,ELAPSED_SECONDS,PSTATE,acc_x,acc_y,acc_z,mag_x,mag_y,mag_z,gyr_x,gyr_y,gyr_z,lin_x,lin_y,lin_z,eul_x,eul_y,eul_z,qua_w,qua_x,qua_y,qua_z
2867533.0,482.360145,1.0,-2.07,2.24,-9.33,20.75,-27.06,36.56,-3.13,-1.94,3.44,-0.22773961573270218,-0.07650258532252405,-0.006284424618607787,-141.81789497427926,-33.15356371555689,6.730393436549607,-0.1486,-0.945,-0.2853,0.0587
2867570.0,482.390582,1.0,-2.01,2.24,-9.3,19.69,-27.87,36.25,0.12,1.94,0.94,-0.18203787824309803,-0.09175354091640009,0.03392553347511651,-141.88802849828062,-33.1057424006888,6.707435672786218,-0.1483,-0.9452,-0.2849,0.0585
2867603.0,482.426689,1.0,-2.01,2.39,-9.13,19.69,-27.87,36.25,1.37,-2.56,0.37,-0.10180994219989359,0.07824850198880023,0.15819873010150864,-141.88802849828062,-33.1057424006888,6.718914520918895,-0.1484,-0.9452,-0.2849,0.0586
2867640.0,482.453945,1.0,-1.99,2.38,-8.92,20.37,-27.87,34.56,3.19,4.19,-2.25,-0.08800350347857044,0.14169262734799362,0.3640296760257957,-141.85294621850556,-33.16551997219127,6.730393436549607,-0.1475,-0.9451,-0.2854,0.0587
2867675.0,482.492844,1.0,-2.02,1.84,-9.24,19.69,-27.87,33.75,1.31,2.69,-0.88,-0.4129403779168225,-0.34708377895222786,0.1862231334480704,-141.88802849828062,-33.23726531919248,6.638563994932458,-0.1465,-0.9452,-0.286,0.0579
2867709.0,482.546597,1.0,-2.13,2.19,-8.98,19.69,-27.87,33.75,-5.19,2.56,5.44,-0.33965723144224613,0.04426550384817665,0.32740564560665675,-141.92314189948746,-33.1057424006888,6.558216736441544,-0.148,-0.9453,-0.2849,0.0572
2867744.0,482.569235,1.0,-1.91,2.46,-9.68,21.5,-27.06,35.0,-0.69,6.0,0.69,-0.02522310497329805,-0.07203987520963001,-0.3617458445447692,-141.74788525089278,-33.344908493651104,6.328670789467022,-0.1485,-0.9448,-0.2869,0.0552
2867781.0,482.630411,1.0,-1.98,1.92,-9.18,20.0,-28.25,35.38,3.0,-5.88,1.19,-0.3707904746455247,-0.29370178984147566,0.232964519342298,-141.78287468010964,-33.344908493651104,6.443440527613203,-0.1475,-0.9449,-0.2869,0.0562
2867816.0,482.655568,1.0,-2.0,2.39,-9.12,20.0,-28.25,35.38,-6.13,1.31,4.38,-0.1319191017356598,0.09176481034088749,0.17022552978386152,-141.85294621850556,-33.22530683110648,6.454917855397503,-0.1483,-0.9451,-0.2859,0.0563
2867851.0,482.686492,1.0,-1.85,1.75,-9.29,20.37,-28.25,34.06,-5.56,-4.25,7.13,-0.38753413256464886,-0.5710741406508526,0.19869539863050711,-141.92314189948746,-33.069880307180426,6.351624225020216,-0.1498,-0.9453,-0.2846,0.0554
2867886.0,482.733515,1.0,-2.21,2.69,-8.98,19.69,-28.56,36.19,-24.94,-9.94,17.69,-0.22495116767508028,0.3128122254932776,0.18312956911071154,-142.02866969644373,-32.44879621422149,6.397531862381483,-0.1574,-0.9456,-0.2794,0.0558
2867922.0,482.751494,1.0,-1.9,2.58,-9.74,19.25,-29.37,35.38,-4.88,-1.0,4.25,-0.053540462708061454,-0.23590354474023534,-0.4439832944083051,-142.1344807161217,-32.15054762531955,6.294241112432485,-0.1603,-0.9459,-0.2769,0.0549
2867957.0,482.793215,1.0,-2.35,1.98,-9.19,19.25,-29.37,35.38,-5.56,-18.0,14.06,-0.7492865612701385,-0.39218125502946277,0.15347624665320225,-142.27600676906908,-31.661902664209094,6.581172764918963,-0.164,-0.9463,-0.2728,0.0574
2867994.0,482.825765,1.0,-1.84,3.24,-12.75,19.56,-29.06,34.25,-30.37,-23.0,17.87,0.36521265701843597,-1.0968804121195213,-3.426232266409764,-142.16981440543415,-31.066791752073968,6.672999532212699,-0.1731,-0.946,-0.2678,0.0582
2868031.0,482.866425,1.0,-2.6,3.83,-9.06,20.37,-31.25,33.25,-18.0,-96.12,1.31,0.3346064766202306,0.6273407652737977,-0.3425855411641461,-141.19218403998903,-30.223203424759074,9.591048446078224,-0.188,-0.9432,-0.2607,0.0836
2868064.0,482.904968,1.0,-3.14,4.99,-9.01,20.37,-31.25,33.25,28.37,-85.12,-34.19,0.9163754670269921,1.6164142816120703,-0.7993511726206961,-140.1367137765361,-30.294427058078597,12.215665087929846,-0.1913,-0.9401,-0.2613,0.1064
2868099.0,482.927907,1.0,-3.14,3.36,-9.08,22.25,-31.25,32.06,63.0,-90.5,-61.81,0.8788945931031993,0.3446723296479157,-0.3276652348537592,-138.3272359651665,-31.590443407775915,16.442961442690333,-0.1787,-0.9346,-0.2722,0.143
2868135.0,482.967081,1.0,-4.18,2.47,-6.75,24.5,-29.75,30.37,57.88,-89.5,-63.44,-0.317918937703914,1.1119607849921518,1.5726794655804799,-136.52797852346418,-32.66367502362117,19.831512813718547,-0.1686,-0.9289,-0.2812,0.1722
2868170.0,482.992014,1.0,-4.44,2.29,-6.7,28.69,-26.06,29.69,33.06,-37.13,-71.94,-0.09091223112190328,1.206862143297358,1.53725348433405,-133.93995871664828,-34.759077676234334,22.79329707445838,-0.157,-0.9203,-0.2987,0.1976
2868205.0,483.045432,1.0,-4.8,1.6,-5.93,28.69,-26.06,29.69,9.06,4.88,-73.56,-0.7458346679851418,1.3459613136736015,2.164855787243055,-131.90276546625157,-37.39842842920397,23.448298031292182,-0.1481,-0.9132,-0.3206,0.2032
2868242.0,483.068547,1.0,-4.13,1.36,-7.37,31.0,-24.5,29.56,-4.0,75.37,-80.62,-0.08371341863594806,0.49488137221913764,1.2643151616217487,-130.87269286132403,-39.9000028418168,22.080670872919914,-0.1398,-0.9095,-0.3412,0.1915
2868279.0,483.113518,1.0,-3.76,0.93,-8.08,32.5,-22.56,30.0,5.5,82.56,-80.19,-0.1122832658576427,0.1808911287696675,0.8487724127731706,-129.7004663573504,-43.38190073527359,19.540753773579446,-0.1238,-0.9052,-0.3696,0.1697
2868314.0,483.133998,1.0,-3.41,0.3,-6.07,32.5,-22.56,30.0,11.19,153.06,-84.31,-0.9281365644351531,0.6816560809045886,2.933738862416136,-129.05718198573572,-46.13309422581874,16.489275388774946,-0.1047,-0.9028,-0.3918,0.1434
2868348.0,483.175915,1.0,-2.19,-0.12,-6.91,31.75,-20.06,31.75,31.87,216.13,-94.56,-0.7556648186816781,0.2501657094967756,2.600750486434828,-127.97542141388575,-50.28866780725309,10.028097037556812,-0.0651,-0.8987,-0.4249,0.0874
2868383.0,483.214569,1.0,-0.02,-3.14,-8.56,28.25,-16.56,36.56,51.0,260.38,-53.13,-2.1322249290671866,-2.5154482497562998,1.306077257257165,-127.24853393391233,-52.50144503161559,4.091788128472596,-0.023,-0.8959,-0.4423,0.0357
2868422.0,483.249256,1.0,2.07,-2.57,-10.71,22.0,-14.75,42.06,-51.56,207.13,-6.88,-1.4627896685502768,-2.6588820543365617,-0.9815144688385065,-126.40360438507471,-53.397563085855595,-4.286724053610707,0.009,-0.8926,-0.4493,-0.0374
2868455.0,483.288497,1.0,2.53,-0.3,-10.05,22.0,-14.75,42.06,-34.75,184.75,5.25,-0.3214827462013834,-0.8173144722822638,-0.5239862774658146,-125.47069041747115,-53.01308485730727,-11.466824127666603,0.0258,-0.8889,-0.4463,-0.0999
2868494.0,483.316672,1.0,3.8,-0.89,-9.9,13.25,-15.5,45.0,0.5,169.94,15.5,-0.6066831808005368,-1.4201039162278408,-0.7222312504106103,-124.45383854948406,-52.437569453805544,-16.19985740781584,0.0461,-0.8848,-0.4418,-0.1409
2868529.0,483.361702,1.0,4.28,-0.36,-9.28,5.69,-16.25,47.5,-22.12,145.5,23.75,-0.435760968178305,-0.8119525006951833,-0.37751641238875244,-123.40547411170806,-51.01128734852719,-21.602179804976906,0.0646,-0.8805,-0.4306,-0.1874
2868563.0,483.37811,1.0,4.66,0.08,-8.82,5.69,-16.25,47.5,-14.44,108.12,29.56,-0.14361591793305317,-0.5106039114996781,-0.15492909739603,-122.80407555685306,-49.83337831990158,-24.819321185763364,0.0737,-0.878,-0.4213,-0.2149
2868598.0,483.427901,1.0,5.18,-0.34,-8.46,0.06,-17.06,46.69,-17.5,90.75,37.25,-0.436002251981328,-0.7675154537239008,-0.07972557776165878,-122.51745226375391,-47.88253794953186,-28.23367294753045,0.0845,-0.8768,-0.4058,-0.2439
2868633.0,483.457519,1.0,5.86,0.62,-8.56,-4.0,-17.06,45.38,-45.19,84.56,30.81,0.24940466967959418,-0.274820552158513,-0.5789106962192161,-122.25585789752888,-46.33244691855333,-30.912204221086636,0.0855,-0.8757,-0.3934,-0.2665
2868670.0,483.488433,1.0,6.02,-0.01,-8.62,-4.0,-17.06,45.38,-36.06,59.63,35.81,-0.5268646650152364,-0.5099315619621554,-0.6817856997062854,-122.20841159701891,-44.30833052387342,-33.67999263161277,0.0855,-0.8755,-0.3771,-0.2897
2868705.0,483.553628,1.0,6.94,1.26,-9.12,-9.25,-18.06,45.56,-67.56,19.69,49.69,0.4381878963560699,0.08446423980651152,-1.7140469042537063,-123.11607559607697,-42.33553232385557,-34.975273498072475,0.079,-0.8793,-0.3611,-0.3005
2868740.0,483.561673,1.0,6.48,1.47,-9.08,-13.0,-19.25,44.75,-51.94,-23.44,36.5,0.19377626457575925,0.35416426685957497,-1.4376693849768873,-124.84860239500853,-40.05852194281655,-35.504295540348124,0.0638,-0.8864,-0.3425,-0.3049
2868776.0,483.612302,1.0,6.01,1.16,-8.72,-14.5,-20.75,43.69,-61.31,-41.88,40.19,-0.05912182482704065,0.0691626450865791,-0.8467917508312208,-126.60729740721462,-38.51327351873995,-35.01131860953798,0.051,-0.8934,-0.3298,-0.3008
2868809.0,483.634,1.0,6.29,0.46,-9.62,-14.5,-20.75,43.69,-92.69,-101.56,49.81,-0.5315698253338725,-0.959566379691839,-1.64397294741031,-130.02500909601727,-36.094355959132386,-33.24922417976444,0.0236,-0.9064,-0.3098,-0.2861
2868846.0,483.676946,1.0,4.52,3.39,-7.88,-12.88,-23.37,43.56,-110.56,-94.5,50.88,0.9340660456702832,1.5434714294499483,0.27973462466482957,-133.2419635150545,-33.67999263161277,-31.471372637897833,-0.0066,-0.9179,-0.2897,-0.2712
2868883.0,483.720568,1.0,3.93,3.58,-7.82,-9.88,-25.56,41.06,-28.62,-40.5,16.37,0.7253517437880261,1.6775161678075206,0.5290692617618191,-135.54829362030736,-31.935947193238352,-29.9147053648035,-0.0281,-0.9257,-0.2751,-0.2581
2868918.0,483.74176,1.0,4.0,3.21,-8.28,-9.88,-25.56,41.06,-16.87,-20.81,10.31,0.4132675999841786,1.2784150974964095,0.16002547484631435,-136.25033456727624,-31.43565821002521,-29.369442547321675,-0.0333,-0.928,-0.2709,-0.2535
2868953.0,483.783337,1.0,3.55,3.47,-8.13,-8.38,-27.5,40.69,4.31,-12.13,-8.44,0.3321996020837732,1.6296672810277528,0.4271975651548292,-136.58990657854866,-31.376141122007805,-28.89585348706327,-0.0377,-0.9291,-0.2704,-0.2495
2868987.0,483.806252,1.0,3.39,2.5,-7.9,-8.38,-28.25,39.88,16.0,-1.88,-11.81,-0.07464390449981262,0.8913728300731487,0.8986770114167726,-136.4043735540619,-31.935947193238352,-28.588291341239625,-0.0346,-0.9285,-0.2751,-0.2469
2869024.0,483.846961,1.0,3.81,1.76,-8.84,-8.38,-27.87,40.25,13.56,7.19,-6.25,-0.5752285973091551,0.1663412011980453,0.039319624425425914,-136.12747373883852,-32.2936788968098,-28.647421502753197,-0.0311,-0.9276,-0.2781,-0.2474
2869057.0,483.888548,1.0,3.92,2.32,-8.54,-8.38,-27.87,40.25,-4.13,-7.63,-4.13,-0.054310229405172716,0.527008543292363,0.14229733702878455,-136.09680960991037,-32.46073084280037,-28.505522169511824,-0.032,-0.9275,-0.2795,-0.2462
2869094.0,483.961501,1.0,4.0,1.82,-8.29,-8.0,-27.5,42.0,21.75,6.5,-17.19,-0.1043786147221899,0.055949122223001135,0.42462064593639326,-135.8217429117077,-32.938414434386345,-28.399126966206964,-0.03,-0.9266,-0.2835,-0.2453
2869131.0,483.988399,1.0,4.24,1.23,-8.61,-6.88,-27.5,43.19,12.56,11.56,-11.5,-0.40783494344085924,-0.46337345247613737,0.15048328113847553,-135.00612922505886,-33.83566809114509,-28.635594847709356,-0.0246,-0.9239,-0.291,-0.2473
2869166.0,484.000365,1.0,4.43,1.71,-8.88,-6.88,-27.5,43.19,5.0,4.75,-3.81,-0.16813185030482192,-0.11712582107910169,-0.26119054417577736,-134.7969534952698,-33.9794256257345,-28.78936571677899,-0.0233,-0.9232,-0.2922,-0.2486
2869198.0,484.035957,1.0,4.28,1.56,-8.57,-7.56,-26.69,39.88,6.19,-0.12,-6.69,-0.19334205635534651,-0.17516101703101153,0.10464827523428433,-134.64810211296725,-34.231134126347314,-28.742045975943412,-0.0218,-0.9227,-0.2943,-0.2482
2869235.0,484.065446,1.0,4.42,1.45,-8.79,-6.88,-27.06,42.0,2.88,4.13,-0.94,-0.2556473034155977,-0.28737230902087174,-0.13090813126465584,-134.49971207203987,-34.39903434859307,-28.78936571677899,-0.0198,-0.9222,-0.2957,-0.2486
2869270.0,484.106927,1.0,4.06,1.85,-8.39,-8.0,-27.5,41.5,0.94,-0.75,-0.75,-0.11379840460249202,0.1891204146957834,0.3066771899412668,-134.49971207203987,-34.339061261923746,-28.813027467482133,-0.0205,-0.9222,-0.2952,-0.2488
2869305.0,484.135983,1.0,4.17,1.77,-8.59,-8.0,-27.5,41.5,1.88,5.31,-1.37,-0.17838584267588597,0.10020581901627529,0.09747715752942732,-134.41089761229173,-34.41103013134,-28.87218733809866,-0.0196,-0.9219,-0.2958,-0.2493
