TIME,ELAPSED_SECONDS,PSTATE,acc_x,acc_y,acc_z,mag_x,mag_y,mag_z,gyr_x,gyr_y,gyr_z,lin_x,lin_y,lin_z,eul_x,eul_y,eul_z,qua_w,qua_x,qua_y,qua_z
1802821.0,707.060884,1.0,-1.48,3.41,-9.19,18.37,-34.75,30.56,-1.81,3.13,-0.12,0.01806044649966554,-0.30808687185250794,-0.10189965671890988,-141.88802849828062,-29.34575098031873,3.782208130568333,-0.2034,-0.9452,-0.2533,0.033
1802858.0,707.100825,1.0,-1.46,3.56,-9.12,18.69,-34.06,31.75,-2.31,0.63,1.25,0.09682518867458678,-0.1794428466145792,-0.0897142388322063,-141.81789497427926,-29.369442547321675,3.701951248377608,-0.204,-0.945,-0.2535,0.0323
1802893.0,707.13746,1.0,-1.44,3.51,-9.01,18.69,-34.06,31.75,-0.25,-0.44,0.94,0.08642189655216226,-0.18163362632199362,0.032534158575492356,-141.85294621850556,-29.357596603435574,3.656090990936744,-0.204,-0.9451,-0.2534,0.0319
1802930.0,707.165831,1.0,-1.45,3.54,-9.01,17.56,-34.75,33.06,-2.06,3.5,1.37,0.07701653992174318,-0.15376238397408626,0.01968797995245275,-141.85294621850556,-29.310216034057575,3.57583694549078,-0.2042,-0.9451,-0.253,0.0312
1802964.0,707.222387,1.0,-1.43,3.64,-9.19,18.0,-34.5,32.25,-4.56,-5.13,1.12,0.12699559695938878,-0.1773407885913006,-0.17849007728758615,-141.81789497427926,-29.274683969227155,3.564372225995784,-0.2053,-0.945,-0.2527,0.0311
1802997.0,707.236809,1.0,-1.65,3.47,-8.46,18.0,-34.5,32.25,0.75,-2.19,1.19,-0.08098722207235809,0.06731465708570908,0.5155838713577943,-141.85294621850556,-29.1444243172648,3.8280700368682603,-0.2057,-0.9451,-0.2516,0.0334
1803032.0,707.276408,1.0,-1.48,3.76,-9.19,18.37,-34.5,32.25,-7.25,4.75,3.06,0.1480464920262139,-0.08914741174918475,-0.23099090686537416,-141.81789497427926,-29.132584441928433,3.6675560000932936,-0.2066,-0.945,-0.2515,0.032
1803069.0,707.327767,1.0,-1.43,3.56,-9.26,18.0,-34.5,31.75,-0.25,-0.56,0.81,0.06226980219974532,-0.31178619229084303,-0.21158396822168335,-141.78287468010964,-29.10890564472929,3.5299782811888885,-0.2076,-0.9449,-0.2513,0.0308
1803104.0,707.355885,1.0,-1.46,3.56,-9.05,18.0,-34.5,31.75,-1.56,0.0,2.75,0.04541207414461401,-0.21268090246412413,-0.024952340272358597,-141.81789497427926,-29.03787686998247,3.541442893959926,-0.2076,-0.945,-0.2507,0.0309
1803139.0,707.398148,1.0,-1.31,3.5,-9.46,18.0,-35.19,30.56,-5.31,0.5,4.88,0.09577530650347732,-0.5114553178280217,-0.3514472897747716,-141.85294621850556,-28.90768703373302,3.40386984812725,-0.2087,-0.9451,-0.2496,0.0297
1803173.0,707.42259,1.0,-1.23,2.7,-9.7,18.69,-35.56,31.75,-12.88,-10.13,15.13,-0.24630898057580075,-1.3342213337288014,-0.24581662857980646,-141.88802849828062,-28.588291341239625,3.438262641755622,-0.2115,-0.9452,-0.2469,0.03
1803210.0,707.46586,1.0,-1.52,2.41,-10.07,18.69,-35.19,32.19,-53.5,-60.63,60.06,-0.6187904869848243,-1.9060205781193527,-0.4650384633930891,-141.92314189948746,-26.982869511205863,4.137654318321577,-0.2251,-0.9453,-0.2333,0.0361
1803245.0,707.477484,1.0,-1.36,3.96,-11.5,18.69,-35.19,32.19,-54.19,-73.06,59.88,0.33013516718819114,-2.0055613786774567,-2.2619014593816544,-141.64310130769366,-24.127512270969643,5.777862453568277,-0.2482,-0.9445,-0.209,0.0504
1803282.0,707.53371,1.0,-2.62,5.09,-8.24,17.56,-37.06,30.19,-18.81,-120.25,53.5,-0.05793518288153421,0.5738497774697388,-0.21020778812310148,-141.39967008106163,-21.718849470413215,8.487533709607298,-0.2611,-0.9438,-0.1884,0.074
1803319.0,707.556844,1.0,-3.62,7.34,-6.49,17.56,-37.75,26.37,-11.5,-89.94,27.56,0.061326053438421235,3.2494399575088435,-0.11995460972001126,-140.71214769326966,-19.564009796752835,11.662626087112967,-0.2715,-0.9418,-0.1699,0.1016
1803354.0,707.602227,1.0,-4.3,10.66,-5.55,17.56,-37.75,26.37,9.81,-80.69,-61.69,1.0015824201068793,6.4415121185157345,-1.1674948087196224,-139.5691405181039,-19.691932497848978,14.25756979612918,-0.2737,-0.9384,-0.171,0.1241
1803386.0,707.632484,1.0,-3.8,7.68,-4.27,19.5,-39.0,26.37,102.06,-29.37,-161.63,1.0815374023447952,5.111504788987243,1.784300242012021,-138.4562899093435,-24.186105170420962,17.636430239406277,-0.2417,-0.935,-0.2095,0.1533
1803423.0,707.661444,1.0,-3.1,2.46,-3.45,23.25,-37.38,23.5,98.75,80.12,-155.44,-0.6174126848372088,1.6139880949803491,4.849035250358413,-138.29503211078548,-28.588291341239625,17.9843995399279,-0.2032,-0.9345,-0.2469,0.1563
1803460.0,707.71568,1.0,-0.44,-2.04,-3.74,27.06,-31.69,28.87,57.94,322.38,-110.19,-1.1946051015828782,-2.6329122823264215,6.646983630769407,-139.0746070515941,-34.77108519878443,11.466824127666603,-0.1513,-0.9369,-0.2988,0.0999
1803495.0,707.741438,1.0,2.96,-1.24,-10.04,27.06,-31.69,28.87,-52.56,336.75,-25.81,0.5791169777999117,-5.049736466016348,0.5727133990800759,-138.91102916961097,-38.270597450084026,-0.9969591404369118,-0.1249,-0.9364,-0.3278,-0.0087
1803532.0,707.781297,1.0,5.1,0.65,-19.54,24.37,-27.25,36.0,-61.63,171.88,14.0,0.12491915361216055,-6.257834247913389,-9.40449274921466,-137.71937015042116,-38.78042477210455,-8.22327089407658,-0.1215,-0.9327,-0.332,-0.0717
1803569.0,707.812347,1.0,3.05,0.39,-13.85,13.5,-29.56,38.5,14.25,-59.0,17.69,-0.18020079237961406,-4.210065590588081,-3.7403044694507646,-138.84577222800962,-37.640469908070976,-7.499640647274436,-0.1234,-0.9362,-0.3226,-0.0654
1803603.0,707.8473,1.0,2.54,-5.02,-9.07,13.5,-29.56,38.5,-15.75,-152.38,96.31,-2.037441616704624,-7.421588300079478,2.4116680011954434,-141.3650146581067,-35.27575900730598,-3.8280700368682603,-0.1284,-0.9437,-0.303,-0.0334
1803638.0,707.897435,1.0,0.05,-0.87,-6.21,12.0,-30.25,39.25,-153.5,-159.5,223.56,-0.8799759646554889,-2.9164750496866936,4.325471697282267,-145.8027223342799,-26.53527290705493,-0.19480574417599017,-0.1836,-0.9558,-0.2295,-0.0017
1803673.0,707.92735,1.0,0.16,7.41,-6.12,15.38,-30.69,35.56,-171.31,-16.0,234.06,1.8747826829254026,3.5398799823771303,1.0692282062344756,-147.2755852976408,-19.11066283969618,-1.3292918974264516,-0.2272,-0.9595,-0.166,-0.0116
1803710.0,707.969449,1.0,0.03,4.26,-3.62,10.0,-38.5,29.69,-9.81,45.0,170.19,0.3953546069811047,1.992299025349657,4.598258758135617,-148.94411093259444,-12.365495103087909,-4.1720543955147065,-0.2423,-0.9635,-0.1077,-0.0364
1803745.0,707.992223,1.0,1.15,6.72,-5.05,10.0,-38.5,29.69,-48.63,140.69,170.0,0.5855171970855713,3.3130415956351182,2.0179193590349023,-148.60349534227026,-7.097755072388745,-10.407757691617306,-0.2471,-0.9627,-0.0619,-0.0907
1803782.0,708.031864,1.0,2.98,8.99,-7.24,3.56,-41.56,29.25,-7.69,127.19,97.62,1.0126290732731502,4.08233089264104,-1.3480466271140976,-147.113267463602,-4.745446786894517,-15.170359975770202,-0.2469,-0.9591,-0.0414,-0.132
1803819.0,708.060899,1.0,3.01,8.21,-5.85,-6.06,-42.56,28.5,13.25,152.38,58.56,0.4466660507018223,4.223027533468555,0.1809953266431279,-144.87941908090355,-3.4497269749928665,-20.984205642908503,-0.2389,-0.9534,-0.0301,-0.1821
1803853.0,708.098306,1.0,4.13,8.8,-6.31,-6.06,-42.56,28.5,45.94,179.5,26.0,0.5673430160157074,4.580435538717326,-0.8240005999319546,-142.5249164652642,-3.793673550039814,-26.04103972629063,-0.2267,-0.947,-0.0331,-0.2253
1803888.0,708.140858,1.0,6.12,9.97,-10.71,-13.06,-42.56,28.19,34.38,110.62,-48.81,-0.6380976639584408,3.674442516073339,-5.609273701397962,-139.1730548258568,-6.030298919379606,-31.316632714824518,-0.2148,-0.9372,-0.0526,-0.2699
1803925.0,708.16617,1.0,6.41,7.1,-8.2,-17.19,-41.56,27.37,55.44,82.62,-90.25,0.864147980983677,1.9015674571562766,-2.618139313016382,-137.62415242586073,-9.142643881088318,-33.177476600322066,-0.2069,-0.9324,-0.0797,-0.2855
1803962.0,708.199855,1.0,6.58,5.6,-9.43,-17.06,-42.0,26.87,55.56,31.12,-92.5,0.26097179193265907,0.044529935161770506,-2.980500222340007,-136.25033456727624,-13.634163660769715,-34.20715457242007,-0.1955,-0.928,-0.1187,-0.2941
1803995.0,708.244473,1.0,5.86,4.87,-9.22,-17.06,-42.0,26.87,58.38,-3.69,-106.31,0.07707626230750053,-0.44235340495955455,-2.145892939262316,-135.7608376875957,-18.03080801097451,-33.2133487153414,-0.1885,-0.9264,-0.1567,-0.2858
1804032.0,708.28844,1.0,5.07,3.09,-8.23,-14.0,-42.0,28.19,27.81,6.56,-106.56,-0.1508805735305896,-1.6001268769857748,-0.21346621839182234,-134.8267795347168,-21.415555412105128,-32.436861947325646,-0.1872,-0.9233,-0.1858,-0.2793
1804068.0,708.313374,1.0,4.77,2.77,-8.41,-10.56,-42.25,29.06,35.13,14.06,-92.5,-0.5028169032028877,-1.9260566758892264,-0.05191890441589386,-133.18424101457546,-25.32409900412527,-31.92402832569447,-0.1847,-0.9177,-0.2192,-0.275
1804103.0,708.355255,1.0,4.55,1.86,-9.07,-10.56,-42.25,29.06,35.88,1.25,-78.69,-1.285147244411861,-2.759680129140534,-0.050305013847204094,-132.18474141916647,-27.867523616250345,-31.376141122007805,-0.1816,-0.9142,-0.2408,-0.2704
1804138.0,708.390853,1.0,4.39,1.95,-8.23,-6.19,-41.5,30.37,9.19,-7.63,-51.44,-0.8208774935397369,-2.5505657358579685,0.6618003802595425,-131.17679840124268,-30.17572764472251,-30.62696303514804,-0.1824,-0.9106,-0.2603,-0.2641
1804173.0,708.41978,1.0,4.16,2.49,-8.53,-3.88,-41.19,32.25,12.0,2.13,-19.62,-0.9363828122705349,-2.064074774738169,0.26047890614389324,-130.735045365197,-31.102474019884113,-30.448786092848707,-0.1812,-0.909,-0.2681,-0.2626
1804210.0,708.460069,1.0,3.95,2.94,-8.06,-3.19,-39.69,29.75,-0.37,-4.56,-5.0,-0.6094913213320856,-1.5199194288228153,0.5046037058178534,-130.62518646665285,-31.48327814398648,-30.235073199393444,-0.1812,-0.9086,-0.2713,-0.2608
1804244.0,708.495894,1.0,3.88,3.59,-7.88,-3.19,-39.69,29.75,-3.94,-9.56,7.06,-0.27591623102300256,-0.9542776825087372,0.37001265727437094,-130.79006103529238,-31.328533702747045,-30.057061369867114,-0.1824,-0.9092,-0.27,-0.2593
1804281.0,708.533438,1.0,3.76,4.06,-7.52,-2.38,-40.75,32.38,-5.44,-10.31,16.25,0.059906444281542015,-0.4412165675719325,0.48070022754070507,-131.31561745343842,-30.710138215163173,-29.78425385642316,-0.1834,-0.9111,-0.2648,-0.257
1804316.0,708.55684,1.0,3.78,4.56,-7.83,-2.38,-41.19,31.87,-2.56,-9.56,11.94,0.1070016999013379,-0.10627520125559164,-0.010078386678340934,-131.70630400699523,-30.258813745298948,-29.641988140572543,-0.1838,-0.9125,-0.261,-0.2558
1804351.0,708.596326,1.0,3.7,4.66,-7.59,-2.38,-41.19,31.87,-7.81,-4.69,10.75,0.22591693071861974,0.05635422847220373,0.16510003428660447,-132.04355843852292,-29.76053964808933,-29.487919662093987,-0.1856,-0.9137,-0.2568,-0.2545
1804386.0,708.632182,1.0,3.64,4.95,-7.94,-2.75,-40.06,31.06,-7.31,-4.75,9.25,0.07618016836881947,0.24405420547966938,-0.22980027520861235,-132.269639855159,-29.310216034057575,-29.476070502113327,-0.1871,-0.9145,-0.253,-0.2544
1804421.0,708.663263,1.0,3.48,4.74,-7.62,-3.56,-41.19,31.5,-7.19,-0.19,9.5,0.04114575792979247,0.23413318413627038,0.18449386539634993,-132.41145409892673,-28.99053068871544,-29.51161894955961,-0.188,-0.915,-0.2503,-0.2547
1804457.0,708.707332,1.0,3.63,5.05,-7.95,-3.56,-41.19,31.5,-4.88,2.38,9.44,0.04467344916056226,0.33589548015746395,-0.281317015675155,-132.46829135766268,-28.69473124115228,-29.653841828798466,-0.1887,-0.9152,-0.2478,-0.2559
1804490.0,708.742033,1.0,3.6,5.15,-7.8,-3.19,-41.56,31.06,0.0,-0.63,1.94,0.11943754465359424,0.4665220111648355,-0.19787856890447664,-132.49673400768697,-28.47005431834872,-29.724970780047894,-0.1894,-0.9153,-0.2459,-0.2565
1804527.0,708.783421,1.0,3.64,4.89,-7.93,-3.56,-41.56,31.06,-0.94,1.75,0.19,-0.020658071655381915,0.20847379531404786,-0.19348559511784025,-132.46829135766268,-28.48187662578674,-29.76053964808933,-0.1893,-0.9152,-0.246,-0.2568
1804562.0,708.800784,1.0,3.66,4.79,-7.78,-3.19,-40.75,30.56,3.13,0.31,-2.13,0.043975760048418744,0.143280569744759,-0.034368077966416166,-132.4398647310081,-28.54099280947513,-29.76053964808933,-0.1895,-0.9151,-0.2465,-0.2568
1804597.0,708.884766,1.0,3.71,4.77,-8.0,-3.19,-40.75,30.56,-5.5,1.12,0.19,-0.059223851126033455,0.04098601871672081,-0.2189079735856847,-132.3830594327069,-28.54099280947513,-29.796111449943453,-0.1901,-0.9149,-0.2465,-0.2571
1804634.0,708.886761,1.0,3.81,4.71,-8.14,-3.19,-41.19,30.25,-1.44,-4.25,-0.69,-0.07880763169095606,-0.1063897371130047,-0.339397042125535,-132.3830594327069,-28.529168952703607,-29.736826743672204,-0.1907,-0.9149,-0.2464,-0.2566
1804668.0,708.911961,1.0,3.64,4.9,-7.66,-4.25,-41.56,31.87,-1.75,-4.44,-0.69,0.15194569432145633,0.22409986462824316,0.01574137226525174,-132.4398647310081,-28.505522169511824,-29.57087281914313,-0.1917,-0.9151,-0.2462,-0.2552
1804703.0,708.954363,1.0,3.54,4.37,-7.64,-4.25,-41.56,31.87,5.06,1.75,-4.81,-0.08628769270366621,-0.14421598543343905,0.32140587116318287,-132.41145409892673,-28.647421502753197,-29.523469077350697,-0.1913,-0.915,-0.2474,-0.2548
1804736.0,708.981413,1.0,3.68,4.57,-8.02,-3.56,-40.75,30.56,0.44,4.25,-0.06,-0.13775059113802834,-0.1345655926180107,-0.12867167953934633,-132.32631788342704,-28.742045975943412,-29.641988140572543,-0.1907,-0.9147,-0.2482,-0.2558
1804773.0,709.03442,1.0,3.75,4.71,-7.86,-3.88,-42.0,31.06,-3.38,-2.88,3.0,0.044954374761144056,-0.028529872016035185,-0.09402498459537689,-132.32631788342704,-28.635594847709356,-29.66569584162053,-0.1912,-0.9147,-0.2473,-0.256
1804808.0,709.047813,1.0,3.67,4.84,-7.73,-3.88,-42.0,31.06,0.0,-1.0,0.56,0.1073754667083866,0.14263155955661067,-0.022669749981053755,-132.3830594327069,-28.552816976564145,-29.61828173729524,-0.1917,-0.9149,-0.2466,-0.2556
1804843.0,709.090344,1.0,3.67,4.55,-7.84,-4.25,-41.19,31.56,0.0,-2.19,0.56,-0.04564222989671207,-0.10871287931383933,0.027943628668394282,-132.4398647310081,-28.576466242295997,-29.57087281914313,-0.1912,-0.9151,-0.2468,-0.2552
1804877.0,709.123411,1.0,3.75,4.75,-8.02,-2.75,-41.19,30.25,-2.94,-2.75,3.19,-0.011564452088272503,-0.042887537085724015,-0.240410611074795,-132.5251927099627,-28.44641063157099,-29.49976914452507,-0.192,-0.9154,-0.2457,-0.2546
