TIME,ELAPSED_SECONDS,PSTATE,acc_x,acc_y,acc_z,mag_x,mag_y,mag_z,gyr_x,gyr_y,gyr_z,lin_x,lin_y,lin_z,eul_x,eul_y,eul_z,qua_w,qua_x,qua_y,qua_z
3255113.0,870.647497,1.0,3.46,1.61,-8.97,-0.19,-21.87,46.56,-8.25,-6.25,3.38,0.3279544852013827,0.3725365653065832,0.07123720119450105,-132.32631788342704,-41.72175180713575,-22.010623641883033,0.0116,-0.9147,-0.3561,-0.1909
3255148.0,870.664527,1.0,3.37,0.92,-8.74,-0.19,-21.87,46.56,8.06,-2.75,-1.5,-0.0862269367919608,-0.12484689806467703,0.39559914648660843,-132.3546807037213,-41.74627885444266,-21.882225322200526,0.0118,-0.9148,-0.3563,-0.1898
3255183.0,870.714861,1.0,3.44,1.0,-9.16,-0.19,-22.56,44.5,-3.25,2.0,2.19,-0.11619044032380166,-0.022925877672951747,-0.028245738426024403,-132.3546807037213,-41.7585431287547,-21.858883165817783,0.0131,-0.9148,-0.3564,-0.1896
3255218.0,870.758552,1.0,3.39,1.48,-8.94,-0.56,-23.37,46.56,-2.63,0.37,2.56,0.22458863713198163,0.3278019875390904,0.13978878236391523,-132.41145409892673,-41.648182661236724,-21.92891239364033,0.0124,-0.915,-0.3555,-0.1902
3255255.0,870.783479,1.0,3.35,1.0,-8.9,-0.56,-22.25,46.06,2.81,3.06,-1.75,-0.10133010503232631,0.005720665142123854,0.2451543280978008,-132.32631788342704,-41.72175180713575,-21.95225731085251,0.0134,-0.9147,-0.3561,-0.1904
3255287.0,870.808019,1.0,3.47,1.16,-8.96,-0.56,-22.25,46.06,-2.38,4.31,0.88,0.03767932147191533,0.06965321766439231,0.1287458519934468,-132.269639855159,-41.70948903373751,-22.127373666986443,0.0135,-0.9145,-0.356,-0.1919
3255324.0,870.844884,1.0,3.46,1.25,-8.73,-0.56,-23.37,47.06,-0.69,14.63,-1.5,0.12436750379630435,0.1361700285699935,0.3349558301421762,-132.09998463629478,-41.72175180713575,-22.44271531767953,0.0142,-0.9139,-0.3561,-0.1946
3255359.0,870.873569,1.0,3.43,1.01,-8.65,-1.25,-23.0,46.56,2.38,30.5,-5.38,-0.11597279011776096,0.038404820158789016,0.44755947892152825,-131.62233589525562,-41.844407080073346,-23.12070182440919,0.0165,-0.9122,-0.3571,-0.2004
3255394.0,870.910284,1.0,3.69,0.94,-8.57,-1.25,-23.0,46.56,-3.5,42.31,-2.75,-0.13872326424745074,-0.050226756743728646,0.42993239047034315,-130.76254599505174,-41.967112565300916,-24.44399042905254,0.0207,-0.9091,-0.3581,-0.2117
3255427.0,870.954835,1.0,3.9,0.98,-8.72,-2.06,-23.37,46.19,-5.44,39.0,0.12,-0.24427876414708005,0.019337110438126304,0.20723574903933262,-129.97078188553854,-41.88121344414588,-25.94695623100749,0.0238,-0.9062,-0.3574,-0.2245
3255463.0,870.985582,1.0,3.82,1.07,-8.51,-3.88,-22.56,45.69,-10.19,30.62,0.5,-0.30065540401836,0.16991159732680264,0.4237860247988028,-129.51205087236005,-41.7585431287547,-26.94751777725,0.0246,-0.9045,-0.3564,-0.233
3255498.0,871.019491,1.0,3.64,0.99,-7.95,-3.88,-22.56,45.69,-12.81,27.75,3.81,-0.3558055002493852,0.15624902797160026,1.0156780009972586,-129.16386802241826,-41.611404826079344,-27.761276718209416,0.0247,-0.9032,-0.3552,-0.2399
3255533.0,871.057477,1.0,4.56,1.71,-8.72,-5.06,-23.75,44.88,-6.88,18.5,12.0,0.21448711216991612,0.3731886687079956,-0.1718682014295574,-128.97730409708814,-41.04803635831072,-28.813027467482133,0.025,-0.9025,-0.3506,-0.2488
3255568.0,871.092385,1.0,7.17,1.84,-13.94,-6.19,-23.75,44.38,5.56,-85.31,10.75,0.3067244188361591,-0.422945745315623,-5.9681760537924475,-130.95545525843713,-40.64451940316256,-26.205728877683857,0.0181,-0.9098,-0.3473,-0.2267
3255605.0,871.128365,1.0,5.28,0.75,-12.6,-6.56,-23.37,44.88,5.19,-379.94,43.56,0.7356449210735772,-1.6628738967966128,-3.7541234644249233,-136.3735243727286,-39.77811923036006,-17.184314583414665,-0.0074,-0.9284,-0.3402,-0.1494
3255640.0,871.154332,1.0,3.04,3.88,-9.71,-6.56,-23.37,44.88,3.0,-411.31,30.25,4.07894347635205,0.35603044700090525,-0.2837197869569419,-141.39967008106163,-38.04022025359053,-2.3149069396375412,-0.0508,-0.9438,-0.3259,-0.0202
3255674.0,871.193841,1.0,-1.18,2.63,-3.9,5.06,-23.37,45.75,150.63,-236.0,-86.12,1.0865014241373507,2.23475581781481,5.641955402542659,-139.7685838910077,-39.108592274648124,7.109236280779952,-0.0499,-0.939,-0.3347,0.062
3255713.0,871.231292,1.0,-2.15,-3.42,-7.49,19.25,-21.87,42.75,41.44,-81.81,-36.81,-2.378367662319982,-2.135837273421158,1.9199164299917237,-136.43524351543036,-41.256116153254155,13.034229810442687,-0.0262,-0.9286,-0.3523,0.1135
3255746.0,871.276919,1.0,-2.53,-0.86,-8.93,19.25,-21.87,42.75,-11.31,-32.75,-4.06,-0.5260999825576027,-0.2912533217506696,0.5048334940199926,-135.6696288830052,-41.57463147554045,14.269118297459285,-0.0306,-0.9261,-0.3549,0.1242
3255781.0,871.30143,1.0,-2.46,-0.98,-9.0,25.69,-17.06,41.56,11.13,-19.87,1.44,-0.4211294123397398,-0.5034580767483654,0.44816828644094286,-135.42727196097036,-41.51335250906026,15.10100089527667,-0.0316,-0.9253,-0.3544,0.1314
3255816.0,871.335899,1.0,-2.45,-1.29,-8.48,27.19,-15.56,40.38,6.0,17.0,1.75,-0.7329371521317949,-0.6233831207928859,0.9380990126213113,-135.4574981156968,-41.53786260419432,15.020088998588148,-0.0295,-0.9254,-0.3546,0.1307
3255853.0,871.402924,1.0,-2.36,-1.1,-8.61,27.5,-15.56,41.56,-13.19,37.06,12.63,-0.6737955943782743,-0.4837143047609413,0.849880494851055,-136.12747373883852,-41.256116153254155,13.876550175976098,-0.0283,-0.9276,-0.3523,0.1208
3255887.0,871.410515,1.0,-2.16,-0.68,-8.67,27.5,-15.56,41.56,-17.56,47.13,17.37,-0.5212843445037452,-0.21892270886334908,0.8636507559141968,-137.24530467426428,-40.73006975326216,11.985198208002227,-0.0286,-0.9312,-0.348,0.1044
3255924.0,871.452574,1.0,-0.54,-3.5,-8.12,25.25,-15.19,41.69,-40.88,68.56,59.19,-1.5095575220354025,-3.2959063239357977,1.7236902950709734,-138.87838831455554,-39.64410140012822,9.890066196362191,-0.0311,-0.9363,-0.3391,0.0862
3255961.0,871.481282,1.0,-0.32,-2.93,-7.99,23.37,-17.06,42.75,-129.56,117.5,129.88,-1.6599345883120988,-3.224780623432596,2.101274792181833,-143.50031973782015,-35.60056506187857,4.447268815934102,-0.0564,-0.9497,-0.3057,0.0388
3255996.0,871.527912,1.0,1.33,0.62,-8.79,23.37,-17.06,42.75,-95.94,194.69,161.69,0.8391373409561907,-1.2895340604024614,1.028817099444483,-147.43869005154224,-31.423754097001943,-1.8908465277120163,-0.0709,-0.9599,-0.2708,-0.0165
3256031.0,871.570116,1.0,1.96,3.88,-11.46,18.75,-23.06,43.19,-87.31,220.56,132.0,0.8343249279522981,1.3115562160587293,-2.351117977993127,-149.72415559222358,-26.5588202853178,-11.075320376717382,-0.0778,-0.9653,-0.2297,-0.0965
3256068.0,871.617988,1.0,3.1,2.58,-10.7,8.0,-28.0,43.56,-12.88,122.44,65.94,0.5474646474033749,0.11094389763596518,-1.6145747115368874,-149.37507492345586,-24.690270937756786,-15.7832777083714,-0.0724,-0.9645,-0.2138,-0.1373
3256104.0,871.675062,1.0,3.46,2.67,-9.93,-1.0,-30.06,41.06,-65.12,81.25,50.81,0.314351555183654,0.20442256516072554,-1.0360800305138458,-148.35037934063973,-22.594607753630356,-19.90131410531983,-0.0786,-0.9621,-0.1959,-0.1728
3256139.0,871.693996,1.0,3.3,3.8,-9.14,-1.0,-30.06,41.06,-36.63,30.87,44.81,0.40486811783073273,1.3310788702806058,-0.534235399628832,-147.97436096195162,-20.669626923426364,-21.9172402806094,-0.0877,-0.9612,-0.1794,-0.1901
3256176.0,871.703204,1.0,3.35,3.9,-8.81,-5.88,-32.06,41.56,-38.0,16.19,15.81,0.4300668926989186,1.3587684391185937,-0.2937158743958168,-147.7673081897566,-19.81987998842397,-22.62966555670664,-0.0947,-0.9607,-0.1721,-0.1962
3256211.0,871.727968,1.0,3.36,2.92,-9.17,-7.75,-32.75,38.69,-17.87,6.0,7.0,-0.11536089623579593,0.3123363026472999,-0.3812858997624389,-147.39783944401512,-19.36635943259494,-23.12070182440919,-0.1011,-0.9598,-0.1682,-0.2004
3256246.0,871.787873,1.0,3.22,3.45,-8.62,-7.75,-32.75,38.69,-18.94,-8.88,10.56,0.12561104737904238,0.8545842625974989,0.01741062184108877,-147.52054122823532,-18.913144938477476,-23.05052764872174,-0.1055,-0.9601,-0.1643,-0.1998
3256281.0,871.803852,1.0,3.31,3.26,-8.86,-8.19,-33.56,38.75,-0.5,-5.63,-0.31,0.077528414645194,0.5839013677027853,-0.18015872640090969,-147.72605283657722,-18.762140123042595,-22.840057573731936,-0.1071,-0.9606,-0.163,-0.198
3256315.0,871.83542,1.0,3.3,2.48,-8.75,-8.5,-34.0,38.69,-1.69,-1.25,-4.81,-0.06997911528460121,-0.11673193112729774,0.13274817190192323,-147.7673081897566,-18.913144938477476,-22.699787605080818,-0.1066,-0.9607,-0.1643,-0.1968
3256352.0,871.88357,1.0,3.21,2.61,-9.14,-7.75,-34.0,38.69,-11.44,-5.56,1.63,-0.2631097718380129,-0.07381766019011765,-0.22236411909502962,-147.80861501075395,-18.808599629302385,-22.571237075421166,-0.1094,-0.9608,-0.1634,-0.1957
3256387.0,871.908468,1.0,3.38,3.28,-9.94,-7.75,-34.0,38.69,0.5,-18.56,-1.19,-0.19723062501573807,0.3193137227979309,-1.1863267955267123,-148.0575479662478,-18.68084346973021,-22.162403204703924,-0.1113,-0.9614,-0.1623,-0.1922
3256424.0,871.961928,1.0,4.0,4.07,-12.43,-7.38,-35.06,37.75,35.19,-121.37,-31.81,0.20838773290391677,0.36483690188529905,-3.8642412872496266,-149.72415559222358,-19.157145947707967,-19.401234664747335,-0.1102,-0.9653,-0.1664,-0.1685
3256459.0,871.988549,1.0,3.52,2.07,-13.12,-7.0,-35.06,40.0,66.87,-307.0,-29.62,0.7631447059051499,-1.6175457752547944,-3.817257509330952,-153.91350924378722,-19.575638113427956,-11.858462221253813,-0.1071,-0.9742,-0.17,-0.1033
3256494.0,872.027068,1.0,0.0,3.59,-6.84,-7.0,-35.06,40.0,85.56,-264.13,-51.38,0.9914331675370817,1.9194139483891122,2.3900058553051293,-156.814109146573,-19.854779083760313,0.1718874029970642,-0.1028,-0.9796,-0.1724,0.0015
3256528.0,872.063584,1.0,-1.05,1.18,-7.5,2.69,-32.0,41.19,110.19,-192.81,-72.06,0.38816999880502806,0.09452484166622072,2.152547237014928,-154.9492208405226,-21.57884859507936,8.820799294692952,-0.0781,-0.9762,-0.1872,0.0769
3256565.0,872.087315,1.0,-2.43,-1.35,-7.14,13.19,-27.87,41.69,39.69,-72.37,-32.06,-1.4392388199577484,-1.551494202409927,2.4426526236414885,-152.91671705681662,-22.82836708787642,12.169567773976446,-0.0663,-0.9722,-0.1979,0.106
3256602.0,872.133773,1.0,-2.66,0.32,-8.7,18.75,-24.19,40.75,-15.31,-38.88,-0.06,-0.475108692018573,-0.3406132222255609,0.7222537975210752,-151.86026450485573,-23.015443848374385,13.714952301602874,-0.0712,-0.97,-0.1995,0.1194
3256637.0,872.159494,1.0,-2.73,0.56,-8.87,18.75,-24.19,40.75,5.5,-4.5,-7.81,-0.3464967142267419,-0.14904329091570753,0.516810059265655,-151.57882322936237,-23.12070182440919,14.095906005216998,-0.0718,-0.9694,-0.2004,0.1227
3256674.0,872.198957,1.0,-2.62,0.35,-8.88,21.06,-24.5,40.75,1.0,18.94,-7.81,-0.3677689657592589,-0.3244554456435573,0.5545813312310184,-151.48561418277666,-23.495113294365407,13.79574779269871,-0.0696,-0.9692,-0.2036,0.1201
3256709.0,872.222895,1.0,-2.46,0.35,-9.52,20.25,-25.0,41.19,-6.75,19.19,-1.5,-0.1974748695356443,-0.4721070289867507,-0.018960343845474625,-151.71920090048613,-23.60046219314315,13.17264363329991,-0.0693,-0.9697,-0.2045,0.1147
3256743.0,872.279424,1.0,-2.37,0.75,-9.8,20.25,-25.0,41.19,-4.94,-6.38,1.75,0.05928564018413618,-0.23079817280108092,-0.3009024938681204,-151.71920090048613,-23.588755762396122,12.976563032466053,-0.0715,-0.9697,-0.2044,0.113
3256778.0,872.300604,1.0,-2.28,0.73,-9.92,20.69,-25.0,41.19,-1.56,-4.38,-0.31,0.1782109148872315,-0.32967092405302517,-0.39125458631816556,-151.6255402012684,-23.56534364989273,13.138038375794714,-0.0724,-0.9695,-0.2042,0.1144
3256815.0,872.342557,1.0,-2.45,0.48,-9.17,20.25,-25.0,41.19,-0.75,4.81,-0.44,-0.23406330754973736,-0.3608272902997709,0.3126088143597219,-151.6255402012684,-23.612168873737943,13.06883146764636,-0.0731,-0.9695,-0.2046,0.1138
3256850.0,872.362917,1.0,-2.35,0.75,-9.52,20.25,-25.0,41.19,-6.13,7.69,5.13,-0.009652649293978133,-0.22030051724228616,-0.025276286769262413,-151.7661453802759,-23.541932535122793,12.826644816909523,-0.0735,-0.9698,-0.204,0.1117
3256883.0,872.403764,1.0,-2.24,1.04,-9.86,20.25,-24.19,40.5,-3.13,12.5,-0.75,0.18776663033088314,-0.08487977206406802,-0.35584669701439786,-151.9074399210319,-23.530227351542678,12.388547751922632,-0.0754,-0.9701,-0.2039,0.1079
3256920.0,872.446064,1.0,-2.42,0.82,-8.86,20.0,-25.37,42.0,-5.06,11.06,-2.0,-0.29454521810473766,-0.017955699557724802,0.5902884235781514,-151.9546930927713,-23.612168873737943,12.0543331202622,-0.0757,-0.9702,-0.2046,0.105
3256954.0,872.472031,1.0,-2.33,0.68,-8.91,20.25,-26.06,40.75,-7.69,27.69,-0.12,-0.3995878134763551,-0.16505271539768773,0.5820910847747864,-152.23986727877065,-23.740958889771715,11.19045487105573,-0.0762,-0.9708,-0.2057,0.0975
