TIME,ELAPSED_SECONDS,PSTATE,acc_x,acc_y,acc_z,mag_x,mag_y,mag_z,gyr_x,gyr_y,gyr_z,lin_x,lin_y,lin_z,eul_x,eul_y,eul_z,qua_w,qua_x,qua_y,qua_z
3570499.0,1186.582736,1.0,-4.11,0.15,-8.47,35.56,-18.25,34.88,5.69,-10.63,-2.94,-0.3758065197192981,0.09367436213132652,0.39891411012640177,-125.67114640173415,-47.92015436839679,20.774468878532232,-0.1047,-0.8897,-0.4061,0.1803
3570536.0,1186.627942,1.0,-3.91,0.29,-10.2,35.56,-17.5,33.06,6.75,-9.88,-4.0,0.3134306258803434,-0.5331759908522603,-1.1034226214603624,-125.57083317422124,-47.94523502960248,21.042478443283557,-0.1039,-0.8893,-0.4063,0.1826
3570571.0,1186.647913,1.0,-4.35,0.49,-8.04,35.56,-17.87,33.19,8.31,-32.56,-8.94,-0.15480483013145063,0.532885969883345,0.6690207665680852,-124.92291073579179,-48.070674990989744,22.174080183171977,-0.1046,-0.8867,-0.4073,0.1923
3570606.0,1186.687626,1.0,-4.31,0.06,-8.34,35.56,-17.87,33.19,12.63,-5.0,-10.19,-0.2729422915137949,0.1322709734744013,0.4235104990078433,-124.55228684017091,-48.25894988610852,22.74654042115177,-0.1021,-0.8852,-0.4088,0.1972
3570640.0,1186.713948,1.0,-4.15,-0.17,-9.45,35.88,-17.87,32.88,4.81,7.69,-11.44,-0.03158204988750857,-0.4263825437140861,-0.5069866282965751,-124.33100356461243,-48.63591649318546,22.68809999960854,-0.0986,-0.8843,-0.4118,0.1967
3570675.0,1186.76903,1.0,-4.36,0.0,-8.25,36.69,-16.37,35.0,3.69,-7.19,-7.5,-0.29366031879899746,0.2492581414014311,0.4833601302111177,-124.06164029835845,-48.862365423932296,22.89851361952645,-0.097,-0.8832,-0.4136,0.1985
3570712.0,1186.783864,1.0,-4.23,0.32,-8.78,37.38,-15.56,34.0,7.94,4.69,-9.69,0.21999546869089226,0.23395483164921194,0.06085259134720822,-123.84213593724546,-49.13941280029733,23.015443848374385,-0.0941,-0.8823,-0.4158,0.1995
3570747.0,1186.825002,1.0,-4.26,-0.81,-9.09,37.38,-15.56,34.0,11.31,-5.44,-12.44,-0.5039321049038761,-0.5105545701162723,-0.2391046488345303,-123.55068352590973,-49.42938107897726,23.284475807440252,-0.0903,-0.8811,-0.4181,0.2018
3570784.0,1186.881918,1.0,-4.41,0.26,-8.63,37.38,-16.0,34.0,-2.31,-15.13,-0.5,0.1695724480314178,0.37889513361565297,0.12056288173645235,-123.26060567533969,-49.49246229674105,23.705831329603118,-0.0912,-0.8799,-0.4186,0.2054
3570819.0,1186.924558,1.0,-4.33,-0.2,-8.76,37.06,-16.0,33.19,15.38,-10.44,-13.31,-0.007559290998194523,-0.00812345449764762,0.03289039242796221,-122.92389068833597,-49.66917497940316,24.197824520118107,-0.0892,-0.8785,-0.42,0.2096
3570853.0,1186.948492,1.0,-4.35,-0.74,-8.88,37.06,-16.0,33.19,10.5,-25.94,-11.0,-0.22652645915033753,-0.4029976528730751,-0.09843852333403547,-122.25585789752888,-49.92184077154633,25.171439536835727,-0.0871,-0.8757,-0.422,0.2179
3570888.0,1186.970536,1.0,-4.54,-1.0,-8.29,37.38,-14.88,34.0,15.19,-39.88,-5.94,-0.4873791102494196,-0.3575802277337734,0.3213825823872334,-121.45404882910115,-49.909201333575915,26.723683975588177,-0.0878,-0.8723,-0.4219,0.2311
3570925.0,1187.01197,1.0,-4.6,-1.44,-7.15,38.88,-14.06,33.06,19.12,-7.44,-3.75,-1.1334611098570972,-0.20958597983366634,1.2610406226940878,-121.15010938852664,-49.89656254432078,27.383706332074254,-0.0858,-0.871,-0.4218,0.2367
3570962.0,1187.041497,1.0,-4.37,-1.77,-7.79,38.88,-14.06,33.06,10.63,12.44,8.94,-1.036369639287971,-0.737778235524712,0.7902471005090863,-121.6183055994286,-49.55555952443805,27.265777919115557,-0.0812,-0.873,-0.4191,0.2357
3570995.0,1187.078633,1.0,-4.28,-2.53,-7.59,39.69,-13.38,31.37,23.69,21.81,32.25,-1.6505353246822279,-1.1690196652156728,0.961508612531107,-122.63671936413527,-48.72395587995984,26.971085309327815,-0.0762,-0.8773,-0.4125,0.2332
3571032.0,1187.125929,1.0,-4.27,-2.95,-6.39,38.56,-12.56,32.69,32.63,55.56,67.75,-2.43820818847738,-1.0157645821203327,2.0098004347363645,-125.37071718924679,-46.46958798664574,26.00575632582789,-0.0654,-0.8885,-0.3945,0.225
3571066.0,1187.150516,1.0,-3.79,-4.44,-3.66,37.38,-13.38,33.5,23.44,151.81,101.69,-4.324131955930928,-1.576606094162894,4.6793216458231965,-129.3510733053071,-43.937396530489515,23.214281072524358,-0.0509,-0.9039,-0.3741,0.2012
3571101.0,1187.186984,1.0,-0.87,-3.03,-3.22,37.38,-13.38,33.5,-112.31,408.5,138.75,-2.1238093904152344,-2.200617892306786,6.497131218478535,-138.19856277995768,-39.98534936807033,10.8450849117299,-0.0381,-0.9342,-0.3419,0.0945
3571138.0,1187.225098,1.0,4.61,2.76,-8.87,32.88,-15.25,37.69,-218.75,440.94,158.88,3.857684168946923,-0.9762270529674293,0.23001940287917222,-143.64697188895283,-34.843138613311,-7.763786880218298,-0.055,-0.9501,-0.2994,-0.0677
3571175.0,1187.262835,1.0,5.55,8.76,-17.93,16.37,-21.56,44.0,-158.19,218.13,105.94,2.7865683159573287,3.274502684680084,-10.455079175678117,-142.9553690729635,-31.031112572318904,-17.590046787082347,-0.0778,-0.9482,-0.2675,-0.1529
3571212.0,1187.28917,1.0,4.15,5.77,-12.77,16.37,-21.56,44.0,21.19,25.75,12.56,1.295026297307506,2.145612259194999,-4.591528875207594,-142.56060519917668,-29.98587744698569,-20.14567756040377,-0.0745,-0.9471,-0.2587,-0.1749
3571247.0,1187.328924,1.0,2.95,2.11,-8.76,2.06,-31.0,40.19,6.13,-23.0,5.5,0.27935775171521615,-0.10344234738567992,0.3301813049995257,-143.06373822672285,-30.128257166842044,-19.28499092759115,-0.0691,-0.9485,-0.2599,-0.1675
3571283.0,1187.370575,1.0,2.58,3.22,-9.32,-1.0,-31.06,41.06,-27.62,-3.75,13.69,0.22594698800828383,0.869440753970796,-0.3461929877519889,-143.42720670361226,-29.357596603435574,-19.343110284151184,-0.0781,-0.9495,-0.2534,-0.168
3571318.0,1187.39551,1.0,2.61,2.49,-10.27,-0.69,-31.5,41.5,7.44,-12.69,-0.69,-0.3923183520568918,0.1302970265081415,-1.070583517559621,-143.64697188895283,-29.17994585204534,-19.12228331882828,-0.0796,-0.9501,-0.2519,-0.1661
3571353.0,1187.4388,1.0,2.82,0.86,-10.68,-0.69,-31.5,41.5,-4.06,-44.19,16.5,-0.8641370133801246,-1.4424740098450273,-1.1444657400982727,-144.53918747848587,-28.931355072204077,-17.891591511712036,-0.0788,-0.9525,-0.2498,-0.1555
3571388.0,1187.473914,1.0,2.81,1.6,-11.47,-0.25,-31.87,42.69,-31.5,-77.69,34.63,-0.53604727350826,-1.113009900747127,-2.046234133467401,-145.95896619488119,-27.808494550687964,-16.350341655632345,-0.0878,-0.9562,-0.2403,-0.1422
3571425.0,1187.520822,1.0,2.25,2.45,-11.68,0.5,-32.06,40.06,-4.69,-165.38,31.87,0.15376412654346883,-0.6689694681508043,-2.3183752141622467,-149.07278485727542,-25.841133562817532,-11.662626087112967,-0.1037,-0.9638,-0.2236,-0.1016
3571460.0,1187.559314,1.0,2.16,2.08,-13.38,0.5,-32.06,40.06,13.56,-233.94,25.94,0.840214478169377,-1.6929938991220363,-3.774373941080807,-151.71920090048613,-24.38536915234885,-5.789336220308419,-0.1122,-0.9697,-0.2112,-0.0505
3571494.0,1187.580257,1.0,0.37,3.55,-8.68,4.25,-32.5,39.75,28.12,-306.25,14.44,2.057032477084056,0.7782359979507384,0.6827930239336233,-152.91671705681662,-22.2091125181558,5.192774664418371,-0.1251,-0.9722,-0.1926,0.0453
3571529.0,1187.620899,1.0,-2.24,2.31,-6.36,11.75,-31.75,38.56,63.56,-225.31,-8.56,0.1729674665480112,1.0093366302023874,2.7529543854694385,-150.56941987552764,-20.949244597725627,14.823619947246293,-0.1218,-0.9672,-0.1818,0.129
3571566.0,1187.653969,1.0,-3.82,1.51,-5.96,20.37,-30.56,38.06,22.69,-193.25,7.5,-0.9691655869552966,0.7024610416723308,2.6679269664320078,-147.6436957459843,-20.064212846329454,20.69292362085707,-0.1229,-0.9604,-0.1742,0.1796
3571601.0,1187.701925,1.0,-4.81,1.85,-5.59,20.37,-30.56,38.06,0.0,-101.81,5.31,-1.3000363157333752,1.153224322334556,2.4048475681493366,-144.61452078820065,-19.16876722159467,25.288865851045276,-0.1294,-0.9527,-0.1665,0.2189
3571638.0,1187.710546,1.0,-5.21,2.15,-5.93,26.37,-29.5,34.0,-7.5,-54.81,8.56,-1.1867417350455707,1.2770905110579958,1.8133913478064763,-143.24503868567004,-18.715683728517142,27.088940429595656,-0.1342,-0.949,-0.1626,0.2342
3571675.0,1187.760844,1.0,-5.16,2.04,-6.31,28.19,-28.75,33.19,-10.13,10.0,4.81,-0.9947029202364557,0.956680312080018,1.5181863980438752,-142.88329260111252,-18.49505809550988,27.47807034873948,-0.1381,-0.948,-0.1607,0.2375
3571709.0,1187.787351,1.0,-4.96,2.23,-6.83,28.19,-28.75,33.19,-8.06,28.31,4.13,-0.6477431446275195,0.9041524223161574,1.147184819296987,-143.3178010626215,-18.51827857520288,26.794357072369408,-0.1395,-0.9492,-0.1609,0.2317
3571744.0,1187.829277,1.0,-4.65,1.74,-8.4,28.87,-29.06,31.87,-10.13,31.0,0.63,-0.17755908442576773,-0.11523497824964474,0.05137995395177697,-144.1648201843402,-18.77375470755973,25.39457261600438,-0.1406,-0.9515,-0.1631,0.2198
3571779.0,1187.856114,1.0,-4.67,1.82,-7.2,26.25,-30.25,32.69,-8.06,45.88,1.25,-0.771926480169596,0.3970828448239375,1.076944694346233,-144.99354106549774,-18.669230437467,24.338476796753636,-0.1406,-0.9537,-0.1622,0.2108
3571816.0,1187.893511,1.0,-4.46,1.75,-6.87,27.37,-28.75,32.56,-23.31,106.75,4.38,-1.1688484032521815,0.48432026600300315,1.5271435358347833,-146.7909464272676,-19.192010366536692,21.15904057291141,-0.142,-0.9583,-0.1667,0.1836
3571849.0,1187.934966,1.0,-3.1,1.75,-5.27,27.37,-28.75,32.56,-42.69,189.0,17.94,-1.1767118797316942,0.7838221185078316,3.6061361472103624,-150.12163073433226,-19.8664125287693,14.2344732300193,-0.1457,-0.9662,-0.1725,0.1239
3571888.0,1187.963976,1.0,0.15,3.11,-6.68,24.75,-31.0,33.75,-86.69,316.44,11.81,1.5453933396992503,0.5971134261004434,2.6252702591713772,-151.86026450485573,-20.9608980601766,5.617235753841245,-0.1536,-0.97,-0.1819,0.049
3571924.0,1188.020684,1.0,1.83,3.33,-8.07,17.19,-33.25,37.25,-57.13,364.06,11.06,1.268330566302435,0.025104836252135,0.9775273186811084,-150.03285782765784,-22.594607753630356,-8.142851840335263,-0.153,-0.966,-0.1959,-0.071
3571959.0,1188.037228,1.0,4.59,4.73,-11.85,17.19,-33.25,37.25,14.06,349.13,-15.19,1.3566201633213062,-0.2605828379934407,-3.6824262588478724,-145.37657897397716,-24.26814601866472,-18.28610812832939,-0.1387,-0.9547,-0.2102,-0.1589
3571994.0,1188.080438,1.0,5.45,3.02,-14.13,5.19,-35.88,38.06,54.75,174.5,-37.75,-1.4202853969763027,-1.312990728099403,-5.514532876627404,-139.46977154097462,-27.06536707365855,-26.876822143927065,-0.106,-0.9381,-0.234,-0.2324
3572029.0,1188.122838,1.0,4.75,1.43,-11.11,-4.19,-35.88,38.5,11.69,32.75,-17.62,-1.4647801015662807,-1.8172123290943942,-2.1345249256529524,-137.75115489107054,-28.18641141984425,-28.647421502753197,-0.0967,-0.9328,-0.2435,-0.2474
3572066.0,1188.150516,1.0,4.28,2.77,-8.88,-7.19,-34.75,37.25,-20.25,6.31,5.88,-0.22759077697765617,-0.3569309672228681,-0.4240148231125289,-137.46590815068691,-28.044656157547973,-29.002366759572602,-0.1011,-0.9319,-0.2423,-0.2504
3572101.0,1188.206922,1.0,4.28,2.84,-9.3,-7.19,-34.75,37.25,-11.5,5.38,4.0,-0.49340987775465983,-0.3623482792969803,-0.799916382059024,-137.30822333899698,-27.761276718209416,-29.333905677818493,-0.1042,-0.9314,-0.2399,-0.2532
3572137.0,1188.209914,1.0,4.08,3.21,-9.3,-7.25,-35.06,36.88,-17.81,-17.81,8.31,-0.4683447659108877,-0.007286622881226279,-0.8338904038221155,-137.655868969081,-27.371912162371505,-29.03787686998247,-0.1076,-0.9325,-0.2366,-0.2507
3572172.0,1188.255227,1.0,4.11,3.71,-9.14,-8.0,-35.06,37.25,2.63,-13.38,0.25,-0.082658954824252,0.3718905089977991,-0.87280059197826,-138.1023056498993,-27.20682475697043,-28.48187662578674,-0.1095,-0.9339,-0.2352,-0.246
3572207.0,1188.287908,1.0,4.1,2.92,-10.87,-8.0,-35.06,37.25,16.62,-66.0,-9.75,-0.9882413397785355,-0.5110932018085725,-2.120439451891343,-138.9763854221543,-27.43088596976693,-27.077153605664897,-0.1086,-0.9366,-0.2371,-0.2341
3572240.0,1188.332601,1.0,3.02,3.04,-8.31,-7.25,-35.88,38.06,26.0,-113.0,-4.75,0.11690672796590906,0.19556435735450373,0.4596618541270825,-141.67799864882883,-27.395500797517954,-22.921897728102717,-0.1101,-0.9446,-0.2368,-0.1987
3572277.0,1188.357311,1.0,1.96,2.4,-6.69,-5.75,-35.88,37.69,25.19,-77.37,1.12,0.03531970459691225,0.2950567920455612,2.439873635270649,-143.53692935464713,-27.242195772473625,-20.180594156388953,-0.1088,-0.9498,-0.2355,-0.1752
3572314.0,1188.399502,1.0,1.7,0.92,-6.35,-1.69,-34.75,38.88,16.62,-31.06,10.56,-0.46534378923592357,-0.8235921840367022,3.2367146066941253,-144.841458151918,-26.80613693045263,-18.587944621042265,-0.1065,-0.9533,-0.2318,-0.1615
3572348.0,1188.440555,1.0,1.12,2.17,-7.45,-1.69,-34.75,38.88,-30.19,37.13,39.88,-0.9524557596140559,0.38268566465166204,2.0341227592598194,-145.22287322309495,-25.688318141008548,-19.250121718432275,-0.1096,-0.9543,-0.2223,-0.1672
3572385.0,1188.46943,1.0,1.14,1.39,-6.72,-1.25,-34.75,39.88,19.62,54.81,38.0,-1.1968953796306432,-0.06515740087642491,2.9544024881736908,-145.22287322309495,-24.350199497398,-21.310604474849132,-0.1032,-0.9543,-0.2109,-0.1849
3572420.0,1188.509677,1.0,2.24,1.58,-5.88,-3.19,-34.38,39.75,5.5,100.44,47.56,-0.10892502854951669,-0.09272643309082623,3.3206699547977525,-144.65224571956077,-23.42489188862897,-23.705831329603118,-0.0939,-0.9528,-0.203,-0.2054
3572455.0,1188.539827,1.0,3.44,0.51,-7.01,-3.19,-34.38,39.75,-4.06,136.31,59.25,-0.5718932575439761,-1.304984569427954,2.112252468319519,-142.3824879692619,-21.893896745024186,-28.71838798339577,-0.0798,-0.9466,-0.1899,-0.248
3572490.0,1188.595897,1.0,4.06,2.01,-8.13,-7.69,-35.5,39.88,-24.0,147.0,55.75,-1.0705192010290736,0.10598026768403673,0.5620106439683301,-138.81318085103794,-19.936217546906203,-34.61501807279963,-0.0728,-0.9361,-0.1731,-0.2975
3572527.0,1188.615086,1.0,6.64,1.66,-7.28,-14.38,-34.0,37.69,0.19,122.75,59.0,0.708141764861689,-0.7899643496176669,-0.12904783997036162,-136.46613430112782,-18.460228812044043,-38.30698746477587,-0.0637,-0.9287,-0.1604,-0.3281
3572561.0,1188.64592,1.0,8.05,3.27,-8.39,-14.38,-34.0,37.69,-15.5,122.81,56.44,0.467145381571374,0.7199761296706895,-2.2412091278774913,-133.06899702903368,-16.29245975343786,-43.184649743140426,-0.0554,-0.9173,-0.1417,-0.368
3572596.0,1188.671536,1.0,9.16,2.64,-8.7,-20.75,-34.38,36.88,-7.75,88.25,30.06,0.2633035367659522,0.04237429566260986,-3.096608335265307,-130.76254599505174,-15.470980940849387,-46.04592388413567,-0.0506,-0.9091,-0.1346,-0.3911
3572633.0,1188.713861,1.0,9.67,3.23,-8.5,-25.19,-34.38,33.88,-9.69,61.19,24.69,0.26613793302471755,0.694730547626466,-3.4462108257538144,-128.63250588646886,-14.396161454029988,-48.686220967347204,-0.0478,-0.9012,-0.1253,-0.4122
3572668.0,1188.757791,1.0,9.42,3.44,-8.43,-27.06,-34.38,32.19,-8.06,34.38,5.88,-0.07526485569251307,1.02467648645767,-3.2539500359707176,-127.58485235552222,-14.038175786909193,-49.89656254432078,-0.0477,-0.8972,-0.1222,-0.4218
3572703.0,1188.786915,1.0,8.76,2.6,-8.34,-27.06,-34.38,32.19,-7.75,11.38,-6.31,-0.7020914336866548,0.3467009066829402,-2.5400121440796344,-126.93984342653314,-14.08435967436596,-50.516630801705745,-0.0497,-0.8947,-0.1226,-0.4267
3572740.0,1188.852027,1.0,7.41,2.17,-6.83,-28.87,-33.56,31.37,-9.81,-9.75,-3.5,-0.39756582559434595,0.2045252627070268,-0.4921854114061901,-127.0939797692167,-14.095906005216998,-50.31398649954689,-0.0525,-0.8953,-0.1227,-0.4251
3572776.0,1188.856,1.0,7.03,2.06,-6.22,-28.19,-34.75,32.19,-6.5,-4.31,-0.31,-0.14383296831692194,0.1448295866192898,0.19877632951156876,-127.22274573469288,-14.25756979612918,-50.08621261381582,-0.0544,-0.8958,-0.1241,-0.4233
3572809.0,1188.898922,1.0,6.86,1.89,-6.46,-28.19,-34.75,32.19,-3.69,-0.5,-1.63,-0.4671577853180313,0.0032942799214242258,0.20742853410305884,-127.22274573469288,-14.211377245158012,-50.08621261381582,-0.056,-0.8958,-0.1237,-0.4233
3572844.0,1188.940572,1.0,7.0,2.03,-6.64,-30.25,-35.06,30.37,-3.13,-2.63,2.44,-0.48635984592240655,0.08805102364383116,-0.0404917740128834,-127.32596885361228,-14.003539375629764,-49.997691036603335,-0.0574,-0.8962,-0.1219,-0.4226
3572879.0,1188.963512,1.0,6.96,2.6,-6.16,-30.0,-35.06,31.75,-8.13,-3.13,2.88,-0.03448966821640598,0.6382169187055103,0.17655708105760937,-127.45526250130641,-13.830376539145913,-49.909201333575915,-0.0586,-0.8967,-0.1204,-0.4219
3572916.0,1189.003637,1.0,6.97,2.4,-6.24,-28.5,-34.75,31.75,-0.44,4.19,-3.69,-0.1286629338960794,0.4325736090139321,0.15912047570073895,-127.40350962041992,-13.876550175976098,-49.934480858485706,-0.059,-0.8965,-0.1208,-0.4221
3572951.0,1189.029568,1.0,7.1,1.86,-6.41,-28.5,-34.75,31.75,5.25,2.44,-4.75,-0.27758402275557215,-0.1302785758879696,0.0668515111720378,-127.30014547607834,-14.095906005216998,-49.98504770101026,-0.0586,-0.8961,-0.1227,-0.4225
3572987.0,1189.088717,1.0,7.01,2.17,-6.56,-28.06,-35.06,30.5,-1.37,1.25,-3.06,-0.4054261045467351,0.17867832703190778,-0.026269389947275457,-127.22274573469288,-14.176734355559054,-50.03562494735927,-0.0591,-0.8958,-0.1234,-0.4229
3573020.0,1189.102855,1.0,6.93,1.85,-6.23,-28.75,-35.5,30.5,3.0,0.63,-5.25,-0.24493893707490022,-0.12240758968863208,0.3100547522761463,-127.22274573469288,-14.338412369029564,-49.9724050156561,-0.0593,-0.8958,-0.1248,-0.4224
3573055.0,1189.148592,1.0,7.12,2.04,-6.67,-28.75,-35.5,30.5,1.25,2.88,-2.19,-0.43925831591931175,0.0006426004761345694,-0.15085730448943302,-127.17120439382435,-14.45391421483677,-49.997691036603335,-0.0593,-0.8956,-0.1258,-0.4226
3573090.0,1189.172299,1.0,7.18,2.26,-6.64,-27.69,-35.06,29.69,-2.0,0.12,0.06,-0.3369542567038959,0.18815110691636083,-0.22333808522997423,-127.19696922706022,-14.4770163518288,-49.9724050156561,-0.0596,-0.8957,-0.126,-0.4224
3573127.0,1189.208527,1.0,7.12,1.98,-6.38,-28.75,-34.75,30.06,-0.31,-1.25,-0.81,-0.20626386260095453,-0.06766346778845878,0.04590838503488648,-127.24853393391233,-14.500119080393963,-49.87128691094202,-0.0596,-0.8959,-0.1262,-0.4216
