TIME,ELAPSED_SECONDS,PSTATE,acc_x,acc_y,acc_z,mag_x,mag_y,mag_z,gyr_x,gyr_y,gyr_z,lin_x,lin_y,lin_z,eul_x,eul_y,eul_z,qua_w,qua_x,qua_y,qua_z
1533175.0,436.929771,1.0,-3.59,1.39,-9.06,28.19,-25.69,32.56,-2.31,11.81,-0.25,-0.10997862870332731,-0.4570857493431638,-0.02609007176920919,-139.5691405181039,-31.376141122007805,18.35575126897081,-0.1447,-0.9384,-0.2704,0.1595
1533208.0,436.974764,1.0,-3.66,1.78,-8.8,28.19,-25.69,32.56,-8.5,8.94,1.19,-0.07211946700944116,-0.02491830822787916,0.11138425529792784,-139.63551670559374,-31.399946914402907,17.996001378555594,-0.1462,-0.9386,-0.2706,0.1564
1533243.0,436.998481,1.0,-3.61,1.65,-9.15,27.37,-26.5,32.06,-1.94,11.5,-3.44,-0.07798977966564213,-0.2628640250328913,-0.16340115827452806,-139.66874405322235,-31.518996754873605,17.682816604505923,-0.1463,-0.9387,-0.2716,0.1537
1533280.0,437.044795,1.0,-3.56,1.45,-8.99,27.37,-27.56,32.06,-1.63,16.87,-1.37,-0.2555028365090255,-0.3341558031996534,0.03837184058398613,-139.83527593342117,-31.709549187482548,17.161136490218524,-0.1449,-0.9392,-0.2732,0.1492
1533315.0,437.077822,1.0,-3.5,1.7,-8.58,27.37,-27.56,32.06,-5.38,21.56,0.19,-0.23126906644850753,0.017307105104298337,0.3884434253374458,-140.00247242955643,-31.828690136705813,16.616652750638245,-0.1447,-0.9397,-0.2742,0.1445
1533349.0,437.106835,1.0,-3.12,1.71,-9.63,26.69,-26.75,31.69,-4.81,29.12,0.44,0.09853475239374898,-0.4351881701793744,-0.4498748578213192,-140.40650617828152,-32.01938920775377,15.470980940849387,-0.1434,-0.9409,-0.2758,0.1346
1533384.0,437.153285,1.0,-3.01,2.16,-9.76,26.69,-27.19,33.88,-4.19,-11.63,0.44,0.4602274313659258,-0.19983353556712402,-0.620792508567531,-140.305127821115,-32.031310917714855,15.505674829864251,-0.1448,-0.9406,-0.2759,0.1349
1533421.0,437.184907,1.0,-3.33,1.04,-8.95,25.19,-27.19,34.19,8.13,-9.19,-5.69,-0.4833094099249622,-0.6723163964662603,0.23651924450242312,-140.1031128223946,-32.07900131942766,15.979969398223387,-0.1438,-0.94,-0.2763,0.139
1533456.0,437.226782,1.0,-3.52,1.79,-8.59,25.19,-27.19,34.19,-3.31,-8.75,2.94,-0.2454854727360598,0.11256769466768507,0.35627088608119806,-140.00247242955643,-31.99554685526558,16.269308165184984,-0.1449,-0.9397,-0.2756,0.1415
1533493.0,437.250714,1.0,-3.14,1.96,-10.62,25.87,-26.5,33.0,-0.31,-12.88,-0.88,0.5529655267160689,-0.6673130284127328,-1.4064906148489094,-139.93551354464947,-31.983626212416752,16.396650200988272,-0.1457,-0.9395,-0.2755,0.1426
1533528.0,437.295431,1.0,-3.64,1.78,-8.55,26.69,-26.5,34.19,10.88,-32.75,-6.5,-0.15023181372739924,0.09731395382965857,0.3468159424420012,-139.37063539830646,-31.983626212416752,17.601642377536205,-0.1456,-0.9378,-0.2755,0.153
1533562.0,437.318425,1.0,-3.7,0.82,-8.25,26.69,-26.5,34.19,10.25,-6.88,-5.63,-0.706868858888734,-0.514123590377453,0.7700071858709219,-139.2059212883253,-32.09092481112806,18.112030016161896,-0.1428,-0.9373,-0.2764,0.1574
1533597.0,437.357409,1.0,-3.46,1.76,-9.58,26.69,-25.69,32.06,-7.81,0.81,2.94,0.292296589043354,-0.3686670668567357,-0.5192517668118892,-139.1073977684417,-32.10284865965952,18.100426311736804,-0.1442,-0.937,-0.2765,0.1573
1533632.0,437.39882,1.0,-3.83,1.74,-7.55,27.75,-26.5,33.38,4.13,-14.69,-8.94,-0.39385568073813637,0.4857280339806424,1.1864443191733738,-138.84577222800962,-32.17439925332779,18.506668239532367,-0.145,-0.9362,-0.2771,0.1608
1533669.0,437.423438,1.0,-3.73,-0.37,-6.64,27.75,-26.5,33.38,37.44,7.5,-5.19,-1.6328323502872708,-0.8177839226780417,2.403644666240968,-138.74807199122864,-32.592035674709635,18.820214993044136,-0.137,-0.9359,-0.2806,0.1635
1533704.0,437.471797,1.0,-3.68,-2.53,-5.07,27.75,-26.5,33.38,-21.37,16.75,89.56,-3.214029252999181,-2.0993071617511534,4.246872540291218,-140.23768007093892,-31.161951340157955,18.204866404535082,-0.1361,-0.9404,-0.2686,0.1582
1533741.0,437.523479,1.0,-2.21,3.13,-4.5,27.75,-25.25,33.38,-137.75,146.19,176.31,0.1519948271577718,1.785786618508135,4.1746997404829145,-144.1275913572786,-26.57059440264536,12.66521907501552,-0.1729,-0.9514,-0.2298,0.1103
1533777.0,437.547413,1.0,0.38,6.25,-6.2,21.37,-30.19,31.69,-110.25,268.31,155.38,2.856889936019122,2.718353193198608,1.9265715860183459,-147.15377378773437,-23.284475807440252,4.607822312445006,-0.1942,-0.9592,-0.2018,0.0402
1533812.0,437.573505,1.0,2.2,6.99,-10.97,21.37,-30.19,31.69,43.44,330.13,41.0,2.252854414953119,1.7510482971910053,-3.0735470810205694,-148.73080219796103,-22.255825568870375,-7.867159619602529,-0.1755,-0.963,-0.193,-0.0686
1533845.0,437.610173,1.0,3.76,3.15,-12.76,10.88,-36.25,33.38,73.75,264.56,-15.5,-0.08913508720945962,-1.3781140368158384,-3.7937381061445965,-145.7248595525418,-24.50261820231894,-17.694413651857154,-0.1346,-0.9556,-0.2122,-0.1538
1533884.0,437.636794,1.0,3.98,5.01,-10.93,0.69,-35.69,36.0,-24.0,98.37,3.56,0.6569038158401259,0.7564376571431305,-2.8187877923139943,-143.42720670361226,-25.030563401978768,-21.555518290407996,-0.1288,-0.9495,-0.2167,-0.187
1533919.0,437.676805,1.0,3.84,5.62,-9.2,-2.88,-35.25,36.75,-9.63,45.06,-11.44,1.1011269607282086,1.6469446264117762,-1.4647781621226148,-141.7129266019107,-25.488552629562964,-23.62387580431868,-0.1301,-0.9447,-0.2206,-0.2047
1533954.0,437.726411,1.0,4.14,4.73,-9.86,-2.88,-35.25,36.75,16.06,49.56,-50.25,0.5779631948000756,0.6727968045879159,-1.8529127278724662,-140.17034192327273,-26.935734446758044,-24.725463298356363,-0.1262,-0.9402,-0.2329,-0.2141
1533990.0,437.746805,1.0,4.33,3.86,-10.35,-4.38,-34.88,36.38,10.31,19.75,-64.69,0.025492157738773447,-0.2809275393311098,-2.05469182407451,-137.7829624670443,-29.55902139879445,-25.641307370957353,-0.1239,-0.9329,-0.2551,-0.2219
1534027.0,437.798346,1.0,4.3,3.4,-11.5,-4.0,-35.56,35.88,-4.44,-44.94,-58.0,-0.6302227194248771,-1.0019276509067727,-2.8779453938731994,-136.77619735313192,-31.209539394286914,-24.97187636961762,-0.1284,-0.9297,-0.269,-0.2162
1534062.0,437.823493,1.0,2.22,2.12,-8.16,-4.0,-35.56,35.88,16.12,-118.37,-39.75,-0.669247016092734,-0.8855217614560149,1.1593174840481133,-137.655868969081,-32.412994497933816,-20.832722001771078,-0.141,-0.9325,-0.2791,-0.1808
1534095.0,437.859886,1.0,1.79,2.04,-9.4,-1.0,-35.56,36.25,2.88,-73.87,-21.44,-1.0613195122871817,-1.2094796765289846,0.15592672115183603,-138.5209607780903,-32.8547775548023,-17.520477052231197,-0.1487,-0.9352,-0.2828,-0.1523
1534132.0,437.903512,1.0,1.33,2.52,-8.84,3.06,-35.25,36.75,-15.25,-82.5,-10.44,-0.7247083973931208,-0.7185667029697688,0.5750001132175182,-138.9763854221543,-32.75921457984873,-15.470980940849387,-0.1584,-0.9366,-0.282,-0.1346
1534169.0,437.939446,1.0,0.9,2.57,-7.56,3.06,-35.25,36.75,-9.38,-50.0,-2.38,-0.3869274131124094,-0.3595508785885452,1.788576020378187,-139.46977154097462,-32.49653690025889,-13.461068017168213,-0.1672,-0.9381,-0.2798,-0.1172
1534203.0,437.964471,1.0,0.99,3.29,-8.0,5.25,-34.88,35.88,-3.25,7.13,1.06,-0.10214757337293784,0.017588170130631353,1.1007062527934135,-139.43670037409964,-32.42492804195051,-13.39183842112712,-0.1689,-0.938,-0.2792,-0.1166
1534238.0,438.002567,1.0,1.3,3.57,-8.65,8.0,-35.69,34.69,-0.63,27.81,-0.56,-0.02922655812436914,-0.029731916094215105,0.359128535538245,-139.14021367291954,-32.58009705689327,-14.211377245158012,-0.1667,-0.9371,-0.2805,-0.1237
1534275.0,438.0527,1.0,1.51,3.55,-9.22,7.56,-36.0,35.88,-4.19,8.06,3.25,-0.12386351092456738,-0.2703158128990451,-0.18347448330641214,-138.9763854221543,-32.61591400140699,-14.661854827129085,-0.166,-0.9366,-0.2808,-0.1276
1534308.0,438.061472,1.0,1.49,3.69,-8.83,7.56,-36.0,35.88,-0.75,6.69,5.25,0.011603220538627723,-0.03873001603327958,0.1214310891476913,-139.04184146178912,-32.44879621422149,-14.927627478593793,-0.166,-0.9368,-0.2794,-0.1299
1534345.0,438.111021,1.0,1.54,4.06,-9.21,6.75,-35.69,35.5,2.44,8.31,-0.5,0.06330244474356672,0.15295788198699384,-0.3743075525501318,-138.94369485234358,-32.436861947325646,-15.170359975770202,-0.1656,-0.9365,-0.2793,-0.132
1534380.0,438.172455,1.0,1.64,3.7,-9.28,6.75,-36.0,34.19,3.56,9.06,-0.81,-0.09030083869514383,-0.15075428984116873,-0.3159543537533107,-138.84577222800962,-32.58009705689327,-15.494110041456644,-0.1634,-0.9362,-0.2805,-0.1348
1534414.0,438.181472,1.0,1.5,3.62,-9.19,6.75,-36.0,34.19,-8.31,-0.81,6.13,-0.22726128552799962,-0.1147442484048049,-0.180626208534445,-138.87838831455554,-32.44879621422149,-15.563501157916,-0.1638,-0.9363,-0.2794,-0.1354
1534447.0,438.216711,1.0,1.66,3.87,-9.33,6.06,-35.25,35.06,3.19,2.5,-0.25,-0.03981622130128426,-0.037433180243248265,-0.4294827377842356,-138.91102916961097,-32.401061315113324,-15.632898017228824,-0.1639,-0.9364,-0.279,-0.136
1534484.0,438.244979,1.0,1.47,3.77,-8.93,6.06,-36.0,35.88,-1.44,-6.06,1.63,-0.08968005001593538,0.06477146079710111,0.0032596606074388745,-138.94369485234358,-32.353332192550205,-15.517239777173632,-0.1647,-0.9365,-0.2786,-0.135
1534519.0,438.284698,1.0,1.44,3.75,-9.0,6.5,-35.69,35.88,2.0,-0.88,-1.06,-0.1284950623172163,0.05379585194007419,-0.0481303133948181,-138.9763854221543,-32.401061315113324,-15.424724640986323,-0.1642,-0.9366,-0.279,-0.1342
1534554.0,438.308855,1.0,1.38,3.63,-8.85,6.5,-35.69,35.88,2.06,1.12,-0.94,-0.17463028692389626,0.030757281989093166,0.1437126488373881,-138.9763854221543,-32.44879621422149,-15.390034075857239,-0.1639,-0.9366,-0.2794,-0.1339
1534590.0,438.356466,1.0,1.46,3.81,-9.0,6.06,-35.69,35.38,0.94,0.12,-1.25,-0.07261590803402396,0.09726851497068612,-0.0742895183806187,-138.94369485234358,-32.48460118565665,-15.390034075857239,-0.1636,-0.9365,-0.2797,-0.1339
1534625.0,438.381473,1.0,1.44,3.61,-8.63,7.19,-36.0,35.06,1.37,4.44,-2.69,-0.05982346464075594,0.04370054805746826,0.34213144831561415,-138.84577222800962,-32.61591400140699,-15.436288478593854,-0.1631,-0.9362,-0.2808,-0.1343
1534658.0,438.41995,1.0,1.7,3.58,-9.24,7.19,-36.0,35.06,2.5,7.0,-3.19,-0.09744481703192698,-0.24315366543551425,-0.24399081552111035,-138.68306126823978,-32.78310312481338,-15.632898017228824,-0.162,-0.9357,-0.2822,-0.136
1534695.0,438.453481,1.0,1.58,3.4,-9.22,5.25,-35.69,33.88,-3.31,-5.75,1.63,-0.26711168320703815,-0.3242939118092669,-0.13760888678778294,-138.84577222800962,-32.61591400140699,-15.551935573755918,-0.1627,-0.9362,-0.2808,-0.1353
1534730.0,438.490048,1.0,1.55,3.82,-8.76,6.5,-36.38,35.5,0.44,-1.12,0.25,0.08059949973853264,0.10703918869495954,0.1260226271111211,-138.91102916961097,-32.49653690025889,-15.424724640986323,-0.1638,-0.9364,-0.2798,-0.1342
1534765.0,438.537469,1.0,1.63,3.65,-9.14,6.5,-36.38,35.5,4.38,2.06,-5.13,-0.06288647591318997,-0.15211722677454104,-0.1679129297962536,-138.84577222800962,-32.61591400140699,-15.436288478593854,-0.1632,-0.9362,-0.2808,-0.1343
1534799.0,438.568481,1.0,1.52,3.36,-9.1,6.06,-35.25,36.69,2.13,-0.19,-2.75,-0.2627565226889217,-0.30014994843034676,-0.004102724344940967,-138.7806141249359,-32.78310312481338,-15.390034075857239,-0.1624,-0.936,-0.2822,-0.1339
1534834.0,438.605457,1.0,1.5,3.79,-8.8,6.06,-35.69,35.06,0.0,2.13,0.31,0.02634155749058964,0.11482822202874693,0.10921628783807336,-138.7806141249359,-32.75921457984873,-15.413160961410524,-0.1627,-0.936,-0.282,-0.1341
1534871.0,438.63144,1.0,1.52,3.68,-9.03,6.5,-35.25,35.88,5.13,2.63,-2.75,-0.09236978927099182,-0.01189296391558392,-0.06173519614224077,-138.68306126823978,-32.902567850463264,-15.494110041456644,-0.1614,-0.9357,-0.2832,-0.1348
