TIME,ELAPSED_SECONDS,PSTATE,acc_x,acc_y,acc_z,mag_x,mag_y,mag_z,gyr_x,gyr_y,gyr_z,lin_x,lin_y,lin_z,eul_x,eul_y,eul_z,qua_w,qua_x,qua_y,qua_z
3567863.0,38.514845,1.0,-3.54,2.06,-8.67,19.69,-24.19,33.75,-1.12,0.75,0.44,-0.16232547148574938,0.02564856257470291,0.21930977486222503,-149.1588584140195,-18.378967167629526,18.42540124877966,-0.1398,-0.964,-0.1597,0.1601
3567898.0,38.551653,1.0,-3.4,1.99,-8.99,18.87,-24.19,35.0,1.37,1.56,-0.37,0.01809598544187896,-0.17123659065270527,-0.0071438925439313294,-149.24516700325162,-18.28610812832939,18.40218382722317,-0.1394,-0.9642,-0.1589,0.1599
3567931.0,38.58592,1.0,-3.43,2.14,-8.96,18.87,-24.19,35.0,-2.75,1.12,2.19,0.023394556546373124,-0.027668866909009077,-0.023140797800735413,-149.288410054367,-18.25128911402984,18.3441436046709,-0.14,-0.9643,-0.1586,0.1594
3567968.0,38.617737,1.0,-3.46,2.2,-8.91,19.25,-24.19,32.5,-2.06,2.06,0.37,-0.003478076612033032,0.0416759738481145,-0.0014054146164390602,-149.288410054367,-18.228077382152183,18.30932175034793,-0.1405,-0.9643,-0.1584,0.1591
3568005.0,38.670145,1.0,-3.33,0.41,-8.31,19.69,-24.56,32.88,-24.81,2.75,26.69,-0.7046299450841003,-1.4872112096444354,0.9972913707694531,-149.4184972482763,-17.868391355752117,18.146842253651588,-0.1435,-0.9646,-0.1553,0.1577
3568039.0,38.687065,1.0,-3.47,4.02,-9.0,19.69,-24.56,32.88,-40.19,-3.69,31.44,0.5077571758782595,1.3389726851940285,-0.5447090797850525,-149.07278485727542,-17.03366959473287,18.077219464225532,-0.1562,-0.9638,-0.1481,0.1571
3568072.0,38.732652,1.0,-3.37,2.5,-9.12,18.56,-24.19,31.69,-2.69,4.44,5.69,0.06132635506558093,-0.15213838126917986,-0.23099877803159252,-149.33171261025754,-16.63981448789728,17.833592505981912,-0.1585,-0.9644,-0.1447,0.155
3568109.0,38.79504,1.0,-3.26,2.5,-9.0,17.75,-26.5,31.19,7.13,0.63,-2.06,0.11959214754560521,-0.12492837134149531,-0.08514915992431504,-149.37507492345586,-16.59349169701811,17.763999776816537,-0.158,-0.9645,-0.1443,0.1544
3568146.0,38.802986,1.0,-3.39,2.23,-8.62,18.56,-25.69,31.69,-6.0,2.0,5.0,-0.18529160700895742,-0.19361597233154967,0.28312229879441375,-149.46197984083236,-16.59349169701811,17.740803669389525,-0.1573,-0.9647,-0.1443,0.1542
3568179.0,38.82975,1.0,-3.31,2.57,-8.89,18.56,-25.69,31.69,-5.0,2.0,7.13,0.02844950944520397,-0.03562556189608124,-0.021423129802805363,-149.54912686270868,-16.38507281218067,17.578451378167774,-0.1593,-0.9649,-0.1425,0.1528
3568216.0,38.867712,1.0,-3.32,2.99,-9.29,17.75,-26.5,30.75,-2.19,-3.94,4.31,0.2487374024395379,0.18192002574197044,-0.4973120927515886,-149.54912686270868,-16.223006993376618,17.590046787082347,-0.1604,-0.9649,-0.1411,0.1529
3568252.0,38.904648,1.0,-3.52,3.35,-9.04,18.19,-26.5,31.25,5.38,-14.31,-3.19,0.20478104744888026,0.6438602610838495,-0.43434646942634103,-149.33171261025754,-16.2114321173387,18.077219464225532,-0.1596,-0.9644,-0.141,0.1571
3568285.0,38.931237,1.0,-3.98,4.44,-8.04,18.19,-26.5,31.25,19.87,-14.56,-23.69,0.009567816862384726,2.1622340806019307,0.0332037174666997,-149.02983560319493,-16.5471716366683,18.70407011512631,-0.1553,-0.9637,-0.1439,0.1625
3568320.0,38.965881,1.0,-3.74,3.61,-7.83,17.75,-26.5,30.75,57.13,7.06,-56.81,0.08337927593154681,1.7842313057350117,0.5796154523254184,-148.98694437514695,-18.228077382152183,19.09904255892851,-0.1371,-0.9636,-0.1584,0.1659
3568357.0,39.005779,1.0,-3.28,2.48,-8.06,18.87,-25.75,31.69,81.81,69.62,-92.81,0.19408303232065283,1.0248921181260218,0.8186397684321474,-149.33171261025754,-20.355205608113067,18.437010245615284,-0.1143,-0.9644,-0.1767,0.1602
3568394.0,39.047618,1.0,-2.8,-0.95,-7.47,18.56,-22.0,35.5,55.06,80.69,-55.5,-1.1004425160070959,-1.4686593968639383,1.9851753407706276,-150.56941987552764,-22.60629344975137,15.922114008308865,-0.0828,-0.9672,-0.196,0.1385
3568429.0,39.079005,1.0,-2.18,-1.08,-8.68,18.56,-22.0,35.5,-15.5,157.06,-7.13,-0.9060568937117711,-1.7653393445731342,1.0132525960463088,-152.23986727877065,-23.471705166170008,11.92758912667584,-0.074,-0.9708,-0.2034,0.1039
3568465.0,39.145671,1.0,0.57,-0.14,-10.55,17.19,-19.06,36.19,-75.5,199.31,33.0,0.8624635642506705,-2.1234682968772614,-0.5080986150898106,-154.42620867150097,-23.541932535122793,4.103254614165427,-0.0787,-0.9752,-0.204,0.0358
3568500.0,39.158219,1.0,0.8,1.6,-10.8,11.5,-20.5,38.25,-111.81,125.25,53.81,0.7868451274494984,-0.8610160387992545,-1.0781800917533566,-154.9492208405226,-22.36094364221954,-0.8250663536663884,-0.0966,-0.9762,-0.1939,-0.0072
3568535.0,39.183445,1.0,1.6,2.58,-12.59,11.5,-20.5,38.25,-104.75,53.06,85.19,0.7034247160361431,-1.0948141008193897,-3.078654643411289,-154.84376268843482,-19.854779083760313,-5.089538374458754,-0.1252,-0.976,-0.1724,-0.0444
3568570.0,39.23165,1.0,0.9,4.22,-10.48,5.5,-24.19,37.88,-85.06,-19.5,80.25,0.46180210880860334,0.5831421534209001,-1.5024385592608027,-155.16145880106285,-16.19985740781584,-5.812283928177061,-0.1542,-0.9766,-0.1409,-0.0507
3568607.0,39.262514,1.0,0.86,4.26,-11.17,2.5,-27.56,35.88,-49.88,-82.62,51.88,0.4652594173098682,0.07384861093111511,-2.1697509642825494,-155.42929332621986,-14.072813487232235,-4.539012581284228,-0.1697,-0.9771,-0.1225,-0.0396
3568644.0,39.304881,1.0,-0.8,8.08,-8.67,2.5,-27.56,35.88,-30.81,-140.44,22.69,0.5560718509700477,4.417227398889829,-1.205805956917862,-155.59138277018496,-12.158043754647917,0.011459155921715059,-0.1832,-0.9774,-0.1059,0.0001
3568676.0,39.329985,1.0,-0.87,3.24,-9.01,3.25,-30.19,32.56,144.19,-131.63,-77.44,0.24898892781322535,0.28798343178812513,0.19989872514948637,-156.98580474112185,-13.149573327758747,4.263789782102698,-0.1592,-0.9799,-0.1145,0.0372
3568713.0,39.385132,1.0,-1.78,1.55,-8.16,6.25,-29.06,34.25,107.44,-126.87,-65.62,-0.09345146531833037,-0.26945821603267806,1.3169409888829335,-156.98580474112185,-15.031647378904806,10.235170717586842,-0.1218,-0.9799,-0.1308,0.0892
3568750.0,39.411572,1.0,-3.0,0.36,-7.17,11.38,-25.25,35.06,55.81,-103.06,-31.69,-1.1990866105208176,-0.6523898259346418,2.146684019952395,-155.59138277018496,-15.7832777083714,13.945814879054648,-0.1056,-0.9774,-0.1373,0.1214
3568785.0,39.44716,1.0,-3.28,0.05,-7.41,11.38,-25.25,35.06,10.0,-26.87,2.75,-1.173049547416322,-0.9083661367925562,1.8399803243554178,-154.42620867150097,-15.806415466969177,16.24615724549883,-0.1006,-0.9752,-0.1375,0.1413
3568820.0,39.488561,1.0,-2.92,-0.08,-7.47,16.25,-22.25,34.56,-44.75,26.94,37.19,-1.0288784958158514,-1.32973986567367,1.964016454405388,-154.73873772257048,-15.089441590206313,15.239724647140953,-0.1135,-0.9758,-0.1313,0.1326
3568857.0,39.504719,1.0,-1.86,1.77,-8.87,15.69,-23.75,33.75,-120.12,74.37,95.19,0.30741261848360457,-0.622318303723746,0.5986308095960471,-155.53723544431477,-13.334150842815472,12.607573156584117,-0.1393,-0.9773,-0.1161,0.1098
3568893.0,39.554488,1.0,-1.72,6.1,-6.17,15.69,-23.75,33.75,-152.75,119.94,104.25,0.13993153757098575,3.4983277597886624,1.6838781793783557,-154.63414056108866,-10.706964767003903,7.3733240323499585,-0.1879,-0.9756,-0.0933,0.0643
3568926.0,39.577101,1.0,0.4,3.67,-9.1,12.69,-26.69,33.38,-75.0,199.75,77.81,0.9059921550829468,-0.40987382953225787,0.03679423551745664,-154.37448496866148,-9.660046657878475,1.3292918974264516,-0.205,-0.9751,-0.0842,0.0116
3568963.0,39.615249,1.0,0.6,5.02,-8.62,6.69,-31.0,30.87,-98.69,192.0,74.81,-0.13752053752410226,0.5671810233831358,-0.16953132295484963,-151.2538864729402,-8.085412120809869,-6.833706733841952,-0.2302,-0.9687,-0.0705,-0.0596
3569000.0,39.656786,1.0,2.32,5.62,-10.18,0.25,-34.0,29.69,-98.25,129.06,52.69,0.32031653038581775,-0.28868479131080355,-2.042960053146368,-147.7673081897566,-7.247016388579905,-11.766299745968878,-0.2501,-0.9607,-0.0632,-0.1025
3569033.0,39.686746,1.0,2.48,5.91,-8.58,0.25,-34.0,29.69,-62.44,80.94,43.25,-0.006809648944116731,0.22964368598468662,-0.9004559304635915,-143.72051272987528,-6.328670789467022,-16.10726571114575,-0.2728,-0.9503,-0.0552,-0.1401
3569070.0,39.730426,1.0,2.76,5.85,-8.14,-5.19,-35.75,26.0,10.38,21.0,17.12,0.13182182113664664,0.31651400927612117,-0.5847956111459389,-142.91931394004666,-5.7319679651977244,-17.381357078894993,-0.2753,-0.9481,-0.05,-0.1511
3569106.0,39.761144,1.0,2.89,5.6,-8.09,-7.06,-36.19,25.56,-11.19,9.56,2.44,0.1712944310479152,0.12766437420379834,-0.44588919892292544,-142.70368938881404,-5.823757869537402,-17.9843995399279,-0.2742,-0.9475,-0.0508,-0.1563
3569141.0,39.803787,1.0,2.6,5.43,-8.02,-7.06,-36.19,25.56,5.25,-11.88,1.88,-0.07753107230672218,0.07294599519435903,-0.2210101365728434,-142.73954322436268,-5.720494487173099,-17.92639313237552,-0.2743,-0.9476,-0.0499,-0.1558
3569174.0,39.828615,1.0,2.72,5.08,-8.18,-8.19,-36.19,23.37,14.5,-3.0,-3.75,0.022036370052817666,-0.26423218698490736,-0.1956945126508245,-143.13615512462272,-5.812283928177061,-17.740803669389525,-0.2712,-0.9487,-0.0507,-0.1542
3569211.0,39.867277,1.0,2.6,5.64,-8.17,-8.0,-36.19,24.69,1.25,-37.63,-5.13,0.15443610282319287,0.2633651899420914,-0.4512878174597805,-143.97904817901195,-5.651654820273722,-16.327188391573927,-0.2701,-0.951,-0.0493,-0.142
3569248.0,39.907026,1.0,2.07,5.18,-7.97,-8.0,-35.75,25.5,-2.5,-12.13,-0.44,-0.19765950863880222,0.07197225877930516,0.08070784961627098,-144.35152835071236,-5.525454047712893,-15.667598608855753,-0.2697,-0.952,-0.0482,-0.1363
3569281.0,39.938231,1.0,2.38,5.1,-8.42,-8.0,-35.75,25.5,9.5,-12.31,-7.06,0.06429070798797931,-0.25290781522640793,-0.31771192270228177,-144.690009668053,-5.617235753841245,-15.147239662385429,-0.2686,-0.9529,-0.049,-0.1318
3569317.0,39.9867,1.0,1.83,5.22,-7.56,-7.56,-35.75,25.37,2.31,-16.75,-5.94,-0.11346285936391143,0.37207413246577414,0.44718489672113826,-145.06982302382067,-5.559871768630059,-14.430812668433537,-0.2684,-0.9539,-0.0485,-0.1256
3569354.0,40.002631,1.0,2.2,5.01,-8.13,-6.5,-36.19,25.37,10.81,3.63,-6.0,0.11344983975964196,-0.10330861049804188,0.00800435558283219,-145.33809060162469,-5.823757869537402,-14.361511562916563,-0.2657,-0.9546,-0.0508,-0.125
3569387.0,40.052712,1.0,2.19,5.35,-8.64,-6.5,-36.19,25.37,-6.44,-15.75,-3.88,0.02329666616356385,-0.07586192774072638,-0.5886326913588622,-145.37657897397716,-5.846705927689754,-14.107452479907948,-0.2662,-0.9547,-0.051,-0.1228
3569422.0,40.08007,1.0,1.82,5.05,-7.81,-6.06,-35.06,26.69,6.75,-14.94,-6.75,-0.013371099190101488,0.14785936392465163,0.3309463943458937,-145.7248595525418,-5.92702598542953,-13.426452603767608,-0.2656,-0.9556,-0.0517,-0.1169
3569457.0,40.118966,1.0,1.84,5.09,-8.12,-6.5,-35.06,25.5,1.31,1.19,-2.81,-0.05030558647692174,0.0324223904316551,0.048344914762711966,-145.8027223342799,-5.938500516393254,-13.311076762780564,-0.2652,-0.9558,-0.0518,-0.1159
3569494.0,40.163062,1.0,1.88,5.07,-8.4,-5.69,-36.19,28.0,6.75,-7.25,-5.31,-0.034461152966655195,-0.10664433029319403,-0.1826812797079942,-146.03734965989693,-6.087674884576737,-13.080365619179066,-0.2639,-0.9564,-0.0531,-0.1139
3569528.0,40.187142,1.0,1.85,5.15,-8.57,-5.69,-36.19,28.0,6.0,-11.13,-7.25,-0.038868912573799874,-0.09878966501590446,-0.3608782055041022,-146.2340808810036,-6.225383461526625,-12.757459245108164,-0.2628,-0.9569,-0.0543,-0.1111
