TIME,ELAPSED_SECONDS,PSTATE,acc_x,acc_y,acc_z,mag_x,mag_y,mag_z,gyr_x,gyr_y,gyr_z,lin_x,lin_y,lin_z,eul_x,eul_y,eul_z,qua_w,qua_x,qua_y,qua_z
4443973.0,289.23147,1.0,-3.82,0.22,-9.15,23.25,-15.75,37.0,-15.13,0.06,18.81,0.14562112984228825,-0.05018862133255414,-0.10998126211881498,-148.51890294966256,-20.54151049721856,22.91020555294516,-0.048,-0.9625,-0.1783,0.1986
4444008.0,289.265391,1.0,-3.69,0.29,-9.95,24.37,-17.25,35.5,-18.69,-0.12,23.44,0.5202169754764152,-0.26474933769630987,-0.7934434942393551,-148.7733502639536,-20.23879269230359,22.73485185773412,-0.0531,-0.9631,-0.1757,0.1971
4444045.0,289.298011,1.0,-3.95,1.05,-8.87,23.69,-17.69,36.25,-11.25,-9.44,12.06,0.1709344250171101,0.5580123203405336,0.05773705174303778,-148.8159549371668,-19.71519382901285,22.886821927709892,-0.0602,-0.9632,-0.1712,0.1984
4444080.0,289.335946,1.0,-3.91,1.27,-8.91,23.69,-17.69,36.25,1.25,-3.06,-1.94,0.31429631190245755,0.7187646307953399,0.025356873125508272,-148.73080219796103,-19.63378275290543,23.015443848374385,-0.0612,-0.963,-0.1705,0.1995
4444114.0,289.382956,1.0,-3.84,0.39,-9.46,22.19,-18.37,36.25,21.87,-5.0,-19.87,0.3350697086214174,-0.1025902299641771,-0.4044470779383076,-148.4345315385202,-20.040939097265657,23.272776070440536,-0.0551,-0.9623,-0.174,0.2017
4444149.0,289.413543,1.0,-4.03,0.21,-8.75,22.19,-18.06,34.5,-7.0,-3.5,2.75,-0.115758699763576,-0.05300391173924257,0.17175038927392805,-148.2664446111409,-20.14567756040377,23.460001474635348,-0.0532,-0.9619,-0.1749,0.2033
4444186.0,289.460299,1.0,-3.83,0.31,-9.14,22.56,-17.25,35.69,5.5,0.44,0.12,0.22263465556618112,-0.10691627608707882,-0.10514109546042505,-148.35037934063973,-20.040939097265657,23.40148673707778,-0.054,-0.9621,-0.174,0.2028
4444221.0,289.468312,1.0,-3.99,0.79,-9.44,22.56,-17.25,35.69,2.81,-4.31,-3.38,0.4018799728550977,0.3575773336968522,-0.4582626122848321,-148.22455825803132,-20.11076285425295,23.56534364989273,-0.0529,-0.9618,-0.1746,0.2042
4444258.0,289.517345,1.0,-3.94,0.31,-9.02,23.0,-17.69,35.25,14.56,-0.31,-14.69,0.1608392182984253,0.04453406772377383,-0.03978323557668517,-147.97436096195162,-20.40177671287519,23.729249451725817,-0.049,-0.9612,-0.1771,0.2056
4444293.0,289.559979,1.0,-3.94,-0.24,-9.05,23.0,-16.56,36.19,11.88,2.94,-8.88,-0.0039094560473766915,-0.3871404012728993,-0.05913973148402896,-147.84997349806363,-20.681275164117206,23.76437852052494,-0.0449,-0.9609,-0.1795,0.2059
4444327.0,289.582915,1.0,-3.94,0.71,-9.73,23.0,-16.56,36.19,6.81,-2.19,-5.88,0.609815836023057,0.4262511507154867,-0.6884457405184872,-147.80861501075395,-20.797769475573418,23.77608871350926,-0.0432,-0.9608,-0.1805,0.206
4444360.0,289.625924,1.0,-4.09,0.87,-9.29,23.25,-17.69,34.88,21.62,-7.69,-25.56,0.4913842156636632,0.8490710324067079,-0.3337010755064327,-147.15377378773437,-21.450543092817842,24.209544126742898,-0.0355,-0.9592,-0.1861,0.2097
4444397.0,289.665951,1.0,-3.99,-0.48,-8.9,23.69,-15.75,36.5,38.63,-9.88,-38.44,0.04952273193663781,-0.1595961122514002,0.04280974219284239,-146.35265556905202,-22.302542365509357,24.690270937756786,-0.0244,-0.9572,-0.1934,0.2138
4444434.0,289.70228,1.0,-4.07,-2.01,-8.02,23.69,-15.75,36.5,27.0,-7.13,-21.06,-0.83852376011795,-1.2445102009098277,0.714154618447747,-145.53094905314887,-23.015443848374385,25.218406831432247,-0.0145,-0.9551,-0.1995,0.2183
4444467.0,289.723247,1.0,-4.33,-4.8,-5.16,24.06,-13.88,36.19,-29.19,34.06,60.75,-3.348839957716862,-3.4926573172671707,3.098362901064906,-146.5113892939378,-22.185757394813148,24.66681067830264,-0.019,-0.9576,-0.1924,0.2136
4444504.0,289.760321,1.0,-4.05,0.68,-1.77,24.06,-13.88,36.19,-135.44,165.31,141.38,-2.9052028631410307,1.5512005382449774,6.781526330768334,-153.11317220133924,-18.576333132780544,18.077219464225532,-0.0574,-0.9726,-0.1614,0.1571
4444540.0,289.802391,1.0,2.36,4.33,-2.38,20.37,-18.75,38.25,-66.56,517.19,110.62,3.6592101809319066,3.1107001574700504,7.176702209248235,-161.07959134463852,-16.30403579859025,5.181303758795193,-0.0697,-0.9864,-0.1418,0.0452
4444575.0,289.828319,1.0,8.11,1.75,-18.3,20.37,-18.75,38.25,102.06,483.0,42.5,2.736129760628481,-0.8568771521132168,-10.0806312490594,-157.44996317553054,-15.1934809103634,-16.223006993376618,-0.0294,-0.9807,-0.1322,-0.1411
4444610.0,289.869972,1.0,6.09,1.42,-16.21,4.19,-22.56,40.25,-41.63,109.94,27.62,-0.594620380948792,0.15798283699723165,-7.556819354532083,-152.62462859250314,-14.54632631618216,-23.003749734381753,-0.0158,-0.9716,-0.1266,-0.1994
4444647.0,289.899077,1.0,4.19,1.93,-9.11,-10.75,-20.69,40.0,-9.25,-4.19,6.88,0.5820600492984451,0.7731345860823158,-0.3588096064720059,-153.01476916887478,-13.668786527863627,-22.921897728102717,-0.0289,-0.9724,-0.119,-0.1987
4444684.0,289.951986,1.0,4.13,2.29,-10.89,-10.75,-20.69,40.0,3.88,-23.69,-1.63,-0.01838294949088226,1.124281407475662,-2.0098111193018617,-153.36074062083046,-13.611082444309167,-22.559552093060898,-0.0285,-0.9731,-0.1185,-0.1956
4444717.0,289.973992,1.0,3.86,1.75,-12.09,-12.25,-22.19,38.56,60.06,-94.81,-27.37,-0.23551153358460253,0.7905388660463064,-2.9780980467476894,-155.05511767406654,-14.557878496401068,-20.00603003933895,-0.0192,-0.9764,-0.1267,-0.1737
4444753.0,290.012331,1.0,2.98,2.12,-8.85,-10.38,-21.37,39.0,106.25,-165.25,-56.63,1.3187141344105093,1.5549029274098656,0.4503382310368558,-158.1040290229696,-16.987323268750952,-13.714952301602874,0.0044,-0.9818,-0.1477,-0.1194
4444788.0,290.067763,1.0,1.53,-3.66,-6.15,-5.88,-19.19,41.88,132.63,-87.19,-70.25,-0.7586103857478403,-3.3742469759923175,3.35700135626426,-157.80436691060555,-19.645412292934687,-9.522053719499677,0.0327,-0.9813,-0.1706,-0.083
4444823.0,290.101657,1.0,2.31,-4.38,-10.81,-5.88,-19.19,41.88,10.31,-7.19,11.94,-0.794886942706578,-3.7002299588889387,-1.4651312700413666,-157.6856148741907,-19.971122857066128,-8.544988083393587,0.0421,-0.9811,-0.1734,-0.0745
4444860.0,290.132545,1.0,3.15,-1.83,-15.79,-1.37,-13.88,44.0,-77.12,-82.12,95.25,0.4853526764270688,-1.6285622551907857,-6.308799660510653,-160.66576217664587,-17.54366623938741,-7.545576216405149,0.0236,-0.9858,-0.1525,-0.0658
4444897.0,290.15801,1.0,2.99,-2.41,-13.91,-0.25,-15.75,41.19,-67.56,-301.56,143.56,2.5613783932966325,-3.152939263374055,-4.040176883002021,-167.233021952493,-12.745928771149693,0.7906880314747026,-0.0044,-0.9938,-0.111,0.0069
4444932.0,290.198673,1.0,-0.94,4.67,-6.38,-0.25,-15.75,41.19,-149.38,-298.0,161.44,0.7574803217992769,4.105132636818589,3.026457554632853,-166.62885834304856,-8.016487142063687,9.349581983346612,-0.0436,-0.9932,-0.0699,0.0815
4444966.0,290.230011,1.0,-2.59,2.94,-7.42,5.25,-18.06,41.19,-47.19,-141.75,78.62,-0.12307957085713839,1.737598600977809,1.5985014559544197,-160.3946831522595,-3.8853982832056504,16.720885966499374,-0.0817,-0.9854,-0.0339,0.1454
4445003.0,290.262922,1.0,-3.08,4.33,-7.52,11.25,-23.25,37.88,-55.56,-85.0,59.0,-0.08224702381473192,2.637583798896508,0.9849672166036108,-156.58711361479934,-1.5928739664684124,20.00603003933895,-0.1041,-0.9792,-0.0139,0.1737
4445040.0,290.329079,1.0,-4.0,5.67,-4.45,14.69,-25.56,34.5,-35.94,-22.12,15.44,-1.8144199571651032,4.402670303828509,3.077922452028723,-155.0021140741398,-0.9511208605830096,21.13572637929078,-0.115,-0.9763,-0.0083,0.1834
4445073.0,290.33929,1.0,-3.45,6.82,-5.38,14.69,-25.56,34.5,7.13,65.5,-40.56,-0.9651358048494239,5.408912849992305,2.2454679059497726,-156.41828103776766,-2.372214704126748,19.389609385924846,-0.1138,-0.9789,-0.0207,0.1684
4445110.0,290.391475,1.0,-2.07,5.34,-9.28,14.38,-26.25,33.69,135.94,164.69,-177.31,1.1682387394045488,3.71871988565643,-0.3779089330013665,-160.26052613773837,-6.282764679968378,15.910543420989347,-0.0846,-0.9852,-0.0548,0.1384
4445147.0,290.405808,1.0,-0.43,-0.8,-9.49,13.56,-23.69,36.56,208.75,106.06,-246.75,1.2800513939722258,-0.9882484072627044,0.4114473138238015,-161.21954183361512,-14.638747929971785,11.639588800101585,-0.0041,-0.9866,-0.1274,0.1014
4445184.0,290.448538,1.0,-0.3,-6.57,-10.19,13.56,-23.69,36.56,199.56,75.37,-213.19,-0.5716121567189634,-5.249901576682246,-1.1113531588858034,-156.19500732541923,-20.63468349632429,10.062607019364435,0.0538,-0.9785,-0.1791,0.0877
4445218.0,290.490219,1.0,0.72,-12.83,-6.88,12.38,-15.06,40.25,61.63,39.88,-30.19,-3.003877059451026,-10.448696297602673,0.09772790266251619,-151.1157235364922,-24.24470448957822,8.866772764864926,0.1101,-0.9684,-0.21,0.0773
4445253.0,290.518071,1.0,0.63,-6.84,-7.13,12.38,-6.5,44.38,-140.31,105.25,138.81,-0.8480262189848771,-5.533658381635323,1.640936531645174,-157.44996317553054,-19.854779083760313,5.123950007684243,0.0813,-0.9807,-0.1724,0.0447
4445290.0,290.549685,1.0,2.4,-2.51,-9.28,9.06,-9.06,43.19,-143.25,197.81,238.69,1.8126257643135488,-2.07963773202314,0.28992815148029116,-165.58656489485412,-13.264930228136947,-0.32085678452705746,0.0486,-0.9921,-0.1155,-0.0028
4445325.0,290.588496,1.0,3.04,3.85,-10.26,9.06,-9.06,43.19,-150.06,231.44,224.75,1.6083864119108293,3.8883123986519426,-0.7586621033157464,-169.7471998361046,-3.9885915878464155,-9.338084626655299,0.0096,-0.996,-0.0348,-0.0814
4445360.0,290.622987,1.0,4.9,2.98,-12.55,-1.5,-14.69,43.19,-40.94,179.88,124.25,1.402383605066236,3.092904685270467,-3.5672111041117613,-164.61437509688025,0.14896906869365514,-15.332219618835126,0.004,-0.991,0.0013,-0.1334
4445399.0,290.646982,1.0,4.18,2.81,-9.48,-11.19,-18.06,40.25,-31.31,73.44,62.88,0.7123441808285735,2.841322750111158,-0.5209029917662704,-160.80272323312002,3.4611913427691,-18.878294741272413,-0.0059,-0.986,0.0302,-0.164
4445433.0,290.695873,1.0,4.26,2.54,-10.05,-11.19,-18.06,40.25,-15.19,49.38,18.12,0.24367306927262744,2.4987722296233414,-1.115733475220713,-158.84031180775503,4.412865642375664,-20.623036118505983,-0.0102,-0.983,0.0385,-0.179
4445468.0,290.73041,1.0,3.48,1.09,-9.01,-15.25,-18.06,38.19,13.0,27.62,-6.44,-0.2029383434857801,1.0078735198186475,0.14116465280756962,-157.6856148741907,4.366995362783785,-21.812201606341606,-0.011,-0.9811,0.0381,-0.1892
4445503.0,290.75933,1.0,3.67,0.55,-9.19,-18.37,-18.37,37.88,4.69,8.13,-7.19,-0.13934731439007053,0.515537966920083,-0.08993036549172118,-157.27480743211564,4.045922594423996,-22.337582426465428,-0.0083,-0.9804,0.0353,-0.1937
4445540.0,290.788005,1.0,3.96,-0.05,-9.32,-18.56,-18.37,38.25,4.94,-3.56,-5.0,0.12124602383306282,-0.03236977449558226,-0.3190969650097344,-157.33304425296922,3.8166045030746174,-22.337582426465428,-0.0061,-0.9805,0.0333,-0.1937
4445573.0,290.858198,1.0,3.9,0.23,-9.0,-18.56,-18.37,38.25,5.81,-6.81,-4.44,0.20482862431097848,0.2687153540193603,0.00110374835358229,-157.56748354792904,3.633161082340258,-22.127373666986443,-0.0049,-0.9809,0.0317,-0.1919
4445609.0,290.8715,1.0,4.36,0.13,-9.94,-17.87,-18.19,38.25,7.25,-1.31,-5.13,0.2718123874951992,0.19207105403022712,-1.0432037656600635,-157.508647592303,3.4611913427691,-22.185757394813148,-0.0038,-0.9808,0.0302,-0.1924
4445646.0,290.900209,1.0,3.97,0.01,-9.23,-18.25,-18.75,37.06,3.25,-12.38,-6.75,0.2624408668541409,0.07488896423661677,-0.23722457281503573,-157.98368078519854,3.186055816055173,-21.75385480831424,-0.0028,-0.9816,0.0278,-0.1887
4445681.0,290.959229,1.0,4.19,0.29,-9.35,-18.25,-18.75,37.06,3.0,-9.0,-6.56,0.4577192429953081,0.3656599764017958,-0.4266039241557813,-158.2857866564021,2.991179359701173,-21.473869337236096,-0.0024,-0.9821,0.0261,-0.1863
4445714.0,290.97458,1.0,3.95,0.51,-9.47,-17.5,-18.06,38.0,-0.81,-13.19,-8.81,0.2438685229294486,0.5363181620076509,-0.4498791874310495,-158.65388815245834,2.647300486778665,-21.13572637929078,-0.0036,-0.9827,0.0231,-0.1834
4445751.0,291.010325,1.0,3.53,0.06,-9.09,-17.5,-19.19,39.56,7.56,-12.75,-9.69,0.07440351787215871,0.09535379695504684,0.05585660818133675,-159.09143242656373,2.303445456683929,-20.762818905741057,-0.002,-0.9834,0.0201,-0.1802
4445788.0,291.035373,1.0,3.57,0.11,-9.05,-16.75,-18.06,38.75,0.5,-2.0,-6.06,0.16417143507246168,0.153900555807529,0.07994128847643545,-159.3455716366145,2.0169155746287277,-20.52986483879688,-0.0012,-0.9838,0.0176,-0.1782
4445820.0,291.080405,1.0,3.72,0.13,-9.47,-16.75,-18.06,38.75,6.06,-5.75,-7.0,0.17580513383329,0.18777048339027017,-0.3653721588671992,-159.4738082027549,1.7877008349543104,-20.4250635419962,-0.0002,-0.984,0.0156,-0.1773
