TIME,ELAPSED_SECONDS,PSTATE,acc_x,acc_y,acc_z,mag_x,mag_y,mag_z,gyr_x,gyr_y,gyr_z,lin_x,lin_y,lin_z,eul_x,eul_y,eul_z,qua_w,qua_x,qua_y,qua_z
3339636.0,320.943459,1.0,-0.95,5.04,-8.28,3.5,-35.06,25.69,-2.69,0.56,2.06,-0.06872762537962862,0.18041951175002396,0.06882553489027288,-149.24516700325162,-2.1200647857418087,4.791323123878448,-0.2611,-0.9642,-0.0185,0.0418
3339671.0,320.982356,1.0,-0.82,4.87,-8.38,3.88,-34.38,25.69,-1.25,1.19,0.81,0.04912435507790175,-0.015970955329166488,0.07982977310549266,-149.288410054367,-2.1315259137202647,4.733977821845079,-0.261,-0.9643,-0.0186,0.0413
3339708.0,321.001217,1.0,-0.91,4.73,-8.15,4.25,-35.5,26.37,1.88,0.12,1.75,-0.06979155096664075,-0.021412318995495845,0.33996258295654513,-149.288410054367,-2.0971425933011094,4.71104003397371,-0.2611,-0.9643,-0.0183,0.0411
3339741.0,321.042584,1.0,-0.84,5.01,-8.44,4.25,-35.5,26.37,-3.13,1.88,2.0,0.018034001610696904,0.052671633973374064,-0.044045430971381805,-149.20198320614298,-2.039837477354927,4.619290761920459,-0.2621,-0.9641,-0.0178,0.0403
3339778.0,321.082837,1.0,-0.8,4.54,-8.29,4.25,-34.69,25.19,-4.25,2.81,2.75,0.004098981577662086,-0.28098278089107537,0.32526128973225,-149.1588584140195,-2.0169155746287277,4.5160763693433355,-0.2623,-0.964,-0.0176,0.0394
3339812.0,321.111118,1.0,-0.76,5.1,-8.44,4.25,-34.0,24.0,-6.31,3.0,3.75,0.059077522111078584,0.09224489345268816,-0.08320342287807492,-148.98694437514695,-1.9252287616436874,4.389930414609093,-0.2639,-0.9636,-0.0168,0.0383
3339847.0,321.139787,1.0,-0.74,5.1,-8.5,4.25,-34.0,24.0,1.37,1.5,0.25,0.0669036922923032,0.051999795703996245,-0.13319003478951075,-148.98694437514695,-1.9137679978932431,4.298191253728037,-0.2644,-0.9636,-0.0167,0.0375
3339882.0,321.175815,1.0,-0.85,4.82,-8.37,3.5,-35.06,26.06,-2.38,-2.5,1.31,-0.061345317974186464,-0.11943919232239175,0.11161152502219274,-148.98694437514695,-1.8793858210517667,4.332593112917143,-0.2643,-0.9636,-0.0164,0.0378
3339919.0,321.221409,1.0,-0.78,4.76,-8.4,2.75,-34.0,25.69,-1.0,-2.94,2.25,0.01424415938043716,-0.19647279544615037,0.12227105529873583,-148.90133503664836,-1.776240293369341,4.401398006442045,-0.2647,-0.9634,-0.0155,0.0384
3339952.0,321.24569,1.0,-0.72,4.85,-8.67,2.75,-34.0,25.69,0.31,-11.25,3.0,0.12299064253787872,-0.2569661347356494,-0.14968676145233317,-148.90133503664836,-1.627254827906764,4.596353909147253,-0.2646,-0.9634,-0.0142,0.0401
3339986.0,321.288957,1.0,-0.64,4.61,-9.08,3.5,-35.06,26.06,5.88,-25.0,3.88,0.346563489773769,-0.6638589433032969,-0.3691686427899761,-148.85861645005238,-1.2605325708995527,5.3992599817249625,-0.264,-0.9633,-0.011,0.0471
3340021.0,321.324052,1.0,-1.03,7.98,-9.13,4.25,-35.06,26.5,3.25,-52.0,-22.19,0.3567497666856139,2.170597141613241,-2.16245346069371,-148.4345315385202,-1.2261530793833222,6.661520952908497,-0.2653,-0.9623,-0.0107,0.0581
3340058.0,321.372424,1.0,-2.01,8.16,-6.29,4.56,-35.06,25.69,98.31,-46.19,-90.37,-0.3013654661731904,4.354774576653179,0.26018902001723987,-150.79583135983617,-3.438262641755622,9.257605761151561,-0.2369,-0.9677,-0.03,0.0807
3340091.0,321.40486,1.0,-1.64,2.49,-7.56,4.56,-35.06,25.69,158.94,7.31,-128.13,-0.08211360320797767,-0.5283849984221425,1.6975583955346387,-154.37448496866148,-6.638563994932458,10.292697102933527,-0.1942,-0.9751,-0.0579,0.0897
3340128.0,321.436434,1.0,-2.02,2.84,-7.8,8.75,-32.06,28.5,109.81,41.31,-104.62,-0.19190036682102707,0.5249868745224827,1.2817709374682025,-156.98580474112185,-10.706964767003903,10.384744735841709,-0.1516,-0.9799,-0.0933,0.0905
3340165.0,321.468836,1.0,-1.3,-0.3,-9.12,11.38,-27.19,32.19,107.0,54.31,-85.37,-0.07923878075910418,-2.3400841795950558,0.8919359132761464,-158.3467074683401,-13.507223821905175,9.60254790532585,-0.1201,-0.9822,-0.1176,0.0837
3340199.0,321.506333,1.0,-1.44,0.12,-9.47,11.38,-27.19,32.19,31.94,68.94,-30.69,-0.33689965218670137,-1.5422170081480815,0.35800113764220143,-159.21811781644797,-15.517239777173632,7.740816022621953,-0.0991,-0.9836,-0.135,0.0675
3340234.0,321.532803,1.0,-1.31,-0.62,-6.32,12.06,-24.0,33.5,-15.81,121.44,7.25,-1.2335520960723447,-1.5013203227199086,3.6205941875405205,-160.0609663655873,-16.04940127991137,3.40386984812725,-0.0978,-0.9849,-0.1396,0.0297
3340271.0,321.580152,1.0,1.18,2.94,-11.1,9.88,-23.06,35.56,-111.06,159.94,49.0,1.1841151095234645,-0.05489393315965335,-1.6755474405381339,-159.5382246114638,-15.274409087771584,-1.9252287616436874,-0.1166,-0.9841,-0.1329,-0.0168
3340308.0,321.603276,1.0,0.77,3.26,-8.14,3.88,-25.0,33.88,-87.5,124.69,42.5,0.12164656919061079,0.731712976807298,1.0356809411230987,-157.33304425296922,-13.922726077012076,-7.5915129998336095,-0.1402,-0.9805,-0.1212,-0.0662
3340343.0,321.678762,1.0,2.26,2.85,-10.07,3.88,-25.0,33.88,-70.75,101.0,45.19,0.3967777438155914,-0.7155232744790201,-0.8688169155822596,-155.16145880106285,-13.04576356339961,-11.409241734119899,-0.1533,-0.9766,-0.1136,-0.0994
3340380.0,321.682786,1.0,0.88,3.03,-8.8,-0.19,-28.25,33.19,-103.87,80.19,60.19,-1.236992831016246,-0.2522153322059565,0.5437381380521238,-152.28767595523587,-10.902639624835572,-14.754288420181698,-0.1783,-0.9709,-0.095,-0.1284
3340414.0,321.720829,1.0,2.92,3.31,-9.05,-4.06,-29.75,32.25,-73.12,64.37,54.0,0.15583461312063696,-0.8014325860203396,-0.22920678372396175,-149.94434113378782,-9.361079434368332,-17.32339805412093,-0.1949,-0.9658,-0.0816,-0.1506
3340449.0,321.748049,1.0,3.04,4.42,-9.19,-4.06,-29.75,32.25,-95.75,29.12,59.13,-0.24162780519331162,-0.32357451628411904,-0.8268355779358192,-146.7909464272676,-6.9140653613570215,-19.70356306092983,-0.2208,-0.9583,-0.0603,-0.1711
3340484.0,321.787979,1.0,3.27,5.55,-8.63,-7.0,-31.56,28.56,-65.94,5.13,40.25,-0.0944248402138248,0.5114170910524082,-0.9498288155106813,-144.7656551188059,-4.837200229263812,-20.576448759783837,-0.2408,-0.9531,-0.0422,-0.1786
3340521.0,321.832499,1.0,3.35,5.09,-8.47,-9.19,-33.5,25.69,-59.31,-24.44,32.88,-0.010740030819510693,-0.02599033766717468,-0.6274627631479035,-143.94200484154302,-3.5299782811888885,-20.4250635419962,-0.2519,-0.9509,-0.0308,-0.1773
3340556.0,321.852295,1.0,3.15,5.32,-7.56,-9.19,-33.5,25.69,-34.13,-52.25,22.31,0.20895975560574764,0.4664896198764085,0.05384408297874721,-143.61025532246643,-2.2002931334350637,-19.319861939553064,-0.2626,-0.95,-0.0192,-0.1678
3340591.0,321.920603,1.0,2.35,6.83,-7.78,-9.56,-33.88,24.56,-22.94,-53.44,5.06,-0.4941936850411742,1.5764131320788555,-0.6800317553826218,-143.64697188895283,-0.9625804159917916,-17.462507245696997,-0.2724,-0.9501,-0.0084,-0.1518
3340625.0,321.928581,1.0,2.37,5.51,-7.82,-10.0,-35.0,24.37,34.63,-49.25,-20.75,-0.05416219114511178,0.5509344747804142,-0.03321471764468775,-145.22287322309495,-1.2032334798806035,-15.470980940849387,-0.2666,-0.9543,-0.0105,-0.1346
3340662.0,321.98262,1.0,2.34,3.82,-7.23,-8.88,-35.0,24.75,57.75,-50.94,-36.13,0.43920726668472476,-0.44358137621649635,1.3242427626902238,-146.992038514199,-1.9252287616436874,-13.738036026791262,-0.2572,-0.9588,-0.0168,-0.1196
3340697.0,322.021836,1.0,0.62,6.22,-7.93,-8.88,-35.0,24.75,-10.38,-56.44,-10.81,-1.1457875572930134,1.527845637894515,-0.10851810650829208,-148.14094650942238,-2.1773706400327653,-11.869983070722633,-0.2534,-0.9616,-0.019,-0.1034
3340732.0,322.042355,1.0,1.87,5.88,-9.14,-6.19,-34.25,27.69,83.87,-14.5,-59.81,0.0718582232708348,0.7975803436942535,-1.1919681855313513,-149.72415559222358,-3.701951248377608,-11.121372822035768,-0.2405,-0.9653,-0.0323,-0.0969
3340769.0,322.08454,1.0,1.59,2.88,-7.84,-5.06,-33.75,27.69,89.69,-21.56,-60.31,0.2996154957588947,-0.7440695715298479,1.3423313016389464,-153.06392657993817,-6.592650878252481,-9.694547078719877,-0.2095,-0.9725,-0.0575,-0.0845
3340804.0,322.095679,1.0,1.11,2.69,-7.5,-5.06,-33.75,27.69,61.25,13.38,-44.56,-0.010168314722701854,-0.48979820273031693,1.7768184746205389,-154.3228637180319,-8.154340029708836,-9.22311622194562,-0.1946,-0.975,-0.0711,-0.0804
3340838.0,322.142584,1.0,1.86,3.79,-10.17,-2.5,-31.5,30.19,56.5,46.44,-35.5,0.21315177245489703,-0.2695331514542716,-1.199462765284867,-154.73873772257048,-10.154638119587414,-10.396251161173769,-0.1784,-0.9758,-0.0885,-0.0906
3340873.0,322.180174,1.0,2.39,1.94,-9.01,-2.5,-30.37,31.75,39.06,19.56,-23.56,0.6503670033359242,-1.4911993428138546,0.4253309413087667,-155.10823234547746,-11.443790822449783,-10.879617409371034,-0.1657,-0.9765,-0.0997,-0.0948
3340912.0,322.237042,1.0,1.56,3.75,-8.89,-1.37,-29.69,31.0,-11.25,4.0,2.56,0.14739696143463898,0.3665798573748087,0.04078632370762314,-154.84376268843482,-11.547444362906596,-11.029269725697887,-0.1678,-0.976,-0.1006,-0.0961
3340945.0,322.252954,1.0,1.48,3.9,-8.86,-1.37,-29.69,31.0,4.13,8.19,-4.44,0.06529847048206827,0.5441512099661093,0.029143386837054308,-154.63414056108866,-11.720221376139573,-11.294085603048902,-0.1672,-0.9756,-0.1021,-0.0984
3340982.0,322.302928,1.0,1.66,2.58,-9.11,-1.06,-29.25,31.37,10.06,9.0,-6.56,-0.06864828357049235,-0.7185623977734842,0.22108504567055398,-154.68638599830706,-12.204140573704523,-11.570479767497385,-0.1631,-0.9757,-0.1063,-0.1008
3341017.0,322.31983,1.0,1.66,2.95,-9.22,-2.56,-28.87,31.75,-18.25,3.75,10.25,-0.08994243174476668,-0.45896708173520007,-0.003944251973493351,-154.42620867150097,-11.950632395319573,-11.858462221253813,-0.1661,-0.9752,-0.1041,-0.1033
3341051.0,322.353908,1.0,1.63,3.87,-9.03,-2.56,-28.87,31.75,-6.69,-1.69,1.44,0.06293989978620584,0.3865633002437653,-0.14429504978896723,-154.1686085419062,-11.685663847129462,-11.858462221253813,-0.1698,-0.9747,-0.1018,-0.1033
3341086.0,322.396952,1.0,1.66,3.03,-9.02,-1.75,-29.69,33.06,4.63,-2.44,-0.81,-0.02904756648052209,-0.3565335336368286,0.1542440782479524,-154.3228637180319,-11.869983070722633,-11.823900394126868,-0.1678,-0.975,-0.1034,-0.103
3341121.0,322.414848,1.0,1.74,2.81,-8.84,-3.25,-29.25,32.25,7.81,4.0,0.06,0.04981730023482567,-0.517177087318532,0.3833095043503789,-154.3228637180319,-11.858462221253813,-11.846941492078386,-0.1675,-0.975,-0.1033,-0.1032
3341158.0,322.467572,1.0,1.59,4.1,-9.04,-3.25,-29.25,32.25,-29.94,-1.75,11.75,0.019663970549984144,0.543091531662325,-0.23149549189733598,-153.91350924378722,-11.466824127666603,-11.996720388635612,-0.1732,-0.9742,-0.0999,-0.1045
3341191.0,322.494274,1.0,1.89,3.06,-9.57,-2.56,-28.5,31.87,8.63,-3.31,1.63,0.020933539254605504,-0.6469816618465031,-0.39636801018544787,-154.0152535944028,-11.37469368630907,-11.962154211464537,-0.1731,-0.9744,-0.0991,-0.1042
3341228.0,322.536822,1.0,1.34,4.37,-8.09,-2.19,-29.25,32.69,-11.5,-13.81,3.25,0.09735800593019683,1.1055175941262079,0.5811986686147055,-153.96433257658236,-11.31711591010567,-11.605033754368794,-0.1755,-0.9743,-0.0986,-0.1011
3341262.0,322.573014,1.0,1.7,3.15,-8.99,-1.75,-29.69,31.0,10.19,1.81,-3.19,0.046741775301588295,-0.3433647156108847,0.13646303807857585,-154.0662728728033,-11.570479767497385,-11.651107384541652,-0.173,-0.9745,-0.1008,-0.1015
