TIME,ELAPSED_SECONDS,PSTATE,acc_x,acc_y,acc_z,mag_x,mag_y,mag_z,gyr_x,gyr_y,gyr_z,lin_x,lin_y,lin_z,eul_x,eul_y,eul_z,qua_w,qua_x,qua_y,qua_z
3980158.0,451.563653,1.0,-3.69,0.6,-8.96,19.87,-20.5,35.56,0.56,-1.44,-0.63,-0.11152502664766639,-0.23534622877797695,0.10150320456041584,-150.70506138327715,-18.193261198253683,21.019168663575197,-0.0755,-0.9675,-0.1581,0.1824
3980193.0,451.607047,1.0,-3.81,0.74,-8.89,19.87,-20.5,35.56,-2.88,-5.13,2.69,-0.1753668621314537,-0.07499438501993055,0.10822629787800508,-150.61456567249238,-18.135237986991214,21.147383365420364,-0.0762,-0.9673,-0.1576,0.1835
3980230.0,451.64813,1.0,-3.76,1.41,-9.18,21.0,-20.06,36.06,-2.25,-0.25,1.31,0.1863219032675978,0.44362430716823353,-0.20167561532907996,-150.61456567249238,-18.03080801097451,21.182355652510953,-0.0779,-0.9673,-0.1567,0.1838
3980265.0,451.668977,1.0,-3.78,0.62,-8.94,20.25,-20.5,36.0,3.06,-1.37,-2.75,-0.1643377925828735,-0.22547086328645988,0.0845845826240268,-150.61456567249238,-18.00760340318733,21.217329935453332,-0.0769,-0.9673,-0.1565,0.1841
3980300.0,451.714445,1.0,-3.8,0.98,-8.93,20.25,-20.5,36.0,0.5,-3.25,0.0,-0.05035119963605461,0.10900627215628045,0.05314384122172022,-150.56941987552764,-17.9843995399279,21.32226479540238,-0.0773,-0.9672,-0.1563,0.185
3980333.0,451.732251,1.0,-3.67,0.88,-9.44,21.0,-19.75,34.75,1.25,0.12,0.75,0.20624100645773558,-0.12472151937658132,-0.3569521758951044,-150.52434170035056,-17.996001378555594,21.34558610673021,-0.0772,-0.9671,-0.1564,0.1852
3980371.0,451.785036,1.0,-3.83,0.87,-8.96,21.0,-19.75,34.75,4.13,-6.94,-2.69,-0.06838702924588058,0.007163170555944176,0.023875756299055695,-150.38950981826167,-18.03080801097451,21.520524528354446,-0.0771,-0.9668,-0.1567,0.1867
3980406.0,451.812195,1.0,-3.94,0.77,-8.71,21.0,-19.75,34.75,0.12,-4.81,-1.12,-0.25232329154498756,-0.0014742095979393133,0.21931821356170467,-150.2552755154301,-18.05401336431272,21.695513718287582,-0.0767,-0.9665,-0.1569,0.1882
3980441.0,451.846514,1.0,-3.58,0.83,-9.66,20.25,-19.37,35.56,2.69,-5.0,-0.25,0.4240298259412745,-0.2387758384007138,-0.5173068386209518,-150.2106621453537,-18.00760340318733,21.78886220109525,-0.0764,-0.9664,-0.1565,0.189
3980476.0,451.87824,1.0,-4.14,0.98,-8.33,20.56,-21.25,35.25,0.12,-15.19,-0.5,-0.3884546115042862,0.30518102224834387,0.4661538912025378,-149.85607839466778,-17.87999134136898,22.337582426465428,-0.0767,-0.9656,-0.1554,0.1937
3980511.0,451.920421,1.0,-3.99,1.07,-8.68,21.0,-20.5,34.75,5.31,6.06,-6.88,-0.09697432540754947,0.30544201512101116,0.19911643744553054,-149.85607839466778,-17.9843995399279,22.34926291674044,-0.0753,-0.9656,-0.1563,0.1938
3980546.0,451.958001,1.0,-4.05,1.08,-8.67,21.0,-20.5,34.75,6.75,14.06,-14.5,-0.19727632195607403,0.428989890360849,0.18818599961180382,-149.94434113378782,-18.49505809550988,21.92891239364033,-0.0717,-0.9658,-0.1607,0.1902
3980582.0,451.982175,1.0,-4.4,-0.03,-7.5,21.0,-20.5,34.75,11.81,71.31,-23.25,-1.4520121335672491,-0.10001687515649454,1.2338699731558815,-150.70506138327715,-19.157145947707967,20.599742008899195,-0.0648,-0.9675,-0.1664,0.1788
3980619.0,452.02609,1.0,-3.52,0.69,-5.41,20.25,-19.37,36.38,-27.69,291.13,-20.12,-1.870891560456236,0.9888857076706639,3.670163234253793,-154.73873772257048,-20.49492914898236,13.034229810442687,-0.0578,-0.9758,-0.1779,0.1135
3980654.0,452.04504,1.0,0.94,0.31,-11.38,20.25,-19.37,36.38,-56.5,329.06,1.5,1.4069804415206097,-1.3506342692039546,-1.448584031686341,-157.6856148741907,-21.205671619155694,3.2892294003721183,-0.0529,-0.9811,-0.184,0.0287
3980687.0,452.097179,1.0,1.96,-0.55,-9.25,15.38,-19.0,37.69,-81.94,220.44,34.75,0.27948154180222606,-2.1407527325500544,0.5846291907699861,-156.58711361479934,-21.030823443414317,-7.166643396943946,-0.0622,-0.9792,-0.1825,-0.0625
3980724.0,452.134117,1.0,4.37,0.73,-10.97,4.5,-20.5,39.88,-207.69,116.94,86.87,1.5831221217777076,-2.4145413469880825,-1.6665541919954983,-154.84376268843482,-18.855062255560348,-12.50381856554563,-0.0933,-0.976,-0.1638,-0.1089
3980761.0,452.161072,1.0,3.15,3.21,-10.58,-2.56,-25.37,37.25,-182.75,6.5,116.56,0.43829186224548233,-0.7591455408410144,-1.6560982870082501,-152.52794284369597,-13.84191973651236,-15.274409087771584,-0.1553,-0.9714,-0.1205,-0.1329
3980795.0,452.199364,1.0,2.36,5.3,-8.2,-2.56,-25.37,37.25,-173.25,-11.88,112.56,0.16398715765809202,1.190932406803095,-0.16603209733717428,-149.46197984083236,-8.61393617408195,-16.489275388774946,-0.2077,-0.9647,-0.0751,-0.1434
3980832.0,452.259124,1.0,2.5,8.29,-9.42,-5.56,-31.0,32.38,-76.81,-28.0,63.69,-0.20018459249566067,2.840527064073299,-2.667396341391971,-147.6025936178383,-5.697547703194251,-16.524012627926176,-0.2338,-0.9603,-0.0497,-0.1437
3980869.0,452.281064,1.0,1.66,8.41,-7.47,-8.56,-35.19,28.56,29.0,-87.5,-13.81,-0.17396562004516103,3.8947592978066994,-0.8744167058674694,-148.8159549371668,-4.206454848857137,-14.038175786909193,-0.2366,-0.9632,-0.0367,-0.1222
3980904.0,452.308121,1.0,0.5,9.15,-8.96,-8.56,-35.19,28.56,109.5,-65.12,-78.81,-0.9774317525720413,4.479827425216878,-2.1612183736636528,-151.7661453802759,-5.445147966752271,-11.409241734119899,-0.2175,-0.9698,-0.0475,-0.0994
3980937.0,452.345159,1.0,1.52,9.2,-9.18,-7.06,-34.38,28.37,232.38,-70.81,-175.81,1.704554046702924,5.605565198357454,-1.8935608659986318,-157.62647223808008,-11.651107384541652,-7.258498535026432,-0.1532,-0.981,-0.1015,-0.0633
3980974.0,452.396262,1.0,1.26,-2.91,-6.42,-3.0,-31.75,32.25,349.5,-56.63,-218.25,-0.21724467757411348,-4.003803070534715,3.8741576298032623,-159.40959116439527,-18.437010245615284,-3.2089830530311807,-0.0736,-0.9839,-0.1602,-0.028
3981010.0,452.411728,1.0,-0.29,-1.61,-8.23,4.06,-22.75,39.75,50.13,-20.87,-89.31,-1.0358904764427366,-1.7057964380852284,1.6564175227861746,-156.19500732541923,-23.635582985023575,-0.3552344019497601,-0.0223,-0.9785,-0.2048,-0.0031
3981045.0,452.464856,1.0,1.63,-4.15,-11.3,4.06,-22.75,39.75,52.19,27.81,-37.69,-0.47004935653570146,-4.542884054637258,-1.4499328770787692,-154.63414056108866,-25.37108032838959,-0.7104722177704716,-0.0057,-0.9756,-0.2196,-0.0062
3981082.0,452.482166,1.0,1.78,-5.64,-11.35,7.06,-17.5,41.75,-83.37,-26.62,72.75,-0.897718952734175,-6.251697680265865,-1.3248762563792358,-155.75453926974473,-24.127512270969643,-0.6760941207657828,-0.0184,-0.9777,-0.209,-0.0059
3981119.0,452.524303,1.0,1.8,-6.15,-9.87,7.06,-17.19,41.38,-176.94,-43.94,189.94,-0.4497857304665823,-7.785943249901442,0.9943755770157257,-160.32749140960402,-17.636430239406277,-0.4927452222969898,-0.0752,-0.9853,-0.1533,-0.0043
3981154.0,452.553188,1.0,0.13,8.76,-8.34,7.06,-17.19,41.38,-234.31,-70.0,182.31,1.5332856620135695,5.8795275115269074,-0.6523313710447844,-160.12726585571855,-11.19045487105573,-0.27502000568243146,-0.1423,-0.985,-0.0975,-0.0024
3981189.0,452.60969,1.0,-0.76,4.79,-7.33,5.56,-23.87,38.06,-53.94,-26.56,78.31,-0.29549875753517973,2.1286059541316478,1.2841904268292073,-159.21811781644797,-7.1781250358345785,0.1718874029970642,-0.1693,-0.9836,-0.0626,0.0015
3981223.0,452.634724,1.0,-0.07,5.07,-9.78,3.38,-29.87,33.56,-56.06,5.56,68.25,0.15398324128713764,1.1897899657382245,-1.1440983305403059,-158.1644488297919,-5.204245622111723,-0.3552344019497601,-0.1836,-0.9819,-0.0454,-0.0031
3981260.0,452.666294,1.0,-0.3,7.17,-7.81,1.88,-31.37,32.25,-35.38,-3.63,23.44,-0.05294101001627094,3.518053269592898,-0.19912325556427035,-156.5307030363511,-3.4726557451993814,-0.5271230305187238,-0.2013,-0.9791,-0.0303,-0.0046
3981295.0,452.713708,1.0,-0.35,4.5,-8.4,1.88,-31.37,32.25,17.0,13.31,-12.5,-0.30499038251378574,0.8853668782020638,0.3168867596679803,-156.70033876277134,-3.793673550039814,-0.8594447501191841,-0.1991,-0.9794,-0.0331,-0.0075
3981332.0,452.737743,1.0,-0.05,2.96,-9.38,0.75,-32.19,32.75,8.69,15.5,-9.19,-0.18930085741237965,-0.8668447038818732,0.010668913618967935,-156.92843283344135,-4.286724053610707,-1.2834522947560847,-0.196,-0.9798,-0.0374,-0.0112
3981367.0,452.773723,1.0,0.17,3.85,-9.61,0.25,-32.06,31.87,-0.56,4.0,-5.19,0.06220755853659181,-0.14657785740081689,-0.5460378225599349,-156.92843283344135,-4.5160763693433355,-1.4438918508267422,-0.1957,-0.9798,-0.0394,-0.0126
3981402.0,452.798165,1.0,0.07,3.98,-8.69,0.25,-32.06,31.87,-2.63,-0.25,-4.0,0.031080800614455686,0.33777881164863743,0.2543550161631636,-156.92843283344135,-4.6536963885673295,-1.3407518310456548,-0.1954,-0.9798,-0.0406,-0.0117
3981434.0,452.846694,1.0,0.28,3.63,-9.74,1.37,-32.88,33.06,9.5,15.0,-8.5,0.11587393530109343,-0.36915260403388994,-0.5843653298921101,-156.98580474112185,-5.0321866714644,-1.7303983035632713,-0.1938,-0.9799,-0.0439,-0.0151
3981471.0,452.88595,1.0,0.03,3.55,-8.85,0.69,-31.75,32.25,6.0,3.88,-9.75,-0.10246546862053968,-0.055616602673344756,0.2718554232276489,-157.10097394877235,-5.330429626451235,-1.8220825674649566,-0.1924,-0.9801,-0.0465,-0.0159
3981508.0,452.919777,1.0,0.0,3.88,-8.99,0.69,-31.75,32.25,0.25,5.56,-4.63,-0.12340871049160795,0.22129628977447574,0.01837649328254365,-157.1587733939545,-5.594289991509483,-1.959611168911186,-0.1913,-0.9802,-0.0488,-0.0171
3981541.0,452.963355,1.0,-0.11,3.97,-9.25,1.0,-31.75,32.25,5.44,1.94,-7.56,-0.24294455866941522,0.24744573550497181,-0.25392893708872677,-157.21671751944734,-5.800810045139374,-2.039837477354927,-0.1899,-0.9803,-0.0506,-0.0178
3981576.0,452.989567,1.0,0.02,3.73,-8.98,1.0,-31.75,33.5,11.38,5.31,-13.56,-0.1013892894025851,0.17229697035643296,0.08483257906473263,-157.44996317553054,-6.282764679968378,-2.039837477354927,-0.1868,-0.9807,-0.0548,-0.0178
3981613.0,453.029936,1.0,0.14,3.74,-9.24,0.69,-31.0,31.87,-5.06,4.13,-3.56,-0.0009288489467822736,0.08298161829732383,-0.1621971343613442,-157.44996317553054,-6.454917855397503,-2.1086036789736795,-0.1863,-0.9807,-0.0563,-0.0184
3981645.0,453.045744,1.0,0.0,3.71,-8.9,0.69,-31.0,31.87,4.63,-2.88,-7.25,-0.10589409732205585,0.20763805475896988,0.1671597189546219,-157.44996317553054,-6.672999532212699,-2.051298459271143,-0.1856,-0.9807,-0.0582,-0.0179
3981682.0,453.096665,1.0,0.28,3.79,-9.62,-0.06,-31.0,33.06,3.75,5.81,-6.13,0.12485799494644674,0.01564271552104761,-0.5360317502304017,-157.62647223808008,-6.661520952908497,-2.142987063023817,-0.1843,-0.981,-0.0581,-0.0187
3981719.0,453.121775,1.0,0.09,3.19,-9.08,1.0,-31.37,33.19,7.5,3.31,-7.94,-0.09622463499140994,-0.27597449654807427,0.1866095168795745,-157.80436691060555,-6.937025592767177,-2.2002931334350637,-0.1819,-0.9813,-0.0605,-0.0192
