TIME,ELAPSED_SECONDS,PSTATE,acc_x,acc_y,acc_z,mag_x,mag_y,mag_z,gyr_x,gyr_y,gyr_z,lin_x,lin_y,lin_z,eul_x,eul_y,eul_z,qua_w,qua_x,qua_y,qua_z
4579872.0,425.375676,1.0,-4.31,2.3,-8.58,20.0,-26.25,31.19,-5.38,-1.25,3.88,-0.00047265170077670504,0.17923388596287992,-0.0650456492146283,-149.68030591183427,-8.476043091817116,24.889725700371912,-0.1282,-0.9652,-0.0739,0.2155
4579909.0,425.41052,1.0,-4.11,1.62,-8.76,19.56,-25.87,31.56,0.44,4.94,0.94,0.09155263742598718,-0.5362848697723073,0.010828612641322621,-149.81204156148604,-8.476043091817116,24.74892618800895,-0.1282,-0.9655,-0.0739,0.2143
4579944.0,425.455955,1.0,-4.16,2.29,-8.67,19.56,-25.87,31.56,-14.25,2.56,10.81,0.09869618064447616,0.04633852177905487,-0.07802054611965836,-149.81204156148604,-8.200293609338797,24.549525110224607,-0.1324,-0.9655,-0.0715,0.2126
4579979.0,425.493283,1.0,-4.12,2.42,-8.96,19.56,-26.69,31.56,-1.81,-0.81,4.31,0.2521732465215827,0.04921859923897162,-0.34452659107690486,-149.81204156148604,-8.062436803571837,24.45571546342066,-0.134,-0.9655,-0.0703,0.2118
4580016.0,425.533205,1.0,-4.12,2.24,-8.68,19.19,-26.25,30.0,-1.56,2.31,4.81,0.09341690367395517,-0.05379523604373804,-0.05858083129264635,-149.85607839466778,-7.959051879828772,24.38536915234885,-0.1345,-0.9656,-0.0694,0.2112
4580050.0,425.551768,1.0,-4.08,2.39,-8.73,18.87,-26.69,30.75,-10.81,1.5,9.06,0.15372144098952512,0.029079821420016055,-0.12043034028970112,-149.85607839466778,-7.798243752767078,24.279867169785643,-0.1365,-0.9656,-0.068,0.2103
4580085.0,425.593402,1.0,-4.13,2.55,-8.6,18.87,-26.69,30.75,-6.56,2.0,7.13,0.05776507270155884,0.15795152070033341,-0.0671088847147896,-149.85607839466778,-7.580028689727107,24.150948661500916,-0.1396,-0.9656,-0.0661,0.2092
4580120.0,425.623991,1.0,-4.06,2.19,-8.99,19.56,-26.25,31.19,-1.12,-1.56,3.94,0.19059760494069478,-0.32208249366700625,-0.29086134786508566,-149.85607839466778,-7.534092210574165,24.080642561887807,-0.1404,-0.9656,-0.0657,0.2086
4580157.0,425.663985,1.0,-3.7,2.3,-10.34,18.5,-27.0,31.19,-2.94,-49.31,8.06,1.1817795814420058,-0.7049090137276137,-1.3289730316607056,-149.24516700325162,-7.224052314144023,24.772390131710257,-0.1423,-0.9642,-0.063,0.2145
4580192.0,425.701063,1.0,-4.36,4.79,-7.86,18.5,-27.0,31.19,-20.69,-196.88,15.13,0.7140044887162573,2.2577314996458404,-0.09921422608345765,-145.53094905314887,-6.236859579751597,29.09706672256259,-0.1473,-0.9551,-0.0544,0.2512
4580227.0,425.728107,1.0,-6.06,10.96,-4.38,18.87,-27.0,29.87,93.75,-72.75,-180.63,-0.08840577549560802,9.46033625767588,0.504831773945364,-140.54206620040912,-8.556479215940191,34.85514889719688,-0.1367,-0.9413,-0.0746,0.2995
4580261.0,425.775138,1.0,-5.41,1.68,-0.51,23.25,-27.0,27.06,170.44,41.06,-290.69,-3.357253743607746,2.776479676855057,6.1500658145828755,-139.63551670559374,-16.55875139620892,35.925666980918415,-0.056,-0.9386,-0.144,0.3084
4580298.0,425.79581,1.0,-3.5,-0.63,-6.38,28.87,-19.5,28.69,128.25,145.94,-275.38,0.5254194412866244,0.02178137527270485,2.5214073834216553,-139.14021367291954,-23.214281072524358,33.11769717298479,0.0009,-0.9371,-0.2012,0.285
4580333.0,425.839777,1.0,-3.96,-6.19,-4.24,28.87,-19.5,28.69,6.31,215.94,-178.25,-4.019930501674462,-3.435455449370336,3.1724126951473206,-139.96897956123578,-29.68940484166728,25.60605217391993,0.05,-0.9396,-0.2562,0.2216
4580370.0,425.880419,1.0,0.16,-7.52,-1.35,28.87,-10.25,33.25,-97.62,468.31,-10.19,-3.174385191120529,-6.402910622590907,7.100266025485817,-145.26123786330908,-30.63884419055943,14.049721543626418,0.0665,-0.9544,-0.2642,0.1223
4580407.0,425.915928,1.0,7.49,-4.76,-8.04,21.0,-6.88,40.75,-235.31,548.56,109.25,3.5499284876803863,-6.453444474493365,0.36470305315761564,-151.30008546167105,-26.8179170771013,-7.982025743589274,0.0526,-0.9688,-0.2319,-0.0696
4580442.0,426.00938,1.0,8.66,1.04,-22.75,21.0,-6.88,40.75,-228.94,262.19,133.5,0.29408302701052147,-0.1375574756982102,-14.555909248036814,-150.2106621453537,-21.62551192117329,-20.180594156388953,0.0115,-0.9664,-0.1876,-0.1752
4580476.0,426.020349,1.0,6.72,-6.69,-10.97,1.56,-12.5,42.38,-329.81,-2.56,241.06,0.1048039842463151,-8.39585877023358,-2.0151083986130445,-152.28767595523587,-12.872771138472864,-23.963486157095847,-0.0391,-0.9709,-0.1121,-0.2076
4580513.0,426.024339,1.0,5.4,11.2,-7.81,-10.06,-20.0,38.19,-379.38,-70.75,216.56,1.3933376269563444,8.111006363670526,-2.353378208265134,-150.93250619783007,-1.0886361860699356,-23.471705166170008,-0.1465,-0.968,-0.0095,-0.2034
4580550.0,426.053447,1.0,5.2,5.18,-9.91,-14.0,-28.25,32.0,-62.75,-199.81,106.94,1.0871267111842737,1.7989017397385936,-2.34500042471989,-152.81901206638815,3.5529075421905287,-19.73845598070809,-0.1578,-0.972,0.031,-0.1714
4580585.0,426.088962,1.0,3.37,7.05,-9.91,-14.0,-28.25,32.0,-67.5,-286.19,66.5,0.7043649269640426,3.433936609388414,-2.3168581314100223,-156.13951067883627,8.453062112264227,-9.556550648732504,-0.1742,-0.9784,0.0737,-0.0833
4580622.0,426.136016,1.0,1.06,9.41,-7.99,-13.19,-30.06,32.0,0.25,-300.13,-23.62,-0.47350070193953236,6.1313821069690135,-0.9494529440779811,-157.39142911741774,10.258180960550504,-0.6990128451499703,-0.1743,-0.9806,0.0894,-0.0061
4580659.0,426.178857,1.0,1.22,12.41,-8.93,-7.56,-30.37,32.0,227.44,-255.0,-278.5,1.90036550118993,9.899423655992905,-1.7532558058902552,-161.21954183361512,5.7319679651977244,10.005090889774307,-0.1285,-0.9866,0.05,0.0872
4580694.0,426.197899,1.0,-0.35,-0.96,-1.4,-7.56,-30.37,32.0,363.13,-219.38,-363.63,0.03759334639490419,-1.0389688477714052,8.419844147089293,-161.71772704701445,-2.681687249969397,17.729205890532434,-0.0306,-0.9873,-0.0234,0.1541
4580728.0,426.223987,1.0,-4.33,-5.5,-4.13,4.06,-29.0,36.25,32.88,-81.56,-122.37,-3.1323266586900935,-4.32861083846934,3.682316737321921,-154.47803544959177,-9.982085146289721,22.75822922439662,0.0481,-0.9753,-0.087,0.1973
4580765.0,426.278954,1.0,-3.5,-0.1,-7.1,18.37,-14.75,39.5,19.12,37.31,-89.94,-0.42435054030290975,1.2392736113503038,1.9993375600399208,-153.26144320712007,-13.264930228136947,22.127373666986443,0.057,-0.9729,-0.1155,0.1919
4580800.0,426.300001,1.0,-1.72,-1.53,-8.86,19.0,-11.38,39.06,35.75,97.5,-121.19,1.1852963460280521,-0.08980238237581245,0.7299816627623663,-153.06392657993817,-16.1419863535435,19.59889535760717,0.0739,-0.9725,-0.1404,0.1702
4580835.0,426.343621,1.0,-1.64,-3.91,-8.87,19.0,-11.38,39.06,32.13,93.5,-119.12,-0.05006469352414644,-1.74234387229978,0.13109671571068304,-152.0020244138963,-20.11076285425295,15.679165793853407,0.0975,-0.9703,-0.1746,0.1364
4580872.0,426.386949,1.0,-0.95,-5.73,-8.39,18.37,-8.0,40.75,-25.69,124.37,-7.75,-0.695839118969022,-3.4480191618558034,0.22779454749485062,-152.72165046658662,-20.90263293758787,12.215665087929846,0.1068,-0.9718,-0.1814,0.1064
4580909.0,426.412873,1.0,-0.26,-3.38,-8.65,13.88,-5.75,43.19,-62.0,178.81,27.37,-0.2151272434318221,-1.5646022246087408,0.651310566211496,-156.70033876277134,-19.66867198617123,5.720494487173099,0.0953,-0.9794,-0.1708,0.0499
4580943.0,426.472903,1.0,0.57,-2.07,-11.55,13.88,-5.75,43.19,-6.38,109.56,30.37,0.566934488936755,-0.11074947466852646,-1.9270033031752174,-158.84031180775503,-18.3441436046709,1.6960169933572922,0.0905,-0.983,-0.1594,0.0148
4580978.0,426.491882,1.0,0.14,-8.38,-4.67,7.88,-8.0,45.25,-73.5,130.5,130.25,-2.0291935341730967,-7.069097798786156,3.6452272818230647,-161.36053358743408,-14.777398324484167,-1.627254827906764,0.097,-0.9868,-0.1286,-0.0142
4581013.0,426.526756,1.0,2.43,-2.36,-6.49,4.06,-8.75,44.38,-137.75,261.13,228.94,0.9537332980877126,-1.618496930627756,2.730954947097614,-165.58656489485412,-5.7319679651977244,-10.706964767003903,0.0667,-0.9921,-0.05,-0.0933
4581050.0,426.554369,1.0,9.07,4.99,-19.72,-3.69,-11.75,41.5,-124.94,253.25,176.81,2.152869592820933,6.947440119850453,-11.244279392722765,-160.32749140960402,1.0427975798203954,-18.936379383880695,0.0448,-0.9853,0.0091,-0.1645
4581085.0,426.617008,1.0,5.17,1.76,-10.09,-3.69,-11.75,41.5,-38.75,17.25,55.31,1.0631715350537045,2.5873818993863096,-1.3203316749098502,-158.2857866564021,4.642227799866185,-20.949244597725627,0.0264,-0.9821,0.0405,-0.1818
4581122.0,426.643645,1.0,3.78,3.3,-10.69,-15.5,-15.06,39.0,-45.75,13.0,33.0,-0.7525120819136952,3.689477449926207,-1.3860253599423213,-157.62647223808008,6.099150260471114,-21.462206102543455,0.0101,-0.981,0.0532,-0.1862
4581158.0,426.665923,1.0,3.59,1.17,-9.61,-16.56,-16.25,39.5,-14.63,-12.63,0.31,-0.27869428331357415,1.5071050685526697,-0.40413174327466095,-157.80436691060555,6.65004244052053,-21.170698001897183,0.007,-0.9813,0.058,-0.1837
4581193.0,426.689263,1.0,2.52,-0.75,-8.44,-16.56,-16.25,39.5,-3.5,-22.06,-9.19,-0.5295575852900816,-0.5395714460266419,0.9989867787764233,-158.46906001766973,6.443440527613203,-20.49492914898236,0.0055,-0.9824,0.0562,-0.1779
4581228.0,426.726044,1.0,2.82,0.32,-8.48,-17.0,-16.87,37.5,8.88,10.94,-5.31,-0.35024823784259795,0.5204317840352668,0.8863542128607609,-158.71585002764485,6.317194167065647,-20.320279509683687,0.0035,-0.9828,0.0551,-0.1764
4581263.0,426.793856,1.0,3.8,-0.44,-9.8,-16.56,-17.25,39.0,4.63,10.38,-6.31,0.09050430633512518,-0.10661171699974824,-0.7125725431508592,-158.2857866564021,5.9958740675037845,-20.82107094211026,0.0061,-0.9821,0.0523,-0.1807
4581300.0,426.813802,1.0,3.86,-0.51,-9.61,-17.25,-16.5,38.69,-1.56,1.56,-3.06,0.19495007832345412,-0.1642594158257181,-0.5590054694468929,-158.1644488297919,5.92702598542953,-20.9608980601766,0.0065,-0.9819,0.0517,-0.1819
4581335.0,426.838024,1.0,3.78,-0.17,-9.4,-17.25,-16.5,38.69,-4.25,2.5,-3.13,0.15623849006206414,0.12435924770465244,-0.3243629953392855,-158.1644488297919,5.858180044713635,-21.007514103633177,0.0045,-0.9819,0.0511,-0.1823
4581371.0,426.875065,1.0,3.51,-0.17,-9.46,-16.56,-17.25,38.19,-3.13,4.25,-4.94,-0.13917963460052296,0.06877530799562721,-0.2837661949011103,-158.04377345766537,5.777862453568277,-21.147383365420364,0.0033,-0.9817,0.0504,-0.1835
4581406.0,426.913212,1.0,3.6,0.1,-9.42,-17.0,-17.25,39.0,-4.81,2.94,-3.5,-0.08797495285495915,0.31738951396843773,-0.27292956980811134,-157.98368078519854,5.628708719478254,-21.275624852029367,0.0021,-0.9816,0.0491,-0.1846
