TIME,ELAPSED_SECONDS,PSTATE,acc_x,acc_y,acc_z,mag_x,mag_y,mag_z,gyr_x,gyr_y,gyr_z,lin_x,lin_y,lin_z,eul_x,eul_y,eul_z,qua_w,qua_x,qua_y,qua_z
2148157.0,149.326893,1.0,0.14,-2.12,-9.72,6.75,-12.56,43.88,-4.0,4.06,0.37,-0.07248557239078127,-0.30363658854156667,-0.13794404218664091,-157.62647223808008,-19.71519382901285,1.2032334798806035,0.0912,-0.981,-0.1712,0.0105
2148192.0,149.366456,1.0,0.02,-1.48,-9.73,6.88,-12.19,45.06,-1.81,0.94,1.06,0.017812546542958205,0.31036850337307403,-0.03037465714606391,-157.6856148741907,-19.66867198617123,1.1573944243672372,0.0901,-0.9811,-0.1708,0.0101
2148229.0,149.40694,1.0,0.13,-1.9,-9.66,8.0,-12.88,43.5,0.56,1.06,1.63,-0.02395044870739324,-0.11912062548652959,-0.03853850264384029,-157.62647223808008,-19.73845598070809,1.1459346897143055,0.0905,-0.981,-0.1714,0.01
2148261.0,149.430897,1.0,0.16,-1.84,-9.85,8.0,-12.88,43.5,0.37,2.31,0.12,0.024676073768956502,-0.037014700851487295,-0.21491280244275224,-157.62647223808008,-19.726824802228716,1.0886361860699356,0.0906,-0.981,-0.1713,0.0095
2148296.0,149.488269,1.0,0.18,-1.78,-9.97,7.25,-12.19,45.06,-0.56,-0.37,0.31,0.06934508930499483,0.032668703236819474,-0.3223096708851614,-157.62647223808008,-19.73845598070809,1.0886361860699356,0.0906,-0.981,-0.1714,0.0095
2148331.0,149.493255,1.0,0.15,-1.95,-9.75,6.5,-12.19,45.06,-0.81,0.25,2.38,-0.023028195297350132,-0.14954018835820962,-0.13641831085290157,-157.6856148741907,-19.68030213963965,1.100095864564908,0.0908,-0.9811,-0.1709,0.0096
2148366.0,149.546089,1.0,0.03,-1.31,-9.64,6.5,-12.19,45.06,-3.5,-1.63,1.88,0.07305878439598622,0.4436233605663144,0.08839600414341753,-157.80436691060555,-19.59889535760717,1.1230152546764245,0.0898,-0.9813,-0.1702,0.0098
2148401.0,149.566882,1.0,0.03,-1.67,-9.84,6.88,-12.88,44.75,2.19,-2.13,0.88,-0.030029325088613806,0.1477622655463236,-0.17296244500583846,-157.80436691060555,-19.59889535760717,1.1573944243672372,0.09,-0.9813,-0.1702,0.0101
2148435.0,149.612864,1.0,-0.04,-2.32,-9.54,6.5,-12.56,43.06,6.06,-3.0,0.25,-0.29688364834037795,-0.4596307656631747,0.003783089824997532,-157.6856148741907,-19.575638113427956,1.306372069959298,0.0914,-0.9811,-0.17,0.0114
2148470.0,149.639966,1.0,-0.28,-1.75,-9.0,7.25,-12.19,45.06,-0.5,-4.38,5.75,-0.3406682489110281,0.04734240439218311,0.640265552414883,-157.80436691060555,-19.505871262305693,1.4438918508267422,0.0913,-0.9813,-0.1694,0.0126
2148505.0,149.68086,1.0,-0.47,-2.45,-8.35,7.25,-12.19,45.06,2.81,2.94,5.5,-0.7876342326494387,-0.6415290197833066,1.1513641680742506,-157.92374967519896,-19.273367657733324,1.3865917007687605,0.092,-0.9815,-0.1674,0.0121
2148540.0,149.715829,1.0,-1.13,-2.29,-6.6,7.25,-12.56,45.5,-19.19,28.19,3.75,-1.5253561837615606,-0.6129761246913724,2.9234422606375805,-158.2857866564021,-19.08742247639564,0.7906880314747026,0.0895,-0.9821,-0.1658,0.0069
2148577.0,149.755952,1.0,-1.55,-1.83,-4.67,7.25,-12.56,44.25,-22.94,72.31,5.56,-2.0684926764789844,-0.41245164719864935,4.99920559719346,-158.84031180775503,-18.669230437467,-1.7647797695524667,0.0851,-0.983,-0.1622,-0.0154
2148612.0,149.784035,1.0,0.23,-0.68,-5.33,7.25,-12.56,44.25,-31.87,100.94,23.44,-0.2947144507907636,0.21426890213720656,4.440885168210219,-159.21811781644797,-17.845191938186243,-4.75691579950709,0.0813,-0.9836,-0.1551,-0.0415
2148644.0,149.81322,1.0,0.12,-0.93,-4.64,4.25,-14.06,45.5,-17.0,108.06,19.81,-0.7625427940729159,-0.07935876948679607,5.1353406896553055,-159.0283735374385,-16.5471716366683,-8.901253805563371,0.0799,-0.9833,-0.1439,-0.0776
2148681.0,149.869878,1.0,0.92,0.87,-4.68,-0.19,-14.38,44.25,-38.81,173.5,21.94,0.12775292281301137,1.4614557549927396,5.185662414330532,-157.62647223808008,-15.424724640986323,-13.461068017168213,0.0775,-0.981,-0.1342,-0.1172
2148718.0,149.887974,1.0,6.11,-0.06,-10.68,-5.5,-15.56,44.25,8.75,187.88,0.69,1.9509482736087875,0.8447846164426909,-2.312683306148678,-152.7702885732456,-14.373061379793722,-20.92593832998922,0.0828,-0.9719,-0.1251,-0.1816
2148753.0,149.935712,1.0,7.57,-2.2,-12.5,-5.5,-15.56,44.25,-3.69,124.19,-3.31,1.0672869022777545,-0.8124325171045789,-4.910542397783537,-149.33171261025754,-14.130545861300057,-25.042301608577382,0.0882,-0.9644,-0.123,-0.2168
2148790.0,149.967945,1.0,9.68,-1.84,-14.83,-12.88,-16.25,43.06,-11.88,80.75,-12.31,0.9604084832716371,-0.21988764221012436,-7.971037278441562,-146.4319313048688,-13.668786527863627,-28.777535311725245,0.0864,-0.9574,-0.119,-0.2485
2148827.0,149.999829,1.0,12.68,-2.18,-17.98,-15.88,-16.69,40.69,-9.81,50.63,-14.13,1.1541596416873823,-0.3837987390171642,-12.269033773089086,-144.5768347492103,-13.830376539145913,-30.900315264438852,0.0843,-0.9526,-0.1204,-0.2664
2148861.0,150.034542,1.0,10.97,0.47,-16.04,-15.88,-16.69,40.69,6.56,-79.44,11.63,1.8777254215748576,1.9182029601670383,-9.445312098570055,-145.91984007134727,-13.714952301602874,-29.476070502113327,0.0827,-0.9561,-0.1194,-0.2544
2148894.0,150.069832,1.0,9.52,0.24,-14.62,-18.19,-17.75,41.38,33.44,-127.62,3.06,2.70195787422622,1.5646131635827805,-7.35970690221575,-149.59279181341398,-14.188281840563283,-24.713732248446583,0.0877,-0.965,-0.1235,-0.214
2148931.0,150.124992,1.0,6.7,0.0,-11.64,-15.19,-16.69,41.38,55.25,-202.75,15.56,2.6079791993755927,1.2028499787221656,-3.313227911943857,-153.3110465719337,-14.650301303680088,-19.226876578818004,0.0952,-0.973,-0.1275,-0.167
2148968.0,150.144592,1.0,3.44,-1.24,-8.3,-9.5,-15.19,44.25,62.19,-203.0,12.13,1.5726922057851753,-0.04164564993526779,0.8743431946050997,-157.44996317553054,-15.251285971139975,-11.063807546045702,0.1068,-0.9807,-0.1327,-0.0964
2149003.0,150.185729,1.0,0.23,-1.56,-6.22,-9.5,-15.19,44.25,40.69,-188.31,22.25,-0.6037180300788321,-0.0744018519944416,3.418779548544559,-159.15467994543425,-15.459416628401117,-5.456620099259026,0.1119,-0.9835,-0.1345,-0.0476
2149040.0,150.216782,1.0,-1.11,-1.48,-5.24,-1.25,-12.56,46.75,25.62,-141.25,28.44,-1.2009331946176267,0.08058545168027065,4.381581756462137,-159.79792218460952,-15.147239662385429,1.0198783397289317,0.1155,-0.9845,-0.1318,0.0089
2149074.0,150.251953,1.0,-2.2,0.13,-5.61,4.25,-10.25,46.25,30.75,-112.44,16.81,-1.4652680375116378,1.9467679188445546,4.293748382121768,-159.28174778831308,-14.881400387429185,4.6766337060034004,0.118,-0.9837,-0.1295,0.0408
2149109.0,150.316993,1.0,-3.26,-1.61,-3.78,4.25,-10.25,46.25,71.31,-42.75,-18.81,-2.86981497075137,0.3448468027286524,5.4301967880600905,-156.814109146573,-15.366907820940328,7.752301412421159,0.1343,-0.9796,-0.1337,0.0676
2149144.0,150.325999,1.0,-1.42,-6.03,-4.85,9.88,-9.19,46.0,48.06,19.94,-24.87,-2.0393694900282435,-3.739837593401396,3.1919401153471894,-154.89643727544527,-16.072546557241566,7.614481849246591,0.1528,-0.9761,-0.1398,0.0664
2149181.0,150.35688,1.0,0.23,-9.7,-5.98,10.56,-7.0,45.56,5.13,2.06,33.38,-1.1201893247631656,-7.191668107558995,1.0357671648798412,-154.84376268843482,-15.551935573755918,7.52260828051994,0.1578,-0.976,-0.1353,0.0656
2149216.0,150.389966,1.0,0.79,-10.41,-6.7,10.56,-7.0,45.56,-64.62,-7.25,85.06,-0.21447679283790183,-8.21965439492868,0.5182980830416621,-157.98368078519854,-12.838176201348999,7.867159619602529,0.1385,-0.9816,-0.1118,0.0686
2149251.0,150.437439,1.0,-0.04,-5.56,-8.09,10.69,-5.88,45.19,-113.75,5.88,121.37,0.3668051772462573,-3.705741196988815,0.7239061335857748,-162.3040971793563,-9.694547078719877,7.9131051126258125,0.1083,-0.9881,-0.0845,0.069
2149285.0,150.467524,1.0,-0.78,-1.27,-7.56,9.88,-9.19,45.19,-103.87,-6.25,131.69,0.2565733060234936,-0.17838113736985012,2.107477946560304,-167.44083871780595,-5.0436569106979485,8.22327089407658,0.0696,-0.994,-0.044,0.0717
2149322.0,150.489464,1.0,-2.12,7.52,-7.84,8.75,-14.38,44.38,-96.87,4.25,103.87,-0.7386269689985254,8.176083670016032,2.382602180813672,-170.27366439531403,-1.9137679978932431,8.372631359788455,0.0397,-0.9964,-0.0167,0.073
2149357.0,150.542812,1.0,-1.29,9.22,-8.24,8.75,-14.38,44.38,-35.06,25.19,56.88,-0.2987105894942115,9.582543765553563,1.8911129389425172,-172.0592752206678,0.48128596289769454,7.580028689727107,0.0228,-0.9976,0.0042,0.0661
2149392.0,150.575875,1.0,-0.97,9.66,-8.85,6.5,-18.56,42.38,15.56,43.31,-27.25,-0.06649433317127834,10.04643152370439,1.3423844002462513,-173.1234747164887,0.4239897358038088,6.454917855397503,0.0225,-0.9982,0.0037,0.0563
2149429.0,150.659997,1.0,-1.4,4.6,-7.42,4.25,-19.0,42.25,53.88,40.06,-76.56,-0.6320323354248303,5.207402373064695,2.6890734705921417,-173.1234747164887,-1.8908465277120163,4.768384859798278,0.0394,-0.9982,-0.0165,0.0416
2149464.0,150.664956,1.0,-1.9,0.59,-6.93,4.25,-19.0,42.25,68.19,53.0,-83.0,-1.4211914624902606,1.4883225749411975,2.896649222875207,-171.73489373084854,-4.126187708974658,3.335085177891311,0.0561,-0.9974,-0.036,0.0291
2149498.0,150.668944,1.0,-0.51,-1.4,-9.72,4.25,-17.19,45.06,67.25,59.13,-86.37,-0.420204437347928,0.25057327934791945,-0.014711477031070785,-168.1968599368726,-7.269980754447582,0.9511208605830096,0.081,-0.9947,-0.0634,0.0083
2149533.0,150.705533,1.0,2.45,-11.04,-12.07,3.5,-14.88,45.06,95.69,50.5,-101.44,0.537191972884168,-8.548278626413671,-4.342814912478776,-164.27566318431923,-10.131629731204741,-0.7219315974960596,0.1042,-0.9906,-0.0883,-0.0063
2149570.0,150.758556,1.0,2.92,-13.78,-11.21,3.5,-11.88,45.5,19.12,25.94,-37.69,-0.27869822713336445,-10.936332624702866,-4.49012781949669,-161.14943788464134,-12.549930441445206,-2.039837477354927,0.1213,-0.9865,-0.1093,-0.0178
2149605.0,150.824785,1.0,4.08,-13.01,-11.46,3.5,-11.88,45.5,-43.88,10.13,23.56,0.9759609177014015,-10.6543306650227,-4.433112581148476,-162.22975145954382,-11.985198208002227,-2.658762714530565,0.1111,-0.988,-0.1044,-0.0232
2149642.0,150.827773,1.0,2.13,-3.37,-9.56,1.69,-11.5,46.0,-89.0,-8.5,73.44,1.2386776892441953,-1.8924505437134898,-0.30135220230324045,-165.4050127335264,-9.970582425862728,-2.486832027635776,0.0894,-0.9919,-0.0869,-0.0217
2149679.0,150.86268,1.0,1.34,-0.02,-8.89,1.19,-13.0,45.5,-80.19,-5.75,74.56,1.0441852726662715,0.9558554407576556,0.9283552598643183,-169.7471998361046,-7.005907963772472,-2.269061145645111,0.0629,-0.996,-0.0611,-0.0198
2149713.0,150.888014,1.0,0.79,3.77,-9.09,1.19,-13.0,45.5,-56.5,7.63,77.37,0.7635954845009963,4.562534123565392,1.0851074582616924,-172.39746165802458,-4.733977821845079,-2.383676327772471,0.048,-0.9978,-0.0413,-0.0208
2149746.0,150.923479,1.0,0.3,7.66,-9.92,0.75,-16.37,45.06,-57.88,3.63,55.69,0.19304190314561026,8.216493695882118,0.3396564873181944,-175.13792719078657,-2.349291527927613,-2.555603608821701,0.0292,-0.9991,-0.0205,-0.0223
2149783.0,150.964267,1.0,-0.9,9.19,-8.94,-0.25,-17.87,43.06,-20.62,13.63,-5.63,-1.0025024439042103,9.590924206117403,1.3096586664468521,-175.7121263163045,-1.9710720103882062,-2.796311555732279,0.0211,-0.9993,-0.0172,-0.0244
2149818.0,150.992246,1.0,-0.7,6.01,-8.59,-1.37,-19.75,43.06,29.81,24.87,-54.81,-0.8377906240739521,6.526071379570817,1.6147821288145536,-173.72277700249086,-3.7592774051414257,-3.7478120989556993,0.0277,-0.9985,-0.0328,-0.0327
2149853.0,151.032556,1.0,0.32,0.99,-8.14,-1.37,-19.75,43.06,72.31,38.69,-81.87,-0.2223298997880814,1.6839071798947922,1.778130458692333,-170.8302288961765,-6.076199569788739,-4.837200229263812,0.0431,-0.9968,-0.053,-0.0422
2149890.0,151.061507,1.0,0.65,-2.24,-7.52,-1.75,-18.69,44.25,71.62,49.25,-81.81,-0.5043077235033435,-1.2159990197366493,2.044078254501322,-166.33674754112943,-9.280599254023052,-6.5008278159272015,0.0673,-0.9929,-0.0809,-0.0567
2149926.0,151.127017,1.0,3.37,-8.48,-9.13,-1.37,-16.0,43.5,67.87,59.44,-73.06,0.35434559997567816,-7.148087762415243,-0.9359511997368379,-162.75684793649998,-11.535926836248434,-8.142851840335263,0.0851,-0.9887,-0.1005,-0.071
2149959.0,151.132005,1.0,3.38,-9.07,-8.8,-1.37,-16.0,43.5,8.19,55.88,-30.69,-0.3449455038805218,-7.5049420518457985,-0.9025123107407023,-159.79792218460952,-13.230321745568984,-10.338720083250598,0.0969,-0.9845,-0.1152,-0.0901
2149994.0,151.176476,1.0,3.71,-10.72,-8.51,-3.56,-13.38,44.69,4.19,50.63,2.56,-0.7140009002819006,-9.10603127675637,-1.041068520552212,-158.5921035424659,-13.114968872872081,-12.353968967121855,0.0996,-0.9826,-0.1142,-0.1076
2150031.0,151.217902,1.0,4.77,-10.32,-10.1,-4.75,-13.0,44.25,-36.69,37.75,44.5,0.04878741030920386,-8.66676496022073,-2.689353557653366,-158.84031180775503,-11.939110700430108,-13.553381828311744,0.0941,-0.983,-0.104,-0.118
2150068.0,151.240841,1.0,4.74,-6.92,-9.19,-4.75,-13.0,44.25,-71.06,20.37,75.62,1.0966232709804724,-5.758063030323005,-1.1684230084301266,-160.26052613773837,-9.76355056625781,-14.303764676023915,0.0814,-0.9852,-0.0851,-0.1245
2150100.0,151.280825,1.0,3.87,0.11,-9.57,-6.56,-13.75,44.69,-102.81,6.44,106.87,1.357788361379341,0.965344506940003,-0.38150099753746325,-162.98770609304586,-5.582817194583069,-14.754288420181698,0.0557,-0.989,-0.0487,-0.1284
2150137.0,151.316923,1.0,3.52,3.38,-9.74,-8.06,-16.37,43.5,-91.44,2.25,102.69,1.0098940811563915,3.9051554029458613,-0.3132450203887025,-164.78654130633294,-1.100095864564908,-14.800508833176536,0.0284,-0.9912,-0.0096,-0.1288
2150172.0,151.355473,1.0,2.76,6.55,-9.49,-10.0,-19.75,41.5,-68.12,-1.69,74.44,0.0948976985400003,6.832862256444181,0.11731628651524595,-165.1368197605061,1.5584932484256673,-14.742733694368157,0.0126,-0.9916,0.0136,-0.1283
2150207.0,151.404497,1.0,2.29,8.06,-9.73,-10.0,-19.75,41.5,-55.69,2.0,54.38,-0.8303268808979345,8.044394276625628,-0.16725986489507072,-164.70021747025422,4.045922594423996,-14.719624694799501,-0.0034,-0.9911,0.0353,-0.1281
2150244.0,151.42541,1.0,2.27,5.45,-10.22,-11.88,-21.69,41.38,-3.75,9.44,4.81,-0.8851535010101843,5.347922961031635,-0.6776250480192978,-164.3596576972689,4.6536963885673295,-14.916070477056888,-0.0076,-0.9907,0.0406,-0.1298
2150281.0,151.454502,1.0,2.42,2.07,-10.11,-12.88,-22.37,40.69,1.5,6.31,-17.75,-0.47839415754769243,2.002239720241978,-0.5912139697155876,-164.19211217641143,4.149120969117045,-15.262847451308845,-0.0067,-0.9905,0.0362,-0.1328
2150313.0,151.496389,1.0,2.42,-0.47,-9.99,-12.88,-22.37,40.69,13.5,3.81,-14.5,-0.2880241067059863,-0.50610156592514,-0.466533699268906,-164.19211217641143,3.633161082340258,-15.390034075857239,-0.0051,-0.9905,0.0317,-0.1339
2150348.0,151.533536,1.0,2.27,-0.46,-9.9,-12.19,-21.87,40.69,0.5,0.37,-10.94,-0.4146319462247975,-0.5072770593000652,-0.33954388412609227,-164.27566318431923,3.174592245464794,-15.401597439742238,-0.0049,-0.9906,0.0277,-0.134
2150383.0,151.565486,1.0,2.44,-0.2,-9.39,-11.75,-21.87,39.88,-2.69,-0.63,-7.38,-0.12453519958230252,-0.2538546565087318,0.10686913662819642,-164.3596576972689,2.9338644268256844,-15.366907820940328,-0.0059,-0.9907,0.0256,-0.1337
2150420.0,151.607333,1.0,2.56,0.29,-9.77,-11.75,-22.25,41.06,0.56,-0.19,-4.38,-0.1380463297255412,0.22407410322148338,-0.2939110738767816,-164.3596576972689,2.738999060214957,-15.390034075857239,-0.0062,-0.9907,0.0239,-0.1339
2150455.0,151.628592,1.0,2.91,-0.25,-10.24,-11.75,-22.25,41.06,0.25,0.81,-4.5,0.09175718918078712,-0.31282195130911616,-0.836748096708245,-164.3596576972689,2.5670656278548973,-15.436288478593854,-0.0062,-0.9907,0.0224,-0.1343
2150492.0,151.676775,1.0,2.68,-0.19,-9.81,-11.75,-21.19,40.25,0.75,-1.56,-0.31,-0.0063778630824902205,-0.2466470564977852,-0.3616204798989031,-164.44410289964105,2.4753701852018106,-15.366907820940328,-0.0057,-0.9908,0.0216,-0.1337
2150526.0,151.699798,1.0,2.41,0.27,-9.49,-12.5,-21.56,39.75,-0.31,-0.5,-1.69,-0.19817560414054092,0.2014595829069415,0.015774632272226086,-164.44410289964105,2.4753701852018106,-15.343782195666375,-0.006,-0.9908,0.0216,-0.1335
2150561.0,151.737408,1.0,2.27,-0.11,-9.36,-12.5,-21.56,39.75,0.94,0.75,-2.44,-0.2820322461617999,-0.18787507136899842,0.18065598537049787,-164.44410289964105,2.337829975144579,-15.343782195666375,-0.0062,-0.9908,0.0204,-0.1335
