TIME,ELAPSED_SECONDS,PSTATE,acc_x,acc_y,acc_z,mag_x,mag_y,mag_z,gyr_x,gyr_y,gyr_z,lin_x,lin_y,lin_z,eul_x,eul_y,eul_z,qua_w,qua_x,qua_y,qua_z
1420253.0,276.81888,1.0,-0.35,-1.64,-9.58,9.06,-11.88,44.69,1.25,-2.63,0.75,-0.025706164810398086,0.12184782979028419,0.08178535829592448,-155.05511767406654,-22.582922295565638,3.644626018390771,0.0853,-0.9764,-0.1958,0.0318
1420285.0,276.853296,1.0,-0.33,-1.7,-9.7,9.88,-11.88,45.06,2.0,-2.94,-0.37,-0.002415281296263283,0.07888801793744465,-0.04640388430622977,-155.05511767406654,-22.594607753630356,3.7363468303015948,0.0855,-0.9764,-0.1959,0.0326
1420320.0,276.878422,1.0,-0.28,-1.76,-9.66,9.5,-12.25,44.25,0.12,-2.56,-1.0,0.026673416132783873,-0.0008628973448201738,-0.016327541676457002,-155.0021140741398,-22.62966555670664,3.793673550039814,0.0856,-0.9763,-0.1962,0.0331
1420357.0,276.916479,1.0,-0.44,-1.79,-9.5,9.06,-11.5,45.5,2.81,-1.94,0.12,-0.1268376750897891,0.015260848874676824,0.13031911940949392,-154.9492208405226,-22.62966555670664,3.9083298533295405,0.0861,-0.9762,-0.1962,0.0341
1420390.0,276.955333,1.0,-0.5,-1.94,-9.46,9.06,-11.5,45.5,-0.44,-1.0,-1.0,-0.23241295272252727,-0.09963973426607144,0.1401482468960218,-154.89643727544527,-22.653038617520366,3.9656594656748365,0.0864,-0.9761,-0.1964,0.0346
1420427.0,276.987348,1.0,-0.52,-1.81,-9.39,9.06,-12.25,45.06,0.06,-0.31,-0.81,-0.1978065272411273,0.013193318112398128,0.23171926844177904,-154.89643727544527,-22.664725505964547,4.034456312516312,0.0864,-0.9761,-0.1965,0.0352
1420462.0,277.019973,1.0,-0.35,-1.89,-9.55,9.56,-12.25,45.06,0.06,-0.31,0.12,-0.05220036601546235,-0.09533370245682513,0.06574210561131721,-154.84376268843482,-22.676412633281863,4.045922594423996,0.0867,-0.976,-0.1966,0.0353
1420498.0,277.056383,1.0,-0.41,-1.96,-9.52,9.56,-12.25,45.06,-0.19,-0.37,0.5,-0.13218275255989725,-0.1371974343082822,0.08020128610936261,-154.84376268843482,-22.664725505964547,4.068855279934243,0.0869,-0.976,-0.1965,0.0355
1420531.0,277.100906,1.0,-0.35,-1.76,-9.73,10.38,-11.88,44.25,0.12,-0.63,0.37,0.019847713571536252,0.05171352797549299,-0.08728409010239702,-154.84376268843482,-22.664725505964547,4.068855279934243,0.0868,-0.976,-0.1965,0.0355
1420568.0,277.119917,1.0,-0.18,-1.68,-9.78,8.88,-11.88,45.38,1.81,-0.25,1.37,0.21562635435404007,0.0731226290366305,-0.11561578743135392,-154.84376268843482,-22.62966555670664,4.080321683767285,0.0872,-0.976,-0.1962,0.0356
1420603.0,277.167806,1.0,-0.07,-1.35,-10.17,8.88,-11.88,45.38,2.25,-2.25,1.31,0.4894993689647862,0.39750608550200406,-0.43340269907200835,-154.89643727544527,-22.594607753630356,4.11472114096103,0.0876,-0.9761,-0.1959,0.0359
1420636.0,277.205539,1.0,0.17,-1.69,-10.45,10.69,-11.88,45.88,5.88,-9.75,1.0,0.6700265026789445,0.06038479467674257,-0.7590926696981253,-154.73873772257048,-22.582922295565638,4.401398006442045,0.0891,-0.9758,-0.1958,0.0384
1420670.0,277.225518,1.0,0.62,-1.32,-11.18,9.5,-11.06,44.69,12.94,-20.31,3.06,1.4124009776436348,0.3446808579826647,-1.3739366833763125,-154.63414056108866,-22.547867348348838,4.940426564140192,0.0904,-0.9756,-0.1955,0.0431
1420707.0,277.267542,1.0,-0.16,-1.99,-9.92,11.0,-11.5,44.25,25.5,-56.75,8.5,0.6257237829526272,-0.12524451305240356,-0.29210653530659414,-154.0662728728033,-22.431032941974188,6.741872419794731,0.0953,-0.9745,-0.1945,0.0588
1420742.0,277.306229,1.0,-0.4,-2.17,-10.04,11.0,-11.5,44.25,18.69,-42.31,7.31,0.6964459430597596,-0.17720055030619983,-0.44781551573346157,-153.5103719816942,-22.244146955349763,8.590953131273462,0.0984,-0.9734,-0.1929,0.0749
1420779.0,277.38087,1.0,-0.93,-2.27,-9.91,12.88,-10.75,44.25,16.81,-40.94,10.56,0.3990370700452628,-0.09078519102551254,-0.39425326715336695,-153.01476916887478,-22.139049946746336,9.959079806154525,0.1003,-0.9724,-0.192,0.0868
1420816.0,277.396832,1.0,-1.9,-2.58,-8.84,13.69,-10.38,44.56,28.87,-47.88,11.56,-0.48342243008136987,-0.13469395774911444,0.4172857887320127,-152.23986727877065,-21.800531789289547,11.89302513102135,0.1055,-0.9708,-0.1891,0.1036
1420849.0,277.418973,1.0,-2.67,-3.56,-7.88,13.69,-10.38,44.56,30.25,-29.19,12.44,-1.5326829574282546,-0.8208662576428248,0.925548630289569,-151.6255402012684,-21.43888030792546,13.138038375794714,0.1118,-0.9695,-0.186,0.1144
1420883.0,277.472592,1.0,-3.3,-3.73,-7.2,14.75,-10.0,43.75,19.12,-22.12,13.38,-2.1632640611214864,-0.8230816739721438,1.3635625812987424,-151.207760054273,-20.949244597725627,14.165187015253304,0.1165,-0.9686,-0.1818,0.1233
1420920.0,277.479572,1.0,-4.32,-4.26,-5.28,16.0,-8.06,42.69,0.56,5.69,8.63,-3.7800081623115087,-1.2737906527584388,2.8225684092821766,-151.34635737161238,-20.69292362085707,14.211377245158012,0.1173,-0.9689,-0.1796,0.1237
1420957.0,277.520049,1.0,-4.89,-4.67,-4.06,16.69,-8.06,44.56,-7.63,31.25,8.31,-4.859264640998339,-1.7003413745054274,3.8316197608390095,-152.23986727877065,-20.27371434520358,13.17264363329991,0.1163,-0.9708,-0.176,0.1147
1420990.0,277.550976,1.0,-4.22,-3.35,-4.86,16.69,-8.06,44.56,-24.75,64.0,11.69,-3.798023356517223,-0.6595729606090815,3.6592536330017706,-153.56043390061225,-19.784982749875187,11.466824127666603,0.1128,-0.9735,-0.1718,0.0999
1421027.0,277.596929,1.0,-3.84,-3.8,-4.1,14.06,-8.88,43.75,-32.13,89.06,4.06,-4.0274487255547475,-1.4245241563791797,4.539203968865022,-155.6456486519571,-19.06418290551579,8.349651905481078,0.1088,-0.9775,-0.1656,0.0728
1421062.0,277.616383,1.0,-1.28,-1.95,-6.17,12.56,-10.0,44.69,-59.06,110.5,6.0,-1.0686926807795865,-0.26519036467844825,3.3030071727431194,-157.39142911741774,-18.669230437467,5.123950007684243,0.1003,-0.9806,-0.1622,0.0447
1421096.0,277.668144,1.0,0.45,1.16,-8.12,12.56,-10.0,44.69,-37.75,125.56,11.25,1.0474300631792575,2.361573051732886,2.0086782775533676,-159.3455716366145,-17.90319186690899,0.28647919598176924,0.0889,-0.9838,-0.1556,0.0025
1421131.0,277.693995,1.0,2.85,-1.36,-11.2,7.69,-11.5,45.06,1.19,117.94,1.19,1.983173484775146,0.01225828629650777,-1.659778069093786,-159.4738082027549,-17.277034050168417,-3.2892294003721183,0.0916,-0.984,-0.1502,-0.0287
1421168.0,277.733023,1.0,3.28,-2.2,-10.01,3.56,-13.0,44.56,-39.19,92.31,1.63,1.4772402224767371,-1.0233656552852066,-0.8032031592421003,-158.84031180775503,-16.9525653616307,-7.212570385921346,0.0901,-0.983,-0.1474,-0.0629
1421203.0,277.771124,1.0,4.5,1.16,-11.77,3.56,-13.0,44.56,-35.38,92.37,17.31,2.8545968638390886,2.12303896051927,-2.3371748635706737,-158.65388815245834,-16.234582036054892,-9.982085146289721,0.083,-0.9827,-0.1412,-0.087
1421238.0,277.808024,1.0,6.22,0.7,-13.65,-0.56,-14.5,45.88,-11.25,64.81,3.88,3.256671323301884,1.7402475129542208,-4.748985695002808,-157.56748354792904,-15.470980940849387,-13.17264363329991,0.0814,-0.9809,-0.1346,-0.1147
1421273.0,277.839946,1.0,7.14,0.75,-15.22,-3.5,-14.88,45.06,5.25,32.5,0.37,3.4201700925293195,2.026179286303826,-6.545338687554837,-156.58711361479934,-15.332219618835126,-14.604088706058507,0.0842,-0.9792,-0.1334,-0.1271
1421309.0,277.868495,1.0,7.71,-1.2,-15.56,-5.38,-15.56,43.69,27.31,-7.0,-1.94,3.36750052187149,0.29891761262728817,-7.2687208157702,-156.25063177900063,-15.459416628401117,-14.534774284595127,0.0906,-0.9786,-0.1345,-0.1265
1421344.0,277.916522,1.0,6.36,-1.75,-13.94,-5.38,-15.56,43.69,12.44,-49.06,0.75,2.7483728970150065,-0.2197407933663149,-5.366809078360612,-156.87120131517742,-15.690733139619654,-12.89583508427226,0.0942,-0.9797,-0.1365,-0.1123
1421381.0,277.954978,1.0,4.02,-3.18,-10.47,-5.38,-14.5,45.75,10.06,-84.06,7.5,1.2401884805441683,-1.8061436501701378,-1.6429560040368028,-157.863978815261,-15.898972996932857,-10.672437176186932,0.0947,-0.9814,-0.1383,-0.093
1421416.0,277.975956,1.0,1.09,-3.6,-6.94,-3.88,-14.06,45.0,2.25,-92.06,17.69,-0.63983023608241,-2.3154320577740175,2.2872689313995336,-159.79792218460952,-15.644464720667997,-7.1207175606295605,0.0917,-0.9845,-0.1361,-0.0621
1421451.0,278.009856,1.0,-0.41,-4.07,-5.63,-3.88,-14.06,45.0,-14.63,-65.75,28.5,-1.8358819129128294,-2.7324212191749386,3.675311493373404,-161.14943788464134,-15.10100089527667,-4.997776256010228,0.0871,-0.9865,-0.1314,-0.0436
1421486.0,278.049059,1.0,-1.04,-3.8,-5.45,-0.5,-14.06,44.19,-33.31,-43.38,40.06,-2.1309627405797578,-2.55764152801836,3.963571392586206,-163.4590136286695,-13.772662665221276,-3.2204467196467967,0.0752,-0.9896,-0.1199,-0.0281
1421520.0,278.105319,1.0,-1.69,-3.11,-5.45,1.69,-14.88,45.75,-58.31,-18.56,44.88,-2.500608026200498,-1.966259828801767,4.139950626913218,-165.4050127335264,-12.50381856554563,-2.589989743099662,0.061,-0.9919,-0.1089,-0.0226
1421557.0,278.121412,1.0,-2.16,-1.54,-5.66,2.5,-15.56,44.19,-83.62,-2.69,47.81,-2.6274168999116423,-0.691978946925249,4.177205482903227,-168.30883818145554,-10.6148933492606,-2.6243761106355543,0.0355,-0.9948,-0.0925,-0.0229
1421592.0,278.159973,1.0,-1.77,1.64,-6.49,2.5,-15.56,44.19,-57.5,40.81,35.94,-1.8610492136225167,2.188996102725656,3.506856996517511,-169.7471998361046,-9.315090195791667,-3.5987664920103746,0.0197,-0.996,-0.0812,-0.0314
1421629.0,278.187482,1.0,-0.26,2.16,-8.23,1.69,-19.0,42.88,-48.31,65.19,13.88,-0.8030498778711982,2.3270530184703793,1.6576601765385082,-169.61974434488633,-8.407101173980415,-6.087674884576737,0.0054,-0.9959,-0.0733,-0.0531
1421666.0,278.229933,1.0,0.17,2.28,-8.09,-0.5,-21.25,42.5,-21.12,65.31,10.94,-0.6428405909492696,2.2889595177438737,1.742977120923264,-168.6513771745933,-8.039461810968866,-8.016487142063687,-0.0015,-0.9951,-0.0701,-0.0699
1421699.0,278.251351,1.0,2.02,1.58,-9.93,-0.5,-21.25,42.5,-11.94,74.31,3.38,0.2963481719548413,1.341885646630601,-0.3566772441826753,-166.62885834304856,-7.729330710703709,-10.902639624835572,-0.004,-0.9932,-0.0674,-0.095
1421733.0,278.293912,1.0,3.38,1.89,-11.36,-2.75,-22.0,40.75,-12.31,62.69,-3.81,0.8623988937745592,1.4359006110093766,-2.077817071910262,-164.44410289964105,-7.763786880218298,-13.437990937987555,-0.007,-0.9908,-0.0677,-0.117
1421770.0,278.337352,1.0,4.57,0.48,-12.04,-6.06,-22.75,41.19,6.25,47.81,-2.06,1.3290969218678184,-0.06246561757888262,-3.011559680719925,-163.06535294380294,-7.8212153932673,-14.950741939900693,-0.0054,-0.9891,-0.0682,-0.1301
1421805.0,278.362284,1.0,4.96,0.21,-12.03,-6.06,-22.75,41.19,-2.19,27.56,-5.31,1.445511070092233,-0.35743284002778297,-3.121974811290274,-162.15571301144445,-7.936078336486531,-15.945255673236543,-0.0047,-0.9879,-0.0692,-0.1387
1421840.0,278.411976,1.0,4.22,0.84,-10.66,-7.56,-23.5,42.06,-3.69,7.38,-2.63,1.1039183959760792,0.3193136403414428,-1.631400663208197,-161.64573705685663,-8.073924421552887,-16.43138337904295,-0.0063,-0.9872,-0.0704,-0.1429
1421877.0,278.437586,1.0,4.08,0.61,-10.68,-9.5,-24.25,40.0,3.38,3.0,0.75,0.904677892733198,0.1334845877717907,-1.6058273723862087,-161.5740259283265,-7.924591684679524,-16.581911426258042,-0.0057,-0.9871,-0.0691,-0.1442
1421912.0,278.472943,1.0,3.11,0.37,-9.69,-9.06,-23.5,39.69,0.44,-8.44,-2.5,0.26779030878035304,0.02354548611595162,-0.37337131434934356,-161.71772704701445,-7.970538771598189,-16.396650200988272,-0.0054,-0.9873,-0.0695,-0.1426
1421946.0,278.507582,1.0,2.67,0.55,-9.43,-9.06,-23.5,39.69,0.63,-9.44,-2.13,0.011159802938158325,0.2522848698595441,-0.0062256133581133355,-162.00854277151578,-8.050949266749551,-16.026256661631813,-0.0055,-0.9877,-0.0702,-0.1394
1421981.0,278.545061,1.0,2.21,0.32,-9.1,-8.0,-23.5,42.19,3.38,-9.56,-1.0,-0.32014908443320345,0.0948256827960731,0.4426224128119465,-162.22975145954382,-8.23475966058657,-15.748572284340511,-0.0047,-0.988,-0.0718,-0.137
1422018.0,278.592061,1.0,2.06,0.27,-8.84,-8.25,-23.06,42.06,3.88,-5.63,-2.5,-0.3562865736295334,0.07543186363990087,0.7330911661465951,-162.37875406030932,-8.361141590530956,-15.482545411826456,-0.0038,-0.9882,-0.0729,-0.1347
1422051.0,278.62198,1.0,2.22,0.12,-9.06,-8.25,-23.06,42.06,5.0,-1.25,-0.56,-0.26752340464848645,-0.07523459245159013,0.48199606625726155,-162.45372607444324,-8.41859128124216,-15.390034075857239,-0.0027,-0.9883,-0.0734,-0.1339
1422086.0,278.653973,1.0,2.22,0.33,-9.22,-7.19,-23.5,40.88,1.88,0.69,-2.63,-0.2688513186175152,0.14486963189670293,0.322324417322454,-162.45372607444324,-8.556479215940191,-15.332219618835126,-0.002,-0.9883,-0.0746,-0.1334
1422123.0,278.68794,1.0,2.55,-0.1,-9.29,-7.19,-22.37,40.0,4.06,1.63,-3.56,-0.03763768306976445,-0.3140246294180207,0.17770551283360803,-162.37875406030932,-8.705871826379285,-15.343782195666375,-0.0011,-0.9882,-0.0759,-0.1335
