TIME,ELAPSED_SECONDS,PSTATE,acc_x,acc_y,acc_z,mag_x,mag_y,mag_z,gyr_x,gyr_y,gyr_z,lin_x,lin_y,lin_z,eul_x,eul_y,eul_z,qua_w,qua_x,qua_y,qua_z
2455934.0,457.662654,1.0,0.63,-1.29,-9.51,2.75,-13.5,45.69,0.88,0.88,3.94,-0.004662460738934282,0.26196590760039506,0.19247025731185907,-161.4314273445042,-15.505674829864251,-2.922401528803222,0.0845,-0.9869,-0.1349,-0.0255
2455967.0,457.709429,1.0,0.72,-0.98,-9.66,3.06,-13.88,45.69,0.37,2.31,2.75,0.1514904110267417,0.5667160859931801,0.08809642792748207,-161.50259041794217,-15.390034075857239,-2.991179359701173,0.0848,-0.987,-0.1339,-0.0261
2456004.0,457.734549,1.0,0.61,-1.3,-9.56,2.38,-13.88,45.69,1.19,0.88,-1.5,-0.04146905794418221,0.27441708255595215,0.14338576983249673,-161.50259041794217,-15.401597439742238,-3.014105541619682,0.0848,-0.987,-0.134,-0.0263
2456039.0,457.775297,1.0,0.72,-1.76,-9.77,2.38,-13.88,45.69,4.88,2.44,-0.56,-0.07451694683053861,-0.1289833669847481,-0.14557138598595998,-161.36053358743408,-15.424724640986323,-3.082884815106741,0.086,-0.9868,-0.1342,-0.0269
2456074.0,457.820408,1.0,0.74,-2.2,-9.71,2.0,-13.88,44.38,2.81,3.63,-0.06,-0.184002216022779,-0.5427437762563425,-0.16045952973999,-161.28990608516978,-15.447852474357365,-3.163128706652845,0.0869,-0.9867,-0.1344,-0.0276
2456109.0,457.840785,1.0,0.81,-1.98,-9.92,2.75,-13.88,45.25,-3.31,0.5,3.25,-0.07281546044725051,-0.32329956620200895,-0.33598650631399885,-161.4314273445042,-15.343782195666375,-3.2204467196467967,0.0864,-0.9869,-0.1335,-0.0281
2456145.0,457.871379,1.0,0.53,-1.49,-9.44,2.38,-13.5,44.88,0.75,0.12,2.38,-0.19319930944141553,0.12289930255642952,0.2378376500653161,-161.50259041794217,-15.262847451308845,-3.2089830530311807,0.0861,-0.987,-0.1328,-0.028
2456178.0,457.913487,1.0,0.66,-1.62,-9.66,2.38,-13.5,44.88,-1.12,4.06,0.5,-0.13072900669586124,0.006018995489906361,-0.009585210023322688,-161.50259041794217,-15.21660246715643,-3.335085177891311,0.086,-0.987,-0.1324,-0.0291
2456215.0,457.96054,1.0,0.84,-1.77,-9.96,2.38,-13.19,44.5,-3.69,1.81,1.88,-0.024923631201096308,-0.1412907792833927,-0.34320299047712055,-161.5740259283265,-15.18192036535379,-3.426798342942307,0.0853,-0.9871,-0.1321,-0.0299
2456250.0,458.000102,1.0,0.68,-1.66,-9.55,2.0,-13.88,44.88,-4.88,-1.19,4.06,-0.13161520837020485,-0.09362049959952173,0.09097129807801707,-161.7899992062843,-15.020088998588148,-3.40386984812725,0.084,-0.9874,-0.1307,-0.0297
2456285.0,458.022044,1.0,0.56,-1.38,-9.66,2.0,-13.88,44.88,-4.75,2.31,6.0,-0.18648921769232168,0.20000555876787043,0.03634705955099271,-162.00854277151578,-14.84673166768115,-3.4497269749928665,0.0828,-0.9877,-0.1292,-0.0301
2456317.0,458.055529,1.0,0.77,-1.25,-10.57,1.56,-13.88,44.06,-7.88,-2.19,6.38,0.01949763257930387,0.3762025407251851,-0.8581702746542188,-162.37875406030932,-14.592535930080526,-3.40386984812725,0.0804,-0.9882,-0.127,-0.0297
2456354.0,458.096852,1.0,0.22,0.33,-10.61,1.25,-14.69,45.69,2.0,-17.31,11.0,-0.03981826488174961,1.9948258870265156,-0.6216041293464212,-162.68057392822612,-14.338412369029564,-2.9797163137078666,0.0793,-0.9886,-0.1248,-0.026
2456391.0,458.120487,1.0,0.1,1.57,-10.1,1.25,-14.69,45.69,16.44,-30.87,5.81,0.3688063552590023,3.1723949544224825,0.09661436023660386,-162.8334582675195,-14.165187015253304,-1.8450038134157025,0.0829,-0.9888,-0.1233,-0.0161
2456424.0,458.173044,1.0,-0.22,2.42,-8.45,2.0,-14.25,44.88,49.13,-21.81,-19.37,0.4494735128544205,3.9037545434441694,1.9411573882317281,-161.9354035928643,-14.592535930080526,-0.9969591404369118,0.0916,-0.9876,-0.127,-0.0087
2456461.0,458.204955,1.0,-0.95,3.87,-6.01,3.06,-13.5,44.88,96.12,-2.69,-49.0,0.3139529224103013,5.251955992961797,4.8753325481923495,-159.09143242656373,-16.03782888845279,-0.3093975852894872,0.1161,-0.9834,-0.1395,-0.0027
2456496.0,458.228923,1.0,-0.31,-0.13,-4.34,4.56,-11.25,45.69,135.69,34.81,-101.94,-0.18240106649247792,1.2415200539846316,5.638442014966575,-154.84376268843482,-18.35575126897081,-0.7104722177704716,0.1481,-0.976,-0.1595,-0.0062
2456530.0,458.272402,1.0,1.84,-6.42,-5.41,4.56,-11.25,45.69,123.69,60.75,-106.62,-0.6075438959489325,-4.025902587057436,2.2374295134492606,-147.72605283657722,-22.60629344975137,-2.681687249969397,0.1958,-0.9606,-0.196,-0.0234
2456565.0,458.293477,1.0,2.31,-6.58,-4.35,4.56,-6.38,46.88,51.56,45.75,-18.69,-0.4624605567259523,-4.417515513356634,2.8909658745698765,-144.99354106549774,-23.740958889771715,-3.8853982832056504,0.2168,-0.9537,-0.2057,-0.0339
2456602.0,458.339845,1.0,1.91,-4.82,-3.94,2.75,-2.0,47.38,29.56,83.69,-37.06,-0.3173952031198256,-2.7816886605152633,3.9274010274698066,-143.24503868567004,-23.98691540045918,-6.236859579751597,0.2307,-0.949,-0.2078,-0.0544
2456637.0,458.371566,1.0,3.29,-8.74,-5.1,2.75,-2.0,47.38,7.44,109.19,-54.19,-1.1919685579873,-5.6635031943100955,0.8777283111951846,-141.29579335128196,-24.78412249918103,-9.303593121383253,0.239,-0.9435,-0.2146,-0.0811
2456672.0,458.404483,1.0,4.83,-10.33,-7.45,-0.19,-0.06,49.0,-21.44,107.87,-7.75,-1.407233394827251,-6.028648870980422,-2.326584810342604,-139.5691405181039,-24.702001461626935,-13.807290567361372,0.2435,-0.9384,-0.2139,-0.1202
2456707.0,458.450471,1.0,5.44,-9.47,-8.38,-4.69,0.56,46.88,-66.94,82.06,26.56,-1.007104341941952,-5.203804447978394,-2.8978791180603025,-140.305127821115,-22.75822922439662,-17.288624783675058,0.2318,-0.9406,-0.1973,-0.1503
2456743.0,458.473484,1.0,6.14,-7.93,-9.81,-8.06,-2.06,46.88,-97.37,86.56,45.06,-0.33750425858656286,-3.693063217909339,-3.7236114514266117,-141.5385921220968,-20.623036118505983,-19.912948378447748,0.2159,-0.9442,-0.179,-0.1729
2456778.0,458.518921,1.0,6.38,-5.06,-11.52,-8.06,-2.06,46.88,-106.69,71.37,63.25,0.10195442428256252,-0.9485399898691567,-4.268444215776611,-143.64697188895283,-17.02208275037734,-22.875130477358805,0.1901,-0.9501,-0.148,-0.1983
2456815.0,458.554529,1.0,8.73,-3.67,-14.3,-12.19,-5.06,46.06,-89.81,52.69,73.06,1.3571949949872733,0.7228401081481367,-7.27571880305638,-145.06982302382067,-14.072813487232235,-24.549525110224607,0.1729,-0.9539,-0.1225,-0.2126
2456852.0,458.61691,1.0,8.66,-2.0,-14.62,-15.88,-8.38,44.0,-90.44,0.88,85.44,1.5880806313496865,1.9965310798459486,-7.111738326183476,-147.93284627196644,-9.890066196362191,-24.889725700371912,0.1498,-0.9611,-0.0862,-0.2155
2456885.0,458.619918,1.0,6.88,1.3,-13.3,-15.88,-8.38,44.0,-86.37,-28.19,95.5,1.3081382126923433,4.600839314773279,-4.442400916328797,-150.52434170035056,-6.799268354310191,-24.045492963672757,0.1335,-0.9671,-0.0593,-0.2083
2456920.0,458.658752,1.0,5.67,2.46,-12.29,-16.25,-10.56,43.19,-66.19,-45.19,81.0,0.9786966568120734,5.217485997946944,-2.884472594757817,-153.91350924378722,-3.300693295071686,-22.11569761985897,0.1152,-0.9742,-0.0288,-0.1918
2456956.0,458.720432,1.0,4.62,3.63,-11.88,-15.88,-12.06,42.75,-41.56,-76.69,50.38,0.5591415311394532,6.08073245156837,-1.956332342951912,-156.5307030363511,-1.627254827906764,-20.040939097265657,0.1046,-0.9791,-0.0142,-0.174
2456993.0,458.728445,1.0,2.79,4.17,-9.94,-14.75,-13.25,43.69,-4.06,-88.81,21.12,0.02799482147166832,6.109962569040834,0.49836478225496883,-159.79792218460952,-0.60733810621587,-16.570331326030242,0.1,-0.9845,-0.0053,-0.1441
2457028.0,458.771904,1.0,1.84,4.08,-8.92,-14.75,-13.25,43.69,31.37,-93.44,-3.0,-0.006287790237599067,5.92163307224424,1.773430083839532,-161.9354035928643,-1.0771765184626354,-12.988096123558291,0.1083,-0.9876,-0.0094,-0.1131
2457065.0,458.821551,1.0,1.56,4.13,-8.83,-11.88,-12.88,43.69,69.12,-106.5,-34.56,0.298523958760862,6.136301053387222,2.0790311669929897,-162.52901727888843,-2.383676327772471,-10.120125690641803,0.1221,-0.9884,-0.0208,-0.0882
2457100.0,458.84748,1.0,-0.01,3.24,-5.77,-8.5,-11.75,45.25,112.06,-114.44,-64.56,-0.15772629769961238,4.858843968069162,5.31695538800556,-160.3946831522595,-5.491036825631306,-5.96144975723111,0.1547,-0.9854,-0.0479,-0.052
2457135.0,458.885501,1.0,0.77,-2.76,-5.4,-8.5,-11.75,45.25,132.63,-97.81,-77.0,0.16264818283306093,-0.6383734930710625,3.7291073344183445,-156.5307030363511,-8.487533709607298,-3.426798342942307,0.187,-0.9791,-0.074,-0.0299
2457169.0,458.903482,1.0,0.36,-4.06,-4.66,-3.19,-8.38,46.06,93.5,-70.25,-76.87,-0.3356644759179672,-1.6923221975546525,3.860880500660951,-152.09692309623645,-12.077379068441182,-0.7563097804494618,0.2169,-0.9705,-0.1052,-0.0066
2457206.0,458.949817,1.0,1.26,-9.29,-4.48,0.88,-3.56,48.19,66.25,-19.56,-86.19,-0.8442839501265027,-6.249587714130716,1.5488089979616824,-148.98694437514695,-14.777398324484167,-0.26356081813331494,0.2342,-0.9636,-0.1286,-0.0023
2457241.0,458.973455,1.0,2.19,-11.7,-4.19,2.25,0.06,46.88,28.19,-3.75,-50.19,-0.9596158893644209,-8.423769741254077,0.45991577401435,-146.71084020226166,-16.97573712493423,-0.4010712754482724,0.2453,-0.9581,-0.1476,-0.0035
2457276.0,459.018845,1.0,2.15,-7.68,-5.13,2.25,0.06,46.88,-41.19,-0.56,4.25,0.1702984357164301,-4.719711816228761,1.5836871024463974,-147.35703857325035,-17.103194349757633,-0.48128596289769454,0.2386,-0.9597,-0.1487,-0.0042
2457313.0,459.040052,1.0,1.59,-4.32,-5.18,3.06,0.56,47.38,-57.56,22.87,4.44,0.5282316624837882,-1.9155157121059057,3.167774276850408,-149.20198320614298,-16.720885966499374,-1.1344749665222489,0.2222,-0.9641,-0.1454,-0.0099
2457348.0,459.084476,1.0,-0.3,-0.13,-5.22,2.38,-0.88,46.88,-35.31,42.06,-6.81,-0.2205493190570968,2.1314583549966564,5.035534482767327,-150.2999543864518,-16.524012627926176,-2.4180613422720283,0.2113,-0.9666,-0.1437,-0.0211
2457382.0,459.122937,1.0,-1.47,-2.93,-5.05,2.38,-0.88,46.88,44.13,113.69,-48.5,-2.436720145485342,0.0975729669819842,4.30199974328975,-148.60349534227026,-16.917809025605248,-5.582817194583069,0.2217,-0.9627,-0.1471,-0.0487
2457417.0,459.150675,1.0,2.45,-9.8,-9.11,1.25,-2.38,47.75,37.63,153.0,-43.0,-1.753737745778205,-4.474511440673773,-2.9188264659839867,-145.7248595525418,-17.450913825320043,-9.729048380447907,0.2379,-0.9556,-0.1517,-0.0848
2457454.0,459.186904,1.0,4.15,-5.62,-11.88,-3.56,-0.19,47.75,-78.62,111.75,3.94,-0.18643796781820798,0.02071933560043518,-3.9739926407946644,-144.9554604078314,-16.361918539628217,-14.950741939900693,0.2316,-0.9536,-0.1423,-0.1301
2457489.0,459.232782,1.0,3.68,-1.71,-13.19,-3.56,-0.19,47.75,-74.81,46.69,21.0,-0.18304270968765457,3.752122748906107,-3.4723059169225188,-145.91984007134727,-15.135679738336451,-17.219083051744406,0.2147,-0.9561,-0.1317,-0.1497
2457524.0,459.280038,1.0,1.99,-0.41,-9.97,-8.5,-1.69,47.38,8.19,-31.94,9.69,-0.5538846358075941,3.6041335422552536,0.3075693487050053,-147.23493252348757,-14.315313760812993,-16.767216307875252,0.207,-0.9594,-0.1246,-0.1458
2457559.0,459.293507,1.0,3.79,-4.77,-9.96,-10.69,-4.69,46.06,60.75,-19.75,-13.75,0.004701251363472325,-0.27269801862391574,-1.8657196689607236,-146.03734965989693,-15.112560354905924,-15.713868313956251,0.2219,-0.9564,-0.1315,-0.1367
2457595.0,459.335451,1.0,3.34,-5.3,-7.85,-10.0,-3.19,46.06,34.19,-35.44,2.81,0.007340672326626496,-1.4557680906436647,-0.1305923428632081,-145.4536804163923,-15.528804883509121,-14.661854827129085,0.2318,-0.9549,-0.1351,-0.1276
2457630.0,459.373024,1.0,2.83,-5.42,-5.54,-10.0,-3.19,46.06,24.0,-22.62,9.0,0.053462201236816664,-2.4707229267100153,1.9345746692839363,-145.1845495539276,-15.598198868035936,-13.51876311679545,0.239,-0.9542,-0.1357,-0.1177
2457665.0,459.394999,1.0,1.72,-6.54,-2.28,-8.88,-1.25,46.5,2.88,34.25,7.06,-0.8053864200048262,-4.755690128762835,4.547071679102063,-144.9554604078314,-15.274409087771584,-13.818833482803015,0.2418,-0.9536,-0.1329,-0.1203
2457702.0,459.479386,1.0,2.32,-7.65,-1.4,-8.06,-0.19,46.06,-39.56,89.25,18.0,-0.4306068737996702,-6.273449087211764,4.67602486553555,-144.841458151918,-13.761120312162008,-16.801965875210325,0.2356,-0.9533,-0.1198,-0.1461
2457737.0,459.483373,1.0,4.36,-3.6,-4.6,-8.06,-0.19,46.06,-103.37,130.13,48.06,1.7035290951066067,-1.5964988577524855,2.901667739391339,-145.41510886588998,-11.37469368630907,-20.23879269230359,0.2185,-0.9548,-0.0991,-0.1757
2457772.0,459.513426,1.0,5.16,-0.8,-8.44,-11.06,-1.69,46.5,-110.56,132.94,41.75,1.141872491248313,2.3308373964801326,0.22737423171250093,-145.37657897397716,-7.844187348567063,-25.2653784326321,0.1898,-0.9547,-0.0684,-0.2187
2457806.0,459.551515,1.0,6.65,-1.93,-9.36,-16.25,-5.38,43.56,-44.69,109.69,10.25,1.1982845207858541,1.5216807168034874,-1.674012089067574,-143.94200484154302,-6.122101196043245,-28.682903338517615,0.1776,-0.9509,-0.0534,-0.2477
2457843.0,459.587654,1.0,8.17,-0.4,-11.08,-20.75,-8.0,43.75,-54.0,81.62,23.56,1.165255652842144,3.4532331630338833,-3.4746398464434733,-142.20517991761645,-4.263789782102698,-32.12669742786024,0.1639,-0.9461,-0.0372,-0.2767
2457878.0,459.621406,1.0,8.63,0.68,-13.82,-20.75,-8.0,43.75,-51.69,47.94,16.62,-0.3330177533638716,5.123984502804685,-5.671256253462127,-141.43435545776623,-2.681687249969397,-34.12323828365854,0.1498,-0.9439,-0.0234,-0.2934
2457915.0,459.656905,1.0,7.27,0.38,-11.5,-23.75,-9.5,40.88,-21.25,9.44,-3.13,-0.3509399278741343,3.9539078975343456,-3.212211451941153,-141.43435545776623,-2.280522559802512,-34.54300944397086,0.1432,-0.9439,-0.0199,-0.2969
2457950.0,459.686671,1.0,7.1,-0.62,-11.01,-25.19,-11.0,39.19,-2.13,-1.81,-8.38,-0.3587773103672145,2.7670752591008556,-3.0085391656751437,-141.50381639674873,-2.4639083675369537,-34.61501807279963,0.1403,-0.9441,-0.0215,-0.2975
2457985.0,459.722915,1.0,6.1,-1.86,-9.58,-25.19,-11.0,39.19,13.5,-22.62,-9.44,-0.45069127816404153,1.1432740138489106,-1.6360682916055662,-141.81789497427926,-2.899475820391489,-34.14721243955784,0.1418,-0.945,-0.0253,-0.2936
2458019.0,459.774401,1.0,5.7,-2.5,-9.07,-24.75,-11.0,38.75,11.5,-24.69,-10.88,-0.42509214235093484,0.38809402263156667,-1.178502693527257,-142.45363711540872,-3.5529075421905287,-33.22530683110648,0.1445,-0.9468,-0.031,-0.2859
2458056.0,459.790436,1.0,4.63,-2.24,-7.32,-23.75,-10.56,39.56,5.38,-27.06,-7.81,-0.23900153531036317,0.0940511014523228,0.8640031515308664,-143.06373822672285,-3.9771255068430276,-32.44879621422149,0.1455,-0.9485,-0.0347,-0.2794
2458091.0,459.860815,1.0,5.07,-2.31,-8.08,-23.06,-10.56,40.75,4.44,-19.94,-8.25,-0.1494104747349696,0.2356116435119669,-0.004036197380946405,-143.683724321721,-4.4587366294239885,-31.649991911429222,0.1459,-0.9502,-0.0389,-0.2727
2458126.0,459.895695,1.0,4.62,-2.97,-7.53,-23.06,-10.56,40.75,7.25,-22.44,-6.75,-0.2617784588706664,-0.5598914480207492,0.5069621770188135,-144.1275913572786,-4.8486696265391345,-30.98354512892485,0.1472,-0.9514,-0.0423,-0.2671
2458163.0,459.91017,1.0,5.18,-2.71,-8.51,-21.87,-10.56,42.06,3.56,-26.12,2.94,-0.0869120559937615,-0.01172595493661216,-0.517540466884256,-144.72781275910324,-5.15836210329675,-30.14012428977767,0.1487,-0.953,-0.045,-0.26
2458198.0,459.971037,1.0,5.03,-2.01,-8.28,-21.06,-10.25,42.5,-3.25,-26.37,-4.5,0.14960655846690152,0.5555659351343015,-0.07101998686339961,-145.4536804163923,-5.376316314590642,-29.298371692491795,0.1483,-0.9549,-0.0469,-0.2529
2458232.0,459.985997,1.0,5.04,-2.59,-8.31,-21.06,-10.25,42.5,10.0,-29.69,-6.31,0.2180377545704899,-0.001167420977380984,-0.24910746399594252,-146.19464572787078,-5.858180044713635,-28.245489095128868,0.1495,-0.9568,-0.0511,-0.244
2458267.0,460.01014,1.0,4.22,-2.27,-7.9,-19.56,-10.25,43.25,13.31,-41.88,-0.44,-0.08230739325910141,0.21623041593159167,0.5698881269061093,-146.9114591288739,-6.374577915681861,-27.06536707365855,0.1525,-0.9586,-0.0556,-0.234
2458304.0,460.03894,1.0,4.31,-3.04,-7.95,-19.19,-9.5,43.19,12.88,-31.94,-9.31,0.039819106638485646,-0.4861964137504592,0.2786792041797952,-147.68484875398153,-7.028869316139516,-25.688318141008548,0.1556,-0.9605,-0.0613,-0.2223
2458339.0,460.0709,1.0,3.54,-3.3,-7.39,-19.19,-9.5,43.19,5.75,-23.56,-2.63,-0.36336987841908064,-0.8711007866500717,1.0235499919757647,-148.1827256280383,-7.338875609975954,-24.901460713527143,0.157,-0.9617,-0.064,-0.2156
