TIME,ELAPSED_SECONDS,PSTATE,acc_x,acc_y,acc_z,mag_x,mag_y,mag_z,gyr_x,gyr_y,gyr_z,lin_x,lin_y,lin_z,eul_x,eul_y,eul_z,qua_w,qua_x,qua_y,qua_z
2125860.0,126.991374,1.0,0.0,-2.11,-9.41,6.88,-10.06,46.0,1.25,1.06,0.31,-0.10092854268292493,0.1662811589632651,0.16495077188435836,-156.5307030363511,-19.16876722159467,1.3522117780748235,0.1161,-0.9791,-0.1665,0.0118
2125897.0,127.03553,1.0,0.0,-2.42,-9.48,6.5,-10.06,45.19,0.12,1.5,-0.69,-0.20432361227414136,-0.09729509284419642,0.025260245656514968,-156.5307030363511,-19.192010366536692,1.306372069959298,0.1163,-0.9791,-0.1667,0.0114
2125930.0,127.072598,1.0,0.09,-2.53,-9.64,6.5,-10.06,45.19,1.37,0.88,1.0,-0.14586670369171906,-0.18586512247453912,-0.1574243203270882,-156.5307030363511,-19.180388694494322,1.2949121758820281,0.1166,-0.9791,-0.1666,0.0113
2125967.0,127.100891,1.0,0.09,-2.1,-9.63,6.19,-9.69,45.69,-1.44,0.56,2.44,-0.004902101289375446,0.1997968285160055,-0.04804721486753394,-156.58711361479934,-19.08742247639564,1.306372069959298,0.1163,-0.9792,-0.1658,0.0114
2126002.0,127.125825,1.0,0.07,-1.85,-9.53,6.5,-10.06,45.75,-2.38,-0.31,1.25,0.047772199100761054,0.40375177157303405,0.10701071165815534,-156.70033876277134,-19.029325032716933,1.2949121758820281,0.1158,-0.9794,-0.1653,0.0113
2126036.0,127.175774,1.0,0.28,-2.25,-9.77,6.5,-10.06,45.75,3.44,0.0,1.25,0.13334344022675187,0.035659595901471844,-0.2220462223495776,-156.64365853086989,-18.9944689370341,1.2834522947560847,0.1165,-0.9793,-0.165,0.0112
2126069.0,127.218618,1.0,0.15,-2.47,-9.81,6.19,-10.5,45.75,-0.5,-0.19,-0.37,-0.05310628167708503,-0.11377303566846558,-0.30985806450532394,-156.64365853086989,-18.98285063278348,1.306372069959298,0.1166,-0.9793,-0.1649,0.0114
2126106.0,127.24056,1.0,0.03,-2.02,-9.35,6.88,-9.38,45.25,-0.63,0.56,0.81,-0.05143097090447704,0.22558156158427936,0.24368666145764983,-156.70033876277134,-18.947996901150272,1.306372069959298,0.1161,-0.9794,-0.1646,0.0114
2126143.0,127.269476,1.0,-0.02,-2.06,-9.5,6.88,-9.38,45.25,-0.06,0.25,-0.88,-0.10241702119182368,0.23863408846502504,0.08931679970308615,-156.70033876277134,-18.947996901150272,1.306372069959298,0.1161,-0.9794,-0.1646,0.0114
2126176.0,127.309337,1.0,0.09,-2.49,-9.73,6.88,-10.5,45.25,0.56,-1.56,1.19,-0.11984328235147168,-0.12471888674918577,-0.23581895872540315,-156.64365853086989,-18.97123252547226,1.306372069959298,0.1169,-0.9793,-0.1648,0.0114
2126211.0,127.339135,1.0,0.2,-2.31,-9.76,6.88,-10.5,45.25,0.25,-1.94,2.75,0.058630708334610884,0.006930133195148989,-0.22481123021437455,-156.70033876277134,-18.88991127772655,1.3865917007687605,0.1168,-0.9794,-0.1641,0.0121
2126247.0,127.379763,1.0,0.08,-2.24,-9.39,6.19,-9.69,46.06,2.06,-1.31,0.63,-0.040885675016004305,0.026266773529099893,0.1529595959013239,-156.75715530060586,-18.83183055191492,1.4668120111410634,0.1169,-0.9795,-0.1636,0.0128
2126280.0,127.429544,1.0,-0.35,-2.18,-8.68,6.19,-9.69,46.06,0.63,0.75,-1.5,-0.4759529175955929,0.07253260903541611,0.8631882630181327,-156.70033876277134,-18.86667840059343,1.4438918508267422,0.1175,-0.9794,-0.1639,0.0126
2126317.0,127.453449,1.0,-0.65,-2.73,-7.52,6.5,-9.69,46.88,2.19,15.31,-1.0,-1.0461588960304655,-0.5724899527507492,1.8691688618645674,-156.58711361479934,-18.855062255560348,1.1344749665222489,0.1187,-0.9792,-0.1638,0.0099
2126354.0,127.490479,1.0,-0.35,-2.79,-7.01,5.75,-9.69,46.0,-7.19,28.87,1.75,-0.9366071217436538,-0.8307820890408716,2.358209343055221,-156.814109146573,-18.68084346973021,0.10313241704642769,0.1183,-0.9796,-0.1623,0.0009
2126387.0,127.520879,1.0,-0.47,-0.77,-5.55,5.75,-9.69,46.0,-25.81,53.5,9.31,-0.6023617641296637,0.7002526360655725,4.260200094808588,-157.39142911741774,-18.25128911402984,-1.2261530793833222,0.1146,-0.9806,-0.1586,-0.0107
2126422.0,127.557345,1.0,0.09,-0.99,-5.92,5.0,-10.5,45.75,-10.0,72.31,4.19,-0.4135868038332341,0.4378955295598528,3.8340631684096476,-157.62647223808008,-17.694413651857154,-3.9427275023832014,0.1136,-0.981,-0.1538,-0.0344
2126458.0,127.5849,1.0,0.37,-1.75,-6.24,3.19,-11.56,46.06,-3.0,71.87,4.25,-0.6142696616853623,-0.21519850305066623,3.3480617342086507,-157.27480743211564,-17.31180678552449,-6.04177399090254,0.1156,-0.9804,-0.1505,-0.0527
2126493.0,127.630859,1.0,1.14,-1.78,-6.84,3.19,-11.56,46.06,-3.19,86.75,5.0,-0.30866138916985686,-0.2105660531255105,2.6572451237807995,-156.5307030363511,-16.55875139620892,-9.280599254023052,0.1184,-0.9791,-0.144,-0.0809
2126528.0,127.676496,1.0,1.92,-0.98,-8.15,-0.56,-11.19,44.88,-14.19,102.12,-4.56,0.09408942365986361,0.7428985629544027,1.4097131236435008,-155.42929332621986,-16.2114321173387,-12.146519858742266,0.1189,-0.9771,-0.141,-0.1058
2126563.0,127.724623,1.0,3.41,-1.49,-10.83,-2.75,-11.56,44.38,-10.81,100.37,-14.56,0.11789006426849657,0.7347008657908303,-1.6206601196455246,-153.21193002249612,-16.223006993376618,-15.991540967744186,0.1196,-0.9728,-0.1411,-0.1391
2126600.0,127.74161,1.0,5.42,-2.36,-12.64,-7.38,-12.69,44.06,-2.06,78.75,-13.69,0.7197171192414165,0.08062553336113742,-4.128596922521359,-151.71920090048613,-16.095692494623034,-18.35575126897081,0.1214,-0.9697,-0.14,-0.1595
2126635.0,127.76351,1.0,7.88,-3.36,-15.26,-7.38,-12.69,44.06,-5.19,66.31,-17.62,1.1004355022134162,-0.5638222017423578,-7.649659639505446,-149.63651807466178,-16.38507281218067,-21.07744476440248,0.1216,-0.9651,-0.1425,-0.1829
2126669.0,127.80503,1.0,9.3,-2.47,-16.84,-10.38,-13.06,45.25,-19.69,26.0,-4.75,1.7305493167795007,0.33362699353871417,-9.508380212023388,-149.02983560319493,-16.269308165184984,-22.302542365509357,0.1179,-0.9637,-0.1415,-0.1934
2126706.0,127.838023,1.0,7.98,-0.68,-14.78,-12.5,-13.06,43.56,-1.63,-40.88,5.13,1.9870208979271688,1.559937281518466,-6.812903051418973,-149.85607839466778,-16.0146845993234,-21.695513718287582,0.1131,-0.9656,-0.1393,-0.1882
2126741.0,127.879643,1.0,7.2,-0.87,-13.85,-12.5,-13.06,43.56,9.69,-68.19,6.25,1.9991916109937158,1.2191746828567804,-5.650912744340179,-151.06981274894218,-16.10726571114575,-19.98275837630303,0.113,-0.9683,-0.1401,-0.1735
2126776.0,127.913508,1.0,5.53,-1.11,-12.17,-11.75,-13.5,44.38,33.31,-100.94,10.31,1.7808438840656013,0.9029988669872017,-3.4574024767812173,-153.06392657993817,-16.29245975343786,-16.350341655632345,0.1177,-0.9725,-0.1417,-0.1422
2126811.0,127.9446,1.0,3.34,-1.75,-9.71,-9.88,-13.06,43.69,33.63,-109.94,9.44,0.9582940083431046,0.1676284193041409,-0.5642599555735845,-154.89643727544527,-16.59349169701811,-11.985198208002227,0.1241,-0.9761,-0.1443,-0.1044
2126848.0,127.987594,1.0,1.56,-1.15,-8.29,-6.88,-11.56,46.56,31.37,-109.12,16.37,0.20497247439699218,0.7839973309312201,1.3317733360105866,-156.02889725740354,-16.66297690980209,-8.705871826379285,0.1281,-0.9782,-0.1449,-0.0759
2126882.0,128.016752,1.0,0.46,-1.21,-7.53,-6.88,-11.56,46.56,43.19,-103.12,12.88,-0.1926491840196509,0.8611193256677586,2.2173180268380595,-156.5307030363511,-16.767216307875252,-4.4587366294239885,0.1367,-0.9791,-0.1458,-0.0389
2126919.0,128.057621,1.0,-0.19,-2.19,-7.04,-1.69,-10.88,46.56,32.63,-77.31,7.13,-0.7577852475210753,0.05064184168196757,2.470643121424267,-156.25063177900063,-16.96415115593626,-1.9137679978932431,0.1428,-0.9786,-0.1475,-0.0167
2126956.0,128.084912,1.0,-0.95,-1.53,-6.61,2.38,-8.56,46.56,37.69,-53.25,3.56,-0.9828399362569615,0.8136497154982867,3.0755654068480185,-155.59138277018496,-17.149547708947626,0.6417160846123932,0.1501,-0.9774,-0.1491,0.0056
2126991.0,128.129791,1.0,-1.16,-2.34,-6.27,2.38,-8.56,46.56,52.81,-38.5,-3.56,-1.2501827651195645,0.16017157343875993,3.132409359982578,-154.47803544959177,-17.346581127291522,2.1315259137202647,0.1603,-0.9753,-0.1508,0.0186
2127024.0,128.168618,1.0,-0.42,-4.5,-6.26,4.25,-7.06,45.69,55.44,-16.06,-4.19,-1.0200086203419692,-1.774320097078251,2.3618282689219257,-152.72165046658662,-17.601642377536205,3.1516651995043397,0.1772,-0.9718,-0.153,0.0275
2127058.0,128.202136,1.0,0.42,-6.0,-6.96,5.75,-5.25,46.56,24.75,-6.44,1.69,-0.5082981615417408,-3.0148829321126493,1.1308149459761427,-152.04943428155016,-17.601642377536205,3.5070491615651807,0.1844,-0.9704,-0.153,0.0306
2127095.0,128.238044,1.0,0.9,-7.17,-6.98,5.38,-4.5,46.5,-0.44,-8.19,18.5,-0.25104252908392066,-4.192665147218137,0.6798851508383041,-152.3355656330729,-16.871469682269606,3.9083298533295405,0.1854,-0.971,-0.1467,0.0341
2127130.0,128.269634,1.0,0.38,-7.17,-6.42,5.38,-4.5,46.5,-33.69,-10.75,41.31,-0.681075050763897,-4.383675347549912,1.2574262210531586,-153.5103719816942,-15.922114008308865,4.344060485976967,0.1784,-0.9734,-0.1385,0.0379
2127167.0,128.306106,1.0,0.43,-5.47,-6.95,6.19,-4.19,46.88,-72.5,-0.56,56.13,-0.023772345010558443,-3.074810258270953,1.5028390224280503,-156.58711361479934,-13.991994191085649,4.481672390551605,0.157,-0.9792,-0.1218,0.0391
2127202.0,128.362127,1.0,0.04,-3.91,-7.32,6.5,-6.38,45.75,-54.38,10.38,54.31,0.012238449577221089,-1.694878405439019,1.6826523749924416,-159.0283735374385,-12.423127669242316,4.298191253728037,0.1414,-0.9833,-0.1082,0.0375
2127237.0,128.369897,1.0,-0.61,-3.16,-6.81,6.5,-6.38,45.75,-48.69,23.81,56.31,-0.5371844990370537,-1.2613471863753567,2.4002854336680617,-161.9354035928643,-10.235170717586842,3.7592774051414257,0.1247,-0.9876,-0.0892,0.0328
2127271.0,128.401512,1.0,0.16,-2.83,-7.31,5.0,-9.0,46.06,-69.87,41.31,56.69,0.18689742228038725,-1.2843230542461148,2.074497411886073,-165.6781993872616,-7.68339023950128,2.303445456683929,0.1035,-0.9922,-0.067,0.0201
2127308.0,128.435796,1.0,0.28,0.0,-7.92,4.69,-11.19,46.56,-87.69,43.5,60.44,0.47183558214382476,1.2480428624420226,1.9948281768315725,-169.0045461043646,-5.835231869336322,0.9282017781870658,0.0814,-0.9954,-0.0509,0.0081
2127343.0,128.483587,1.0,-0.77,3.27,-7.44,4.69,-11.19,46.56,-65.56,44.25,52.75,-0.5360487059667056,4.233569814134793,2.8475596561635177,-171.57737873151558,-4.091788128472596,-0.27502000568243146,0.0635,-0.9973,-0.0357,-0.0024
2127378.0,128.515558,1.0,-0.16,1.35,-8.19,2.38,-13.88,44.5,-28.87,60.88,21.06,-0.4211895367222306,2.202230663896718,1.8130913758859117,-173.1234747164887,-2.7619239753850606,-2.452446574526375,0.0517,-0.9982,-0.0241,-0.0214
2127413.0,128.575058,1.0,-0.38,1.24,-8.41,-0.56,-16.87,45.25,-55.56,61.19,22.87,-1.0356176521156937,1.8436216214383745,1.5641591510156143,-173.5168579087077,-1.6043342375287626,-4.802792327898412,0.035,-0.9984,-0.014,-0.0419
2127450.0,128.58013,1.0,0.09,4.48,-9.57,-3.19,-17.87,44.38,-47.31,68.87,14.75,-0.9560943335157908,4.892875262404366,0.48951228007922865,-172.75138501198413,-0.7906880314747026,-6.730393436549607,0.0215,-0.998,-0.0069,-0.0587
2127482.0,128.621149,1.0,1.12,4.33,-10.86,-3.19,-17.87,44.38,-21.37,78.69,-5.81,-0.6614987879419877,4.611563997035046,-0.9747597804879611,-170.13941942315122,-0.7448503787209418,-9.717547848465047,0.0131,-0.9963,-0.0065,-0.0847
2127519.0,128.655645,1.0,2.17,3.64,-11.54,-5.75,-20.06,43.19,6.56,63.44,-14.63,-0.1373906181023794,3.9364840280285103,-1.838748976210903,-168.1968599368726,-1.0198783397289317,-11.697182904814724,0.0135,-0.9947,-0.0089,-0.1019
2127556.0,128.696931,1.0,3.07,3.14,-12.31,-7.69,-20.06,41.5,15.5,59.94,-32.19,0.1324026652546373,3.509412702560403,-2.782515660096033,-165.6781993872616,-2.1200647857418087,-14.01508470303339,0.0171,-0.9922,-0.0185,-0.122
2127591.0,128.736448,1.0,3.68,2.52,-12.43,-7.69,-20.06,41.5,21.19,38.25,-40.69,0.4334058176776918,2.9457200695577224,-3.0592970179621055,-164.10899767779725,-3.335085177891311,-15.332219618835126,0.0214,-0.9904,-0.0291,-0.1334
2127626.0,128.75148,1.0,3.16,2.88,-11.59,-11.0,-20.87,40.69,40.31,24.94,-46.31,0.05776625258902701,3.486806397084487,-2.04438135635513,-162.45372607444324,-4.940426564140192,-16.38507281218067,0.0315,-0.9883,-0.0431,-0.1425
2127661.0,128.797106,1.0,4.52,-1.1,-12.05,-9.88,-20.5,43.25,56.69,20.69,-63.13,0.6786935042054476,-0.31306554272035225,-3.088475633095266,-160.87156803103977,-6.982946893042854,-17.068431181009654,0.0438,-0.9861,-0.0609,-0.1484
2127697.0,128.82685,1.0,4.19,-0.56,-11.19,-9.88,-18.25,41.88,36.56,-3.75,-40.63,0.6560562085871535,0.37332570279235544,-2.1313572948046406,-159.40959116439527,-9.085166406176855,-17.219083051744406,0.0563,-0.9839,-0.0792,-0.1497
2127732.0,128.869514,1.0,3.81,-0.08,-10.59,-9.88,-18.25,41.88,50.5,-3.94,-52.19,0.6248013939337886,1.0210503115102032,-1.3843141890010262,-158.04377345766537,-11.259541000283246,-16.998909587512788,0.0696,-0.9817,-0.0981,-0.1478
2127769.0,128.925488,1.0,4.4,-2.88,-10.04,-9.5,-16.75,42.25,62.88,-11.75,-53.13,0.7252026871987547,-1.6730023628368351,-1.379553294971096,-156.58711361479934,-13.184178987120148,-16.66297690980209,0.0834,-0.9792,-0.1148,-0.1449
2127806.0,128.951748,1.0,3.78,-2.4,-8.84,-8.75,-15.56,43.5,48.0,-17.69,-38.81,0.6575303832872375,-1.1364224576925694,-0.015274342648242012,-155.214797761141,-15.112560354905924,-15.922114008308865,0.0974,-0.9767,-0.1315,-0.1385
2127841.0,128.996623,1.0,3.95,-3.02,-8.87,-8.75,-15.56,43.5,43.63,-8.75,-40.88,0.6446587938137196,-1.6457949470281732,-0.20711922202100652,-154.1686085419062,-16.43138337904295,-15.551935573755918,0.1057,-0.9747,-0.1429,-0.1353
2127874.0,129.014593,1.0,4.08,-5.44,-8.62,-7.69,-14.5,45.19,46.69,-11.19,-36.38,0.032625401119895425,-3.795357958665287,-0.4957086400783943,-152.62462859250314,-18.135237986991214,-15.043205913037665,0.1187,-0.9716,-0.1576,-0.1309
2127910.0,129.052479,1.0,3.26,-5.21,-7.96,-6.5,-12.25,44.25,10.75,-13.31,-13.19,-0.48137270830945633,-3.482785038544793,0.3847718066150225,-152.1444912618588,-18.83183055191492,-14.604088706058507,0.1226,-0.9706,-0.1636,-0.1271
2127945.0,129.090325,1.0,3.11,-3.59,-8.15,-6.5,-12.25,44.25,-7.81,-9.63,-1.31,-0.05995807003004838,-1.9582547668826045,0.5792807488092873,-152.23986727877065,-19.180388694494322,-14.2344732300193,0.1204,-0.9708,-0.1666,-0.1239
2127980.0,129.123598,1.0,2.75,-2.21,-8.6,-4.69,-11.06,45.56,-7.88,-5.94,3.19,0.02770274541496187,-0.5123786209186014,0.5253084640623182,-152.47972490837182,-19.11066283969618,-14.08435967436596,0.118,-0.9713,-0.166,-0.1226
2128017.0,129.16389,1.0,2.93,-2.09,-8.92,-5.38,-11.56,44.0,3.0,-0.31,1.81,0.18235826115511378,-0.37449832724919446,0.19697276985974455,-152.62462859250314,-19.017706136871343,-14.026630173419028,0.1177,-0.9716,-0.1652,-0.1221
2128052.0,129.198526,1.0,2.89,-2.09,-9.07,-5.0,-12.25,44.75,-1.31,0.63,4.13,0.1235611911206258,-0.31530725350539623,0.06650554686503973,-152.67309729035,-18.913144938477476,-14.003539375629764,0.118,-0.9717,-0.1643,-0.1219
2128087.0,129.237993,1.0,2.99,-1.8,-9.63,-5.0,-12.25,44.75,-5.88,-4.63,4.75,0.21807707925920528,0.03981104635710553,-0.43385084068595603,-152.91671705681662,-18.73891153732938,-13.922726077012076,0.1163,-0.9722,-0.1628,-0.1212
2128121.0,129.25151,1.0,2.44,-1.42,-9.27,-5.38,-11.88,45.19,-2.69,-3.63,3.06,-0.06415307921303537,0.41930388792674456,0.1255876289584279,-153.21193002249612,-18.622780241637948,-13.78420515869276,0.1147,-0.9728,-0.1618,-0.12
2128158.0,129.302481,1.0,2.53,-1.78,-9.24,-5.0,-12.56,45.19,-2.31,-2.19,2.19,-0.08735546051015675,0.05340297307754177,0.06311793272657695,-153.3110465719337,-18.541499822002773,-13.726494094235365,0.1147,-0.973,-0.1611,-0.1195
