acc_x,acc_y,acc_z,lin_x,lin_y,lin_z,eul_x,eul_y,eul_z
5.43,3.62,-7.12,-0.0934949688030417,0.1821259149577265,0.1504712090957358,-137.6241524258607,0.2979383891459227,-35.684822197148925
5.43,3.62,-7.12,-0.0934949688030417,0.1821259149577265,0.1504712090957358,-137.6241524258607,0.2979383891459227,-35.684822197148925
5.66,3.67,-7.28,-0.0064764540361079,0.1657120015994411,-0.116827091628167,-137.655868969081,0.3323159869732291,-35.696860557625506
5.66,3.67,-7.28,-0.0064764540361079,0.1657120015994411,-0.116827091628167,-137.655868969081,0.3323159869732291,-35.696860557625506
5.71,3.56,-7.46,-0.0557842997016457,0.0076445058994578,-0.239549762767826,-137.71937015042116,0.3323159869732291,-35.70889932534101
5.71,3.56,-7.46,-0.0557842997016457,0.0076445058994578,-0.239549762767826,-137.71937015042116,0.3323159869732291,-35.70889932534101
5.27,3.62,-7.08,-0.1920929230846642,0.2543507604158364,0.272390406325373,-137.78296246704429,0.343775192742598,-35.63667282414923
5.27,3.62,-7.08,-0.1920929230846642,0.2543507604158364,0.272390406325373,-137.78296246704429,0.343775192742598,-35.63667282414923
5.21,3.98,-7.39,-0.4684136114418339,0.4956754510378236,-0.0488811645722329,-137.78296246704429,0.2979383891459227,-35.696860557625506
5.21,3.98,-7.39,-0.4684136114418339,0.4956754510378236,-0.0488811645722329,-137.78296246704429,0.2979383891459227,-35.696860557625506
4.74,4.76,-7.49,-0.9951916707963988,1.2304546288434073,-0.1291879085377267,-137.75115489107054,0.0343774682235114,-35.745018073663594
4.74,4.76,-7.49,-0.9951916707963988,1.2304546288434073,-0.1291879085377267,-137.75115489107054,0.0343774682235114,-35.745018073663594
4.51,6.05,-7.41,-1.2577225227495212,2.4859241931307,-0.3957524112841231,-137.78296246704429,-0.4239897358038088,-35.793182116680164
4.51,6.05,-7.41,-1.2577225227495212,2.4859241931307,-0.3957524112841231,-137.78296246704429,-0.4239897358038088,-35.793182116680164
4.14,6.99,-7.49,-1.6148920111929654,3.4116409985713285,-0.5785620579722597,-137.75115489107054,-1.7303983035632713,-36.01000138130928
4.14,6.99,-7.49,-1.6148920111929654,3.4116409985713285,-0.5785620579722597,-137.75115489107054,-1.7303983035632713,-36.01000138130928
4.58,8.04,-7.81,-1.4158316003057965,4.227204626134974,-1.4512477579456906,-137.4975120486347,-3.4267983429423063,-36.39578793652754
4.58,8.04,-7.81,-1.4158316003057965,4.227204626134974,-1.4512477579456906,-137.4975120486347,-3.4267983429423063,-36.39578793652754
4.68,6.6,-6.78,-0.3567640567327289,3.335823451940841,-0.2021362053949928,-137.68760819354466,-6.822227205491183,-36.72162758785172
4.68,6.6,-6.78,-0.3567640567327289,3.335823451940841,-0.2021362053949928,-137.68760819354466,-6.822227205491183,-36.72162758785172
5.75,4.38,-7.28,0.3023472895459488,1.006121692990854,-0.398329434344662,-137.6241524258607,-9.98208514628972,-36.999437339480345
5.75,4.38,-7.28,0.3023472895459488,1.006121692990854,-0.398329434344662,-137.6241524258607,-9.98208514628972,-36.999437339480345
6.11,4.28,-7.24,0.8203878927833297,0.9180241944829874,-0.5157671240905781,-137.1824741414482,-14.477016351828802,-37.04777503969204
6.11,4.28,-7.24,0.8203878927833297,0.9180241944829874,-0.5157671240905781,-137.1824741414482,-14.477016351828802,-37.04777503969204
6.32,2.74,-6.71,1.1862559561654589,-0.4495546811500337,0.2743471620117894,-136.68295663578678,-17.90319186690899,-36.80615463747225
6.32,2.74,-6.71,1.1862559561654589,-0.4495546811500337,0.2743471620117894,-136.68295663578678,-17.90319186690899,-36.80615463747225
6.56,1.92,-6.89,1.152560634744198,-1.243389222250705,0.2506211582044244,-135.63926552609755,-22.232468575814032,-36.40785062374676
6.56,1.92,-6.89,1.152560634744198,-1.243389222250705,0.2506211582044244,-135.63926552609755,-22.232468575814032,-36.40785062374676
6.78,1.64,-6.41,1.5591079056629118,-1.5470131785549748,0.5913348798385272,-134.64810211296725,-25.19492264637575,-36.07025258875129
6.78,1.64,-6.41,1.5591079056629118,-1.5470131785549748,0.5913348798385272,-134.64810211296725,-25.19492264637575,-36.07025258875129
7.22,-0.22,-6.9,0.8212346234835127,-3.28351887930642,0.4081991988078037,-133.12658560187518,-28.71838798339577,-35.745018073663594
7.22,-0.22,-6.9,0.8212346234835127,-3.28351887930642,0.4081991988078037,-133.12658560187518,-28.71838798339577,-35.745018073663594
6.98,-0.64,-7.05,0.312084095939032,-3.395605574581903,0.4682900637515442,-131.7904095910964,-31.233335490801053,-35.528360490512846
6.98,-0.64,-7.05,0.312084095939032,-3.395605574581903,0.4682900637515442,-131.7904095910964,-31.233335490801053,-35.528360490512846
7.65,-0.81,-8.08,0.0397855219754315,-3.6902716485138978,-0.7216600387676504,-131.0660093808112,-32.48460118565665,-35.46820114810156
7.65,-0.81,-8.08,0.0397855219754315,-3.6902716485138978,-0.7216600387676504,-131.0660093808112,-32.48460118565665,-35.46820114810156
7.67,-1.31,-8.85,-0.5081040342211998,-3.914245997964661,-1.296863342984091,-131.31561745343842,-32.890619725136126,-34.831128724414064
7.67,-1.31,-8.85,-0.5081040342211998,-3.914245997964661,-1.296863342984091,-131.31561745343842,-32.890619725136126,-34.831128724414064
7.87,-2.22,-10.11,-1.3457765090566551,-4.497512758069247,-2.3193000484982864,-132.07176372350168,-32.49653690025889,-34.21914415630217
7.87,-2.22,-10.11,-1.3457765090566551,-4.497512758069247,-2.3193000484982864,-132.07176372350168,-32.49653690025889,-34.21914415630217
8.49,-0.05,-11.25,-0.0064158719881198,-2.873105655279315,-3.9915499815261697,-134.38132917213414,-30.888426648702456,-32.711441879621354
8.49,-0.05,-11.25,-0.0064158719881198,-2.873105655279315,-3.9915499815261697,-134.38132917213414,-30.888426648702456,-32.711441879621354
7.59,1.28,-10.38,1.0420555641250369,-1.3691314267198664,-3.0007892185809,-137.46590815068691,-28.95502437185985,-30.401284991821623
7.59,1.28,-10.38,1.0420555641250369,-1.3691314267198664,-3.0007892185809,-137.46590815068691,-28.95502437185985,-30.401284991821623
6.81,1.7,-10.38,1.608904063853299,-0.5521835465201922,-2.6077376628800617,-142.70368938881398,-25.94695623100749,-26.29986168212807
6.81,1.7,-10.38,1.608904063853299,-0.5521835465201922,-2.6077376628800617,-142.70368938881398,-25.94695623100749,-26.29986168212807
4.72,1.62,-9.43,1.228706490500746,0.2345592626959635,-0.7887717618972054,-148.14094650942238,-23.237678334824075,-21.473869337236096
4.72,1.62,-9.43,1.228706490500746,0.2345592626959635,-0.7887717618972054,-148.14094650942238,-23.237678334824075,-21.473869337236096
2.62,2.4,-8.09,1.4150965248552283,1.641205020167413,1.2406446353554088,-157.04331809093284,-19.029325032716933,-12.745928771149693
2.62,2.4,-8.09,1.4150965248552283,1.641205020167413,1.2406446353554088,-157.04331809093284,-19.029325032716933,-12.745928771149693
1.34,1.59,-7.39,0.8841154089729891,1.2562241401519203,2.284945349236576,-162.60463181843892,-16.13041264048083,-6.535260971441647
1.34,1.59,-7.39,0.8841154089729891,1.2562241401519203,2.284945349236576,-162.60463181843892,-16.13041264048083,-6.535260971441647
-0.19,1.37,-6.59,0.1287259583994152,1.4763097701710803,3.238161658674307,-166.92746455946423,-12.988096123558291,-0.0458366248327759
-0.19,1.37,-6.59,0.1287259583994152,1.4763097701710803,3.238161658674307,-166.92746455946423,-12.988096123558291,-0.0458366248327759
-1.53,1.38,-5.76,-0.8513009240928195,1.7697792992155357,4.013026956626633,-168.08593042045837,-11.167427069301608,3.656090990936744
-1.53,1.38,-5.76,-0.8513009240928195,1.7697792992155357,4.013026956626633,-168.08593042045837,-11.167427069301608,3.656090990936744
-1.38,0.52,-6.15,-0.7463845861549879,0.9217984433656988,3.594524946577552,-168.6513771745933,-10.235170717586842,4.6536963885673295
-1.38,0.52,-6.15,-0.7463845861549879,0.9217984433656988,3.594524946577552,-168.6513771745933,-10.235170717586842,4.6536963885673295
-0.96,0.69,-6.29,-0.3443750435876055,1.0430039632695909,3.501465739254089,-169.4938307856925,-9.315090195791669,4.298191253728037
-0.96,0.69,-6.29,-0.3443750435876055,1.0430039632695909,3.501465739254089,-169.4938307856925,-9.315090195791669,4.298191253728037
-1.45,0.03,-6.32,-1.0571777218246818,0.4949644279039874,3.4283127966540325,-170.13941942315122,-8.935735653853007,3.163128706652845
-1.45,0.03,-6.32,-1.0571777218246818,0.4949644279039874,3.4283127966540325,-170.13941942315122,-8.935735653853007,3.163128706652845
-0.49,0.36,-6.33,-0.4570138052758085,0.7079841044096846,3.5035954318012963,-170.68797573137596,-8.95872400294449,-0.4583674584234223
-0.49,0.36,-6.33,-0.4570138052758085,0.7079841044096846,3.5035954318012963,-170.68797573137596,-8.95872400294449,-0.4583674584234223
0.63,0.15,-5.94,0.0971231153525042,0.3514547550296018,3.842587068102708,-168.53606406960452,-9.694547078719877,-5.513981585080581
0.63,0.15,-5.94,0.0971231153525042,0.3514547550296018,3.842587068102708,-168.53606406960452,-9.694547078719877,-5.513981585080581
2.68,-0.02,-8.2,0.3432134407830962,0.0079741563399936,1.1866186226269182,-160.26052613773837,-11.662626087112969,-15.725436142775802
2.68,-0.02,-8.2,0.3432134407830962,0.0079741563399936,1.1866186226269182,-160.26052613773837,-11.662626087112969,-15.725436142775802
3.44,0.33,-5.92,0.8700192174036064,-0.0083020945763804,3.007245788116869,-153.4604028099656,-12.907367253850758,-23.015443848374385
3.44,0.33,-5.92,0.8700192174036064,-0.0083020945763804,3.007245788116869,-153.4604028099656,-12.907367253850758,-23.015443848374385
5.14,2.24,-5.87,1.3496490512992518,1.1934505638543975,1.891586943399464,-142.63208125401738,-14.869843995469047,-34.039340850884635
5.14,2.24,-5.87,1.3496490512992518,1.1934505638543975,1.891586943399464,-142.63208125401738,-14.869843995469047,-34.039340850884635
11.47,2.41,-9.28,1.6062116008751406,-0.455849482770421,-5.04931464529558,-131.09368455172458,-17.450913825320047,-45.20058056579144
11.47,2.41,-9.28,1.6062116008751406,-0.455849482770421,-5.04931464529558,-131.09368455172458,-17.450913825320047,-45.20058056579144
7.7,3.03,-4.92,0.730071532987465,0.6504356188762488,0.2295299181372705,-120.8011763350936,-19.66867198617123,-54.954967799820345
7.7,3.03,-4.92,0.730071532987465,0.6504356188762488,0.2295299181372705,-120.8011763350936,-19.66867198617123,-54.954967799820345
10.84,3.14,-6.07,-0.2893975507376993,-0.3458496103724529,-2.9998615119080068,-112.91993898771476,-21.15904057291141,-62.47677807164217
10.84,3.14,-6.07,-0.2893975507376993,-0.3458496103724529,-2.9998615119080068,-112.91993898771476,-21.15904057291141,-62.47677807164217
9.91,3.15,-4.85,-1.1629249395262973,-0.3963888438816941,-1.6013989773437525,-104.78316565832016,-22.92189772810272,-69.94734861219692
9.91,3.15,-4.85,-1.1629249395262973,-0.3963888438816941,-1.6013989773437525,-104.78316565832016,-22.92189772810272,-69.94734861219692
9.39,3.83,-3.58,-0.5566750663726846,0.1660506153330101,-0.9320622162588226,-101.6281995958626,-23.17918701849416,-72.95399287323656
9.39,3.83,-3.58,-0.5566750663726846,0.1660506153330101,-0.9320622162588226,-101.6281995958626,-23.17918701849416,-72.95399287323656
11.4,4.29,-3.74,-0.8347543840064695,-0.3296465868523752,-2.903433329630793,-98.69945281813553,-23.49511329436541,-75.65699770780401
11.4,4.29,-3.74,-0.8347543840064695,-0.3296465868523752,-2.903433329630793,-98.69945281813553,-23.49511329436541,-75.65699770780401
10.31,4.13,-3.27,-1.0059674786816295,-0.2164774233744371,-1.7253518625130315,-96.73131402375058,-23.62387580431868,-77.43779108064527
10.31,4.13,-3.27,-1.0059674786816295,-0.2164774233744371,-1.7253518625130315,-96.73131402375058,-23.62387580431868,-77.43779108064527
9.73,4.39,-2.7,-0.4558659187119626,0.1934428816035978,-1.1928848136052466,-97.05955612806844,-23.132398374270107,-77.24698728308945
9.73,4.39,-2.7,-0.4558659187119626,0.1934428816035978,-1.1928848136052466,-97.05955612806844,-23.132398374270107,-77.24698728308945
9.34,4.48,-2.39,0.0333871032792677,0.423923212181049,-0.8158390873800716,-98.57639627494255,-22.36094364221954,-75.93290816428274
9.34,4.48,-2.39,0.0333871032792677,0.423923212181049,-0.8158390873800716,-98.57639627494255,-22.36094364221954,-75.93290816428274
8.29,4.28,-2.18,0.1557410016359612,0.6737847797599539,0.2506749680645743,-99.52971641733647,-21.928912393640328,-75.09226338481456
8.29,4.28,-2.18,0.1557410016359612,0.6737847797599539,0.2506749680645743,-99.52971641733647,-21.928912393640328,-75.09226338481456
8.81,3.97,-2.75,-0.3029977875794249,0.2302111342722029,-0.2330061282933951,-99.86737745872108,-21.800531789289547,-74.8034850768004
8.81,3.97,-2.75,-0.3029977875794249,0.2302111342722029,-0.2330061282933951,-99.86737745872108,-21.800531789289547,-74.8034850768004
8.23,3.74,-2.69,-0.3168657737112456,0.2525672682165199,0.3836777589034561,-100.3671515088305,-21.7305176882842,-74.3282126664446
8.23,3.74,-2.69,-0.3168657737112456,0.2525672682165199,0.3836777589034561,-100.3671515088305,-21.7305176882842,-74.3282126664446
8.15,4.04,-2.24,0.301054950971344,0.5383200251647164,0.4588546734536223,-101.39272551986971,-21.403893300909647,-73.38211475609262
8.15,4.04,-2.24,0.301054950971344,0.5383200251647164,0.4588546734536223,-101.39272551986971,-21.403893300909647,-73.38211475609262
8.35,3.87,-2.66,-0.0189521983764953,0.3270161904007165,0.2323248945216765,-101.80973815523876,-21.403893300909647,-72.96824451527324
8.35,3.87,-2.66,-0.0189521983764953,0.3270161904007165,0.2323248945216765,-101.80973815523876,-21.403893300909647,-72.96824451527324
8.91,3.62,-2.84,-0.0358427201563869,-0.1329969757587976,-0.2202701205480242,-102.2103749169286,-21.42721774773248,-72.52705031289004
8.91,3.62,-2.84,-0.0358427201563869,-0.1329969757587976,-0.2202701205480242,-102.2103749169286,-21.42721774773248,-72.52705031289004
8.19,3.65,-2.65,0.0725339877737908,0.1774021223814856,0.4586894038275844,-102.81460845539635,-21.24064723466595,-71.9737624996918
8.19,3.65,-2.65,0.0725339877737908,0.1774021223814856,0.4586894038275844,-102.81460845539635,-21.24064723466595,-71.9737624996918
8.39,3.91,-2.75,0.1395919439186983,0.309126351086036,0.1563829058591714,-103.23811172650564,-21.21732993545333,-71.49298753090414
8.39,3.91,-2.75,0.1395919439186983,0.309126351086036,0.1563829058591714,-103.23811172650564,-21.21732993545333,-71.49298753090414
8.01,3.72,-2.84,-0.101986426937376,0.1895344159544241,0.5320731646996784,-102.92489803406494,-21.695513718287582,-71.535350308977
8.01,3.72,-2.84,-0.101986426937376,0.1895344159544241,0.5320731646996784,-102.92489803406494,-21.695513718287582,-71.535350308977
9.01,4.43,-3.07,-0.078518541544629,0.3128453889622884,-0.6874370303823341,-102.2103749169286,-21.928912393640328,-72.03042043423166
9.01,4.43,-3.07,-0.078518541544629,0.3128453889622884,-0.6874370303823341,-102.2103749169286,-21.928912393640328,-72.03042043423166
8.62,4.16,-2.89,-0.0597440710081236,0.1935037844503466,-0.1894035678528034,-102.1191689740896,-21.940584737009782,-72.058757038671
8.62,4.16,-2.89,-0.0597440710081236,0.1935037844503466,-0.1894035678528034,-102.1191689740896,-21.940584737009782,-72.058757038671
8.36,4.28,-2.75,0.0710223776623345,0.3626700919657591,0.0273899959779839,-102.338214628802,-22.01062364188303,-71.7614760712347
8.36,4.28,-2.75,0.0710223776623345,0.3626700919657591,0.0273899959779839,-102.338214628802,-22.01062364188303,-71.7614760712347
8.4,4.04,-2.94,-0.1322580478392547,0.1330950048623911,0.0347518461886089,-102.35649190819592,-22.08067087291992,-71.71905293720884
8.4,4.04,-2.94,-0.1322580478392547,0.1330950048623911,0.0347518461886089,-102.35649190819592,-22.08067087291992,-71.71905293720884
8.32,3.98,-2.84,-0.0511973278670069,0.0969420434301204,0.156967048014744,-102.42963728896297,-22.127373666986447,-71.62010973363981
8.32,3.98,-2.84,-0.0511973278670069,0.0969420434301204,0.156967048014744,-102.42963728896297,-22.127373666986447,-71.62010973363981
8.22,4.1,-2.78,0.0106060329958997,0.2231623739979407,0.2120220204014308,-102.48453447446366,-22.139049946746336,-71.52122812984334
8.22,4.1,-2.78,0.0106060329958997,0.2231623739979407,0.2120220204014308,-102.48453447446366,-22.139049946746336,-71.52122812984334
8.27,4.17,-2.98,-0.1645091138368346,0.2485519133142233,0.0817665200886619,-102.4479327130834,-22.127373666986447,-71.5071072040017
8.27,4.17,-2.98,-0.1645091138368346,0.2485519133142233,0.0817665200886619,-102.4479327130834,-22.127373666986447,-71.5071072040017
8.34,4.1,-2.84,-0.0082844579081991,0.1114135528165443,0.0897205267555847,-102.52115080428872,-22.22079043012782,-71.35185958052234
8.34,4.1,-2.84,-0.0082844579081991,0.1114135528165443,0.0897205267555847,-102.52115080428872,-22.22079043012782,-71.35185958052234
8.35,4.26,-2.71,0.1576274048247688,0.2179763825937142,0.052582135878918,-102.55778172371149,-22.337582426465424,-71.23904701158034
8.35,4.26,-2.71,0.1576274048247688,0.2179763825937142,0.052582135878918,-102.55778172371149,-22.337582426465424,-71.23904701158034
8.53,4.37,-2.88,0.0613950884246883,0.2293570278354502,-0.1981401525669106,-102.5761026611454,-22.337582426465424,-71.18267056189946
8.53,4.37,-2.88,0.0613950884246883,0.2293570278354502,-0.1981401525669106,-102.5761026611454,-22.337582426465424,-71.18267056189946
8.1,4.26,-2.84,-0.0118885007782166,0.2965692611145869,0.2288054963075741,-102.61275550473172,-22.45439792967429,-71.08405950295473
8.1,4.26,-2.84,-0.0118885007782166,0.2965692611145869,0.2288054963075741,-102.61275550473172,-22.45439792967429,-71.08405950295473
8.41,4.39,-2.89,0.0325997866681241,0.2635971403333381,-0.1070654388007987,-102.55778172371149,-22.53618284114898,-71.11222790088254
8.41,4.39,-2.89,0.0325997866681241,0.2635971403333381,-0.1070654388007987,-102.55778172371149,-22.53618284114898,-71.11222790088254
8.53,4.27,-2.94,-0.0102813104426173,0.0920951820423745,-0.1747733840720418,-102.50284081699964,-22.59460775363036,-71.12631395587046
8.53,4.27,-2.94,-0.0102813104426173,0.0920951820423745,-0.1747733840720418,-102.50284081699964,-22.59460775363036,-71.12631395587046
8.47,4.03,-3.01,-0.1287146667090661,-0.1090076098030614,-0.0428905921077884,-102.48453447446366,-22.68809999960854,-71.0981430834236
8.47,4.03,-3.01,-0.1287146667090661,-0.1090076098030614,-0.0428905921077884,-102.48453447446366,-22.68809999960854,-71.0981430834236
8.16,4.21,-2.87,-0.0319908674491379,0.1747345649662781,0.1881758790073196,-102.5761026611454,-22.617979384064764,-70.9995839667978
8.16,4.21,-2.87,-0.0319908674491379,0.1747345649662781,0.1881758790073196,-102.5761026611454,-22.617979384064764,-70.9995839667978
8.09,4.26,-2.89,-0.0687149937202354,0.2293309385263571,0.2206974875851486,-102.50284081699964,-22.68809999960854,-71.01366013662432
8.09,4.26,-2.89,-0.0687149937202354,0.2293309385263571,0.2206974875851486,-102.50284081699964,-22.68809999960854,-71.01366013662432
8.48,4.36,-2.91,0.0060969186565414,0.1111411827781752,-0.1620866534116825,-102.35649190819592,-22.816676842803343,-71.08405950295473
8.48,4.36,-2.91,0.0060969186565414,0.1111411827781752,-0.1620866534116825,-102.35649190819592,-22.816676842803343,-71.08405950295473
8.26,4.37,-2.83,0.0261555268508281,0.2196762867837227,0.0452741637031479,-102.338214628802,-22.781607550913503,-71.0981430834236
8.26,4.37,-2.83,0.0261555268508281,0.2196762867837227,0.0452741637031479,-102.338214628802,-22.781607550913503,-71.0981430834236
8.42,4.53,-2.91,0.0001894274171576,0.277858296903208,-0.1837551334747811,-102.22862690361036,-22.82836708787642,-71.1544897805901
8.42,4.53,-2.91,0.0001894274171576,0.277858296903208,-0.1837551334747811,-102.22862690361036,-22.82836708787642,-71.1544897805901
8.49,4.25,-2.94,-0.0527528372049093,-0.0209969734661035,-0.1323125346548135,-102.22862690361036,-22.933590145135867,-71.12631395587046
8.49,4.25,-2.94,-0.0527528372049093,-0.0209969734661035,-0.1323125346548135,-102.22862690361036,-22.933590145135867,-71.12631395587046
8.43,4.23,-3.02,-0.1468023592773633,-0.0224785860240932,-0.0956802197251018,-102.2103749169286,-22.96866884885643,-71.0981430834236
8.43,4.23,-3.02,-0.1468023592773633,-0.0224785860240932,-0.0956802197251018,-102.2103749169286,-22.96866884885643,-71.0981430834236
8.17,4.38,-2.84,-0.0071150966662759,0.2020081193930352,0.1134543404097794,-102.19212653307552,-23.155792207151627,-71.05589605083351
8.17,4.38,-2.84,-0.0071150966662759,0.2020081193930352,0.1134543404097794,-102.19212653307552,-23.155792207151627,-71.05589605083351
8.15,4.24,-2.78,0.0204607209606926,0.0746210719473317,0.2086026436613561,-102.1556405634774,-23.21428107252436,-71.05589605083351
8.15,4.24,-2.78,0.0204607209606926,0.0746210719473317,0.2086026436613561,-102.1556405634774,-23.21428107252436,-71.05589605083351
8.6,4.48,-2.95,-0.0100259368863817,0.0781286912341281,-0.3287678694415774,-102.0644885076778,-23.190884791431422,-71.12631395587046
8.6,4.48,-2.95,-0.0100259368863817,0.0781286912341281,-0.3287678694415774,-102.0644885076778,-23.190884791431422,-71.12631395587046
8.09,4.14,-2.71,0.056997780322369,-0.0048711860038093,0.3235846978634989,-102.1191689740896,-23.296175790566195,-71.0277375402144
8.09,4.14,-2.71,0.056997780322369,-0.0048711860038093,0.3235846978634989,-102.1191689740896,-23.296175790566195,-71.0277375402144
