acc_x,acc_y,acc_z,lin_x,lin_y,lin_z,eul_x,eul_y,eul_z
5.72,2.07,7.61,-0.0043112468570727,-0.091904792202322,0.064630962740793,-33.356870714029654,17.891591511712036,-77.55533546921926
5.72,2.07,7.61,-0.0043112468570727,-0.091904792202322,0.064630962740793,-33.356870714029654,17.891591511712036,-77.55533546921926
5.66,2.14,7.64,-0.0729809914918564,-0.0225131621565299,0.0609346885202644,-33.40472333858408,17.90319186690899,-77.51124498215967
5.66,2.14,7.64,-0.0729809914918564,-0.0225131621565299,0.0609346885202644,-33.40472333858408,17.90319186690899,-77.51124498215967
5.89,1.87,7.39,0.1969608239791394,-0.3447224230569525,0.1815020590663589,-33.416687431310486,17.868391355752113,-77.55533546921926
5.89,1.87,7.39,0.1969608239791394,-0.3447224230569525,0.1815020590663589,-33.416687431310486,17.868391355752113,-77.55533546921926
6.01,2.29,7.53,-0.1887567597118267,-0.3648224959608988,-0.0876097212779871,-33.428651899003285,17.93799404290059,-77.67297680383594
6.01,2.29,7.53,-0.1887567597118267,-0.3648224959608988,-0.0876097212779871,-33.428651899003285,17.93799404290059,-77.67297680383594
6.5,2.2,7.24,-0.0663938561353019,-0.8724399140815058,-0.1302529607914024,-33.644076625825655,18.146842253651585,-77.65826632282992
6.5,2.2,7.24,-0.0663938561353019,-0.8724399140815058,-0.1302529607914024,-33.644076625825655,18.146842253651585,-77.65826632282992
10.94,2.86,5.17,-0.2999059618754938,-5.458342662829809,-1.3606527983109498,-34.519009695351265,18.820214993044136,-77.64355736158599
10.94,2.86,5.17,-0.2999059618754938,-5.458342662829809,-1.3606527983109498,-34.519009695351265,18.820214993044136,-77.64355736158599
12.34,4.17,4.84,-1.2625591094153026,-5.985793059696912,-2.669981193624216,-37.65257654707046,20.984205642908503,-76.35503755065555
12.34,4.17,4.84,-1.2625591094153026,-5.985793059696912,-2.669981193624216,-37.65257654707046,20.984205642908503,-76.35503755065555
13.6,4.84,5.66,-0.8806430248176293,-5.285442077587189,-4.743599822848776,-41.63592288422485,23.53022735154268,-72.18633490403623
13.6,4.84,5.66,-0.8806430248176293,-5.285442077587189,-4.743599822848776,-41.63592288422485,23.53022735154268,-72.18633490403623
14.95,5.7,7.02,0.6025758913158001,-2.6443688229327407,-7.453625658966348,-49.45461164689416,28.03284519878868,-61.834557999428846
14.95,5.7,7.02,0.6025758913158001,-2.6443688229327407,-7.453625658966348,-49.45461164689416,28.03284519878868,-61.834557999428846
14.84,4.67,6.65,3.561294220574481,0.6751869976493561,-6.719641356281604,-59.16812669186737,31.98362621241675,-49.00085095475104
14.84,4.67,6.65,3.561294220574481,0.6751869976493561,-6.719641356281604,-59.16812669186737,31.98362621241675,-49.00085095475104
12.56,7.94,6.7,0.6838407010910688,3.2540079343698687,-6.150511221802244,-65.9536821068983,35.21564193303898,-38.84117149116385
12.56,7.94,6.7,0.6838407010910688,3.2540079343698687,-6.150511221802244,-65.9536821068983,35.21564193303898,-38.84117149116385
11.71,9.2,3.82,1.1028708798871332,3.050702163964246,-5.221104061371944,-74.89006002631827,36.46817032738551,-26.994654003838164
11.71,9.2,3.82,1.1028708798871332,3.050702163964246,-5.221104061371944,-74.89006002631827,36.46817032738551,-26.994654003838164
8.33,8.56,2.77,0.1503462143668805,3.5945866034554883,-1.914772403705273,-82.38637607932448,36.38372566673132,-20.49492914898236
8.33,8.56,2.77,0.1503462143668805,3.5945866034554883,-1.914772403705273,-82.38637607932448,36.38372566673132,-20.49492914898236
4.8,9.28,0.57,-1.5037384816163335,2.3639763125417206,-0.2747034097683461,-91.2372369350846,34.75907767623433,-12.400074265032766
4.8,9.28,0.57,-1.5037384816163335,2.3639763125417206,-0.2747034097683461,-91.2372369350846,34.75907767623433,-12.400074265032766
4.46,9.31,-0.01,-0.7034699392361867,3.1538261693098777,0.0022473900309858,-99.63621890239712,31.39994691440291,-6.684478178549483
4.46,9.31,-0.01,-0.7034699392361867,3.1538261693098777,0.0022473900309858,-99.63621890239712,31.39994691440291,-6.684478178549483
2.38,11.3,-0.67,-2.4443447496253152,3.265751099455396,-1.0175519798867878,-105.25385814101205,28.576466242296,-2.383676327772471
2.38,11.3,-0.67,-2.4443447496253152,3.265751099455396,-1.0175519798867878,-105.25385814101205,28.576466242296,-2.383676327772471
0.85,10.36,0.6,-2.889805648261357,4.975777846979269,1.1289338181473614,-113.62840124543835,24.61989330860375,1.9825328715837247
0.85,10.36,0.6,-2.889805648261357,4.975777846979269,1.1289338181473614,-113.62840124543835,24.61989330860375,1.9825328715837247
-1.22,8.48,0.78,-3.719812845920647,4.4796508823171886,3.4739633376205497,-120.20074735368748,20.937591354374124,3.873932556571698
-1.22,8.48,0.78,-3.719812845920647,4.4796508823171886,3.4739633376205497,-120.20074735368748,20.937591354374124,3.873932556571698
-1.99,5.85,-1.0,-2.944774224257092,2.4775729907361947,4.8697950453020615,-129.3510733053071,14.800508833176536,4.045922594423996
-1.99,5.85,-1.0,-2.944774224257092,2.4775729907361947,4.8697950453020615,-129.3510733053071,14.800508833176536,4.045922594423996
-2.96,7.31,-1.28,-3.5823818479326968,3.749233927245875,3.7283373020228048,-134.4108976122917,8.774827247055486,4.240855681461491
-2.96,7.31,-1.28,-3.5823818479326968,3.749233927245875,3.7283373020228048,-134.4108976122917,8.774827247055486,4.240855681461491
-4.26,7.87,-0.07,-3.7673454006813833,5.868815995557416,4.1983073355175335,-138.4239905330992,-1.8335431812694831,4.860139072417077
-4.26,7.87,-0.07,-3.7673454006813833,5.868815995557416,4.1983073355175335,-138.4239905330992,-1.8335431812694831,4.860139072417077
-6.22,4.37,0.27,-5.177221466527757,4.506116973102132,6.528008862082487,-139.96897956123578,-11.155913338134187,4.4587366294239885
-6.22,4.37,0.27,-5.177221466527757,4.506116973102132,6.528008862082487,-139.96897956123578,-11.155913338134187,4.4587366294239885
-4.3,6.22,3.99,-0.7288252013522944,8.46169153015365,8.823242518637501,-135.03608676528202,-26.5117266696815,2.544141615361497
-4.3,6.22,3.99,-0.7288252013522944,8.46169153015365,8.823242518637501,-135.03608676528202,-26.5117266696815,2.544141615361497
-2.02,7.84,4.52,5.13675328931599,7.600203909321983,8.454959879658723,-119.0385830310132,-46.12063959224854,-4.332593112917143
-2.02,7.84,4.52,5.13675328931599,7.600203909321983,8.454959879658723,-119.0385830310132,-46.12063959224854,-4.332593112917143
5.78,9.85,5.88,12.778653953486083,0.6682232260905376,8.682025237171239,-107.80196748253584,-57.47532863305489,-14.442363367873067
5.78,9.85,5.88,12.778653953486083,0.6682232260905376,8.682025237171239,-107.80196748253584,-57.47532863305489,-14.442363367873067
11.23,13.85,3.15,13.427204171332722,-8.274411053208597,0.9127076871735618,-90.926380189859,-69.63997654209203,-32.711441879621354
11.23,13.85,3.15,13.427204171332722,-8.274411053208597,0.9127076871735618,-90.926380189859,-69.63997654209203,-32.711441879621354
13.8,12.61,-11.03,-0.6102399281695394,-11.079292805260708,-8.847836810560239,-80.87226170457619,-78.82513609744035,-40.68118093937297
13.8,12.61,-11.03,-0.6102399281695394,-11.079292805260708,-8.847836810560239,-80.87226170457619,-78.82513609744035,-40.68118093937297
7.55,8.16,-3.33,2.4899822738432644,-6.597875483978092,0.5900873341322548,-76.66148200858531,-86.58136615125805,-39.20589109359036
7.55,8.16,-3.33,2.4899822738432644,-6.597875483978092,0.5900873341322548,-76.66148200858531,-86.58136615125805,-39.20589109359036
6.84,6.26,-5.82,-0.391246334817469,-5.259765366315546,0.2135590175898248,-73.16790541524159,-91.99343468996643,-38.08870741479733
6.84,6.26,-5.82,-0.391246334817469,-5.259765366315546,0.2135590175898248,-73.16790541524159,-91.99343468996643,-38.08870741479733
8.04,6.38,-10.55,-3.382950986359812,-4.7446777199452566,-3.70971696593216,-70.78858910682754,-94.96992497557171,-37.931149977697146
8.04,6.38,-10.55,-3.382950986359812,-4.7446777199452566,-3.70971696593216,-70.78858910682754,-94.96992497557171,-37.931149977697146
5.12,3.56,-7.75,-2.978543842180516,-3.19752002153478,0.8705075273167946,-69.75168169297477,-97.87613706345994,-34.18317656247093
5.12,3.56,-7.75,-2.978543842180516,-3.19752002153478,0.8705075273167946,-69.75168169297477,-97.87613706345994,-34.18317656247093
2.4,1.15,0.16,0.2534119370256755,-2.544367786174416,9.05161691539324,-69.54229663061771,-99.299361288376,-31.507090202315183
2.4,1.15,0.16,0.2534119370256755,-2.544367786174416,9.05161691539324,-69.54229663061771,-99.299361288376,-31.507090202315183
3.36,4.75,-1.98,1.2934088787603248,-3.353054178224681,4.821008501633521,-65.80348711235835,-100.54627658006508,-36.769926221818416
3.36,4.75,-1.98,1.2934088787603248,-3.353054178224681,4.821008501633521,-65.80348711235835,-100.54627658006508,-36.769926221818416
10.07,11.45,-13.21,-3.3590578736477923,-4.822239205510494,-9.49294168600005,-61.91471716129068,-100.29559547862137,-43.307915821839245
10.07,11.45,-13.21,-3.3590578736477923,-4.822239205510494,-9.49294168600005,-61.91471716129068,-100.29559547862137,-43.307915821839245
3.48,7.88,-2.67,2.416893033512691,-3.0412841137957187,1.6676746957168138,-60.46365910623083,-99.7428387240718,-46.13309422581874
3.48,7.88,-2.67,2.416893033512691,-3.0412841137957187,1.6676746957168138,-60.46365910623083,-99.7428387240718,-46.13309422581874
3.22,10.23,-3.69,3.288632881923869,-2.443065909008636,-0.7694420349706181,-60.01323233461206,-98.24315676541242,-48.44736344772761
3.22,10.23,-3.69,3.288632881923869,-2.443065909008636,-0.7694420349706181,-60.01323233461206,-98.24315676541242,-48.44736344772761
2.16,10.58,-4.24,3.365863708154341,-1.1555024925215251,-1.2348795809913096,-58.19536005826746,-98.12066633896302,-50.61801634307628
2.16,10.58,-4.24,3.365863708154341,-1.1555024925215251,-1.2348795809913096,-58.19536005826746,-98.12066633896302,-50.61801634307628
2.29,8.8,-5.16,1.6765261649902423,-0.6289520588907891,-0.4939994613553491,-55.213443709052655,-101.10372013014188,-50.49129103156368
2.29,8.8,-5.16,1.6765261649902423,-0.6289520588907891,-0.4939994613553491,-55.213443709052655,-101.10372013014188,-50.49129103156368
-0.72,6.12,-9.67,-0.1539329634896022,4.851485213992764,-0.5818578746257348,-51.65968866130368,-104.91470584503644,-49.84601386938241
-0.72,6.12,-9.67,-0.1539329634896022,4.851485213992764,-0.5818578746257348,-51.65968866130368,-104.91470584503644,-49.84601386938241
0.51,-0.13,-12.98,-5.455452078519071,7.922903102433407,1.0760687450987485,-48.171071061668,-109.63083923692189,-47.84492701246389
0.51,-0.13,-12.98,-5.455452078519071,7.922903102433407,1.0760687450987485,-48.171071061668,-109.63083923692189,-47.84492701246389
4.41,0.07,-10.36,-6.856380665015088,3.3689580177040703,1.5348445107881812,-47.75718944121001,-110.79266112612925,-46.744081927482135
4.41,0.07,-10.36,-6.856380665015088,3.3689580177040703,1.5348445107881812,-47.75718944121001,-110.79266112612925,-46.744081927482135
1.53,3.13,-9.67,-3.3651086258765086,3.687288738087641,0.8218491842877427,-50.17476615256415,-107.56890139317557,-47.92015436839679
1.53,3.13,-9.67,-3.3651086258765086,3.687288738087641,0.8218491842877427,-50.17476615256415,-107.56890139317557,-47.92015436839679
-0.61,5.08,-5.49,0.7022503504407368,2.3762244865359627,2.722936169325247,-52.539778806860255,-103.81206807438303,-49.73231720183757
-0.61,5.08,-5.49,0.7022503504407368,2.3762244865359627,2.722936169325247,-52.539778806860255,-103.81206807438303,-49.73231720183757
3.08,13.34,-6.21,2.1656380623692915,-1.2671054609076764,-5.015986591840042,-53.60288337963247,-98.57639627494255,-54.09126672763835
3.08,13.34,-6.21,2.1656380623692915,-1.2671054609076764,-5.015986591840042,-53.60288337963247,-98.57639627494255,-54.09126672763835
4.85,6.8,-6.33,-2.6663043327554736,-1.5232474287144986,-0.213426769967592,-52.96186978619433,-99.44105363347384,-53.64140160793269
4.85,6.8,-6.33,-2.6663043327554736,-1.5232474287144986,-0.213426769967592,-52.96186978619433,-99.44105363347384,-53.64140160793269
2.53,4.06,-5.26,-1.9882266628969736,-0.1244834395273253,2.9814350868834167,-55.278110287373416,-100.33136679814685,-50.111510359679706
2.53,4.06,-5.26,-1.9882266628969736,-0.1244834395273253,2.9814350868834167,-55.278110287373416,-100.33136679814685,-50.111510359679706
3.04,15.44,-2.76,6.413821635919199,-3.7005380054014654,-4.35038748999748,-60.13236310008998,-96.07798011256578,-49.17721568249704
3.04,15.44,-2.76,6.413821635919199,-3.7005380054014654,-4.35038748999748,-60.13236310008998,-96.07798011256578,-49.17721568249704
0.67,8.88,1.47,6.287137472710493,-2.666971727150264,3.905517548866518,-61.261061463678935,-96.43851781128038,-47.11885074218369
0.67,8.88,1.47,6.287137472710493,-2.666971727150264,3.905517548866518,-61.261061463678935,-96.43851781128038,-47.11885074218369
5.99,10.04,-5.15,0.6999564448133255,-4.390991880073842,-2.1697205388773733,-59.40545261479044,-98.85789490415894,-47.60685129535253
5.99,10.04,-5.15,0.6999564448133255,-4.390991880073842,-2.1697205388773733,-59.40545261479044,-98.85789490415894,-47.60685129535253
6.49,7.85,-3.97,-0.3492208476338461,-4.913641096139233,0.0476707512307132,-58.33966779766776,-99.79619278642058,-47.95777627551156
6.49,7.85,-3.97,-0.3492208476338461,-4.913641096139233,0.0476707512307132,-58.33966779766776,-99.79619278642058,-47.95777627551156
3.8,11.67,-2.13,4.3632951299168505,-4.35853058674844,-1.0160422128286657,-56.2114472624779,-101.10372013014188,-49.08901782409213
3.8,11.67,-2.13,4.3632951299168505,-4.35853058674844,-1.0160422128286657,-56.2114472624779,-101.10372013014188,-49.08901782409213
5.03,10.39,-6.15,0.663465871227434,-2.6774393049213123,-2.978756986333244,-52.62924891384529,-103.86780674134882,-50.03562494735928
5.03,10.39,-6.15,0.663465871227434,-2.6774393049213123,-2.978756986333244,-52.62924891384529,-103.86780674134882,-50.03562494735928
3.15,8.88,-7.23,0.2673016667025717,-0.5810528783379176,-2.0525543313012062,-48.66106748213056,-108.07470230594728,-48.92530395295319
3.15,8.88,-7.23,0.2673016667025717,-0.5810528783379176,-2.0525543313012062,-48.66106748213056,-108.07470230594728,-48.92530395295319
9.29,3.62,-14.26,-9.648138790076086,0.3889987594317896,-4.668093446865984,-48.79944259465472,-110.65153929836842,-45.53591791274641
9.29,3.62,-14.26,-9.648138790076086,0.3889987594317896,-4.668093446865984,-48.79944259465472,-110.65153929836842,-45.53591791274641
11.27,5.54,-14.87,-8.997922850174056,-4.115370481488621,-6.954093127391689,-56.91411976899951,-107.29780638051407,-39.948769456648414
11.27,5.54,-14.87,-8.997922850174056,-4.115370481488621,-6.954093127391689,-56.91411976899951,-107.29780638051407,-39.948769456648414
3.1,9.47,-8.19,1.8467174349119853,-2.4307755769691304,-2.725227944266871,-68.7212732151212,-98.71704488690264,-33.94348108559176
3.1,9.47,-8.19,1.8467174349119853,-2.4307755769691304,-2.725227944266871,-68.7212732151212,-98.71704488690264,-33.94348108559176
-0.43,14.06,-5.18,8.345999645363225,0.001782983592677,-2.6450642089178427,-83.6257545843694,-85.43747913251065,-24.150948661500923
-0.43,14.06,-5.18,8.345999645363225,0.001782983592677,-2.6450642089178427,-83.6257545843694,-85.43747913251065,-24.150948661500923
-2.11,11.45,-1.92,8.283768296077938,1.850177349257392,1.6092707484837625,-92.05943487025183,-76.50088290484744,-8.544988083393589
-2.11,11.45,-1.92,8.283768296077938,1.850177349257392,1.6092707484837625,-92.05943487025183,-76.50088290484744,-8.544988083393589
-6.27,-0.01,3.15,-0.8618950934231338,6.9443486281238345,9.288326762041557,-94.22644947426409,-72.71191496585868,6.454917855397503
-6.27,-0.01,3.15,-0.8618950934231338,6.9443486281238345,9.288326762041557,-94.22644947426409,-72.71191496585868,6.454917855397503
-9.67,6.26,6.19,2.5348463919378896,11.817729615315663,4.81381308011462,-95.90673837953938,-61.88799370587642,22.372624603038307
-9.67,6.26,6.19,2.5348463919378896,11.817729615315663,4.81381308011462,-95.90673837953938,-61.88799370587642,22.372624603038307
-7.69,3.84,-2.25,0.5076422860115477,3.101794353042308,1.4960921907498983,-95.03777424913532,-59.2603868777191,28.65924846946876
-7.69,3.84,-2.25,0.5076422860115477,3.101794353042308,1.4960921907498983,-95.03777424913532,-59.2603868777191,28.65924846946876
-6.97,-1.44,-2.83,-3.364819972701465,0.6612532628611345,2.95799095799296,-94.76663946259286,-57.80230590894848,36.48023552286196
-6.97,-1.44,-2.83,-3.364819972701465,0.6612532628611345,2.95799095799296,-94.76663946259286,-57.80230590894848,36.48023552286196
-7.65,-3.19,-2.85,-4.851685347481253,-0.236630199796469,2.5110173723535083,-95.10566742161478,-54.20709186156805,41.881213444145885
-7.65,-3.19,-2.85,-4.851685347481253,-0.236630199796469,2.5110173723535083,-95.10566742161478,-54.20709186156805,41.881213444145885
-7.47,0.97,-3.66,-0.5330766359001022,-0.0208761696207557,1.4488516364475874,-93.0375673318354,-52.98747589558396,45.11370802914807
-7.47,0.97,-3.66,-0.5330766359001022,-0.0208761696207557,1.4488516364475874,-93.0375673318354,-52.98747589558396,45.11370802914807
-6.11,4.55,-5.69,3.660438430191028,-1.7222875054319822,1.2016737509093876,-90.42102349007357,-51.39248622701663,47.06885078095891
-6.11,4.55,-5.69,3.660438430191028,-1.7222875054319822,1.2016737509093876,-90.42102349007357,-51.39248622701663,47.06885078095891
-7.93,3.17,-1.21,0.9611947492275664,2.3295455859856733,1.5575759903385524,-89.48149018225166,-51.77429627625306,48.13341793224112
-7.93,3.17,-1.21,0.9611947492275664,2.3295455859856733,1.5575759903385524,-89.48149018225166,-51.77429627625306,48.13341793224112
-9.98,1.26,-0.11,-1.3954315355745066,3.7381518635681386,0.5719820864025511,-90.177300926755,-53.320615694584525,48.4850628718776
-9.98,1.26,-0.11,-1.3954315355745066,3.7381518635681386,0.5719820864025511,-90.177300926755,-53.320615694584525,48.4850628718776
-5.71,-6.64,-8.77,-5.285245870507309,-7.21222683546481,1.224309983309526,-92.37347575931804,-56.10754388870858,46.29505700445262
-5.71,-6.64,-8.77,-5.285245870507309,-7.21222683546481,1.224309983309526,-92.37347575931804,-56.10754388870858,46.29505700445262
-7.93,3.95,-7.54,3.1860756796534377,-1.5873604327519248,-1.2689180946872636,-91.02445270227788,-59.31312595403664,42.59369907468167
-7.93,3.95,-7.54,3.1860756796534377,-1.5873604327519248,-1.2689180946872636,-91.02445270227788,-59.31312595403664,42.59369907468167
-13.32,9.18,-1.17,5.780069923322017,7.577815719046132,-3.3170385291325624,-90.45355927355088,-59.16812669186737,43.406566594214624
-13.32,9.18,-1.17,5.780069923322017,7.577815719046132,-3.3170385291325624,-90.45355927355088,-59.16812669186737,43.406566594214624
-7.72,-5.05,-5.42,-4.65121593904354,-3.101767201049741,0.6840116470409523,-90.68157114407572,-56.70567847737765,49.20242077437143
-7.72,-5.05,-5.42,-4.65121593904354,-3.101767201049741,0.6840116470409523,-90.68157114407572,-56.70567847737765,49.20242077437143
-10.82,0.4,-0.78,-1.3964597473460494,2.8390057009696568,-0.5775084542948914,-87.75200894857093,-52.94906780042738,54.219965017577714
-10.82,0.4,-0.78,-1.3964597473460494,2.8390057009696568,-0.5775084542948914,-87.75200894857093,-52.94906780042738,54.219965017577714
-12.01,-2.36,2.38,-5.102942999146591,3.546648016918712,-1.0033157997399529,-84.75308505755767,-48.61076799855758,59.24720426605303
-12.01,-2.36,2.38,-5.102942999146591,3.546648016918712,-1.0033157997399529,-84.75308505755767,-48.61076799855758,59.24720426605303
-5.2,-1.83,-11.15,1.5526319093287264,-9.708112282866548,2.1873790337336096,-85.96892404416114,-47.281416405631816,58.917918323687886
-5.2,-1.83,-11.15,1.5526319093287264,-9.708112282866548,2.1873790337336096,-85.96892404416114,-47.281416405631816,58.917918323687886
-5.43,-1.32,-11.94,2.131385989689406,-10.48574513002945,2.1061797006598777,-84.87724196421594,-46.19537604537457,59.418645600644645
-5.43,-1.32,-11.94,2.131385989689406,-10.48574513002945,2.1061797006598777,-84.87724196421594,-46.19537604537457,59.418645600644645
-9.93,1.95,2.69,-1.2394280819523982,3.8355693065686167,0.1425035749826033,-81.97585599565384,-43.44356934572808,61.367629313530685
-9.93,1.95,2.69,-1.2394280819523982,3.8355693065686167,0.1425035749826033,-81.97585599565384,-43.44356934572808,61.367629313530685
-8.65,3.05,1.58,0.3022484236354597,2.8749312432738736,0.9599095699400326,-81.38512714905085,-42.396980116115046,61.1146263962974
-8.65,3.05,1.58,0.3022484236354597,2.8749312432738736,0.9599095699400326,-81.38512714905085,-42.396980116115046,61.1146263962974
-6.28,6.32,-5.3,5.906971665540151,-2.4446335728073816,1.6456296938612611,-82.20376433319544,-43.45590465390315,58.4972102111192
-6.28,6.32,-5.3,5.906971665540151,-2.4446335728073816,1.6456296938612611,-82.20376433319544,-43.45590465390315,58.4972102111192
-9.1,-0.88,-0.56,-2.8419412297058537,0.0359612897866687,1.0991775290395065,-82.75236627086224,-45.12611671542185,57.540683062151366
-9.1,-0.88,-0.56,-2.8419412297058537,0.0359612897866687,1.0991775290395065,-82.75236627086224,-45.12611671542185,57.540683062151366
-7.86,-2.57,-4.55,-3.1772467129240414,-3.4877395410242134,1.6318242392152715,-84.47417954583062,-49.74494758083664,53.17961278851925
-7.86,-2.57,-4.55,-3.1772467129240414,-3.4877395410242134,1.6318242392152715,-84.47417954583062,-49.74494758083664,53.17961278851925
-11.26,1.23,-0.27,-1.6590768748329268,2.6879128456814527,-1.0743420713791174,-84.25767849428371,-52.15672470466425,50.06091747705543
-11.26,1.23,-0.27,-1.6590768748329268,2.6879128456814527,-1.0743420713791174,-84.25767849428371,-52.15672470466425,50.06091747705543
-7.12,3.02,-5.45,1.5485286099340665,-2.438712308720265,0.7970972131236156,-84.70655785585106,-54.74840524433751,45.33714998751986
-7.12,3.02,-5.45,1.5485286099340665,-2.438712308720265,0.7970972131236156,-84.70655785585106,-54.74840524433751,45.33714998751986
-10.79,5.76,-0.51,2.2519075601186995,4.1993588080006345,-1.4697012690208329,-86.23550907382523,-55.67947118427708,42.4092712076169
-10.79,5.76,-0.51,2.2519075601186995,4.1993588080006345,-1.4697012690208329,-86.23550907382523,-55.67947118427708,42.4092712076169
-3.53,2.78,-5.02,1.8856554713785527,-2.026857096751424,3.6645124443432953,-92.0099310436702,-58.24782388270019,36.86654380200172
-3.53,2.78,-5.02,1.8856554713785527,-2.026857096751424,3.6645124443432953,-92.0099310436702,-58.24782388270019,36.86654380200172
-7.02,1.27,-5.82,-0.7749435486357801,-0.2288252935996087,0.6353468493328709,-102.88812004458934,-53.692769431450216,34.24312448272413
-7.02,1.27,-5.82,-0.7749435486357801,-0.2288252935996087,0.6353468493328709,-102.88812004458934,-53.692769431450216,34.24312448272413
-5.04,-1.61,-6.23,-2.2005725287565983,-2.290522371521918,2.2755419931234986,-113.98515404910734,-46.2701332926198,33.0459740960127
-5.04,-1.61,-6.23,-2.2005725287565983,-2.290522371521918,2.2755419931234986,-113.98515404910734,-46.2701332926198,33.0459740960127
-5.46,0.7,-7.71,-0.381594296426282,-0.6906775876020939,0.3661494696828101,-127.84492955883974,-35.227664546585345,30.828988678188
-5.46,0.7,-7.71,-0.381594296426282,-0.6906775876020939,0.3661494696828101,-127.84492955883974,-35.227664546585345,30.828988678188
-5.2,0.33,-7.71,-0.7710868330298026,-0.5545327962084077,0.5497110635125521,-135.7000120016838,-29.1681050221712,28.375486985220768
-5.2,0.33,-7.71,-0.7710868330298026,-0.5545327962084077,0.5497110635125521,-135.7000120016838,-29.1681050221712,28.375486985220768
-5.6,2.9,-7.31,-0.8117095576837707,2.421130057632072,0.4961528683751073,-144.99354106549774,-21.368908312577144,24.87799095241944
-5.6,2.9,-7.31,-0.8117095576837707,2.421130057632072,0.4961528683751073,-144.99354106549774,-21.368908312577144,24.87799095241944
-3.53,0.37,-8.64,-0.3040043865010036,-0.0083396691603412,0.4709704969907804,-154.11739099299157,-15.459416628401115,19.83151281371854
-3.53,0.37,-8.64,-0.3040043865010036,-0.0083396691603412,0.4709704969907804,-154.11739099299157,-15.459416628401115,19.83151281371854
-1.64,-0.38,-10.64,1.214806555185471,-0.7588306493221254,-0.8700545982891104,-159.9290177639615,-12.088902226339815,15.806415466969176
-1.64,-0.38,-10.64,1.214806555185471,-0.7588306493221254,-0.8700545982891104,-159.9290177639615,-12.088902226339815,15.806415466969176
-2.48,-1.38,-9.8,-0.6160873986697155,-1.023879480119023,-0.3258179682391109,-164.96066657615674,-9.315090195791669,11.766299745968876
-2.48,-1.38,-9.8,-0.6160873986697155,-1.023879480119023,-0.3258179682391109,-164.96066657615674,-9.315090195791669,11.766299745968876
-1.35,-1.41,-9.1,0.0154635718556962,-1.0538024491593792,0.5594957741805171,-168.30883818145554,-6.799268354310192,9.4070701841208
-1.35,-1.41,-9.1,0.0154635718556962,-1.0538024491593792,0.5594957741805171,-168.30883818145554,-6.799268354310192,9.4070701841208
-2.11,-0.19,-8.41,-1.2433312687441709,0.1879148150778419,1.2255594295400165,-172.3974616580246,-4.642227799866185,5.835231869336321
-2.11,-0.19,-8.41,-1.2433312687441709,0.1879148150778419,1.2255594295400165,-172.3974616580246,-4.642227799866185,5.835231869336321
3.16,-0.84,-12.31,3.626045230599706,-0.7638958843523721,-2.379225391760521,-175.13792719078654,-4.011523869819651,2.440984806055245
3.16,-0.84,-12.31,3.626045230599706,-0.7638958843523721,-2.379225391760521,-175.13792719078654,-4.011523869819651,2.440984806055245
2.29,-0.52,-11.96,2.2512551351986008,-0.3881288309904216,-2.165705922156505,-176.7587532141521,-2.7733864743736323,-0.0802140978691341
2.29,-0.52,-11.96,2.2512551351986008,-0.3881288309904216,-2.165705922156505,-176.7587532141521,-2.7733864743736323,-0.0802140978691341
0.67,-0.88,-10.17,0.3251873671829444,-0.7308457542910796,-0.3919929322561994,-177.1930213381097,-2.0627594617091103,-1.7762402933693409
0.67,-0.88,-10.17,0.3251873671829444,-0.7308457542910796,-0.3919929322561994,-177.1930213381097,-2.0627594617091103,-1.7762402933693409
2.11,-1.22,-11.22,1.216533631737896,-1.1678339017709922,-1.5505111726137315,-175.4160320064456,-1.237612897472461,-4.401398006442045
2.11,-1.22,-11.22,1.216533631737896,-1.1678339017709922,-1.5505111726137315,-175.4160320064456,-1.237612897472461,-4.401398006442045
2.63,0.9,-11.88,1.4249549340167451,0.7605724186783528,-2.286833081063417,-174.1563208624574,-1.1573944243672372,-5.835231869336321
2.63,0.9,-11.88,1.4249549340167451,0.7605724186783528,-2.286833081063417,-174.1563208624574,-1.1573944243672372,-5.835231869336321
1.55,0.41,-11.05,0.3342374861978323,0.2868691253920171,-1.3503698264463535,-173.7227770024909,-0.8594447501191841,-6.294241112432486
1.55,0.41,-11.05,0.3342374861978323,0.2868691253920171,-1.3503698264463535,-173.7227770024909,-0.8594447501191841,-6.294241112432486
2.06,-0.25,-10.84,0.8060253853310217,-0.3601837652192733,-1.1948176627018494,-173.5168579087077,-0.9052827329224428,-6.546738821065048
2.06,-0.25,-10.84,0.8060253853310217,-0.3601837652192733,-1.1948176627018494,-173.5168579087077,-0.9052827329224428,-6.546738821065048
1.04,0.0,-10.04,-0.0558394436225727,-0.1095882685246445,-0.2863214340196993,-173.7227770024909,-1.0198783397289315,-6.225383461526625
1.04,0.0,-10.04,-0.0558394436225727,-0.1095882685246445,-0.2863214340196993,-173.7227770024909,-1.0198783397289315,-6.225383461526625
1.03,0.37,-9.85,0.0430991971919164,0.2077330322882184,-0.1016944351969186,-174.1563208624574,-0.8479852761926534,-5.743441500733661
1.03,0.37,-9.85,0.0430991971919164,0.2077330322882184,-0.1016944351969186,-174.1563208624574,-0.8479852761926534,-5.743441500733661
1.2,0.53,-9.59,0.2961979623749,0.3285806200561111,0.1374565722518248,-174.3856214977935,-1.100095864564908,-5.422203865470181
1.2,0.53,-9.59,0.2961979623749,0.3285806200561111,0.1374565722518248,-174.3856214977935,-1.100095864564908,-5.422203865470181
1.07,-0.1,-9.21,0.260186445092018,-0.2953910467162466,0.5425231041014841,-174.6246866421451,-1.5355728478655368,-4.986306217889054
1.07,-0.1,-9.21,0.260186445092018,-0.2953910467162466,0.5425231041014841,-174.6246866421451,-1.5355728478655368,-4.986306217889054
1.1,-0.46,-9.51,0.2658285857033985,-0.6697578448223188,0.2493250817855994,-174.6246866421451,-1.741858774764144,-4.906017344265486
1.1,-0.46,-9.51,0.2658285857033985,-0.6697578448223188,0.2493250817855994,-174.6246866421451,-1.741858774764144,-4.906017344265486
1.12,-0.99,-9.52,0.2560062288683326,-1.2075127657481763,0.2493871213649328,-174.6246866421451,-1.7303983035632713,-4.986306217889054
1.12,-0.99,-9.52,0.2560062288683326,-1.2075127657481763,0.2493871213649328,-174.6246866421451,-1.7303983035632713,-4.986306217889054
1.28,-0.04,-9.79,0.4111220251609521,-0.3631582403384783,-0.0515037202917394,-174.3856214977935,-1.5011923619341792,-5.0321866714644
1.28,-0.04,-9.79,0.4111220251609521,-0.3631582403384783,-0.0515037202917394,-174.3856214977935,-1.5011923619341792,-5.0321866714644
1.16,0.25,-9.95,0.2795862590861711,-0.1499406159949569,-0.2088354767707248,-174.3856214977935,-1.283452294756085,-5.0551272004985615
1.16,0.25,-9.95,0.2795862590861711,-0.1499406159949569,-0.2088354767707248,-174.3856214977935,-1.283452294756085,-5.0551272004985615
1.63,0.17,-10.41,0.6948252266007918,-0.272446505514438,-0.7051001305021583,-174.3856214977935,-1.0542572154525014,-5.112479412053579
1.63,0.17,-10.41,0.6948252266007918,-0.272446505514438,-0.7051001305021583,-174.3856214977935,-1.0542572154525014,-5.112479412053579
0.86,0.46,-9.56,0.0467394682911167,-0.0035131252432545,0.1971441292460358,-174.3856214977935,-0.60733810621587,-4.871608567013157
0.86,0.46,-9.56,0.0467394682911167,-0.0035131252432545,0.1971441292460358,-174.3856214977935,-0.60733810621587,-4.871608567013157
1.26,0.39,-9.94,0.397802390968849,-0.1057163008355258,-0.2120264256301407,-174.3856214977935,-0.4239897358038088,-4.9518964029981625
1.26,0.39,-9.94,0.397802390968849,-0.1057163008355258,-0.2120264256301407,-174.3856214977935,-0.4239897358038088,-4.9518964029981625
0.87,0.33,-9.61,0.0288047740824893,-0.1569241081037142,0.153026581340768,-174.1563208624574,0.1375099038337879,-4.997776256010228
0.87,0.33,-9.61,0.0288047740824893,-0.1569241081037142,0.153026581340768,-174.1563208624574,0.1375099038337879,-4.997776256010228
0.75,0.61,-9.44,-0.0787596580003488,0.094862523679841,0.3180780306321757,-174.1563208624574,0.3896120513439707,-4.997776256010228
0.75,0.61,-9.44,-0.0787596580003488,0.094862523679841,0.3180780306321757,-174.1563208624574,0.3896120513439707,-4.997776256010228
0.98,0.66,-9.51,0.1155275256414006,0.1188629397405519,0.2249682586575421,-173.7227770024909,0.5958787923837214,-5.15836210329675
0.98,0.66,-9.51,0.1155275256414006,0.1188629397405519,0.2249682586575421,-173.7227770024909,0.5958787923837214,-5.15836210329675
1.04,0.5,-9.74,0.1329874825991939,-0.0627416741999453,-0.0003667641230489,-173.7227770024909,0.6760941207657828,-5.296015172064578
1.04,0.5,-9.74,0.1329874825991939,-0.0627416741999453,-0.0003667641230489,-173.7227770024909,0.6760941207657828,-5.296015172064578
1.17,0.32,-9.75,0.2286434829742967,-0.2547095369228465,-0.0125477884903606,-173.5168579087077,0.9282017781870658,-5.502509177758649
1.17,0.32,-9.75,0.2286434829742967,-0.2547095369228465,-0.0125477884903606,-173.5168579087077,0.9282017781870658,-5.502509177758649
1.07,0.36,-9.59,0.1338227722613963,-0.2292113076260997,0.1540776152892462,-173.3172743700655,1.1573944243672372,-5.5598717686300585
1.07,0.36,-9.59,0.1338227722613963,-0.2292113076260997,0.1540776152892462,-173.3172743700655,1.1573944243672372,-5.5598717686300585
