,TIME,ELAPSED_SECONDS,PSTATE,acc_x,acc_y,acc_z,mag_x,mag_y,mag_z,gyr_x,gyr_y,gyr_z,lin_x,lin_y,lin_z,eul_x,eul_y,eul_z,qua_w,qua_x,qua_y,qua_z
0,1280544.0,1250.143993,1.0,8.08,4.27,-6.43,-22.69,-31.06,18.69,1.06,-2.44,0.44,-0.9260481042313344,0.06981631621583251,-1.3289577782328337,-115.04449255970869,-23.436594836002673,-57.72378450652888,-0.11900000000000001,-0.8436,-0.2031,-0.4827
1,1280544.0,1250.143993,1.0,8.08,4.27,-6.43,-22.69,-31.06,18.69,1.06,-2.44,0.44,-0.9260481042313344,0.06981631621583251,-1.3289577782328337,-115.04449255970869,-23.436594836002673,-57.72378450652888,-0.11900000000000001,-0.8436,-0.2031,-0.4827
2,1280579.0,1250.152475,1.0,8.51,4.1,-7.62,-22.0,-31.06,18.69,2.06,-26.0,-18.94,-1.683497530682282,-0.3854870053221444,-2.2063319708894245,-115.40818530642284,-23.740958889771715,-57.0836297204198,-0.1216,-0.8453,-0.2057,-0.4778
3,1280579.0,1250.152475,1.0,8.51,4.1,-7.62,-22.0,-31.06,18.69,2.06,-26.0,-18.94,-1.683497530682282,-0.3854870053221444,-2.2063319708894245,-115.40818530642284,-23.740958889771715,-57.0836297204198,-0.1216,-0.8453,-0.2057,-0.4778
4,1280616.0,1250.212567,1.0,7.79,4.36,-9.85,-22.0,-30.0,19.06,-2.69,-38.88,-14.25,-3.5997458115646435,-0.0929972921668396,-2.989809728994281,-116.37984588511999,-24.080642561887807,-55.640597444132574,-0.1285,-0.8498,-0.2086,-0.4667
5,1280616.0,1250.212567,1.0,7.79,4.36,-9.85,-22.0,-30.0,19.06,-2.69,-38.88,-14.25,-3.5997458115646435,-0.0929972921668396,-2.989809728994281,-116.37984588511999,-24.080642561887807,-55.640597444132574,-0.1285,-0.8498,-0.2086,-0.4667
6,1280651.0,1250.2197720000001,1.0,7.18,7.3,-11.25,-22.0,-30.0,19.06,26.62,-70.06,-23.87,-3.989062434047364,2.475672519066633,-4.662742747299744,-117.69645604638977,-24.50261820231894,-53.78269118475608,-0.1342,-0.8558,-0.2122,-0.4523
7,1280651.0,1250.2197720000001,1.0,7.18,7.3,-11.25,-22.0,-30.0,19.06,26.62,-70.06,-23.87,-3.989062434047364,2.475672519066633,-4.662742747299744,-117.69645604638977,-24.50261820231894,-53.78269118475608,-0.1342,-0.8558,-0.2122,-0.4523
8,1280688.0,1250.29045,1.0,6.25,6.53,-10.39,-19.37,-31.06,19.87,89.06,-114.06,4.06,-2.8331655726475526,2.3925175385565445,-3.4562506128246326,-121.5243930799012,-25.547298987438325,-49.47984477339551,-0.1207,-0.8726,-0.2211,-0.4185
9,1280688.0,1250.29045,1.0,6.25,6.53,-10.39,-19.37,-31.06,19.87,89.06,-114.06,4.06,-2.8331655726475526,2.3925175385565445,-3.4562506128246326,-121.5243930799012,-25.547298987438325,-49.47984477339551,-0.1207,-0.8726,-0.2211,-0.4185
10,1280722.0,1250.293705,1.0,3.49,6.26,-10.94,-17.87,-30.25,22.25,99.81,-132.13,2.56,-3.8971398451734434,3.644363368212719,-2.134129566996066,-125.37071718924679,-26.1821984911941,-45.2750645639147,-0.1056,-0.8885,-0.2265,-0.3849
11,1280722.0,1250.293705,1.0,3.49,6.26,-10.94,-17.87,-30.25,22.25,99.81,-132.13,2.56,-3.8971398451734434,3.644363368212719,-2.134129566996066,-125.37071718924679,-26.1821984911941,-45.2750645639147,-0.1056,-0.8885,-0.2265,-0.3849
12,1280757.0,1250.330185,1.0,3.21,5.55,-9.76,-17.87,-30.25,22.25,122.37,-166.5,-9.13,-1.977503675169932,3.4077113095325897,-1.186128668088115,-131.09368455172458,-27.407295558849807,-38.51327351873995,-0.0799,-0.9103,-0.2369,-0.3298
13,1280757.0,1250.330185,1.0,3.21,5.55,-9.76,-17.87,-30.25,22.25,122.37,-166.5,-9.13,-1.977503675169932,3.4077113095325897,-1.186128668088115,-131.09368455172458,-27.407295558849807,-38.51327351873995,-0.0799,-0.9103,-0.2369,-0.3298
14,1280792.0,1250.393798,1.0,1.26,4.17,-6.39,-16.0,-27.25,27.25,174.69,-116.87,-48.81,-0.585465422004549,3.3208133205422348,2.8469065327631284,-134.97619058332577,-30.4369103155404,-31.924028325694472,-0.0455,-0.9238,-0.2625,-0.275
15,1280792.0,1250.393798,1.0,1.26,4.17,-6.39,-16.0,-27.25,27.25,174.69,-116.87,-48.81,-0.585465422004549,3.3208133205422348,2.8469065327631284,-134.97619058332577,-30.4369103155404,-31.924028325694472,-0.0455,-0.9238,-0.2625,-0.275
16,1280831.0,1250.45143,1.0,0.39,2.74,-8.3,-10.0,-24.75,31.19,154.38,-33.44,-37.88,-2.2398922572394158,3.0859320786459468,1.9320321754993817,-135.18615927411605,-33.09378799906577,-29.2983716924918,-0.0128,-0.9245,-0.2848,-0.2529
17,1280831.0,1250.45143,1.0,0.39,2.74,-8.3,-10.0,-24.75,31.19,154.38,-33.44,-37.88,-2.2398922572394158,3.0859320786459468,1.9320321754993817,-135.18615927411605,-33.09378799906577,-29.2983716924918,-0.0128,-0.9245,-0.2848,-0.2529
18,1280866.0,1250.467388,1.0,0.96,2.55,-7.72,-10.0,-24.75,31.19,154.75,3.19,-45.19,-1.0474908151037527,3.0974044600955666,2.301228719162169,-133.91067619883825,-36.17873077462121,-27.36011828826252,0.0313,-0.9202,-0.3105,-0.2365
19,1280866.0,1250.467388,1.0,0.96,2.55,-7.72,-10.0,-24.75,31.19,154.75,3.19,-45.19,-1.0474908151037527,3.0974044600955666,2.301228719162169,-133.91067619883825,-36.17873077462121,-27.36011828826252,0.0313,-0.9202,-0.3105,-0.2365
20,1280901.0,1250.5068609999998,1.0,3.93,-2.32,-9.3,-8.19,-21.06,32.75,157.63,41.44,-46.56,-2.3743183103941545,-1.391522732332772,-0.18052062267027932,-131.37124925693712,-38.707543665525726,-27.077153605664893,0.0706,-0.9113,-0.3314,-0.2341
21,1280901.0,1250.5068609999998,1.0,3.93,-2.32,-9.3,-8.19,-21.06,32.75,157.63,41.44,-46.56,-2.3743183103941545,-1.391522732332772,-0.18052062267027932,-131.37124925693712,-38.707543665525726,-27.077153605664893,0.0706,-0.9113,-0.3314,-0.2341
22,1280937.0,1250.529334,1.0,2.59,-1.11,-6.22,-5.75,-17.25,35.38,25.37,58.38,-40.25,-1.3772423092757786,-0.2246678603377621,3.122240678745652,-128.3687376178253,-41.03580078188174,-27.832105272694303,0.0947,-0.9002,-0.3505,-0.2405
23,1280937.0,1250.529334,1.0,2.59,-1.11,-6.22,-5.75,-17.25,35.38,25.37,58.38,-40.25,-1.3772423092757786,-0.2246678603377621,3.122240678745652,-128.3687376178253,-41.03580078188174,-27.832105272694303,0.0947,-0.9002,-0.3505,-0.2405
24,1280972.0,1250.5669890000001,1.0,0.87,2.09,-3.58,-5.75,-13.75,36.19,85.94,96.37,2.25,0.6336618067390717,2.3812789499287046,6.36145286815012,-126.40360438507471,-41.47659109099214,-29.59457663056109,0.1128,-0.8926,-0.3541,-0.2554
25,1280972.0,1250.5669890000001,1.0,0.87,2.09,-3.58,-5.75,-13.75,36.19,85.94,96.37,2.25,0.6336618067390717,2.3812789499287046,6.36145286815012,-126.40360438507471,-41.47659109099214,-29.59457663056109,0.1128,-0.8926,-0.3541,-0.2554
26,1281007.0,1250.574154,1.0,3.2,-3.76,-3.48,-5.75,-13.75,36.19,208.19,142.5,26.62,-2.0023008650069816,-2.3970620777517193,4.636264652523769,-121.80654521371449,-41.91802433278389,-31.43565821002521,0.1872,-0.8738,-0.3577,-0.2709
27,1281007.0,1250.574154,1.0,3.2,-3.76,-3.48,-5.75,-13.75,36.19,208.19,142.5,26.62,-2.0023008650069816,-2.3970620777517193,4.636264652523769,-121.80654521371449,-41.91802433278389,-31.43565821002521,0.1872,-0.8738,-0.3577,-0.2709
28,1281042.0,1250.635642,1.0,4.42,-3.59,0.44,-8.75,-11.5,36.19,94.37,160.06,-6.81,-0.003964237910813351,-4.666020083018748,6.513271663142317,-117.80730258048688,-41.96711256530092,-33.8955603834521,0.2313,-0.8563,-0.3581,-0.2915
29,1281042.0,1250.635642,1.0,4.42,-3.59,0.44,-8.75,-11.5,36.19,94.37,160.06,-6.81,-0.003964237910813351,-4.666020083018748,6.513271663142317,-117.80730258048688,-41.96711256530092,-33.8955603834521,0.2313,-0.8563,-0.3581,-0.2915
30,1281079.0,1250.652727,1.0,6.93,-0.14,0.51,-13.69,-4.38,36.69,3.69,166.75,-17.12,3.7072467393858166,-3.2896651196511413,4.934378967528195,-113.00294363849156,-41.20714343304567,-39.68064610609173,0.256,-0.8339,-0.3519,-0.3394
31,1281079.0,1250.652727,1.0,6.93,-0.14,0.51,-13.69,-4.38,36.69,3.69,166.75,-17.12,3.7072467393858166,-3.2896651196511413,4.934378967528195,-113.00294363849156,-41.20714343304567,-39.68064610609173,0.256,-0.8339,-0.3519,-0.3394
32,1281116.0,1250.7018380000002,1.0,9.39,2.25,1.71,-13.69,-4.38,36.69,19.69,121.69,-20.56,7.0247920188691255,-3.290854077898896,3.8082104921272393,-110.02956467321043,-40.63229985656115,-43.135358011103925,0.2704,-0.8193,-0.3472,-0.3676
33,1281116.0,1250.7018380000002,1.0,9.39,2.25,1.71,-13.69,-4.38,36.69,19.69,121.69,-20.56,7.0247920188691255,-3.290854077898896,3.8082104921272393,-110.02956467321043,-40.63229985656115,-43.135358011103925,0.2704,-0.8193,-0.3472,-0.3676
34,1281148.0,1250.752715,1.0,9.98,2.09,1.83,-19.56,-5.5,34.19,-32.5,140.63,-104.75,6.615545424628311,-3.4974688290660247,2.642875120483548,-105.49962088989868,-41.59914654454349,-48.20872972254528,0.271,-0.7959999999999999,-0.3551,-0.4084
35,1281148.0,1250.752715,1.0,9.98,2.09,1.83,-19.56,-5.5,34.19,-32.5,140.63,-104.75,6.615545424628311,-3.4974688290660247,2.642875120483548,-105.49962088989868,-41.59914654454349,-48.20872972254528,0.271,-0.7959999999999999,-0.3551,-0.4084
36,1281185.0,1250.757269,1.0,8.76,2.63,2.42,-23.75,-5.38,32.06,-22.25,153.44,-59.63,6.176343768638673,-2.8235186761620583,3.219433597226952,-100.17050104885807,-41.721751807135746,-54.64519627292022,0.2726,-0.767,-0.3561,-0.45899999999999996
37,1281185.0,1250.757269,1.0,8.76,2.63,2.42,-23.75,-5.38,32.06,-22.25,153.44,-59.63,6.176343768638673,-2.8235186761620583,3.219433597226952,-100.17050104885807,-41.721751807135746,-54.64519627292022,0.2726,-0.767,-0.3561,-0.45899999999999996
38,1281222.0,1250.777475,1.0,10.43,2.63,1.58,-27.5,-8.0,29.69,46.06,185.5,-23.5,5.782040112439219,-2.1331806669233835,0.8503252861227644,-95.75286306642671,-41.096983557102725,-58.81265977015818,0.2925,-0.7417,-0.35100000000000003,-0.491
39,1281222.0,1250.777475,1.0,10.43,2.63,1.58,-27.5,-8.0,29.69,46.06,185.5,-23.5,5.782040112439219,-2.1331806669233835,0.8503252861227644,-95.75286306642671,-41.096983557102725,-58.81265977015818,0.2925,-0.7417,-0.35100000000000003,-0.491
40,1281255.0,1250.8280519999998,1.0,13.41,-0.54,1.18,-27.5,-8.0,29.69,88.12,208.31,-33.81,2.579981393898955,-3.0766102947545697,-3.0537646551091218,-87.89516721143072,-41.13369909947952,-64.64713688163303,0.3302,-0.6940000000000001,-0.3513,-0.5347
41,1281255.0,1250.8280519999998,1.0,13.41,-0.54,1.18,-27.5,-8.0,29.69,88.12,208.31,-33.81,2.579981393898955,-3.0766102947545697,-3.0537646551091218,-87.89516721143072,-41.13369909947952,-64.64713688163303,0.3302,-0.6940000000000001,-0.3513,-0.5347
42,1281292.0,1250.870697,1.0,18.29,-2.08,-4.28,-32.38,-7.56,27.0,34.69,170.06,-20.0,-1.678757331450481,1.5561336975475475,-8.953124032153434,-82.66077240399828,-40.52234562197142,-68.73515523864087,0.3539,-0.6604,-0.3463,-0.5645
43,1281292.0,1250.870697,1.0,18.29,-2.08,-4.28,-32.38,-7.56,27.0,34.69,170.06,-20.0,-1.678757331450481,1.5561336975475475,-8.953124032153434,-82.66077240399828,-40.52234562197142,-68.73515523864087,0.3539,-0.6604,-0.3463,-0.5645
44,1281329.0,1250.92873,1.0,15.21,0.99,-2.9,-37.75,-7.19,21.56,-63.13,31.5,-42.69,0.5002649462932323,2.6243292319278,-5.4772248707897875,-80.45136650125512,-39.38840578330453,-72.22888386833002,0.3492,-0.6458,-0.337,-0.5894
45,1281329.0,1250.92873,1.0,15.21,0.99,-2.9,-37.75,-7.19,21.56,-63.13,31.5,-42.69,0.5002649462932323,2.6243292319278,-5.4772248707897875,-80.45136650125512,-39.38840578330453,-72.22888386833002,0.3492,-0.6458,-0.337,-0.5894
46,1281363.0,1250.9455289999999,1.0,11.3,2.22,2.41,-37.75,-7.19,21.56,42.63,98.56,87.06,3.9258295045875413,-1.2471474889570702,-1.2141932454916091,-80.93249704821434,-39.42492119409256,-72.86851051764684,0.3351,-0.649,-0.3373,-0.5939
47,1281363.0,1250.9455289999999,1.0,11.3,2.22,2.41,-37.75,-7.19,21.56,42.63,98.56,87.06,3.9258295045875413,-1.2471474889570702,-1.2141932454916091,-80.93249704821434,-39.42492119409256,-72.86851051764684,0.3351,-0.649,-0.3373,-0.5939
48,1281398.0,1250.984864,1.0,12.22,3.24,0.28,-39.56,-8.5,20.87,31.44,3.31,17.19,3.619984584300025,1.2081500167077408,-2.249074165165659,-80.97769128657099,-38.58611130749907,-73.59662288630017,0.3324,-0.6493,-0.3304,-0.599
49,1281398.0,1250.984864,1.0,12.22,3.24,0.28,-39.56,-8.5,20.87,31.44,3.31,17.19,3.619984584300025,1.2081500167077408,-2.249074165165659,-80.97769128657099,-38.58611130749907,-73.59662288630017,0.3324,-0.6493,-0.3304,-0.599
50,1281433.0,1251.039097,1.0,22.86,-0.2,0.21,-39.0,-10.69,19.37,101.12,5.56,32.0,1.7544025249079378,-0.6912918487265305,-12.977289241502572,-79.79258672651936,-39.92438520696097,-71.77561964048606,0.3583,-0.6414,-0.3414,-0.5862
51,1281433.0,1251.039097,1.0,22.86,-0.2,0.21,-39.0,-10.69,19.37,101.12,5.56,32.0,1.7544025249079378,-0.6912918487265305,-12.977289241502572,-79.79258672651936,-39.92438520696097,-71.77561964048606,0.3583,-0.6414,-0.3414,-0.5862
52,1281470.0,1251.058777,1.0,20.81,0.27,-0.44,-38.69,-8.5,19.5,-21.19,-100.31,-9.75,1.931561882674076,-0.4146310887594877,-10.915795554365314,-80.73683070850339,-41.03580078188174,-70.25529850674774,0.3557,-0.6477,-0.3505,-0.5754
53,1281470.0,1251.058777,1.0,20.81,0.27,-0.44,-38.69,-8.5,19.5,-21.19,-100.31,-9.75,1.931561882674076,-0.4146310887594877,-10.915795554365314,-80.73683070850339,-41.03580078188174,-70.25529850674774,0.3557,-0.6477,-0.3505,-0.5754
54,1281505.0,1251.10415,1.0,17.03,4.83,6.4,-38.69,-8.5,19.5,-5.44,-254.31,41.5,10.359487309923919,-5.69382504299537,-4.841598327198863,-87.94292494652382,-43.01216531236248,-63.080848073266175,0.3315,-0.6943,-0.3666,-0.5231
55,1281505.0,1251.10415,1.0,17.03,4.83,6.4,-38.69,-8.5,19.5,-5.44,-254.31,41.5,10.359487309923919,-5.69382504299537,-4.841598327198863,-87.94292494652382,-43.01216531236248,-63.080848073266175,0.3315,-0.6943,-0.3666,-0.5231
56,1281542.0,1251.12105,1.0,15.18,-0.35,5.11,-36.25,-7.69,22.25,108.94,-188.19,83.06,5.87694180817721,-8.037096499853277,-2.744590370391487,-92.0759410724168,-45.051672965046905,-55.82206789104122,0.3405,-0.7198,-0.3831,-0.4681
57,1281542.0,1251.12105,1.0,15.18,-0.35,5.11,-36.25,-7.69,22.25,108.94,-188.19,83.06,5.87694180817721,-8.037096499853277,-2.744590370391487,-92.0759410724168,-45.051672965046905,-55.82206789104122,0.3405,-0.7198,-0.3831,-0.4681
58,1281579.0,1251.159324,1.0,11.3,0.96,3.72,-30.0,-4.75,27.19,-31.0,-208.69,51.13,6.188121194221418,-6.213192136452722,1.7101446080948133,-98.0332655181114,-46.10818553492847,-48.62334193420396,0.3275,-0.7549,-0.3916,-0.4117
59,1281579.0,1251.159324,1.0,11.3,0.96,3.72,-30.0,-4.75,27.19,-31.0,-208.69,51.13,6.188121194221418,-6.213192136452722,1.7101446080948133,-98.0332655181114,-46.10818553492847,-48.62334193420396,0.3275,-0.7549,-0.3916,-0.4117
60,1281613.0,1251.175825,1.0,7.58,0.64,4.3,-30.0,-4.75,27.19,2.44,-183.06,110.62,5.187839770043535,-5.913255080247983,6.00195121083468,-103.18276029513798,-45.90899880278562,-43.135358011103925,0.3143,-0.7836,-0.39,-0.3676
61,1281613.0,1251.175825,1.0,7.58,0.64,4.3,-30.0,-4.75,27.19,2.44,-183.06,110.62,5.187839770043535,-5.913255080247983,6.00195121083468,-103.18276029513798,-45.90899880278562,-43.135358011103925,0.3143,-0.7836,-0.39,-0.3676
62,1281648.0,1251.2158029999998,1.0,6.38,-0.3,2.35,-23.56,-2.5,32.75,-35.38,-82.56,153.19,3.858504307900129,-4.402598814428668,6.335919790792223,-109.63083923692189,-42.421562810614134,-37.41052638436744,0.3134,-0.8173,-0.3618,-0.3207
63,1281648.0,1251.2158029999998,1.0,6.38,-0.3,2.35,-23.56,-2.5,32.75,-35.38,-82.56,153.19,3.858504307900129,-4.402598814428668,6.335919790792223,-109.63083923692189,-42.421562810614134,-37.41052638436744,0.3134,-0.8173,-0.3618,-0.3207
64,1281683.0,1251.278372,1.0,4.75,-0.58,-2.42,-19.87,-0.25,34.0,-106.37,-56.13,152.88,1.6661044896180681,-0.391851932380236,4.724736197822283,-114.70384241769943,-38.3312497043692,-35.34791273696944,0.3019,-0.8420000000000001,-0.3283,-0.3036
65,1281683.0,1251.278372,1.0,4.75,-0.58,-2.42,-19.87,-0.25,34.0,-106.37,-56.13,152.88,1.6661044896180681,-0.391851932380236,4.724736197822283,-114.70384241769943,-38.3312497043692,-35.34791273696944,0.3019,-0.8420000000000001,-0.3283,-0.3036
66,1281720.0,1251.333793,1.0,2.92,-2.11,-1.67,-18.37,-0.56,34.88,-74.75,-72.25,228.94,0.2004624277479769,-1.302349368821344,6.0608388813513265,-122.97188128580086,-31.16195134015795,-31.56662645811723,0.2858,-0.8787,-0.2686,-0.272
67,1281720.0,1251.333793,1.0,2.92,-2.11,-1.67,-18.37,-0.56,34.88,-74.75,-72.25,228.94,0.2004624277479769,-1.302349368821344,6.0608388813513265,-122.97188128580086,-31.16195134015795,-31.56662645811723,0.2858,-0.8787,-0.2686,-0.272
68,1281755.0,1251.3378910000001,1.0,2.37,-6.07,-1.02,-18.37,-0.56,34.88,-49.31,4.38,268.56,-1.3480707856523968,-4.4501456592630175,5.128925257327227,-129.72743673627951,-21.415555412105128,-28.682903338517608,0.2907,-0.9053,-0.1858,-0.2477
69,1281755.0,1251.3378910000001,1.0,2.37,-6.07,-1.02,-18.37,-0.56,34.88,-49.31,4.38,268.56,-1.3480707856523968,-4.4501456592630175,5.128925257327227,-129.72743673627951,-21.415555412105128,-28.682903338517608,0.2907,-0.9053,-0.1858,-0.2477
70,1281792.0,1251.399023,1.0,4.38,-5.2,-2.2,-18.0,1.25,35.38,-207.75,87.37,259.25,1.0580706708000274,-3.3342062065679547,3.5754418163748927,-134.26323636741046,-12.549930441445206,-29.23915478171118,0.2744,-0.9214,-0.1093,-0.2524
71,1281792.0,1251.399023,1.0,4.38,-5.2,-2.2,-18.0,1.25,35.38,-207.75,87.37,259.25,1.0580706708000274,-3.3342062065679547,3.5754418163748927,-134.26323636741046,-12.549930441445206,-29.23915478171118,0.2744,-0.9214,-0.1093,-0.2524
72,1281828.0,1251.415704,1.0,3.78,-1.97,-2.49,-18.56,2.38,33.69,-288.0,72.06,291.44,1.851958864045336,-0.34786572782296865,5.2439054529877405,-140.8829393690889,0.8365258107465946,-30.14012428977767,0.2109,-0.9423,0.0073,-0.26
73,1281828.0,1251.415704,1.0,3.78,-1.97,-2.49,-18.56,2.38,33.69,-288.0,72.06,291.44,1.851958864045336,-0.34786572782296865,5.2439054529877405,-140.8829393690889,0.8365258107465946,-30.14012428977767,0.2109,-0.9423,0.0073,-0.26
74,1281865.0,1251.454925,1.0,3.64,-1.88,-2.38,-18.56,2.38,33.69,-203.44,112.0,350.56,1.992813692276028,0.005275625292761155,5.508154245011406,-141.02009032147248,12.307865676783145,-30.44878609284871,0.1757,-0.9427,0.1072,-0.2626
75,1281865.0,1251.454925,1.0,3.64,-1.88,-2.38,-18.56,2.38,33.69,-203.44,112.0,350.56,1.992813692276028,0.005275625292761155,5.508154245011406,-141.02009032147248,12.307865676783145,-30.44878609284871,0.1757,-0.9427,0.1072,-0.2626
76,1281898.0,1251.507293,1.0,6.3,-2.05,-4.96,-20.37,0.0,33.38,-287.56,140.75,180.88,2.4811452320330174,1.7534808730096227,2.108382456873869,-135.1561066706563,25.747087788934113,-33.01011755272957,0.1232,-0.9244,0.2228,-0.2841
77,1281898.0,1251.507293,1.0,6.3,-2.05,-4.96,-20.37,0.0,33.38,-287.56,140.75,180.88,2.4811452320330174,1.7534808730096227,2.108382456873869,-135.1561066706563,25.747087788934113,-33.01011755272957,0.1232,-0.9244,0.2228,-0.2841
78,1281935.0,1251.521736,1.0,5.17,-0.22,-6.58,-24.56,1.75,31.19,-325.5,54.44,137.31,0.09001184951361685,2.08226603256174,1.6992604055259104,-131.3990875860209,35.191597906700245,-32.150547625319554,0.0346,-0.9114,0.3023,-0.2769
79,1281935.0,1251.521736,1.0,5.17,-0.22,-6.58,-24.56,1.75,31.19,-325.5,54.44,137.31,0.09001184951361685,2.08226603256174,1.6992604055259104,-131.3990875860209,35.191597906700245,-32.150547625319554,0.0346,-0.9114,0.3023,-0.2769
80,1281972.0,1251.532159,1.0,3.06,1.21,-3.19,-25.5,-2.19,29.5,-241.69,85.56,154.75,-0.4676562366057175,2.129268756254581,5.7753583697651125,-126.5308282926202,42.151265384526,-31.328533702747045,-0.0154,-0.8931,0.3596,-0.27
81,1281972.0,1251.532159,1.0,3.06,1.21,-3.19,-25.5,-2.19,29.5,-241.69,85.56,154.75,-0.4676562366057175,2.129268756254581,5.7753583697651125,-126.5308282926202,42.151265384526,-31.328533702747045,-0.0154,-0.8931,0.3596,-0.27
82,1282007.0,1251.571296,1.0,5.77,1.2,-6.83,-25.5,-2.19,29.5,-347.0,96.19,33.19,-0.21900064047296164,1.659598534207451,0.9421380887479812,-120.70844309282913,47.81985609667796,-29.879123753551497,-0.1179,-0.8691,0.4053,-0.2578
83,1282007.0,1251.571296,1.0,5.77,1.2,-6.83,-25.5,-2.19,29.5,-347.0,96.19,33.19,-0.21900064047296164,1.659598534207451,0.9421380887479812,-120.70844309282913,47.81985609667796,-29.879123753551497,-0.1179,-0.8691,0.4053,-0.2578
84,1282043.0,1251.7097,1.0,7.6,5.34,-4.97,-27.19,-4.75,27.37,-280.63,16.25,148.31,-2.0182055879626315,5.412087048105131,0.996845235508955,-114.74633713830113,53.59004542379221,-27.312945744821853,-0.1782,-0.8422,0.4508,-0.2361
85,1282043.0,1251.7097,1.0,7.6,5.34,-4.97,-27.19,-4.75,27.37,-280.63,16.25,148.31,-2.0182055879626315,5.412087048105131,0.996845235508955,-114.74633713830113,53.59004542379221,-27.312945744821853,-0.1782,-0.8422,0.4508,-0.2361
86,1282080.0,1251.721012,1.0,10.24,7.38,-3.61,-28.75,-11.0,22.69,-354.94,7.56,-66.37,-1.9804033528146587,7.705754141204532,-0.6362162576645911,-108.85892668852873,57.64529274825973,-21.882225322200526,-0.2645,-0.8134,0.4821,-0.1898
87,1282080.0,1251.721012,1.0,10.24,7.38,-3.61,-28.75,-11.0,22.69,-354.94,7.56,-66.37,-1.9804033528146587,7.705754141204532,-0.6362162576645911,-108.85892668852873,57.64529274825973,-21.882225322200526,-0.2645,-0.8134,0.4821,-0.1898
88,1282115.0,1251.724199,1.0,8.4,2.92,0.76,-28.75,-11.0,22.69,-426.13,-40.31,-52.63,1.592530109248418,7.0410577524661075,4.557711671387803,-104.91470584503644,57.78921694693311,-14.962299399917931,-0.3477,-0.7929,0.4832,-0.1302
89,1282115.0,1251.724199,1.0,8.4,2.92,0.76,-28.75,-11.0,22.69,-426.13,-40.31,-52.63,1.592530109248418,7.0410577524661075,4.557711671387803,-104.91470584503644,57.78921694693311,-14.962299399917931,-0.3477,-0.7929,0.4832,-0.1302
90,1282150.0,1251.764815,1.0,7.92,7.91,7.31,-30.69,-14.25,19.0,-516.94,-106.75,129.88,-5.957003555264079,10.991784388173865,5.071105194334208,-91.43401211484779,64.0920067563967,-4.2179217507646545,-0.4524,-0.7159,0.5306,-0.0368
91,1282150.0,1251.764815,1.0,7.92,7.91,7.31,-30.69,-14.25,19.0,-516.94,-106.75,129.88,-5.957003555264079,10.991784388173865,5.071105194334208,-91.43401211484779,64.0920067563967,-4.2179217507646545,-0.4524,-0.7159,0.5306,-0.0368
92,1282185.0,1251.78136,1.0,7.53,15.02,10.52,-29.56,-21.0,13.69,-688.31,-59.88,13.25,-13.009547370486452,7.755533861126574,-2.9829970531437318,-72.82578699012866,66.03566049429847,11.029269725697887,-0.5844,-0.5936,0.5449,0.0961
93,1282185.0,1251.78136,1.0,7.53,15.02,10.52,-29.56,-21.0,13.69,-688.31,-59.88,13.25,-13.009547370486452,7.755533861126574,-2.9829970531437318,-72.82578699012866,66.03566049429847,11.029269725697887,-0.5844,-0.5936,0.5449,0.0961
94,1282222.0,1251.784206,1.0,2.17,30.33,8.05,-30.69,-23.5,4.75,-664.31,-107.75,-288.56,-11.105139373109749,-6.878687469544713,-18.807679246028755,-58.70745568211353,59.577029137074135,28.966859495010613,-0.6711,-0.4902,0.4968,0.2501
95,1282222.0,1251.784206,1.0,2.17,30.33,8.05,-30.69,-23.5,4.75,-664.31,-107.75,-288.56,-11.105139373109749,-6.878687469544713,-18.807679246028755,-58.70745568211353,59.577029137074135,28.966859495010613,-0.6711,-0.4902,0.4968,0.2501
96,1282256.0,1251.822635,1.0,-0.59,22.91,12.19,-30.69,-23.5,4.75,-265.38,-5.88,-425.88,-7.6895035074707,-2.0638850246321367,-14.900114547663755,-56.28940782045202,47.24389230544818,47.131352218600796,-0.6761,-0.4717,0.4007,0.3998
97,1282256.0,1251.822635,1.0,-0.59,22.91,12.19,-30.69,-23.5,4.75,-265.38,-5.88,-425.88,-7.6895035074707,-2.0638850246321367,-14.900114547663755,-56.28940782045202,47.24389230544818,47.131352218600796,-0.6761,-0.4717,0.4007,0.3998
98,1282293.0,1251.879451,1.0,5.61,15.78,13.02,-25.06,-29.5,-7.38,30.5,37.13,-328.25,-6.225386668509799,8.623430701385242,-8.547692912944251,-61.15455226396579,40.54677652678586,54.32297694444978,-0.6425,-0.5087,0.3465,0.4565
99,1282293.0,1251.879451,1.0,5.61,15.78,13.02,-25.06,-29.5,-7.38,30.5,37.13,-328.25,-6.225386668509799,8.623430701385242,-8.547692912944251,-61.15455226396579,40.54677652678586,54.32297694444978,-0.6425,-0.5087,0.3465,0.4565
100,1282330.0,1251.8959710000001,1.0,5.15,10.77,15.11,-13.19,-34.5,-12.56,82.87,64.12,-397.63,-9.457768381966435,11.865458523919745,-2.050373709608424,-68.73515523864087,33.70393852830112,62.35619623181861,-0.574,-0.5645,0.2899,0.5177
101,1282330.0,1251.8959710000001,1.0,5.15,10.77,15.11,-13.19,-34.5,-12.56,82.87,64.12,-397.63,-9.457768381966435,11.865458523919745,-2.050373709608424,-68.73515523864087,33.70393852830112,62.35619623181861,-0.574,-0.5645,0.2899,0.5177
102,1282367.0,1251.935867,1.0,-0.81,7.69,16.02,-13.19,-34.5,-12.56,18.19,172.06,-277.94,-12.454898662674866,8.464740182199446,0.337950355890575,-76.00560231797398,26.076325639174165,65.10878208962191,-0.5296,-0.6157,0.2256,0.5381
103,1282367.0,1251.935867,1.0,-0.81,7.69,16.02,-13.19,-34.5,-12.56,18.19,172.06,-277.94,-12.454898662674866,8.464740182199446,0.337950355890575,-76.00560231797398,26.076325639174165,65.10878208962191,-0.5296,-0.6157,0.2256,0.5381
104,1282402.0,1251.998115,1.0,1.4,14.29,12.45,-2.5,-36.69,-9.75,-71.0,343.63,-222.63,-4.284055432254327,14.114258420529435,-2.1767209068811635,-83.24196162167489,14.280666944469896,63.25572065292907,-0.5181,-0.6642,0.1243,0.5244
105,1282402.0,1251.998115,1.0,1.4,14.29,12.45,-2.5,-36.69,-9.75,-71.0,343.63,-222.63,-4.284055432254327,14.114258420529435,-2.1767209068811635,-83.24196162167489,14.280666944469896,63.25572065292907,-0.5181,-0.6642,0.1243,0.5244
106,1282439.0,1252.015028,1.0,5.06,16.6,0.08,8.38,-35.25,-11.38,-51.38,392.75,-213.31,10.671403695007696,10.725356244719704,1.3061866830961308,-93.15420041095278,-0.4239897358038088,56.3283987391895,-0.4998,-0.7263,-0.0037,0.47200000000000003
107,1282439.0,1252.015028,1.0,5.06,16.6,0.08,8.38,-35.25,-11.38,-51.38,392.75,-213.31,10.671403695007696,10.725356244719704,1.3061866830961308,-93.15420041095278,-0.4239897358038088,56.3283987391895,-0.4998,-0.7263,-0.0037,0.47200000000000003
108,1282473.0,1252.055724,1.0,-0.07,5.97,-4.07,16.75,-33.0,-9.0,204.69,327.63,-248.56,5.403764139269838,0.5689572408307786,5.0436340662404335,-103.27503144100895,-7.94756506816392,51.51968798135092,-0.4376,-0.7841,-0.0693,0.4346
109,1282473.0,1252.055724,1.0,-0.07,5.97,-4.07,16.75,-33.0,-9.0,204.69,327.63,-248.56,5.403764139269838,0.5689572408307786,5.0436340662404335,-103.27503144100895,-7.94756506816392,51.51968798135092,-0.4376,-0.7841,-0.0693,0.4346
110,1282508.0,1252.114206,1.0,-3.81,3.16,-3.63,16.75,-33.0,-9.0,80.12,210.19,-304.19,1.5302973405861575,-0.5260810456739806,3.8854990322592253,-110.3901200848635,-19.203632237851558,48.799442594654714,-0.3567,-0.8211,-0.1668,0.4131
111,1282508.0,1252.114206,1.0,-3.81,3.16,-3.63,16.75,-33.0,-9.0,80.12,210.19,-304.19,1.5302973405861575,-0.5260810456739806,3.8854990322592253,-110.3901200848635,-19.203632237851558,48.799442594654714,-0.3567,-0.8211,-0.1668,0.4131
112,1282545.0,1252.132855,1.0,1.76,-2.17,-10.0,26.25,-29.75,-0.88,-35.0,219.13,-379.25,4.369826359865419,-8.98007332902137,6.9659809608431305,-110.65153929836842,-30.69825503264451,46.781534903600594,-0.3098,-0.8224,-0.2647,0.397
113,1282545.0,1252.132855,1.0,1.76,-2.17,-10.0,26.25,-29.75,-0.88,-35.0,219.13,-379.25,4.369826359865419,-8.98007332902137,6.9659809608431305,-110.65153929836842,-30.69825503264451,46.781534903600594,-0.3098,-0.8224,-0.2647,0.397
114,1282582.0,1252.174925,1.0,0.55,-2.69,-13.06,32.19,-21.06,5.25,-91.0,73.56,-244.38,3.510483494976833,-11.187912920083438,3.4341065419979,-106.5088462839978,-43.135358011103925,45.23782004339508,-0.2736,-0.8013,-0.3676,0.3846
115,1282582.0,1252.174925,1.0,0.55,-2.69,-13.06,32.19,-21.06,5.25,-91.0,73.56,-244.38,3.510483494976833,-11.187912920083438,3.4341065419979,-106.5088462839978,-43.135358011103925,45.23782004339508,-0.2736,-0.8013,-0.3676,0.3846
116,1282617.0,1252.181613,1.0,1.17,-3.7,-16.75,32.19,-21.06,5.25,-149.63,24.87,-251.75,2.93552343854776,-14.848071596067381,1.6495137365927324,-100.83357983561886,-51.45607859919252,44.40732869091076,-0.2734,-0.7707,-0.4341,0.3779
117,1282617.0,1252.181613,1.0,1.17,-3.7,-16.75,32.19,-21.06,5.25,-149.63,24.87,-251.75,2.93552343854776,-14.848071596067381,1.6495137365927324,-100.83357983561886,-51.45607859919252,44.40732869091076,-0.2734,-0.7707,-0.4341,0.3779
118,1282652.0,1252.239973,1.0,-2.83,-1.13,-11.06,35.38,-13.75,7.38,-184.56,-114.56,-131.13,1.3048990793351134,-8.085940874324168,1.7739544020276607,-92.00993104367019,-58.4578132506004,46.09573205363145,-0.3011,-0.7194,-0.4883,0.3915
119,1282652.0,1252.239973,1.0,-2.83,-1.13,-11.06,35.38,-13.75,7.38,-184.56,-114.56,-131.13,1.3048990793351134,-8.085940874324168,1.7739544020276607,-92.00993104367019,-58.4578132506004,46.09573205363145,-0.3011,-0.7194,-0.4883,0.3915
120,1282689.0,1252.259378,1.0,-4.55,2.98,-9.25,38.06,-7.06,5.69,-220.94,-121.62,-79.37,3.5907199376096743,-5.74967406622766,1.4883942656647378,-83.31862865554434,-63.44422897307763,46.02102324962843,-0.359,-0.6647,-0.5258,0.3909
121,1282689.0,1252.259378,1.0,-4.55,2.98,-9.25,38.06,-7.06,5.69,-220.94,-121.62,-79.37,3.5907199376096743,-5.74967406622766,1.4883942656647378,-83.31862865554434,-63.44422897307763,46.02102324962843,-0.359,-0.6647,-0.5258,0.3909
122,1282725.0,1252.3065609999999,1.0,-7.64,-1.44,-1.76,39.38,-5.19,-0.25,-107.44,-142.13,-18.25,-2.106388010727128,0.9540072291653496,2.178163927720305,-78.35131422864524,-64.63357693133646,47.15635695640368,-0.3939,-0.6317,-0.5346,0.4
123,1282725.0,1252.3065609999999,1.0,-7.64,-1.44,-1.76,39.38,-5.19,-0.25,-107.44,-142.13,-18.25,-2.106388010727128,0.9540072291653496,2.178163927720305,-78.35131422864524,-64.63357693133646,47.15635695640368,-0.3939,-0.6317,-0.5346,0.4
124,1282758.0,1252.3257939999999,1.0,-6.2,3.63,-9.03,39.38,-5.19,-0.25,-62.75,-79.87,69.0,3.1581960845944925,-6.324564208389583,0.686151928885165,-77.14435187287417,-62.423176652141294,46.956385579504534,-0.4288,-0.6235,-0.5182,0.3984
125,1282758.0,1252.3257939999999,1.0,-6.2,3.63,-9.03,39.38,-5.19,-0.25,-62.75,-79.87,69.0,3.1581960845944925,-6.324564208389583,0.686151928885165,-77.14435187287417,-62.423176652141294,46.956385579504534,-0.4288,-0.6235,-0.5182,0.3984
126,1282795.0,1252.38715,1.0,-8.72,-7.48,-1.59,39.69,-3.75,-4.69,-6.25,-123.69,8.81,-8.560150983269558,-0.0825321618750241,1.9814405084984816,-76.02014547215987,-60.51671820753376,49.063824131557034,-0.441,-0.6158,-0.5039,0.4152
127,1282795.0,1252.38715,1.0,-8.72,-7.48,-1.59,39.69,-3.75,-4.69,-6.25,-123.69,8.81,-8.560150983269558,-0.0825321618750241,1.9814405084984816,-76.02014547215987,-60.51671820753376,49.063824131557034,-0.441,-0.6158,-0.5039,0.4152
128,1282832.0,1252.426602,1.0,-11.31,5.33,6.2,38.38,-4.56,-7.38,-109.69,-58.5,113.0,2.7323123729699725,8.31543543664659,-1.0631707250845412,-73.78277317194505,-57.135814055955535,48.133417932241116,-0.4946,-0.6003,-0.4782,0.4078
129,1282832.0,1252.426602,1.0,-11.31,5.33,6.2,38.38,-4.56,-7.38,-109.69,-58.5,113.0,2.7323123729699725,8.31543543664659,-1.0631707250845412,-73.78277317194505,-57.135814055955535,48.133417932241116,-0.4946,-0.6003,-0.4782,0.4078
130,1282867.0,1252.550701,1.0,-8.07,7.09,-4.75,38.38,-4.56,-7.38,-59.0,47.38,50.13,4.788489120500765,-3.0138994906928884,-0.4861767158661028,-74.01219332198103,-57.436125785536824,45.200580565791434,-0.5091,-0.6019,-0.4805,0.3843
131,1282867.0,1252.550701,1.0,-8.07,7.09,-4.75,38.38,-4.56,-7.38,-59.0,47.38,50.13,4.788489120500765,-3.0138994906928884,-0.4861767158661028,-74.01219332198103,-57.436125785536824,45.200580565791434,-0.5091,-0.6019,-0.4805,0.3843
132,1282902.0,1252.55725,1.0,-8.0,3.71,-2.38,37.75,-7.56,-11.06,30.0,57.25,17.5,1.4475585689916315,-0.4932726725104546,0.8016649217284506,-75.41056702241764,-57.88085702604191,43.52992762326994,-0.5043,-0.6116,-0.4839,0.3708
133,1282902.0,1252.55725,1.0,-8.0,3.71,-2.38,37.75,-7.56,-11.06,30.0,57.25,17.5,1.4475585689916315,-0.4932726725104546,0.8016649217284506,-75.41056702241764,-57.88085702604191,43.52992762326994,-0.5043,-0.6116,-0.4839,0.3708
134,1282936.0,1252.569961,1.0,-8.59,3.43,-1.61,37.75,-8.0,-9.88,52.44,27.69,58.81,0.7848292232155287,0.7267973395377221,0.4792222346604138,-78.55841408450421,-56.41940519214721,42.569102018017894,-0.4938,-0.6331,-0.4727,0.363
135,1282936.0,1252.569961,1.0,-8.59,3.43,-1.61,37.75,-8.0,-9.88,52.44,27.69,58.81,0.7848292232155287,0.7267973395377221,0.4792222346604138,-78.55841408450421,-56.41940519214721,42.569102018017894,-0.4938,-0.6331,-0.4727,0.363
136,1282973.0,1252.573929,1.0,-10.22,6.9,-2.76,37.0,-9.5,-8.25,203.5,52.75,57.56,3.330320614231877,1.0472904307104731,-2.3378198262280883,-83.45674446527082,-53.60288337963247,42.778242722959625,-0.4698,-0.6656,-0.4509,0.3647
137,1282973.0,1252.573929,1.0,-10.22,6.9,-2.76,37.0,-9.5,-8.25,203.5,52.75,57.56,3.330320614231877,1.0472904307104731,-2.3378198262280883,-83.45674446527082,-53.60288337963247,42.778242722959625,-0.4698,-0.6656,-0.4509,0.3647
138,1283008.0,1252.618388,1.0,-12.31,1.95,-0.34,37.0,-9.5,-8.25,225.81,89.87,-0.12,-2.355891785094959,4.079470003268538,-1.737261745563293,-90.79574936750706,-51.163694017238186,44.33307679780215,-0.4053,-0.7120000000000001,-0.4318,0.3773
139,1283008.0,1252.618388,1.0,-12.31,1.95,-0.34,37.0,-9.5,-8.25,225.81,89.87,-0.12,-2.355891785094959,4.079470003268538,-1.737261745563293,-90.79574936750706,-51.163694017238186,44.33307679780215,-0.4053,-0.7120000000000001,-0.4318,0.3773
140,1283043.0,1252.6361470000002,1.0,-12.04,5.79,-2.54,38.06,-12.88,-3.75,223.38,-5.5,74.87,1.3130064237022443,3.877451689021093,-3.1617223932737257,-95.872524082521,-47.331456908420954,45.78458156617274,-0.3692,-0.7424,-0.4014,0.389
141,1283043.0,1252.6361470000002,1.0,-12.04,5.79,-2.54,38.06,-12.88,-3.75,223.38,-5.5,74.87,1.3130064237022443,3.877451689021093,-3.1617223932737257,-95.872524082521,-47.331456908420954,45.78458156617274,-0.3692,-0.7424,-0.4014,0.389
142,1283080.0,1252.677343,1.0,-7.48,-1.97,-5.77,37.75,-14.75,-1.37,209.94,-155.38,15.88,-1.8088425165771491,-4.0668472513614065,1.2443464440451508,-97.58001140346657,-40.97463022944533,52.85947382737936,-0.3369,-0.7523,-0.35,0.4451
143,1283080.0,1252.677343,1.0,-7.48,-1.97,-5.77,37.75,-14.75,-1.37,209.94,-155.38,15.88,-1.8088425165771491,-4.0668472513614065,1.2443464440451508,-97.58001140346657,-40.97463022944533,52.85947382737936,-0.3369,-0.7523,-0.35,0.4451
144,1283115.0,1252.698988,1.0,-11.61,3.16,4.61,37.75,-14.75,-1.37,-39.13,-318.0,12.69,-3.0022292283524115,6.552633408284134,-0.8741465562997739,-91.18809708858042,-37.12029440520261,60.49018686629133,-0.3669,-0.7144,-0.3183,0.5037
145,1283115.0,1252.698988,1.0,-11.61,3.16,4.61,37.75,-14.75,-1.37,-39.13,-318.0,12.69,-3.0022292283524115,6.552633408284134,-0.8741465562997739,-91.18809708858042,-37.12029440520261,60.49018686629133,-0.3669,-0.7144,-0.3183,0.5037
146,1283149.0,1252.742125,1.0,-7.34,0.41,-2.73,36.56,-15.88,-3.0,-14.38,-114.12,3.0,-0.039229521085111914,-2.18022578534915,2.2739428790789877,-86.34544823903026,-34.9993031752255,65.17677108886933,-0.3889,-0.6842,-0.3007,0.5386
147,1283149.0,1252.742125,1.0,-7.34,0.41,-2.73,36.56,-15.88,-3.0,-14.38,-114.12,3.0,-0.039229521085111914,-2.18022578534915,2.2739428790789877,-86.34544823903026,-34.9993031752255,65.17677108886933,-0.3889,-0.6842,-0.3007,0.5386
148,1283184.0,1252.760956,1.0,-7.91,-1.29,-3.62,36.25,-15.5,-10.25,-50.06,-112.06,0.19,-0.9577979756208004,-4.230924444812995,2.156911352164995,-83.05814635391897,-34.50701040671306,67.32502809337325,-0.4064,-0.6629999999999999,-0.2966,0.5543
149,1283184.0,1252.760956,1.0,-7.91,-1.29,-3.62,36.25,-15.5,-10.25,-50.06,-112.06,0.19,-0.9577979756208004,-4.230924444812995,2.156911352164995,-83.05814635391897,-34.50701040671306,67.32502809337325,-0.4064,-0.6629999999999999,-0.2966,0.5543
150,1283221.0,1252.850226,1.0,-8.08,-2.51,-6.56,35.06,-16.25,-14.25,-20.06,-88.31,65.31,-0.554666989637449,-7.9124748369573465,2.616018144236324,-80.42135265062157,-32.54428338361999,68.90182937625673,-0.4296,-0.6456,-0.2802,0.5657
151,1283221.0,1252.850226,1.0,-8.08,-2.51,-6.56,35.06,-16.25,-14.25,-20.06,-88.31,65.31,-0.554666989637449,-7.9124748369573465,2.616018144236324,-80.42135265062157,-32.54428338361999,68.90182937625673,-0.4296,-0.6456,-0.2802,0.5657
152,1283256.0,1252.8552439999999,1.0,-9.52,0.78,1.69,35.06,-16.25,-14.25,-87.44,-76.5,85.31,-2.250367006494681,0.0017982508969469626,0.3710395214790747,-77.8790835134503,-30.769559206882434,68.54091135463743,-0.4663,-0.6285,-0.2653,0.5631
153,1283256.0,1252.8552439999999,1.0,-9.52,0.78,1.69,35.06,-16.25,-14.25,-87.44,-76.5,85.31,-2.250367006494681,0.0017982508969469626,0.3710395214790747,-77.8790835134503,-30.769559206882434,68.54091135463743,-0.4663,-0.6285,-0.2653,0.5631
154,1283293.0,1252.872925,1.0,-9.16,3.3,1.51,33.25,-16.56,-17.06,-71.31,-1.94,59.44,-0.10327770724973863,0.645599433470498,-0.024333424189453726,-76.7345404390869,-30.61508221704001,66.78891793624743,-0.4919,-0.6207,-0.264,0.5504
155,1283293.0,1252.872925,1.0,-9.16,3.3,1.51,33.25,-16.56,-17.06,-71.31,-1.94,59.44,-0.10327770724973863,0.645599433470498,-0.024333424189453726,-76.7345404390869,-30.61508221704001,66.78891793624743,-0.4919,-0.6207,-0.264,0.5504
156,1283330.0,1252.9177140000002,1.0,-8.53,1.26,-0.9,29.87,-16.87,-19.87,-88.69,15.13,55.75,-1.0449102968735775,-2.283506371650513,1.5089237378171418,-75.59897705351443,-31.626171458397582,63.889331204462884,-0.5198,-0.6129,-0.2725,0.5291
157,1283330.0,1252.9177140000002,1.0,-8.53,1.26,-0.9,29.87,-16.87,-19.87,-88.69,15.13,55.75,-1.0449102968735775,-2.283506371650513,1.5089237378171418,-75.59897705351443,-31.626171458397582,63.889331204462884,-0.5198,-0.6129,-0.2725,0.5291
158,1283364.0,1252.973125,1.0,-8.07,7.17,1.6,29.87,-16.87,-19.87,-159.63,9.56,52.88,3.3884391733859136,1.3629932267319789,-0.4770521267706176,-73.26783271865594,-33.0340215452869,61.06140467738283,-0.5523,-0.5967,-0.2843,0.508
159,1283364.0,1252.973125,1.0,-8.07,7.17,1.6,29.87,-16.87,-19.87,-159.63,9.56,52.88,3.3884391733859136,1.3629932267319789,-0.4770521267706176,-73.26783271865594,-33.0340215452869,61.06140467738283,-0.5523,-0.5967,-0.2843,0.508
160,1283399.0,1252.986999,1.0,-10.02,1.5,-0.99,30.25,-17.75,-21.87,-134.13,-4.63,12.5,-1.7699565187314803,-3.0176306263449337,0.2467515002906513,-69.76565017151245,-35.26373479080068,58.786353648776284,-0.5834,-0.5719,-0.3029,0.4908
161,1283399.0,1252.986999,1.0,-10.02,1.5,-0.99,30.25,-17.75,-21.87,-134.13,-4.63,12.5,-1.7699565187314803,-3.0176306263449337,0.2467515002906513,-69.76565017151245,-35.26373479080068,58.786353648776284,-0.5834,-0.5719,-0.3029,0.4908
162,1283434.0,1253.039899,1.0,-8.31,5.0,3.57,29.87,-16.25,-22.25,-223.94,-23.06,68.69,1.2330075646130878,1.6607361057703949,-0.3186968055468338,-65.92636443455984,-36.830309031624424,56.2114472624779,-0.6182,-0.5441,-0.3159,0.4711
163,1283434.0,1253.039899,1.0,-8.31,5.0,3.57,29.87,-16.25,-22.25,-223.94,-23.06,68.69,1.2330075646130878,1.6607361057703949,-0.3186968055468338,-65.92636443455984,-36.830309031624424,56.2114472624779,-0.6182,-0.5441,-0.3159,0.4711
164,1283471.0,1253.0468529999998,1.0,-8.69,10.28,4.54,27.56,-13.88,-25.87,-45.81,-34.5,-49.69,6.312454372483934,1.3727766525119671,-2.8454053293773818,-60.7025381110459,-38.88977704125324,54.29721951219732,-0.6524,-0.5053,-0.3329,0.4563
165,1283471.0,1253.0468529999998,1.0,-8.69,10.28,4.54,27.56,-13.88,-25.87,-45.81,-34.5,-49.69,6.312454372483934,1.3727766525119671,-2.8454053293773818,-60.7025381110459,-38.88977704125324,54.29721951219732,-0.6524,-0.5053,-0.3329,0.4563
166,1283506.0,1253.105272,1.0,-11.11,4.67,5.46,27.56,-13.88,-25.87,34.88,-2.56,-150.44,1.15174571927526,2.0666163591611686,-3.2108450978357777,-59.089080085565726,-40.80341749737214,58.58916597096109,-0.6292,-0.4931,-0.3486,0.4893
167,1283506.0,1253.105272,1.0,-11.11,4.67,5.46,27.56,-13.88,-25.87,34.88,-2.56,-150.44,1.15174571927526,2.0666163591611686,-3.2108450978357777,-59.089080085565726,-40.80341749737214,58.58916597096109,-0.6292,-0.4931,-0.3486,0.4893
168,1283545.0,1253.121719,1.0,-9.44,2.79,5.42,28.0,-10.25,-27.19,34.06,45.94,-134.75,0.43800432424187385,2.8378860171054883,-1.0574493720539326,-58.825814107213525,-42.99984891491943,61.62096412364078,-0.6017,-0.4911,-0.3665,0.5122
169,1283545.0,1253.121719,1.0,-9.44,2.79,5.42,28.0,-10.25,-27.19,34.06,45.94,-134.75,0.43800432424187385,2.8378860171054883,-1.0574493720539326,-58.825814107213525,-42.99984891491943,61.62096412364078,-0.6017,-0.4911,-0.3665,0.5122
170,1283581.0,1253.160388,1.0,-8.16,-2.35,6.09,29.5,-7.25,-26.37,146.13,49.38,-118.31,-4.172385955261159,3.881392989975344,1.047529958711051,-60.88853462317393,-44.209367167614204,65.51710409627202,-0.5557,-0.5067,-0.3763,0.5411
171,1283581.0,1253.160388,1.0,-8.16,-2.35,6.09,29.5,-7.25,-26.37,146.13,49.38,-118.31,-4.172385955261159,3.881392989975344,1.047529958711051,-60.88853462317393,-44.209367167614204,65.51710409627202,-0.5557,-0.5067,-0.3763,0.5411
172,1283616.0,1253.1774189999999,1.0,-8.5,-0.88,9.03,29.5,-7.25,-26.37,69.56,186.94,-41.0,-3.3708985873424564,7.37446427541725,0.3822338714301576,-64.32197736057384,-45.598062543777615,65.58524867553507,-0.5226,-0.5323,-0.3875,0.5416
173,1283616.0,1253.1774189999999,1.0,-8.5,-0.88,9.03,29.5,-7.25,-26.37,69.56,186.94,-41.0,-3.3708985873424564,7.37446427541725,0.3822338714301576,-64.32197736057384,-45.598062543777615,65.58524867553507,-0.5226,-0.5323,-0.3875,0.5416
174,1283649.0,1253.217709,1.0,-3.55,8.36,4.25,31.0,-6.19,-24.25,21.81,398.94,-33.25,7.003007698825918,5.980925410945639,5.839155274245517,-73.12509922631307,-53.218059503427035,57.95943792852192,-0.45799999999999996,-0.5957,-0.4479,0.4845
175,1283649.0,1253.217709,1.0,-3.55,8.36,4.25,31.0,-6.19,-24.25,21.81,398.94,-33.25,7.003007698825918,5.980925410945639,5.839155274245517,-73.12509922631307,-53.218059503427035,57.95943792852192,-0.45799999999999996,-0.5957,-0.4479,0.4845
176,1283686.0,1253.280666,1.0,-4.35,-8.52,2.19,35.5,-6.38,-16.69,462.13,154.38,-204.13,-9.1265797136009,0.08375368640080616,6.200054922741848,-82.73709614997145,-54.38738352787694,59.089080085565726,-0.3336,-0.6609,-0.457,0.4931
177,1283686.0,1253.280666,1.0,-4.35,-8.52,2.19,35.5,-6.38,-16.69,462.13,154.38,-204.13,-9.1265797136009,0.08375368640080616,6.200054922741848,-82.73709614997145,-54.38738352787694,59.089080085565726,-0.3336,-0.6609,-0.457,0.4931
178,1283723.0,1253.299618,1.0,-6.5,-13.93,-7.8,39.19,-4.69,-6.19,321.56,54.94,-104.81,-7.4800833165403064,-10.976538527837805,-1.1796530872312836,-87.35524570014307,-51.34162455414572,65.13597459719793,-0.2138,-0.6906,-0.4332,0.5383
179,1283723.0,1253.299618,1.0,-6.5,-13.93,-7.8,39.19,-4.69,-6.19,321.56,54.94,-104.81,-7.4800833165403064,-10.976538527837805,-1.1796530872312836,-87.35524570014307,-51.34162455414572,65.13597459719793,-0.2138,-0.6906,-0.4332,0.5383
180,1283758.0,1253.346583,1.0,-9.21,-3.45,0.34,39.19,-4.69,-6.19,22.69,-124.69,57.31,-3.1044988285921606,1.3676800345874935,0.5690237710242538,-86.1570415333954,-48.98825821247561,68.90182937625673,-0.204,-0.6829999999999999,-0.4146,0.5657
181,1283758.0,1253.346583,1.0,-9.21,-3.45,0.34,39.19,-4.69,-6.19,22.69,-124.69,57.31,-3.1044988285921606,1.3676800345874935,0.5690237710242538,-86.1570415333954,-48.98825821247561,68.90182937625673,-0.204,-0.6829999999999999,-0.4146,0.5657
182,1283794.0,1253.364828,1.0,-7.19,1.02,-1.15,40.25,-2.25,-3.69,51.63,-44.94,38.69,1.4246166187203133,1.866686086682808,2.8392293478898694,-85.07925976340502,-48.27150646713053,69.79359069064598,-0.2199,-0.6761,-0.4089,0.5721
183,1283794.0,1253.364828,1.0,-7.19,1.02,-1.15,40.25,-2.25,-3.69,51.63,-44.94,38.69,1.4246166187203133,1.866686086682808,2.8392293478898694,-85.07925976340502,-48.27150646713053,69.79359069064598,-0.2199,-0.6761,-0.4089,0.5721
184,1283831.0,1253.447209,1.0,-7.52,-2.25,-2.36,39.19,-3.06,-7.0,151.75,-29.62,4.44,-0.09137584842836427,-1.0769222065068171,1.6817260609433118,-86.23550907382523,-43.17232602381402,73.88310198436405,-0.1906,-0.6835,-0.3679,0.601
185,1283831.0,1253.447209,1.0,-7.52,-2.25,-2.36,39.19,-3.06,-7.0,151.75,-29.62,4.44,-0.09137584842836427,-1.0769222065068171,1.6817260609433118,-86.23550907382523,-43.17232602381402,73.88310198436405,-0.1906,-0.6835,-0.3679,0.601
186,1283864.0,1253.4589529999998,1.0,-9.56,0.74,3.17,39.19,-3.06,-7.0,98.37,-57.19,11.0,-1.750436989668816,5.014859035193915,1.2172810358482609,-86.1727310203409,-39.814679382357845,77.04178972145769,-0.1718,-0.6831,-0.3405,0.6228
187,1283864.0,1253.4589529999998,1.0,-9.56,0.74,3.17,39.19,-3.06,-7.0,98.37,-57.19,11.0,-1.750436989668816,5.014859035193915,1.2172810358482609,-86.1727310203409,-39.814679382357845,77.04178972145769,-0.1718,-0.6831,-0.3405,0.6228
188,1283899.0,1253.505903,1.0,-12.83,2.13,12.67,39.19,-4.56,-7.0,108.75,78.75,-86.44,-8.919753196374202,12.705438088122252,0.3894027427244122,-88.50152621211956,-37.555735630625364,77.99699333524984,-0.1163,-0.6978,-0.3219,0.6293
189,1283899.0,1253.505903,1.0,-12.83,2.13,12.67,39.19,-4.56,-7.0,108.75,78.75,-86.44,-8.919753196374202,12.705438088122252,0.3894027427244122,-88.50152621211956,-37.555735630625364,77.99699333524984,-0.1163,-0.6978,-0.3219,0.6293
190,1283936.0,1253.525639,1.0,-10.58,-3.27,1.14,39.88,-5.19,-7.0,75.69,-81.12,-12.0,-2.4076160249919587,1.2514267537920118,-0.9899335409214292,-88.38959436761328,-34.015373611081245,81.24917717727452,-0.067,-0.6971,-0.2925,0.6511
191,1283936.0,1253.525639,1.0,-10.58,-3.27,1.14,39.88,-5.19,-7.0,75.69,-81.12,-12.0,-2.4076160249919587,1.2514267537920118,-0.9899335409214292,-88.38959436761328,-34.015373611081245,81.24917717727452,-0.067,-0.6971,-0.2925,0.6511
192,1283973.0,1253.566637,1.0,-8.78,-0.84,-0.14,40.69,-2.56,-4.5,67.19,71.87,-15.69,-0.3204784197678457,2.225921325103104,1.2769273880439478,-89.90170904203455,-33.79973728659347,80.01681335104666,-0.0553,-0.7065,-0.2907,0.6429
193,1283973.0,1253.566637,1.0,-8.78,-0.84,-0.14,40.69,-2.56,-4.5,67.19,71.87,-15.69,-0.3204784197678457,2.225921325103104,1.2769273880439478,-89.90170904203455,-33.79973728659347,80.01681335104666,-0.0553,-0.7065,-0.2907,0.6429
194,1284005.0,1253.585562,1.0,-9.58,-5.63,1.39,40.69,-2.56,-4.5,1.37,35.06,-20.12,-4.0541809604999175,-0.6262426806932266,-0.6133709618022465,-91.0081013523764,-33.644076625825655,79.13695813068195,-0.0417,-0.7133,-0.2894,0.637
195,1284005.0,1253.585562,1.0,-9.58,-5.63,1.39,40.69,-2.56,-4.5,1.37,35.06,-20.12,-4.0541809604999175,-0.6262426806932266,-0.6133709618022465,-91.0081013523764,-33.644076625825655,79.13695813068195,-0.0417,-0.7133,-0.2894,0.637
196,1284042.0,1253.625648,1.0,-7.98,-3.87,-2.0,41.06,-3.06,-2.88,100.56,28.87,6.81,-0.18598774037475566,-1.0955592160794905,0.7832106022706853,-92.2246080237603,-32.25789123557385,78.79547515620452,-0.0244,-0.7207,-0.2778,0.6347
197,1284042.0,1253.625648,1.0,-7.98,-3.87,-2.0,41.06,-3.06,-2.88,100.56,28.87,6.81,-0.18598774037475566,-1.0955592160794905,0.7832106022706853,-92.2246080237603,-32.25789123557385,78.79547515620452,-0.0244,-0.7207,-0.2778,0.6347
198,1284079.0,1253.679233,1.0,-7.88,-4.16,-1.06,41.06,-2.25,-1.25,12.06,41.69,-8.56,-1.1681164721106203,-0.9416169341659809,0.9594774880120179,-93.32103704825495,-31.221437269957963,78.29219886729086,-0.0095,-0.7273,-0.2691,0.6313
199,1284079.0,1253.679233,1.0,-7.88,-4.16,-1.06,41.06,-2.25,-1.25,12.06,41.69,-8.56,-1.1681164721106203,-0.9416169341659809,0.9594774880120179,-93.32103704825495,-31.221437269957963,78.29219886729086,-0.0095,-0.7273,-0.2691,0.6313
200,1284112.0,1253.694419,1.0,-8.86,-4.23,8.93,41.06,-2.25,-1.25,110.62,323.5,-11.31,-11.218494064418447,2.352118983117692,3.117081462652812,-99.7072857164662,-29.440524955343975,72.55547677388151,0.0315,-0.7644,-0.2541,0.5917
201,1284112.0,1253.694419,1.0,-8.86,-4.23,8.93,41.06,-2.25,-1.25,110.62,323.5,-11.31,-11.218494064418447,2.352118983117692,3.117081462652812,-99.7072857164662,-29.440524955343975,72.55547677388151,0.0315,-0.7644,-0.2541,0.5917
202,1284147.0,1253.739584,1.0,-4.04,-5.97,-37.42,41.38,-2.0,-0.37,23.37,587.13,-40.06,27.348060931309337,-8.612191423662393,-15.295792554054131,-114.38591221182236,-28.517345406099267,57.29244480095832,0.0563,-0.8405,-0.2463,0.4794
203,1284147.0,1253.739584,1.0,-4.04,-5.97,-37.42,41.38,-2.0,-0.37,23.37,587.13,-40.06,27.348060931309337,-8.612191423662393,-15.295792554054131,-114.38591221182236,-28.517345406099267,57.29244480095832,0.0563,-0.8405,-0.2463,0.4794
204,1284184.0,1253.805623,1.0,-4.49,-6.72,-2.32,37.38,-1.56,16.06,58.75,259.63,157.31,-2.286673988822712,-4.44400079722054,3.044780511231023,-121.66531355494112,-21.648844944741544,52.55255813835036,0.0787,-0.8732,-0.1878,0.4427
205,1284184.0,1253.805623,1.0,-4.49,-6.72,-2.32,37.38,-1.56,16.06,58.75,259.63,157.31,-2.286673988822712,-4.44400079722054,3.044780511231023,-121.66531355494112,-21.648844944741544,52.55255813835036,0.0787,-0.8732,-0.1878,0.4427
206,1284220.0,1253.8097300000002,1.0,1.17,-5.01,-13.93,37.38,-1.56,16.06,-1.63,321.25,125.56,9.203568345657443,-4.232526488861437,-1.0512480114890843,-135.06606324188033,-15.135679738336453,40.80341749737214,0.0841,-0.9241,-0.1317,0.3486
207,1284220.0,1253.8097300000002,1.0,1.17,-5.01,-13.93,37.38,-1.56,16.06,-1.63,321.25,125.56,9.203568345657443,-4.232526488861437,-1.0512480114890843,-135.06606324188033,-15.135679738336453,40.80341749737214,0.0841,-0.9241,-0.1317,0.3486
208,1284255.0,1253.863553,1.0,1.65,-6.22,-13.41,33.38,-5.38,21.75,37.0,205.38,189.31,8.410734466457457,-4.827387824337175,-1.471420425750404,-142.63208125401738,-9.53355259965066,34.50701040671306,0.0873,-0.9473,-0.0831,0.2966
209,1284255.0,1253.863553,1.0,1.65,-6.22,-13.41,33.38,-5.38,21.75,37.0,205.38,189.31,8.410734466457457,-4.827387824337175,-1.471420425750404,-142.63208125401738,-9.53355259965066,34.50701040671306,0.0873,-0.9473,-0.0831,0.2966
210,1284292.0,1253.883471,1.0,4.01,-6.66,-6.59,25.5,-8.0,29.5,-59.94,239.56,190.25,6.537098538225847,-6.049081898560004,4.8529896476908965,-151.95469309277132,-2.051298459271143,26.841478236677798,0.0677,-0.9702,-0.0179,0.2321
211,1284292.0,1253.883471,1.0,4.01,-6.66,-6.59,25.5,-8.0,29.5,-59.94,239.56,190.25,6.537098538225847,-6.049081898560004,4.8529896476908965,-151.95469309277132,-2.051298459271143,26.841478236677798,0.0677,-0.9702,-0.0179,0.2321
212,1284327.0,1253.923655,1.0,6.34,-0.35,-3.07,18.0,-11.38,34.38,-209.5,266.19,237.5,7.008625960039102,0.1564771143010859,9.0335542329918,-159.9948843845241,3.724881599063971,19.54075377357945,0.0169,-0.9848,0.0325,0.1697
213,1284327.0,1253.923655,1.0,6.34,-0.35,-3.07,18.0,-11.38,34.38,-209.5,266.19,237.5,7.008625960039102,0.1564771143010859,9.0335542329918,-159.9948843845241,3.724881599063971,19.54075377357945,0.0169,-0.9848,0.0325,0.1697
214,1284362.0,1253.931456,1.0,3.95,3.43,-1.63,18.0,-11.38,34.38,-287.63,190.63,201.75,3.5777585587705163,3.8464896243700126,8.248297900903603,-161.50259041794217,10.62640189942489,11.029269725697887,-0.0897,-0.987,0.0926,0.0961
215,1284362.0,1253.931456,1.0,3.95,3.43,-1.63,18.0,-11.38,34.38,-287.63,190.63,201.75,3.5777585587705163,3.8464896243700126,8.248297900903603,-161.50259041794217,10.62640189942489,11.029269725697887,-0.0897,-0.987,0.0926,0.0961
216,1284397.0,1253.994268,1.0,6.71,5.62,-1.24,6.75,-18.87,34.06,-329.13,163.94,193.06,5.183186663585394,6.374406323314165,6.543580887075348,-150.43438697810743,16.118839093056636,5.2271876941715805,-0.2083,-0.9669,0.1402,0.0456
217,1284397.0,1253.994268,1.0,6.71,5.62,-1.24,6.75,-18.87,34.06,-329.13,163.94,193.06,5.183186663585394,6.374406323314165,6.543580887075348,-150.43438697810743,16.118839093056636,5.2271876941715805,-0.2083,-0.9669,0.1402,0.0456
218,1284435.0,1254.012072,1.0,4.32,16.03,-2.28,-3.19,-28.25,27.87,-433.75,57.88,178.06,-0.4242978758211433,11.889164551514131,-1.995444626785256,-137.02578084639396,19.936217546906203,3.40386984812725,-0.3215,-0.9305,0.1731,0.0297
219,1284435.0,1254.012072,1.0,4.32,16.03,-2.28,-3.19,-28.25,27.87,-433.75,57.88,178.06,-0.4242978758211433,11.889164551514131,-1.995444626785256,-137.02578084639396,19.936217546906203,3.40386984812725,-0.3215,-0.9305,0.1731,0.0297
220,1284472.0,1254.059333,1.0,-1.36,13.9,0.08,-10.56,-36.5,17.06,-243.25,-9.06,212.63,-6.696547629254591,7.158754314802942,-0.14194218731047314,-123.50224233828399,26.994654003838164,2.4868320276357756,-0.4112,-0.8809,0.2334,0.0217
221,1284472.0,1254.059333,1.0,-1.36,13.9,0.08,-10.56,-36.5,17.06,-243.25,-9.06,212.63,-6.696547629254591,7.158754314802942,-0.14194218731047314,-123.50224233828399,26.994654003838164,2.4868320276357756,-0.4112,-0.8809,0.2334,0.0217
222,1284505.0,1254.124624,1.0,-7.03,15.15,3.11,-10.56,-36.5,17.06,-180.06,78.44,236.19,-13.953432270540366,5.700561494073403,1.9695059714823133,-115.92476601153635,32.556220911511176,-0.5958787923837214,-0.4503,-0.8477,0.2803,-0.0052
223,1284505.0,1254.124624,1.0,-7.03,15.15,3.11,-10.56,-36.5,17.06,-180.06,78.44,236.19,-13.953432270540366,5.700561494073403,1.9695059714823133,-115.92476601153635,32.556220911511176,-0.5958787923837214,-0.4503,-0.8477,0.2803,-0.0052
224,1284544.0,1254.137322,1.0,0.86,12.73,-4.17,-16.19,-37.0,10.69,-79.25,275.81,190.13,-5.682047160007473,0.42755194523206974,-2.3470712163838616,-106.20292801228649,34.98728813812748,-8.970218312913039,-0.5139,-0.7997,0.3006,-0.0782
225,1284544.0,1254.137322,1.0,0.86,12.73,-4.17,-16.19,-37.0,10.69,-79.25,275.81,190.13,-5.682047160007473,0.42755194523206974,-2.3470712163838616,-106.20292801228649,34.98728813812748,-8.970218312913039,-0.5139,-0.7997,0.3006,-0.0782
226,1284579.0,1254.185917,1.0,0.89,11.92,0.63,-24.25,-34.25,2.5,-13.19,278.88,172.88,-7.005823304525981,3.8299950360541053,0.8889721716883283,-101.50133226645922,35.44414023991489,-18.332536130219392,-0.5313,-0.7744,0.3044,-0.1593
227,1284579.0,1254.185917,1.0,0.89,11.92,0.63,-24.25,-34.25,2.5,-13.19,278.88,172.88,-7.005823304525981,3.8299950360541053,0.8889721716883283,-101.50133226645922,35.44414023991489,-18.332536130219392,-0.5313,-0.7744,0.3044,-0.1593
228,1284614.0,1254.194103,1.0,5.39,5.51,2.5,-24.25,-34.25,2.5,-6.31,439.0,137.13,-0.0067563705444642075,4.178036705877112,2.863584132834357,-93.8566544152289,32.49653690025889,-32.18632560419117,-0.5579999999999999,-0.7305,0.2798,-0.2772
229,1284614.0,1254.194103,1.0,5.39,5.51,2.5,-24.25,-34.25,2.5,-6.31,439.0,137.13,-0.0067563705444642075,4.178036705877112,2.863584132834357,-93.8566544152289,32.49653690025889,-32.18632560419117,-0.5579999999999999,-0.7305,0.2798,-0.2772
230,1284648.0,1254.2467179999999,1.0,8.17,3.97,3.84,-30.69,-30.5,-3.0,-120.37,506.25,133.94,2.4345714968591023,2.603239086515024,0.6114660494136039,-79.91212851792643,25.758842544663853,-48.93789354543228,-0.6053,-0.6422,0.2229,-0.4142
231,1284648.0,1254.2467179999999,1.0,8.17,3.97,3.84,-30.69,-30.5,-3.0,-120.37,506.25,133.94,2.4345714968591023,2.603239086515024,0.6114660494136039,-79.91212851792643,25.758842544663853,-48.93789354543228,-0.6053,-0.6422,0.2229,-0.4142
232,1284685.0,1254.353052,1.0,21.42,12.13,4.63,-31.37,-27.87,-16.75,-222.13,291.81,111.62,0.8660543147542823,-2.9732652103445645,-15.048929733992324,-68.07010656639203,23.96348615709585,-56.692657696890706,-0.6467,-0.5597,0.2076,-0.4748
233,1284685.0,1254.353052,1.0,21.42,12.13,4.63,-31.37,-27.87,-16.75,-222.13,291.81,111.62,0.8660543147542823,-2.9732652103445645,-15.048929733992324,-68.07010656639203,23.96348615709585,-56.692657696890706,-0.6467,-0.5597,0.2076,-0.4748
234,1284722.0,1254.423458,1.0,12.65,7.11,2.5,-24.06,-20.87,-30.37,24.25,185.31,149.0,-1.24546225344709,-3.564415642702756,-4.426001365831121,-60.68925941563211,21.987276416568136,-65.4626072017906,-0.645,-0.5052,0.1907,-0.5407
235,1284722.0,1254.423458,1.0,12.65,7.11,2.5,-24.06,-20.87,-30.37,24.25,185.31,149.0,-1.24546225344709,-3.564415642702756,-4.426001365831121,-60.68925941563211,21.987276416568136,-65.4626072017906,-0.645,-0.5052,0.1907,-0.5407
236,1284757.0,1254.476607,1.0,15.28,4.74,3.77,-24.06,-20.87,-30.37,-28.81,7.63,148.06,0.4702429115226412,-4.09174191603853,-6.105465500356826,-57.84157774874587,24.104076904803392,-70.7183188364016,-0.6226,-0.4836,0.2088,-0.5787
237,1284757.0,1254.476607,1.0,15.28,4.74,3.77,-24.06,-20.87,-30.37,-28.81,7.63,148.06,0.4702429115226412,-4.09174191603853,-6.105465500356826,-57.84157774874587,24.104076904803392,-70.7183188364016,-0.6226,-0.4836,0.2088,-0.5787
238,1284796.0,1254.496922,1.0,16.41,10.18,4.4,-20.37,-17.06,-35.19,16.0,-131.81,89.56,-4.937490723187003,-1.9190069401709808,-9.277875085053015,-59.10225237254154,28.943189564308163,-70.39546823502994,-0.6016,-0.4932,0.2499,-0.5764
239,1284796.0,1254.496922,1.0,16.41,10.18,4.4,-20.37,-17.06,-35.19,16.0,-131.81,89.56,-4.937490723187003,-1.9190069401709808,-9.277875085053015,-59.10225237254154,28.943189564308163,-70.39546823502994,-0.6016,-0.4932,0.2499,-0.5764
240,1284831.0,1254.536492,1.0,10.46,4.83,4.84,-23.75,-14.88,-34.38,49.81,-16.19,24.31,-1.0668204412725406,0.7989116087117359,-2.6187165695442847,-60.861952842422134,29.476070502113327,-71.0277375402144,-0.5842,-0.5065,0.2544,-0.5809
241,1284831.0,1254.536492,1.0,10.46,4.83,4.84,-23.75,-14.88,-34.38,49.81,-16.19,24.31,-1.0668204412725406,0.7989116087117359,-2.6187165695442847,-60.861952842422134,29.476070502113327,-71.0277375402144,-0.5842,-0.5065,0.2544,-0.5809
242,1284866.0,1254.5530609999998,1.0,8.7,5.6,4.88,-23.75,-14.88,-34.38,-6.5,8.06,-33.94,-2.0571327200917997,1.6499882082423716,-1.3248433357833402,-60.80880014298898,29.274683969227155,-70.59190932634084,-0.5883,-0.5061,0.2527,-0.5778
243,1284866.0,1254.5530609999998,1.0,8.7,5.6,4.88,-23.75,-14.88,-34.38,-6.5,8.06,-33.94,-2.0571327200917997,1.6499882082423716,-1.3248433357833402,-60.80880014298898,29.274683969227155,-70.59190932634084,-0.5883,-0.5061,0.2527,-0.5778
244,1284900.0,1254.5561699999998,1.0,7.98,1.81,4.74,-25.25,-14.88,-33.5,67.31,18.69,-31.44,1.6379409159713447,1.0141325530155962,0.5485300655478103,-62.115262460964935,26.97108530932781,-70.67617134909206,-0.5873,-0.5159,0.2332,-0.5784
245,1284900.0,1254.5561699999998,1.0,7.98,1.81,4.74,-25.25,-14.88,-33.5,67.31,18.69,-31.44,1.6379409159713447,1.0141325530155962,0.5485300655478103,-62.115262460964935,26.97108530932781,-70.67617134909206,-0.5873,-0.5159,0.2332,-0.5784
246,1284937.0,1254.593277,1.0,7.71,-0.7,6.12,-24.87,-15.19,-33.38,78.19,36.0,23.25,4.509195152928271,1.6086288825104034,1.1771672697802151,-63.148087344627434,25.0892571067724,-72.20051661196997,-0.5759,-0.5236,0.2172,-0.5892
247,1284937.0,1254.593277,1.0,7.71,-0.7,6.12,-24.87,-15.19,-33.38,78.19,36.0,23.25,4.509195152928271,1.6086288825104034,1.1771672697802151,-63.148087344627434,25.0892571067724,-72.20051661196997,-0.5759,-0.5236,0.2172,-0.5892
248,1284974.0,1254.600495,1.0,8.15,1.0,5.28,-24.06,-17.5,-32.56,1.88,30.5,17.75,2.676732720684833,0.8973402695248389,0.4615559725059857,-62.63767369990508,24.080642561887807,-74.0983151328391,-0.5687,-0.5198,0.2086,-0.6025
249,1284974.0,1254.600495,1.0,8.15,1.0,5.28,-24.06,-17.5,-32.56,1.88,30.5,17.75,2.676732720684833,0.8973402695248389,0.4615559725059857,-62.63767369990508,24.080642561887807,-74.0983151328391,-0.5687,-0.5198,0.2086,-0.6025
250,1285007.0,1254.646972,1.0,8.2,2.52,5.03,-24.06,-17.5,-32.56,-1.63,5.44,3.38,1.1660753479864232,1.0150200654427979,-0.01685764999787942,-62.249076797667115,24.01034566150753,-74.47207628489997,-0.5687,-0.5169,0.20800000000000002,-0.6051
251,1285007.0,1254.646972,1.0,8.2,2.52,5.03,-24.06,-17.5,-32.56,-1.63,5.44,3.38,1.1660753479864232,1.0150200654427979,-0.01685764999787942,-62.249076797667115,24.01034566150753,-74.47207628489997,-0.5687,-0.5169,0.20800000000000002,-0.6051
252,1285046.0,1254.669837,1.0,7.83,1.79,5.58,-22.56,-17.87,-34.69,9.69,-6.69,-4.06,2.005432851567887,1.4957783166247327,0.3520063628570522,-62.46337629162338,24.127512270969643,-74.05524812454561,-0.5699,-0.5185,0.209,-0.6022
253,1285046.0,1254.669837,1.0,7.83,1.79,5.58,-22.56,-17.87,-34.69,9.69,-6.69,-4.06,2.005432851567887,1.4957783166247327,0.3520063628570522,-62.46337629162338,24.127512270969643,-74.05524812454561,-0.5699,-0.5185,0.209,-0.6022
254,1285081.0,1254.688308,1.0,8.0,1.52,5.74,-23.87,-18.19,-33.38,-1.19,7.5,-1.25,2.357087612146433,1.4698858225596445,0.238913922050104,-62.516989117670676,24.01034566150753,-74.0983151328391,-0.5696,-0.5189,0.20800000000000002,-0.6025
255,1285081.0,1254.688308,1.0,8.0,1.52,5.74,-23.87,-18.19,-33.38,-1.19,7.5,-1.25,2.357087612146433,1.4698858225596445,0.238913922050104,-62.516989117670676,24.01034566150753,-74.0983151328391,-0.5696,-0.5189,0.20800000000000002,-0.6025
256,1285115.0,1254.729681,1.0,8.06,1.51,5.26,-23.87,-18.19,-33.38,-37.5,10.75,-29.44,2.1857767659928533,0.9203408172535325,0.35748851818888205,-61.74108139765568,23.89320452199912,-73.65387577244138,-0.5785,-0.5131,0.207,-0.5994
257,1285115.0,1254.729681,1.0,8.06,1.51,5.26,-23.87,-18.19,-33.38,-37.5,10.75,-29.44,2.1857767659928533,0.9203408172535325,0.35748851818888205,-61.74108139765568,23.89320452199912,-73.65387577244138,-0.5785,-0.5131,0.207,-0.5994
258,1285148.0,1254.749832,1.0,8.77,2.21,4.46,-23.0,-17.06,-33.38,-50.06,-1.63,-34.44,1.4306550433696092,-0.02242103253239813,-0.17540006219570792,-60.71581770752129,24.43226565454688,-72.01625404214369,-0.5952,-0.5054,0.2116,-0.5879
259,1285148.0,1254.749832,1.0,8.77,2.21,4.46,-23.0,-17.06,-33.38,-50.06,-1.63,-34.44,1.4306550433696092,-0.02242103253239813,-0.17540006219570792,-60.71581770752129,24.43226565454688,-72.01625404214369,-0.5952,-0.5054,0.2116,-0.5879
260,1285185.0,1254.794521,1.0,9.1,2.4,4.18,-22.69,-16.69,-35.06,-53.13,-20.62,-34.25,1.2961998638278656,-0.3706545234713323,-0.4024087782245065,-60.238317330964705,25.230149327633608,-70.33938584771147,-0.6072,-0.5018,0.2184,-0.5760000000000001
261,1285185.0,1254.794521,1.0,9.1,2.4,4.18,-22.69,-16.69,-35.06,-53.13,-20.62,-34.25,1.2961998638278656,-0.3706545234713323,-0.4024087782245065,-60.238317330964705,25.230149327633608,-70.33938584771147,-0.6072,-0.5018,0.2184,-0.5760000000000001
262,1285222.0,1254.811566,1.0,8.14,3.8,4.62,-22.69,-16.69,-35.06,-68.12,-35.31,-30.06,-0.11889550117515625,0.7331724915050248,-0.2676897777472558,-59.590233417807454,26.912168656137837,-67.97333851203919,-0.6216,-0.4969,0.2327,-0.5589999999999999
263,1285222.0,1254.811566,1.0,8.14,3.8,4.62,-22.69,-16.69,-35.06,-68.12,-35.31,-30.06,-0.11889550117515625,0.7331724915050248,-0.2676897777472558,-59.590233417807454,26.912168656137837,-67.97333851203919,-0.6216,-0.4969,0.2327,-0.5589999999999999
264,1285257.0,1254.8664939999999,1.0,7.21,4.13,4.48,-22.69,-17.5,-35.75,-33.5,-27.31,-23.0,-0.7110526026990703,1.1106007410828298,0.4593311229047519,-59.497821729807775,27.784885032921768,-66.59687161580996,-0.6284,-0.4962,0.2401,-0.5489999999999999
265,1285257.0,1254.8664939999999,1.0,7.21,4.13,4.48,-22.69,-17.5,-35.75,-33.5,-27.31,-23.0,-0.7110526026990703,1.1106007410828298,0.4593311229047519,-59.497821729807775,27.784885032921768,-66.59687161580996,-0.6284,-0.4962,0.2401,-0.5489999999999999
266,1285294.0,1254.888575,1.0,6.9,4.64,4.78,-22.37,-15.19,-34.25,-23.87,-3.81,-27.12,-1.1780777173135335,1.5257122308445914,0.41131418478718906,-59.2603868777191,28.34002932498839,-65.13597459719793,-0.6371,-0.4944,0.2448,-0.5383
267,1285294.0,1254.888575,1.0,6.9,4.64,4.78,-22.37,-15.19,-34.25,-23.87,-3.81,-27.12,-1.1780777173135335,1.5257122308445914,0.41131418478718906,-59.2603868777191,28.34002932498839,-65.13597459719793,-0.6371,-0.4944,0.2448,-0.5383
268,1285328.0,1254.9353199999998,1.0,7.95,4.34,4.32,-23.87,-14.5,-35.06,-6.88,17.31,-23.94,-0.6073452398148678,0.5161647971521213,-0.19660975179367132,-58.917918323687886,28.068278987313843,-64.45738978708853,-0.6442,-0.4918,0.2425,-0.5333
269,1285328.0,1254.9353199999998,1.0,7.95,4.34,4.32,-23.87,-14.5,-35.06,-6.88,17.31,-23.94,-0.6073452398148678,0.5161647971521213,-0.19660975179367132,-58.917918323687886,28.068278987313843,-64.45738978708853,-0.6442,-0.4918,0.2425,-0.5333
270,1285363.0,1254.9429699999998,1.0,8.26,3.36,3.79,-23.87,-14.5,-35.06,7.25,6.5,1.56,0.3379657285390372,-0.2311536603897062,0.12606906951749153,-58.85212533574583,27.407295558849807,-64.67425982878002,-0.6453,-0.4913,0.2369,-0.5349
271,1285363.0,1254.9429699999998,1.0,8.26,3.36,3.79,-23.87,-14.5,-35.06,7.25,6.5,1.56,0.3379657285390372,-0.2311536603897062,0.12606906951749153,-58.85212533574583,27.407295558849807,-64.67425982878002,-0.6453,-0.4913,0.2369,-0.5349
272,1285398.0,1255.006627,1.0,7.83,3.12,3.99,-23.19,-14.5,-35.5,13.06,-4.56,5.25,0.4747808697582861,0.1528812298422264,0.4945819989986386,-58.996898086234786,27.43088596976693,-64.64713688163303,-0.6445,-0.4924,0.2371,-0.5347
273,1285398.0,1255.006627,1.0,7.83,3.12,3.99,-23.19,-14.5,-35.5,13.06,-4.56,5.25,0.4747808697582861,0.1528812298422264,0.4945819989986386,-58.996898086234786,27.43088596976693,-64.64713688163303,-0.6445,-0.4924,0.2371,-0.5347
274,1285435.0,1255.024858,1.0,7.96,3.03,4.56,-22.0,-15.19,-36.25,6.5,-12.81,7.0,0.7177922361759654,0.7011515805063633,0.1978383790533744,-59.497821729807775,27.725866499273085,-64.64713688163303,-0.6407,-0.4962,0.2396,-0.5347
275,1285435.0,1255.024858,1.0,7.96,3.03,4.56,-22.0,-15.19,-36.25,6.5,-12.81,7.0,0.7177922361759654,0.7011515805063633,0.1978383790533744,-59.497821729807775,27.725866499273085,-64.64713688163303,-0.6407,-0.4962,0.2396,-0.5347
276,1285470.0,1255.0703800000001,1.0,7.37,3.11,4.71,-22.0,-15.19,-36.25,4.69,-10.75,3.44,0.4926985107309041,1.1656864148906396,0.6103723095611695,-59.80162063871753,27.902944676024738,-64.60646007520779,-0.6386,-0.4985,0.2411,-0.5344
277,1285470.0,1255.0703800000001,1.0,7.37,3.11,4.71,-22.0,-15.19,-36.25,4.69,-10.75,3.44,0.4926985107309041,1.1656864148906396,0.6103723095611695,-59.80162063871753,27.902944676024738,-64.60646007520779,-0.6386,-0.4985,0.2411,-0.5344
278,1285505.0,1255.090503,1.0,7.17,3.29,4.8,-23.5,-14.5,-35.06,-3.25,8.63,-2.56,0.2781364746173505,1.3447865454736108,0.6749913747227385,-59.695899058507344,28.056467420340038,-64.34905178938227,-0.6403,-0.4977,0.2424,-0.5325
279,1285505.0,1255.090503,1.0,7.17,3.29,4.8,-23.5,-14.5,-35.06,-3.25,8.63,-2.56,0.2781364746173505,1.3447865454736108,0.6749913747227385,-59.695899058507344,28.056467420340038,-64.34905178938227,-0.6403,-0.4977,0.2424,-0.5325
280,1285539.0,1255.140181,1.0,8.47,3.45,4.03,-23.06,-15.19,-35.88,-8.75,7.06,-1.94,0.3570178577877821,0.028276821887547987,-0.18114448479816225,-59.286754689259176,28.056467420340038,-64.28137325688984,-0.6432,-0.4946,0.2424,-0.532
281,1285539.0,1255.140181,1.0,8.47,3.45,4.03,-23.06,-15.19,-35.88,-8.75,7.06,-1.94,0.3570178577877821,0.028276821887547987,-0.18114448479816225,-59.286754689259176,28.056467420340038,-64.28137325688984,-0.6432,-0.4946,0.2424,-0.532
282,1285576.0,1255.206222,1.0,7.41,3.77,4.68,-23.5,-15.19,-34.56,-1.69,-4.94,0.31,-0.14881823627684532,1.1035100797458737,0.3312334584198471,-59.20766160334654,28.23367294753045,-64.11904710633912,-0.644,-0.494,0.2439,-0.5308
283,1285576.0,1255.206222,1.0,7.41,3.77,4.68,-23.5,-15.19,-34.56,-1.69,-4.94,0.31,-0.14881823627684532,1.1035100797458737,0.3312334584198471,-59.20766160334654,28.23367294753045,-64.11904710633912,-0.644,-0.494,0.2439,-0.5308
