,TIME,ELAPSED_SECONDS,PSTATE,acc_x,acc_y,acc_z,mag_x,mag_y,mag_z,gyr_x,gyr_y,gyr_z,lin_x,lin_y,lin_z,eul_x,eul_y,eul_z,qua_w,qua_x,qua_y,qua_z
0,2164221.0,2135.441432,1.0,4.23,3.55,8.07,2.5,-14.69,-42.0,-0.31,1.06,-0.12,0.03063002447422292,0.013329365864854779,0.02814376798243501,-34.267106355147284,4.2867240536107065,-80.4963997494357,-0.7031,-0.2946,0.0374,-0.6461
1,2164221.0,2135.441432,1.0,4.23,3.55,8.07,2.5,-14.69,-42.0,-0.31,1.06,-0.12,0.03063002447422292,0.013329365864854779,0.02814376798243501,-34.267106355147284,4.2867240536107065,-80.4963997494357,-0.7031,-0.2946,0.0374,-0.6461
2,2164256.0,2135.4702030000003,1.0,4.31,3.61,7.99,2.5,-14.69,-42.0,-0.63,1.31,-0.69,-0.0399333336693245,-0.10378236368961337,0.03751828065825258,-34.21914415630217,4.263789782102698,-80.48138700266415,-0.7034,-0.2942,0.0372,-0.6459999999999999
3,2164256.0,2135.4702030000003,1.0,4.31,3.61,7.99,2.5,-14.69,-42.0,-0.63,1.31,-0.69,-0.0399333336693245,-0.10378236368961337,0.03751828065825258,-34.21914415630217,4.263789782102698,-80.48138700266415,-0.7034,-0.2942,0.0372,-0.6459999999999999
4,2164293.0,2135.473365,1.0,4.36,3.69,7.88,2.5,-14.25,-42.0,-0.56,-0.12,-0.63,-0.14276770384851045,-0.20082084899506286,0.07734435317469668,-34.20715457242007,4.263789782102698,-80.46637592020761,-0.7036,-0.2941,0.0372,-0.6459
5,2164293.0,2135.473365,1.0,4.36,3.69,7.88,2.5,-14.25,-42.0,-0.56,-0.12,-0.63,-0.14276770384851045,-0.20082084899506286,0.07734435317469668,-34.20715457242007,4.263789782102698,-80.46637592020761,-0.7036,-0.2941,0.0372,-0.6459
6,2164328.0,2135.5154620000003,1.0,4.27,3.6,8.09,3.25,-15.06,-42.06,0.88,-1.56,-0.31,-0.0021467238115886467,-0.015356836962217237,-0.02395321440832809,-34.255115225601216,4.2867240536107065,-80.45136650125512,-0.7034,-0.2945,0.0374,-0.6458
7,2164328.0,2135.5154620000003,1.0,4.27,3.6,8.09,3.25,-15.06,-42.06,0.88,-1.56,-0.31,-0.0021467238115886467,-0.015356836962217237,-0.02395321440832809,-34.255115225601216,4.2867240536107065,-80.45136650125512,-0.7034,-0.2945,0.0374,-0.6458
8,2164363.0,2135.5772690000003,1.0,4.3,3.54,7.98,3.25,-15.06,-42.06,1.12,-0.81,0.19,0.02813483030029984,-0.08774718062775166,0.07559102044305277,-34.30308206548676,4.2867240536107065,-80.43635874499638,-0.7034,-0.2949,0.0374,-0.6457
9,2164363.0,2135.5772690000003,1.0,4.3,3.54,7.98,3.25,-15.06,-42.06,1.12,-0.81,0.19,0.02813483030029984,-0.08774718062775166,0.07559102044305277,-34.30308206548676,4.2867240536107065,-80.43635874499638,-0.7034,-0.2949,0.0374,-0.6457
10,2164396.0,2135.593617,1.0,4.23,3.46,7.98,1.75,-14.69,-40.88,0.81,-2.31,1.0,0.09295704319799514,-0.011475439182808687,0.13524227917592846,-34.375043949019776,4.332593112917143,-80.43635874499638,-0.7031,-0.2955,0.0378,-0.6457
11,2164396.0,2135.593617,1.0,4.23,3.46,7.98,1.75,-14.69,-40.88,0.81,-2.31,1.0,0.09295704319799514,-0.011475439182808687,0.13524227917592846,-34.375043949019776,4.332593112917143,-80.43635874499638,-0.7031,-0.2955,0.0378,-0.6457
12,2164432.0,2135.636684,1.0,4.35,3.47,7.93,2.88,-14.25,-41.25,-0.37,-0.75,3.0,0.08109230825077429,-0.13066770847739728,0.12033749278117513,-34.39903434859307,4.378462866761455,-80.4963997494357,-0.7026,-0.2957,0.0382,-0.6461
13,2164432.0,2135.636684,1.0,4.35,3.47,7.93,2.88,-14.25,-41.25,-0.37,-0.75,3.0,0.08109230825077429,-0.13066770847739728,0.12033749278117513,-34.39903434859307,4.378462866761455,-80.4963997494357,-0.7026,-0.2957,0.0382,-0.6461
14,2164467.0,2135.700968,1.0,4.38,3.63,7.99,2.88,-14.25,-41.25,-3.06,-3.94,9.44,-0.07651915867586417,-0.10389722288892857,-0.0007324329140718787,-34.375043949019776,4.573417240623146,-80.66165004119368,-0.7016,-0.2955,0.0399,-0.6472
15,2164467.0,2135.700968,1.0,4.38,3.63,7.99,2.88,-14.25,-41.25,-3.06,-3.94,9.44,-0.07651915867586417,-0.10389722288892857,-0.0007324329140718787,-34.375043949019776,4.573417240623146,-80.66165004119368,-0.7016,-0.2955,0.0399,-0.6472
16,2164500.0,2135.719602,1.0,4.56,3.53,7.72,2.5,-14.0,-41.56,1.06,-4.13,17.06,-0.08169804633463823,-0.3357172544823064,0.17682552837706567,-34.48301299993159,4.802792327898413,-81.12844881454608,-0.6982,-0.2964,0.0419,-0.6503
17,2164500.0,2135.719602,1.0,4.56,3.53,7.72,2.5,-14.0,-41.56,1.06,-4.13,17.06,-0.08169804633463823,-0.3357172544823064,0.17682552837706567,-34.48301299993159,4.802792327898413,-81.12844881454608,-0.6982,-0.2964,0.0419,-0.6503
18,2164535.0,2135.7477,1.0,4.56,3.72,7.92,2.5,-14.25,-42.06,2.88,-7.94,16.06,-0.2204744893289005,-0.17082354965771376,-0.05644334410039242,-34.675036035061034,5.0551272004985615,-81.47583755660962,-0.6952,-0.298,0.0441,-0.6526
19,2164535.0,2135.7477,1.0,4.56,3.72,7.92,2.5,-14.25,-42.06,2.88,-7.94,16.06,-0.2204744893289005,-0.17082354965771376,-0.05644334410039242,-34.675036035061034,5.0551272004985615,-81.47583755660962,-0.6952,-0.298,0.0441,-0.6526
20,2164572.0,2135.767915,1.0,5.65,4.01,7.25,1.37,-15.06,-41.56,9.75,-26.0,16.81,-0.5681111936997918,-1.2861362722236267,-0.12250923736062268,-35.299808644002006,5.513981585080581,-81.8089732715648,-0.6906,-0.3032,0.0481,-0.6548
21,2164572.0,2135.767915,1.0,5.65,4.01,7.25,1.37,-15.06,-41.56,9.75,-26.0,16.81,-0.5681111936997918,-1.2861362722236267,-0.12250923736062268,-35.299808644002006,5.513981585080581,-81.8089732715648,-0.6906,-0.3032,0.0481,-0.6548
22,2164604.0,2135.785211,1.0,7.32,3.49,6.32,1.37,-15.06,-41.56,24.87,-81.12,28.06,-0.11605809526605347,-2.879511033190564,-0.062486067977634015,-36.963188541465996,6.512305468988996,-81.74834084363056,-0.6842,-0.317,0.0568,-0.6544
23,2164604.0,2135.785211,1.0,7.32,3.49,6.32,1.37,-15.06,-41.56,24.87,-81.12,28.06,-0.11605809526605347,-2.879511033190564,-0.062486067977634015,-36.963188541465996,6.512305468988996,-81.74834084363056,-0.6842,-0.317,0.0568,-0.6544
24,2164641.0,2135.82838,1.0,7.31,4.28,6.87,0.69,-15.5,-41.25,9.81,-114.69,30.06,-0.6321557787928145,-1.7226665386150315,-0.9443592116077609,-40.253732215798784,9.326587364176332,-81.17370917960935,-0.6721,-0.3441,0.0813,-0.6506
25,2164641.0,2135.82838,1.0,7.31,4.28,6.87,0.69,-15.5,-41.25,9.81,-114.69,30.06,-0.6321557787928145,-1.7226665386150315,-0.9443592116077609,-40.253732215798784,9.326587364176332,-81.17370917960935,-0.6721,-0.3441,0.0813,-0.6506
26,2164678.0,2135.88757,1.0,8.08,4.47,6.69,-2.0,-16.19,-41.56,23.62,-125.69,13.31,-0.6602269127296856,-1.7762698240201586,-1.4375647763186574,-42.96290285030923,11.409241734119899,-80.18148049823861,-0.6642,-0.3662,0.0994,-0.644
27,2164678.0,2135.88757,1.0,8.08,4.47,6.69,-2.0,-16.19,-41.56,23.62,-125.69,13.31,-0.6602269127296856,-1.7762698240201586,-1.4375647763186574,-42.96290285030923,11.409241734119899,-80.18148049823861,-0.6642,-0.3662,0.0994,-0.644
28,2164711.0,2135.904311,1.0,11.13,5.41,5.78,-2.0,-16.19,-41.56,11.75,-185.13,-76.69,-0.7520400679067296,-3.436358053887392,-3.391049764040174,-47.88253794953186,14.696516297153034,-76.04923610928397,-0.6629,-0.4058,0.1279,-0.616
29,2164711.0,2135.904311,1.0,11.13,5.41,5.78,-2.0,-16.19,-41.56,11.75,-185.13,-76.69,-0.7520400679067296,-3.436358053887392,-3.391049764040174,-47.88253794953186,14.696516297153034,-76.04923610928397,-0.6629,-0.4058,0.1279,-0.616
30,2164748.0,2135.956991,1.0,12.3,1.91,5.13,-8.56,-16.56,-40.75,6.81,-250.69,-133.19,3.898098770368653,-3.1571754731051542,-2.6870311632310244,-54.83875259027354,18.738911537329376,-67.14613988325526,-0.675,-0.4605,0.1628,-0.5529999999999999
31,2164748.0,2135.956991,1.0,12.3,1.91,5.13,-8.56,-16.56,-40.75,6.81,-250.69,-133.19,3.898098770368653,-3.1571754731051542,-2.6870311632310244,-54.83875259027354,18.738911537329376,-67.14613988325526,-0.675,-0.4605,0.1628,-0.5529999999999999
32,2164785.0,2135.999732,1.0,16.91,3.24,3.58,-15.0,-17.25,-39.19,-71.94,-323.81,-195.5,5.517546856906985,-4.807603604235688,-6.184151239036645,-59.84128068972836,23.41318918903326,-57.82848630952777,-0.6901,-0.4988,0.2029,-0.4835
33,2164785.0,2135.999732,1.0,16.91,3.24,3.58,-15.0,-17.25,-39.19,-71.94,-323.81,-195.5,5.517546856906985,-4.807603604235688,-6.184151239036645,-59.84128068972836,23.41318918903326,-57.82848630952777,-0.6901,-0.4988,0.2029,-0.4835
34,2164822.0,2136.054043,1.0,16.59,0.23,3.53,-22.5,-19.56,-33.19,-68.44,-382.75,-246.81,10.0798202895601,-0.19380713493055035,-3.835254622325381,-67.14613988325526,30.080791981197944,-41.59914654454349,-0.7076,-0.5529999999999999,0.2595,-0.3551
35,2164822.0,2136.054043,1.0,16.59,0.23,3.53,-22.5,-19.56,-33.19,-68.44,-382.75,-246.81,10.0798202895601,-0.19380713493055035,-3.835254622325381,-67.14613988325526,30.080791981197944,-41.59914654454349,-0.7076,-0.5529999999999999,0.2595,-0.3551
36,2164856.0,2136.061388,1.0,11.08,2.88,7.47,-22.5,-19.56,-33.19,-192.38,-420.0,-217.88,4.2415728946182485,6.759799984674258,-1.291812215407937,-69.8914199628782,36.69748080490138,-28.15096848573949,-0.7168,-0.5728,0.3148,-0.2432
37,2164856.0,2136.061388,1.0,11.08,2.88,7.47,-22.5,-19.56,-33.19,-192.38,-420.0,-217.88,4.2415728946182485,6.759799984674258,-1.291812215407937,-69.8914199628782,36.69748080490138,-28.15096848573949,-0.7168,-0.5728,0.3148,-0.2432
38,2164893.0,2136.078231,1.0,10.14,10.06,2.69,-30.75,-21.69,-27.25,-112.37,-331.13,-250.0,0.4252297650706024,2.272709778477332,-4.543028390462677,-70.92922160534616,43.135358011103925,-10.856595634361932,-0.7206,-0.5802,0.3676,-0.0946
39,2164893.0,2136.078231,1.0,10.14,10.06,2.69,-30.75,-21.69,-27.25,-112.37,-331.13,-250.0,0.4252297650706024,2.272709778477332,-4.543028390462677,-70.92922160534616,43.135358011103925,-10.856595634361932,-0.7206,-0.5802,0.3676,-0.0946
40,2164930.0,2136.1333440000003,1.0,6.46,7.66,2.28,-34.5,-24.87,-18.37,5.06,-297.31,-215.5,-0.2992124655493257,3.181896419073759,0.03978729600208375,-74.97668509466439,46.43217889831124,2.452446574526375,-0.6884,-0.6086,0.3942,0.0214
41,2164930.0,2136.1333440000003,1.0,6.46,7.66,2.28,-34.5,-24.87,-18.37,5.06,-297.31,-215.5,-0.2992124655493257,3.181896419073759,0.03978729600208375,-74.97668509466439,46.43217889831124,2.452446574526375,-0.6884,-0.6086,0.3942,0.0214
42,2164965.0,2136.1713010000003,1.0,2.53,11.39,2.38,-34.5,-24.87,-18.37,-28.94,-229.0,-215.56,-4.125757232406815,1.0432741966190786,-1.3148205057340228,-76.98321557761712,47.619376147320615,11.512892133606984,-0.6629999999999999,-0.6224,0.4037,0.1003
43,2164965.0,2136.1713010000003,1.0,2.53,11.39,2.38,-34.5,-24.87,-18.37,-28.94,-229.0,-215.56,-4.125757232406815,1.0432741966190786,-1.3148205057340228,-76.98321557761712,47.619376147320615,11.512892133606984,-0.6629999999999999,-0.6224,0.4037,0.1003
44,2165000.0,2136.1754809999998,1.0,1.62,14.25,-0.01,-31.69,-30.25,-11.38,35.06,-172.5,-200.44,-3.2106190161161536,-0.229559309459332,-4.169266000634591,-80.51141416133366,47.39402100857085,20.70457229377833,-0.6233,-0.6462,0.4019,0.1797
45,2165000.0,2136.1754809999998,1.0,1.62,14.25,-0.01,-31.69,-30.25,-11.38,35.06,-172.5,-200.44,-3.2106190161161536,-0.229559309459332,-4.169266000634591,-80.51141416133366,47.39402100857085,20.70457229377833,-0.6233,-0.6462,0.4019,0.1797
46,2165037.0,2136.286213,1.0,-0.82,13.68,3.28,-27.69,-34.69,-5.75,119.37,-116.12,-182.06,-6.839066401923951,1.415376986760383,-2.432511684340314,-84.75308505755767,47.05635227559625,25.394572616004382,-0.5814,-0.674,0.3992,0.2198
47,2165037.0,2136.286213,1.0,-0.82,13.68,3.28,-27.69,-34.69,-5.75,119.37,-116.12,-182.06,-6.839066401923951,1.415376986760383,-2.432511684340314,-84.75308505755767,47.05635227559625,25.394572616004382,-0.5814,-0.674,0.3992,0.2198
48,2165073.0,2136.2933359999997,1.0,0.63,12.05,1.12,-20.37,-39.0,-1.37,158.63,-67.19,-182.81,-3.8718249660103816,3.0723743767128866,-1.257855733285007,-91.861552245782,44.69214333160206,29.2983716924918,-0.5247,-0.7185,0.3802,0.2529
49,2165073.0,2136.2933359999997,1.0,0.63,12.05,1.12,-20.37,-39.0,-1.37,158.63,-67.19,-182.81,-3.8718249660103816,3.0723743767128866,-1.257855733285007,-91.861552245782,44.69214333160206,29.2983716924918,-0.5247,-0.7185,0.3802,0.2529
50,2165108.0,2136.300964,1.0,-0.23,10.1,0.81,-20.37,-39.0,-1.37,142.38,-58.63,-186.94,-3.5915960148343635,3.4067193711730863,0.9627989614365386,-99.03424230026712,41.77080790377483,32.651734221557824,-0.4641,-0.7606,0.3565,0.2811
51,2165108.0,2136.300964,1.0,-0.23,10.1,0.81,-20.37,-39.0,-1.37,142.38,-58.63,-186.94,-3.5915960148343635,3.4067193711730863,0.9627989614365386,-99.03424230026712,41.77080790377483,32.651734221557824,-0.4641,-0.7606,0.3565,0.2811
52,2165145.0,2136.3453449999997,1.0,-1.6,10.89,0.88,-13.5,-39.06,6.0,94.44,-36.94,-213.19,-4.429399599320115,3.780403761204964,0.4249941444588199,-103.73780360335891,38.343381493661,35.504295540348124,-0.4249,-0.7866,0.3284,0.3049
53,2165145.0,2136.3453449999997,1.0,-1.6,10.89,0.88,-13.5,-39.06,6.0,94.44,-36.94,-213.19,-4.429399599320115,3.780403761204964,0.4249941444588199,-103.73780360335891,38.343381493661,35.504295540348124,-0.4249,-0.7866,0.3284,0.3049
54,2165182.0,2136.377739,1.0,-3.18,10.13,1.24,-11.25,-38.19,9.88,138.88,-6.63,-193.44,-5.254494842381126,3.939654685587623,1.3724158966733864,-110.45037134177934,33.428651899003285,38.0038595239246,-0.3696,-0.8214,0.2876,0.3256
55,2165182.0,2136.377739,1.0,-3.18,10.13,1.24,-11.25,-38.19,9.88,138.88,-6.63,-193.44,-5.254494842381126,3.939654685587623,1.3724158966733864,-110.45037134177934,33.428651899003285,38.0038595239246,-0.3696,-0.8214,0.2876,0.3256
56,2165217.0,2136.4357440000003,1.0,-3.82,6.9,2.03,-11.25,-38.19,9.88,171.25,30.56,-177.56,-5.557549113284127,2.79806185455344,4.552337703273833,-116.29293986048515,30.24694330618832,38.17357699786608,-0.3218,-0.8494,0.2609,0.327
57,2165217.0,2136.4357440000003,1.0,-3.82,6.9,2.03,-11.25,-38.19,9.88,171.25,30.56,-177.56,-5.557549113284127,2.79806185455344,4.552337703273833,-116.29293986048515,30.24694330618832,38.17357699786608,-0.3218,-0.8494,0.2609,0.327
58,2165252.0,2136.45414,1.0,-3.99,5.4,1.88,-2.88,-40.25,14.75,163.19,85.37,-162.25,-5.349408822763557,2.501165245913615,6.0995625098571855,-124.84860239500851,25.93519704664329,36.22695406441953,-0.2593,-0.8864,0.2244,0.3109
59,2165252.0,2136.45414,1.0,-3.99,5.4,1.88,-2.88,-40.25,14.75,163.19,85.37,-162.25,-5.349408822763557,2.501165245913615,6.0995625098571855,-124.84860239500851,25.93519704664329,36.22695406441953,-0.2593,-0.8864,0.2244,0.3109
60,2165286.0,2136.467127,1.0,-3.68,3.33,0.33,4.25,-38.06,20.06,178.13,152.31,-145.25,-3.872732548657932,1.2606811904772264,6.951334685968575,-134.97619058332577,21.450543092817842,31.06679175207397,-0.2004,-0.9238,0.1861,0.2678
61,2165286.0,2136.467127,1.0,-3.68,3.33,0.33,4.25,-38.06,20.06,178.13,152.31,-145.25,-3.872732548657932,1.2606811904772264,6.951334685968575,-134.97619058332577,21.450543092817842,31.06679175207397,-0.2004,-0.9238,0.1861,0.2678
62,2165325.0,2136.507477,1.0,-3.76,1.33,1.27,7.69,-31.75,23.25,208.44,193.69,-96.06,-4.110965400796084,0.036286241685242526,9.020490485574426,-143.13615512462272,19.040944126019852,25.547298987438325,-0.154,-0.9487,0.1654,0.2211
63,2165325.0,2136.507477,1.0,-3.76,1.33,1.27,7.69,-31.75,23.25,208.44,193.69,-96.06,-4.110965400796084,0.036286241685242526,9.020490485574426,-143.13615512462272,19.040944126019852,25.547298987438325,-0.154,-0.9487,0.1654,0.2211
64,2165358.0,2136.566289,1.0,-0.01,0.12,-3.02,7.69,-31.75,23.25,167.75,263.56,-99.94,0.8419758904007008,-0.3859598888185315,6.929670409490687,-155.0021140741398,15.424724640986323,15.517239777173634,-0.1027,-0.9763,0.1342,0.135
65,2165358.0,2136.566289,1.0,-0.01,0.12,-3.02,7.69,-31.75,23.25,167.75,263.56,-99.94,0.8419758904007008,-0.3859598888185315,6.929670409490687,-155.0021140741398,15.424724640986323,15.517239777173634,-0.1027,-0.9763,0.1342,0.135
66,2165395.0,2136.5822420000004,1.0,-0.54,1.01,-4.32,6.5,-26.5,29.56,172.25,204.81,-64.25,-0.013967242638671716,0.3421608932682908,5.350549592777232,-162.22975145954382,13.253393932396618,8.832292528579133,-0.0679,-0.988,0.1154,0.077
67,2165395.0,2136.5822420000004,1.0,-0.54,1.01,-4.32,6.5,-26.5,29.56,172.25,204.81,-64.25,-0.013967242638671716,0.3421608932682908,5.350549592777232,-162.22975145954382,13.253393932396618,8.832292528579133,-0.0679,-0.988,0.1154,0.077
68,2165432.0,2136.632775,1.0,4.6,-0.64,-6.53,1.37,-21.06,34.5,131.63,192.19,-102.37,4.719440448968213,-0.08542815485946531,3.3313056941734747,-169.7471998361046,9.970582425862727,0.4927452222969898,-0.0198,-0.996,0.0869,0.0043
69,2165432.0,2136.632775,1.0,4.6,-0.64,-6.53,1.37,-21.06,34.5,131.63,192.19,-102.37,4.719440448968213,-0.08542815485946531,3.3313056941734747,-169.7471998361046,9.970582425862727,0.4927452222969898,-0.0198,-0.996,0.0869,0.0043
70,2165469.0,2136.677441,1.0,5.97,-1.87,-8.09,1.37,-21.06,34.5,120.31,137.44,-121.31,5.5282363278939926,-1.1345409267959499,1.2780322932213617,-172.22653193357402,6.454917855397503,-4.206454848857137,0.0052,-0.9977,0.0563,-0.0367
71,2165469.0,2136.677441,1.0,5.97,-1.87,-8.09,1.37,-21.06,34.5,120.31,137.44,-121.31,5.5282363278939926,-1.1345409267959499,1.2780322932213617,-172.22653193357402,6.454917855397503,-4.206454848857137,0.0052,-0.9977,0.0563,-0.0367
72,2165504.0,2136.697607,1.0,9.84,-8.63,-11.1,-4.19,-16.56,35.38,79.19,52.94,-110.0,8.214151337503928,-7.283710357619653,-3.3837927988936976,-169.7471998361046,1.6501754833924644,-8.72885661442212,0.0445,-0.996,0.0144,-0.0761
73,2165504.0,2136.697607,1.0,9.84,-8.63,-11.1,-4.19,-16.56,35.38,79.19,52.94,-110.0,8.214151337503928,-7.283710357619653,-3.3837927988936976,-169.7471998361046,1.6501754833924644,-8.72885661442212,0.0445,-0.996,0.0144,-0.0761
74,2165538.0,2136.751337,1.0,5.08,-4.29,-10.34,-8.75,-12.69,36.69,-122.5,-101.56,-109.25,3.777481339666605,-4.156118505061439,-1.1287701428366006,-173.3172743700655,-2.372214704126748,-6.0647243159910715,0.0149,-0.9983,-0.0207,-0.0529
75,2165538.0,2136.751337,1.0,5.08,-4.29,-10.34,-8.75,-12.69,36.69,-122.5,-101.56,-109.25,3.777481339666605,-4.156118505061439,-1.1287701428366006,-173.3172743700655,-2.372214704126748,-6.0647243159910715,0.0149,-0.9983,-0.0207,-0.0529
76,2165575.0,2136.754812,1.0,3.62,-2.65,-9.73,-5.69,-12.56,37.0,-33.06,-27.25,-58.81,2.618335941328592,-2.9863789172065283,-0.14451364357512375,-173.5168579087077,-4.6881024349692195,-4.481672390551605,-0.0041,-0.9984,-0.0409,-0.0391
77,2165575.0,2136.754812,1.0,3.62,-2.65,-9.73,-5.69,-12.56,37.0,-33.06,-27.25,-58.81,2.618335941328592,-2.9863789172065283,-0.14451364357512375,-173.5168579087077,-4.6881024349692195,-4.481672390551605,-0.0041,-0.9984,-0.0409,-0.0391
78,2165610.0,2136.794769,1.0,4.35,-2.54,-11.19,-5.69,-12.56,37.0,-27.12,3.06,-19.06,3.1828739506583856,-3.1952154899020995,-1.606067090478934,-172.75138501198413,-5.617235753841245,-4.481672390551605,-0.0126,-0.998,-0.049,-0.0391
79,2165610.0,2136.794769,1.0,4.35,-2.54,-11.19,-5.69,-12.56,37.0,-27.12,3.06,-19.06,3.1828739506583856,-3.1952154899020995,-1.606067090478934,-172.75138501198413,-5.617235753841245,-4.481672390551605,-0.0126,-0.998,-0.049,-0.0391
80,2165647.0,2136.854135,1.0,2.88,-0.59,-11.91,-3.88,-15.56,36.06,-47.56,-26.94,-24.37,1.938001415747877,-1.4841583158889575,-2.2154972543775155,-172.05927522066784,-6.3057176080928565,-3.9541934642266314,-0.0262,-0.9976,-0.055,-0.0345
81,2165647.0,2136.854135,1.0,2.88,-0.59,-11.91,-3.88,-15.56,36.06,-47.56,-26.94,-24.37,1.938001415747877,-1.4841583158889575,-2.2154972543775155,-172.05927522066784,-6.3057176080928565,-3.9541934642266314,-0.0262,-0.9976,-0.055,-0.0345
82,2165684.0,2136.8806649999997,1.0,2.09,0.15,-10.58,-3.06,-17.5,35.75,-12.0,-60.13,14.38,1.688565259373306,-0.8248631326481476,-0.8138654383973023,-172.3974616580246,-6.099150260471113,-1.9710720103882065,-0.0364,-0.9978,-0.0532,-0.0172
83,2165684.0,2136.8806649999997,1.0,2.09,0.15,-10.58,-3.06,-17.5,35.75,-12.0,-60.13,14.38,1.688565259373306,-0.8248631326481476,-0.8138654383973023,-172.3974616580246,-6.099150260471113,-1.9710720103882065,-0.0364,-0.9978,-0.0532,-0.0172
84,2165719.0,2136.9228190000003,1.0,0.41,-0.94,-9.38,-3.06,-17.5,35.75,-11.81,-30.19,9.0,0.14175088575390302,-1.6949680494833257,0.5253198152894747,-172.75138501198413,-5.720494487173099,-0.8365258107465946,-0.0389,-0.998,-0.0499,-0.0073
85,2165719.0,2136.9228190000003,1.0,0.41,-0.94,-9.38,-3.06,-17.5,35.75,-11.81,-30.19,9.0,0.14175088575390302,-1.6949680494833257,0.5253198152894747,-172.75138501198413,-5.720494487173099,-0.8365258107465946,-0.0389,-0.998,-0.0499,-0.0073
86,2165753.0,2136.978064,1.0,0.34,0.2,-9.37,-0.06,-19.0,35.0,-25.31,-24.19,25.56,0.3307300905391076,-0.7161890603968881,0.4615876226276665,-172.57231796598282,-4.96336629149859,0.08021409786913415,-0.0473,-0.9979,-0.0433,0.0007
87,2165753.0,2136.978064,1.0,0.34,0.2,-9.37,-0.06,-19.0,35.0,-25.31,-24.19,25.56,0.3307300905391076,-0.7161890603968881,0.4615876226276665,-172.57231796598282,-4.96336629149859,0.08021409786913415,-0.0473,-0.9979,-0.0433,0.0007
88,2165788.0,2136.9900620000003,1.0,0.61,0.69,-9.8,-0.19,-18.56,35.0,-8.75,-20.56,25.31,0.7599229950080121,-0.3681117552416816,-0.00024608272214443616,-172.93498296022824,-3.713416405127687,0.8136069048374162,-0.0516,-0.9981,-0.0324,0.0071
89,2165788.0,2136.9900620000003,1.0,0.61,0.69,-9.8,-0.19,-18.56,35.0,-8.75,-20.56,25.31,0.7599229950080121,-0.3681117552416816,-0.00024608272214443616,-172.93498296022824,-3.713416405127687,0.8136069048374162,-0.0516,-0.9981,-0.0324,0.0071
90,2165825.0,2137.041295,1.0,-0.16,1.15,-9.61,-0.5,-18.56,35.75,-9.63,-14.06,17.62,0.08737117626647296,0.10058504888915233,0.12768058556863693,-173.1234747164887,-2.8306993879474716,1.283452294756085,-0.0544,-0.9982,-0.0247,0.0112
91,2165825.0,2137.041295,1.0,-0.16,1.15,-9.61,-0.5,-18.56,35.75,-9.63,-14.06,17.62,0.08737117626647296,0.10058504888915233,0.12768058556863693,-173.1234747164887,-2.8306993879474716,1.283452294756085,-0.0544,-0.9982,-0.0247,0.0112
92,2165860.0,2137.058366,1.0,-0.31,1.21,-9.83,-0.5,-18.56,35.75,7.38,-17.44,15.94,0.040095678914497765,0.15328060108423425,-0.10112459341216784,-173.1234747164887,-2.1659094260652934,1.8793858210517669,-0.0537,-0.9982,-0.0189,0.0164
93,2165860.0,2137.058366,1.0,-0.31,1.21,-9.83,-0.5,-18.56,35.75,7.38,-17.44,15.94,0.040095678914497765,0.15328060108423425,-0.10112459341216784,-173.1234747164887,-2.1659094260652934,1.8793858210517669,-0.0537,-0.9982,-0.0189,0.0164
94,2165895.0,2137.104758,1.0,-0.84,1.01,-9.47,0.25,-19.37,35.38,14.25,-18.44,10.88,-0.41776516385932827,0.07238805398777465,0.2553761458219341,-173.5168579087077,-1.5355728478655368,2.452446574526375,-0.0501,-0.9984,-0.0134,0.0214
95,2165895.0,2137.104758,1.0,-0.84,1.01,-9.47,0.25,-19.37,35.38,14.25,-18.44,10.88,-0.41776516385932827,0.07238805398777465,0.2553761458219341,-173.5168579087077,-1.5355728478655368,2.452446574526375,-0.0501,-0.9984,-0.0134,0.0214
96,2165932.0,2137.122568,1.0,-0.39,0.59,-9.89,0.56,-19.69,35.0,16.5,-18.56,9.19,0.15562741888820256,-0.3022814113722282,-0.10277511222669132,-173.93567700467025,-0.93966131468631,3.140201723904295,-0.0451,-0.9986,-0.0082,0.0274
97,2165932.0,2137.122568,1.0,-0.39,0.59,-9.89,0.56,-19.69,35.0,16.5,-18.56,9.19,0.15562741888820256,-0.3022814113722282,-0.10277511222669132,-173.93567700467025,-0.93966131468631,3.140201723904295,-0.0451,-0.9986,-0.0082,0.0274
98,2165966.0,2137.168684,1.0,-0.61,0.44,-9.68,0.56,-19.69,35.0,6.06,-22.06,8.75,0.02697285239405208,-0.3855625873396243,0.1051700120560124,-173.7227770024909,-0.6417160846123932,3.7592774051414257,-0.0427,-0.9985,-0.0056,0.0328
99,2165966.0,2137.168684,1.0,-0.61,0.44,-9.68,0.56,-19.69,35.0,6.06,-22.06,8.75,0.02697285239405208,-0.3855625873396243,0.1051700120560124,-173.7227770024909,-0.6417160846123932,3.7592774051414257,-0.0427,-0.9985,-0.0056,0.0328
100,2165999.0,2137.1870910000002,1.0,-0.84,0.67,-9.78,1.0,-19.0,35.38,-2.5,-15.13,5.44,-0.0847059464388123,-0.1733989170273568,-0.03030368080035295,-173.5168579087077,-0.1833465726697912,4.401398006442045,-0.043,-0.9984,-0.0016,0.0384
101,2165999.0,2137.1870910000002,1.0,-0.84,0.67,-9.78,1.0,-19.0,35.38,-2.5,-15.13,5.44,-0.0847059464388123,-0.1733989170273568,-0.03030368080035295,-173.5168579087077,-0.1833465726697912,4.401398006442045,-0.043,-0.9984,-0.0016,0.0384
102,2166036.0,2137.228738,1.0,-0.77,1.15,-9.56,1.37,-18.56,35.0,-4.69,-9.56,3.69,0.023410771478107502,0.30026941489565123,0.15168805215903447,-173.1234747164887,0.12605074034902247,4.733977821845079,-0.0441,-0.9982,0.0011,0.0413
103,2166036.0,2137.228738,1.0,-0.77,1.15,-9.56,1.37,-18.56,35.0,-4.69,-9.56,3.69,0.023410771478107502,0.30026941489565123,0.15168805215903447,-173.1234747164887,0.12605074034902247,4.733977821845079,-0.0441,-0.9982,0.0011,0.0413
104,2166073.0,2137.292471,1.0,-0.69,0.93,-9.62,2.06,-18.56,35.38,2.63,-1.5,-1.75,0.12832174268860702,0.0817606612020838,0.11839686929407378,-173.1234747164887,0.20626491763025406,4.860139072417077,-0.0438,-0.9982,0.0018,0.0424
105,2166073.0,2137.292471,1.0,-0.69,0.93,-9.62,2.06,-18.56,35.38,2.63,-1.5,-1.75,0.12832174268860702,0.0817606612020838,0.11839686929407378,-173.1234747164887,0.20626491763025406,4.860139072417077,-0.0438,-0.9982,0.0018,0.0424
106,2166106.0,2137.348975,1.0,-1.06,0.67,-9.38,2.06,-18.56,35.38,2.81,5.88,-9.44,-0.2748563609808452,-0.1413782761925676,0.34824811787164833,-173.1234747164887,-0.011459155921715059,4.768384859798278,-0.043,-0.9982,-0.0001,0.0416
107,2166106.0,2137.348975,1.0,-1.06,0.67,-9.38,2.06,-18.56,35.38,2.81,5.88,-9.44,-0.2748563609808452,-0.1413782761925676,0.34824811787164833,-173.1234747164887,-0.011459155921715059,4.768384859798278,-0.043,-0.9982,-0.0001,0.0416
108,2166142.0,2137.3562460000003,1.0,-0.64,0.33,-9.92,1.37,-19.37,36.19,-2.94,11.81,-9.13,0.1052868060081574,-0.5180230934953315,-0.1253924265649502,-173.5168579087077,-0.2177240931471762,4.298191253728037,-0.0427,-0.9984,-0.0019,0.0375
109,2166142.0,2137.3562460000003,1.0,-0.64,0.33,-9.92,1.37,-19.37,36.19,-2.94,11.81,-9.13,0.1052868060081574,-0.5180230934953315,-0.1253924265649502,-173.5168579087077,-0.2177240931471762,4.298191253728037,-0.0427,-0.9984,-0.0019,0.0375
110,2166179.0,2137.4492010000004,1.0,-0.38,0.6,-9.56,1.75,-18.19,34.69,0.75,0.31,-6.25,0.33194229952811216,-0.21266531766067148,0.2284148926094787,-173.5168579087077,-0.2291832708413497,4.2523227104813985,-0.0424,-0.9984,-0.002,0.0371
111,2166179.0,2137.4492010000004,1.0,-0.38,0.6,-9.56,1.75,-18.19,34.69,0.75,0.31,-6.25,0.33194229952811216,-0.21266531766067148,0.2284148926094787,-173.5168579087077,-0.2291832708413497,4.2523227104813985,-0.0424,-0.9984,-0.002,0.0371
112,2166212.0,2137.514,1.0,-0.52,-0.03,-9.86,1.75,-18.19,34.69,2.44,1.5,-6.13,0.2000826637491523,-0.8412765716228672,-0.0291580836149663,-173.7227770024909,-0.5042044866238587,4.206454848857137,-0.0412,-0.9985,-0.0044,0.0367
113,2166212.0,2137.514,1.0,-0.52,-0.03,-9.86,1.75,-18.19,34.69,2.44,1.5,-6.13,0.2000826637491523,-0.8412765716228672,-0.0291580836149663,-173.7227770024909,-0.5042044866238587,4.206454848857137,-0.0412,-0.9985,-0.0044,0.0367
114,2166247.0,2137.574862,1.0,-0.56,-0.02,-9.8,1.75,-18.19,35.0,-3.0,7.0,-7.38,0.13372250434483612,-0.833559217419688,0.027013129293273156,-173.7227770024909,-0.5844194845105756,4.080321683767285,-0.0416,-0.9985,-0.0051,0.0356
115,2166247.0,2137.574862,1.0,-0.56,-0.02,-9.8,1.75,-18.19,35.0,-3.0,7.0,-7.38,0.13372250434483612,-0.833559217419688,0.027013129293273156,-173.7227770024909,-0.5844194845105756,4.080321683767285,-0.0416,-0.9985,-0.0051,0.0356
116,2166284.0,2137.586013,1.0,-0.57,0.5,-9.18,2.06,-18.19,34.5,-13.19,15.75,-5.0,0.015207505917529176,-0.2843614130029844,0.5997934616065219,-173.7227770024909,-0.7792286067117273,3.6331610823402585,-0.0428,-0.9985,-0.0068,0.0317
117,2166284.0,2137.586013,1.0,-0.57,0.5,-9.18,2.06,-18.19,34.5,-13.19,15.75,-5.0,0.015207505917529176,-0.2843614130029844,0.5997934616065219,-173.7227770024909,-0.7792286067117273,3.6331610823402585,-0.0428,-0.9985,-0.0068,0.0317
118,2166317.0,2137.589802,1.0,-0.04,0.56,-10.09,2.06,-18.19,34.5,-2.25,19.87,-3.0,0.5012525159757868,-0.3367495874027179,-0.2808990398120006,-174.1563208624574,-0.9282017781870658,3.0599582684028324,-0.0442,-0.9987,-0.0081,0.0267
119,2166317.0,2137.589802,1.0,-0.04,0.56,-10.09,2.06,-18.19,34.5,-2.25,19.87,-3.0,0.5012525159757868,-0.3367495874027179,-0.2808990398120006,-174.1563208624574,-0.9282017781870658,3.0599582684028324,-0.0442,-0.9987,-0.0081,0.0267
120,2166351.0,2137.633109,1.0,-0.09,0.67,-9.91,1.75,-19.0,35.38,-3.63,13.06,-1.88,0.34656554447331384,-0.2297849670497284,-0.11767321079386585,-174.1563208624574,-0.93966131468631,2.4982938949536853,-0.0452,-0.9987,-0.0082,0.0218
121,2166351.0,2137.633109,1.0,-0.09,0.67,-9.91,1.75,-19.0,35.38,-3.63,13.06,-1.88,0.34656554447331384,-0.2297849670497284,-0.11767321079386585,-174.1563208624574,-0.93966131468631,2.4982938949536853,-0.0452,-0.9987,-0.0082,0.0218
122,2166386.0,2137.649207,1.0,-0.24,0.74,-9.9,1.37,-19.0,34.5,-8.88,6.75,-1.81,0.13604193356239694,-0.17240501425518462,-0.12143990205932376,-174.1563208624574,-0.9625804159917916,2.142987063023817,-0.046,-0.9987,-0.0084,0.0187
123,2166386.0,2137.649207,1.0,-0.24,0.74,-9.9,1.37,-19.0,34.5,-8.88,6.75,-1.81,0.13604193356239694,-0.17240501425518462,-0.12143990205932376,-174.1563208624574,-0.9625804159917916,2.142987063023817,-0.046,-0.9987,-0.0084,0.0187
124,2166421.0,2137.652145,1.0,-0.22,0.5,-9.84,1.37,-19.0,34.5,-7.0,5.63,-2.56,0.12157908397347765,-0.4353473662914536,-0.03812989581297188,-174.1563208624574,-1.0427975798203954,1.9825328715837252,-0.0475,-0.9987,-0.0091,0.0173
125,2166421.0,2137.652145,1.0,-0.22,0.5,-9.84,1.37,-19.0,34.5,-7.0,5.63,-2.56,0.12157908397347765,-0.4353473662914536,-0.03812989581297188,-174.1563208624574,-1.0427975798203954,1.9825328715837252,-0.0475,-0.9987,-0.0091,0.0173
126,2166454.0,2137.6887899999997,1.0,-0.23,0.66,-9.92,-0.06,-19.0,34.06,-7.81,2.94,-0.06,0.08253457021671523,-0.3313061229669467,-0.13207850507567365,-173.93567700467025,-0.8021474641450599,1.7877008349543104,-0.0499,-0.9986,-0.006999999999999999,0.0156
127,2166454.0,2137.6887899999997,1.0,-0.23,0.66,-9.92,-0.06,-19.0,34.06,-7.81,2.94,-0.06,0.08253457021671523,-0.3313061229669467,-0.13207850507567365,-173.93567700467025,-0.8021474641450599,1.7877008349543104,-0.0499,-0.9986,-0.006999999999999999,0.0156
128,2166489.0,2137.696473,1.0,-0.42,0.68,-9.8,0.56,-19.0,34.25,-10.31,0.94,-1.0,-0.12094673065329685,-0.32880530346987435,-0.01964426390001961,-173.7227770024909,-0.7333909844413455,1.7303983035632713,-0.0515,-0.9985,-0.0064,0.0151
129,2166489.0,2137.696473,1.0,-0.42,0.68,-9.8,0.56,-19.0,34.25,-10.31,0.94,-1.0,-0.12094673065329685,-0.32880530346987435,-0.01964426390001961,-173.7227770024909,-0.7333909844413455,1.7303983035632713,-0.0515,-0.9985,-0.0064,0.0151
130,2166523.0,2137.7146789999997,1.0,-0.35,0.88,-9.8,-0.06,-19.69,34.56,-11.0,2.0,-0.25,-0.049795558592677744,-0.2042119043902036,-0.03675987160698035,-173.5168579087077,-0.5271230305187238,1.7303983035632713,-0.0552,-0.9984,-0.0046,0.0151
131,2166523.0,2137.7146789999997,1.0,-0.35,0.88,-9.8,-0.06,-19.69,34.56,-11.0,2.0,-0.25,-0.049795558592677744,-0.2042119043902036,-0.03675987160698035,-173.5168579087077,-0.5271230305187238,1.7303983035632713,-0.0552,-0.9984,-0.0046,0.0151
132,2166558.0,2137.76045,1.0,-0.16,0.9,-9.73,-0.06,-19.69,34.56,-1.69,1.69,-1.12,0.13245783816809245,-0.1995819639284088,0.03674099526601005,-173.3172743700655,-0.5500415954991054,1.6960169933572922,-0.0563,-0.9983,-0.0048,0.0148
133,2166558.0,2137.76045,1.0,-0.16,0.9,-9.73,-0.06,-19.69,34.56,-1.69,1.69,-1.12,0.13245783816809245,-0.1995819639284088,0.03674099526601005,-173.3172743700655,-0.5500415954991054,1.6960169933572922,-0.0563,-0.9983,-0.0048,0.0148
134,2166595.0,2137.779808,1.0,-0.08,0.86,-9.89,-0.06,-20.06,34.56,-1.69,2.19,-1.88,0.19989423056780287,-0.2736038972411524,-0.1152088582986881,-173.3172743700655,-0.4010712754482724,1.6043342375287626,-0.0571,-0.9983,-0.0035,0.013999999999999999
135,2166595.0,2137.779808,1.0,-0.08,0.86,-9.89,-0.06,-20.06,34.56,-1.69,2.19,-1.88,0.19989423056780287,-0.2736038972411524,-0.1152088582986881,-173.3172743700655,-0.4010712754482724,1.6043342375287626,-0.0571,-0.9983,-0.0035,0.013999999999999999
136,2166630.0,2137.837555,1.0,-0.14,0.74,-9.7,0.56,-20.06,34.56,-1.94,0.88,-1.5,0.12393673997463255,-0.3688491264890221,0.085241151156497,-173.3172743700655,-0.4010712754482724,1.5470330404085568,-0.057,-0.9983,-0.0035,0.0135
137,2166630.0,2137.837555,1.0,-0.14,0.74,-9.7,0.56,-20.06,34.56,-1.94,0.88,-1.5,0.12393673997463255,-0.3688491264890221,0.085241151156497,-173.3172743700655,-0.4010712754482724,1.5470330404085568,-0.057,-0.9983,-0.0035,0.0135
138,2166663.0,2137.841164,1.0,-0.01,0.88,-9.9,0.56,-20.06,34.56,-5.5,-1.81,-1.75,0.25283005573607104,-0.2713718895911165,-0.12546630320830765,-173.1234747164887,-0.4812859628976946,1.5011923619341792,-0.0579,-0.9982,-0.0042,0.0131
139,2166663.0,2137.841164,1.0,-0.01,0.88,-9.9,0.56,-20.06,34.56,-5.5,-1.81,-1.75,0.25283005573607104,-0.2713718895911165,-0.12546630320830765,-173.1234747164887,-0.4812859628976946,1.5011923619341792,-0.0579,-0.9982,-0.0042,0.0131
140,2166697.0,2137.8989469999997,1.0,-0.26,1.08,-9.6,0.56,-20.06,35.0,-4.06,2.06,0.06,-0.0031780910406755914,-0.05373206772678285,0.14274277959296455,-173.1234747164887,-0.4469082131192447,1.5011923619341792,-0.0588,-0.9982,-0.0039,0.0131
141,2166697.0,2137.8989469999997,1.0,-0.26,1.08,-9.6,0.56,-20.06,35.0,-4.06,2.06,0.06,-0.0031780910406755914,-0.05373206772678285,0.14274277959296455,-173.1234747164887,-0.4469082131192447,1.5011923619341792,-0.0588,-0.9982,-0.0039,0.0131
142,2166734.0,2137.9288309999997,1.0,0.08,1.0,-9.84,0.25,-20.5,35.38,-0.12,3.31,-0.94,0.3100516534048167,-0.17508225424720736,-0.07794479070683558,-173.1234747164887,-0.3896120513439707,1.3178319771025526,-0.0594,-0.9982,-0.0034,0.0115
143,2166734.0,2137.9288309999997,1.0,0.08,1.0,-9.84,0.25,-20.5,35.38,-0.12,3.31,-0.94,0.3100516534048167,-0.17508225424720736,-0.07794479070683558,-173.1234747164887,-0.3896120513439707,1.3178319771025526,-0.0594,-0.9982,-0.0034,0.0115
144,2166769.0,2137.94941,1.0,-0.19,0.91,-9.59,0.25,-20.5,35.38,-0.88,0.19,0.06,0.03183168366729028,-0.23331139307093884,0.1745758444622485,-173.1234747164887,-0.3896120513439707,1.306372069959298,-0.0594,-0.9982,-0.0034,0.0114
145,2166769.0,2137.94941,1.0,-0.19,0.91,-9.59,0.25,-20.5,35.38,-0.88,0.19,0.06,0.03183168366729028,-0.23331139307093884,0.1745758444622485,-173.1234747164887,-0.3896120513439707,1.306372069959298,-0.0594,-0.9982,-0.0034,0.0114
146,2166802.0,2138.012424,1.0,-0.05,0.83,-9.88,0.25,-20.5,35.0,-1.31,3.81,-1.0,0.15172008147544574,-0.3458444174775122,-0.10108297257131048,-173.1234747164887,-0.3552344019497601,1.1573944243672372,-0.0593,-0.9982,-0.0031,0.0101
147,2166802.0,2138.012424,1.0,-0.05,0.83,-9.88,0.25,-20.5,35.0,-1.31,3.81,-1.0,0.15172008147544574,-0.3458444174775122,-0.10108297257131048,-173.1234747164887,-0.3552344019497601,1.1573944243672372,-0.0593,-0.9982,-0.0031,0.0101
148,2166837.0,2138.032979,1.0,0.05,0.94,-9.93,0.25,-19.69,33.75,-3.13,3.75,0.12,0.2273006633752796,-0.2468679033877664,-0.16222108185806938,-173.1234747164887,-0.3093975852894872,1.0084187350403075,-0.0595,-0.9982,-0.0027,0.0088
149,2166837.0,2138.032979,1.0,0.05,0.94,-9.93,0.25,-19.69,33.75,-3.13,3.75,0.12,0.2273006633752796,-0.2468679033877664,-0.16222108185806938,-173.1234747164887,-0.3093975852894872,1.0084187350403075,-0.0595,-0.9982,-0.0027,0.0088
150,2166872.0,2138.0930789999998,1.0,-0.18,0.87,-9.65,0.25,-19.69,33.75,-0.06,-1.94,2.25,-0.012154327322000641,-0.2764021040289305,0.1197901295767796,-173.1234747164887,-0.2406424508273681,0.9854995558041141,-0.0592,-0.9982,-0.0021,0.0086
151,2166872.0,2138.0930789999998,1.0,-0.18,0.87,-9.65,0.25,-19.69,33.75,-0.06,-1.94,2.25,-0.012154327322000641,-0.2764021040289305,0.1197901295767796,-173.1234747164887,-0.2406424508273681,0.9854995558041141,-0.0592,-0.9982,-0.0021,0.0086
152,2166906.0,2138.096825,1.0,-0.24,1.15,-9.64,0.56,-19.69,33.69,-5.56,0.0,-0.19,-0.06518962562946047,-0.014486116496969959,0.09556146857680403,-173.1234747164887,-0.2291832708413497,1.0198783397289315,-0.0601,-0.9982,-0.002,0.0089
153,2166906.0,2138.096825,1.0,-0.24,1.15,-9.64,0.56,-19.69,33.69,-5.56,0.0,-0.19,-0.06518962562946047,-0.014486116496969959,0.09556146857680403,-173.1234747164887,-0.2291832708413497,1.0198783397289315,-0.0601,-0.9982,-0.002,0.0089
154,2166941.0,2138.141772,1.0,-0.06,1.22,-9.81,-0.5,-20.5,35.75,-1.5,3.25,1.44,0.09995894379888094,0.016299726448327445,-0.07858355963187691,-172.93498296022824,-0.011459155921715059,0.9282017781870658,-0.061,-0.9981,-0.0001,0.0081
155,2166941.0,2138.141772,1.0,-0.06,1.22,-9.81,-0.5,-20.5,35.75,-1.5,3.25,1.44,0.09995894379888094,0.016299726448327445,-0.07858355963187691,-172.93498296022824,-0.011459155921715059,0.9282017781870658,-0.061,-0.9981,-0.0001,0.0081
156,2166976.0,2138.160048,1.0,-0.07,1.0,-9.73,-0.06,-20.5,35.0,2.0,1.19,1.5,0.07381009251048659,-0.18049844498663545,0.02709109473228644,-173.1234747164887,0.1145915781247664,0.8479852761926534,-0.0604,-0.9982,0.001,0.0074
157,2166976.0,2138.160048,1.0,-0.07,1.0,-9.73,-0.06,-20.5,35.0,2.0,1.19,1.5,0.07381009251048659,-0.18049844498663545,0.02709109473228644,-173.1234747164887,0.1145915781247664,0.8479852761926534,-0.0604,-0.9982,0.001,0.0074
158,2167011.0,2138.2014,1.0,-0.11,1.1,-9.83,-0.06,-20.5,35.0,-1.88,0.88,-0.44,0.03323789553516178,-0.09944533844594784,-0.0847607116711,-172.93498296022824,0.1145915781247664,0.8365258107465946,-0.0607,-0.9981,0.001,0.0073
159,2167011.0,2138.2014,1.0,-0.11,1.1,-9.83,-0.06,-20.5,35.0,-1.88,0.88,-0.44,0.03323789553516178,-0.09944533844594784,-0.0847607116711,-172.93498296022824,0.1145915781247664,0.8365258107465946,-0.0607,-0.9981,0.001,0.0073
160,2167046.0,2138.25725,1.0,-0.05,1.12,-9.87,0.56,-20.06,34.19,0.31,1.88,-0.37,0.08388113476497637,-0.08824758970776858,-0.1260725028257621,-172.93498296022824,0.1145915781247664,0.7792286067117273,-0.0609,-0.9981,0.001,0.0068
161,2167046.0,2138.25725,1.0,-0.05,1.12,-9.87,0.56,-20.06,34.19,0.31,1.88,-0.37,0.08388113476497637,-0.08824758970776858,-0.1260725028257621,-172.93498296022824,0.1145915781247664,0.7792286067117273,-0.0609,-0.9981,0.001,0.0068
162,2167083.0,2138.274345,1.0,0.04,1.08,-9.83,-0.5,-19.69,33.38,2.06,0.88,1.0,0.1622004820649653,-0.10668224272852034,-0.08067572047186111,-173.1234747164887,0.2635608181333149,0.7219315974960596,-0.0601,-0.9982,0.0023,0.0063
163,2167083.0,2138.274345,1.0,0.04,1.08,-9.83,-0.5,-19.69,33.38,2.06,0.88,1.0,0.1622004820649653,-0.10668224272852034,-0.08067572047186111,-173.1234747164887,0.2635608181333149,0.7219315974960596,-0.0601,-0.9982,0.0023,0.0063
164,2167115.0,2138.319055,1.0,0.02,1.12,-9.89,-0.5,-19.69,33.38,0.94,-0.44,-0.19,0.13683485112335722,-0.06435950742996943,-0.14543692070770575,-173.1234747164887,0.2635608181333149,0.687553479519944,-0.0596,-0.9982,0.0023,0.006
165,2167115.0,2138.319055,1.0,0.02,1.12,-9.89,-0.5,-19.69,33.38,0.94,-0.44,-0.19,0.13683485112335722,-0.06435950742996943,-0.14543692070770575,-173.1234747164887,0.2635608181333149,0.687553479519944,-0.0596,-0.9982,0.0023,0.006
166,2167150.0,2138.394154,1.0,-0.15,0.89,-9.83,0.56,-20.5,33.69,2.38,-2.25,0.0,-0.025010934677312902,-0.2706758556966426,-0.060954016897389,-173.1234747164887,0.2406424508273681,0.7333909844413455,-0.0588,-0.9982,0.0021,0.0064
167,2167150.0,2138.394154,1.0,-0.15,0.89,-9.83,0.56,-20.5,33.69,2.38,-2.25,0.0,-0.025010934677312902,-0.2706758556966426,-0.060954016897389,-173.1234747164887,0.2406424508273681,0.7333909844413455,-0.0588,-0.9982,0.0021,0.0064
168,2167185.0,2138.397357,1.0,-0.06,1.08,-9.78,0.25,-20.5,35.38,0.25,-3.38,0.75,0.07329710137644213,-0.07368635418939085,-0.032435214395498235,-173.1234747164887,0.2635608181333149,0.7906880314747026,-0.0587,-0.9982,0.0023,0.0069
169,2167185.0,2138.397357,1.0,-0.06,1.08,-9.78,0.25,-20.5,35.38,0.25,-3.38,0.75,0.07329710137644213,-0.07368635418939085,-0.032435214395498235,-173.1234747164887,0.2635608181333149,0.7906880314747026,-0.0587,-0.9982,0.0023,0.0069
170,2167220.0,2138.436428,1.0,-0.2,0.99,-9.72,0.25,-20.5,35.38,1.44,-1.19,0.19,-0.057547358426295714,-0.14693054646782172,0.035590706553209735,-173.3172743700655,0.27502000568243146,0.8479852761926534,-0.0582,-0.9983,0.0024,0.0074
171,2167220.0,2138.436428,1.0,-0.2,0.99,-9.72,0.25,-20.5,35.38,1.44,-1.19,0.19,-0.057547358426295714,-0.14693054646782172,0.035590706553209735,-173.3172743700655,0.27502000568243146,0.8479852761926534,-0.0582,-0.9983,0.0024,0.0074
172,2167252.0,2138.44427,1.0,-0.12,1.01,-9.86,-0.88,-20.87,35.0,0.19,0.12,0.5,0.026845618639507785,-0.13710167897845538,-0.10468605738303792,-173.3172743700655,0.4812859628976946,0.8709042326408071,-0.0579,-0.9983,0.0042,0.0076
173,2167252.0,2138.44427,1.0,-0.12,1.01,-9.86,-0.88,-20.87,35.0,0.19,0.12,0.5,0.026845618639507785,-0.13710167897845538,-0.10468605738303792,-173.3172743700655,0.4812859628976946,0.8709042326408071,-0.0579,-0.9983,0.0042,0.0076
174,2167287.0,2138.504708,1.0,-0.07,0.96,-9.74,-0.06,-20.06,33.69,-0.25,0.06,0.94,0.07304537159488639,-0.16853867831407504,0.02092779427595381,-173.3172743700655,0.5271230305187238,0.8594447501191841,-0.0577,-0.9983,0.0046,0.0075
175,2167287.0,2138.504708,1.0,-0.07,0.96,-9.74,-0.06,-20.06,33.69,-0.25,0.06,0.94,0.07304537159488639,-0.16853867831407504,0.02092779427595381,-173.3172743700655,0.5271230305187238,0.8594447501191841,-0.0577,-0.9983,0.0046,0.0075
176,2167324.0,2138.524526,1.0,-0.05,1.01,-9.77,0.56,-19.69,34.19,-1.44,1.56,-0.12,0.08534004525674876,-0.12413105125417245,-0.014389077347674473,-173.3172743700655,0.5156637559929028,0.8136069048374162,-0.0578,-0.9983,0.0045,0.0071
177,2167324.0,2138.524526,1.0,-0.05,1.01,-9.77,0.56,-19.69,34.19,-1.44,1.56,-0.12,0.08534004525674876,-0.12413105125417245,-0.014389077347674473,-173.3172743700655,0.5156637559929028,0.8136069048374162,-0.0578,-0.9983,0.0045,0.0071
178,2167359.0,2138.572961,1.0,-0.13,1.06,-9.74,0.56,-19.69,34.19,-0.12,1.81,-0.88,-0.003317386592618023,-0.07378299907549896,0.00855604944035093,-173.3172743700655,0.5156637559929028,0.7677691897415189,-0.0579,-0.9983,0.0045,0.0067
179,2167359.0,2138.572961,1.0,-0.13,1.06,-9.74,0.56,-19.69,34.19,-0.12,1.81,-0.88,-0.003317386592618023,-0.07378299907549896,0.00855604944035093,-173.3172743700655,0.5156637559929028,0.7677691897415189,-0.0579,-0.9983,0.0045,0.0067
180,2167394.0,2138.590307,1.0,-0.13,0.97,-9.55,0.25,-20.06,34.56,-0.06,4.5,0.37,-0.0261609697534258,-0.13936778454117682,0.2076817104235769,-173.3172743700655,0.4927452222969898,0.6417160846123932,-0.0578,-0.9983,0.0043,0.0056
181,2167394.0,2138.590307,1.0,-0.13,0.97,-9.55,0.25,-20.06,34.56,-0.06,4.5,0.37,-0.0261609697534258,-0.13936778454117682,0.2076817104235769,-173.3172743700655,0.4927452222969898,0.6417160846123932,-0.0578,-0.9983,0.0043,0.0056
182,2167429.0,2138.630566,1.0,-0.03,1.0,-9.68,0.25,-19.37,35.0,-1.37,4.56,-0.94,0.05381808500115884,-0.12568746173161438,0.07604846280353073,-173.3172743700655,0.4812859628976946,0.5156637559929028,-0.0579,-0.9983,0.0042,0.0045
183,2167429.0,2138.630566,1.0,-0.03,1.0,-9.68,0.25,-19.37,35.0,-1.37,4.56,-0.94,0.05381808500115884,-0.12568746173161438,0.07604846280353073,-173.3172743700655,0.4812859628976946,0.5156637559929028,-0.0579,-0.9983,0.0042,0.0045
184,2167463.0,2138.687629,1.0,-0.01,1.08,-9.99,0.25,-19.37,35.0,-1.37,1.31,-0.75,0.05649040307522056,-0.09201356577546976,-0.24098366858454234,-173.3172743700655,0.43544897228424,0.4010712754482724,-0.0584,-0.9983,0.0038,0.0035
185,2167463.0,2138.687629,1.0,-0.01,1.08,-9.99,0.25,-19.37,35.0,-1.37,1.31,-0.75,0.05649040307522056,-0.09201356577546976,-0.24098366858454234,-173.3172743700655,0.43544897228424,0.4010712754482724,-0.0584,-0.9983,0.0038,0.0035
186,2167498.0,2138.7066879999998,1.0,0.04,1.13,-10.05,-0.5,-20.87,33.69,0.37,1.88,-0.69,0.0979719299231515,-0.05295746091291409,-0.3061437291472924,-173.3172743700655,0.4927452222969898,0.3552344019497601,-0.0586,-0.9983,0.0043,0.0031
187,2167498.0,2138.7066879999998,1.0,0.04,1.13,-10.05,-0.5,-20.87,33.69,0.37,1.88,-0.69,0.0979719299231515,-0.05295746091291409,-0.3061437291472924,-173.3172743700655,0.4927452222969898,0.3552344019497601,-0.0586,-0.9983,0.0043,0.0031
