,TIME,ELAPSED_SECONDS,PSTATE,acc_x,acc_y,acc_z,mag_x,mag_y,mag_z,gyr_x,gyr_y,gyr_z,lin_x,lin_y,lin_z,eul_x,eul_y,eul_z,qua_w,qua_x,qua_y,qua_z
0,1117351.0,592.706359,1.0,7.18,-0.36,6.65,-29.19,-18.25,7.06,-0.31,0.75,0.25,-0.08873491874371109,0.02356498097253024,0.01399607954169646,-41.67270371214475,20.762818905741057,-114.70384241769943,-0.3632,-0.3557,0.1802,-0.8420000000000001
1,1117351.0,592.706359,1.0,7.18,-0.36,6.65,-29.19,-18.25,7.06,-0.31,0.75,0.25,-0.08873491874371109,0.02356498097253024,0.01399607954169646,-41.67270371214475,20.762818905741057,-114.70384241769943,-0.3632,-0.3557,0.1802,-0.8420000000000001
2,1117388.0,592.8388480000001,1.0,7.12,-0.32,6.55,-29.19,-18.25,7.06,1.0,-0.06,0.5,-0.13719588581060904,0.023603992545565555,0.1278112194203498,-41.67270371214475,20.762818905741057,-114.72508670230465,-0.3631,-0.3557,0.1802,-0.8421
3,1117388.0,592.8388480000001,1.0,7.12,-0.32,6.55,-29.19,-18.25,7.06,1.0,-0.06,0.5,-0.13719588581060904,0.023603992545565555,0.1278112194203498,-41.67270371214475,20.762818905741057,-114.72508670230465,-0.3631,-0.3557,0.1802,-0.8421
4,1117423.0,592.841813,1.0,7.1,-0.35,6.53,-28.0,-18.69,5.88,-0.19,0.19,-0.19,-0.11341019421977686,0.0013476646208474552,0.1546794078542142,-41.68496498644351,20.751169149926106,-114.74633713830113,-0.363,-0.3558,0.1801,-0.8422
5,1117423.0,592.841813,1.0,7.1,-0.35,6.53,-28.0,-18.69,5.88,-0.19,0.19,-0.19,-0.11341019421977686,0.0013476646208474552,0.1546794078542142,-41.68496498644351,20.751169149926106,-114.74633713830113,-0.363,-0.3558,0.1801,-0.8422
6,1117460.0,592.847613,1.0,7.12,-0.37,6.61,-29.19,-17.87,7.88,0.37,0.37,-1.0,-0.06871495267455596,0.020485395343421642,0.08459987649947642,-41.68496498644351,20.73951961095484,-114.72508670230465,-0.3632,-0.3558,0.18,-0.8421
7,1117460.0,592.847613,1.0,7.12,-0.37,6.61,-29.19,-17.87,7.88,0.37,0.37,-1.0,-0.06871495267455596,0.020485395343421642,0.08459987649947642,-41.68496498644351,20.73951961095484,-114.72508670230465,-0.3632,-0.3558,0.18,-0.8421
8,1117495.0,592.895213,1.0,7.12,-0.33,6.64,-29.19,-17.87,7.88,-0.81,0.25,-0.81,-0.08183037054302901,0.06077713751228786,0.06588463325326899,-41.68496498644351,20.727870288694774,-114.70384241769943,-0.3635,-0.3558,0.1799,-0.8420000000000001
9,1117495.0,592.895213,1.0,7.12,-0.33,6.64,-29.19,-17.87,7.88,-0.81,0.25,-0.81,-0.08183037054302901,0.06077713751228786,0.06588463325326899,-41.68496498644351,20.727870288694774,-114.70384241769943,-0.3635,-0.3558,0.1799,-0.8420000000000001
10,1117530.0,592.916339,1.0,7.13,-0.35,6.53,-28.0,-17.87,5.88,0.75,0.31,-0.19,-0.12359768670572392,-0.023207355499889504,0.13274256657415862,-41.67270371214475,20.70457229377833,-114.70384241769943,-0.3635,-0.3557,0.1797,-0.8420000000000001
11,1117530.0,592.916339,1.0,7.13,-0.35,6.53,-28.0,-17.87,5.88,0.75,0.31,-0.19,-0.12359768670572392,-0.023207355499889504,0.13274256657415862,-41.67270371214475,20.70457229377833,-114.70384241769943,-0.3635,-0.3557,0.1797,-0.8420000000000001
12,1117564.0,592.9205410000001,1.0,7.11,-0.37,6.67,-28.75,-18.69,5.88,1.5,0.19,0.56,-0.03115967909904238,0.04847229110429674,0.05090402588845855,-41.68496498644351,20.669626923426364,-114.72508670230465,-0.3633,-0.3558,0.1794,-0.8421
13,1117564.0,592.9205410000001,1.0,7.11,-0.37,6.67,-28.75,-18.69,5.88,1.5,0.19,0.56,-0.03115967909904238,0.04847229110429674,0.05090402588845855,-41.68496498644351,20.669626923426364,-114.72508670230465,-0.3633,-0.3558,0.1794,-0.8421
14,1117601.0,592.961609,1.0,7.13,-0.4,6.75,-28.75,-18.69,6.25,-0.12,0.06,0.37,0.0218840213079986,0.06360845010662275,-0.01958402197843156,-41.709489033737505,20.657978898652157,-114.74633713830113,-0.3632,-0.35600000000000004,0.1793,-0.8422
15,1117601.0,592.961609,1.0,7.13,-0.4,6.75,-28.75,-18.69,6.25,-0.12,0.06,0.37,0.0218840213079986,0.06360845010662275,-0.01958402197843156,-41.709489033737505,20.657978898652157,-114.74633713830113,-0.3632,-0.35600000000000004,0.1793,-0.8422
16,1117636.0,592.978163,1.0,7.14,-0.32,6.56,-28.75,-18.69,6.25,-2.13,0.31,0.25,-0.13633898227650942,0.012681164760825814,0.10629686880048972,-41.68496498644351,20.716221183013424,-114.70384241769943,-0.3633,-0.3558,0.1798,-0.8420000000000001
17,1117636.0,592.978163,1.0,7.14,-0.32,6.56,-28.75,-18.69,6.25,-2.13,0.31,0.25,-0.13633898227650942,0.012681164760825814,0.10629686880048972,-41.68496498644351,20.716221183013424,-114.70384241769943,-0.3633,-0.3558,0.1798,-0.8420000000000001
18,1117673.0,592.980989,1.0,7.1,-0.41,6.53,-29.19,-18.25,5.5,1.5,-0.37,1.12,-0.06589249414951381,-0.04613335256212436,0.15198636562121592,-41.68496498644351,20.70457229377833,-114.74633713830113,-0.3631,-0.3558,0.1797,-0.8422
19,1117673.0,592.980989,1.0,7.1,-0.41,6.53,-29.19,-18.25,5.5,1.5,-0.37,1.12,-0.06589249414951381,-0.04613335256212436,0.15198636562121592,-41.68496498644351,20.70457229377833,-114.74633713830113,-0.3631,-0.3558,0.1797,-0.8422
20,1117710.0,593.019325,1.0,7.13,-0.31,6.69,-29.19,-17.87,5.88,-1.12,0.69,0.5,-0.08580262629455238,0.10016039912021936,0.02545856931175905,-41.66044293714295,20.73951961095484,-114.76759373176695,-0.363,-0.3556,0.18,-0.8423
21,1117710.0,593.019325,1.0,7.13,-0.31,6.69,-29.19,-17.87,5.88,-1.12,0.69,0.5,-0.08580262629455238,0.10016039912021936,0.02545856931175905,-41.66044293714295,20.73951961095484,-114.76759373176695,-0.363,-0.3556,0.18,-0.8423
22,1117745.0,593.154575,1.0,7.09,-0.41,6.63,-29.19,-17.87,5.88,1.25,-0.37,0.12,-0.01790813405098468,0.016778404786490286,0.09106984316594337,-41.67270371214475,20.716221183013424,-114.76759373176695,-0.3629,-0.3557,0.1798,-0.8423
23,1117745.0,593.154575,1.0,7.09,-0.41,6.63,-29.19,-17.87,5.88,1.25,-0.37,0.12,-0.01790813405098468,0.016778404786490286,0.09106984316594337,-41.67270371214475,20.716221183013424,-114.76759373176695,-0.3629,-0.3557,0.1798,-0.8423
24,1117779.0,593.218483,1.0,7.14,-0.39,6.58,-29.19,-17.5,5.88,-2.88,0.56,0.0,-0.08464514008145596,-0.018890941678257,0.08962482083209444,-41.64818266123672,20.751169149926106,-114.74633713830113,-0.363,-0.3555,0.1801,-0.8422
25,1117779.0,593.218483,1.0,7.14,-0.39,6.58,-29.19,-17.5,5.88,-2.88,0.56,0.0,-0.08464514008145596,-0.018890941678257,0.08962482083209444,-41.64818266123672,20.751169149926106,-114.74633713830113,-0.363,-0.3555,0.1801,-0.8422
26,1117814.0,593.317078,1.0,7.11,-0.3,6.63,-28.75,-17.87,6.25,0.5,-0.06,0.5,-0.11366817329459113,0.08504741434939955,0.08148437242879858,-41.64818266123672,20.762818905741057,-114.74633713830113,-0.3631,-0.3555,0.1802,-0.8422
27,1117814.0,593.317078,1.0,7.11,-0.3,6.63,-28.75,-17.87,6.25,0.5,-0.06,0.5,-0.11366817329459113,0.08504741434939955,0.08148437242879858,-41.64818266123672,20.762818905741057,-114.74633713830113,-0.3631,-0.3555,0.1802,-0.8422
28,1117851.0,593.4055400000001,1.0,7.08,-0.41,6.71,-28.37,-17.87,5.5,-0.5,-0.63,0.5,0.02331263072004519,0.07109780348824968,0.04381221462283591,-41.67270371214475,20.751169149926106,-114.74633713830113,-0.363,-0.3557,0.1801,-0.8422
29,1117851.0,593.4055400000001,1.0,7.08,-0.41,6.71,-28.37,-17.87,5.5,-0.5,-0.63,0.5,0.02331263072004519,0.07109780348824968,0.04381221462283591,-41.67270371214475,20.751169149926106,-114.74633713830113,-0.363,-0.3557,0.1801,-0.8422
30,1117886.0,593.498949,1.0,7.15,-0.33,6.54,-28.37,-17.87,5.5,-1.06,1.06,-0.25,-0.15725619437403826,-0.0038765940505058882,0.11241173898384282,-41.62366360590611,20.786119068432164,-114.74633713830113,-0.3632,-0.3553,0.1804,-0.8422
31,1117886.0,593.498949,1.0,7.15,-0.33,6.54,-28.37,-17.87,5.5,-1.06,1.06,-0.25,-0.15725619437403826,-0.0038765940505058882,0.11241173898384282,-41.62366360590611,20.786119068432164,-114.74633713830113,-0.3632,-0.3553,0.1804,-0.8422
32,1117923.0,593.583036,1.0,7.16,-0.41,6.49,-28.75,-17.87,6.25,0.63,-1.31,0.69,-0.12304741364283812,-0.08928652116231528,0.13552352729091233,-41.64818266123672,20.774468878532232,-114.74633713830113,-0.363,-0.3555,0.1803,-0.8422
33,1117923.0,593.583036,1.0,7.16,-0.41,6.49,-28.75,-17.87,6.25,0.63,-1.31,0.69,-0.12304741364283812,-0.08928652116231528,0.13552352729091233,-41.64818266123672,20.774468878532232,-114.74633713830113,-0.363,-0.3555,0.1803,-0.8422
34,1117958.0,593.589014,1.0,7.09,-0.3,6.71,-29.19,-17.87,6.25,-0.88,-0.88,1.06,-0.06816828045791667,0.15209856120800547,0.041691264131330286,-41.67270371214475,20.82107094211026,-114.74633713830113,-0.3627,-0.3557,0.1807,-0.8422
35,1117958.0,593.589014,1.0,7.09,-0.3,6.71,-29.19,-17.87,6.25,-0.88,-0.88,1.06,-0.06816828045791667,0.15209856120800547,0.041691264131330286,-41.67270371214475,20.82107094211026,-114.74633713830113,-0.3627,-0.3557,0.1807,-0.8422
36,1117995.0,593.601638,1.0,7.06,-0.46,6.68,-29.19,-17.87,6.25,2.81,-0.25,-0.69,0.054386497472030386,0.03801796904094879,0.07663475114644314,-41.68496498644351,20.786119068432164,-114.74633713830113,-0.3627,-0.3558,0.1804,-0.8422
37,1117995.0,593.601638,1.0,7.06,-0.46,6.68,-29.19,-17.87,6.25,2.81,-0.25,-0.69,0.054386497472030386,0.03801796904094879,0.07663475114644314,-41.68496498644351,20.786119068432164,-114.74633713830113,-0.3627,-0.3558,0.1804,-0.8422
38,1118027.0,593.605163,1.0,7.11,-0.49,6.59,-29.5,-18.25,7.06,-1.56,0.63,-1.56,0.013755699298737656,-0.06251685908069482,0.10014690037305483,-41.68496498644351,20.762818905741057,-114.72508670230465,-0.3631,-0.3558,0.1802,-0.8421
39,1118027.0,593.605163,1.0,7.11,-0.49,6.59,-29.5,-18.25,7.06,-1.56,0.63,-1.56,0.013755699298737656,-0.06251685908069482,0.10014690037305483,-41.68496498644351,20.762818905741057,-114.72508670230465,-0.3631,-0.3558,0.1802,-0.8421
40,1118064.0,593.646527,1.0,7.19,-0.31,6.57,-30.25,-17.87,5.5,0.81,-0.06,-0.19,-0.17507219507617255,0.010265203904183284,0.06363484286819697,-41.635922884224854,20.809420100088577,-114.70384241769943,-0.3634,-0.3554,0.1806,-0.8420000000000001
41,1118064.0,593.646527,1.0,7.19,-0.31,6.57,-30.25,-17.87,5.5,0.81,-0.06,-0.19,-0.17507219507617255,0.010265203904183284,0.06363484286819697,-41.635922884224854,20.809420100088577,-114.70384241769943,-0.3634,-0.3554,0.1806,-0.8420000000000001
42,1118099.0,593.662673,1.0,7.1,-0.44,6.71,-28.75,-17.87,6.69,0.81,-0.88,-0.25,0.04415471152543704,0.044139043290516884,0.027907641889344248,-41.721751807135746,20.751169149926106,-114.70384241769943,-0.3631,-0.3561,0.1801,-0.8420000000000001
43,1118099.0,593.662673,1.0,7.1,-0.44,6.71,-28.75,-17.87,6.69,0.81,-0.88,-0.25,0.04415471152543704,0.044139043290516884,0.027907641889344248,-41.721751807135746,20.751169149926106,-114.70384241769943,-0.3631,-0.3561,0.1801,-0.8420000000000001
44,1118136.0,593.6653719999999,1.0,7.14,-0.38,6.53,-28.75,-17.87,6.69,-2.25,0.81,-0.81,-0.1095097109990072,-0.036325235766093485,0.12410962567449603,-41.68496498644351,20.774468878532232,-114.70384241769943,-0.3633,-0.3558,0.1803,-0.8420000000000001
45,1118136.0,593.6653719999999,1.0,7.14,-0.38,6.53,-28.75,-17.87,6.69,-2.25,0.81,-0.81,-0.1095097109990072,-0.036325235766093485,0.12410962567449603,-41.68496498644351,20.774468878532232,-114.70384241769943,-0.3633,-0.3558,0.1803,-0.8420000000000001
46,1118171.0,593.673684,1.0,7.18,-0.3,6.49,-30.25,-17.5,6.69,-0.19,-0.63,0.88,-0.21014813203381846,-0.01910617234890255,0.12584565755092392,-41.67270371214475,20.82107094211026,-114.68260427841713,-0.3634,-0.3557,0.1807,-0.8419
47,1118171.0,593.673684,1.0,7.18,-0.3,6.49,-30.25,-17.5,6.69,-0.19,-0.63,0.88,-0.21014813203381846,-0.01910617234890255,0.12584565755092392,-41.67270371214475,20.82107094211026,-114.68260427841713,-0.3634,-0.3557,0.1807,-0.8419
48,1118205.0,593.7068,1.0,7.43,-0.48,6.34,-29.5,-18.25,5.06,1.37,-1.81,1.12,-0.2631097788817237,-0.33833576745942384,0.03694160349632547,-41.721751807135746,20.832722001771078,-114.68260427841713,-0.3631,-0.3561,0.1808,-0.8419
49,1118205.0,593.7068,1.0,7.43,-0.48,6.34,-29.5,-18.25,5.06,1.37,-1.81,1.12,-0.2631097788817237,-0.33833576745942384,0.03694160349632547,-41.721751807135746,20.832722001771078,-114.68260427841713,-0.3631,-0.3561,0.1808,-0.8419
50,1118240.0,593.722538,1.0,7.4,-0.47,6.36,-29.5,-18.25,5.06,-5.94,-21.44,4.38,-0.20265376863032647,-0.22242500078302,0.042431722580827724,-42.151265384526,21.13572637929078,-114.36476553066456,-0.3616,-0.3596,0.1834,-0.8404
51,1118240.0,593.722538,1.0,7.4,-0.47,6.36,-29.5,-18.25,5.06,-5.94,-21.44,4.38,-0.20265376863032647,-0.22242500078302,0.042431722580827724,-42.151265384526,21.13572637929078,-114.36476553066456,-0.3616,-0.3596,0.1834,-0.8404
52,1118275.0,593.761972,1.0,6.75,-0.11,6.97,-28.75,-18.69,7.06,0.56,-9.13,2.25,0.1679629856993946,0.7461413581262537,0.13346223643785216,-42.51991407307619,21.403893300909647,-114.11147553645674,-0.3604,-0.3626,0.1857,-0.8392
53,1118275.0,593.761972,1.0,6.75,-0.11,6.97,-28.75,-18.69,7.06,0.56,-9.13,2.25,0.1679629856993946,0.7461413581262537,0.13346223643785216,-42.51991407307619,21.403893300909647,-114.11147553645674,-0.3604,-0.3626,0.1857,-0.8392
54,1118312.0,593.831078,1.0,7.32,-0.56,6.36,-28.0,-17.19,6.69,2.69,7.44,-3.88,-0.0642380780609565,-0.2113429807368292,0.09599566500174994,-42.421562810614134,21.20567161915569,-114.21690781898718,-0.3608,-0.3618,0.184,-0.8397
55,1118312.0,593.831078,1.0,7.32,-0.56,6.36,-28.0,-17.19,6.69,2.69,7.44,-3.88,-0.0642380780609565,-0.2113429807368292,0.09599566500174994,-42.421562810614134,21.20567161915569,-114.21690781898718,-0.3608,-0.3618,0.184,-0.8397
56,1118347.0,593.833754,1.0,7.3,-0.41,6.42,-28.0,-17.19,6.69,-1.94,-0.63,-1.06,-0.13889106718590782,-0.07968091905365537,0.07788542156586509,-42.37239946677662,21.170698001897183,-114.21690781898718,-0.3615,-0.3614,0.1837,-0.8397
57,1118347.0,593.833754,1.0,7.3,-0.41,6.42,-28.0,-17.19,6.69,-1.94,-0.63,-1.06,-0.13889106718590782,-0.07968091905365537,0.07788542156586509,-42.37239946677662,21.170698001897183,-114.21690781898718,-0.3615,-0.3614,0.1837,-0.8397
58,1118382.0,593.8691570000001,1.0,7.18,-0.28,6.4,-28.75,-18.69,5.88,0.0,-1.94,-0.37,-0.17689639663300338,0.06556488645544167,0.1860882227168048,-42.446147551916006,21.22898847391229,-114.11147553645674,-0.3617,-0.36200000000000004,0.1842,-0.8392
59,1118382.0,593.8691570000001,1.0,7.18,-0.28,6.4,-28.75,-18.69,5.88,0.0,-1.94,-0.37,-0.17689639663300338,0.06556488645544167,0.1860882227168048,-42.446147551916006,21.22898847391229,-114.11147553645674,-0.3617,-0.36200000000000004,0.1842,-0.8392
60,1118416.0,593.885073,1.0,7.19,-0.4,6.6,-27.69,-17.5,6.25,1.81,0.25,-0.81,0.008888271752474086,0.08978086123293605,0.038950148162744114,-42.47073434166396,21.182355652510953,-114.09040704091221,-0.3617,-0.3622,0.1838,-0.8391
61,1118416.0,593.885073,1.0,7.19,-0.4,6.6,-27.69,-17.5,6.25,1.81,0.25,-0.81,0.008888271752474086,0.08978086123293605,0.038950148162744114,-42.47073434166396,21.182355652510953,-114.09040704091221,-0.3617,-0.3622,0.1838,-0.8391
62,1118451.0,593.887907,1.0,7.26,-0.41,6.48,-28.0,-18.25,6.69,-0.5,2.19,-1.31,-0.07700167142476311,-0.03311751932322005,0.06708769091691913,-42.421562810614134,21.12406961438943,-114.13255001123673,-0.3621,-0.3618,0.1833,-0.8393
63,1118451.0,593.887907,1.0,7.26,-0.41,6.48,-28.0,-18.25,6.69,-0.5,2.19,-1.31,-0.07700167142476311,-0.03311751932322005,0.06708769091691913,-42.421562810614134,21.12406961438943,-114.13255001123673,-0.3621,-0.3618,0.1833,-0.8393
64,1118486.0,593.890932,1.0,7.16,-0.37,6.5,-28.0,-18.25,6.69,-0.25,0.75,-0.25,-0.052426962157709145,0.04853036402432465,0.12949152153089116,-42.396980116115046,21.112413070583106,-114.15363047105913,-0.3622,-0.3616,0.1832,-0.8394
65,1118486.0,593.890932,1.0,7.16,-0.37,6.5,-28.0,-18.25,6.69,-0.25,0.75,-0.25,-0.052426962157709145,0.04853036402432465,0.12949152153089116,-42.396980116115046,21.112413070583106,-114.15363047105913,-0.3622,-0.3616,0.1832,-0.8394
66,1118523.0,593.931911,1.0,7.24,-0.36,6.42,-28.37,-17.5,6.25,0.94,3.5,-0.44,-0.1442009553802477,-0.03958258354732358,0.12464404547037587,-42.32324429701836,21.07744476440248,-114.19580936910464,-0.3624,-0.361,0.1829,-0.8396
67,1118523.0,593.931911,1.0,7.24,-0.36,6.42,-28.37,-17.5,6.25,0.94,3.5,-0.44,-0.1442009553802477,-0.03958258354732358,0.12464404547037587,-42.32324429701836,21.07744476440248,-114.19580936910464,-0.3624,-0.361,0.1829,-0.8396
68,1118556.0,593.949519,1.0,7.23,-0.43,6.52,-28.37,-17.87,6.69,1.25,3.0,-0.19,-0.047940586634594884,-0.04196540032908946,0.061695376948726725,-42.24952684009253,20.995859763455265,-114.28023924222178,-0.3624,-0.3604,0.1822,-0.84
69,1118556.0,593.949519,1.0,7.23,-0.43,6.52,-28.37,-17.87,6.69,1.25,3.0,-0.19,-0.047940586634594884,-0.04196540032908946,0.061695376948726725,-42.24952684009253,20.995859763455265,-114.28023924222178,-0.3624,-0.3604,0.1822,-0.84
70,1118590.0,594.004783,1.0,7.2,-0.39,6.47,-28.37,-17.87,6.69,0.12,1.12,0.12,-0.08874359654865749,-0.03578886222244648,0.1193467771514225,-42.22495842729175,20.9608980601766,-114.30136176070127,-0.3624,-0.3602,0.1819,-0.8401
71,1118590.0,594.004783,1.0,7.2,-0.39,6.47,-28.37,-17.87,6.69,0.12,1.12,0.12,-0.08874359654865749,-0.03578886222244648,0.1193467771514225,-42.22495842729175,20.9608980601766,-114.30136176070127,-0.3624,-0.3602,0.1819,-0.8401
72,1118625.0,594.007657,1.0,7.22,-0.3,6.48,-28.75,-17.87,6.25,-0.25,1.56,0.37,-0.1653999140217024,0.015567031549644115,0.1019500800658264,-42.18810962075827,20.94924459772563,-114.34362489902875,-0.3625,-0.3599,0.1818,-0.8403
73,1118625.0,594.007657,1.0,7.22,-0.3,6.48,-28.75,-17.87,6.25,-0.25,1.56,0.37,-0.1653999140217024,0.015567031549644115,0.1019500800658264,-42.18810962075827,20.94924459772563,-114.34362489902875,-0.3625,-0.3599,0.1818,-0.8403
74,1118662.0,594.044646,1.0,7.18,-0.41,6.56,-29.19,-17.87,6.25,1.63,1.19,0.63,-0.030865635787132306,-0.004448514417667582,0.07252818428149332,-42.151265384526,20.890980569305803,-114.4070649484192,-0.3624,-0.3596,0.1813,-0.8406
75,1118662.0,594.044646,1.0,7.18,-0.41,6.56,-29.19,-17.87,6.25,1.63,1.19,0.63,-0.030865635787132306,-0.004448514417667582,0.07252818428149332,-42.151265384526,20.890980569305803,-114.4070649484192,-0.3624,-0.3596,0.1813,-0.8406
76,1118697.0,594.051714,1.0,7.17,-0.37,6.6,-29.19,-17.87,6.25,0.31,0.81,0.31,-0.03835831834248238,0.04889014130614333,0.054627728004463805,-42.138984987118995,20.879328419459103,-114.4070649484192,-0.3622,-0.3595,0.1812,-0.8406
77,1118697.0,594.051714,1.0,7.17,-0.37,6.6,-29.19,-17.87,6.25,0.31,0.81,0.31,-0.03835831834248238,0.04889014130614333,0.054627728004463805,-42.138984987118995,20.879328419459103,-114.4070649484192,-0.3622,-0.3595,0.1812,-0.8406
78,1118732.0,594.0679650000001,1.0,7.19,-0.39,6.45,-29.19,-17.5,7.06,-0.25,1.56,-0.06,-0.1099098618978236,-0.06705434705336377,0.1405171881253935,-42.08986846540722,20.856024774540764,-114.44938861164486,-0.3624,-0.3591,0.18100000000000002,-0.8408
79,1118732.0,594.0679650000001,1.0,7.19,-0.39,6.45,-29.19,-17.5,7.06,-0.25,1.56,-0.06,-0.1099098618978236,-0.06705434705336377,0.1405171881253935,-42.08986846540722,20.856024774540764,-114.44938861164486,-0.3624,-0.3591,0.18100000000000002,-0.8408
80,1118765.0,594.0707,1.0,7.21,-0.38,6.59,-28.75,-17.5,6.25,0.69,0.94,0.69,-0.06364209387012043,0.004788984229430415,0.03155272429384581,-42.065313242449655,20.832722001771078,-114.4705595501544,-0.3623,-0.3589,0.1808,-0.8409
81,1118765.0,594.0707,1.0,7.21,-0.38,6.59,-28.75,-17.5,6.25,0.69,0.94,0.69,-0.06364209387012043,0.004788984229430415,0.03155272429384581,-42.065313242449655,20.832722001771078,-114.4705595501544,-0.3623,-0.3589,0.1808,-0.8409
82,1118801.0,594.073501,1.0,7.15,-0.34,6.61,-30.25,-17.5,5.5,-0.25,0.5,1.0,-0.05973009217830572,0.07408853010313088,0.06390176319353635,-42.053036389733045,20.84437327920369,-114.51291967073887,-0.36200000000000004,-0.3588,0.1809,-0.8411
83,1118801.0,594.073501,1.0,7.15,-0.34,6.61,-30.25,-17.5,5.5,-0.25,0.5,1.0,-0.05973009217830572,0.07408853010313088,0.06390176319353635,-42.053036389733045,20.84437327920369,-114.51291967073887,-0.36200000000000004,-0.3588,0.1809,-0.8411
84,1118836.0,594.1136190000001,1.0,7.18,-0.36,6.53,-30.25,-17.5,5.5,-0.06,1.06,0.75,-0.10219508970307267,0.0017187794344606375,0.09519010926071836,-42.028484200807156,20.856024774540764,-114.5341088647508,-0.3619,-0.3586,0.18100000000000002,-0.8412
85,1118836.0,594.1136190000001,1.0,7.18,-0.36,6.53,-30.25,-17.5,5.5,-0.06,1.06,0.75,-0.10219508970307267,0.0017187794344606375,0.09519010926071836,-42.028484200807156,20.856024774540764,-114.5341088647508,-0.3619,-0.3586,0.18100000000000002,-0.8412
86,1118873.0,594.1310980000001,1.0,7.18,-0.42,6.48,-28.75,-17.19,6.69,0.44,0.25,0.44,-0.08417909900353338,-0.06914417040547449,0.12639520154609052,-42.01620886419129,20.84437327920369,-114.57650555012708,-0.3618,-0.3585,0.1809,-0.8414
87,1118873.0,594.1310980000001,1.0,7.18,-0.42,6.48,-28.75,-17.19,6.69,0.44,0.25,0.44,-0.08417909900353338,-0.06914417040547449,0.12639520154609052,-42.01620886419129,20.84437327920369,-114.57650555012708,-0.3618,-0.3585,0.1809,-0.8414
88,1118908.0,594.215148,1.0,7.17,-0.34,6.64,-28.75,-18.25,6.25,-1.31,-0.06,0.63,-0.06562357974615672,0.08352253551928235,0.028980669743338794,-42.00393403253583,20.879328419459103,-114.55530415588284,-0.3619,-0.3584,0.1812,-0.8413
89,1118908.0,594.215148,1.0,7.17,-0.34,6.64,-28.75,-18.25,6.25,-1.31,-0.06,0.63,-0.06562357974615672,0.08352253551928235,0.028980669743338794,-42.00393403253583,20.879328419459103,-114.55530415588284,-0.3619,-0.3584,0.1812,-0.8413
90,1118941.0,594.3435820000001,1.0,7.19,-0.4,6.53,-28.75,-18.25,6.25,1.12,-0.31,0.25,-0.07978855727400347,-0.03102524552629426,0.08607022200999738,-42.01620886419129,20.856024774540764,-114.55530415588284,-0.3619,-0.3585,0.18100000000000002,-0.8413
91,1118941.0,594.3435820000001,1.0,7.19,-0.4,6.53,-28.75,-18.25,6.25,1.12,-0.31,0.25,-0.07978855727400347,-0.03102524552629426,0.08607022200999738,-42.01620886419129,20.856024774540764,-114.55530415588284,-0.3619,-0.3585,0.18100000000000002,-0.8413
92,1118976.0,594.405026,1.0,7.38,-0.51,6.24,-28.37,-17.87,5.5,0.19,-1.81,0.06,-0.22238742825330726,-0.3548051951493325,0.137794995127404,-42.053036389733045,20.867676487915002,-114.5341088647508,-0.3618,-0.3588,0.1811,-0.8412
93,1118976.0,594.405026,1.0,7.38,-0.51,6.24,-28.37,-17.87,5.5,0.19,-1.81,0.06,-0.22238742825330726,-0.3548051951493325,0.137794995127404,-42.053036389733045,20.867676487915002,-114.5341088647508,-0.3618,-0.3588,0.1811,-0.8412
94,1119012.0,594.449446,1.0,7.6,-0.4,6.24,-29.5,-18.69,5.88,-3.69,-12.75,3.69,-0.3853195556746773,-0.3253760706515105,-0.02204570455114485,-42.31095678024124,21.12406961438943,-114.30136176070127,-0.361,-0.3609,0.1833,-0.8401
95,1119012.0,594.449446,1.0,7.6,-0.4,6.24,-29.5,-18.69,5.88,-3.69,-12.75,3.69,-0.3853195556746773,-0.3253760706515105,-0.02204570455114485,-42.31095678024124,21.12406961438943,-114.30136176070127,-0.361,-0.3609,0.1833,-0.8401
96,1119047.0,594.502016,1.0,8.03,-0.41,6.03,-29.5,-18.69,5.88,0.56,-23.12,6.25,-0.637387480876348,-0.5637436924726773,-0.20763131462359752,-42.778242722959625,21.42721774773248,-114.02723737175656,-0.359,-0.3647,0.1859,-0.8388
97,1119047.0,594.502016,1.0,8.03,-0.41,6.03,-29.5,-18.69,5.88,0.56,-23.12,6.25,-0.637387480876348,-0.5637436924726773,-0.20763131462359752,-42.778242722959625,21.42721774773248,-114.02723737175656,-0.359,-0.3647,0.1859,-0.8388
98,1119082.0,594.526349,1.0,7.51,0.05,6.31,-28.0,-17.5,7.5,-1.06,-33.25,3.75,-0.4831551032197686,0.3423822374071901,0.015427627398059585,-43.8262109221212,22.09234622296079,-113.29417835148298,-0.3554,-0.3732,0.1916,-0.8353
99,1119082.0,594.526349,1.0,7.51,0.05,6.31,-28.0,-17.5,7.5,-1.06,-33.25,3.75,-0.4831551032197686,0.3423822374071901,0.015427627398059585,-43.8262109221212,22.09234622296079,-113.29417835148298,-0.3554,-0.3732,0.1916,-0.8353
100,1119117.0,594.564737,1.0,8.61,0.56,5.57,-28.0,-17.5,7.06,-0.69,-20.19,-7.31,-1.6000913913235115,-0.14533360851297528,-0.33678066628096026,-44.71692355018706,22.302542365509357,-112.54753437473772,-0.3551,-0.3804,0.1934,-0.8317
101,1119117.0,594.564737,1.0,8.61,0.56,5.57,-28.0,-17.5,7.06,-0.69,-20.19,-7.31,-1.6000913913235115,-0.14533360851297528,-0.33678066628096026,-44.71692355018706,22.302542365509357,-112.54753437473772,-0.3551,-0.3804,0.1934,-0.8317
102,1119154.0,594.58128,1.0,7.81,-0.28,6.04,-27.25,-17.5,6.25,22.75,-49.88,2.69,-0.1709880587365531,0.0010131627233420648,-0.06891894853511182,-46.13309422581874,21.952257310852513,-112.01279388618185,-0.3505,-0.3918,0.1904,-0.8291
103,1119154.0,594.58128,1.0,7.81,-0.28,6.04,-27.25,-17.5,6.25,22.75,-49.88,2.69,-0.1709880587365531,0.0010131627233420648,-0.06891894853511182,-46.13309422581874,21.952257310852513,-112.01279388618185,-0.3505,-0.3918,0.1904,-0.8291
104,1119188.0,594.584161,1.0,8.3,0.15,5.97,-27.25,-17.5,6.25,14.19,-44.56,6.88,-0.5090934831854478,0.26668827282846874,-0.40232160298302944,-47.88253794953186,22.290862814695288,-111.0351722213916,-0.3441,-0.4058,0.1933,-0.8243
105,1119188.0,594.584161,1.0,8.3,0.15,5.97,-27.25,-17.5,6.25,14.19,-44.56,6.88,-0.5090934831854478,0.26668827282846874,-0.40232160298302944,-47.88253794953186,22.290862814695288,-111.0351722213916,-0.3441,-0.4058,0.1933,-0.8243
106,1119225.0,594.6216929999999,1.0,9.98,1.18,4.46,-28.0,-18.69,7.5,-19.0,-30.69,-34.69,-2.618020338154329,-0.5589341033424022,-0.8572124417764844,-48.799442594654714,22.431032941974188,-110.04955295767435,-0.3466,-0.4131,0.1945,-0.8194
107,1119225.0,594.6216929999999,1.0,9.98,1.18,4.46,-28.0,-18.69,7.5,-19.0,-30.69,-34.69,-2.618020338154329,-0.5589341033424022,-0.8572124417764844,-48.799442594654714,22.431032941974188,-110.04955295767435,-0.3466,-0.4131,0.1945,-0.8194
108,1119260.0,594.628977,1.0,10.45,2.64,4.75,-25.75,-18.25,5.06,-47.88,-53.25,-92.25,-3.242995931812726,0.30066943297881155,-1.5126775099856662,-50.51663080170575,23.12070182440919,-106.20292801228649,-0.3718,-0.4267,0.2004,-0.7997
109,1119260.0,594.628977,1.0,10.45,2.64,4.75,-25.75,-18.25,5.06,-47.88,-53.25,-92.25,-3.242995931812726,0.30066943297881155,-1.5126775099856662,-50.51663080170575,23.12070182440919,-106.20292801228649,-0.3718,-0.4267,0.2004,-0.7997
110,1119295.0,594.645903,1.0,10.97,4.91,5.23,-25.75,-18.25,5.06,-41.06,-69.19,-105.44,-4.4079848939099255,1.6590335184984928,-2.4252417980646133,-52.412024132935976,23.38978453262475,-102.46623177403809,-0.395,-0.4416,0.2027,-0.7797
111,1119295.0,594.645903,1.0,10.97,4.91,5.23,-25.75,-18.25,5.06,-41.06,-69.19,-105.44,-4.4079848939099255,1.6590335184984928,-2.4252417980646133,-52.412024132935976,23.38978453262475,-102.46623177403809,-0.395,-0.4416,0.2027,-0.7797
112,1119330.0,594.648979,1.0,11.71,6.92,5.12,-25.0,-21.69,2.69,6.0,-80.44,-90.81,-5.4308934630900465,2.404902784114296,-3.4578416522091096,-55.78316856909328,23.190884791431422,-97.94594136084784,-0.4143,-0.4678,0.201,-0.7544
113,1119330.0,594.648979,1.0,11.71,6.92,5.12,-25.0,-21.69,2.69,6.0,-80.44,-90.81,-5.4308934630900465,2.404902784114296,-3.4578416522091096,-55.78316856909328,23.190884791431422,-97.94594136084784,-0.4143,-0.4678,0.201,-0.7544
114,1119367.0,594.689456,1.0,11.44,6.63,5.8,-20.0,-24.37,-0.06,116.69,-120.56,-90.94,-3.545525054038544,3.0377052714790453,-3.856149814635844,-60.52998522199608,21.065789103644565,-94.74971670141693,-0.4138,-0.504,0.1828,-0.7358
115,1119367.0,594.689456,1.0,11.44,6.63,5.8,-20.0,-24.37,-0.06,116.69,-120.56,-90.94,-3.545525054038544,3.0377052714790453,-3.856149814635844,-60.52998522199608,21.065789103644565,-94.74971670141693,-0.4138,-0.504,0.1828,-0.7358
116,1119404.0,594.693712,1.0,10.53,7.17,6.28,-18.25,-29.19,-0.88,221.38,-133.13,-57.5,-1.4840321811721455,4.7084528479461465,-3.510869298424657,-68.73515523864087,17.068431181009654,-90.99175237676184,-0.3882,-0.5645,0.1484,-0.7132
117,1119404.0,594.693712,1.0,10.53,7.17,6.28,-18.25,-29.19,-0.88,221.38,-133.13,-57.5,-1.4840321811721455,4.7084528479461465,-3.510869298424657,-68.73515523864087,17.068431181009654,-90.99175237676184,-0.3882,-0.5645,0.1484,-0.7132
118,1119438.0,594.769964,1.0,10.36,6.19,6.3,-18.25,-29.19,-0.88,189.31,-128.13,-119.56,1.580268322435657,4.149540869796739,-3.062684194082957,-77.2029916928957,11.063807546045703,-86.01592640293836,-0.369,-0.6239,0.0964,-0.6821
119,1119438.0,594.769964,1.0,10.36,6.19,6.3,-18.25,-29.19,-0.88,189.31,-128.13,-119.56,1.580268322435657,4.149540869796739,-3.062684194082957,-77.2029916928957,11.063807546045703,-86.01592640293836,-0.369,-0.6239,0.0964,-0.6821
120,1119475.0,594.812146,1.0,8.36,6.99,5.8,-15.88,-29.25,0.25,139.13,-62.69,-157.94,1.928497701342968,4.790297775487902,-1.4060055212434186,-81.67258932855316,6.294241112432486,-82.21897227441269,-0.3701,-0.6539,0.0549,-0.6575
121,1119475.0,594.812146,1.0,8.36,6.99,5.8,-15.88,-29.25,0.25,139.13,-62.69,-157.94,1.928497701342968,4.790297775487902,-1.4060055212434186,-81.67258932855316,6.294241112432486,-82.21897227441269,-0.3701,-0.6539,0.0549,-0.6575
122,1119512.0,594.872167,1.0,7.85,7.95,4.13,-11.25,-31.75,0.56,133.5,-31.56,-181.0,1.5052276489891152,3.970086428665708,-1.3223483140282273,-85.71854745258325,-0.7792286067117273,-77.83489260364539,-0.3777,-0.6802,-0.0068,-0.6282
123,1119512.0,594.872167,1.0,7.85,7.95,4.13,-11.25,-31.75,0.56,133.5,-31.56,-181.0,1.5052276489891152,3.970086428665708,-1.3223483140282273,-85.71854745258325,-0.7792286067117273,-77.83489260364539,-0.3777,-0.6802,-0.0068,-0.6282
124,1119547.0,594.884898,1.0,6.84,7.59,4.43,-11.25,-31.75,0.56,149.56,-27.69,-174.69,2.85214944971505,3.6979455367834086,-0.30319877846715393,-88.50152621211956,-6.615607303690656,-74.40012733902506,-0.3797,-0.6978,-0.0577,-0.6046
125,1119547.0,594.884898,1.0,6.84,7.59,4.43,-11.25,-31.75,0.56,149.56,-27.69,-174.69,2.85214944971505,3.6979455367834086,-0.30319877846715393,-88.50152621211956,-6.615607303690656,-74.40012733902506,-0.3797,-0.6978,-0.0577,-0.6046
126,1119582.0,595.003203,1.0,8.0,6.09,3.29,-5.5,-33.5,-1.5,157.69,31.31,-176.06,3.907094097502165,0.38083311231905226,-0.016882045747351526,-90.6326728543478,-15.609765091037287,-70.8870189593387,-0.3738,-0.711,-0.1358,-0.5799
127,1119582.0,595.003203,1.0,8.0,6.09,3.29,-5.5,-33.5,-1.5,157.69,31.31,-176.06,3.907094097502165,0.38083311231905226,-0.016882045747351526,-90.6326728543478,-15.609765091037287,-70.8870189593387,-0.3738,-0.711,-0.1358,-0.5799
128,1119617.0,595.008651,1.0,8.77,6.6,1.79,1.69,-36.06,-2.75,109.94,35.38,-166.56,3.2023952790626464,-1.199869006555773,-0.7755037904031692,-90.5512225500058,-21.57884859507936,-68.79069483955588,-0.3754,-0.7105,-0.1872,-0.5649
129,1119617.0,595.008651,1.0,8.77,6.6,1.79,1.69,-36.06,-2.75,109.94,35.38,-166.56,3.2023952790626464,-1.199869006555773,-0.7755037904031692,-90.5512225500058,-21.57884859507936,-68.79069483955588,-0.3754,-0.7105,-0.1872,-0.5649
130,1119653.0,595.018964,1.0,7.44,7.73,1.47,6.75,-35.19,-0.06,79.69,58.63,-187.81,2.9454608254308368,-0.8866513439598127,-0.5762932204990197,-88.91820974498009,-29.17994585204534,-66.26813997300863,-0.3836,-0.7004,-0.2519,-0.5466
131,1119653.0,595.018964,1.0,7.44,7.73,1.47,6.75,-35.19,-0.06,79.69,58.63,-187.81,2.9454608254308368,-0.8866513439598127,-0.5762932204990197,-88.91820974498009,-29.17994585204534,-66.26813997300863,-0.3836,-0.7004,-0.2519,-0.5466
132,1119688.0,595.058635,1.0,9.45,12.19,0.62,6.75,-35.19,-0.06,53.38,55.75,-161.75,2.937525907592618,-1.7878521292848382,-5.2418557831677735,-86.03159785221855,-36.16667598822457,-64.24077819073915,-0.3944,-0.6822,-0.3104,-0.5317
133,1119688.0,595.058635,1.0,9.45,12.19,0.62,6.75,-35.19,-0.06,53.38,55.75,-161.75,2.937525907592618,-1.7878521292848382,-5.2418557831677735,-86.03159785221855,-36.16667598822457,-64.24077819073915,-0.3944,-0.6822,-0.3104,-0.5317
134,1119725.0,595.112297,1.0,10.01,13.4,-0.63,12.25,-34.69,-2.56,180.19,33.25,-152.25,2.908760795562973,-2.96313169577469,-6.408033505628202,-85.67165837028584,-42.32324429701836,-61.367629313530685,-0.3836,-0.6799,-0.361,-0.5103
135,1119725.0,595.112297,1.0,10.01,13.4,-0.63,12.25,-34.69,-2.56,180.19,33.25,-152.25,2.908760795562973,-2.96313169577469,-6.408033505628202,-85.67165837028584,-42.32324429701836,-61.367629313530685,-0.3836,-0.6799,-0.361,-0.5103
136,1119762.0,595.119364,1.0,10.35,13.76,-1.31,16.06,-33.06,1.06,184.19,29.94,-169.44,3.964664659324153,-4.806836724751535,-6.29775793201309,-85.11036842223878,-51.36705403350072,-56.17247760648797,-0.3648,-0.6763,-0.4334,-0.4708
137,1119762.0,595.119364,1.0,10.35,13.76,-1.31,16.06,-33.06,1.06,184.19,29.94,-169.44,3.964664659324153,-4.806836724751535,-6.29775793201309,-85.11036842223878,-51.36705403350072,-56.17247760648797,-0.3648,-0.6763,-0.4334,-0.4708
138,1119797.0,595.13576,1.0,9.31,15.17,-1.1,16.06,-33.06,1.06,203.94,-29.37,-102.87,5.964033452188157,-4.3663669979526265,-6.422340856500317,-85.89062667972252,-57.47532863305489,-51.1001794642751,-0.3443,-0.6813,-0.4808,-0.4313
139,1119797.0,595.13576,1.0,9.31,15.17,-1.1,16.06,-33.06,1.06,203.94,-29.37,-102.87,5.964033452188157,-4.3663669979526265,-6.422340856500317,-85.89062667972252,-57.47532863305489,-51.1001794642751,-0.3443,-0.6813,-0.4808,-0.4313
140,1119832.0,595.138671,1.0,8.8,15.08,-0.66,20.56,-30.0,5.06,299.88,-42.63,-154.13,8.85199189461735,-5.317493531735735,-4.287621958408403,-87.76790692497644,-66.11767701122476,-42.01620886419129,-0.3057,-0.6932,-0.5455,-0.3585
141,1119832.0,595.138671,1.0,8.8,15.08,-0.66,20.56,-30.0,5.06,299.88,-42.63,-154.13,8.85199189461735,-5.317493531735735,-4.287621958408403,-87.76790692497644,-66.11767701122476,-42.01620886419129,-0.3057,-0.6932,-0.5455,-0.3585
142,1119866.0,595.177529,1.0,7.24,6.02,-1.04,23.5,-26.0,9.56,382.06,-79.19,-159.5,4.297982903887855,-6.415694603431227,4.319774230184252,-88.64559529672633,-74.37135736152693,-32.31753913524463,-0.2628,-0.6987,-0.6044,-0.2783
143,1119866.0,595.177529,1.0,7.24,6.02,-1.04,23.5,-26.0,9.56,382.06,-79.19,-159.5,4.297982903887855,-6.415694603431227,4.319774230184252,-88.64559529672633,-74.37135736152693,-32.31753913524463,-0.2628,-0.6987,-0.6044,-0.2783
144,1119903.0,595.239743,1.0,3.3,4.92,-0.78,29.5,-18.19,16.25,351.19,-106.5,-121.19,4.150782941842326,-3.006828651387876,6.735040905257683,-90.71418173754832,-81.29447844633472,-19.157145947707967,-0.2042,-0.7115,-0.6514,-0.1664
145,1119903.0,595.239743,1.0,3.3,4.92,-0.78,29.5,-18.19,16.25,351.19,-106.5,-121.19,4.150782941842326,-3.006828651387876,6.735040905257683,-90.71418173754832,-81.29447844633472,-19.157145947707967,-0.2042,-0.7115,-0.6514,-0.1664
146,1119938.0,595.248358,1.0,2.36,0.96,-1.09,29.5,-18.19,16.25,354.0,-100.81,-139.94,0.7038618862329553,-2.484895035661144,8.802072921396677,-89.67524692878357,-87.45034897247223,-6.225383461526625,-0.1486,-0.7051,-0.6912,-0.0543
147,1119938.0,595.248358,1.0,2.36,0.96,-1.09,29.5,-18.19,16.25,354.0,-100.81,-139.94,0.7038618862329553,-2.484895035661144,8.802072921396677,-89.67524692878357,-87.45034897247223,-6.225383461526625,-0.1486,-0.7051,-0.6912,-0.0543
148,1119975.0,595.304717,1.0,0.07,-1.84,-1.06,34.38,-7.69,19.75,311.5,-66.19,-92.37,-1.9528097971628016,-0.20995223561127707,8.996369829400466,-88.5335263030476,-90.16107125343979,2.4295230620087382,-0.1045,-0.698,-0.7081,0.0212
149,1119975.0,595.304717,1.0,0.07,-1.84,-1.06,34.38,-7.69,19.75,311.5,-66.19,-92.37,-1.9528097971628016,-0.20995223561127707,8.996369829400466,-88.5335263030476,-90.16107125343979,2.4295230620087382,-0.1045,-0.698,-0.7081,0.0212
150,1120012.0,595.36567,1.0,-0.91,-3.8,-2.46,36.75,3.69,19.75,253.5,-23.87,-92.19,-3.5595653921323454,0.5549725340001954,6.918536479786656,-86.20411602380804,-92.42314314089434,11.420757981123572,-0.0469,-0.6833,-0.7219,0.0995
151,1120012.0,595.36567,1.0,-0.91,-3.8,-2.46,36.75,3.69,19.75,253.5,-23.87,-92.19,-3.5595653921323454,0.5549725340001954,6.918536479786656,-86.20411602380804,-92.42314314089434,11.420757981123572,-0.0469,-0.6833,-0.7219,0.0995
152,1120047.0,595.382554,1.0,-1.39,-5.66,-2.93,36.75,3.69,19.75,178.06,11.88,-93.5,-4.883514384709034,1.1272167861850853,5.6313332968884255,-83.70265109878629,-94.07501482571972,15.956826751094518,-0.0088,-0.6672,-0.7318,0.1388
153,1120047.0,595.382554,1.0,-1.39,-5.66,-2.93,36.75,3.69,19.75,178.06,11.88,-93.5,-4.883514384709034,1.1272167861850853,5.6313332968884255,-83.70265109878629,-94.07501482571972,15.956826751094518,-0.0088,-0.6672,-0.7318,0.1388
154,1120081.0,595.385454,1.0,0.1,-6.16,-5.86,38.06,12.0,19.25,128.81,30.12,-63.0,-4.346146987253035,-0.6993052233869599,2.5322305338339826,-81.24917717727452,-95.44579560430292,19.110662839696182,0.0315,-0.6511,-0.7399,0.166
155,1120081.0,595.385454,1.0,0.1,-6.16,-5.86,38.06,12.0,19.25,128.81,30.12,-63.0,-4.346146987253035,-0.6993052233869599,2.5322305338339826,-81.24917717727452,-95.44579560430292,19.110662839696182,0.0315,-0.6511,-0.7399,0.166
156,1120116.0,595.424216,1.0,-0.26,-5.59,-5.31,38.0,17.56,18.5,109.12,-1.94,-29.81,-3.497464771553528,-0.28450730490792875,2.9365265829720317,-80.10660713578281,-95.58215802399698,21.462206102543455,0.0518,-0.6435,-0.7407,0.1862
157,1120116.0,595.424216,1.0,-0.26,-5.59,-5.31,38.0,17.56,18.5,109.12,-1.94,-29.81,-3.497464771553528,-0.28450730490792875,2.9365265829720317,-80.10660713578281,-95.58215802399698,21.462206102543455,0.0518,-0.6435,-0.7407,0.1862
158,1120153.0,595.512218,1.0,-0.51,-4.43,-5.76,37.5,20.69,17.56,61.0,0.44,-24.31,-1.83263357730606,-0.28013021129851395,2.762107343727114,-78.85480334917152,-95.59921590362794,23.881491803544503,0.0703,-0.6351,-0.7408,0.2069
159,1120153.0,595.512218,1.0,-0.51,-4.43,-5.76,37.5,20.69,17.56,61.0,0.44,-24.31,-1.83263357730606,-0.28013021129851395,2.762107343727114,-78.85480334917152,-95.59921590362794,23.881491803544503,0.0703,-0.6351,-0.7408,0.2069
160,1120188.0,595.5228900000001,1.0,0.14,-3.81,-7.2,37.5,20.69,17.56,37.31,-0.44,-27.37,-0.6343909551104636,-1.2687616711359886,1.783963920018417,-77.73183393976127,-96.09511993474894,24.97187636961762,0.0806,-0.6275,-0.7437,0.2162
161,1120188.0,595.5228900000001,1.0,0.14,-3.81,-7.2,37.5,20.69,17.56,37.31,-0.44,-27.37,-0.6343909551104636,-1.2687616711359886,1.783963920018417,-77.73183393976127,-96.09511993474894,24.97187636961762,0.0806,-0.6275,-0.7437,0.2162
162,1120225.0,595.570014,1.0,-1.16,-3.27,-6.86,36.25,23.0,17.06,63.06,-20.5,-13.69,0.18549731248779536,-0.09415214422903362,2.1219362043666923,-76.98321557761712,-96.02657774273015,26.535272907054928,0.0861,-0.6224,-0.7433,0.2295
163,1120225.0,595.570014,1.0,-1.16,-3.27,-6.86,36.25,23.0,17.06,63.06,-20.5,-13.69,0.18549731248779536,-0.09415214422903362,2.1219362043666923,-76.98321557761712,-96.02657774273015,26.535272907054928,0.0861,-0.6224,-0.7433,0.2295
164,1120262.0,595.577795,1.0,-1.52,-4.7,-7.01,37.06,23.87,16.25,89.19,-8.06,-23.87,-0.4614567072591593,0.2933595999219283,1.248525330864874,-75.6860165897593,-95.71869958125956,29.1444243172648,0.1024,-0.6135,-0.7415,0.2516
165,1120262.0,595.577795,1.0,-1.52,-4.7,-7.01,37.06,23.87,16.25,89.19,-8.06,-23.87,-0.4614567072591593,0.2933595999219283,1.248525330864874,-75.6860165897593,-95.71869958125956,29.1444243172648,0.1024,-0.6135,-0.7415,0.2516
166,1120296.0,595.5807599999999,1.0,-0.88,-6.27,-7.21,37.06,23.87,16.25,58.5,-9.0,-17.37,-1.5041687098146248,-0.2503667269632186,0.3332032674509442,-74.76021635401274,-95.46283114085506,30.91220422108664,0.1133,-0.6071,-0.74,0.2665
167,1120296.0,595.5807599999999,1.0,-0.88,-6.27,-7.21,37.06,23.87,16.25,58.5,-9.0,-17.37,-1.5041687098146248,-0.2503667269632186,0.3332032674509442,-74.76021635401274,-95.46283114085506,30.91220422108664,0.1133,-0.6071,-0.74,0.2665
168,1120329.0,595.630902,1.0,-1.12,-6.77,-6.75,36.56,26.25,13.38,70.81,-1.88,2.06,-1.669440265889155,0.04474118471579392,0.3271580608179097,-74.21322028612755,-94.51308235594236,32.98621503760272,0.1271,-0.6033,-0.7344,0.2839
169,1120329.0,595.630902,1.0,-1.12,-6.77,-6.75,36.56,26.25,13.38,70.81,-1.88,2.06,-1.669440265889155,0.04474118471579392,0.3271580608179097,-74.21322028612755,-94.51308235594236,32.98621503760272,0.1271,-0.6033,-0.7344,0.2839
170,1120366.0,595.639658,1.0,-0.93,-7.61,-6.33,36.56,28.0,12.56,64.81,14.69,8.75,-2.25381532950325,-0.04764840606269205,0.12347148827690367,-74.19885237818175,-93.20422442477208,34.62702088107143,0.1404,-0.6032,-0.7266,0.2976
171,1120366.0,595.639658,1.0,-0.93,-7.61,-6.33,36.56,28.0,12.56,64.81,14.69,8.75,-2.25381532950325,-0.04764840606269205,0.12347148827690367,-74.19885237818175,-93.20422442477208,34.62702088107143,0.1404,-0.6032,-0.7266,0.2976
172,1120403.0,595.727139,1.0,-1.16,-7.44,-6.54,36.56,29.37,11.0,26.87,21.0,-11.44,-1.6983855799043903,0.16853546961416474,-0.019737037841263568,-73.96915070870061,-92.70501720124949,35.119475421316324,0.1533,-0.6016,-0.7236,0.3017
173,1120403.0,595.727139,1.0,-1.16,-7.44,-6.54,36.56,29.37,11.0,26.87,21.0,-11.44,-1.6983855799043903,0.16853546961416474,-0.019737037841263568,-73.96915070870061,-92.70501720124949,35.119475421316324,0.1533,-0.6016,-0.7236,0.3017
174,1120436.0,595.827521,1.0,-0.01,-6.7,-7.21,36.56,29.37,11.0,-15.44,16.37,-5.88,-0.9560790493299088,-1.0735733386954815,0.06973297571173552,-73.82576315428821,-92.85453921675224,34.77108519878443,0.1581,-0.6006,-0.7245,0.2988
175,1120436.0,595.827521,1.0,-0.01,-6.7,-7.21,36.56,29.37,11.0,-15.44,16.37,-5.88,-0.9560790493299088,-1.0735733386954815,0.06973297571173552,-73.82576315428821,-92.85453921675224,34.77108519878443,0.1581,-0.6006,-0.7245,0.2988
176,1120473.0,595.874743,1.0,-0.14,-5.63,-7.25,35.5,30.75,12.25,24.19,3.19,4.56,-0.11526481631822882,-1.0210171923116014,0.6839728756508521,-74.14139436333637,-92.80467578226568,34.32706780881908,0.1584,-0.6028,-0.7242,0.2951
177,1120473.0,595.874743,1.0,-0.14,-5.63,-7.25,35.5,30.75,12.25,24.19,3.19,4.56,-0.11526481631822882,-1.0210171923116014,0.6839728756508521,-74.14139436333637,-92.80467578226568,34.32706780881908,0.1584,-0.6028,-0.7242,0.2951
178,1120507.0,595.928946,1.0,-0.82,-9.4,-6.21,35.5,29.56,12.69,43.19,-1.5,33.0,-3.3200173433255964,0.09540007873366284,-0.9898718318213416,-74.44329258880299,-91.74628360102051,35.37196719600466,0.163,-0.6049,-0.7178,0.3038
179,1120507.0,595.928946,1.0,-0.82,-9.4,-6.21,35.5,29.56,12.69,43.19,-1.5,33.0,-3.3200173433255964,0.09540007873366284,-0.9898718318213416,-74.44329258880299,-91.74628360102051,35.37196719600466,0.163,-0.6049,-0.7178,0.3038
180,1120542.0,596.084484,1.0,-1.02,-9.66,-6.13,35.5,29.56,12.69,-22.06,6.75,39.88,-3.629472251664267,0.0789160839681804,-1.0907626941256243,-76.00560231797398,-90.33972471015196,35.4802322080149,0.1585,-0.6157,-0.7092,0.3047
181,1120542.0,596.084484,1.0,-1.02,-9.66,-6.13,35.5,29.56,12.69,-22.06,6.75,39.88,-3.629472251664267,0.0789160839681804,-1.0907626941256243,-76.00560231797398,-90.33972471015196,35.4802322080149,0.1585,-0.6157,-0.7092,0.3047
182,1120577.0,596.088124,1.0,-0.76,-12.25,-5.66,36.56,30.69,12.69,-76.87,18.37,50.0,-6.302870814883331,-0.07515586226574733,-2.1492636450234954,-77.5994395892969,-89.65908810035471,34.44701981345315,0.1504,-0.6266,-0.705,0.2961
183,1120577.0,596.088124,1.0,-0.76,-12.25,-5.66,36.56,30.69,12.69,-76.87,18.37,50.0,-6.302870814883331,-0.07515586226574733,-2.1492636450234954,-77.5994395892969,-89.65908810035471,34.44701981345315,0.1504,-0.6266,-0.705,0.2961
184,1120616.0,596.091414,1.0,-0.84,-7.82,-7.5,35.88,28.0,12.25,-191.0,-7.5,64.0,-3.0213056400250355,-0.6042364914187743,-0.6151833556045148,-81.2189848647937,-90.0151077513171,29.33390567781849,0.1097,-0.6509,-0.7072,0.2532
185,1120616.0,596.091414,1.0,-0.84,-7.82,-7.5,35.88,28.0,12.25,-191.0,-7.5,64.0,-3.0213056400250355,-0.6042364914187743,-0.6151833556045148,-81.2189848647937,-90.0151077513171,29.33390567781849,0.1097,-0.6509,-0.7072,0.2532
186,1120651.0,596.094567,1.0,-1.69,-10.33,-5.99,35.88,28.0,12.25,-164.19,-81.62,78.44,-6.741361442052287,0.2908761358245453,-0.18907593567963232,-83.0275358707213,-90.09617559473965,27.183245547895737,0.0671,-0.6628,-0.7077,0.235
187,1120651.0,596.094567,1.0,-1.69,-10.33,-5.99,35.88,28.0,12.25,-164.19,-81.62,78.44,-6.741361442052287,0.2908761358245453,-0.18907593567963232,-83.0275358707213,-90.09617559473965,27.183245547895737,0.0671,-0.6628,-0.7077,0.235
188,1120686.0,596.194085,1.0,-1.82,-2.37,-6.4,36.5,23.56,16.75,-315.38,-49.06,133.5,-0.7582726491216629,-0.13827746482334047,2.785595810470052,-87.40278790753678,-88.61356466933819,21.34558610673021,-0.0193,-0.6909,-0.6985,0.1852
189,1120686.0,596.194085,1.0,-1.82,-2.37,-6.4,36.5,23.56,16.75,-315.38,-49.06,133.5,-0.7582726491216629,-0.13827746482334047,2.785595810470052,-87.40278790753678,-88.61356466933819,21.34558610673021,-0.0193,-0.6909,-0.6985,0.1852
190,1120720.0,596.243577,1.0,-1.87,-1.4,-7.2,39.88,16.06,15.88,-235.44,-57.25,114.44,-1.0269057033869111,-0.6610143931086951,2.336347151490135,-90.5512225500058,-86.1727310203409,15.725436142775802,-0.0991,-0.7105,-0.6831,0.1368
191,1120720.0,596.243577,1.0,-1.87,-1.4,-7.2,39.88,16.06,15.88,-235.44,-57.25,114.44,-1.0269057033869111,-0.6610143931086951,2.336347151490135,-90.5512225500058,-86.1727310203409,15.725436142775802,-0.0991,-0.7105,-0.6831,0.1368
192,1120757.0,596.262874,1.0,-1.53,0.84,-7.1,41.5,6.0,16.0,-235.25,-65.12,148.5,0.3633537533579563,-1.12803205767476,2.5919415702172195,-93.05422153236404,-82.85930736243537,12.549930441445206,-0.1537,-0.7257,-0.6617,0.1093
193,1120757.0,596.262874,1.0,-1.53,0.84,-7.1,41.5,6.0,16.0,-235.25,-65.12,148.5,0.3633537533579563,-1.12803205767476,2.5919415702172195,-93.05422153236404,-82.85930736243537,12.549930441445206,-0.1537,-0.7257,-0.6617,0.1093
194,1120792.0,596.266168,1.0,-2.39,3.08,-6.55,41.5,6.0,16.0,-186.25,-49.31,121.19,1.3980187083599946,-0.21171525818490688,2.3165418338566592,-95.37768129091222,-78.54361109463308,8.050949266749551,-0.2181,-0.7395,-0.633,0.0702
195,1120792.0,596.266168,1.0,-2.39,3.08,-6.55,41.5,6.0,16.0,-186.25,-49.31,121.19,1.3980187083599946,-0.21171525818490688,2.3165418338566592,-95.37768129091222,-78.54361109463308,8.050949266749551,-0.2181,-0.7395,-0.633,0.0702
196,1120827.0,596.275571,1.0,-2.62,2.09,-6.26,42.56,-1.75,12.75,-114.19,3.25,92.75,-0.039566270177782366,-0.019463559028928268,2.7060756795570318,-96.92121959185582,-76.04923610928397,5.628708719478254,-0.2408,-0.7485,-0.616,0.0491
197,1120827.0,596.275571,1.0,-2.62,2.09,-6.26,42.56,-1.75,12.75,-114.19,3.25,92.75,-0.039566270177782366,-0.019463559028928268,2.7060756795570318,-96.92121959185582,-76.04923610928397,5.628708719478254,-0.2408,-0.7485,-0.616,0.0491
198,1120866.0,596.3128320000001,1.0,-1.8,4.37,-6.77,42.38,-8.25,9.88,-140.38,14.5,113.12,1.2812907841616186,-0.6330909018053479,1.6747812211476385,-98.59396637382844,-72.48442031771656,0.9740399810272836,-0.2751,-0.7581,-0.5912,0.0085
199,1120866.0,596.3128320000001,1.0,-1.8,4.37,-6.77,42.38,-8.25,9.88,-140.38,14.5,113.12,1.2812907841616186,-0.6330909018053479,1.6747812211476385,-98.59396637382844,-72.48442031771656,0.9740399810272836,-0.2751,-0.7581,-0.5912,0.0085
200,1120901.0,596.33055,1.0,-0.99,4.72,-6.91,42.38,-8.25,9.88,-117.25,5.69,99.44,1.1834559191282723,-1.3111686996011798,1.5673011951085345,-99.74283872407179,-69.70978337535752,-2.1659094260652934,-0.2971,-0.7646,-0.5715,-0.0189
201,1120901.0,596.33055,1.0,-0.99,4.72,-6.91,42.38,-8.25,9.88,-117.25,5.69,99.44,1.1834559191282723,-1.3111686996011798,1.5673011951085345,-99.74283872407179,-69.70978337535752,-2.1659094260652934,-0.2971,-0.7646,-0.5715,-0.0189
202,1120933.0,596.33346,1.0,-1.41,6.82,-5.67,40.69,-13.25,8.0,-123.75,-7.56,94.94,2.4446052391945567,-0.03175840546096165,1.165336637542584,-100.58214202852676,-66.07666398061995,-5.8926027489674295,-0.3289,-0.7693,-0.5452,-0.0514
203,1120933.0,596.33346,1.0,-1.41,6.82,-5.67,40.69,-13.25,8.0,-123.75,-7.56,94.94,2.4446052391945567,-0.03175840546096165,1.165336637542584,-100.58214202852676,-66.07666398061995,-5.8926027489674295,-0.3289,-0.7693,-0.5452,-0.0514
204,1120970.0,596.367348,1.0,-1.43,6.71,-5.9,38.19,-17.0,6.38,-59.63,5.75,82.81,1.6256817636828216,-0.026909198526260614,0.905221199056646,-101.79156838217143,-62.90613913443401,-8.648411389524659,-0.3463,-0.7759999999999999,-0.5218,-0.0754
205,1120970.0,596.367348,1.0,-1.43,6.71,-5.9,38.19,-17.0,6.38,-59.63,5.75,82.81,1.6256817636828216,-0.026909198526260614,0.905221199056646,-101.79156838217143,-62.90613913443401,-8.648411389524659,-0.3463,-0.7759999999999999,-0.5218,-0.0754
206,1121007.0,596.384261,1.0,-1.69,5.84,-5.49,38.0,-20.87,4.38,-70.44,13.5,54.88,0.7064086818171083,0.2600742483223182,1.6497419976002554,-102.22862690361036,-61.27437923360549,-10.453784866884499,-0.355,-0.7784,-0.5096,-0.0911
207,1121007.0,596.384261,1.0,-1.69,5.84,-5.49,38.0,-20.87,4.38,-70.44,13.5,54.88,0.7064086818171083,0.2600742483223182,1.6497419976002554,-102.22862690361036,-61.27437923360549,-10.453784866884499,-0.355,-0.7784,-0.5096,-0.0911
208,1121040.0,596.460625,1.0,-1.44,6.5,-5.18,38.0,-20.87,4.38,-83.25,11.94,64.37,0.8876473133053394,0.37376892933453343,1.4264125907945822,-102.2651416958551,-58.95740435856217,-13.299539926123945,-0.3718,-0.7786,-0.4921,-0.1158
209,1121040.0,596.460625,1.0,-1.44,6.5,-5.18,38.0,-20.87,4.38,-83.25,11.94,64.37,0.8876473133053394,0.37376892933453343,1.4264125907945822,-102.2651416958551,-58.95740435856217,-13.299539926123945,-0.3718,-0.7786,-0.4921,-0.1158
210,1121077.0,596.554447,1.0,-0.01,8.83,-5.4,35.38,-22.87,3.5,-81.56,37.88,78.31,2.484873492265784,-0.2437264364622527,-0.2380003747818069,-102.50284081699965,-56.861990212559824,-15.945255673236543,-0.3819,-0.7799,-0.4761,-0.1387
211,1121077.0,596.554447,1.0,-0.01,8.83,-5.4,35.38,-22.87,3.5,-81.56,37.88,78.31,2.484873492265784,-0.2437264364622527,-0.2380003747818069,-102.50284081699965,-56.861990212559824,-15.945255673236543,-0.3819,-0.7799,-0.4761,-0.1387
212,1121114.0,596.561408,1.0,0.34,8.94,-6.01,34.38,-26.0,2.38,-73.06,42.0,37.38,1.650540715210448,-0.6772112690480094,-0.8223857156473517,-101.66447905765742,-55.40750082753502,-19.55238168351347,-0.3925,-0.7753,-0.4649,-0.1698
213,1121114.0,596.561408,1.0,0.34,8.94,-6.01,34.38,-26.0,2.38,-73.06,42.0,37.38,1.650540715210448,-0.6772112690480094,-0.8223857156473517,-101.66447905765742,-55.40750082753502,-19.55238168351347,-0.3925,-0.7753,-0.4649,-0.1698
214,1121148.0,596.570291,1.0,0.0,9.88,-5.59,34.38,-26.0,2.38,-66.25,20.37,38.56,1.8172081566258973,0.056857635288851675,-1.3985729663135995,-100.92354086053491,-54.40026707594486,-21.555518290408003,-0.4016,-0.7712,-0.4571,-0.187
215,1121148.0,596.570291,1.0,0.0,9.88,-5.59,34.38,-26.0,2.38,-66.25,20.37,38.56,1.8172081566258973,0.056857635288851675,-1.3985729663135995,-100.92354086053491,-54.40026707594486,-21.555518290408003,-0.4016,-0.7712,-0.4571,-0.187
216,1121183.0,596.573211,1.0,0.29,10.43,-6.07,31.5,-26.37,1.88,-48.06,17.75,38.38,1.4223858567340997,-0.19188743859499624,-2.1789203946650897,-100.474586173471,-53.000280019764396,-23.63558298502357,-0.4099,-0.7687,-0.4462,-0.2048
217,1121183.0,596.573211,1.0,0.29,10.43,-6.07,31.5,-26.37,1.88,-48.06,17.75,38.38,1.4223858567340997,-0.19188743859499624,-2.1789203946650897,-100.474586173471,-53.000280019764396,-23.63558298502357,-0.4099,-0.7687,-0.4462,-0.2048
218,1121218.0,596.576151,1.0,-0.36,11.46,-6.28,30.37,-28.0,1.19,-38.38,21.5,14.19,1.1013863729862299,0.5381147239612663,-3.208609528770696,-99.79619278642058,-52.39925252360182,-25.018825462277388,-0.41600000000000004,-0.7649,-0.4415,-0.2166
219,1121218.0,596.576151,1.0,-0.36,11.46,-6.28,30.37,-28.0,1.19,-38.38,21.5,14.19,1.1013863729862299,0.5381147239612663,-3.208609528770696,-99.79619278642058,-52.39925252360182,-25.018825462277388,-0.41600000000000004,-0.7649,-0.4415,-0.2166
220,1121255.0,596.623264,1.0,-0.12,9.74,-6.71,29.25,-29.06,-0.06,6.56,18.0,3.69,0.006567328756179602,-0.21815259826659705,-2.01952716398932,-99.61846035279729,-52.6036825036909,-25.700071520307283,-0.4131,-0.7639,-0.4431,-0.2224
221,1121255.0,596.623264,1.0,-0.12,9.74,-6.71,29.25,-29.06,-0.06,6.56,18.0,3.69,0.006567328756179602,-0.21815259826659705,-2.01952716398932,-99.61846035279729,-52.6036825036909,-25.700071520307283,-0.4131,-0.7639,-0.4431,-0.2224
222,1121290.0,596.6420870000001,1.0,1.09,9.59,-7.52,29.25,-29.06,-0.06,-4.31,2.38,8.19,-0.06328671592180067,-1.5929713923137605,-2.3245097522602003,-99.65398071134052,-52.55255813835036,-26.00575632582789,-0.4117,-0.7641,-0.4427,-0.225
223,1121290.0,596.6420870000001,1.0,1.09,9.59,-7.52,29.25,-29.06,-0.06,-4.31,2.38,8.19,-0.06328671592180067,-1.5929713923137605,-2.3245097522602003,-99.65398071134052,-52.55255813835036,-26.00575632582789,-0.4117,-0.7641,-0.4427,-0.225
224,1121327.0,596.7212509999999,1.0,0.25,9.41,-6.44,30.0,-29.56,0.69,7.44,-12.94,-6.69,0.19425607000517986,-0.4991894775539691,-1.5862106787218089,-99.68951411614924,-52.39925252360182,-25.770597576108926,-0.4137,-0.7643,-0.4415,-0.223
225,1121327.0,596.7212509999999,1.0,0.25,9.41,-6.44,30.0,-29.56,0.69,7.44,-12.94,-6.69,0.19425607000517986,-0.4991894775539691,-1.5862106787218089,-99.68951411614924,-52.39925252360182,-25.770597576108926,-0.4137,-0.7643,-0.4415,-0.223
226,1121361.0,596.725285,1.0,-0.14,8.01,-6.03,28.87,-28.75,-0.06,20.06,-11.44,-15.44,-0.2735708124251297,-0.38722400358542775,-0.20912838121612687,-99.88518184221613,-52.71875358132653,-25.10099664997855,-0.41200000000000003,-0.7654,-0.444,-0.2173
227,1121361.0,596.725285,1.0,-0.14,8.01,-6.03,28.87,-28.75,-0.06,20.06,-11.44,-15.44,-0.2735708124251297,-0.38722400358542775,-0.20912838121612687,-99.88518184221613,-52.71875358132653,-25.10099664997855,-0.41200000000000003,-0.7654,-0.444,-0.2173
228,1121394.0,596.781333,1.0,-0.4,7.67,-5.54,28.87,-28.75,-0.06,3.13,-10.31,-16.87,-0.11621671555172307,-0.11990147125946347,0.3381433958825273,-99.8317785547328,-53.153985232120654,-24.31503217113493,-0.4125,-0.7651,-0.4474,-0.2106
229,1121394.0,596.781333,1.0,-0.4,7.67,-5.54,28.87,-28.75,-0.06,3.13,-10.31,-16.87,-0.11621671555172307,-0.11990147125946347,0.3381433958825273,-99.8317785547328,-53.153985232120654,-24.31503217113493,-0.4125,-0.7651,-0.4474,-0.2106
230,1121429.0,596.838441,1.0,-0.68,7.26,-5.5,30.75,-28.75,-0.06,6.69,-7.75,-12.5,-0.3602206315021177,-0.03269940827737328,0.6803598531035835,-99.63621890239712,-53.60288337963247,-23.78779915841677,-0.413,-0.764,-0.4509,-0.2061
231,1121429.0,596.838441,1.0,-0.68,7.26,-5.5,30.75,-28.75,-0.06,6.69,-7.75,-12.5,-0.3602206315021177,-0.03269940827737328,0.6803598531035835,-99.63621890239712,-53.60288337963247,-23.78779915841677,-0.413,-0.764,-0.4509,-0.2061
232,1121466.0,596.90188,1.0,-0.62,7.06,-5.31,30.75,-29.19,0.37,9.13,-2.13,-1.0,-0.24153523555174014,-0.04496539328267701,0.9543204284468754,-99.77840482252957,-53.78269118475608,-23.49511329436541,-0.4112,-0.7648,-0.4523,-0.2036
233,1121466.0,596.90188,1.0,-0.62,7.06,-5.31,30.75,-29.19,0.37,9.13,-2.13,-1.0,-0.24153523555174014,-0.04496539328267701,0.9543204284468754,-99.77840482252957,-53.78269118475608,-23.49511329436541,-0.4112,-0.7648,-0.4523,-0.2036
234,1121501.0,596.91458,1.0,-0.4,6.87,-5.88,30.75,-29.19,0.37,9.81,6.44,1.06,-0.5959334824990561,-0.5052618911287574,0.7888413024388488,-99.88518184221613,-53.87264873756229,-23.49511329436541,-0.4092,-0.7654,-0.45299999999999996,-0.2036
235,1121501.0,596.91458,1.0,-0.4,6.87,-5.88,30.75,-29.19,0.37,9.81,6.44,1.06,-0.5959334824990561,-0.5052618911287574,0.7888413024388488,-99.88518184221613,-53.87264873756229,-23.49511329436541,-0.4092,-0.7654,-0.45299999999999996,-0.2036
236,1121536.0,596.9221,1.0,-0.23,7.12,-6.08,30.75,-28.75,-0.88,-6.56,11.0,-0.12,-0.5295904490771832,-0.6380555848548948,0.4778709251755906,-99.8317785547328,-54.014083172384005,-23.76437852052494,-0.4076,-0.7651,-0.4541,-0.2059
237,1121536.0,596.9221,1.0,-0.23,7.12,-6.08,30.75,-28.75,-0.88,-6.56,11.0,-0.12,-0.5295904490771832,-0.6380555848548948,0.4778709251755906,-99.8317785547328,-54.014083172384005,-23.76437852052494,-0.4076,-0.7651,-0.4541,-0.2059
238,1121570.0,596.925256,1.0,0.0,7.64,-6.47,30.37,-28.56,-0.5,-3.44,1.81,1.88,-0.4439306683289561,-0.8690458957729641,-0.157193876374075,-99.68951411614924,-54.00122182339204,-23.975200651636385,-0.408,-0.7643,-0.45399999999999996,-0.2077
239,1121570.0,596.925256,1.0,0.0,7.64,-6.47,30.37,-28.56,-0.5,-3.44,1.81,1.88,-0.4439306683289561,-0.8690458957729641,-0.157193876374075,-99.68951411614924,-54.00122182339204,-23.975200651636385,-0.408,-0.7643,-0.45399999999999996,-0.2077
240,1121607.0,596.9654099999999,1.0,-0.46,7.65,-5.96,31.5,-29.25,-0.5,2.31,-2.44,0.63,-0.30880575288629264,-0.2484451710775657,0.10620598933983948,-99.77840482252957,-53.949783779378244,-23.89320452199912,-0.408,-0.7648,-0.4536,-0.207
241,1121607.0,596.9654099999999,1.0,-0.46,7.65,-5.96,31.5,-29.25,-0.5,2.31,-2.44,0.63,-0.30880575288629264,-0.2484451710775657,0.10620598933983948,-99.77840482252957,-53.949783779378244,-23.89320452199912,-0.408,-0.7648,-0.4536,-0.207
242,1121640.0,596.982234,1.0,-0.49,8.03,-6.06,31.5,-29.25,-0.5,-8.56,0.5,0.56,-0.22847522717345806,-0.18724713730796336,-0.2609881331540702,-99.65398071134052,-53.87264873756229,-23.998630403703213,-0.4095,-0.7641,-0.45299999999999996,-0.2079
243,1121640.0,596.982234,1.0,-0.49,8.03,-6.06,31.5,-29.25,-0.5,-8.56,0.5,0.56,-0.22847522717345806,-0.18724713730796336,-0.2609881331540702,-99.65398071134052,-53.87264873756229,-23.998630403703213,-0.4095,-0.7641,-0.45299999999999996,-0.2079
244,1121677.0,596.987447,1.0,-0.58,8.36,-5.66,29.69,-28.56,1.06,-2.06,0.88,-1.44,0.1516415058098206,0.13299255960326214,-0.30378608519463945,-99.51197737726193,-53.88550274467078,-24.080642561887807,-0.4105,-0.7633,-0.4531,-0.2086
245,1121677.0,596.987447,1.0,-0.58,8.36,-5.66,29.69,-28.56,1.06,-2.06,0.88,-1.44,0.1516415058098206,0.13299255960326214,-0.30378608519463945,-99.51197737726193,-53.88550274467078,-24.080642561887807,-0.4105,-0.7633,-0.4531,-0.2086
246,1121714.0,597.0347730000001,1.0,-0.48,8.03,-5.85,30.37,-28.87,-0.06,3.19,3.56,-4.38,-0.08146875872492698,-0.12014707240381205,-0.13883779710400113,-99.44105363347383,-54.07840095968836,-24.05720924110893,-0.4098,-0.7629,-0.4546,-0.2084
247,1121714.0,597.0347730000001,1.0,-0.48,8.03,-5.85,30.37,-28.87,-0.06,3.19,3.56,-4.38,-0.08146875872492698,-0.12014707240381205,-0.13883779710400113,-99.44105363347383,-54.07840095968836,-24.05720924110893,-0.4098,-0.7629,-0.4546,-0.2084
248,1121746.0,597.053723,1.0,-0.59,7.96,-5.51,30.37,-28.87,-0.06,0.88,-6.44,-4.56,0.07841686365631162,0.08081446962436711,0.10834500288872027,-99.38789480139916,-54.14273717736637,-23.904917493763705,-0.4104,-0.7626,-0.4551,-0.2071
249,1121746.0,597.053723,1.0,-0.59,7.96,-5.51,30.37,-28.87,-0.06,0.88,-6.44,-4.56,0.07841686365631162,0.08081446962436711,0.10834500288872027,-99.38789480139916,-54.14273717736637,-23.904917493763705,-0.4104,-0.7626,-0.4551,-0.2071
250,1121781.0,597.099335,1.0,-0.6,7.5,-5.62,30.37,-28.19,-0.06,8.81,0.37,-4.06,-0.18681719266844632,-0.07255647255147403,0.4176013317474823,-99.45877971134676,-54.348737347604505,-23.65899809735879,-0.4089,-0.763,-0.4567,-0.205
251,1121781.0,597.099335,1.0,-0.6,7.5,-5.62,30.37,-28.19,-0.06,8.81,0.37,-4.06,-0.18681719266844632,-0.07255647255147403,0.4176013317474823,-99.45877971134676,-54.348737347604505,-23.65899809735879,-0.4089,-0.763,-0.4567,-0.205
252,1121818.0,597.161291,1.0,-0.46,7.45,-5.56,30.75,-28.56,-0.88,7.44,6.06,-5.63,-0.07484624887305191,-0.17085145730523574,0.5011189663315658,-99.40561118069314,-54.593609797684756,-23.63558298502357,-0.4075,-0.7627,-0.4586,-0.2048
253,1121818.0,597.161291,1.0,-0.46,7.45,-5.56,30.75,-28.56,-0.88,7.44,6.06,-5.63,-0.07484624887305191,-0.17085145730523574,0.5011189663315658,-99.40561118069314,-54.593609797684756,-23.63558298502357,-0.4075,-0.7627,-0.4586,-0.2048
254,1121851.0,597.169485,1.0,-0.38,7.19,-5.76,30.75,-28.56,-0.88,6.13,11.0,-6.31,-0.2742041722351265,-0.3613168212555431,0.5972872518720589,-99.37018165058248,-54.929136905330246,-23.65899809735879,-0.4048,-0.7625,-0.4612,-0.205
255,1121851.0,597.169485,1.0,-0.38,7.19,-5.76,30.75,-28.56,-0.88,6.13,11.0,-6.31,-0.2742041722351265,-0.3613168212555431,0.5972872518720589,-99.37018165058248,-54.929136905330246,-23.65899809735879,-0.4048,-0.7625,-0.4612,-0.205
256,1121886.0,597.1822099999999,1.0,-0.41,7.42,-6.01,30.0,-28.19,0.37,-5.5,12.63,-3.56,-0.3457388338077527,-0.34815007075473936,0.2618159947890799,-99.10487032365977,-55.316919407310365,-23.998630403703213,-0.4026,-0.7609999999999999,-0.4642,-0.2079
257,1121886.0,597.1822099999999,1.0,-0.41,7.42,-6.01,30.0,-28.19,0.37,-5.5,12.63,-3.56,-0.3457388338077527,-0.34815007075473936,0.2618159947890799,-99.10487032365977,-55.316919407310365,-23.998630403703213,-0.4026,-0.7609999999999999,-0.4642,-0.2079
258,1121921.0,597.245253,1.0,-0.6,7.57,-5.73,30.75,-28.56,0.69,-6.56,10.13,-2.0,-0.18609184843935744,-0.012102520891395852,0.2954448527574858,-98.89313900458244,-55.51106851407834,-24.279867169785643,-0.402,-0.7598,-0.4657,-0.2103
259,1121921.0,597.245253,1.0,-0.6,7.57,-5.73,30.75,-28.56,0.69,-6.56,10.13,-2.0,-0.18609184843935744,-0.012102520891395852,0.2954448527574858,-98.89313900458244,-55.51106851407834,-24.279867169785643,-0.402,-0.7598,-0.4657,-0.2103
260,1121955.0,597.3337740000001,1.0,-0.61,7.65,-5.62,31.5,-28.19,1.5,-4.81,11.38,-0.06,-0.11439007902904508,0.0799331687322411,0.2956287300019049,-98.57639627494255,-55.71835189030318,-24.70200146162693,-0.4016,-0.758,-0.4673,-0.2139
261,1121955.0,597.3337740000001,1.0,-0.61,7.65,-5.62,31.5,-28.19,1.5,-4.81,11.38,-0.06,-0.11439007902904508,0.0799331687322411,0.2956287300019049,-98.57639627494255,-55.71835189030318,-24.70200146162693,-0.4016,-0.758,-0.4673,-0.2139
