,TIME,ELAPSED_SECONDS,PSTATE,acc_x,acc_y,acc_z,mag_x,mag_y,mag_z,gyr_x,gyr_y,gyr_z,lin_x,lin_y,lin_z,eul_x,eul_y,eul_z,qua_w,qua_x,qua_y,qua_z
0,424017.0,75.305642,1.0,2.14,-1.18,9.51,-1.0,39.06,-14.19,-1.75,2.5,-2.25,0.15417234516461512,-0.015516534620043545,-0.011093637167343571,-3.7592774051414257,13.311076762780564,-82.88987813746495,-0.7399,-0.0328,0.1159,-0.6619
1,424017.0,75.305642,1.0,2.14,-1.18,9.51,-1.0,39.06,-14.19,-1.75,2.5,-2.25,0.15417234516461512,-0.015516534620043545,-0.011093637167343571,-3.7592774051414257,13.311076762780564,-82.88987813746495,-0.7399,-0.0328,0.1159,-0.6619
2,424052.0,75.309797,1.0,2.3,-0.65,9.47,-1.37,38.25,-12.56,-1.75,0.88,-4.75,-0.3568489644151273,-0.2519628337409979,0.04946938534449963,-3.6790210459755386,13.322613734970494,-82.79818739316053,-0.7404,-0.0321,0.11599999999999999,-0.6613
3,424052.0,75.309797,1.0,2.3,-0.65,9.47,-1.37,38.25,-12.56,-1.75,0.88,-4.75,-0.3568489644151273,-0.2519628337409979,0.04946938534449963,-3.6790210459755386,13.322613734970494,-82.79818739316053,-0.7404,-0.0321,0.11599999999999999,-0.6613
4,424089.0,75.349735,1.0,2.21,-1.05,9.56,0.06,38.25,-13.0,3.0,0.75,-12.25,0.04626485466893193,-0.0924832306959611,-0.06094881710148314,-3.7592774051414257,13.230321745568984,-82.38637607932448,-0.7429,-0.0328,0.1152,-0.6586
5,424089.0,75.349735,1.0,2.21,-1.05,9.56,0.06,38.25,-13.0,3.0,0.75,-12.25,0.04626485466893193,-0.0924832306959611,-0.06094881710148314,-3.7592774051414257,13.230321745568984,-82.38637607932448,-0.7429,-0.0328,0.1152,-0.6586
6,424124.0,75.385961,1.0,2.15,-1.07,9.62,0.06,38.25,-13.0,2.5,1.19,5.13,0.06567845027131769,-0.01598306291570062,-0.10835029666514018,-3.82807003686826,13.184178987120148,-82.38637607932448,-0.7429,-0.0334,0.1148,-0.6586
7,424124.0,75.385961,1.0,2.15,-1.07,9.62,0.06,38.25,-13.0,2.5,1.19,5.13,0.06567845027131769,-0.01598306291570062,-0.10835029666514018,-3.82807003686826,13.184178987120148,-82.38637607932448,-0.7429,-0.0334,0.1148,-0.6586
8,424159.0,75.433338,1.0,2.36,-0.6,9.39,-1.37,38.25,-14.19,-3.38,1.31,-0.19,-0.3547925780118257,-0.3389720412615527,0.11846543415740207,-3.7478120989556993,13.172643633299911,-82.43206880803427,-0.7427,-0.0327,0.1147,-0.6589
9,424159.0,75.433338,1.0,2.36,-0.6,9.39,-1.37,38.25,-14.19,-3.38,1.31,-0.19,-0.3547925780118257,-0.3389720412615527,0.11846543415740207,-3.7478120989556993,13.172643633299911,-82.43206880803427,-0.7427,-0.0327,0.1147,-0.6589
10,424194.0,75.45099599999999,1.0,2.18,-0.99,9.56,-0.56,38.25,-14.56,5.44,0.44,-4.19,0.011734317408857914,-0.07608051587202896,-0.0483068269424507,-3.8395356089996184,13.091899903813275,-82.34069929138175,-0.7433,-0.0335,0.114,-0.6583
11,424194.0,75.45099599999999,1.0,2.18,-0.99,9.56,-0.56,38.25,-14.56,5.44,0.44,-4.19,0.011734317408857914,-0.07608051587202896,-0.0483068269424507,-3.8395356089996184,13.091899903813275,-82.34069929138175,-0.7433,-0.0335,0.114,-0.6583
12,424230.0,75.494373,1.0,2.04,-1.13,9.67,-1.75,37.56,-14.19,3.44,-0.56,-1.19,0.14975747669753955,0.10517482407696932,-0.13889729286194807,-3.965659465674837,12.988096123558293,-82.29503842028417,-0.7437,-0.0346,0.1131,-0.6579999999999999
13,424230.0,75.494373,1.0,2.04,-1.13,9.67,-1.75,37.56,-14.19,3.44,-0.56,-1.19,0.14975747669753955,0.10517482407696932,-0.13889729286194807,-3.965659465674837,12.988096123558293,-82.29503842028417,-0.7437,-0.0346,0.1131,-0.6579999999999999
14,424263.0,75.563129,1.0,2.23,-0.82,9.52,-1.75,37.56,-14.19,-1.56,1.06,2.06,-0.11811318201063185,-0.15635323626968667,-0.003411311823859009,-3.942727502383202,12.965030073382625,-82.37114871332962,-0.7433,-0.0344,0.1129,-0.6585
15,424263.0,75.563129,1.0,2.23,-0.82,9.52,-1.75,37.56,-14.19,-1.56,1.06,2.06,-0.11811318201063185,-0.15635323626968667,-0.003411311823859009,-3.942727502383202,12.965030073382625,-82.37114871332962,-0.7433,-0.0344,0.1129,-0.6585
16,424300.0,75.57081,1.0,2.16,-0.93,9.54,-1.0,38.69,-13.75,1.94,0.81,-1.5,-0.014712936851854874,-0.07085947891744021,-0.018667423052383114,-3.9541934642266314,12.941964550756788,-82.34069929138175,-0.7435,-0.0345,0.1127,-0.6583
17,424300.0,75.57081,1.0,2.16,-0.93,9.54,-1.0,38.69,-13.75,1.94,0.81,-1.5,-0.014712936851854874,-0.07085947891744021,-0.018667423052383114,-3.9541934642266314,12.941964550756788,-82.34069929138175,-0.7435,-0.0345,0.1127,-0.6583
18,424335.0,75.589876,1.0,2.18,-0.96,9.6,-1.0,39.06,-15.0,0.44,0.88,-0.5,0.01327985450062705,-0.07666106457814648,-0.08415111652449347,-3.9541934642266314,12.918899554710151,-82.31025694358621,-0.7437,-0.0345,0.1125,-0.6581
19,424335.0,75.589876,1.0,2.18,-0.96,9.6,-1.0,39.06,-15.0,0.44,0.88,-0.5,0.01327985450062705,-0.07666106457814648,-0.08415111652449347,-3.9541934642266314,12.918899554710151,-82.31025694358621,-0.7437,-0.0345,0.1125,-0.6581
20,424370.0,75.638908,1.0,2.2,-0.83,9.48,-1.0,39.06,-15.0,-0.81,-0.06,-0.88,-0.09817586480749896,-0.1370973979027466,0.04084917246631648,-3.9541934642266314,12.918899554710151,-82.31025694358621,-0.7437,-0.0345,0.1125,-0.6581
21,424370.0,75.638908,1.0,2.2,-0.83,9.48,-1.0,39.06,-15.0,-0.81,-0.06,-0.88,-0.09817586480749896,-0.1370973979027466,0.04084917246631648,-3.9541934642266314,12.918899554710151,-82.31025694358621,-0.7437,-0.0345,0.1125,-0.6581
22,424404.0,75.657947,1.0,2.16,-1.0,9.5,-1.75,38.25,-14.19,1.63,0.12,0.06,0.06710347960080695,-0.0701278429492076,0.0134799714204501,-3.977125506843028,12.907367253850758,-82.29503842028417,-0.7438,-0.0347,0.1124,-0.6579999999999999
23,424404.0,75.657947,1.0,2.16,-1.0,9.5,-1.75,38.25,-14.19,1.63,0.12,0.06,0.06710347960080695,-0.0701278429492076,0.0134799714204501,-3.977125506843028,12.907367253850758,-82.29503842028417,-0.7438,-0.0347,0.1124,-0.6579999999999999
24,424441.0,75.704379,1.0,2.16,-0.9,9.58,-0.25,38.0,-14.19,-0.94,0.19,1.12,-0.04626625558836288,-0.06939665577610776,-0.05464015584476911,-3.9541934642266314,12.918899554710151,-82.34069929138175,-0.7435,-0.0345,0.1125,-0.6583
25,424441.0,75.704379,1.0,2.16,-0.9,9.58,-0.25,38.0,-14.19,-0.94,0.19,1.12,-0.04626625558836288,-0.06939665577610776,-0.05464015584476911,-3.9541934642266314,12.918899554710151,-82.34069929138175,-0.7435,-0.0345,0.1125,-0.6583
26,424474.0,75.76467099999999,1.0,2.2,-0.89,9.6,-0.25,38.0,-14.19,0.63,0.5,0.56,-0.050502730391532615,-0.10406048451538102,-0.08166233779482646,-3.977125506843028,12.907367253850758,-82.35592311764404,-0.7434,-0.0347,0.1124,-0.6584
27,424474.0,75.76467099999999,1.0,2.2,-0.89,9.6,-0.25,38.0,-14.19,0.63,0.5,0.56,-0.050502730391532615,-0.10406048451538102,-0.08166233779482646,-3.977125506843028,12.907367253850758,-82.35592311764404,-0.7434,-0.0347,0.1124,-0.6584
28,424509.0,75.789743,1.0,2.16,-0.92,9.45,-1.37,38.0,-14.19,0.69,-0.56,0.94,-0.004665867509913213,-0.08827410585895229,0.06977750869586608,-4.000057708800217,12.907367253850758,-82.35592311764404,-0.7433,-0.0349,0.1124,-0.6584
29,424509.0,75.789743,1.0,2.16,-0.92,9.45,-1.37,38.0,-14.19,0.69,-0.56,0.94,-0.004665867509913213,-0.08827410585895229,0.06977750869586608,-4.000057708800217,12.907367253850758,-82.35592311764404,-0.7433,-0.0349,0.1124,-0.6584
30,424544.0,75.83169000000001,1.0,2.16,-0.88,9.63,-0.56,39.06,-13.75,-0.88,0.25,0.75,-0.0691075674870193,-0.05802319793416461,-0.10136480886143673,-3.988591587846416,12.918899554710151,-82.38637607932448,-0.7432,-0.0348,0.1125,-0.6586
31,424544.0,75.83169000000001,1.0,2.16,-0.88,9.63,-0.56,39.06,-13.75,-0.88,0.25,0.75,-0.0691075674870193,-0.05802319793416461,-0.10136480886143673,-3.988591587846416,12.918899554710151,-82.38637607932448,-0.7432,-0.0348,0.1125,-0.6586
32,424581.0,75.847306,1.0,2.17,-0.89,9.64,-1.75,38.25,-14.19,-0.19,0.88,-1.0,-0.057675940148205075,-0.06581812563253425,-0.11418370792325305,-3.988591587846416,12.907367253850758,-82.38637607932448,-0.7433,-0.0348,0.1124,-0.6586
33,424581.0,75.847306,1.0,2.17,-0.89,9.64,-1.75,38.25,-14.19,-0.19,0.88,-1.0,-0.057675940148205075,-0.06581812563253425,-0.11418370792325305,-3.988591587846416,12.907367253850758,-82.38637607932448,-0.7433,-0.0348,0.1124,-0.6586
34,424615.0,75.902253,1.0,2.16,-0.97,9.5,-1.75,38.25,-14.19,0.81,-0.56,0.37,0.03884500890307546,-0.07181912186780981,0.016357201568611757,-4.000057708800217,12.907367253850758,-82.35592311764404,-0.7434,-0.0349,0.1124,-0.6584
35,424615.0,75.902253,1.0,2.16,-0.97,9.5,-1.75,38.25,-14.19,0.81,-0.56,0.37,0.03884500890307546,-0.07181912186780981,0.016357201568611757,-4.000057708800217,12.907367253850758,-82.35592311764404,-0.7434,-0.0349,0.1124,-0.6584
36,424652.0,75.92115,1.0,2.18,-0.81,9.47,-1.37,38.0,-15.38,-1.31,-0.63,-0.56,-0.1204774112486988,-0.11730266514398124,0.05672049881236596,-3.977125506843028,12.941964550756788,-82.37114871332962,-0.7433,-0.0347,0.1127,-0.6585
37,424652.0,75.92115,1.0,2.18,-0.81,9.47,-1.37,38.0,-15.38,-1.31,-0.63,-0.56,-0.1204774112486988,-0.11730266514398124,0.05672049881236596,-3.977125506843028,12.941964550756788,-82.37114871332962,-0.7433,-0.0347,0.1127,-0.6585
38,424685.0,75.924391,1.0,2.14,-0.96,9.62,-0.56,38.69,-13.38,1.75,0.12,-0.44,0.012114374002071576,-0.026939362741995043,-0.0951037594447186,-4.011523869819651,12.918899554710151,-82.35592311764404,-0.7434,-0.035,0.1125,-0.6584
39,424685.0,75.924391,1.0,2.14,-0.96,9.62,-0.56,38.69,-13.38,1.75,0.12,-0.44,0.012114374002071576,-0.026939362741995043,-0.0951037594447186,-4.011523869819651,12.918899554710151,-82.35592311764404,-0.7434,-0.035,0.1125,-0.6584
40,424720.0,75.96861899999999,1.0,2.17,-0.94,9.54,-0.56,38.69,-13.38,-0.94,0.06,0.5,0.005304608768163188,-0.0746955773289763,-0.02180320647421929,-4.011523869819651,12.918899554710151,-82.35592311764404,-0.7434,-0.035,0.1125,-0.6584
41,424720.0,75.96861899999999,1.0,2.17,-0.94,9.54,-0.56,38.69,-13.38,-0.94,0.06,0.5,0.005304608768163188,-0.0746955773289763,-0.02180320647421929,-4.011523869819651,12.918899554710151,-82.35592311764404,-0.7434,-0.035,0.1125,-0.6584
42,424755.0,76.036548,1.0,2.16,-0.86,9.5,-0.25,38.0,-14.56,0.37,-0.06,0.56,-0.07163227608542985,-0.08228343227626528,0.026910828948674137,-4.011523869819651,12.930431986971733,-82.37114871332962,-0.7433,-0.035,0.1126,-0.6585
43,424755.0,76.036548,1.0,2.16,-0.86,9.5,-0.25,38.0,-14.56,0.37,-0.06,0.56,-0.07163227608542985,-0.08228343227626528,0.026910828948674137,-4.011523869819651,12.930431986971733,-82.37114871332962,-0.7433,-0.035,0.1126,-0.6585
44,424792.0,76.05449200000001,1.0,2.15,-0.88,9.64,0.06,38.69,-14.19,-0.12,0.37,0.75,-0.07025627818513873,-0.04205601345818638,-0.10898388528981506,-4.011523869819651,12.930431986971733,-82.38637607932448,-0.7432,-0.035,0.1126,-0.6586
45,424792.0,76.05449200000001,1.0,2.15,-0.88,9.64,0.06,38.69,-14.19,-0.12,0.37,0.75,-0.07025627818513873,-0.04205601345818638,-0.10898388528981506,-4.011523869819651,12.930431986971733,-82.38637607932448,-0.7432,-0.035,0.1126,-0.6586
46,424824.0,76.10158100000001,1.0,2.24,-0.92,9.52,0.06,38.69,-14.19,0.69,0.37,0.44,-0.0023807882182228235,-0.1494175530793313,-0.015369584926476774,-4.022990071019942,12.907367253850758,-82.38637607932448,-0.7432,-0.0351,0.1124,-0.6586
47,424824.0,76.10158100000001,1.0,2.24,-0.92,9.52,0.06,38.69,-14.19,0.69,0.37,0.44,-0.0023807882182228235,-0.1494175530793313,-0.015369584926476774,-4.022990071019942,12.907367253850758,-82.38637607932448,-0.7432,-0.0351,0.1124,-0.6586
48,424859.0,76.12097800000001,1.0,2.18,-0.94,9.48,-1.37,39.06,-13.75,-0.25,-0.69,1.19,0.013344173583520995,-0.09010563914006753,0.034336921366746154,-4.045922594423996,12.941964550756788,-82.41683612578922,-0.743,-0.0353,0.1127,-0.6588
49,424859.0,76.12097800000001,1.0,2.18,-0.94,9.48,-1.37,39.06,-13.75,-0.25,-0.69,1.19,0.013344173583520995,-0.09010563914006753,0.034336921366746154,-4.045922594423996,12.941964550756788,-82.41683612578922,-0.743,-0.0353,0.1127,-0.6588
50,424894.0,76.168813,1.0,2.11,-0.86,9.55,-2.06,38.0,-13.75,-0.44,-0.06,0.06,-0.08574739806751416,-0.01730256077012143,-0.011015099457992505,-4.034456312516312,12.965030073382625,-82.41683612578922,-0.743,-0.0352,0.1129,-0.6588
51,424894.0,76.168813,1.0,2.11,-0.86,9.55,-2.06,38.0,-13.75,-0.44,-0.06,0.06,-0.08574739806751416,-0.01730256077012143,-0.011015099457992505,-4.034456312516312,12.965030073382625,-82.41683612578922,-0.743,-0.0352,0.1129,-0.6588
52,424931.0,76.186909,1.0,2.24,-0.93,9.57,-1.0,38.25,-15.0,0.06,-0.31,0.06,-0.002733182662342709,-0.13341706960594654,-0.0650060117971254,-4.034456312516312,12.941964550756788,-82.44730326413901,-0.7429,-0.0352,0.1127,-0.659
53,424931.0,76.186909,1.0,2.24,-0.93,9.57,-1.0,38.25,-15.0,0.06,-0.31,0.06,-0.002733182662342709,-0.13341706960594654,-0.0650060117971254,-4.034456312516312,12.941964550756788,-82.44730326413901,-0.7429,-0.0352,0.1127,-0.659
54,424966.0,76.232716,1.0,2.18,-0.84,9.51,-1.0,38.25,-15.0,-0.88,0.06,0.06,-0.09477829081672516,-0.09748677767075477,0.01483640885309789,-4.022990071019942,12.965030073382625,-82.43206880803427,-0.7429,-0.0351,0.1129,-0.6589
55,424966.0,76.232716,1.0,2.18,-0.84,9.51,-1.0,38.25,-15.0,-0.88,0.06,0.06,-0.09477829081672516,-0.09748677767075477,0.01483640885309789,-4.022990071019942,12.965030073382625,-82.43206880803427,-0.7429,-0.0351,0.1129,-0.6589
56,425000.0,76.251278,1.0,2.15,-0.96,9.61,-1.37,38.69,-15.0,0.19,0.06,-0.25,0.013556704151607896,-0.03257678216875132,-0.08753793883743022,-4.045922594423996,12.941964550756788,-82.44730326413901,-0.7428,-0.0353,0.1127,-0.659
57,425000.0,76.251278,1.0,2.15,-0.96,9.61,-1.37,38.69,-15.0,0.19,0.06,-0.25,0.013556704151607896,-0.03257678216875132,-0.08753793883743022,-4.045922594423996,12.941964550756788,-82.44730326413901,-0.7428,-0.0353,0.1127,-0.659
58,425035.0,76.33968399999999,1.0,2.23,-0.88,9.57,0.06,37.56,-15.0,-0.06,0.63,1.56,-0.05663907430943471,-0.1276208893876215,-0.05807021518366717,-4.034456312516312,12.965030073382625,-82.46253949499255,-0.7427,-0.0352,0.1129,-0.6591
59,425035.0,76.33968399999999,1.0,2.23,-0.88,9.57,0.06,37.56,-15.0,-0.06,0.63,1.56,-0.05663907430943471,-0.1276208893876215,-0.05807021518366717,-4.034456312516312,12.965030073382625,-82.46253949499255,-0.7427,-0.0352,0.1129,-0.6591
60,425070.0,76.395989,1.0,2.2,-0.84,9.52,0.06,37.56,-15.0,-0.75,-0.94,-0.69,-0.09484489094486714,-0.10964953605496047,0.0007853555178716222,-4.045922594423996,12.988096123558293,-82.46253949499255,-0.7427,-0.0353,0.1131,-0.6591
61,425070.0,76.395989,1.0,2.2,-0.84,9.52,0.06,37.56,-15.0,-0.75,-0.94,-0.69,-0.09484489094486714,-0.10964953605496047,0.0007853555178716222,-4.045922594423996,12.988096123558293,-82.46253949499255,-0.7427,-0.0353,0.1131,-0.6591
62,425105.0,76.415121,1.0,2.16,-0.95,9.46,-2.06,39.5,-13.75,0.37,0.5,1.37,0.015026494467485468,-0.06761138987168314,0.057039602429044926,-4.045922594423996,12.999629346780694,-82.47777750148487,-0.7426,-0.0353,0.1132,-0.6592
63,425105.0,76.415121,1.0,2.16,-0.95,9.46,-2.06,39.5,-13.75,0.37,0.5,1.37,0.015026494467485468,-0.06761138987168314,0.057039602429044926,-4.045922594423996,12.999629346780694,-82.47777750148487,-0.7426,-0.0353,0.1132,-0.6592
64,425140.0,76.41850699999999,1.0,2.22,-0.88,9.58,-0.56,37.56,-13.75,0.12,-0.25,1.0,-0.06590313565220103,-0.11400774477260567,-0.06562729608741691,-4.022990071019942,12.999629346780694,-82.52350218370225,-0.7423,-0.0351,0.1132,-0.6595
65,425140.0,76.41850699999999,1.0,2.22,-0.88,9.58,-0.56,37.56,-13.75,0.12,-0.25,1.0,-0.06590313565220103,-0.11400774477260567,-0.06562729608741691,-4.022990071019942,12.999629346780694,-82.52350218370225,-0.7423,-0.0351,0.1132,-0.6595
66,425175.0,76.460713,1.0,2.19,-0.89,9.56,-0.56,37.56,-13.75,0.0,-0.37,0.25,-0.05566951865200098,-0.08608524149371892,-0.040750176487703633,-4.034456312516312,12.999629346780694,-82.52350218370225,-0.7422,-0.0352,0.1132,-0.6595
67,425175.0,76.460713,1.0,2.19,-0.89,9.56,-0.56,37.56,-13.75,0.0,-0.37,0.25,-0.05566951865200098,-0.08608524149371892,-0.040750176487703633,-4.034456312516312,12.999629346780694,-82.52350218370225,-0.7422,-0.0352,0.1132,-0.6595
68,425209.0,76.52283800000001,1.0,2.13,-0.97,9.46,-1.0,38.0,-13.75,0.19,0.0,-0.88,0.02942276362780649,-0.037839903891470635,0.0615434104005832,-4.034456312516312,12.999629346780694,-82.52350218370225,-0.7423,-0.0352,0.1132,-0.6595
69,425209.0,76.52283800000001,1.0,2.13,-0.97,9.46,-1.0,38.0,-13.75,0.19,0.0,-0.88,0.02942276362780649,-0.037839903891470635,0.0615434104005832,-4.034456312516312,12.999629346780694,-82.52350218370225,-0.7423,-0.0352,0.1132,-0.6595
70,425244.0,76.530264,1.0,2.22,-0.88,9.6,-0.25,38.0,-14.56,-1.06,0.94,1.75,-0.0702895262144301,-0.11171960670979286,-0.0850322690572316,-4.011523869819651,12.999629346780694,-82.55399419971695,-0.7421,-0.035,0.1132,-0.6597
71,425244.0,76.530264,1.0,2.22,-0.88,9.6,-0.25,38.0,-14.56,-1.06,0.94,1.75,-0.0702895262144301,-0.11171960670979286,-0.0850322690572316,-4.011523869819651,12.999629346780694,-82.55399419971695,-0.7421,-0.035,0.1132,-0.6597
72,425281.0,76.548316,1.0,2.24,-0.9,9.59,-1.0,38.25,-15.0,0.56,-0.37,1.25,-0.051008748341145736,-0.13120265823897076,-0.0815188886296685,-4.000057708800217,13.011162702254634,-82.59974558341173,-0.7418,-0.0349,0.1133,-0.66
73,425281.0,76.548316,1.0,2.24,-0.9,9.59,-1.0,38.25,-15.0,0.56,-0.37,1.25,-0.051008748341145736,-0.13120265823897076,-0.0815188886296685,-4.000057708800217,13.011162702254634,-82.59974558341173,-0.7418,-0.0349,0.1133,-0.66
74,425316.0,76.597111,1.0,2.14,-0.93,9.48,-1.0,38.25,-15.0,0.19,-0.44,0.12,-0.018655954645235784,-0.052794271092724436,0.04387556235697687,-4.000057708800217,13.011162702254634,-82.63025542276526,-0.7417,-0.0349,0.1133,-0.6602
75,425316.0,76.597111,1.0,2.14,-0.93,9.48,-1.0,38.25,-15.0,0.19,-0.44,0.12,-0.018655954645235784,-0.052794271092724436,0.04387556235697687,-4.000057708800217,13.011162702254634,-82.63025542276526,-0.7417,-0.0349,0.1133,-0.6602
76,425353.0,76.61567,1.0,2.15,-0.94,9.64,-1.37,37.56,-15.0,-0.06,0.56,1.12,-0.027952841679553253,-0.029547566964298718,-0.1147433285566546,-4.000057708800217,13.011162702254634,-82.67603357506403,-0.7415,-0.0349,0.1133,-0.6605
77,425353.0,76.61567,1.0,2.15,-0.94,9.64,-1.37,37.56,-15.0,-0.06,0.56,1.12,-0.027952841679553253,-0.029547566964298718,-0.1147433285566546,-4.000057708800217,13.011162702254634,-82.67603357506403,-0.7415,-0.0349,0.1133,-0.6605
78,425388.0,76.697862,1.0,2.13,-0.92,9.64,-1.37,38.69,-14.19,0.12,-0.81,0.81,-0.05320095379053619,-0.010067613461997305,-0.1084883400169936,-4.000057708800217,13.034229810442689,-82.69129653429431,-0.7413,-0.0349,0.1135,-0.6606
79,425388.0,76.697862,1.0,2.13,-0.92,9.64,-1.37,38.69,-14.19,0.12,-0.81,0.81,-0.05320095379053619,-0.010067613461997305,-0.1084883400169936,-4.000057708800217,13.034229810442689,-82.69129653429431,-0.7413,-0.0349,0.1135,-0.6606
80,425422.0,76.70344200000001,1.0,2.16,-0.93,9.61,-1.37,38.69,-14.19,-0.88,0.25,0.5,-0.03792502933016753,-0.045482100832976664,-0.08673632979901846,-3.988591587846416,13.034229810442689,-82.69129653429431,-0.7413,-0.0348,0.1135,-0.6606
81,425422.0,76.70344200000001,1.0,2.16,-0.93,9.61,-1.37,38.69,-14.19,-0.88,0.25,0.5,-0.03792502933016753,-0.045482100832976664,-0.08673632979901846,-3.988591587846416,13.034229810442689,-82.69129653429431,-0.7413,-0.0348,0.1135,-0.6606
82,425457.0,76.713856,1.0,2.24,-0.89,9.41,-0.25,38.25,-14.19,0.0,0.5,0.69,-0.04535275911433573,-0.1715078277453012,0.09447577420159624,-3.977125506843028,13.022696190101502,-82.72182782084748,-0.7411,-0.0347,0.1134,-0.6608
83,425457.0,76.713856,1.0,2.24,-0.89,9.41,-0.25,38.25,-14.19,0.0,0.5,0.69,-0.04535275911433573,-0.1715078277453012,0.09447577420159624,-3.977125506843028,13.022696190101502,-82.72182782084748,-0.7411,-0.0347,0.1134,-0.6608
84,425494.0,76.755325,1.0,2.14,-0.94,9.66,-0.56,38.69,-14.19,0.69,-0.5,0.5,-0.03548081782856005,-0.013545200342832629,-0.13202987406345024,-4.000057708800217,13.034229810442689,-82.72182782084748,-0.7411,-0.0349,0.1135,-0.6608
85,425494.0,76.755325,1.0,2.14,-0.94,9.66,-0.56,38.69,-14.19,0.69,-0.5,0.5,-0.03548081782856005,-0.013545200342832629,-0.13202987406345024,-4.000057708800217,13.034229810442689,-82.72182782084748,-0.7411,-0.0349,0.1135,-0.6608
86,425529.0,76.819542,1.0,2.19,-0.91,9.58,-0.56,38.69,-14.19,-1.0,0.12,0.25,-0.05459015011591417,-0.0835357491657045,-0.062019702352069224,-3.977125506843028,13.045763563399612,-82.72182782084748,-0.741,-0.0347,0.1136,-0.6608
87,425529.0,76.819542,1.0,2.19,-0.91,9.58,-0.56,38.69,-14.19,-1.0,0.12,0.25,-0.05459015011591417,-0.0835357491657045,-0.062019702352069224,-3.977125506843028,13.045763563399612,-82.72182782084748,-0.741,-0.0347,0.1136,-0.6608
88,425564.0,76.84000999999999,1.0,2.2,-0.98,9.47,-1.37,38.0,-15.75,0.56,0.0,0.94,0.02989353968596306,-0.10567759820668997,0.03581387295732519,-3.988591587846416,13.045763563399612,-82.75236627086224,-0.7409,-0.0348,0.1136,-0.6609999999999999
89,425564.0,76.84000999999999,1.0,2.2,-0.98,9.47,-1.37,38.0,-15.75,0.56,0.0,0.94,0.02989353968596306,-0.10567759820668997,0.03581387295732519,-3.988591587846416,13.045763563399612,-82.75236627086224,-0.7409,-0.0348,0.1136,-0.6609999999999999
90,425598.0,76.892297,1.0,2.17,-0.9,9.61,-1.0,37.56,-14.19,-0.69,-0.81,0.06,-0.0737821680201205,-0.057170053635808786,-0.08588697373173737,-3.977125506843028,13.06883146764636,-82.76763818442198,-0.7408,-0.0347,0.1138,-0.6611
91,425598.0,76.892297,1.0,2.17,-0.9,9.61,-1.0,37.56,-14.19,-0.69,-0.81,0.06,-0.0737821680201205,-0.057170053635808786,-0.08588697373173737,-3.977125506843028,13.06883146764636,-82.76763818442198,-0.7408,-0.0347,0.1138,-0.6611
92,425633.0,76.91058100000001,1.0,2.19,-0.96,9.59,-1.0,37.56,-13.75,-1.0,0.31,-0.19,-0.011389562418133324,-0.07469540241810535,-0.07667387786242408,-3.965659465674837,13.06883146764636,-82.76763818442198,-0.7408,-0.0346,0.1138,-0.6611
93,425633.0,76.91058100000001,1.0,2.19,-0.96,9.59,-1.0,37.56,-13.75,-1.0,0.31,-0.19,-0.011389562418133324,-0.07469540241810535,-0.07667387786242408,-3.965659465674837,13.06883146764636,-82.76763818442198,-0.7408,-0.0346,0.1138,-0.6611
94,425670.0,76.95815,1.0,2.19,-0.96,9.51,-1.0,37.56,-13.75,-0.19,-0.31,2.0,-0.005257233867644956,-0.09145352984203757,0.0010695167562086991,-3.9541934642266314,13.080365619179068,-82.81346469014701,-0.7405,-0.0345,0.1139,-0.6614
95,425670.0,76.95815,1.0,2.19,-0.96,9.51,-1.0,37.56,-13.75,-0.19,-0.31,2.0,-0.005257233867644956,-0.09145352984203757,0.0010695167562086991,-3.9541934642266314,13.080365619179068,-82.81346469014701,-0.7405,-0.0345,0.1139,-0.6614
96,425705.0,77.023459,1.0,2.36,-1.14,9.37,-1.0,38.69,-15.0,-2.44,-0.88,2.81,0.1952528539301251,-0.26033855799824385,0.08244308332800365,-3.931261580029344,13.138038375794716,-82.88987813746495,-0.7401,-0.0343,0.1144,-0.6619
97,425705.0,77.023459,1.0,2.36,-1.14,9.37,-1.0,38.69,-15.0,-2.44,-0.88,2.81,0.1952528539301251,-0.26033855799824385,0.08244308332800365,-3.931261580029344,13.138038375794716,-82.88987813746495,-0.7401,-0.0343,0.1144,-0.6619
98,425742.0,77.036772,1.0,2.22,-1.05,9.71,-0.25,38.25,-13.38,-3.81,-3.19,2.63,0.008211118738025547,-0.049491021922537286,-0.2089619741271012,-3.851001219583861,13.380300633180664,-82.95104130462066,-0.7394,-0.0336,0.1165,-0.6623
99,425742.0,77.036772,1.0,2.22,-1.05,9.71,-0.25,38.25,-13.38,-3.81,-3.19,2.63,0.008211118738025547,-0.049491021922537286,-0.2089619741271012,-3.851001219583861,13.380300633180664,-82.95104130462066,-0.7394,-0.0336,0.1165,-0.6623
100,425775.0,77.044492,1.0,2.13,-0.79,9.62,-0.25,38.25,-13.38,-3.94,-1.69,0.37,-0.2745665690945284,-0.0019462778814642867,-0.07413991837889887,-3.7822081305683333,13.541842119876778,-82.95104130462066,-0.7391,-0.033,0.1179,-0.6623
101,425775.0,77.044492,1.0,2.13,-0.79,9.62,-0.25,38.25,-13.38,-3.94,-1.69,0.37,-0.2745665690945284,-0.0019462778814642867,-0.07413991837889887,-3.7822081305683333,13.541842119876778,-82.95104130462066,-0.7391,-0.033,0.1179,-0.6623
102,425809.0,77.091043,1.0,2.29,-1.05,9.37,-0.25,38.25,-14.19,-0.19,-0.88,0.37,0.024111054407437188,-0.17214334288149086,0.10544979968679337,-3.7822081305683333,13.588001782657653,-82.95104130462066,-0.7391,-0.033,0.1183,-0.6623
103,425809.0,77.091043,1.0,2.29,-1.05,9.37,-0.25,38.25,-14.19,-0.19,-0.88,0.37,0.024111054407437188,-0.17214334288149086,0.10544979968679337,-3.7822081305683333,13.588001782657653,-82.95104130462066,-0.7391,-0.033,0.1183,-0.6623
104,425844.0,77.110079,1.0,2.33,-1.22,9.53,-0.56,38.25,-12.19,-2.5,-2.88,-0.37,0.16413348573901013,-0.1453821015897968,-0.07718145563482537,-3.793673550039814,13.680327762024126,-82.93574780842137,-0.7390000000000001,-0.0331,0.1191,-0.6622
105,425844.0,77.110079,1.0,2.33,-1.22,9.53,-0.56,38.25,-12.19,-2.5,-2.88,-0.37,0.16413348573901013,-0.1453821015897968,-0.07718145563482537,-3.793673550039814,13.680327762024126,-82.93574780842137,-0.7390000000000001,-0.0331,0.1191,-0.6622
106,425879.0,77.147162,1.0,2.28,-0.76,9.57,-0.56,38.25,-12.19,-7.56,-4.06,-0.88,-0.3323988653752133,-0.12461549554479552,-0.05412491744778691,-3.7478120989556993,13.899637842978935,-82.88987813746495,-0.7390000000000001,-0.0327,0.121,-0.6619
107,425879.0,77.147162,1.0,2.28,-0.76,9.57,-0.56,38.25,-12.19,-7.56,-4.06,-0.88,-0.3323988653752133,-0.12461549554479552,-0.05412491744778691,-3.7478120989556993,13.899637842978935,-82.88987813746495,-0.7390000000000001,-0.0327,0.121,-0.6619
108,425914.0,77.156409,1.0,2.27,-1.1,9.49,-0.56,38.25,-13.38,0.37,-2.81,-3.38,-0.0028838013238284828,-0.07031303441916836,-0.01261920706834907,-3.7592774051414257,14.049721543626418,-82.76763818442198,-0.7395,-0.0328,0.1223,-0.6611
109,425914.0,77.156409,1.0,2.27,-1.1,9.49,-0.56,38.25,-13.38,0.37,-2.81,-3.38,-0.0028838013238284828,-0.07031303441916836,-0.01261920706834907,-3.7592774051414257,14.049721543626418,-82.76763818442198,-0.7395,-0.0328,0.1223,-0.6611
110,425947.0,77.22743,1.0,2.26,-1.16,9.52,-1.75,39.06,-13.38,-0.63,-4.19,-2.63,0.051429513109956304,-0.026561896951413425,-0.0462810091369068,-3.8395356089996184,14.130545861300053,-82.69129653429431,-0.7399,-0.0335,0.12300000000000001,-0.6606
111,425947.0,77.22743,1.0,2.26,-1.16,9.52,-1.75,39.06,-13.38,-0.63,-4.19,-2.63,0.051429513109956304,-0.026561896951413425,-0.0462810091369068,-3.8395356089996184,14.130545861300053,-82.69129653429431,-0.7399,-0.0335,0.12300000000000001,-0.6606
112,425984.0,77.245636,1.0,2.27,-1.22,9.54,-1.0,39.06,-14.19,-3.19,-2.0,0.12,0.0955180764778054,-0.0007116772376931646,-0.07483651724938943,-3.8853982832056495,14.280666944469896,-82.63025542276526,-0.74,-0.0339,0.1243,-0.6602
113,425984.0,77.245636,1.0,2.27,-1.22,9.54,-1.0,39.06,-14.19,-3.19,-2.0,0.12,0.0955180764778054,-0.0007116772376931646,-0.07483651724938943,-3.8853982832056495,14.280666944469896,-82.63025542276526,-0.74,-0.0339,0.1243,-0.6602
114,426016.0,77.32935400000001,1.0,2.44,-0.88,9.36,-1.0,39.06,-14.19,-4.69,-3.19,-1.88,-0.22499361482862207,-0.2282834487277638,0.0991856276562455,-3.851001219583861,14.477016351828802,-82.53874730166079,-0.7402,-0.0336,0.126,-0.6596
115,426016.0,77.32935400000001,1.0,2.44,-0.88,9.36,-1.0,39.06,-14.19,-4.69,-3.19,-1.88,-0.22499361482862207,-0.2282834487277638,0.0991856276562455,-3.851001219583861,14.477016351828802,-82.53874730166079,-0.7402,-0.0336,0.126,-0.6596
116,426053.0,77.340098,1.0,2.33,-1.12,9.43,-1.0,39.5,-13.38,1.44,-3.31,-3.5,-0.005918394404172772,-0.05536050971852302,0.02886394248312385,-3.942727502383202,14.54632631618216,-82.43206880803427,-0.7407,-0.0344,0.1266,-0.6589
117,426053.0,77.340098,1.0,2.33,-1.12,9.43,-1.0,39.5,-13.38,1.44,-3.31,-3.5,-0.005918394404172772,-0.05536050971852302,0.02886394248312385,-3.942727502383202,14.54632631618216,-82.43206880803427,-0.7407,-0.0344,0.1266,-0.6589
118,426088.0,77.343283,1.0,2.44,-1.18,9.56,-0.25,39.5,-13.0,-0.81,-3.75,-1.25,0.04571799693854745,-0.10513219812872476,-0.12946881398731058,-4.022990071019942,14.627194705880914,-82.35592311764404,-0.741,-0.0351,0.1273,-0.6584
119,426088.0,77.343283,1.0,2.44,-1.18,9.56,-0.25,39.5,-13.0,-0.81,-3.75,-1.25,0.04571799693854745,-0.10513219812872476,-0.12946881398731058,-4.022990071019942,14.627194705880914,-82.35592311764404,-0.741,-0.0351,0.1273,-0.6584
120,426123.0,77.39799599999999,1.0,2.56,-1.01,9.43,-0.25,39.5,-13.0,-3.56,-6.19,-2.0,-0.10518189114314447,-0.2375616348908148,-0.013283871437399952,-4.11472114096103,14.823619947246295,-82.31025694358621,-0.741,-0.0359,0.129,-0.6581
121,426123.0,77.39799599999999,1.0,2.56,-1.01,9.43,-0.25,39.5,-13.0,-3.56,-6.19,-2.0,-0.10518189114314447,-0.2375616348908148,-0.013283871437399952,-4.11472114096103,14.823619947246295,-82.31025694358621,-0.741,-0.0359,0.129,-0.6581
122,426158.0,77.41756600000001,1.0,2.42,-0.99,9.38,-0.56,39.5,-12.19,1.12,-6.44,-1.5,-0.13319874055639835,-0.07958803290584883,0.07028395097881734,-4.263789782102698,14.973857013009212,-82.23418197710798,-0.7411,-0.0372,0.1303,-0.6576
123,426158.0,77.41756600000001,1.0,2.42,-0.99,9.38,-0.56,39.5,-12.19,1.12,-6.44,-1.5,-0.13319874055639835,-0.07958803290584883,0.07028395097881734,-4.263789782102698,14.973857013009212,-82.23418197710798,-0.7411,-0.0372,0.1303,-0.6576
124,426192.0,77.46406800000001,1.0,2.41,-1.1,9.52,-1.0,39.5,-13.75,0.44,-5.88,-1.12,-0.03618419697138142,0.017756742621424126,-0.07499335533219842,-4.481672390551605,15.089441590206313,-82.20376433319544,-0.741,-0.0391,0.1313,-0.6574
125,426192.0,77.46406800000001,1.0,2.41,-1.1,9.52,-1.0,39.5,-13.75,0.44,-5.88,-1.12,-0.03618419697138142,0.017756742621424126,-0.07499335533219842,-4.481672390551605,15.089441590206313,-82.20376433319544,-0.741,-0.0391,0.1313,-0.6574
126,426227.0,77.520375,1.0,2.39,-1.18,9.49,-1.0,39.5,-13.75,1.0,-4.38,-0.81,0.045363568251501764,0.06522702750522325,-0.050240360633941,-4.584885551911774,15.18192036535379,-82.14295016552349,-0.7411,-0.04,0.1321,-0.657
127,426227.0,77.520375,1.0,2.39,-1.18,9.49,-1.0,39.5,-13.75,1.0,-4.38,-0.81,0.045363568251501764,0.06522702750522325,-0.050240360633941,-4.584885551911774,15.18192036535379,-82.14295016552349,-0.7411,-0.04,0.1321,-0.657
128,426260.0,77.53478,1.0,2.46,-1.05,9.36,-1.0,39.75,-12.19,-1.06,-3.06,0.06,-0.06388919333250226,-0.028288242053894574,0.07223589609334091,-4.6536963885673295,15.29753283007483,-82.14295016552349,-0.741,-0.0406,0.1331,-0.657
129,426260.0,77.53478,1.0,2.46,-1.05,9.36,-1.0,39.75,-12.19,-1.06,-3.06,0.06,-0.06388919333250226,-0.028288242053894574,0.07223589609334091,-4.6536963885673295,15.29753283007483,-82.14295016552349,-0.741,-0.0406,0.1331,-0.657
130,426297.0,77.552257,1.0,2.5,-1.1,9.41,-1.75,39.75,-13.75,0.63,-1.25,-0.56,-0.018573009206397928,-0.040071772998431336,0.008377228927651359,-4.6881024349692195,15.332219618835126,-82.14295016552349,-0.7409,-0.0409,0.1334,-0.657
131,426297.0,77.552257,1.0,2.5,-1.1,9.41,-1.75,39.75,-13.75,0.63,-1.25,-0.56,-0.018573009206397928,-0.040071772998431336,0.008377228927651359,-4.6881024349692195,15.332219618835126,-82.14295016552349,-0.7409,-0.0409,0.1334,-0.657
132,426332.0,77.59843000000001,1.0,2.54,-1.09,9.47,-1.0,40.19,-12.56,-0.44,-1.06,-1.0,-0.034155942983908394,-0.055580515148337284,-0.05825467150568819,-4.7225089042433,15.37847086963133,-82.09735799224998,-0.7411,-0.0412,0.1338,-0.6567
133,426332.0,77.59843000000001,1.0,2.54,-1.09,9.47,-1.0,40.19,-12.56,-0.44,-1.06,-1.0,-0.034155942983908394,-0.055580515148337284,-0.05825467150568819,-4.7225089042433,15.37847086963133,-82.09735799224998,-0.7411,-0.0412,0.1338,-0.6567
134,426366.0,77.663402,1.0,2.65,-1.1,9.37,-1.0,40.19,-12.56,-0.81,-0.25,0.12,0.0011314441581458667,-0.18102606949772987,0.008863092641979264,-4.733977821845079,15.39003407585724,-82.09735799224998,-0.7411,-0.0413,0.1339,-0.6567
135,426366.0,77.663402,1.0,2.65,-1.1,9.37,-1.0,40.19,-12.56,-0.81,-0.25,0.12,0.0011314441581458667,-0.18102606949772987,0.008863092641979264,-4.733977821845079,15.39003407585724,-82.09735799224998,-0.7411,-0.0413,0.1339,-0.6567
136,426403.0,77.671065,1.0,2.63,-0.99,9.51,-1.37,39.75,-13.0,-1.06,-1.63,0.12,-0.14129308353384035,-0.13260248378103096,-0.10796309612435806,-4.733977821845079,15.482545411826456,-82.08216411124334,-0.741,-0.0413,0.1347,-0.6566
137,426403.0,77.671065,1.0,2.63,-0.99,9.51,-1.37,39.75,-13.0,-1.06,-1.63,0.12,-0.14129308353384035,-0.13260248378103096,-0.10796309612435806,-4.733977821845079,15.482545411826456,-82.08216411124334,-0.741,-0.0413,0.1347,-0.6566
138,426438.0,77.68927099999999,1.0,2.66,-1.11,9.45,-1.37,40.19,-12.19,-0.12,-3.19,1.44,-0.013405764598474644,-0.14306348613876976,-0.07209248699748905,-4.802792327898413,15.551935573755918,-82.09735799224998,-0.7407,-0.0419,0.1353,-0.6567
139,426438.0,77.68927099999999,1.0,2.66,-1.11,9.45,-1.37,40.19,-12.19,-0.12,-3.19,1.44,-0.013405764598474644,-0.14306348613876976,-0.07209248699748905,-4.802792327898413,15.551935573755918,-82.09735799224998,-0.7407,-0.0419,0.1353,-0.6567
140,426471.0,77.73051,1.0,2.62,-1.11,9.29,-1.37,40.19,-12.19,-1.06,-3.81,0.88,-0.002127459115319086,-0.11914117270954623,0.0913836189436843,-4.883078110442899,15.679165793853409,-82.12775101851454,-0.7404,-0.0426,0.1364,-0.6569
141,426471.0,77.73051,1.0,2.62,-1.11,9.29,-1.37,40.19,-12.19,-1.06,-3.81,0.88,-0.002127459115319086,-0.11914117270954623,0.0913836189436843,-4.883078110442899,15.679165793853409,-82.12775101851454,-0.7404,-0.0426,0.1364,-0.6569
142,426508.0,77.789726,1.0,2.51,-1.05,9.31,-1.75,39.75,-13.75,-1.12,-3.81,-0.94,-0.08174005708835007,0.002658016254832529,0.1075772866929814,-4.940426564140192,15.7832777083714,-82.09735799224998,-0.7403,-0.0431,0.1373,-0.6567
143,426508.0,77.789726,1.0,2.51,-1.05,9.31,-1.75,39.75,-13.75,-1.12,-3.81,-0.94,-0.08174005708835007,0.002658016254832529,0.1075772866929814,-4.940426564140192,15.7832777083714,-82.09735799224998,-0.7403,-0.0431,0.1373,-0.6567
144,426543.0,77.80693000000001,1.0,2.57,-1.19,9.42,-1.37,39.5,-13.0,-0.94,-3.06,-0.44,0.04353853799263502,0.011970756332339459,-0.02978030253873598,-5.020716482682318,15.875832638109523,-82.05178160910839,-0.7403,-0.0438,0.1381,-0.6564
145,426543.0,77.80693000000001,1.0,2.57,-1.19,9.42,-1.37,39.5,-13.0,-0.94,-3.06,-0.44,0.04353853799263502,0.011970756332339459,-0.02978030253873598,-5.020716482682318,15.875832638109523,-82.05178160910839,-0.7403,-0.0438,0.1381,-0.6564
146,426577.0,77.85945,1.0,2.72,-0.97,9.4,-1.37,39.5,-13.0,-1.25,-2.0,-1.37,-0.16366886418137688,-0.1531158695167505,-0.024375787444547825,-5.0436569106979485,15.968397992715149,-82.03659298623278,-0.7404,-0.044000000000000004,0.1389,-0.6563
147,426577.0,77.85945,1.0,2.72,-0.97,9.4,-1.37,39.5,-13.0,-1.25,-2.0,-1.37,-0.16366886418137688,-0.1531158695167505,-0.024375787444547825,-5.0436569106979485,15.968397992715149,-82.03659298623278,-0.7404,-0.044000000000000004,0.1389,-0.6563
148,426610.0,77.923064,1.0,2.66,-1.06,9.29,-1.75,40.56,-13.75,0.94,-3.38,-3.44,-0.05843502730019505,-0.08669097893028965,0.08593140404442501,-5.15836210329675,16.03782888845279,-81.89997406921938,-0.7409,-0.045,0.1395,-0.6554
149,426610.0,77.923064,1.0,2.66,-1.06,9.29,-1.75,40.56,-13.75,0.94,-3.38,-3.44,-0.05843502730019505,-0.08669097893028965,0.08593140404442501,-5.15836210329675,16.03782888845279,-81.89997406921938,-0.7409,-0.045,0.1395,-0.6554
150,426647.0,77.94039699999999,1.0,2.62,-1.14,9.46,-1.0,40.19,-13.38,1.37,-2.63,-0.31,-0.001571274250270316,0.022364935861362345,-0.07540936739610693,-5.261601195679236,16.072546557241562,-81.88480291681634,-0.7409,-0.0459,0.1398,-0.6553
151,426647.0,77.94039699999999,1.0,2.62,-1.14,9.46,-1.0,40.19,-13.38,1.37,-2.63,-0.31,-0.001571274250270316,0.022364935861362345,-0.07540936739610693,-5.261601195679236,16.072546557241562,-81.88480291681634,-0.7409,-0.0459,0.1398,-0.6553
152,426682.0,77.943527,1.0,2.72,-1.06,9.4,-1.0,40.19,-13.38,-0.31,-1.31,-0.5,-0.061828830191504536,-0.08822024224765712,-0.03562587423838437,-5.307486603594608,16.118839093056636,-81.86963350668476,-0.7409,-0.0463,0.1402,-0.6552
153,426682.0,77.943527,1.0,2.72,-1.06,9.4,-1.0,40.19,-13.38,-0.31,-1.31,-0.5,-0.061828830191504536,-0.08822024224765712,-0.03562587423838437,-5.307486603594608,16.118839093056636,-81.86963350668476,-0.7409,-0.0463,0.1402,-0.6552
154,426715.0,77.983249,1.0,2.74,-1.09,9.35,-1.0,40.19,-13.75,0.56,-1.94,-1.88,-0.02130981957763245,-0.1025756894951388,0.0032207979547198558,-5.364844561963229,16.16513427708501,-81.8089732715648,-0.7411,-0.0468,0.1406,-0.6548
155,426715.0,77.983249,1.0,2.74,-1.09,9.35,-1.0,40.19,-13.75,0.56,-1.94,-1.88,-0.02130981957763245,-0.1025756894951388,0.0032207979547198558,-5.364844561963229,16.16513427708501,-81.8089732715648,-0.7411,-0.0468,0.1406,-0.6548
156,426749.0,78.003211,1.0,2.68,-1.07,9.37,-1.0,40.19,-12.56,-0.06,-2.19,-0.75,-0.05009832622703486,-0.028522203917666026,0.002524509085835902,-5.422203865470181,16.223006993376618,-81.76349634670957,-0.7413,-0.0473,0.1411,-0.6545
157,426749.0,78.003211,1.0,2.68,-1.07,9.37,-1.0,40.19,-12.56,-0.06,-2.19,-0.75,-0.05009832622703486,-0.028522203917666026,0.002524509085835902,-5.422203865470181,16.223006993376618,-81.76349634670957,-0.7413,-0.0473,0.1411,-0.6545
158,426786.0,78.042755,1.0,2.81,-1.07,9.38,-1.37,40.19,-13.38,0.0,-1.69,-0.94,-0.03852507883379741,-0.14185807827540114,-0.04240031482370021,-5.456620099259026,16.257732621833743,-81.74834084363056,-0.7413,-0.0476,0.1414,-0.6544
159,426786.0,78.042755,1.0,2.81,-1.07,9.38,-1.37,40.19,-13.38,0.0,-1.69,-0.94,-0.03852507883379741,-0.14185807827540114,-0.04240031482370021,-5.456620099259026,16.257732621833743,-81.74834084363056,-0.7413,-0.0476,0.1414,-0.6544
160,426819.0,78.101621,1.0,2.74,-1.03,9.32,-1.37,40.19,-13.38,-0.94,-2.63,-2.75,-0.07558993194861402,-0.07524520487598041,0.03835821886798918,-5.536926565771378,16.338764939656073,-81.64230083997052,-0.7417,-0.0483,0.1421,-0.6537
161,426819.0,78.101621,1.0,2.74,-1.03,9.32,-1.37,40.19,-13.38,-0.94,-2.63,-2.75,-0.07558993194861402,-0.07524520487598041,0.03835821886798918,-5.536926565771378,16.338764939656073,-81.64230083997052,-0.7417,-0.0483,0.1421,-0.6537
162,426856.0,78.11989799999999,1.0,2.75,-1.12,9.34,-0.56,40.19,-13.0,0.88,-2.5,-1.5,0.015434421560828524,-0.05085460814856835,0.0061563600111878,-5.617235753841245,16.38507281218067,-81.58174459786177,-0.742,-0.049,0.1425,-0.6533
163,426856.0,78.11989799999999,1.0,2.75,-1.12,9.34,-0.56,40.19,-13.0,0.88,-2.5,-1.5,0.015434421560828524,-0.05085460814856835,0.0061563600111878,-5.617235753841245,16.38507281218067,-81.58174459786177,-0.742,-0.049,0.1425,-0.6533
164,426891.0,78.189413,1.0,2.91,-1.04,9.36,-1.37,40.56,-13.75,-0.88,-2.81,-3.25,-0.04948871207822758,-0.19333926423047748,-0.048271146122052855,-5.674601147870103,16.454539675361616,-81.47583755660962,-0.7424,-0.0495,0.1431,-0.6526
165,426891.0,78.189413,1.0,2.91,-1.04,9.36,-1.37,40.56,-13.75,-0.88,-2.81,-3.25,-0.04948871207822758,-0.19333926423047748,-0.048271146122052855,-5.674601147870103,16.454539675361616,-81.47583755660962,-0.7424,-0.0495,0.1431,-0.6526
166,426926.0,78.237291,1.0,2.93,-0.79,9.39,-1.37,40.56,-13.75,-0.56,-3.88,-10.63,-0.2883206222202829,-0.2131781623438468,-0.055019548808775916,-5.800810045139373,16.53559204728263,-81.24917717727452,-0.7435,-0.0506,0.1438,-0.6511
167,426926.0,78.237291,1.0,2.93,-0.79,9.39,-1.37,40.56,-13.75,-0.56,-3.88,-10.63,-0.2883206222202829,-0.2131781623438468,-0.055019548808775916,-5.800810045139373,16.53559204728263,-81.24917717727452,-0.7435,-0.0506,0.1438,-0.6511
168,426958.0,78.255177,1.0,3.26,-0.76,9.31,-0.56,40.19,-13.0,1.56,-5.31,-15.06,-0.22946843459771174,-0.4977716533698441,-0.0716528713754645,-6.11062569758793,16.628233533749974,-80.67668282320093,-0.7465,-0.0533,0.1446,-0.6473
169,426958.0,78.255177,1.0,3.26,-0.76,9.31,-0.56,40.19,-13.0,1.56,-5.31,-15.06,-0.22946843459771174,-0.4977716533698441,-0.0716528713754645,-6.11062569758793,16.628233533749974,-80.67668282320093,-0.7465,-0.0533,0.1446,-0.6473
170,426995.0,78.25832199999999,1.0,4.23,-1.1,8.99,-2.06,41.0,-12.56,-3.19,-20.5,-29.94,0.3194926591095283,-1.3603268333445773,-0.09135158351461392,-6.546738821065048,16.83671699887327,-79.97193860180572,-0.7499,-0.0571,0.1464,-0.6426
171,426995.0,78.25832199999999,1.0,4.23,-1.1,8.99,-2.06,41.0,-12.56,-3.19,-20.5,-29.94,0.3194926591095283,-1.3603268333445773,-0.09135158351461392,-6.546738821065048,16.83671699887327,-79.97193860180572,-0.7499,-0.0571,0.1464,-0.6426
172,427032.0,78.304147,1.0,3.19,-0.44,9.27,-2.06,41.0,-12.56,-3.13,-36.31,-54.31,-0.477166583160548,-0.15957485510731018,0.006167975245686463,-7.522608280519941,17.856791554733764,-77.93802615712528,-0.759,-0.0656,0.1552,-0.6289
173,427032.0,78.304147,1.0,3.19,-0.44,9.27,-2.06,41.0,-12.56,-3.13,-36.31,-54.31,-0.477166583160548,-0.15957485510731018,0.006167975245686463,-7.522608280519941,17.856791554733764,-77.93802615712528,-0.759,-0.0656,0.1552,-0.6289
174,427065.0,78.323375,1.0,3.26,-0.86,9.13,-2.06,41.0,-13.38,4.69,-27.62,-63.88,0.04251055893711729,0.014153551932667431,0.07412244908361387,-8.430081473298436,18.35575126897081,-76.10743471714315,-0.7676,-0.0735,0.1595,-0.6164
175,427065.0,78.323375,1.0,3.26,-0.86,9.13,-2.06,41.0,-13.38,4.69,-27.62,-63.88,0.04251055893711729,0.014153551932667431,0.07412244908361387,-8.430081473298436,18.35575126897081,-76.10743471714315,-0.7676,-0.0735,0.1595,-0.6164
176,427102.0,78.369161,1.0,5.06,-0.49,9.85,-3.56,41.0,-13.38,1.63,-26.25,-61.25,0.08904780170581017,-1.242155130717677,-1.207673452679387,-9.568049817899789,18.86667840059343,-73.72547201814446,-0.7787,-0.0834,0.1639,-0.5999
177,427102.0,78.369161,1.0,5.06,-0.49,9.85,-3.56,41.0,-13.38,1.63,-26.25,-61.25,0.08904780170581017,-1.242155130717677,-1.207673452679387,-9.568049817899789,18.86667840059343,-73.72547201814446,-0.7787,-0.0834,0.1639,-0.5999
178,427137.0,78.434061,1.0,9.69,0.42,9.74,-4.38,40.56,-14.56,-16.94,-49.63,-95.75,0.5920900472588202,-5.4118652904458715,-2.8148096403904184,-10.568860221135683,19.447737797457524,-71.38007517925647,-0.7891,-0.0921,0.1689,-0.5834
179,427137.0,78.434061,1.0,9.69,0.42,9.74,-4.38,40.56,-14.56,-16.94,-49.63,-95.75,0.5920900472588202,-5.4118652904458715,-2.8148096403904184,-10.568860221135683,19.447737797457524,-71.38007517925647,-0.7891,-0.0921,0.1689,-0.5834
180,427171.0,78.492174,1.0,13.17,2.53,8.85,-4.38,40.56,-14.56,-32.44,-142.13,-164.75,0.4471967320443593,-8.210414105148507,-3.9977484043067686,-13.703410648771609,23.179187018494158,-64.9185496744115,-0.8108,-0.1193,0.2009,-0.5367
181,427171.0,78.492174,1.0,13.17,2.53,8.85,-4.38,40.56,-14.56,-32.44,-142.13,-164.75,0.4471967320443593,-8.210414105148507,-3.9977484043067686,-13.703410648771609,23.179187018494158,-64.9185496744115,-0.8108,-0.1193,0.2009,-0.5367
182,427208.0,78.509392,1.0,16.29,3.15,10.38,-7.0,41.19,-14.5,79.75,-290.0,-149.25,1.3214926103502016,-7.83211037863547,-8.080292284741127,-20.05257586733213,27.690458980540107,-59.52422071985297,-0.8161,-0.1741,0.2393,-0.4964
183,427208.0,78.509392,1.0,16.29,3.15,10.38,-7.0,41.19,-14.5,79.75,-290.0,-149.25,1.3214926103502016,-7.83211037863547,-8.080292284741127,-20.05257586733213,27.690458980540107,-59.52422071985297,-0.8161,-0.1741,0.2393,-0.4964
184,427245.0,78.547937,1.0,16.24,5.45,13.49,-11.0,42.69,-15.25,169.75,-408.13,-213.75,-0.9556502967016792,-1.1788529145041369,-11.944608315701627,-32.711441879621354,36.27518399341682,-50.326646830888215,-0.8019,-0.2816,0.3113,-0.4252
185,427245.0,78.547937,1.0,16.24,5.45,13.49,-11.0,42.69,-15.25,169.75,-408.13,-213.75,-0.9556502967016792,-1.1788529145041369,-11.944608315701627,-32.711441879621354,36.27518399341682,-50.326646830888215,-0.8019,-0.2816,0.3113,-0.4252
186,427280.0,78.555412,1.0,12.46,3.46,10.43,-11.0,42.69,-15.25,181.44,-393.44,-226.56,0.2733214940119857,3.582527955362375,-6.413673326307594,-44.48160022735979,41.611404826079344,-42.76593619701882,-0.7731,-0.3785,0.3552,-0.3646
187,427280.0,78.555412,1.0,12.46,3.46,10.43,-11.0,42.69,-15.25,181.44,-393.44,-226.56,0.2733214940119857,3.582527955362375,-6.413673326307594,-44.48160022735979,41.611404826079344,-42.76593619701882,-0.7731,-0.3785,0.3552,-0.3646
188,427315.0,78.624829,1.0,5.84,7.34,5.11,-14.38,40.88,-20.69,131.75,-321.38,-221.94,-4.2305439444896695,1.7669519668379718,0.1591799336753983,-57.592981343645185,46.656712208804855,-31.840606172111105,-0.7321,-0.4817,0.396,-0.2743
189,427315.0,78.624829,1.0,5.84,7.34,5.11,-14.38,40.88,-20.69,131.75,-321.38,-221.94,-4.2305439444896695,1.7669519668379718,0.1591799336753983,-57.592981343645185,46.656712208804855,-31.840606172111105,-0.7321,-0.4817,0.396,-0.2743
190,427352.0,78.643913,1.0,8.47,17.16,4.99,-19.56,31.37,-21.19,76.12,-255.13,-192.88,-9.434866911158283,0.9312197850099082,-7.5491189567687105,-67.2837297114374,49.17721568249704,-22.302542365509357,-0.6946,-0.5539999999999999,0.4161,-0.1934
191,427352.0,78.643913,1.0,8.47,17.16,4.99,-19.56,31.37,-21.19,76.12,-255.13,-192.88,-9.434866911158283,0.9312197850099082,-7.5491189567687105,-67.2837297114374,49.17721568249704,-22.302542365509357,-0.6946,-0.5539999999999999,0.4161,-0.1934
192,427388.0,78.647068,1.0,9.34,11.97,2.74,-22.56,18.5,-21.5,405.75,-173.88,-86.44,-4.267503102895527,3.6922481704391945,-4.552313079368423,-78.18880666556636,49.11421404634533,-20.54151049721856,-0.6307,-0.6306,0.4156,-0.1783
193,427388.0,78.647068,1.0,9.34,11.97,2.74,-22.56,18.5,-21.5,405.75,-173.88,-86.44,-4.267503102895527,3.6922481704391945,-4.552313079368423,-78.18880666556636,49.11421404634533,-20.54151049721856,-0.6307,-0.6306,0.4156,-0.1783
194,427423.0,78.690575,1.0,3.51,9.85,1.96,-22.56,18.5,-21.5,253.75,-206.94,-157.06,-5.608248145217099,4.001630039525724,1.6999422978292669,-91.82860613360762,48.070674990989744,-16.987323268750952,-0.5444,-0.7183,0.4073,-0.1477
195,427423.0,78.690575,1.0,3.51,9.85,1.96,-22.56,18.5,-21.5,253.75,-206.94,-157.06,-5.608248145217099,4.001630039525724,1.6999422978292669,-91.82860613360762,48.070674990989744,-16.987323268750952,-0.5444,-0.7183,0.4073,-0.1477
196,427458.0,78.708359,1.0,1.55,7.46,-0.94,-27.69,1.19,-20.37,257.75,-93.06,-160.38,-4.137938577479239,1.5421268171089544,3.5267607327467547,-100.6898195801236,45.23782004339508,-14.592535930080526,-0.4932,-0.7699,0.3846,-0.127
197,427458.0,78.708359,1.0,1.55,7.46,-0.94,-27.69,1.19,-20.37,257.75,-93.06,-160.38,-4.137938577479239,1.5421268171089544,3.5267607327467547,-100.6898195801236,45.23782004339508,-14.592535930080526,-0.4932,-0.7699,0.3846,-0.127
198,427495.0,78.801107,1.0,-1.36,4.3,-1.11,-33.19,-14.56,-14.06,196.0,-113.06,-181.56,-3.699374801915698,0.20394444627847674,7.0058049957587185,-112.4031992471798,40.253732215798784,-11.570479767497385,-0.4252,-0.831,0.3441,-0.1008
199,427495.0,78.801107,1.0,-1.36,4.3,-1.11,-33.19,-14.56,-14.06,196.0,-113.06,-181.56,-3.699374801915698,0.20394444627847674,7.0058049957587185,-112.4031992471798,40.253732215798784,-11.570479767497385,-0.4252,-0.831,0.3441,-0.1008
200,427532.0,78.814024,1.0,-4.58,4.1,1.05,-33.19,-14.56,-14.06,145.19,-37.44,-175.75,-6.199404065961166,0.6674733212177029,9.702878171420199,-119.53742748975634,36.03410062770514,-9.142643881088318,-0.3893,-0.8640000000000001,0.3093,-0.0797
201,427532.0,78.814024,1.0,-4.58,4.1,1.05,-33.19,-14.56,-14.06,145.19,-37.44,-175.75,-6.199404065961166,0.6674733212177029,9.702878171420199,-119.53742748975634,36.03410062770514,-9.142643881088318,-0.3893,-0.8640000000000001,0.3093,-0.0797
202,427567.0,78.863966,1.0,0.9,3.13,-5.9,-32.5,-28.25,-1.25,119.56,76.5,-89.12,-0.7925169529959869,-1.8300694365997119,3.369285419953475,-125.94789456078651,30.15199174363297,-10.879617409371033,-0.3604,-0.8908,0.2601,-0.0948
203,427567.0,78.863966,1.0,0.9,3.13,-5.9,-32.5,-28.25,-1.25,119.56,76.5,-89.12,-0.7925169529959869,-1.8300694365997119,3.369285419953475,-125.94789456078651,30.15199174363297,-10.879617409371033,-0.3604,-0.8908,0.2601,-0.0948
204,427601.0,78.882829,1.0,0.0,1.86,-4.47,-27.5,-34.69,5.19,113.12,-18.19,-63.38,-1.0140867420959416,-1.6168875810852006,5.3571778257261,-130.92785324394194,27.277569433768978,-11.132886214620822,-0.3278,-0.9097,0.2358,-0.09699999999999999
205,427601.0,78.882829,1.0,0.0,1.86,-4.47,-27.5,-34.69,5.19,113.12,-18.19,-63.38,-1.0140867420959416,-1.6168875810852006,5.3571778257261,-130.92785324394194,27.277569433768978,-11.132886214620822,-0.3278,-0.9097,0.2358,-0.09699999999999999
206,427638.0,78.885777,1.0,1.38,-0.01,-3.3,-25.0,-34.69,9.88,38.44,8.88,-42.5,1.082717462582972,-1.575641614876116,6.783476766841093,-133.2419635150545,25.641307370957357,-11.34014667578332,-0.3137,-0.9179,0.2219,-0.0988
207,427638.0,78.885777,1.0,1.38,-0.01,-3.3,-25.0,-34.69,9.88,38.44,8.88,-42.5,1.082717462582972,-1.575641614876116,6.783476766841093,-133.2419635150545,25.641307370957357,-11.34014667578332,-0.3137,-0.9179,0.2219,-0.0988
208,427671.0,78.92969599999999,1.0,1.93,1.05,-1.89,-25.0,-34.69,9.88,-47.19,5.88,1.56,1.1461412692959827,0.18104466185116952,7.150885887502094,-132.4398647310081,25.382826336621637,-11.2825706212041,-0.3236,-0.9151,0.2197,-0.0983
209,427671.0,78.92969599999999,1.0,1.93,1.05,-1.89,-25.0,-34.69,9.88,-47.19,5.88,1.56,1.1461412692959827,0.18104466185116952,7.150885887502094,-132.4398647310081,25.382826336621637,-11.2825706212041,-0.3236,-0.9151,0.2197,-0.0983
210,427708.0,78.950187,1.0,4.93,1.7,-4.59,-22.06,-35.69,10.88,-27.0,14.13,7.31,3.352054552397775,-0.1906924229547725,3.7246793754756577,-131.1767984012427,25.60605217391993,-11.858462221253813,-0.3333,-0.9106,0.2216,-0.1033
211,427708.0,78.950187,1.0,4.93,1.7,-4.59,-22.06,-35.69,10.88,-27.0,14.13,7.31,3.352054552397775,-0.1906924229547725,3.7246793754756577,-131.1767984012427,25.60605217391993,-11.858462221253813,-0.3333,-0.9106,0.2216,-0.1033
212,427743.0,78.992594,1.0,5.06,0.71,-3.28,-21.25,-36.38,9.38,-45.75,-7.25,42.75,3.9685905422989487,0.040016975196766114,5.211567003005123,-129.3510733053071,26.923951406436,-11.835420883076136,-0.3438,-0.9039,0.2328,-0.1031
213,427743.0,78.992594,1.0,5.06,0.71,-3.28,-21.25,-36.38,9.38,-45.75,-7.25,42.75,3.9685905422989487,0.040016975196766114,5.211567003005123,-129.3510733053071,26.923951406436,-11.835420883076136,-0.3438,-0.9039,0.2328,-0.1031
214,427778.0,79.11241,1.0,7.34,1.85,-3.78,-21.25,-36.38,9.38,-7.13,41.19,88.31,5.144464982002226,1.3110996885634325,3.2186307486922363,-127.1197096819897,29.1444243172648,-12.965030073382625,-0.3495,-0.8954,0.2516,-0.1129
215,427778.0,79.11241,1.0,7.34,1.85,-3.78,-21.25,-36.38,9.38,-7.13,41.19,88.31,5.144464982002226,1.3110996885634325,3.2186307486922363,-127.1197096819897,29.1444243172648,-12.965030073382625,-0.3495,-0.8954,0.2516,-0.1129
216,427812.0,79.12530799999999,1.0,10.09,2.21,-5.33,-21.87,-36.56,8.06,-74.94,28.94,77.87,6.8036816530549,1.4147840135423668,0.4894936656397615,-123.38130576448057,31.864439303449732,-14.89295693159816,-0.3644,-0.8804,0.2745,-0.1296
217,427812.0,79.12530799999999,1.0,10.09,2.21,-5.33,-21.87,-36.56,8.06,-74.94,28.94,77.87,6.8036816530549,1.4147840135423668,0.4894936656397615,-123.38130576448057,31.864439303449732,-14.89295693159816,-0.3644,-0.8804,0.2745,-0.1296
218,427847.0,79.129035,1.0,8.79,6.0,-7.19,-24.19,-34.06,5.75,-29.94,-30.31,120.12,3.234990132196349,1.68350914988976,-2.5084153992104192,-120.15478718177204,34.96325925488904,-14.765843296845908,-0.377,-0.8667,0.3004,-0.1285
219,427847.0,79.129035,1.0,8.79,6.0,-7.19,-24.19,-34.06,5.75,-29.94,-30.31,120.12,3.234990132196349,1.68350914988976,-2.5084153992104192,-120.15478718177204,34.96325925488904,-14.765843296845908,-0.377,-0.8667,0.3004,-0.1285
220,427884.0,79.17398100000001,1.0,7.94,0.65,-6.63,-24.87,-32.69,4.5,45.25,-34.44,91.56,5.5091915275176015,-0.5787674423958163,1.0466935525768228,-118.92572331092975,38.877624971743764,-15.459416628401115,-0.3596,-0.8613,0.3328,-0.1345
221,427884.0,79.17398100000001,1.0,7.94,0.65,-6.63,-24.87,-32.69,4.5,45.25,-34.44,91.56,5.5091915275176015,-0.5787674423958163,1.0466935525768228,-118.92572331092975,38.877624971743764,-15.459416628401115,-0.3596,-0.8613,0.3328,-0.1345
222,427919.0,79.19197,1.0,6.52,4.3,-4.75,-24.87,-32.69,4.5,-140.0,-17.31,103.94,1.8386675691138459,1.87696539902352,1.0511258888369517,-115.51550165897758,41.99165970563765,-14.858287755594214,-0.3735,-0.8458,0.3583,-0.1293
223,427919.0,79.19197,1.0,6.52,4.3,-4.75,-24.87,-32.69,4.5,-140.0,-17.31,103.94,1.8386675691138459,1.87696539902352,1.0511258888369517,-115.51550165897758,41.99165970563765,-14.858287755594214,-0.3735,-0.8458,0.3583,-0.1293
224,427956.0,79.239736,1.0,8.22,8.37,-7.55,-26.87,-30.0,5.56,-32.38,-45.56,99.75,-0.10720885377548696,2.071227348096112,-3.989230672656269,-110.08954448644468,46.868945786012894,-14.38461134345722,-0.39299999999999996,-0.8196,0.3977,-0.1252
225,427956.0,79.239736,1.0,8.22,8.37,-7.55,-26.87,-30.0,5.56,-32.38,-45.56,99.75,-0.10720885377548696,2.071227348096112,-3.989230672656269,-110.08954448644468,46.868945786012894,-14.38461134345722,-0.39299999999999996,-0.8196,0.3977,-0.1252
226,427991.0,79.258583,1.0,6.91,6.25,-6.98,-29.87,-29.69,4.38,7.63,-37.75,89.94,0.22429074788331405,1.1472793020389631,-1.7762876180452167,-108.70148376565115,49.60604885480682,-14.419262116395176,-0.3846,-0.8126,0.4195,-0.1255
227,427991.0,79.258583,1.0,6.91,6.25,-6.98,-29.87,-29.69,4.38,7.63,-37.75,89.94,0.22429074788331405,1.1472793020389631,-1.7762876180452167,-108.70148376565115,49.60604885480682,-14.419262116395176,-0.3846,-0.8126,0.4195,-0.1255
228,428025.0,79.307355,1.0,8.1,4.69,-9.09,-29.87,-29.69,4.38,38.81,-34.38,66.44,1.888262447274582,0.10855149779376384,-3.102915504018304,-107.41388301314085,52.68039020015169,-15.031647378904806,-0.3693,-0.8059999999999999,0.4437,-0.1308
229,428025.0,79.307355,1.0,8.1,4.69,-9.09,-29.87,-29.69,4.38,38.81,-34.38,66.44,1.888262447274582,0.10855149779376384,-3.102915504018304,-107.41388301314085,52.68039020015169,-15.031647378904806,-0.3693,-0.8059999999999999,0.4437,-0.1308
230,428060.0,79.315933,1.0,6.55,4.04,-8.9,-30.25,-24.69,5.56,59.56,-67.06,37.88,1.1620167106955432,-0.3663066488915756,-1.8958982952663843,-107.5107359806462,55.05832168724145,-14.765843296845908,-0.3455,-0.8065,0.4622,-0.1285
231,428060.0,79.315933,1.0,6.55,4.04,-8.9,-30.25,-24.69,5.56,59.56,-67.06,37.88,1.1620167106955432,-0.3663066488915756,-1.8958982952663843,-107.5107359806462,55.05832168724145,-14.765843296845908,-0.3455,-0.8065,0.4622,-0.1285
232,428097.0,79.38645600000001,1.0,4.42,-0.06,-8.04,-32.19,-24.5,6.38,77.75,-87.62,59.31,3.1365922480537667,-2.0240420629035603,1.425322969210297,-108.01618391845108,57.214114833301345,-14.24602144035678,-0.3171,-0.8091,0.4788,-0.124
233,428097.0,79.38645600000001,1.0,4.42,-0.06,-8.04,-32.19,-24.5,6.38,77.75,-87.62,59.31,3.1365922480537667,-2.0240420629035603,1.425322969210297,-108.01618391845108,57.214114833301345,-14.24602144035678,-0.3171,-0.8091,0.4788,-0.124
234,428132.0,79.42293000000001,1.0,5.2,0.76,-8.42,-32.19,-24.5,6.38,16.37,-55.0,70.75,2.6914695335512397,-0.9958572417886321,0.30516274252590314,-107.47198140386222,59.590233417807454,-13.714952301602876,-0.2978,-0.8063,0.4969,-0.1194
235,428132.0,79.42293000000001,1.0,5.2,0.76,-8.42,-32.19,-24.5,6.38,16.37,-55.0,70.75,2.6914695335512397,-0.9958572417886321,0.30516274252590314,-107.47198140386222,59.590233417807454,-13.714952301602876,-0.2978,-0.8063,0.4969,-0.1194
236,428167.0,79.477975,1.0,5.54,3.06,-8.75,-32.56,-20.37,9.88,61.06,-41.81,61.56,0.5699138405619799,0.16906154496429626,-0.9759432135247595,-106.20292801228649,62.35619623181861,-13.541842119876778,-0.2803,-0.7997,0.5177,-0.1179
237,428167.0,79.477975,1.0,5.54,3.06,-8.75,-32.56,-20.37,9.88,61.06,-41.81,61.56,0.5699138405619799,0.16906154496429626,-0.9759432135247595,-106.20292801228649,62.35619623181861,-13.541842119876778,-0.2803,-0.7997,0.5177,-0.1179
238,428201.0,79.502402,1.0,5.63,-0.71,-8.91,-32.19,-18.37,12.69,68.87,-22.25,37.56,3.5820414473947286,-0.6626943853281563,-0.10893950445211154,-106.06943042494876,63.889331204462884,-14.419262116395176,-0.2569,-0.799,0.5291,-0.1255
239,428201.0,79.502402,1.0,5.63,-0.71,-8.91,-32.19,-18.37,12.69,68.87,-22.25,37.56,3.5820414473947286,-0.6626943853281563,-0.10893950445211154,-106.06943042494876,63.889331204462884,-14.419262116395176,-0.2569,-0.799,0.5291,-0.1255
240,428238.0,79.550057,1.0,5.8,1.91,-8.3,-33.0,-14.69,14.75,-97.37,25.06,-14.63,1.4687643786352318,0.3894472732755716,-0.384972148676356,-105.06527849471128,64.0109096555285,-13.78420515869276,-0.2736,-0.7937,0.53,-0.12
241,428238.0,79.550057,1.0,5.8,1.91,-8.3,-33.0,-14.69,14.75,-97.37,25.06,-14.63,1.4687643786352318,0.3894472732755716,-0.384972148676356,-105.06527849471128,64.0109096555285,-13.78420515869276,-0.2736,-0.7937,0.53,-0.12
242,428273.0,79.568519,1.0,5.05,0.99,-8.76,-33.0,-14.69,14.75,-52.25,59.81,-23.75,2.3676308593117588,-1.1610511730238326,-0.004898516297242139,-104.22162596433716,63.00019289675618,-13.645704477358525,-0.3001,-0.7892,0.5225,-0.1188
243,428273.0,79.568519,1.0,5.05,0.99,-8.76,-33.0,-14.69,14.75,-52.25,59.81,-23.75,2.3676308593117588,-1.1610511730238326,-0.004898516297242139,-104.22162596433716,63.00019289675618,-13.645704477358525,-0.3001,-0.7892,0.5225,-0.1188
244,428308.0,79.571595,1.0,2.51,0.99,-5.99,-33.38,-16.75,13.19,-67.06,3.13,-27.5,1.1530484222853223,-1.581094204834375,3.5352131270573643,-103.51537703631287,62.423176652141294,-12.849707716341904,-0.3195,-0.7854,0.5182,-0.1119
245,428308.0,79.571595,1.0,2.51,0.99,-5.99,-33.38,-16.75,13.19,-67.06,3.13,-27.5,1.1530484222853223,-1.581094204834375,3.5352131270573643,-103.51537703631287,62.423176652141294,-12.849707716341904,-0.3195,-0.7854,0.5182,-0.1119
246,428345.0,79.617856,1.0,5.14,4.29,-8.67,-32.69,-18.0,10.88,-85.62,47.63,19.62,0.1420443850438169,-0.9460885608642084,-1.10560640404767,-101.32039083270723,62.58402657079336,-12.480763390340035,-0.3469,-0.7734,0.5194,-0.1087
247,428345.0,79.617856,1.0,5.14,4.29,-8.67,-32.69,-18.0,10.88,-85.62,47.63,19.62,0.1420443850438169,-0.9460885608642084,-1.10560640404767,-101.32039083270723,62.58402657079336,-12.480763390340035,-0.3469,-0.7734,0.5194,-0.1087
248,428380.0,79.635773,1.0,6.93,4.54,-9.5,-32.69,-18.0,10.88,-17.0,-37.44,13.13,1.0245363320368823,-0.23903192730178624,-2.7543885335794105,-100.17050104885807,63.242263086553784,-11.835420883076136,-0.3552,-0.767,0.5243,-0.1031
249,428380.0,79.635773,1.0,6.93,4.54,-9.5,-32.69,-18.0,10.88,-17.0,-37.44,13.13,1.0245363320368823,-0.23903192730178624,-2.7543885335794105,-100.17050104885807,63.242263086553784,-11.835420883076136,-0.3552,-0.767,0.5243,-0.1031
250,428414.0,79.697242,1.0,2.22,1.31,-4.09,-33.0,-19.5,8.5,-4.5,-50.63,17.25,0.6921860602646135,-0.6576366678240022,5.0673470479712215,-99.8317785547328,64.6200179960006,-10.660928195342471,-0.3468,-0.7651,0.5345,-0.0929
251,428414.0,79.697242,1.0,2.22,1.31,-4.09,-33.0,-19.5,8.5,-4.5,-50.63,17.25,0.6921860602646135,-0.6576366678240022,5.0673470479712215,-99.8317785547328,64.6200179960006,-10.660928195342471,-0.3468,-0.7651,0.5345,-0.0929
252,428449.0,79.702197,1.0,5.25,6.8,-7.55,-33.0,-18.56,8.5,-53.69,-7.56,32.5,-2.0604523550379588,0.2431932039511913,-1.4405893572009718,-98.12066633896302,65.74890233219018,-10.373238415502241,-0.3556,-0.7554,0.5428,-0.0904
253,428449.0,79.702197,1.0,5.25,6.8,-7.55,-33.0,-18.56,8.5,-53.69,-7.56,32.5,-2.0604523550379588,0.2431932039511913,-1.4405893572009718,-98.12066633896302,65.74890233219018,-10.373238415502241,-0.3556,-0.7554,0.5428,-0.0904
254,428486.0,79.764335,1.0,4.64,4.42,-6.68,-33.75,-18.19,7.38,1.56,-9.06,32.06,-0.4661119805316459,-0.07552945211009199,0.5618982497652318,-97.09416978917605,66.87128845427674,-10.327214181692757,-0.35600000000000004,-0.7495,0.551,-0.09
255,428486.0,79.764335,1.0,4.64,4.42,-6.68,-33.75,-18.19,7.38,1.56,-9.06,32.06,-0.4661119805316459,-0.07552945211009199,0.5618982497652318,-97.09416978917605,66.87128845427674,-10.327214181692757,-0.35600000000000004,-0.7495,0.551,-0.09
256,428521.0,79.814316,1.0,6.33,6.52,-8.42,-33.75,-18.19,7.38,-15.63,16.44,22.19,-1.2435263672811574,0.2387992629290725,-2.516998692083897,-96.1465565233062,67.38010802744758,-10.430771068314456,-0.3613,-0.7440000000000001,0.5547,-0.0909
257,428521.0,79.814316,1.0,6.33,6.52,-8.42,-33.75,-18.19,7.38,-15.63,16.44,22.19,-1.2435263672811574,0.2387992629290725,-2.516998692083897,-96.1465565233062,67.38010802744758,-10.430771068314456,-0.3613,-0.7440000000000001,0.5547,-0.0909
258,428558.0,79.830893,1.0,5.62,4.95,-7.15,-33.75,-18.19,7.38,15.44,-12.94,-17.0,-0.458662381535493,0.3726288842792101,-0.5306696010554433,-96.38693481966624,67.36633638987873,-10.361732200036483,-0.3588,-0.7454,0.5546,-0.0903
259,428558.0,79.830893,1.0,5.62,4.95,-7.15,-33.75,-18.19,7.38,15.44,-12.94,-17.0,-0.458662381535493,0.3726288842792101,-0.5306696010554433,-96.38693481966624,67.36633638987873,-10.361732200036483,-0.3588,-0.7454,0.5546,-0.0903
260,428593.0,79.876829,1.0,6.49,4.33,-7.82,-33.38,-17.5,9.0,1.63,-18.5,-22.94,0.6255755363935189,0.6567700498630944,-1.2023784925541356,-97.1114810592852,66.99491759872723,-10.016593913069029,-0.3548,-0.7496,0.5519,-0.0873
261,428593.0,79.876829,1.0,6.49,4.33,-7.82,-33.38,-17.5,9.0,1.63,-18.5,-22.94,0.6255755363935189,0.6567700498630944,-1.2023784925541356,-97.1114810592852,66.99491759872723,-10.016593913069029,-0.3548,-0.7496,0.5519,-0.0873
262,428625.0,79.885092,1.0,6.73,4.2,-8.42,-33.38,-17.5,9.0,5.38,-26.12,-42.0,1.2257051408871114,0.6675686803259175,-1.6773083317186757,-98.29569898571506,66.1586995980381,-8.68288738926451,-0.3524,-0.7564,0.5458,-0.0757
263,428625.0,79.885092,1.0,6.73,4.2,-8.42,-33.38,-17.5,9.0,5.38,-26.12,-42.0,1.2257051408871114,0.6675686803259175,-1.6773083317186757,-98.29569898571506,66.1586995980381,-8.68288738926451,-0.3524,-0.7564,0.5458,-0.0757
264,428660.0,79.908233,1.0,7.02,3.83,-9.11,-31.87,-18.19,8.56,-31.31,-47.69,-71.44,2.2079326302642093,0.6510763741839989,-2.094716856592312,-99.47650902646944,65.17677108886933,-6.868145731332586,-0.35200000000000004,-0.7631,0.5386,-0.0599
265,428660.0,79.908233,1.0,7.02,3.83,-9.11,-31.87,-18.19,8.56,-31.31,-47.69,-71.44,2.2079326302642093,0.6510763741839989,-2.094716856592312,-99.47650902646944,65.17677108886933,-6.868145731332586,-0.35200000000000004,-0.7631,0.5386,-0.0599
266,428697.0,79.951346,1.0,8.26,4.12,-11.95,-32.25,-20.06,10.06,-25.06,-59.13,-82.31,4.099467731273455,0.4428588643241764,-4.7192833726455286,-101.50133226645922,63.26917919273301,-3.5873017007906127,-0.3524,-0.7744,0.5245,-0.0313
267,428697.0,79.951346,1.0,8.26,4.12,-11.95,-32.25,-20.06,10.06,-25.06,-59.13,-82.31,4.099467731273455,0.4428588643241764,-4.7192833726455286,-101.50133226645922,63.26917919273301,-3.5873017007906127,-0.3524,-0.7744,0.5245,-0.0313
268,428734.0,80.018606,1.0,8.6,3.78,-12.21,-32.25,-20.06,10.06,-26.62,-108.69,-96.94,5.326770474992915,1.119178312199003,-4.605340015686492,-103.23811172650564,61.92808029086676,-0.19480574417599014,-0.3475,-0.7839,0.5145,-0.0017
269,428734.0,80.018606,1.0,8.6,3.78,-12.21,-32.25,-20.06,10.06,-26.62,-108.69,-96.94,5.326770474992915,1.119178312199003,-4.605340015686492,-103.23811172650564,61.92808029086676,-0.19480574417599014,-0.3475,-0.7839,0.5145,-0.0017
270,428769.0,80.03773000000001,1.0,3.86,1.98,-9.0,-30.5,-22.69,11.0,-29.81,-138.06,-103.94,4.111710674133231,-0.4965703376626564,0.7144966119421152,-105.91711433300469,60.158846336733674,5.984399237389443,-0.3301,-0.7982,0.5012,0.0522
271,428769.0,80.03773000000001,1.0,3.86,1.98,-9.0,-30.5,-22.69,11.0,-29.81,-138.06,-103.94,4.111710674133231,-0.4965703376626564,0.7144966119421152,-105.91711433300469,60.158846336733674,5.984399237389443,-0.3301,-0.7982,0.5012,0.0522
272,428804.0,80.08481,1.0,5.91,6.38,-12.18,-26.69,-26.0,12.5,-62.75,-138.69,-96.0,4.325852430624011,2.133873381711465,-4.360865136370512,-107.0468533184743,58.56288867530428,12.596044357776794,-0.3196,-0.8041,0.4891,0.1097
273,428804.0,80.08481,1.0,5.91,6.38,-12.18,-26.69,-26.0,12.5,-62.75,-138.69,-96.0,4.325852430624011,2.133873381711465,-4.360865136370512,-107.0468533184743,58.56288867530428,12.596044357776794,-0.3196,-0.8041,0.4891,0.1097
274,428840.0,80.109476,1.0,0.26,2.15,-7.6,-24.87,-29.25,13.75,1.25,-182.81,-100.19,2.7161673031461144,-1.4732505319061813,2.533269214453425,-108.32875958573808,57.60605796369463,17.92639313237552,-0.2939,-0.8107,0.4818,0.1558
275,428840.0,80.109476,1.0,0.26,2.15,-7.6,-24.87,-29.25,13.75,1.25,-182.81,-100.19,2.7161673031461144,-1.4732505319061813,2.533269214453425,-108.32875958573808,57.60605796369463,17.92639313237552,-0.2939,-0.8107,0.4818,0.1558
276,428873.0,80.153943,1.0,-1.04,3.24,-7.01,-24.87,-29.25,13.75,-46.06,-149.25,-59.81,1.5980801281918589,-1.3562795830308514,2.301588668036616,-108.01618391845108,56.82290146986446,24.104076904803392,-0.2745,-0.8091,0.4758,0.2088
277,428873.0,80.153943,1.0,-1.04,3.24,-7.01,-24.87,-29.25,13.75,-46.06,-149.25,-59.81,1.5980801281918589,-1.3562795830308514,2.301588668036616,-108.01618391845108,56.82290146986446,24.104076904803392,-0.2745,-0.8091,0.4758,0.2088
278,428910.0,80.172023,1.0,-2.66,6.06,-5.94,-20.5,-31.06,15.38,-51.31,-116.75,-37.19,-1.1452528818451941,-1.0971433198712246,1.056365869053895,-106.91203223110699,56.40640189813039,28.068278987313843,-0.26899999999999996,-0.8034,0.4726,0.2425
279,428910.0,80.172023,1.0,-2.66,6.06,-5.94,-20.5,-31.06,15.38,-51.31,-116.75,-37.19,-1.1452528818451941,-1.0971433198712246,1.056365869053895,-106.91203223110699,56.40640189813039,28.068278987313843,-0.26899999999999996,-0.8034,0.4726,0.2425
280,428947.0,80.220987,1.0,-2.48,5.31,-5.83,-15.88,-32.25,16.5,0.94,-108.25,-12.69,-0.3092810525667108,-0.7976335092406089,1.58451365866755,-105.67017110275856,56.70567847737765,31.99554685526558,-0.2521,-0.7969,0.4749,0.2756
281,428947.0,80.220987,1.0,-2.48,5.31,-5.83,-15.88,-32.25,16.5,0.94,-108.25,-12.69,-0.3092810525667108,-0.7976335092406089,1.58451365866755,-105.67017110275856,56.70567847737765,31.99554685526558,-0.2521,-0.7969,0.4749,0.2756
282,428984.0,80.239288,1.0,-4.96,4.15,-3.28,-15.88,-32.25,16.5,30.44,-110.25,6.0,-2.096040369974669,-2.9871782628078,3.5404006597929687,-104.44581567691392,57.69761729678852,34.42302630295278,-0.2343,-0.7904,0.4825,0.2959
283,428984.0,80.239288,1.0,-4.96,4.15,-3.28,-15.88,-32.25,16.5,30.44,-110.25,6.0,-2.096040369974669,-2.9871782628078,3.5404006597929687,-104.44581567691392,57.69761729678852,34.42302630295278,-0.2343,-0.7904,0.4825,0.2959
284,429019.0,80.302418,1.0,-3.62,4.83,-6.26,-14.5,-33.5,17.25,24.75,-72.56,45.94,0.14017053046895045,-1.523997684160545,1.246353084526719,-102.3747728112858,60.0396996516268,36.03410062770514,-0.2166,-0.7792,0.5003,0.3093
285,429019.0,80.302418,1.0,-3.62,4.83,-6.26,-14.5,-33.5,17.25,24.75,-72.56,45.94,0.14017053046895045,-1.523997684160545,1.246353084526719,-102.3747728112858,60.0396996516268,36.03410062770514,-0.2166,-0.7792,0.5003,0.3093
286,429053.0,80.306228,1.0,-4.06,5.89,-3.68,-13.25,-32.0,20.06,31.31,-85.06,54.0,-2.3426935454186046,-1.4491353723576204,2.2482180445719475,-99.44105363347383,63.05395914548726,37.71311628724267,-0.2003,-0.7629,0.5229,0.3232
287,429053.0,80.306228,1.0,-4.06,5.89,-3.68,-13.25,-32.0,20.06,31.31,-85.06,54.0,-2.3426935454186046,-1.4491353723576204,2.2482180445719475,-99.44105363347383,63.05395914548726,37.71311628724267,-0.2003,-0.7629,0.5229,0.3232
288,429090.0,80.350649,1.0,-4.35,5.6,-3.73,-13.0,-30.06,20.0,51.88,-63.63,59.56,-2.152727344934206,-1.8866918489144733,2.3232310724233685,-97.40622744619556,65.63978314161311,38.13720165916782,-0.1873,-0.7513,0.542,0.3267
289,429090.0,80.350649,1.0,-4.35,5.6,-3.73,-13.0,-30.06,20.0,51.88,-63.63,59.56,-2.152727344934206,-1.8866918489144733,2.3232310724233685,-97.40622744619556,65.63978314161311,38.13720165916782,-0.1873,-0.7513,0.542,0.3267
290,429123.0,80.412131,1.0,-5.01,3.63,-2.57,-13.0,-30.06,20.0,57.88,-31.06,57.81,-1.6593891908988818,-3.3682218692966885,4.258370180784004,-95.2755931282083,68.8879335180276,37.71311628724267,-0.1723,-0.7389,0.5656,0.3232
291,429123.0,80.412131,1.0,-5.01,3.63,-2.57,-13.0,-30.06,20.0,57.88,-31.06,57.81,-1.6593891908988818,-3.3682218692966885,4.258370180784004,-95.2755931282083,68.8879335180276,37.71311628724267,-0.1723,-0.7389,0.5656,0.3232
292,429160.0,80.477187,1.0,-3.13,6.54,-4.22,-13.56,-28.25,22.75,-1.88,9.44,84.5,-2.3872656593779658,-0.8096406148538855,1.8052535752292782,-93.38784380135635,71.23904701158034,36.999437339480345,-0.1747,-0.7277,0.5824,0.3173
293,429160.0,80.477187,1.0,-3.13,6.54,-4.22,-13.56,-28.25,22.75,-1.88,9.44,84.5,-2.3872656593779658,-0.8096406148538855,1.8052535752292782,-93.38784380135635,71.23904701158034,36.999437339480345,-0.1747,-0.7277,0.5824,0.3173
294,429197.0,80.495944,1.0,-3.73,7.56,-2.52,-14.69,-27.19,22.75,10.94,7.5,78.69,-4.279887560904718,-1.7910400113822067,2.33057896344336,-90.97540577406771,74.02654356765952,35.9015751355927,-0.1847,-0.7131,0.602,0.3082
295,429197.0,80.495944,1.0,-3.73,7.56,-2.52,-14.69,-27.19,22.75,10.94,7.5,78.69,-4.279887560904718,-1.7910400113822067,2.33057896344336,-90.97540577406771,74.02654356765952,35.9015751355927,-0.1847,-0.7131,0.602,0.3082
296,429232.0,80.54350699999999,1.0,-2.53,6.71,-4.36,-14.69,-27.19,22.75,30.44,50.56,69.5,-2.4664248664771202,-0.9665450023222442,1.8431621249223216,-90.0151077513171,76.00560231797398,33.78776111254545,-0.1909,-0.7072,0.6157,0.2906
297,429232.0,80.54350699999999,1.0,-2.53,6.71,-4.36,-14.69,-27.19,22.75,30.44,50.56,69.5,-2.4664248664771202,-0.9665450023222442,1.8431621249223216,-90.0151077513171,76.00560231797398,33.78776111254545,-0.1909,-0.7072,0.6157,0.2906
298,429264.0,80.609148,1.0,-1.28,6.88,-6.05,-17.56,-25.69,22.69,16.87,88.87,60.13,-1.5197084732249349,-0.1430178437307048,0.6827620100703236,-89.06279291382195,77.65826632282992,31.00732816596471,-0.2089,-0.7013,0.627,0.2673
299,429264.0,80.609148,1.0,-1.28,6.88,-6.05,-17.56,-25.69,22.69,16.87,88.87,60.13,-1.5197084732249349,-0.1430178437307048,0.6827620100703236,-89.06279291382195,77.65826632282992,31.00732816596471,-0.2089,-0.7013,0.627,0.2673
300,429301.0,80.618597,1.0,-0.75,6.97,-6.01,-21.0,-24.69,21.87,12.63,67.37,63.88,-1.595205124853889,-0.02203531474444009,0.7116879300107044,-88.07037290502619,78.8103048383864,29.32206069578229,-0.2232,-0.6951,0.6348,0.2531
301,429301.0,80.618597,1.0,-0.75,6.97,-6.01,-21.0,-24.69,21.87,12.63,67.37,63.88,-1.595205124853889,-0.02203531474444009,0.7116879300107044,-88.07037290502619,78.8103048383864,29.32206069578229,-0.2232,-0.6951,0.6348,0.2531
302,429338.0,80.633482,1.0,-0.26,6.87,-6.68,-22.69,-23.19,20.69,-0.31,67.94,56.13,-1.1361879810870117,-0.165601679571016,0.2898988235030142,-86.75466377852933,80.39134544428752,26.59414349441812,-0.2427,-0.6868,0.6454,0.23
303,429338.0,80.633482,1.0,-0.26,6.87,-6.68,-22.69,-23.19,20.69,-0.31,67.94,56.13,-1.1361879810870117,-0.165601679571016,0.2898988235030142,-86.75466377852933,80.39134544428752,26.59414349441812,-0.2427,-0.6868,0.6454,0.23
304,429373.0,80.676928,1.0,0.86,6.4,-7.24,-22.69,-23.19,20.69,-4.56,76.81,71.06,-0.375562582299656,0.2637508106772,0.11610882539867973,-85.2660282112418,81.7331870750525,24.022061174011174,-0.2642,-0.6773,0.6543,0.2081
305,429373.0,80.676928,1.0,0.86,6.4,-7.24,-22.69,-23.19,20.69,-4.56,76.81,71.06,-0.375562582299656,0.2637508106772,0.11610882539867973,-85.2660282112418,81.7331870750525,24.022061174011174,-0.2642,-0.6773,0.6543,0.2081
306,429410.0,80.684751,1.0,1.12,6.1,-7.31,-24.5,-21.0,21.5,7.25,47.94,60.31,-0.10029085791913284,0.10874781124204393,0.22131663817226327,-83.99528064351469,82.84402467387862,22.466080778094224,-0.2772,-0.6691,0.6616,0.1948
307,429410.0,80.684751,1.0,1.12,6.1,-7.31,-24.5,-21.0,21.5,7.25,47.94,60.31,-0.10029085791913284,0.10874781124204393,0.22131663817226327,-83.99528064351469,82.84402467387862,22.466080778094224,-0.2772,-0.6691,0.6616,0.1948
308,429445.0,80.745008,1.0,1.38,5.1,-6.97,-27.19,-20.56,18.37,-4.69,88.44,53.69,0.431364885165622,0.05807511595916725,1.0713279328548868,-83.10407566239712,83.57963882568777,20.599742008899195,-0.2898,-0.6633,0.6664,0.1788
309,429445.0,80.745008,1.0,1.38,5.1,-6.97,-27.19,-20.56,18.37,-4.69,88.44,53.69,0.431364885165622,0.05807511595916725,1.0713279328548868,-83.10407566239712,83.57963882568777,20.599742008899195,-0.2898,-0.6633,0.6664,0.1788
310,429479.0,80.75205,1.0,3.98,8.26,-9.68,-27.19,-20.56,18.37,-9.63,68.5,46.94,-0.12191972435216315,1.1709448011862524,-3.4743297776138764,-81.76349634670957,83.99528064351469,18.170051350104252,-0.3145,-0.6545,0.6691,0.1579
311,429479.0,80.75205,1.0,3.98,8.26,-9.68,-27.19,-20.56,18.37,-9.63,68.5,46.94,-0.12191972435216315,1.1709448011862524,-3.4743297776138764,-81.76349634670957,83.99528064351469,18.170051350104252,-0.3145,-0.6545,0.6691,0.1579
312,429514.0,80.811274,1.0,3.48,6.53,-8.83,-29.37,-19.5,18.69,22.62,58.0,29.75,0.5366675652869827,0.499885462507844,-1.6904062514385512,-81.4607148625289,84.16500554813028,15.7832777083714,-0.326,-0.6525,0.6702,0.1373
313,429514.0,80.811274,1.0,3.48,6.53,-8.83,-29.37,-19.5,18.69,22.62,58.0,29.75,0.5366675652869827,0.499885462507844,-1.6904062514385512,-81.4607148625289,84.16500554813028,15.7832777083714,-0.326,-0.6525,0.6702,0.1373
314,429551.0,80.82830799999999,1.0,3.24,6.28,-8.41,-30.87,-18.37,16.75,-0.31,66.44,22.62,0.4463213014280243,0.02686601795205279,-1.1689673180815223,-81.38512714905085,83.79498797378322,14.165187015253306,-0.3373,-0.652,0.6678,0.1233
315,429551.0,80.82830799999999,1.0,3.24,6.28,-8.41,-30.87,-18.37,16.75,-0.31,66.44,22.62,0.4463213014280243,0.02686601795205279,-1.1689673180815223,-81.38512714905085,83.79498797378322,14.165187015253306,-0.3373,-0.652,0.6678,0.1233
316,429586.0,80.831563,1.0,4.01,5.87,-8.9,-30.87,-18.37,16.75,21.75,48.31,29.81,1.0027276109681291,0.20734374307289904,-1.5378881532440811,-81.00782923439904,83.90279877211277,11.962154211464537,-0.3472,-0.6495,0.6685,0.1042
317,429586.0,80.831563,1.0,4.01,5.87,-8.9,-30.87,-18.37,16.75,21.75,48.31,29.81,1.0027276109681291,0.20734374307289904,-1.5378881532440811,-81.00782923439904,83.90279877211277,11.962154211464537,-0.3472,-0.6495,0.6685,0.1042
318,429621.0,80.911946,1.0,4.15,5.39,-8.93,-32.0,-18.06,15.19,14.56,9.0,44.5,1.2641992309190648,0.1784695908597791,-1.3463517891902956,-80.22642428776203,84.75308505755767,10.822063795614437,-0.3489,-0.6443,0.674,0.0943
319,429621.0,80.911946,1.0,4.15,5.39,-8.93,-32.0,-18.06,15.19,14.56,9.0,44.5,1.2641992309190648,0.1784695908597791,-1.3463517891902956,-80.22642428776203,84.75308505755767,10.822063795614437,-0.3489,-0.6443,0.674,0.0943
320,429656.0,80.964171,1.0,3.58,5.38,-7.79,-32.69,-16.87,14.38,10.81,-0.37,39.06,0.4009841961864091,-0.1336030294830146,-0.3060282755569599,-78.95868851235781,86.23550907382523,10.028097037556813,-0.3478,-0.6358,0.6835,0.0874
321,429656.0,80.964171,1.0,3.58,5.38,-7.79,-32.69,-16.87,14.38,10.81,-0.37,39.06,0.4009841961864091,-0.1336030294830146,-0.3060282755569599,-78.95868851235781,86.23550907382523,10.028097037556813,-0.3478,-0.6358,0.6835,0.0874
322,429692.0,80.97161700000001,1.0,3.93,6.47,-7.78,-33.06,-15.75,13.56,-9.94,-14.44,39.94,-0.5447004294819703,-0.11875540497845448,-1.0341709373603492,-77.79071544905813,87.41863949905357,9.729048380447908,-0.3478,-0.6279,0.691,0.0848
323,429692.0,80.97161700000001,1.0,3.93,6.47,-7.78,-33.06,-15.75,13.56,-9.94,-14.44,39.94,-0.5447004294819703,-0.11875540497845448,-1.0341709373603492,-77.79071544905813,87.41863949905357,9.729048380447908,-0.3478,-0.6279,0.691,0.0848
324,429725.0,80.990474,1.0,8.67,10.98,-13.78,-33.06,-15.75,13.56,-18.06,14.0,53.94,-0.7397462461474136,1.3149908467157472,-9.77245300714424,-76.50088290484744,88.87005513080322,9.568049817899789,-0.3458,-0.6191,0.7001,0.0834
325,429725.0,80.990474,1.0,8.67,10.98,-13.78,-33.06,-15.75,13.56,-18.06,14.0,53.94,-0.7397462461474136,1.3149908467157472,-9.77245300714424,-76.50088290484744,88.87005513080322,9.568049817899789,-0.3458,-0.6191,0.7001,0.0834
326,429762.0,81.03884000000001,1.0,3.38,3.25,-7.53,-32.38,-15.0,14.38,-13.38,14.75,25.87,1.6361940146942908,0.08198617591721491,1.0886257161821895,-76.71992580426844,89.3686152331438,8.901253805563371,-0.3381,-0.6206,0.7032,0.0776
327,429762.0,81.03884000000001,1.0,3.38,3.25,-7.53,-32.38,-15.0,14.38,-13.38,14.75,25.87,1.6361940146942908,0.08198617591721491,1.0886257161821895,-76.71992580426844,89.3686152331438,8.901253805563371,-0.3381,-0.6206,0.7032,0.0776
328,429799.0,81.057171,1.0,3.89,6.52,-7.77,-33.0,-14.56,14.25,19.12,-2.5,6.31,-0.7703692315292681,-0.32797475656054603,-1.0245255505195274,-75.84572265044491,89.65908810035471,9.257605761151561,-0.3445,-0.6146,0.705,0.0807
329,429799.0,81.057171,1.0,3.89,6.52,-7.77,-33.0,-14.56,14.25,19.12,-2.5,6.31,-0.7703692315292681,-0.32797475656054603,-1.0245255505195274,-75.84572265044491,89.65908810035471,9.257605761151561,-0.3445,-0.6146,0.705,0.0807
330,429834.0,81.105755,1.0,3.27,4.81,-7.4,-33.0,-14.56,14.25,16.62,-5.75,7.13,0.3223688576297252,-0.3988339015097102,0.4084581612132912,-75.71504118189101,90.06374156785668,8.95872400294449,-0.3416,-0.6137,0.7075,0.0781
331,429834.0,81.105755,1.0,3.27,4.81,-7.4,-33.0,-14.56,14.25,16.62,-5.75,7.13,0.3223688576297252,-0.3988339015097102,0.4084581612132912,-75.71504118189101,90.06374156785668,8.95872400294449,-0.3416,-0.6137,0.7075,0.0781
332,429869.0,81.17151199999999,1.0,3.01,4.43,-7.35,-32.56,-13.19,14.69,14.13,2.69,16.87,0.5041756488592946,-0.5673772305886009,0.7440129669225453,-75.41056702241764,90.6652693687788,8.487533709607298,-0.3385,-0.6116,0.7112,0.07400000000000001
333,429869.0,81.17151199999999,1.0,3.01,4.43,-7.35,-32.56,-13.19,14.69,14.13,2.69,16.87,0.5041756488592946,-0.5673772305886009,0.7440129669225453,-75.41056702241764,90.6652693687788,8.487533709607298,-0.3385,-0.6116,0.7112,0.07400000000000001
334,429903.0,81.17678599999999,1.0,3.89,5.51,-8.38,-33.0,-13.5,14.25,-14.5,-3.63,24.12,0.2447223923379691,-0.39089593638915465,-0.9406245995253536,-74.50086547711395,91.28639832349863,8.717364176475899,-0.3413,-0.6053,0.715,0.076
335,429903.0,81.17678599999999,1.0,3.89,5.51,-8.38,-33.0,-13.5,14.25,-14.5,-3.63,24.12,0.2447223923379691,-0.39089593638915465,-0.9406245995253536,-74.50086547711395,91.28639832349863,8.717364176475899,-0.3413,-0.6053,0.715,0.076
336,429940.0,81.196363,1.0,2.61,5.29,-6.88,-33.0,-12.38,14.69,0.19,-7.81,16.0,-0.4249237379940949,-1.0931445498690806,0.8202672566498901,-73.72547201814446,92.10896087538231,8.68288738926451,-0.3405,-0.5999,0.72,0.0757
337,429940.0,81.196363,1.0,2.61,5.29,-6.88,-33.0,-12.38,14.69,0.19,-7.81,16.0,-0.4249237379940949,-1.0931445498690806,0.8202672566498901,-73.72547201814446,92.10896087538231,8.68288738926451,-0.3405,-0.5999,0.72,0.0757
338,429973.0,81.242487,1.0,3.36,5.47,-7.46,-33.0,-12.38,14.69,11.56,3.38,10.63,-0.31554398209393114,-0.6851914854743577,-0.006251947110127887,-73.41069853307816,92.48940127300301,8.361141590530956,-0.3403,-0.5977,0.7223,0.0729
339,429973.0,81.242487,1.0,3.36,5.47,-7.46,-33.0,-12.38,14.69,11.56,3.38,10.63,-0.31554398209393114,-0.6851914854743577,-0.006251947110127887,-73.41069853307816,92.48940127300301,8.361141590530956,-0.3403,-0.5977,0.7223,0.0729
340,430010.0,81.26235600000001,1.0,3.26,5.12,-6.94,-33.0,-12.75,15.5,12.69,39.5,-11.5,-0.3501181131996187,-0.5899541939062409,0.6123598503526662,-73.82576315428821,92.00993104367019,7.7523014124211596,-0.3423,-0.6006,0.7194,0.0676
341,430010.0,81.26235600000001,1.0,3.26,5.12,-6.94,-33.0,-12.75,15.5,12.69,39.5,-11.5,-0.3501181131996187,-0.5899541939062409,0.6123598503526662,-73.82576315428821,92.00993104367019,7.7523014124211596,-0.3423,-0.6006,0.7194,0.0676
342,430047.0,81.304599,1.0,6.49,4.97,-9.91,-32.56,-11.25,15.88,-7.63,-9.75,-0.44,1.3188524974654832,1.4140158015219189,-2.8933613150727333,-74.22758955699375,91.6475769685171,7.396290017779932,-0.3426,-0.6034,0.7172,0.0645
343,430047.0,81.304599,1.0,6.49,4.97,-9.91,-32.56,-11.25,15.88,-7.63,-9.75,-0.44,1.3188524974654832,1.4140158015219189,-2.8933613150727333,-74.22758955699375,91.6475769685171,7.396290017779932,-0.3426,-0.6034,0.7172,0.0645
344,430082.0,81.35632,1.0,5.37,4.42,-9.35,-32.56,-11.25,15.88,44.25,-59.88,-25.94,1.3068730457539612,1.0566128394790302,-1.7246748219677617,-75.12117195535056,91.84507796689995,8.004999928704901,-0.3279,-0.6096,0.7184,0.0698
345,430082.0,81.35632,1.0,5.37,4.42,-9.35,-32.56,-11.25,15.88,44.25,-59.88,-25.94,1.3068730457539612,1.0566128394790302,-1.7246748219677617,-75.12117195535056,91.84507796689995,8.004999928704901,-0.3279,-0.6096,0.7184,0.0698
346,430114.0,81.416314,1.0,5.42,8.48,-12.67,-34.06,-12.75,14.25,-11.69,-97.5,-53.5,-0.32797261252575194,0.16479275739352062,-6.369906410823154,-76.54466504445786,91.69691933728231,10.51132121524803,-0.3052,-0.6194,0.7175,0.0916
347,430114.0,81.416314,1.0,5.42,8.48,-12.67,-34.06,-12.75,14.25,-11.69,-97.5,-53.5,-0.32797261252575194,0.16479275739352062,-6.369906410823154,-76.54466504445786,91.69691933728231,10.51132121524803,-0.3052,-0.6194,0.7175,0.0916
348,430151.0,81.434744,1.0,5.9,5.62,-15.21,-31.87,-12.38,16.56,64.56,-18.94,-150.63,3.3802027456247656,1.27066225168146,-7.0663505286736905,-80.60153564588973,88.59755263252764,11.38620958683243,-0.2897,-0.6468,0.6984,0.0992
349,430151.0,81.434744,1.0,5.9,5.62,-15.21,-31.87,-12.38,16.56,64.56,-18.94,-150.63,3.3802027456247656,1.27066225168146,-7.0663505286736905,-80.60153564588973,88.59755263252764,11.38620958683243,-0.2897,-0.6468,0.6984,0.0992
350,430188.0,81.441559,1.0,4.46,7.55,-14.29,-30.37,-13.5,17.87,-22.75,1.63,-203.69,1.857612273815893,0.8492466860997091,-6.834451427078596,-87.24438704610047,81.88480291681634,13.772662665221276,-0.2833,-0.6899,0.6553,0.1199
351,430188.0,81.441559,1.0,4.46,7.55,-14.29,-30.37,-13.5,17.87,-22.75,1.63,-203.69,1.857612273815893,0.8492466860997091,-6.834451427078596,-87.24438704610047,81.88480291681634,13.772662665221276,-0.2833,-0.6899,0.6553,0.1199
352,430223.0,81.50468199999999,1.0,4.64,7.06,-12.99,-30.37,-13.5,17.87,41.75,7.56,-265.44,2.199839335679142,2.0818342691454497,-5.390059281058528,-94.15911861877714,74.84676629523163,15.366907820940328,-0.2768,-0.7323,0.6077,0.1337
353,430223.0,81.50468199999999,1.0,4.64,7.06,-12.99,-30.37,-13.5,17.87,41.75,7.56,-265.44,2.199839335679142,2.0818342691454497,-5.390059281058528,-94.15911861877714,74.84676629523163,15.366907820940328,-0.2768,-0.7323,0.6077,0.1337
354,430260.0,81.548694,1.0,3.06,4.65,-9.97,-27.75,-18.25,16.69,116.81,-53.81,-188.56,1.961483690946792,1.99046586931302,-1.2648281015567109,-103.33043920857978,67.94570061664109,15.563501157916,-0.2325,-0.7844,0.5588,0.1354
355,430260.0,81.548694,1.0,3.06,4.65,-9.97,-27.75,-18.25,16.69,116.81,-53.81,-188.56,1.961483690946792,1.99046586931302,-1.2648281015567109,-103.33043920857978,67.94570061664109,15.563501157916,-0.2325,-0.7844,0.5588,0.1354
356,430295.0,81.573185,1.0,2.45,4.62,-9.01,-24.06,-22.0,18.69,83.87,-50.13,-177.44,1.2476109224777865,2.3626500740228167,-0.26252829884018425,-108.8195376256316,63.781328955958536,16.338764939656073,-0.1986,-0.8132,0.5283,0.1421
357,430295.0,81.573185,1.0,2.45,4.62,-9.01,-24.06,-22.0,18.69,83.87,-50.13,-177.44,1.2476109224777865,2.3626500740228167,-0.26252829884018425,-108.8195376256316,63.781328955958536,16.338764939656073,-0.1986,-0.8132,0.5283,0.1421
358,430329.0,81.617012,1.0,0.24,3.24,-5.97,-24.06,-22.0,18.69,119.81,-36.5,-132.06,-0.010482412773958227,1.0398279714264294,3.0898987087237137,-115.19402811606797,58.786353648776284,17.126370676427072,-0.1553,-0.8443,0.4908,0.1489
359,430329.0,81.617012,1.0,0.24,3.24,-5.97,-24.06,-22.0,18.69,119.81,-36.5,-132.06,-0.010482412773958227,1.0398279714264294,3.0898987087237137,-115.19402811606797,58.786353648776284,17.126370676427072,-0.1553,-0.8443,0.4908,0.1489
360,430364.0,81.636075,1.0,2.06,3.0,-8.54,-21.75,-23.37,21.37,132.13,5.25,-100.62,1.6697686452099008,2.745627836615128,1.0975398012323865,-119.97126580924143,55.770203681703904,15.656031584502133,-0.1139,-0.8659,0.4677,0.1362
361,430364.0,81.636075,1.0,2.06,3.0,-8.54,-21.75,-23.37,21.37,132.13,5.25,-100.62,1.6697686452099008,2.745627836615128,1.0975398012323865,-119.97126580924143,55.770203681703904,15.656031584502133,-0.1139,-0.8659,0.4677,0.1362
362,430401.0,81.684321,1.0,-0.65,1.48,-6.89,-18.0,-21.75,23.5,113.19,-48.63,-89.75,0.6179817641920401,0.1773563824472859,2.758838761556442,-122.75621380444773,53.84694292088121,15.366907820940328,-0.081,-0.8778,0.4528,0.1337
363,430401.0,81.684321,1.0,-0.65,1.48,-6.89,-18.0,-21.75,23.5,113.19,-48.63,-89.75,0.6179817641920401,0.1773563824472859,2.758838761556442,-122.75621380444773,53.84694292088121,15.366907820940328,-0.081,-0.8778,0.4528,0.1337
364,430438.0,81.70274599999999,1.0,-1.41,1.52,-5.86,-16.37,-21.5,25.87,131.0,-73.0,-32.94,-0.3812377080956447,0.17590889201315066,3.604891066307342,-124.15945231540816,53.000280019764396,15.875832638109523,-0.0322,-0.8836,0.4462,0.1381
365,430438.0,81.70274599999999,1.0,-1.41,1.52,-5.86,-16.37,-21.5,25.87,131.0,-73.0,-32.94,-0.3812377080956447,0.17590889201315066,3.604891066307342,-124.15945231540816,53.000280019764396,15.875832638109523,-0.0322,-0.8836,0.4462,0.1381
366,430473.0,81.747208,1.0,-2.12,1.31,-5.3,-16.37,-21.5,25.87,105.31,-68.06,-16.12,-0.9062708496956896,-0.19899814621154155,4.023954012418064,-123.93959592332432,53.25651268144825,16.2808838756779,0.0022,-0.8827,0.4482,0.1416
367,430473.0,81.747208,1.0,-2.12,1.31,-5.3,-16.37,-21.5,25.87,105.31,-68.06,-16.12,-0.9062708496956896,-0.19899814621154155,4.023954012418064,-123.93959592332432,53.25651268144825,16.2808838756779,0.0022,-0.8827,0.4482,0.1416
368,430510.0,81.81414000000001,1.0,-3.5,1.19,-4.45,-13.75,-17.19,29.0,83.37,-22.37,-24.0,-1.9684040746042435,-1.161582445715552,4.492074605776404,-124.0127932062898,53.038696673597066,16.072546557241562,0.0374,-0.883,0.4465,0.1398
369,430510.0,81.81414000000001,1.0,-3.5,1.19,-4.45,-13.75,-17.19,29.0,83.37,-22.37,-24.0,-1.9684040746042435,-1.161582445715552,4.492074605776404,-124.0127932062898,53.038696673597066,16.072546557241562,0.0374,-0.883,0.4465,0.1398
370,430544.0,81.835714,1.0,-2.22,-0.07,-7.27,-10.25,-14.56,30.69,83.56,5.13,0.56,0.08172555059310613,-0.1985787789077455,2.2079601522073067,-124.13498454962264,53.06431134668802,14.788953503219902,0.0566,-0.8835,0.4467,0.1287
371,430544.0,81.835714,1.0,-2.22,-0.07,-7.27,-10.25,-14.56,30.69,83.56,5.13,0.56,0.08172555059310613,-0.1985787789077455,2.2079601522073067,-124.13498454962264,53.06431134668802,14.788953503219902,0.0566,-0.8835,0.4467,0.1287
372,430579.0,81.839519,1.0,-4.33,-0.4,-4.85,-10.25,-14.56,30.69,85.81,-17.69,-6.19,-1.4354415776387304,-2.2953537166432065,3.881934074938424,-123.14014055583445,53.67992638338189,14.165187015253306,0.0869,-0.8794,0.4515,0.1233
373,430579.0,81.839519,1.0,-4.33,-0.4,-4.85,-10.25,-14.56,30.69,85.81,-17.69,-6.19,-1.4354415776387304,-2.2953537166432065,3.881934074938424,-123.14014055583445,53.67992638338189,14.165187015253306,0.0869,-0.8794,0.4515,0.1233
374,430614.0,81.88520799999999,1.0,-3.08,-1.94,-7.37,-10.25,-12.38,32.69,25.81,20.31,5.19,0.667575427788409,-1.496706083625723,1.7517686261093282,-123.09201996316364,53.85979546306142,12.941964550756788,0.0961,-0.8792,0.4529,0.1127
375,430614.0,81.88520799999999,1.0,-3.08,-1.94,-7.37,-10.25,-12.38,32.69,25.81,20.31,5.19,0.667575427788409,-1.496706083625723,1.7517686261093282,-123.09201996316364,53.85979546306142,12.941964550756788,0.0961,-0.8792,0.4529,0.1127
376,430651.0,81.954036,1.0,-2.91,-0.26,-6.92,-10.69,-9.0,33.56,54.31,0.88,35.94,-0.7690089925624917,-0.4854961751920881,2.3504432812165224,-122.06628574219845,54.8774841925425,12.215665087929844,0.1042,-0.8749,0.4608,0.1064
377,430651.0,81.954036,1.0,-2.91,-0.26,-6.92,-10.69,-9.0,33.56,54.31,0.88,35.94,-0.7690089925624917,-0.4854961751920881,2.3504432812165224,-122.06628574219845,54.8774841925425,12.215665087929844,0.1042,-0.8749,0.4608,0.1064
378,430686.0,81.973789,1.0,-3.71,-2.06,-6.54,-10.69,-9.0,33.56,73.25,26.75,18.37,0.08272160053534107,-2.138112148175456,2.309921808406721,-121.03358960360973,55.912860196887344,10.902639624835572,0.1163,-0.8705,0.4688,0.095
379,430686.0,81.973789,1.0,-3.71,-2.06,-6.54,-10.69,-9.0,33.56,73.25,26.75,18.37,0.08272160053534107,-2.138112148175456,2.309921808406721,-121.03358960360973,55.912860196887344,10.902639624835572,0.1163,-0.8705,0.4688,0.095
380,430721.0,82.018327,1.0,-4.38,-3.43,-6.82,-9.75,-8.56,33.56,27.44,61.0,22.12,0.649948257828777,-3.3837257633126705,1.707905207080577,-120.15478718177204,57.109720271622784,8.476043091817116,0.1222,-0.8667,0.478,0.0739
381,430721.0,82.018327,1.0,-4.38,-3.43,-6.82,-9.75,-8.56,33.56,27.44,61.0,22.12,0.649948257828777,-3.3837257633126705,1.707905207080577,-120.15478718177204,57.109720271622784,8.476043091817116,0.1222,-0.8667,0.478,0.0739
382,430755.0,82.035483,1.0,-3.32,-0.77,-7.78,-13.56,-6.38,34.06,-0.56,18.06,36.38,-1.0560241476473058,-1.0508138262709703,1.4445747012417112,-119.0385830310132,58.56288867530428,7.5340922105741654,0.1176,-0.8618,0.4891,0.0657
383,430755.0,82.035483,1.0,-3.32,-0.77,-7.78,-13.56,-6.38,34.06,-0.56,18.06,36.38,-1.0560241476473058,-1.0508138262709703,1.4445747012417112,-119.0385830310132,58.56288867530428,7.5340922105741654,0.1176,-0.8618,0.4891,0.0657
384,430792.0,82.086354,1.0,-4.3,-1.81,-8.34,-14.56,-4.5,34.06,18.12,25.31,14.69,-0.7341068736627159,-2.2981425817591212,0.5599571981412339,-118.45375451496908,59.2735703520065,6.730393436549607,0.1177,-0.8592,0.4945,0.0587
385,430792.0,82.086354,1.0,-4.3,-1.81,-8.34,-14.56,-4.5,34.06,18.12,25.31,14.69,-0.7341068736627159,-2.2981425817591212,0.5599571981412339,-118.45375451496908,59.2735703520065,6.730393436549607,0.1177,-0.8592,0.4945,0.0587
386,430827.0,82.10851,1.0,-4.6,-2.63,-7.97,-14.56,-4.5,34.06,18.25,44.13,17.44,-0.27483920824876673,-3.198004349918873,0.7902742543076595,-117.82949322355816,60.158846336733674,5.284543793645802,0.1152,-0.8564,0.5012,0.0461
387,430827.0,82.10851,1.0,-4.6,-2.63,-7.97,-14.56,-4.5,34.06,18.25,44.13,17.44,-0.27483920824876673,-3.198004349918873,0.7902742543076595,-117.82949322355816,60.158846336733674,5.284543793645802,0.1152,-0.8564,0.5012,0.0461
388,430862.0,82.16234,1.0,-2.3,-1.67,-10.14,-15.0,-5.25,35.25,-8.88,24.25,21.44,-0.10255291784223793,-0.4717382209109486,-0.7131145387134872,-116.88163381383896,61.40760741658022,4.3211257832659316,0.1088,-0.8521,0.5106,0.0377
389,430862.0,82.16234,1.0,-2.3,-1.67,-10.14,-15.0,-5.25,35.25,-8.88,24.25,21.44,-0.10255291784223793,-0.4717382209109486,-0.7131145387134872,-116.88163381383896,61.40760741658022,4.3211257832659316,0.1088,-0.8521,0.5106,0.0377
390,430899.0,82.184087,1.0,-3.09,-1.49,-8.84,-16.5,-3.19,33.25,-14.0,6.81,-1.0,-0.4929555114162114,-1.4543985217397095,0.4495393453306989,-116.29293986048515,62.15539687050149,4.3211257832659316,0.1033,-0.8494,0.5162,0.0377
391,430899.0,82.184087,1.0,-3.09,-1.49,-8.84,-16.5,-3.19,33.25,-14.0,6.81,-1.0,-0.4929555114162114,-1.4543985217397095,0.4495393453306989,-116.29293986048515,62.15539687050149,4.3211257832659316,0.1033,-0.8494,0.5162,0.0377
392,430934.0,82.23299200000001,1.0,-3.29,-2.34,-8.73,-16.5,-3.19,33.25,-3.94,23.12,6.56,0.15138325070005074,-2.148126475801793,0.43247079564472735,-116.35810942215919,62.235691121359,3.82807003686826,0.0986,-0.8497,0.5168,0.0334
393,430934.0,82.23299200000001,1.0,-3.29,-2.34,-8.73,-16.5,-3.19,33.25,-3.94,23.12,6.56,0.15138325070005074,-2.148126475801793,0.43247079564472735,-116.35810942215919,62.235691121359,3.82807003686826,0.0986,-0.8497,0.5168,0.0334
394,430966.0,82.243837,1.0,-2.37,-1.77,-9.33,-18.37,-4.56,32.88,-21.25,35.31,14.63,0.09284684630922024,-1.2110594987821606,0.09462578495914364,-115.6229775841169,63.30956065668752,3.1287382797377283,0.0876,-0.8463,0.5248,0.0273
395,430966.0,82.243837,1.0,-2.37,-1.77,-9.33,-18.37,-4.56,32.88,-21.25,35.31,14.63,0.09284684630922024,-1.2110594987821606,0.09462578495914364,-115.6229775841169,63.30956065668752,3.1287382797377283,0.0876,-0.8463,0.5248,0.0273
396,431003.0,82.305301,1.0,-1.89,-1.14,-9.07,-18.0,-3.5,32.88,-29.56,-6.19,6.38,-0.12598907195114822,-0.67419043269425,0.4971820230309376,-115.10854164041076,63.98388526065868,3.2892294003721183,0.0795,-0.8439,0.5298,0.0287
397,431003.0,82.305301,1.0,-1.89,-1.14,-9.07,-18.0,-3.5,32.88,-29.56,-6.19,6.38,-0.12598907195114822,-0.67419043269425,0.4971820230309376,-115.10854164041076,63.98388526065868,3.2892294003721183,0.0795,-0.8439,0.5298,0.0287
398,431040.0,82.31445699999999,1.0,-1.64,-1.26,-9.5,-18.37,-5.38,32.19,-19.19,-0.81,5.81,0.2260130945709493,-0.4651199687012038,0.09790232093253516,-114.70384241769943,64.45738978708853,3.8853982832056495,0.0741,-0.8420000000000001,0.5333,0.0339
399,431040.0,82.31445699999999,1.0,-1.64,-1.26,-9.5,-18.37,-5.38,32.19,-19.19,-0.81,5.81,0.2260130945709493,-0.4651199687012038,0.09790232093253516,-114.70384241769943,64.45738978708853,3.8853982832056495,0.0741,-0.8420000000000001,0.5333,0.0339
400,431073.0,82.38778,1.0,-1.33,-0.93,-9.82,-18.37,-5.38,32.19,-27.75,18.81,-0.56,0.15420459889085647,-0.10003836710983792,-0.14485306570755796,-114.72508670230465,64.53868567478604,4.057388916858228,0.0671,-0.8421,0.5339,0.0354
401,431073.0,82.38778,1.0,-1.33,-0.93,-9.82,-18.37,-5.38,32.19,-27.75,18.81,-0.56,0.15420459889085647,-0.10003836710983792,-0.14485306570755796,-114.72508670230465,64.53868567478604,4.057388916858228,0.0671,-0.8421,0.5339,0.0354
402,431112.0,82.403917,1.0,-1.14,-0.47,-9.83,-18.37,-5.38,33.38,-36.75,16.81,-7.63,-0.049608246204921665,0.05591096628660039,-0.1001059264250248,-114.74633713830113,64.71495187215974,4.045922594423996,0.0547,-0.8422,0.5352,0.0353
403,431112.0,82.403917,1.0,-1.14,-0.47,-9.83,-18.37,-5.38,33.38,-36.75,16.81,-7.63,-0.049608246204921665,0.05591096628660039,-0.1001059264250248,-114.74633713830113,64.71495187215974,4.045922594423996,0.0547,-0.8422,0.5352,0.0353
404,431147.0,82.407499,1.0,-1.17,-0.17,-9.99,-18.0,-6.5,31.75,-20.81,7.13,-8.25,-0.2335421492704909,0.06221685253579923,-0.25016297070670745,-114.8952629410071,64.64713688163303,4.183521171347446,0.0472,-0.8429,0.5347,0.0365
405,431147.0,82.407499,1.0,-1.17,-0.17,-9.99,-18.0,-6.5,31.75,-20.81,7.13,-8.25,-0.2335421492704909,0.06221685253579923,-0.25016297070670745,-114.8952629410071,64.64713688163303,4.183521171347446,0.0472,-0.8429,0.5347,0.0365
406,431179.0,82.448514,1.0,-1.08,-0.51,-10.19,-18.0,-6.5,31.75,2.75,-10.0,9.5,0.1515699025269366,0.04308009858152187,-0.451896225940315,-114.76759373176695,64.76922217655454,4.412865642375664,0.0471,-0.8423,0.5356,0.0385
407,431179.0,82.448514,1.0,-1.08,-0.51,-10.19,-18.0,-6.5,31.75,2.75,-10.0,9.5,0.1515699025269366,0.04308009858152187,-0.451896225940315,-114.76759373176695,64.76922217655454,4.412865642375664,0.0471,-0.8423,0.5356,0.0385
408,431214.0,82.51945699999999,1.0,-1.04,-0.24,-10.08,-19.5,-8.0,31.37,-6.88,-24.75,6.25,-0.007078495292710901,0.26530134813509143,-0.3262254600844745,-114.28023924222178,65.17677108886933,4.997776256010228,0.0489,-0.84,0.5386,0.0436
409,431214.0,82.51945699999999,1.0,-1.04,-0.24,-10.08,-19.5,-8.0,31.37,-6.88,-24.75,6.25,-0.007078495292710901,0.26530134813509143,-0.3262254600844745,-114.28023924222178,65.17677108886933,4.997776256010228,0.0489,-0.84,0.5386,0.0436
410,431251.0,82.5407,1.0,-1.31,-0.44,-9.64,-19.06,-7.56,31.0,8.25,-0.44,2.63,0.06494958331925005,-0.03628927837802018,0.06838708303675567,-113.94309450479722,65.44898558136794,5.296015172064578,0.0522,-0.8384,0.5406,0.0462
411,431251.0,82.5407,1.0,-1.31,-0.44,-9.64,-19.06,-7.56,31.0,8.25,-0.44,2.63,0.06494958331925005,-0.03628927837802018,0.06838708303675567,-113.94309450479722,65.44898558136794,5.296015172064578,0.0522,-0.8384,0.5406,0.0462
412,431286.0,82.587106,1.0,-1.76,-0.43,-9.33,-19.06,-7.56,31.0,6.06,19.87,0.94,-0.19306262045385306,-0.5328591131036495,0.3192800804613949,-113.90105869290855,65.54435879722949,4.825730880475589,0.0516,-0.8382,0.5413,0.0421
413,431286.0,82.587106,1.0,-1.76,-0.43,-9.33,-19.06,-7.56,31.0,6.06,19.87,0.94,-0.19306262045385306,-0.5328591131036495,0.3192800804613949,-113.90105869290855,65.54435879722949,4.825730880475589,0.0516,-0.8382,0.5413,0.0421
414,431319.0,82.613152,1.0,-1.34,-0.43,-9.79,-18.0,-6.88,31.0,3.06,32.88,-5.69,-0.12806107601822342,-0.2615295555311505,-0.07969425115738815,-113.77509319472591,65.80348711235835,3.724881599063971,0.0477,-0.8376,0.5432,0.0325
415,431319.0,82.613152,1.0,-1.34,-0.43,-9.79,-18.0,-6.88,31.0,3.06,32.88,-5.69,-0.12806107601822342,-0.2615295555311505,-0.07969425115738815,-113.77509319472591,65.80348711235835,3.724881599063971,0.0477,-0.8376,0.5432,0.0325
416,431355.0,82.655863,1.0,-0.56,-0.87,-10.05,-20.25,-7.19,30.56,3.63,22.56,-3.5,0.5093240116645916,0.18454686758207306,-0.2819342170647321,-113.64933964888505,66.02199478441803,2.968253297538604,0.0452,-0.8370000000000001,0.5448,0.0259
417,431355.0,82.655863,1.0,-0.56,-0.87,-10.05,-20.25,-7.19,30.56,3.63,22.56,-3.5,0.5093240116645916,0.18454686758207306,-0.2819342170647321,-113.64933964888505,66.02199478441803,2.968253297538604,0.0452,-0.8370000000000001,0.5448,0.0259
418,431390.0,82.729516,1.0,-0.92,-1.05,-9.75,-20.56,-7.19,29.06,-6.38,0.63,3.69,0.536442385072889,-0.3006883227667028,-0.02356953468227907,-113.46110408162376,66.2407734880853,2.807774138332147,0.0427,-0.8361,0.5464,0.0245
419,431390.0,82.729516,1.0,-0.92,-1.05,-9.75,-20.56,-7.19,29.06,-6.38,0.63,3.69,0.536442385072889,-0.3006883227667028,-0.02356953468227907,-113.46110408162376,66.2407734880853,2.807774138332147,0.0427,-0.8361,0.5464,0.0245
420,431425.0,82.747887,1.0,-0.53,-1.15,-9.14,-20.56,-7.19,29.06,0.75,-1.12,4.88,0.7969577687630395,-0.046284713158947784,0.6139509382371244,-113.25250462483365,66.43242860811324,2.8306993879474716,0.0423,-0.8351,0.5478,0.0247
421,431425.0,82.747887,1.0,-0.53,-1.15,-9.14,-20.56,-7.19,29.06,0.75,-1.12,4.88,0.7969577687630395,-0.046284713158947784,0.6139509382371244,-113.25250462483365,66.43242860811324,2.8306993879474716,0.0423,-0.8351,0.5478,0.0247
422,431462.0,82.751409,1.0,-0.78,-0.93,-10.01,-20.25,-7.56,31.0,-6.31,-2.06,4.94,0.5279305754744108,-0.11407762719692716,-0.26219678612463504,-113.10682738081556,66.61058219226842,2.956790311078442,0.0408,-0.8344,0.5491,0.0258
423,431462.0,82.751409,1.0,-0.78,-0.93,-10.01,-20.25,-7.56,31.0,-6.31,-2.06,4.94,0.5279305754744108,-0.11407762719692716,-0.26219678612463504,-113.10682738081556,66.61058219226842,2.956790311078442,0.0408,-0.8344,0.5491,0.0258
424,431497.0,82.79319100000001,1.0,-0.95,-0.03,-9.47,-19.5,-7.56,30.19,-9.63,-7.06,6.0,-0.3257749502428945,0.04334585949322206,0.2947473607664026,-112.94068164320149,66.76146977168455,3.1860558160551733,0.0402,-0.8336,0.5502,0.0278
425,431497.0,82.79319100000001,1.0,-0.95,-0.03,-9.47,-19.5,-7.56,30.19,-9.63,-7.06,6.0,-0.3257749502428945,0.04334585949322206,0.2947473607664026,-112.94068164320149,66.76146977168455,3.1860558160551733,0.0402,-0.8336,0.5502,0.0278
426,431532.0,82.812102,1.0,-1.12,-0.32,-9.71,-19.5,-7.56,30.19,5.88,-1.12,1.94,-0.06249865597359114,-0.2009801152894099,0.02929857380794765,-112.87847065921488,66.8163704357792,3.495584654482353,0.0385,-0.8333,0.5506,0.0305
427,431532.0,82.812102,1.0,-1.12,-0.32,-9.71,-19.5,-7.56,30.19,5.88,-1.12,1.94,-0.06249865597359114,-0.2009801152894099,0.02929857380794765,-112.87847065921488,66.8163704357792,3.495584654482353,0.0385,-0.8333,0.5506,0.0305
428,431566.0,82.821747,1.0,-1.36,-0.48,-9.52,-20.25,-7.19,30.56,-5.13,-1.19,-0.37,-0.01456720279123963,-0.4906955484720583,0.190548623906226,-112.65079783642125,67.03614692743177,3.495584654482353,0.0392,-0.8322,0.5522,0.0305
429,431566.0,82.821747,1.0,-1.36,-0.48,-9.52,-20.25,-7.19,30.56,-5.13,-1.19,-0.37,-0.01456720279123963,-0.4906955484720583,0.190548623906226,-112.65079783642125,67.03614692743177,3.495584654482353,0.0392,-0.8322,0.5522,0.0305
430,431603.0,82.881553,1.0,-1.19,-0.37,-9.44,-20.25,-8.38,30.19,-8.31,1.19,1.25,0.0001770507254803544,-0.33521394331399634,0.2906512830569934,-112.65079783642125,67.06363860553823,3.6331610823402585,0.0362,-0.8322,0.5524,0.0317
431,431603.0,82.881553,1.0,-1.19,-0.37,-9.44,-20.25,-8.38,30.19,-8.31,1.19,1.25,0.0001770507254803544,-0.33521394331399634,0.2906512830569934,-112.65079783642125,67.06363860553823,3.6331610823402585,0.0362,-0.8322,0.5524,0.0317
432,431638.0,82.88986,1.0,-1.08,-0.17,-9.64,-20.25,-8.38,30.19,-3.25,5.06,1.25,-0.09676738436665974,-0.16604720577044565,0.10675492846552892,-112.63013397663045,67.10488432031785,3.7478120989556993,0.0338,-0.8321,0.5527,0.0327
433,431638.0,82.88986,1.0,-1.08,-0.17,-9.64,-20.25,-8.38,30.19,-3.25,5.06,1.25,-0.09676738436665974,-0.16604720577044565,0.10675492846552892,-112.63013397663045,67.10488432031785,3.7478120989556993,0.0338,-0.8321,0.5527,0.0327
434,431671.0,82.93025899999999,1.0,-0.97,-0.71,-9.78,-20.25,-7.56,31.0,5.13,5.5,-1.19,0.3917906875721496,-0.2785539888976625,-0.0352150535557012,-112.48564315719341,67.2562029587362,3.4153340784378665,0.0346,-0.8314,0.5538,0.0298
435,431671.0,82.93025899999999,1.0,-0.97,-0.71,-9.78,-20.25,-7.56,31.0,5.13,5.5,-1.19,0.3917906875721496,-0.2785539888976625,-0.0352150535557012,-112.48564315719341,67.2562029587362,3.4153340784378665,0.0346,-0.8314,0.5538,0.0298
436,431706.0,83.007386,1.0,-0.81,-0.61,-9.73,-21.37,-7.56,31.37,-2.0,2.06,0.19,0.3582448722150586,-0.1135531003213796,0.03117731040902605,-112.21802358107666,67.53166897221763,3.335085177891311,0.034,-0.8301,0.5558,0.0291
437,431706.0,83.007386,1.0,-0.81,-0.61,-9.73,-21.37,-7.56,31.37,-2.0,2.06,0.19,0.3582448722150586,-0.1135531003213796,0.03117731040902605,-112.21802358107666,67.53166897221763,3.335085177891311,0.034,-0.8301,0.5558,0.0291
438,431742.0,83.010835,1.0,-1.09,-0.19,-9.53,-20.56,-8.38,29.75,-10.13,-2.0,-2.19,-0.1037320046183858,-0.2337542631357923,0.2160452945769027,-112.21802358107666,67.53166897221763,3.495584654482353,0.0328,-0.8301,0.5558,0.0305
439,431742.0,83.010835,1.0,-1.09,-0.19,-9.53,-20.56,-8.38,29.75,-10.13,-2.0,-2.19,-0.1037320046183858,-0.2337542631357923,0.2160452945769027,-112.21802358107666,67.53166897221763,3.495584654482353,0.0328,-0.8301,0.5558,0.0305
440,431777.0,83.054838,1.0,-0.98,-0.51,-9.74,-20.56,-8.38,29.75,-1.81,2.63,0.0,0.2464556366104971,-0.24772189674362866,0.010426570481014252,-112.30026879409438,67.4627610420609,3.5070491615651807,0.032,-0.8305,0.5553,0.0306
441,431777.0,83.054838,1.0,-0.98,-0.51,-9.74,-20.56,-8.38,29.75,-1.81,2.63,0.0,0.2464556366104971,-0.24772189674362866,0.010426570481014252,-112.30026879409438,67.4627610420609,3.5070491615651807,0.032,-0.8305,0.5553,0.0306
442,431812.0,83.075685,1.0,-1.0,-0.42,-9.74,-20.56,-8.38,29.75,1.44,-1.12,-0.19,0.16848111619999062,-0.2257393598108049,0.010494843260380192,-112.25913519470078,67.49032089207272,3.5873017007906127,0.0319,-0.8303,0.5555,0.0313
443,431812.0,83.075685,1.0,-1.0,-0.42,-9.74,-20.56,-8.38,29.75,1.44,-1.12,-0.19,0.16848111619999062,-0.2257393598108049,0.010494843260380192,-112.25913519470078,67.49032089207272,3.5873017007906127,0.0319,-0.8303,0.5555,0.0313
444,431847.0,83.123699,1.0,-0.88,-0.16,-9.72,-20.25,-8.0,29.75,0.44,0.5,-0.37,-0.037546361241616505,-0.018673483144357076,0.045674558386348714,-112.21802358107666,67.53166897221763,3.5299782811888885,0.0322,-0.8301,0.5558,0.0308
445,431847.0,83.123699,1.0,-0.88,-0.16,-9.72,-20.25,-8.0,29.75,0.44,0.5,-0.37,-0.037546361241616505,-0.018673483144357076,0.045674558386348714,-112.21802358107666,67.53166897221763,3.5299782811888885,0.0322,-0.8301,0.5558,0.0308
446,431884.0,83.143505,1.0,-1.08,-0.48,-9.67,-20.25,-8.0,29.75,5.63,0.37,-0.56,0.1488764105788462,-0.3110280117655363,0.07079886153910309,-112.19747600626744,67.54545388216584,3.4267983429423063,0.0339,-0.83,0.5559,0.0299
447,431884.0,83.143505,1.0,-1.08,-0.48,-9.67,-20.25,-8.0,29.75,5.63,0.37,-0.56,0.1488764105788462,-0.3110280117655363,0.07079886153910309,-112.19747600626744,67.54545388216584,3.4267983429423063,0.0339,-0.83,0.5559,0.0299
448,431917.0,83.190253,1.0,-0.93,-0.52,-9.77,-21.0,-8.0,29.75,1.25,1.56,0.31,0.22945906943982,-0.17286086091222985,-0.017079824166410518,-112.09482025042286,67.65577312725135,3.369477361207863,0.0346,-0.8295,0.5567,0.0294
449,431917.0,83.190253,1.0,-0.93,-0.52,-9.77,-21.0,-8.0,29.75,1.25,1.56,0.31,0.22945906943982,-0.17286086091222985,-0.017079824166410518,-112.09482025042286,67.65577312725135,3.369477361207863,0.0346,-0.8295,0.5567,0.0294
450,431953.0,83.255641,1.0,-0.95,-0.35,-9.64,-19.87,-8.0,30.56,1.75,-0.25,0.44,0.05284580798301988,-0.13926615861176814,0.11477648361297275,-111.99230089793316,67.73855928586947,3.3121572228147254,0.0349,-0.8290000000000001,0.5573,0.0289
451,431953.0,83.255641,1.0,-0.95,-0.35,-9.64,-19.87,-8.0,30.56,1.75,-0.25,0.44,0.05284580798301988,-0.13926615861176814,0.11477648361297275,-111.99230089793316,67.73855928586947,3.3121572228147254,0.0349,-0.8290000000000001,0.5573,0.0289
452,431986.0,83.325347,1.0,-1.03,-0.65,-9.59,-19.87,-8.0,30.56,4.88,1.25,-2.5,0.2773439771785313,-0.3196912475535533,0.14888743175675145,-112.09482025042286,67.64197933171232,3.243374149708243,0.036000000000000004,-0.8295,0.5566,0.0283
453,431986.0,83.325347,1.0,-1.03,-0.65,-9.59,-19.87,-8.0,30.56,4.88,1.25,-2.5,0.2773439771785313,-0.3196912475535533,0.14888743175675145,-112.09482025042286,67.64197933171232,3.243374149708243,0.036000000000000004,-0.8295,0.5566,0.0283
454,432021.0,83.344673,1.0,-0.91,-0.58,-9.77,-20.56,-7.56,30.56,0.25,2.38,-0.69,0.23183054383233245,-0.16151673018170035,-0.018703273283248837,-111.97181334084304,67.77996741979399,3.117274866889664,0.037000000000000005,-0.8289,0.5576,0.0272
455,432021.0,83.344673,1.0,-0.91,-0.58,-9.77,-20.56,-7.56,30.56,0.25,2.38,-0.69,0.23183054383233245,-0.16151673018170035,-0.018703273283248837,-111.97181334084304,67.77996741979399,3.117274866889664,0.037000000000000005,-0.8289,0.5576,0.0272
456,432056.0,83.347973,1.0,-1.04,-0.44,-9.57,-21.0,-8.0,30.19,-1.81,3.63,1.63,0.04201040502768505,-0.24603616104868065,0.17348845597273055,-111.80810781092319,67.93188335325443,3.0599582684028324,0.0374,-0.8281,0.5587,0.0267
457,432056.0,83.347973,1.0,-1.04,-0.44,-9.57,-21.0,-8.0,30.19,-1.81,3.63,1.63,0.04201040502768505,-0.24603616104868065,0.17348845597273055,-111.80810781092319,67.93188335325443,3.0599582684028324,0.0374,-0.8281,0.5587,0.0267
458,432089.0,83.39469799999999,1.0,-0.88,-0.56,-9.66,-21.0,-8.0,30.19,1.44,4.25,0.88,0.2000080403840891,-0.14615972324997964,0.0936569433216814,-111.80810781092319,67.93188335325443,2.956790311078442,0.0373,-0.8281,0.5587,0.0258
459,432089.0,83.39469799999999,1.0,-0.88,-0.56,-9.66,-21.0,-8.0,30.19,1.44,4.25,0.88,0.2000080403840891,-0.14615972324997964,0.0936569433216814,-111.80810781092319,67.93188335325443,2.956790311078442,0.0373,-0.8281,0.5587,0.0258
460,432123.0,83.39936,1.0,-1.08,-0.52,-9.55,-21.0,-7.56,30.25,-4.69,1.88,0.81,0.08975838286616898,-0.3370065122888424,0.18803939121765725,-111.72638448420557,68.02862779063561,2.9224015288032215,0.0368,-0.8277,0.5594,0.0255
461,432123.0,83.39936,1.0,-1.08,-0.52,-9.55,-21.0,-7.56,30.25,-4.69,1.88,0.81,0.08975838286616898,-0.3370065122888424,0.18803939121765725,-111.72638448420557,68.02862779063561,2.9224015288032215,0.0368,-0.8277,0.5594,0.0255
462,432158.0,83.418686,1.0,-0.96,-0.48,-9.64,-20.56,-7.19,31.0,-5.88,2.94,2.38,0.1099978122462492,-0.21903338643421064,0.11018028896969057,-111.58357510903522,68.18076625802583,2.9224015288032215,0.0358,-0.8270000000000001,0.5605,0.0255
463,432158.0,83.418686,1.0,-0.96,-0.48,-9.64,-20.56,-7.19,31.0,-5.88,2.94,2.38,0.1099978122462492,-0.21903338643421064,0.11018028896969057,-111.58357510903522,68.18076625802583,2.9224015288032215,0.0358,-0.8270000000000001,0.5605,0.0255
