acc_x,acc_y,acc_z,lin_x,lin_y,lin_z,eul_x,eul_y,eul_z
-0.41,-1.47,-9.74,0.1189118478065867,-0.1119560275839429,-0.0508307035235393,-113.81705808343624,65.57161767194049,-2.4180613422720283
-0.41,-1.47,-9.74,0.1189118478065867,-0.1119560275839429,-0.0508307035235393,-113.81705808343624,65.57161767194049,-2.4180613422720283
-0.38,-1.3,-9.77,-0.0168258241768957,-0.0191232383659357,-0.0567495758762177,-113.79607269247896,65.59888072386629,-2.3951379752687134
-0.38,-1.3,-9.77,-0.0168258241768957,-0.0191232383659357,-0.0567495758762177,-113.79607269247896,65.59888072386629,-2.3951379752687134
-0.37,-1.28,-9.73,-0.0241129209964233,-0.0014468619120082,-0.0141247389720557,-113.77509319472593,65.62614795647175,-2.372214704126748
-0.37,-1.28,-9.73,-0.0241129209964233,-0.0014468619120082,-0.0141247389720557,-113.77509319472593,65.62614795647175,-2.372214704126748
-0.54,-1.28,-9.61,-0.0777905532916336,-0.1574876704514065,0.0983418949039105,-113.75411958451244,65.65341937322533,-2.3263684457528235
-0.54,-1.28,-9.61,-0.0777905532916336,-0.1574876704514065,0.0983418949039105,-113.75411958451244,65.65341937322533,-2.3263684457528235
-0.46,-1.27,-9.7,-0.0600387515901448,-0.0703541632213881,0.0134918965062684,-113.73315185618264,65.66705665174257,-2.3034454566839293
-0.46,-1.27,-9.7,-0.0600387515901448,-0.0703541632213881,0.0134918965062684,-113.73315185618264,65.66705665174257,-2.3034454566839293
-0.48,-1.39,-9.86,0.0188571146272036,-0.1234811921637599,-0.1616245149002484,-113.75411958451244,65.63978314161311,-2.3263684457528235
-0.48,-1.39,-9.86,0.0188571146272036,-0.1234811921637599,-0.1616245149002484,-113.75411958451244,65.63978314161311,-2.3263684457528235
-0.5,-1.39,-9.62,0.0386258507654837,-0.1448910376718146,0.0750512294559175,-113.71219000408917,65.66705665174257,-2.2575997541901875
-0.5,-1.39,-9.62,0.0386258507654837,-0.1448910376718146,0.0750512294559175,-113.71219000408917,65.66705665174257,-2.2575997541901875
-0.48,-1.34,-9.7,-0.0073428949876844,-0.0949367677259168,0.0032356411132496,-113.71219000408917,65.66705665174257,-2.24613838532295
-0.48,-1.34,-9.7,-0.0073428949876844,-0.0949367677259168,0.0032356411132496,-113.71219000408917,65.66705665174257,-2.24613838532295
-0.57,-1.19,-9.8,-0.1787393410611459,-0.104447053845213,-0.0796103172736693,-113.75411958451244,65.65341937322533,-2.1773706400327653
-0.57,-1.19,-9.8,-0.1787393410611459,-0.104447053845213,-0.0796103172736693,-113.75411958451244,65.65341937322533,-2.1773706400327653
-0.53,-1.27,-9.72,-0.0803752541080382,-0.1020604454840658,-0.0094247493076231,-113.73315185618264,65.65341937322533,-2.154448233767236
-0.53,-1.27,-9.72,-0.0803752541080382,-0.1020604454840658,-0.0094247493076231,-113.73315185618264,65.65341937322533,-2.154448233767236
-0.53,-1.38,-9.71,0.0142249525238336,-0.1419952126961642,-0.0141969599264744,-113.75411958451244,65.63978314161311,-2.1659094260652934
-0.53,-1.38,-9.71,0.0142249525238336,-0.1419952126961642,-0.0141969599264744,-113.75411958451244,65.63978314161311,-2.1659094260652934
-0.49,-1.34,-9.75,-0.0148210008368552,-0.0820675904070223,-0.0468389886039322,-113.77509319472593,65.61251381736736,-2.1773706400327653
-0.49,-1.34,-9.75,-0.0148210008368552,-0.0820675904070223,-0.0468389886039322,-113.77509319472593,65.61251381736736,-2.1773706400327653
-0.48,-1.22,-9.85,-0.1333195014024154,-0.0102676140195195,-0.1293160067176249,-113.77509319472593,65.58524867553507,-2.1773706400327653
-0.48,-1.22,-9.85,-0.1333195014024154,-0.0102676140195195,-0.1293160067176249,-113.77509319472593,65.58524867553507,-2.1773706400327653
-0.57,-1.37,-9.67,-0.021484101617754,-0.1617407598872832,0.024826123034682,-113.81705808343624,65.54435879722949,-2.1773706400327653
-0.57,-1.37,-9.67,-0.021484101617754,-0.1617407598872832,0.024826123034682,-113.81705808343624,65.54435879722949,-2.1773706400327653
-0.57,-1.28,-9.7,-0.1054183112249496,-0.1244483576497951,0.0073286160501506,-113.8590465676662,65.50347830987022,-2.1773706400327653
-0.57,-1.28,-9.7,-0.1054183112249496,-0.1244483576497951,0.0073286160501506,-113.8590465676662,65.50347830987022,-2.1773706400327653
-0.43,-1.16,-9.94,-0.1698424423486688,0.0692516306023368,-0.2083616203844691,-113.98515404910734,65.40812696087787,-2.1315259137202647
-0.43,-1.16,-9.94,-0.1698424423486688,0.0692516306023368,-0.2083616203844691,-113.98515404910734,65.40812696087787,-2.1315259137202647
-0.76,-1.18,-9.46,-0.2226979845161043,-0.2616148493601744,0.2492673416417634,-114.06934451880512,65.31282652906373,-1.9710720103882065
-0.76,-1.18,-9.46,-0.2226979845161043,-0.2616148493601744,0.2492673416417634,-114.06934451880512,65.31282652906373,-1.9710720103882065
-0.67,-1.13,-9.69,-0.2393797783154136,-0.1345939570909583,0.0318619312770653,-114.238012277231,65.14957239662155,-1.8793858210517669
-0.67,-1.13,-9.69,-0.2393797783154136,-0.1345939570909583,0.0318619312770653,-114.238012277231,65.14957239662155,-1.8793858210517669
-0.78,-1.18,-9.69,-0.2248857616660601,-0.2466134874784585,0.0196428894480948,-114.38591221182236,65.00005321390788,-1.7647797695524667
-0.78,-1.18,-9.69,-0.2248857616660601,-0.2466134874784585,0.0196428894480948,-114.38591221182236,65.00005321390788,-1.7647797695524667
-0.4,-1.44,-9.74,0.1498851247609278,-0.0039278774869189,-0.0462033441411708,-114.5341088647508,64.83708299106056,-1.8220825674649568
-0.4,-1.44,-9.74,0.1498851247609278,-0.0039278774869189,-0.0462033441411708,-114.5341088647508,64.83708299106056,-1.8220825674649568
-0.42,-1.55,-9.61,0.2569453586138248,-0.0674748249767622,0.0670182702742199,-114.6401464115957,64.7285179210035,-1.7533192633889718
-0.42,-1.55,-9.61,0.2569453586138248,-0.0674748249767622,0.0670182702742199,-114.6401464115957,64.7285179210035,-1.7533192633889718
-0.27,-1.75,-9.95,0.4648342569483429,0.0183342204833422,-0.2889675130561766,-114.74633713830112,64.6200179960006,-1.7533192633889718
-0.27,-1.75,-9.95,0.4648342569483429,0.0183342204833422,-0.2889675130561766,-114.74633713830112,64.6200179960006,-1.7533192633889718
-0.42,-1.33,-9.71,0.0892693788075185,0.0450799252919225,-0.0024987285259907,-114.7888564887898,64.60646007520779,-1.5126525087430307
-0.42,-1.33,-9.71,0.0892693788075185,0.0450799252919225,-0.0024987285259907,-114.7888564887898,64.60646007520779,-1.5126525087430307
-0.45,-1.35,-9.75,0.1330746402982109,0.0264188255154296,-0.0457148524487696,-114.83140051790564,64.5657923959142,-1.2605325708995527
-0.45,-1.35,-9.75,0.1330746402982109,0.0264188255154296,-0.0457148524487696,-114.83140051790564,64.5657923959142,-1.2605325708995527
-0.58,-1.14,-9.73,-0.0794777712651268,-0.0017322168245728,-0.00673780866728,-114.87396927454428,64.52513383249247,-1.100095864564908
-0.58,-1.14,-9.73,-0.0794777712651268,-0.0017322168245728,-0.00673780866728,-114.87396927454428,64.52513383249247,-1.100095864564908
-0.78,-0.89,-9.61,-0.341448946443237,-0.089618430582437,0.1304947121869357,-115.0018244008949,64.4302992386677,-0.9052827329224428
-0.78,-0.89,-9.61,-0.341448946443237,-0.089618430582437,0.1304947121869357,-115.0018244008949,64.4302992386677,-0.9052827329224428
-1.01,-0.49,-9.63,-0.7954604676603227,-0.1291915924535025,0.1449911270719681,-115.10854164041076,64.32197736057384,-0.8823637238721431
-1.01,-0.49,-9.63,-0.7954604676603227,-0.1291915924535025,0.1449911270719681,-115.10854164041076,64.32197736057384,-0.8823637238721431
-1.14,-0.27,-9.58,-1.0555367365946116,-0.1612707284346993,0.2145316755708588,-115.42963584973434,64.0244233467086,-0.93966131468631
-1.14,-0.27,-9.58,-1.0555367365946116,-0.1612707284346993,0.2145316755708588,-115.42963584973434,64.0244233467086,-0.93966131468631
-1.29,-0.43,-9.57,-0.9548019730517324,-0.3526508226815352,0.1942678504223725,-115.83841139442428,63.6194442055739,-0.7677691897415189
-1.29,-0.43,-9.57,-0.9548019730517324,-0.3526508226815352,0.1942678504223725,-115.83841139442428,63.6194442055739,-0.7677691897415189
-1.35,-0.21,-9.48,-1.0974459784430708,-0.2962216940010651,0.2963994758338639,-116.55397754456402,62.91957249352721,-0.2979383891459227
-1.35,-0.21,-9.48,-1.0974459784430708,-0.2962216940010651,0.2963994758338639,-116.55397754456402,62.91957249352721,-0.2979383891459227
-0.79,-1.08,-9.74,-0.1640926194692845,-0.1608695947193279,-0.0221492443497695,-117.166841303543,62.28923949337646,-0.6302567522155992
-0.79,-1.08,-9.74,-0.1640926194692845,-0.1608695947193279,-0.0221492443497695,-117.166841303543,62.28923949337646,-0.6302567522155992
-0.57,-1.35,-10.07,0.0595149088185139,-0.0837828300079943,-0.368896099007376,-118.16321281406336,61.247744610159856,-1.0771765184626354
-0.57,-1.35,-10.07,0.0595149088185139,-0.0837828300079943,-0.368896099007376,-118.16321281406336,61.247744610159856,-1.0771765184626354
-0.56,-1.0,-9.64,-0.226651152037787,0.0606689445324485,0.1015921158630224,-118.94828017259012,60.45039656824655,-1.100095864564908
-0.56,-1.0,-9.64,-0.226651152037787,0.0606689445324485,0.1015921158630224,-118.94828017259012,60.45039656824655,-1.100095864564908
-0.41,-1.07,-9.87,-0.1369902266274927,0.1999642243951044,-0.1266851894905141,-119.78825181236216,59.577029137074135,-1.1344749665222489
-0.41,-1.07,-9.87,-0.1369902266274927,0.1999642243951044,-0.1266851894905141,-119.78825181236216,59.577029137074135,-1.1344749665222489
-0.57,-1.45,-9.52,0.0936372545967535,-0.1422292797623289,0.1615059939972951,-121.03358960360973,58.26094192949911,-1.1803139285143014
-0.57,-1.45,-9.52,0.0936372545967535,-0.1422292797623289,0.1615059939972951,-121.03358960360973,58.26094192949911,-1.1803139285143014
-0.35,-1.59,-9.77,0.2329002525474477,-0.0181070456564259,-0.0953159465815591,-122.20841159701892,57.05754239979307,-1.5011923619341792
-0.35,-1.59,-9.77,0.2329002525474477,-0.0181070456564259,-0.0953159465815591,-122.20841159701892,57.05754239979307,-1.5011923619341792
0.12,-1.65,-10.03,0.4638061105577097,0.3470649218343817,-0.342351420427601,-123.09201996316364,56.1335150213454,-1.7647797695524667
0.12,-1.65,-10.03,0.4638061105577097,0.3470649218343817,-0.342351420427601,-123.09201996316364,56.1335150213454,-1.7647797695524667
0.04,-1.63,-9.84,0.3938456473099171,0.2567299754447621,-0.156435632764742,-124.40467458524144,54.78712101513374,-1.8450038134157023
0.04,-1.63,-9.84,0.3938456473099171,0.2567299754447621,-0.156435632764742,-124.40467458524144,54.78712101513374,-1.8450038134157023
-0.07,-1.52,-9.62,0.255155942599381,0.2103977144441617,0.0726719721476207,-125.3457502614118,53.82124003233572,-1.79916139442209
-0.07,-1.52,-9.62,0.255155942599381,0.2103977144441617,0.0726719721476207,-125.3457502614118,53.82124003233572,-1.79916139442209
0.19,-1.91,-9.7,0.6617818910905947,0.1948636314103669,-0.0573386908784563,-126.5308282926202,52.59090035589804,-1.9825328715837247
0.19,-1.91,-9.7,0.6617818910905947,0.1948636314103669,-0.0573386908784563,-126.5308282926202,52.59090035589804,-1.9825328715837247
0.32,-2.65,-9.69,1.2705983278360362,-0.1233751943914551,-0.1628714755127074,-127.24853393391231,51.79977218612414,-2.0971425933011094
0.32,-2.65,-9.69,1.2705983278360362,-0.1233751943914551,-0.1628714755127074,-127.24853393391231,51.79977218612414,-2.0971425933011094
0.55,-2.86,-9.93,1.5187923436261532,-0.015422524852279,-0.4295617974702797,-127.94929869917114,50.98589564550729,-2.085681528609333
0.55,-2.86,-9.93,1.5187923436261532,-0.015422524852279,-0.4295617974702797,-127.94929869917114,50.98589564550729,-2.085681528609333
0.3,-2.68,-9.5,1.2848352682532158,-0.1486015165470964,0.0163733990692289,-128.4213907260083,50.51663080170575,-1.9023072532875973
0.3,-2.68,-9.5,1.2848352682532158,-0.1486015165470964,0.0163733990692289,-128.4213907260083,50.51663080170575,-1.9023072532875973
0.1,-2.19,-9.47,0.7878998175007639,-0.0078366230561872,0.1181954036816908,-128.81789729217328,50.111510359679706,-1.856464464018338
0.1,-2.19,-9.47,0.7878998175007639,-0.0078366230561872,0.1181954036816908,-128.81789729217328,50.111510359679706,-1.856464464018338
-0.04,-2.14,-9.57,0.6638479306935516,-0.0797087037960928,0.0230385784720041,-129.19057220176188,49.75757860526172,-1.7647797695524667
-0.04,-2.14,-9.57,0.6638479306935516,-0.0797087037960928,0.0230385784720041,-129.19057220176188,49.75757860526172,-1.7647797695524667
-0.05,-2.06,-9.32,0.5884788405526293,-0.0823396178707573,0.2800864621049861,-129.40467932878911,49.54293879660048,-1.94815034703792
-0.05,-2.06,-9.32,0.5884788405526293,-0.0823396178707573,0.2800864621049861,-129.40467932878911,49.54293879660048,-1.94815034703792
0.04,-2.36,-9.59,0.7821543116668069,-0.1673917319996178,-0.0371051087376805,-129.40467932878911,49.47984477339551,-2.280522559802512
0.04,-2.36,-9.59,0.7821543116668069,-0.1673917319996178,-0.0371051087376805,-129.40467932878911,49.47984477339551,-2.280522559802512
-0.04,-2.18,-9.59,0.5436429861552439,-0.1154934832424134,-0.0123730450352219,-129.37786968902606,49.46722789019666,-2.555603608821701
-0.04,-2.18,-9.59,0.5436429861552439,-0.1154934832424134,-0.0123730450352219,-129.37786968902606,49.46722789019666,-2.555603608821701
0.03,-2.11,-9.78,0.4894558434239318,0.0065572272897256,-0.1864371096027373,-129.24401990955522,49.56818089392642,-2.704611892754087
0.03,-2.11,-9.78,0.4894558434239318,0.0065572272897256,-0.1864371096027373,-129.24401990955522,49.56818089392642,-2.704611892754087
0.08,-2.03,-9.71,0.4583885943287949,0.0774763850155507,-0.1027030215829025,-129.00391708769308,49.808109162272245,-2.807774138332147
0.08,-2.03,-9.71,0.4583885943287949,0.0774763850155507,-0.1027030215829025,-129.00391708769308,49.808109162272245,-2.807774138332147
0.0,-2.38,-9.84,0.6443216973566279,-0.1740385037056706,-0.2950607536072009,-128.79137449285287,50.0103350226896,-2.865087475133015
0.0,-2.38,-9.84,0.6443216973566279,-0.1740385037056706,-0.2950607536072009,-128.79137449285287,50.0103350226896,-2.865087475133015
-0.17,-1.97,-9.58,0.2975309949734584,-0.0799034100257949,0.0295701316499243,-128.39505791682004,50.465953903367264,-2.681687249969397
-0.17,-1.97,-9.58,0.2975309949734584,-0.0799034100257949,0.0295701316499243,-128.39505791682004,50.465953903367264,-2.681687249969397
-0.05,-2.07,-9.65,0.438323475989601,-0.0369400353731008,-0.0531881307292785,-127.97542141388575,50.88435563772038,-2.738999060214957
-0.05,-2.07,-9.65,0.438323475989601,-0.0369400353731008,-0.0531881307292785,-127.97542141388575,50.88435563772038,-2.738999060214957
-0.18,-1.93,-9.56,0.2706328459323428,-0.0695020400471617,0.0561204077608241,-127.55891058236664,51.31619778683095,-2.738999060214957
-0.18,-1.93,-9.56,0.2706328459323428,-0.0695020400471617,0.0561204077608241,-127.55891058236664,51.31619778683095,-2.738999060214957
-0.21,-2.02,-9.67,0.3111800427569664,-0.1172558891828449,-0.0687141977114791,-126.86293079671192,52.016428687631496,-2.7619239753850606
-0.21,-2.02,-9.67,0.3111800427569664,-0.1172558891828449,-0.0687141977114791,-126.86293079671192,52.016428687631496,-2.7619239753850606
-0.07,-1.86,-9.7,0.2766923773223798,0.0947070373658117,-0.0659875354008132,-126.2513038466384,52.65481814526298,-2.7733864743736323
-0.07,-1.86,-9.7,0.2766923773223798,0.0947070373658117,-0.0659875354008132,-126.2513038466384,52.65481814526298,-2.7733864743736323
-0.17,-1.59,-9.63,0.0442888618902291,0.1477107422763894,0.0460086259237755,-125.5457815403515,53.41039017666287,-2.704611892754087
-0.17,-1.59,-9.63,0.0442888618902291,0.1477107422763894,0.0460086259237755,-125.5457815403515,53.41039017666287,-2.704611892754087
-0.37,-1.68,-9.6,0.0096398536267572,-0.057330082799176,0.0539108804075816,-124.898131026557,54.05267163514365,-2.681687249969397
-0.37,-1.68,-9.6,0.0096398536267572,-0.057330082799176,0.0539108804075816,-124.898131026557,54.05267163514365,-2.681687249969397
-0.24,-1.69,-9.7,0.0851479878415121,0.0555139160171508,-0.0418711085368048,-124.0127932062898,54.96788438262905,-2.738999060214957
-0.24,-1.69,-9.7,0.0851479878415121,0.0555139160171508,-0.0418711085368048,-124.0127932062898,54.96788438262905,-2.738999060214957
-0.38,-1.62,-9.7,-0.0378934436022773,-0.0192035775674607,-0.0349451608233,-123.40547411170807,55.58877661222697,-2.7160742546883188
-0.38,-1.62,-9.7,-0.0378934436022773,-0.0192035775674607,-0.0349451608233,-123.40547411170807,55.58877661222697,-2.7160742546883188
-0.24,-1.9,-9.92,0.2334119832248544,0.0018439841143574,-0.2938210506891536,-122.3984110822012,56.56249373757082,-2.7733864743736323
-0.24,-1.9,-9.92,0.2334119832248544,0.0018439841143574,-0.2938210506891536,-122.3984110822012,56.56249373757082,-2.7733864743736323
-0.4,-1.58,-9.73,-0.088930341703781,0.0345518662856976,-0.058449977337311,-121.59481456130888,57.37080402823785,-2.750461504037132
-0.4,-1.58,-9.73,-0.088930341703781,0.0345518662856976,-0.058449977337311,-121.59481456130888,57.37080402823785,-2.750461504037132
-0.24,-1.41,-10.03,-0.1676578543017861,0.2892569776337567,-0.31929791833244,-120.61584152012747,58.37904205289053,-2.750461504037132
-0.24,-1.41,-10.03,-0.1676578543017861,0.2892569776337567,-0.31929791833244,-120.61584152012747,58.37904205289053,-2.750461504037132
-0.34,-1.07,-10.06,-0.4860719228153513,0.3902951735034701,-0.2965922401618446,-119.90257635349056,59.11542551802431,-2.6243761106355543
-0.34,-1.07,-10.06,-0.4860719228153513,0.3902951735034701,-0.2965922401618446,-119.90257635349056,59.11542551802431,-2.6243761106355543
-0.6,-1.14,-9.92,-0.5197820362366005,0.162445302008235,-0.1818152554164296,-118.94828017259012,60.05293463473585,-2.4180613422720283
-0.6,-1.14,-9.92,-0.5197820362366005,0.162445302008235,-0.1818152554164296,-118.94828017259012,60.05293463473585,-2.4180613422720283
-0.8,-0.93,-9.73,-0.7397016483091197,0.0890922113478982,0.0279637871508562,-118.38659680691794,60.62287944183471,-2.18883187578443
-0.8,-0.93,-9.73,-0.7397016483091197,0.0890922113478982,0.0279637871508562,-118.38659680691794,60.62287944183471,-2.18883187578443
-0.91,-0.58,-9.52,-1.0249517796150152,0.1454076796549376,0.281775698668703,-117.74077335444636,61.30101752415778,-1.925228761643688
-0.91,-0.58,-9.52,-1.0249517796150152,0.1454076796549376,0.281775698668703,-117.74077335444636,61.30101752415778,-1.925228761643688
-1.01,-0.92,-9.49,-0.7546910470640155,-0.0898308887003278,0.2489843940627043,-117.43114513307,61.62096412364078,-1.79916139442209
-1.01,-0.92,-9.49,-0.7546910470640155,-0.0898308887003278,0.2489843940627043,-117.43114513307,61.62096412364078,-1.79916139442209
-1.06,-1.04,-9.27,-0.6105829448753166,-0.1948385057352128,0.4403633065386998,-117.1448610408126,61.9013549664198,-1.5470330404085568
-1.06,-1.04,-9.27,-0.6105829448753166,-0.1948385057352128,0.4403633065386998,-117.1448610408126,61.9013549664198,-1.5470330404085568
-1.03,-1.21,-9.43,-0.4560616002337186,-0.20975182709583,0.2568902130827269,-116.9473481900315,62.08851089054388,-1.4668120111410634
-1.03,-1.21,-9.43,-0.4560616002337186,-0.20975182709583,0.2568902130827269,-116.9473481900315,62.08851089054388,-1.4668120111410634
-1.04,-1.19,-9.58,-0.4476370980175235,-0.1736413734583721,0.1090436096631588,-116.79410996273164,62.262463418184296,-1.1917736982377245
-1.04,-1.19,-9.58,-0.4476370980175235,-0.1736413734583721,0.1090436096631588,-116.79410996273164,62.262463418184296,-1.1917736982377245
-0.9,-1.22,-9.67,-0.3524261391715039,-0.0529961797145701,0.0250199098072432,-116.72853831267862,62.32941069730318,-1.1344749665222489
-0.9,-1.22,-9.67,-0.3524261391715039,-0.0529961797145701,0.0250199098072432,-116.72853831267862,62.32941069730318,-1.1344749665222489
-0.68,-1.34,-9.68,-0.1532095987158573,0.0840521532500337,0.0122708949012295,-116.64120406641231,62.423176652141294,-1.1917736982377245
-0.68,-1.34,-9.68,-0.1532095987158573,0.0840521532500337,0.0122708949012295,-116.64120406641231,62.423176652141294,-1.1917736982377245
-0.86,-1.48,-9.48,-0.0958283183988399,-0.1532563681306716,0.1750494362816166,-116.59757736800644,62.47677807164217,-1.1803139285143014
-0.86,-1.48,-9.48,-0.0958283183988399,-0.1532563681306716,0.1750494362816166,-116.59757736800644,62.47677807164217,-1.1803139285143014
-0.69,-1.35,-9.8,-0.163698109666382,0.0877465485978332,-0.108192584332885,-116.57577410041328,62.49018080239912,-1.2032334798806037
-0.69,-1.35,-9.8,-0.163698109666382,0.0877465485978332,-0.108192584332885,-116.57577410041328,62.49018080239912,-1.2032334798806037
-0.47,-1.35,-9.84,-0.0779633840356357,0.2807280095879012,-0.1323697451953247,-116.53218769347627,62.5303947029574,-1.283452294756085
-0.47,-1.35,-9.84,-0.0779633840356357,0.2807280095879012,-0.1323697451953247,-116.53218769347627,62.5303947029574,-1.283452294756085
-0.47,-1.63,-9.95,0.1412488420437594,0.1910389711058956,-0.2841305880486811,-116.55397754456402,62.49018080239912,-1.294912175882028
-0.47,-1.63,-9.95,0.1412488420437594,0.1910389711058956,-0.2841305880486811,-116.55397754456402,62.49018080239912,-1.294912175882028
-0.68,-1.47,-9.61,-0.0576542255127249,0.09222844335308,0.0617246588536044,-116.4668582991344,62.51698911767068,-1.100095864564908
-0.68,-1.47,-9.61,-0.0576542255127249,0.09222844335308,0.0617246588536044,-116.4668582991344,62.51698911767068,-1.100095864564908
-0.67,-1.42,-9.13,-0.0516968480824883,0.0803010198411343,0.5431150817244248,-116.4668582991344,62.49018080239912,-1.0542572154525014
-0.67,-1.42,-9.13,-0.0516968480824883,0.0803010198411343,0.5431150817244248,-116.4668582991344,62.49018080239912,-1.0542572154525014
-0.62,-1.58,-8.87,0.1123642701610808,0.0031226071559621,0.7764194093608143,-116.4668582991344,62.47677807164217,-1.2490727279396536
-0.62,-1.58,-8.87,0.1123642701610808,0.0031226071559621,0.7764194093608143,-116.4668582991344,62.47677807164217,-1.2490727279396536
-0.34,-1.7,-8.93,0.2888207518987508,0.1768015574283454,0.7162251594018674,-116.42333876589676,62.51698911767068,-1.6272548279067642
-0.34,-1.7,-8.93,0.2888207518987508,0.1768015574283454,0.7162251594018674,-116.42333876589676,62.51698911767068,-1.6272548279067642
-0.08,-1.31,-8.43,0.1075846450990652,0.5039828090367281,1.2906751954145417,-116.33637960164222,62.58402657079336,-1.7533192633889718
-0.08,-1.31,-8.43,0.1075846450990652,0.5039828090367281,1.2906751954145417,-116.33637960164222,62.58402657079336,-1.7533192633889718
-0.47,-1.25,-8.54,-0.1648921051746881,0.1715339226973726,1.166141524972902,-116.37984588512,62.557208730764245,-2.0054546535892377
-0.47,-1.25,-8.54,-0.1648921051746881,0.1715339226973726,1.166141524972902,-116.37984588512,62.557208730764245,-2.0054546535892377
-0.73,-1.83,-8.97,0.141338927590875,-0.3024896976005193,0.6288930142004201,-116.57577410041328,62.36959041979664,-2.2919839967771853
-0.73,-1.83,-8.97,0.141338927590875,-0.3024896976005193,0.6288930142004201,-116.57577410041328,62.36959041979664,-2.2919839967771853
-0.75,-1.93,-8.56,0.2525601865292331,-0.4545263104523678,1.015141643336344,-116.66302751124852,62.28923949337646,-2.509755787270372
-0.75,-1.93,-8.56,0.2525601865292331,-0.4545263104523678,1.015141643336344,-116.66302751124852,62.28923949337646,-2.509755787270372
-0.06,-1.24,-9.03,-0.1028380789017527,0.4863845990683261,0.7052789850749992,-116.70669462733449,62.262463418184296,-2.6931495578860725
-0.06,-1.24,-9.03,-0.1028380789017527,0.4863845990683261,0.7052789850749992,-116.70669462733449,62.262463418184296,-2.6931495578860725
-1.55,-1.82,-8.06,-0.186954323600871,-1.2500441444839765,1.4951556868377605,-116.88163381383896,62.115262460964935,-2.956790311078442
-1.55,-1.82,-8.06,-0.186954323600871,-1.2500441444839765,1.4951556868377605,-116.88163381383896,62.115262460964935,-2.956790311078442
-0.45,-1.67,-9.26,-0.0150915494790875,-0.2272863824404297,0.3892664384426024,-117.013124056645,62.04839058120868,-3.724881599063971
-0.45,-1.67,-9.26,-0.0150915494790875,-0.2272863824404297,0.3892664384426024,-117.013124056645,62.04839058120868,-3.724881599063971
0.22,-2.15,-8.88,0.7042542267026572,-0.0142403469199607,0.6946182179718505,-116.96926663704076,62.101886205747824,-4.481672390551605
0.22,-2.15,-8.88,0.7042542267026572,-0.0142403469199607,0.6946182179718505,-116.96926663704076,62.101886205747824,-4.481672390551605
-0.15,-1.2,-9.12,-0.3076353950823319,0.0092700760597889,0.6119681387618225,-117.013124056645,62.15539687050149,-4.68810243496922
-0.15,-1.2,-9.12,-0.3076353950823319,0.0092700760597889,0.6119681387618225,-117.013124056645,62.15539687050149,-4.68810243496922
-0.16,-1.11,-9.05,-0.3807652669915998,-0.0852094482029185,0.6957797253561022,-116.9473481900315,62.28923949337646,-5.089538374458754
-0.16,-1.11,-9.05,-0.3807652669915998,-0.0852094482029185,0.6957797253561022,-116.9473481900315,62.28923949337646,-5.089538374458754
-0.35,-0.9,-8.82,-0.6136491831261229,-0.2561133172847313,0.958896576177766,-116.90353178561008,62.36959041979664,-5.341901218009245
-0.35,-0.9,-8.82,-0.6136491831261229,-0.2561133172847313,0.958896576177766,-116.90353178561008,62.36959041979664,-5.341901218009245
-0.21,-1.8,-9.9,0.0165340743607442,-0.7255841974441737,-0.2316443868370594,-117.21082255070309,62.06176307865436,-6.374577915681861
-0.21,-1.8,-9.9,0.0165340743607442,-0.7255841974441737,-0.2316443868370594,-117.21082255070309,62.06176307865436,-6.374577915681861
0.78,-1.45,-8.74,0.2596990320082855,0.2199937445175024,0.9194311343960262,-116.75038875897287,62.43657558225824,-7.028869316139517
0.78,-1.45,-8.74,0.2596990320082855,0.2199937445175024,0.9194311343960262,-116.75038875897287,62.43657558225824,-7.028869316139517
0.33,-1.16,-9.86,-0.4259706536822516,-0.2372125478273055,-0.1148609337920287,-116.55397754456402,62.59743692135864,-7.936078336486531
0.33,-1.16,-9.86,-0.4259706536822516,-0.2372125478273055,-0.1148609337920287,-116.55397754456402,62.59743692135864,-7.936078336486531
1.55,-2.01,-10.3,0.7012318908732311,0.2802903103318586,-0.7745744649263759,-116.42333876589676,62.62426048552695,-8.901253805563371
1.55,-2.01,-10.3,0.7012318908732311,0.2802903103318586,-0.7745744649263759,-116.42333876589676,62.62426048552695,-8.901253805563371
1.49,-1.8,-10.07,0.5351954034575122,0.1119516698915306,-0.5164325194670631,-116.16277934389494,62.85241532591269,-9.51055493545105
1.49,-1.8,-10.07,0.5351954034575122,0.1119516698915306,-0.5164325194670631,-116.16277934389494,62.85241532591269,-9.51055493545105
0.99,-0.36,-10.48,-0.9161662966289922,0.1168033274572742,-0.6855898132913492,-116.4668582991344,62.61084822614068,-9.556550648732504
0.99,-0.36,-10.48,-0.9161662966289922,0.1168033274572742,-0.6855898132913492,-116.4668582991344,62.61084822614068,-9.556550648732504
1.56,-0.2,-9.8,-0.6602420212158785,0.5359059470796725,-0.0822571837744252,-116.75038875897287,62.262463418184296,-10.005090889774308
1.56,-0.2,-9.8,-0.6602420212158785,0.5359059470796725,-0.0822571837744252,-116.75038875897287,62.262463418184296,-10.005090889774308
1.84,-0.08,-10.23,-0.7633347192261906,0.6791035854989973,-0.537480626910428,-116.72853831267862,62.15539687050149,-10.637910557080565
1.84,-0.08,-10.23,-0.7633347192261906,0.6791035854989973,-0.537480626910428,-116.72853831267862,62.15539687050149,-10.637910557080565
2.01,-0.52,-9.86,-0.3328718850966993,0.5189754370228361,-0.2506836826357261,-116.77224597329428,61.92808029086676,-11.501374957383891
2.01,-0.52,-9.86,-0.3328718850966993,0.5189754370228361,-0.2506836826357261,-116.77224597329428,61.92808029086676,-11.501374957383891
1.53,-0.84,-10.25,-0.3546963166061723,-0.2297322696316065,-0.5823063290677037,-117.07896160834984,61.51425621963604,-11.985198208002226
1.53,-0.84,-10.25,-0.3546963166061723,-0.2297322696316065,-0.5823063290677037,-117.07896160834984,61.51425621963604,-11.985198208002226
2.32,-0.08,-10.74,-0.735555037067631,0.5427749616385709,-1.143270279548279,-117.47529333345742,60.94170906130724,-12.58451568698019
2.32,-0.08,-10.74,-0.735555037067631,0.5427749616385709,-1.143270279548279,-117.47529333345742,60.94170906130724,-12.58451568698019
2.1,-0.53,-11.12,-0.5269804938714067,-0.0117589162042509,-1.5100391486409883,-118.0295307899628,60.278064818090016,-12.918899554710151
2.1,-0.53,-11.12,-0.5269804938714067,-0.0117589162042509,-1.5100391486409883,-118.0295307899628,60.278064818090016,-12.918899554710151
1.83,-0.37,-11.21,-0.7927827320389542,-0.2649319783177182,-1.526981659209925,-118.79053985855312,59.44503417297448,-13.103434321670449
1.83,-0.37,-11.21,-0.7927827320389542,-0.2649319783177182,-1.526981659209925,-118.79053985855312,59.44503417297448,-13.103434321670449
1.95,-0.47,-11.02,-0.573645710543176,-0.2416076409459639,-1.377104125811778,-119.51467199760064,58.70745568211353,-13.080365619179068
1.95,-0.47,-11.02,-0.573645710543176,-0.2416076409459639,-1.377104125811778,-119.51467199760064,58.70745568211353,-13.080365619179068
2.29,0.33,-10.88,-0.9543676164066016,0.4010276141765473,-1.2683560634485571,-120.8011763350936,57.39693028480898,-12.918899554710151
2.29,0.33,-10.88,-0.9543676164066016,0.4010276141765473,-1.2683560634485571,-120.8011763350936,57.39693028480898,-12.918899554710151
2.15,-0.66,-10.6,-0.1702031983791583,-0.2028204069661337,-1.026077946079864,-121.78298489723478,56.38039768350901,-13.045763563399612
2.15,-0.66,-10.6,-0.1702031983791583,-0.2028204069661337,-1.026077946079864,-121.78298489723478,56.38039768350901,-13.045763563399612
2.24,-0.75,-10.41,-0.0030020852514065,-0.183490620738504,-0.8664246357169816,-123.18829850358512,54.929136905330246,-13.091899903813276
2.24,-0.75,-10.41,-0.0030020852514065,-0.183490620738504,-0.8664246357169816,-123.18829850358512,54.929136905330246,-13.091899903813276
2.18,-1.18,-10.16,0.3181593524954449,-0.4313844650596575,-0.6376346605081071,-124.1105266335135,53.94978377937824,-13.24185777158118
2.18,-1.18,-10.16,0.3181593524954449,-0.4313844650596575,-0.6376346605081071,-124.1105266335135,53.94978377937824,-13.24185777158118
1.95,-0.78,-10.08,-0.1164095767162235,-0.3657427139260683,-0.4826639264801696,-125.3457502614118,52.71875358132653,-13.2187858542384
1.95,-0.78,-10.08,-0.1164095767162235,-0.3657427139260683,-0.4826639264801696,-125.3457502614118,52.71875358132653,-13.2187858542384
2.85,-0.54,-10.21,0.1899941626157255,0.4401438616704137,-0.796574773586844,-126.47990511760632,51.49424218516168,-13.34568808643722
2.85,-0.54,-10.21,0.1899941626157255,0.4401438616704137,-0.796574773586844,-126.47990511760632,51.49424218516168,-13.34568808643722
2.06,-0.77,-9.86,-0.0240016976592482,-0.2386883336228432,-0.2927832414201283,-127.42938014555916,50.56731827609278,-13.230321745568984
2.06,-0.77,-9.86,-0.0240016976592482,-0.2386883336228432,-0.2927832414201283,-127.42938014555916,50.56731827609278,-13.230321745568984
1.72,-0.87,-9.76,-0.1265503876321666,-0.5261885257183139,-0.1271312858343396,-128.73836728652063,49.290658600791176,-13.103434321670449
1.72,-0.87,-9.76,-0.1265503876321666,-0.5261885257183139,-0.1271312858343396,-128.73836728652063,49.290658600791176,-13.103434321670449
2.47,-0.5,-9.99,0.0194355782349555,0.2446069577905257,-0.493388334613087,-129.48518799624307,48.49763058758104,-13.138038375794716
2.47,-0.5,-9.99,0.0194355782349555,0.2446069577905257,-0.493388334613087,-129.48518799624307,48.49763058758104,-13.138038375794716
2.22,-1.15,-10.03,0.2944853316767148,-0.3185803750544977,-0.5211563950704132,-130.5977575270689,47.35648075084825,-13.195714475135588
2.22,-1.15,-10.03,0.2944853316767148,-0.3185803750544977,-0.5211563950704132,-130.5977575270689,47.35648075084825,-13.195714475135588
1.98,-1.46,-10.06,0.3146555951976594,-0.6616595107479177,-0.5238291054552562,-131.2600452849924,46.656712208804855,-13.276466658923828
1.98,-1.46,-10.06,0.3146555951976594,-0.6616595107479177,-0.5238291054552562,-131.2600452849924,46.656712208804855,-13.276466658923828
3.54,-0.55,-10.81,0.5474062290040729,1.0436661002240033,-1.5203667074870475,-132.15647345628565,45.77214298203665,-13.195714475135588
3.54,-0.55,-10.81,0.5474062290040729,1.0436661002240033,-1.5203667074870475,-132.15647345628565,45.77214298203665,-13.195714475135588
2.82,-1.73,-10.31,0.9971067230299172,-0.1098001996225681,-0.9745893582116256,-132.81066902216784,45.16334612512468,-12.941964550756788
2.82,-1.73,-10.31,0.9971067230299172,-0.1098001996225681,-0.9745893582116256,-132.81066902216784,45.16334612512468,-12.941964550756788
2.7,-1.07,-9.7,0.6638926816788875,0.430224051763669,-0.2878561183050134,-133.58972143720712,44.580659579875785,-12.261764386292771
2.7,-1.07,-9.7,0.6638926816788875,0.430224051763669,-0.2878561183050134,-133.58972143720712,44.580659579875785,-12.261764386292771
2.09,-1.24,-9.48,0.4744665928176453,-0.0065519431867528,0.0316339629624895,-134.20429804752106,44.11043851170447,-11.662626087112969
2.09,-1.24,-9.48,0.4744665928176453,-0.0065519431867528,0.0316339629624895,-134.20429804752106,44.11043851170447,-11.662626087112969
2.07,-1.09,-9.27,0.4646849138101654,0.2279893935558193,0.2600281489312515,-134.73735728971755,43.71506869334832,-10.994732910342313
2.07,-1.09,-9.27,0.4646849138101654,0.2279893935558193,0.2600281489312515,-134.73735728971755,43.71506869334832,-10.994732910342313
2.45,-1.27,-8.97,0.9474173165837486,0.4896741359817174,0.4825457712395878,-135.06606324188033,43.480576858025245,-10.52282880334764
2.45,-1.27,-8.97,0.9474173165837486,0.4896741359817174,0.4825457712395878,-135.06606324188033,43.480576858025245,-10.52282880334764
1.75,-1.24,-8.4,0.580189599385557,0.1157264638503545,1.1573675202604523,-135.30656135192416,43.32024532286975,-10.074110549810433
1.75,-1.24,-8.4,0.580189599385557,0.1157264638503545,1.1573675202604523,-135.30656135192416,43.32024532286975,-10.074110549810433
1.5,-1.63,-8.63,0.6719802125478562,-0.2844538076695052,0.9268229394516644,-135.54829362030736,43.17232602381402,-9.637046865121436
1.5,-1.63,-8.63,0.6719802125478562,-0.2844538076695052,0.9268229394516644,-135.54829362030736,43.17232602381402,-9.637046865121436
1.57,-1.21,-9.33,0.3606798446914793,0.0801086491223189,0.2755748951669084,-135.63926552609755,43.14768015800515,-9.3380846266553
1.57,-1.21,-9.33,0.3606798446914793,0.0801086491223189,0.2755748951669084,-135.63926552609755,43.14768015800515,-9.3380846266553
1.51,-1.06,-9.3,0.2684994775341692,0.1846819266623778,0.3310233391121731,-135.63926552609755,43.22162404932176,-8.993207204284674
1.51,-1.06,-9.3,0.2684994775341692,0.1846819266623778,0.3310233391121731,-135.63926552609755,43.22162404932176,-8.993207204284674
1.12,-1.09,-9.28,0.0426204331799181,-0.0814026218252886,0.3964184878725998,-135.57859793518082,43.32024532286975,-8.774827247055486
1.12,-1.09,-9.28,0.0426204331799181,-0.0814026218252886,0.3964184878725998,-135.57859793518082,43.32024532286975,-8.774827247055486
1.17,-1.09,-9.43,0.0827518600776401,-0.0248969075824845,0.2424233049845288,-135.5180089054747,43.4312345665289,-8.567970434690707
1.17,-1.09,-9.43,0.0827518600776401,-0.0248969075824845,0.2424233049845288,-135.5180089054747,43.4312345665289,-8.567970434690707
0.85,-1.11,-9.36,-0.1075915935436504,-0.2513013923847825,0.3467624922553032,-135.45749811569678,43.5175891368055,-8.476043091817116
0.85,-1.11,-9.36,-0.1075915935436504,-0.2513013923847825,0.3467624922553032,-135.45749811569678,43.5175891368055,-8.476043091817116
1.21,-1.09,-9.61,0.0994614342539678,0.0049755603196888,0.0601438225589916,-135.3668779333915,43.61631189309636,-8.476043091817116
1.21,-1.09,-9.61,0.0994614342539678,0.0049755603196888,0.0601438225589916,-135.3668779333915,43.61631189309636,-8.476043091817116
1.22,-1.37,-9.84,0.2540385284042284,-0.1784165518386038,-0.198075481497046,-135.1561066706563,43.80150890567696,-8.499024412896564
1.22,-1.37,-9.84,0.2540385284042284,-0.1784165518386038,-0.198075481497046,-135.1561066706563,43.80150890567696,-8.499024412896564
1.3,-1.02,-9.82,0.1019546482228101,0.125956301351456,-0.1500834131157518,-135.03608676528202,43.97446806674141,-8.361141590530956
1.3,-1.02,-9.82,0.1019546482228101,0.125956301351456,-0.1500834131157518,-135.03608676528202,43.97446806674141,-8.361141590530956
0.95,-0.78,-9.61,-0.2424210310082075,0.0547660322674973,0.1215463492673656,-134.97619058332575,44.098074864095786,-8.165828301178744
0.95,-0.78,-9.61,-0.2424210310082075,0.0547660322674973,0.1215463492673656,-134.97619058332575,44.098074864095786,-8.165828301178744
0.93,-0.72,-9.77,-0.284301710511788,0.0739303329064428,-0.0295030510294758,-134.88648767208014,44.22173568720945,-7.982025743589274
0.93,-0.72,-9.77,-0.284301710511788,0.0739303329064428,-0.0295030510294758,-134.88648767208014,44.22173568720945,-7.982025743589274
0.97,-0.83,-9.84,-0.1647317257741463,0.0187984442833683,-0.1144341180294414,-134.85662424793804,44.295958202894106,-7.855673444559319
0.97,-0.83,-9.84,-0.1647317257741463,0.0187984442833683,-0.1144341180294414,-134.85662424793804,44.295958202894106,-7.855673444559319
1.09,-0.95,-9.89,-0.0031461467134634,0.0306296526425869,-0.1884363891284071,-134.7969534952698,44.345450751183655,-7.8212153932673
1.09,-0.95,-9.89,-0.0031461467134634,0.0306296526425869,-0.1884363891284071,-134.7969534952698,44.345450751183655,-7.8212153932673
1.21,-0.92,-9.79,0.092459454748887,0.1315457402264908,-0.0993455061293939,-134.7671460925717,44.39495201253494,-7.740816022621952
1.21,-0.92,-9.79,0.092459454748887,0.1315457402264908,-0.0993455061293939,-134.7671460925717,44.39495201253494,-7.740816022621952
1.2,-1.09,-9.88,0.2004712524071193,0.0159627241040033,-0.2034477252171509,-134.73735728971755,44.43208368482341,-7.660420468145224
1.2,-1.09,-9.88,0.2004712524071193,0.0159627241040033,-0.2034477252171509,-134.73735728971755,44.43208368482341,-7.660420468145224
0.92,-1.03,-9.66,0.0030703793257811,-0.125541029179803,0.0492358946766398,-134.7075870499225,44.469220271844826,-7.580028689727107
0.92,-1.03,-9.66,0.0030703793257811,-0.125541029179803,0.0492358946766398,-134.7075870499225,44.469220271844826,-7.580028689727107
0.95,-0.96,-9.64,0.0038505575507911,-0.0541796691754544,0.0726503217251615,-134.7075870499225,44.51874337646561,-7.442222882076424
0.95,-0.96,-9.64,0.0038505575507911,-0.0541796691754544,0.0726503217251615,-134.7075870499225,44.51874337646561,-7.442222882076424
1.24,-0.72,-9.97,0.0156429940125086,0.3177624609749732,-0.2609059256024721,-134.64810211296725,44.617815884427785,-7.338875609975954
1.24,-0.72,-9.97,0.0156429940125086,0.3177624609749732,-0.2609059256024721,-134.64810211296725,44.617815884427785,-7.338875609975954
0.84,-0.89,-9.61,-0.0782888414973351,-0.0706029258073769,0.1196129873647926,-134.64810211296725,44.605429900527255,-7.2010885302066425
0.84,-0.89,-9.61,-0.0782888414973351,-0.0706029258073769,0.1196129873647926,-134.64810211296725,44.605429900527255,-7.2010885302066425
0.9,-0.89,-9.74,-0.0362861639696381,-0.0235450467645781,-0.0151537521158626,-134.64810211296725,44.64258950046725,-7.097755072388746
0.9,-0.89,-9.74,-0.0362861639696381,-0.0235450467645781,-0.0151537521158626,-134.64810211296725,44.64258950046725,-7.097755072388746
0.96,-0.85,-9.7,-0.0028250304284315,0.0445574644665638,0.0223714547232223,-134.64810211296725,44.65497713304196,-7.028869316139517
0.96,-0.85,-9.7,-0.0028250304284315,0.0445574644665638,0.0223714547232223,-134.64810211296725,44.65497713304196,-7.028869316139517
1.05,-0.75,-9.81,-0.0106037471842414,0.178057764652781,-0.0862405276967717,-134.61838734283256,44.69214333160206,-6.959986103018456
1.05,-0.75,-9.81,-0.0106037471842414,0.178057764652781,-0.0862405276967717,-134.61838734283256,44.69214333160206,-6.959986103018456
1.0,-0.87,-9.74,0.0506201209297514,0.07023244792814,-0.0227449461101176,-134.588690989807,44.71692355018706,-6.9140653613570215
1.0,-0.87,-9.74,0.0506201209297514,0.07023244792814,-0.0227449461101176,-134.588690989807,44.71692355018706,-6.9140653613570215
0.84,-1.07,-9.82,0.0780674286549957,-0.173798533579412,-0.1052922691170277,-134.588690989807,44.71692355018706,-6.833706733841952
0.84,-1.07,-9.82,0.0780674286549957,-0.173798533579412,-0.1052922691170277,-134.588690989807,44.71692355018706,-6.833706733841952
0.99,-0.65,-9.89,-0.1002858352868942,0.21603665845742,-0.1511595439430557,-134.61838734283256,44.7293144859979,-6.764830589593756
0.99,-0.65,-9.89,-0.1002858352868942,0.21603665845742,-0.1511595439430557,-134.61838734283256,44.7293144859979,-6.764830589593756
0.92,-0.92,-9.81,0.0534429049099286,-0.0186270136274596,-0.0890913512216506,-134.61838734283256,44.74170597311218,-6.730393436549607
0.92,-0.92,-9.81,0.0534429049099286,-0.0186270136274596,-0.0890913512216506,-134.61838734283256,44.74170597311218,-6.730393436549607
0.87,-1.0,-9.82,0.0743190127460655,-0.103456519258069,-0.1015826089453231,-134.588690989807,44.754098011748425,-6.707435672786218
0.87,-1.0,-9.82,0.0743190127460655,-0.103456519258069,-0.1015826089453231,-134.588690989807,44.754098011748425,-6.707435672786218
0.79,-0.81,-9.94,-0.1202259236851058,-0.0275683716020721,-0.1967786978096306,-134.588690989807,44.77888374446125,-6.661520952908496
0.79,-0.81,-9.94,-0.1202259236851058,-0.0275683716020721,-0.1967786978096306,-134.588690989807,44.77888374446125,-6.661520952908496
0.92,-0.89,-9.77,0.0414944800870054,0.0094298057703512,-0.046754959042607,-134.5590130176977,44.81606648541226,-6.695956892035202
0.92,-0.89,-9.77,0.0414944800870054,0.0094298057703512,-0.046754959042607,-134.5590130176977,44.81606648541226,-6.695956892035202
1.21,-0.87,-9.99,0.196526674240295,0.2345888328263942,-0.2892623087428454,-134.49971207203987,44.85325420187507,-6.718914520918895
1.21,-0.87,-9.99,0.196526674240295,0.2345888328263942,-0.2892623087428454,-134.49971207203987,44.85325420187507,-6.718914520918895
1.03,-0.88,-9.85,0.1043515664110756,0.1086266297938288,-0.1349349342993182,-134.49971207203987,44.85325420187507,-6.650042440520529
1.03,-0.88,-9.85,0.1043515664110756,0.1086266297938288,-0.1349349342993182,-134.49971207203987,44.85325420187507,-6.650042440520529
0.87,-1.11,-9.71,0.1728775301746314,-0.1511032521114328,-0.0025488035089846,-134.47008902668762,44.89044689976561,-6.604129057804274
0.87,-1.11,-9.71,0.1728775301746314,-0.1511032521114328,-0.0025488035089846,-134.47008902668762,44.89044689976561,-6.604129057804274
0.56,-1.09,-9.56,-0.0256230710147587,-0.339818699176414,0.1744557167682785,-134.44048421864292,44.927644585005865,-6.48935022815341
0.56,-1.09,-9.56,-0.0256230710147587,-0.339818699176414,0.1744557167682785,-134.44048421864292,44.927644585005865,-6.48935022815341
0.79,-0.66,-9.7,-0.161939514294547,0.1218303176431039,0.0542844937541939,-134.4108976122917,44.989651826175965,-6.386054856968827
0.79,-0.66,-9.7,-0.161939514294547,0.1218303176431039,0.0542844937541939,-134.4108976122917,44.989651826175965,-6.386054856968827
0.57,-1.04,-9.68,-0.0472733767163363,-0.2894475789027714,0.0586817333856064,-134.35177886278402,45.051672965046905,-6.3631010384043885
0.57,-1.04,-9.68,-0.0472733767163363,-0.2894475789027714,0.0586817333856064,-134.35177886278402,45.051672965046905,-6.3631010384043885
0.86,-0.69,-9.71,-0.0740282851794476,0.1610216118262881,0.0358572044527374,-134.35177886278402,45.076485318116525,-6.259812004164343
0.86,-0.69,-9.71,-0.0740282851794476,0.1610216118262881,0.0358572044527374,-134.35177886278402,45.076485318116525,-6.259812004164343
0.77,-0.56,-9.68,-0.2067755021087188,0.1856829277906172,0.0839103787793007,-134.38132917213414,45.076485318116525,-6.168003805570946
0.77,-0.56,-9.68,-0.2067755021087188,0.1856829277906172,0.0839103787793007,-134.38132917213414,45.076485318116525,-6.168003805570946
0.63,-0.93,-9.84,-0.06269164840749,-0.1651614491064676,-0.0956826268586326,-134.38132917213414,45.06407886296696,-6.145052377433652
0.63,-0.93,-9.84,-0.06269164840749,-0.1651614491064676,-0.0956826268586326,-134.38132917213414,45.06407886296696,-6.145052377433652
0.74,-1.0,-9.75,0.0763475551035239,-0.1317930298124839,-0.0212135342643264,-134.38132917213414,45.06407886296696,-6.1221011960432445
0.74,-1.0,-9.75,0.0763475551035239,-0.1317930298124839,-0.0212135342643264,-134.38132917213414,45.06407886296696,-6.1221011960432445
0.9,-0.89,-9.89,0.0995466042889443,0.0535851658698977,-0.1633760332445089,-134.38132917213414,45.08889233071614,-6.11062569758793
0.9,-0.89,-9.89,0.0995466042889443,0.0535851658698977,-0.1633760332445089,-134.38132917213414,45.08889233071614,-6.11062569758793
