acc_x,acc_y,acc_z,lin_x,lin_y,lin_z,eul_x,eul_y,eul_z
7.59,-0.18,6.07,-0.1408817699922855,-0.1304923466037499,0.0881869489635001,-26.994654003838164,42.34782086095775,-63.376882602273
7.59,-0.18,6.07,-0.1408817699922855,-0.1304923466037499,0.0881869489635001,-26.994654003838164,42.34782086095775,-63.376882602273
7.71,-0.24,5.86,0.0187367815720258,-0.3392752967685029,0.1254392696203066,-26.91216865613784,42.32324429701836,-63.080848073266175
7.71,-0.24,5.86,0.0187367815720258,-0.3392752967685029,0.1254392696203066,-26.91216865613784,42.32324429701836,-63.080848073266175
7.7,-0.06,5.84,-0.1498325438705567,-0.4060732580831277,0.1520213319534082,-26.888604025029306,42.37239946677662,-63.01363300906978
7.7,-0.06,5.84,-0.1498325438705567,-0.4060732580831277,0.1520213319534082,-26.888604025029306,42.37239946677662,-63.01363300906978
7.75,-0.16,6.06,-0.1061163970986205,-0.2405720006753349,-0.029129807557604,-26.91216865613784,42.36010990852977,-63.00019289675618
7.75,-0.16,6.06,-0.1061163970986205,-0.2405720006753349,-0.029129807557604,-26.91216865613784,42.36010990852977,-63.00019289675618
8.28,-0.07,5.78,-0.0226839577405582,-0.7889533811580219,-0.2605610338673525,-26.982869511205863,42.36010990852977,-63.22880649321045
8.28,-0.07,5.78,-0.0226839577405582,-0.7889533811580219,-0.2605610338673525,-26.982869511205863,42.36010990852977,-63.22880649321045
8.07,-0.49,5.58,0.369963663956002,-0.6091907048925551,0.0090271468572673,-27.407295558849807,42.47073434166396,-63.59247721166836
8.07,-0.49,5.58,0.369963663956002,-0.6091907048925551,0.0090271468572673,-27.407295558849807,42.47073434166396,-63.59247721166836
7.33,-0.83,6.33,0.3016408925807579,0.6422340243411491,0.1121542302396338,-28.115528300006986,43.07375512826057,-63.72735158205304
7.33,-0.83,6.33,0.3016408925807579,0.6422340243411491,0.1121542302396338,-28.115528300006986,43.07375512826057,-63.72735158205304
8.84,0.12,5.99,-0.3059686455808488,-0.7675588056233256,-0.8402902490965207,-28.03284519878868,43.50525118058415,-63.63292917864976
8.84,0.12,5.99,-0.3059686455808488,-0.7675588056233256,-0.8402902490965207,-28.03284519878868,43.50525118058415,-63.63292917864976
9.84,-0.38,5.11,0.62921974048716,-1.8123940434611645,-1.12044523841573,-28.03284519878868,43.579286875788114,-63.12118872806756
9.84,-0.38,5.11,0.62921974048716,-1.8123940434611645,-1.12044523841573,-28.03284519878868,43.579286875788114,-63.12118872806756
10.92,0.89,4.96,-0.336612219074454,-2.8405132614447384,-1.8748857134893164,-27.70226118700864,44.754098011748425,-61.51425621963604
10.92,0.89,4.96,-0.336612219074454,-2.8405132614447384,-1.8748857134893164,-27.70226118700864,44.754098011748425,-61.51425621963604
11.02,2.11,4.76,-1.266523839946817,-3.1280847044538818,-1.9049298867876057,-28.16278249153404,46.64423316662803,-58.41842386753149
11.02,2.11,4.76,-1.266523839946817,-3.1280847044538818,-1.9049298867876057,-28.16278249153404,46.64423316662803,-58.41842386753149
12.49,1.8,3.7,-0.0490340418302248,-3.964252249796648,-2.7317868947139505,-30.377536447956228,47.64442766376834,-56.14650176459217
12.49,1.8,3.7,-0.0490340418302248,-3.964252249796648,-2.7317868947139505,-30.377536447956228,47.64442766376834,-56.14650176459217
14.71,3.64,3.77,-0.910712272392172,-4.457690769516571,-5.131428730555719,-34.111251783016854,50.03562494735928,-52.36094189671525
14.71,3.64,3.77,-0.910712272392172,-4.457690769516571,-5.131428730555719,-34.111251783016854,50.03562494735928,-52.36094189671525
16.12,7.78,2.7,-3.5658857674262903,-6.235097966043104,-6.809029704649816,-37.676791133557344,53.06431134668802,-48.058128241744505
16.12,7.78,2.7,-3.5658857674262903,-6.235097966043104,-6.809029704649816,-37.676791133557344,53.06431134668802,-48.058128241744505
19.02,7.77,2.92,-2.3274416485955363,-3.4059732067554647,-10.531542198109609,-46.407242416234105,55.82206789104122,-42.889024777076095
19.02,7.77,2.92,-2.3274416485955363,-3.4059732067554647,-10.531542198109609,-46.407242416234105,55.82206789104122,-42.889024777076095
20.32,9.87,3.06,-3.207000269316348,0.3957018781040027,-12.759729180016226,-56.41940519214721,58.970568079244025,-36.25106819831296
20.32,9.87,3.06,-3.207000269316348,0.3957018781040027,-12.759729180016226,-56.41940519214721,58.970568079244025,-36.25106819831296
18.85,10.38,4.79,-4.368306421130246,5.916104961781644,-10.97624202907754,-65.72161624355178,61.12793410600524,-31.28093182906108
18.85,10.38,4.79,-4.368306421130246,5.916104961781644,-10.97624202907754,-65.72161624355178,61.12793410600524,-31.28093182906108
17.22,6.4,3.19,-0.1093062300865988,9.766525287495966,-6.076282221626017,-80.7067534127589,61.30101752415778,-27.14787893324093
17.22,6.4,3.19,-0.1093062300865988,9.766525287495966,-6.076282221626017,-80.7067534127589,61.30101752415778,-27.14787893324093
13.39,5.86,1.9,-0.2588448286400276,9.434989332503015,-1.5139363651244064,-90.46983065734317,61.38095442802087,-23.073918065630973
13.39,5.86,1.9,-0.2588448286400276,9.434989332503015,-1.5139363651244064,-90.46983065734317,61.38095442802087,-23.073918065630973
9.53,5.41,2.96,-1.1284379820579362,10.001124996412766,4.557390382989542,-101.90064026735676,61.9013549664198,-17.659623057349798
9.53,5.41,2.96,-1.1284379820579362,10.001124996412766,4.557390382989542,-101.90064026735676,61.9013549664198,-17.659623057349798
3.73,1.54,3.21,0.1485492736031175,5.108897059334602,10.48907505114793,-109.15495063272716,61.86127398626197,-14.73117911928188
3.73,1.54,3.21,0.1485492736031175,5.108897059334602,10.48907505114793,-109.15495063272716,61.86127398626197,-14.73117911928188
0.85,-0.45,1.52,0.8628872524874321,0.9815840259319272,11.042497235514958,-114.85268180222258,62.00827871831106,-11.858462221253813
0.85,-0.45,1.52,0.8628872524874321,0.9815840259319272,11.042497235514958,-114.85268180222258,62.00827871831106,-11.858462221253813
0.93,-4.05,-0.08,3.9999813338877312,-1.0149750130174386,9.312914188558311,-116.1194452258842,63.09429398938783,-8.95872400294449
0.93,-4.05,-0.08,3.9999813338877312,-1.0149750130174386,9.312914188558311,-116.1194452258842,63.09429398938783,-8.95872400294449
0.49,-2.55,-1.36,2.307135202761389,-0.6244048963353988,8.109757050632968,-115.5369840524082,63.8758274546073,-5.330429626451235
0.49,-2.55,-1.36,2.307135202761389,-0.6244048963353988,8.109757050632968,-115.5369840524082,63.8758274546073,-5.330429626451235
-1.32,-4.19,-1.19,2.938707846047236,-2.780817135603518,7.722027191453027,-115.23680905302648,63.33648650708331,-2.2117544130994498
-1.32,-4.19,-1.19,2.938707846047236,-2.780817135603518,7.722027191453027,-115.23680905302648,63.33648650708331,-2.2117544130994498
-2.64,-5.75,-3.23,3.3443189697895,-4.0623980299954825,5.034077017405085,-114.810125415467,62.97331556950768,-1.1917736982377245
-2.64,-5.75,-3.23,3.3443189697895,-4.0623980299954825,5.034077017405085,-114.810125415467,62.97331556950768,-1.1917736982377245
-2.71,-4.19,-3.65,1.9258160652290133,-3.2887671317678384,4.938596668748441,-114.76759373176696,62.82555919288418,0.0916732569994142
-2.71,-4.19,-3.65,1.9258160652290133,-3.2887671317678384,4.938596668748441,-114.76759373176696,62.82555919288418,0.0916732569994142
-1.71,-3.47,-6.17,1.4282792702884504,-1.586341816244137,2.8440759093278176,-114.91656280775707,62.85241532591269,0.0802140978691341
-1.71,-3.47,-6.17,1.4282792702884504,-1.586341816244137,2.8440759093278176,-114.91656280775707,62.85241532591269,0.0802140978691341
-1.8,-2.37,-6.92,0.4103677422438515,-1.1017573968721623,2.3661507590509654,-114.85268180222258,63.16153810810004,0.3552344019497601
-1.8,-2.37,-6.92,0.4103677422438515,-1.1017573968721623,2.3661507590509654,-114.85268180222258,63.16153810810004,0.3552344019497601
-1.07,-2.05,-8.24,0.3143850018035227,-0.1094006757615183,1.2547967761201626,-114.85268180222258,63.296099194215,0.2291832708413497
-1.07,-2.05,-8.24,0.3143850018035227,-0.1094006757615183,1.2547967761201626,-114.85268180222258,63.296099194215,0.2291832708413497
-1.2,-2.5,-8.31,0.6017344570077464,-0.4870547107051568,1.0804369982431936,-114.7888564887898,63.44422897307763,-0.3552344019497601
-1.2,-2.5,-8.31,0.6017344570077464,-0.4870547107051568,1.0804369982431936,-114.7888564887898,63.44422897307763,-0.3552344019497601
-0.5,-1.9,-9.16,0.2384666721628489,0.4440202886115589,0.4518875963058839,-114.810125415467,63.53855502158924,-0.8938232239278141
-0.5,-1.9,-9.16,0.2384666721628489,0.4440202886115589,0.4518875963058839,-114.810125415467,63.53855502158924,-0.8938232239278141
0.0,-2.04,-10.08,0.335129803577336,0.8864177004570917,-0.4339530913745761,-115.0018244008949,63.34995089580225,-1.8220825674649568
0.0,-2.04,-10.08,0.335129803577336,0.8864177004570917,-0.4339530913745761,-115.0018244008949,63.34995089580225,-1.8220825674649568
-1.18,-3.34,-9.44,0.9190981567337216,-0.8134772296465829,-0.2011026635671396,-115.0018244008949,63.21535087250248,-2.3951379752687134
-1.18,-3.34,-9.44,0.9190981567337216,-0.8134772296465829,-0.2011026635671396,-115.0018244008949,63.21535087250248,-2.3951379752687134
-0.8,-2.94,-9.56,0.6483702028823637,-0.3170464227116991,-0.2011618310577763,-114.9804996713386,63.20189622403351,-2.8421620551927376
-0.8,-2.94,-9.56,0.6483702028823637,-0.3170464227116991,-0.2011618310577763,-114.9804996713386,63.20189622403351,-2.8421620551927376
0.22,-2.6,-10.32,0.6663430230411964,0.7637283097900334,-0.7897411802306369,-115.1726470817956,63.06740312543072,-3.197519418538972
0.22,-2.6,-10.32,0.6663430230411964,0.7637283097900334,-0.7897411802306369,-115.1726470817956,63.06740312543072,-3.197519418538972
0.1,-2.01,-10.44,0.1022071503141799,0.8923880538143887,-0.7875416756227338,-115.23680905302648,63.06740312543072,-3.174592245464794
0.1,-2.01,-10.44,0.1022071503141799,0.8923880538143887,-0.7875416756227338,-115.23680905302648,63.06740312543072,-3.174592245464794
-0.9,-2.28,-9.03,0.1293201869529726,-0.2846593707376732,0.4550969026852183,-115.27961518989136,63.00019289675618,-2.9338644268256844
-0.9,-2.28,-9.03,0.1293201869529726,-0.2846593707376732,0.4550969026852183,-115.27961518989136,63.00019289675618,-2.9338644268256844
-0.7,-2.24,-9.28,0.1276326034537668,-0.0985956515196282,0.2358616930716195,-115.51550165897758,62.79870690317408,-3.15166519950434
-0.7,-2.24,-9.28,0.1276326034537668,-0.0985956515196282,0.2358616930716195,-115.51550165897758,62.79870690317408,-3.15166519950434
-0.56,-2.23,-9.76,0.0817203499482756,0.0542687794649563,-0.2200382211416034,-115.68754007027454,62.63767369990508,-3.40386984812725
-0.56,-2.23,-9.76,0.0817203499482756,0.0542687794649563,-0.2200382211416034,-115.68754007027454,62.63767369990508,-3.40386984812725
-0.71,-2.73,-9.05,0.5131511872500985,-0.4595329297482458,0.3522856456131418,-115.88157571501448,62.423176652141294,-3.816604503074617
-0.71,-2.73,-9.05,0.5131511872500985,-0.4595329297482458,0.3522856456131418,-115.88157571501448,62.423176652141294,-3.816604503074617
-0.3,-2.37,-9.46,0.2960412866336436,0.024043605966322,0.0541999764612768,-116.0328557464382,62.35619623181861,-4.229388694927676
-0.3,-2.37,-9.46,0.2960412866336436,0.024043605966322,0.0541999764612768,-116.0328557464382,62.35619623181861,-4.229388694927676
-0.07,-2.53,-9.67,0.4786632409059556,0.084636697640597,-0.177257958871511,-116.20613978613412,62.235691121359,-4.6536963885673295
-0.07,-2.53,-9.67,0.4786632409059556,0.084636697640597,-0.177257958871511,-116.20613978613412,62.235691121359,-4.6536963885673295
-0.19,-1.94,-9.48,-0.0364521341955739,0.1720312676387291,0.1299162284804342,-116.40158899740273,62.115262460964935,-4.6766337060034
-0.19,-1.94,-9.48,-0.0364521341955739,0.1720312676387291,0.1299162284804342,-116.40158899740273,62.115262460964935,-4.6766337060034
-0.37,-2.41,-9.25,0.3062157698734024,-0.2623195127598221,0.2491963445797296,-116.59757736800644,61.91471716129068,-4.871608567013157
-0.37,-2.41,-9.25,0.3062157698734024,-0.2623195127598221,0.2491963445797296,-116.59757736800644,61.91471716129068,-4.871608567013157
-0.03,-2.38,-9.81,0.3385293579152398,0.0565399427120973,-0.2821359085574606,-116.75038875897287,61.80784574236153,-5.0665975409818325
-0.03,-2.38,-9.81,0.3385293579152398,0.0565399427120973,-0.2821359085574606,-116.75038875897287,61.80784574236153,-5.0665975409818325
-0.17,-2.3,-9.61,0.2631364144945586,-0.1185299251328417,-0.0719991932963672,-117.013124056645,61.60762239703414,-5.112479412053579
-0.17,-2.3,-9.61,0.2631364144945586,-0.1185299251328417,-0.0719991932963672,-117.013124056645,61.60762239703414,-5.112479412053579
-0.21,-2.14,-9.45,0.1380253611435397,-0.1233495394175803,0.1168649718991901,-117.07896160834984,61.55426474750001,-5.15836210329675
-0.21,-2.14,-9.45,0.1380253611435397,-0.1233495394175803,0.1168649718991901,-117.07896160834984,61.55426474750001,-5.15836210329675
-0.33,-2.12,-9.27,0.0841106493424567,-0.2644414221966974,0.2956460502114329,-117.1448610408126,61.50092189108089,-5.284543793645802
-0.33,-2.12,-9.27,0.0841106493424567,-0.2644414221966974,0.2956460502114329,-117.1448610408126,61.50092189108089,-5.284543793645802
0.0,-2.19,-9.72,0.2156878789721489,0.0018107021205446,-0.1546739812899531,-117.27684633570152,61.394280462247146,-5.4336758888612415
0.0,-2.19,-9.72,0.2156878789721489,0.0018107021205446,-0.1546739812899531,-117.27684633570152,61.394280462247146,-5.4336758888612415
0.16,-2.35,-9.83,0.4058807722526809,0.0667748611186476,-0.2932411834058026,-117.3429325945059,61.34098184227653,-5.491036825631306
0.16,-2.35,-9.83,0.4058807722526809,0.0667748611186476,-0.2932411834058026,-117.3429325945059,61.34098184227653,-5.491036825631306
0.01,-2.13,-9.49,0.2138111389368432,0.003304507610637,0.0828969243045865,-117.3429325945059,61.34098184227653,-5.4336758888612415
0.01,-2.13,-9.49,0.2138111389368432,0.003304507610637,0.0828969243045865,-117.3429325945059,61.34098184227653,-5.4336758888612415
0.13,-1.94,-9.68,0.0939670311406403,0.2027983802818773,-0.0641626825512045,-117.38702490663178,61.34098184227653,-5.376316314590642
0.13,-1.94,-9.68,0.0939670311406403,0.2027983802818773,-0.0641626825512045,-117.38702490663178,61.34098184227653,-5.376316314590642
0.1,-2.01,-9.73,0.1214193644183245,0.1314353141037341,-0.1276835003487129,-117.38702490663178,61.34098184227653,-5.479564528582773
0.1,-2.01,-9.73,0.1214193644183245,0.1314353141037341,-0.1276835003487129,-117.38702490663178,61.34098184227653,-5.479564528582773
0.05,-2.08,-9.78,0.1516770564798596,0.0623346734405887,-0.1908701154598642,-117.29886813726064,61.40760741658022,-5.468092286497271
0.05,-2.08,-9.78,0.1516770564798596,0.0623346734405887,-0.1908701154598642,-117.29886813726064,61.40760741658022,-5.468092286497271
-0.11,-1.93,-9.49,0.0155367052176959,-0.0284014851142043,0.121813813133734,-117.27684633570152,61.46092444240136,-5.341901218009245
-0.11,-1.93,-9.49,0.0155367052176959,-0.0284014851142043,0.121813813133734,-117.27684633570152,61.46092444240136,-5.341901218009245
0.06,-2.7,-9.81,0.6862518817977851,-0.190761907298008,-0.3433435098231978,-117.10092120050626,61.60762239703414,-5.4336758888612415
0.06,-2.7,-9.81,0.6862518817977851,-0.190761907298008,-0.3433435098231978,-117.10092120050626,61.60762239703414,-5.4336758888612415
-0.06,-2.09,-9.58,0.1945561589830583,-0.0463373054907807,0.0031760873952642,-116.75038875897287,62.02164840141652,-5.2271876941715805
-0.06,-2.09,-9.58,0.1945561589830583,-0.0463373054907807,0.0031760873952642,-116.75038875897287,62.02164840141652,-5.2271876941715805
-0.01,-2.44,-9.58,0.6287259006705141,-0.1036657996942975,-0.0586455933311889,-116.1194452258842,62.71817306273571,-4.6078223124450055
-0.01,-2.44,-9.58,0.6287259006705141,-0.1036657996942975,-0.0586455933311889,-116.1194452258842,62.71817306273571,-4.6078223124450055
-0.36,-1.77,-9.27,0.1014022827127016,-0.06137310431133,0.3630621797312745,-115.5369840524082,63.44422897307763,-3.5070491615651807
-0.36,-1.77,-9.27,0.1014022827127016,-0.06137310431133,0.3630621797312745,-115.5369840524082,63.44422897307763,-3.5070491615651807
-0.33,-1.79,-9.89,0.195562533953876,0.0090233057946863,-0.2475418559010052,-114.85268180222258,64.28137325688984,-2.8994758203914888
-0.33,-1.79,-9.89,0.195562533953876,0.0090233057946863,-0.2475418559010052,-114.85268180222258,64.28137325688984,-2.8994758203914888
-0.61,-1.72,-9.13,0.2025895666140594,-0.2949608886871976,0.5029219546601116,-114.30136176070128,64.8778117314165,-2.47537018520181
-0.61,-1.72,-9.13,0.2025895666140594,-0.2949608886871976,0.5029219546601116,-114.30136176070128,64.8778117314165,-2.47537018520181
-0.5,-1.92,-9.85,0.4279786670864061,-0.2313774732488567,-0.2293949742611225,-113.81705808343624,65.4626072017906,-2.223215714892369
-0.5,-1.92,-9.85,0.4279786670864061,-0.2313774732488567,-0.2293949742611225,-113.81705808343624,65.4626072017906,-2.223215714892369
-0.7,-1.32,-9.48,-0.0791037683842749,-0.2527497240140574,0.2132845753516612,-113.50289343995638,65.85808871965587,-2.016915574628728
-0.7,-1.32,-9.48,-0.0791037683842749,-0.2527497240140574,0.2132845753516612,-113.50289343995638,65.85808871965587,-2.016915574628728
-0.39,-1.32,-9.73,0.0959785169273811,0.0197331877143548,-0.0197327894902929,-113.16922611259191,66.26813997300863,-1.7877008349543104
-0.39,-1.32,-9.73,0.0959785169273811,0.0197331877143548,-0.0197327894902929,-113.16922611259191,66.26813997300863,-1.7877008349543104
-0.44,-1.51,-9.62,0.3117225268342691,-0.1043786151073292,0.0644718980059497,-112.77489865498625,66.69286830197329,-1.5470330404085568
-0.44,-1.51,-9.62,0.3117225268342691,-0.1043786151073292,0.0644718980059497,-112.77489865498625,66.69286830197329,-1.5470330404085568
-0.37,-1.34,-9.5,0.2532849520399224,-0.0075862210775113,0.2088226842831826,-112.21802358107666,67.2837297114374,-1.3751317128217122
-0.37,-1.34,-9.5,0.2532849520399224,-0.0075862210775113,0.2088226842831826,-112.21802358107666,67.2837297114374,-1.3751317128217122
-0.5,-0.76,-9.78,-0.2625837899512902,0.0589394260589878,-0.0118822679772545,-111.86945684906637,67.73855928586947,-1.1344749665222489
-0.5,-0.76,-9.78,-0.2625837899512902,0.0589394260589878,-0.0118822679772545,-111.86945684906637,67.73855928586947,-1.1344749665222489
-0.75,-1.45,-9.47,0.3902464121003512,-0.5248145060066683,0.2192531962723158,-111.42068428698192,68.2499653014806,-0.9969591404369118
-0.75,-1.45,-9.47,0.3902464121003512,-0.5248145060066683,0.2192531962723158,-111.42068428698192,68.2499653014806,-0.9969591404369118
-0.56,-0.4,-9.97,-0.466738885140466,-0.0146227547207377,-0.1761572699087104,-110.87341536801527,68.86014526786532,-0.9052827329224428
-0.56,-0.4,-9.97,-0.466738885140466,-0.0146227547207377,-0.1761572699087104,-110.87341536801527,68.86014526786532,-0.9052827329224428
-0.28,-1.62,-9.77,0.745762370920008,-0.2068837870330624,-0.0704314305027669,-110.63139954579825,69.0964930055083,-1.1230152546764245
-0.28,-1.62,-9.77,0.745762370920008,-0.2068837870330624,-0.0704314305027669,-110.63139954579825,69.0964930055083,-1.1230152546764245
-0.27,-0.75,-9.69,-0.0003565589471599,0.1125907814954002,0.0845708402323754,-110.3098558920654,69.4307331793357,-0.8365258107465946
-0.27,-0.75,-9.69,-0.0003565589471599,0.1125907814954002,0.0845708402323754,-110.3098558920654,69.4307331793357,-0.8365258107465946
-0.22,-0.68,-9.64,-0.0491078476094986,0.178494920364957,0.1419654224927153,-110.00958136957878,69.73771440110959,-0.8709042326408071
-0.22,-0.68,-9.64,-0.0491078476094986,0.178494920364957,0.1419654224927153,-110.00958136957878,69.73771440110959,-0.8709042326408071
-0.25,-1.15,-9.78,0.3392525738373847,-0.0351355680172176,-0.0379969303375649,-109.889785903268,69.86346279099202,-1.1459346897143057
-0.25,-1.15,-9.78,0.3392525738373847,-0.0351355680172176,-0.0379969303375649,-109.889785903268,69.86346279099202,-1.1459346897143057
0.02,-0.82,-10.0,0.129091450875354,0.315160009986178,-0.2211518311799754,-109.79009253076951,69.98930763271481,-1.1459346897143057
0.02,-0.82,-10.0,0.129091450875354,0.315160009986178,-0.2211518311799754,-109.79009253076951,69.98930763271481,-1.1459346897143057
-0.19,-0.98,-9.89,0.2176943895814498,0.0507225938217207,-0.1310879906707498,-109.69052239052932,70.08725387641728,-1.1573944243672372
-0.19,-0.98,-9.89,0.2176943895814498,0.0507225938217207,-0.1310879906707498,-109.69052239052932,70.08725387641728,-1.1573944243672372
-0.31,-0.65,-10.05,-0.1147773176354256,0.0510988087366513,-0.2683346192985389,-109.53146516582775,70.25529850674774,-1.0542572154525014
-0.31,-0.65,-10.05,-0.1147773176354256,0.0510988087366513,-0.2683346192985389,-109.53146516582775,70.25529850674774,-1.0542572154525014
-0.39,-0.97,-9.82,0.188366076873789,-0.1504311056806281,-0.0659022892272869,-109.63083923692189,70.17125455372687,-0.9969591404369118
-0.39,-0.97,-9.82,0.188366076873789,-0.1504311056806281,-0.0659022892272869,-109.63083923692189,70.17125455372687,-0.9969591404369118
-0.31,-0.71,-9.89,-0.0218199588803378,0.0140133069481717,-0.1136134802016624,-109.65072872045307,70.15725143860956,-0.9511208605830096
-0.31,-0.71,-9.89,-0.0218199588803378,0.0140133069481717,-0.1136134802016624,-109.65072872045307,70.15725143860956,-0.9511208605830096
-0.36,-0.54,-9.52,-0.1563744516602878,0.0160233138386658,0.2658486560728779,-109.90973941260324,69.8914199628782,-0.8021474641450599
-0.36,-0.54,-9.52,-0.1563744516602878,0.0160233138386658,0.2658486560728779,-109.90973941260324,69.8914199628782,-0.8021474641450599
-0.3,-1.11,-9.71,0.3843107691097377,-0.0953561299977667,0.0368284846795621,-110.02956467321044,69.75168169297477,-0.7563097804494618
-0.3,-1.11,-9.71,0.3843107691097377,-0.0953561299977667,0.0368284846795621,-110.02956467321044,69.75168169297477,-0.7563097804494618
-0.04,-0.66,-10.03,0.0800208744407996,0.3403377036379034,-0.2390389712521053,-110.08954448644468,69.70978337535752,-0.4812859628976946
-0.04,-0.66,-10.03,0.0800208744407996,0.3403377036379034,-0.2390389712521053,-110.08954448644468,69.70978337535752,-0.4812859628976946
-0.42,-0.79,-9.58,0.1164521714877729,-0.0576339794168132,0.1858383286194396,-110.1495692444103,69.63997654209203,-0.2635608181333149
-0.42,-0.79,-9.58,0.1164521714877729,-0.0576339794168132,0.1858383286194396,-110.1495692444103,69.63997654209203,-0.2635608181333149
-0.63,-0.76,-9.78,0.0251350790868239,-0.226959981900909,-0.0203921488062626,-110.24971070475245,69.55624736247115,-0.1489690686936551
-0.63,-0.76,-9.78,0.0251350790868239,-0.226959981900909,-0.0203921488062626,-110.24971070475245,69.55624736247115,-0.1489690686936551
-0.47,-1.28,-9.88,0.5605258864197606,-0.2603542866379466,-0.147832727700246,-110.34997788662332,69.47256064706727,-0.1833465726697912
-0.47,-1.28,-9.88,0.5605258864197606,-0.2603542866379466,-0.147832727700246,-110.34997788662332,69.47256064706727,-0.1833465726697912
-0.32,-0.83,-9.92,0.2198885679842447,0.0354530509789401,-0.1506634980699548,-110.28980246010522,69.51439870357002,-0.0572957819004067
-0.32,-0.83,-9.92,0.2198885679842447,0.0354530509789401,-0.1506634980699548,-110.28980246010522,69.51439870357002,-0.0572957819004067
