,TIME,ELAPSED_SECONDS,PSTATE,acc_x,acc_y,acc_z,mag_x,mag_y,mag_z,gyr_x,gyr_y,gyr_z,lin_x,lin_y,lin_z,eul_x,eul_y,eul_z,qua_w,qua_x,qua_y,qua_z
0,451446.0,401.438744,1.0,3.5,-1.25,9.1,-0.19,43.5,-14.38,-0.12,0.19,-0.31,-0.0214183810491056,-0.02884177734435145,-0.02295881240107356,-7.269980754447582,20.879328419459103,-77.1590095835216,-0.7578,-0.0634,0.1812,-0.6236
1,451446.0,401.438744,1.0,3.5,-1.25,9.1,-0.19,43.5,-14.38,-0.12,0.19,-0.31,-0.0214183810491056,-0.02884177734435145,-0.02295881240107356,-7.269980754447582,20.879328419459103,-77.1590095835216,-0.7578,-0.0634,0.1812,-0.6236
2,451481.0,401.46858399999996,1.0,3.61,-1.32,9.03,0.06,43.06,-15.19,1.12,1.44,-0.56,0.08506182628525777,-0.14407016702704412,-0.005964752077135316,-7.269980754447582,20.82107094211026,-77.1590095835216,-0.7579,-0.0634,0.1807,-0.6236
3,451481.0,401.46858399999996,1.0,3.61,-1.32,9.03,0.06,43.06,-15.19,1.12,1.44,-0.56,0.08506182628525777,-0.14407016702704412,-0.005964752077135316,-7.269980754447582,20.82107094211026,-77.1590095835216,-0.7579,-0.0634,0.1807,-0.6236
4,451516.0,401.511527,1.0,3.57,-1.22,8.97,0.06,43.06,-15.19,-1.31,-0.12,-0.44,-0.012769429834894541,-0.1495305770819969,0.0767128188986117,-7.23553431499132,20.84437327920369,-77.14435187287417,-0.7579,-0.0631,0.1809,-0.6235
5,451516.0,401.511527,1.0,3.57,-1.22,8.97,0.06,43.06,-15.19,-1.31,-0.12,-0.44,-0.012769429834894541,-0.1495305770819969,0.0767128188986117,-7.23553431499132,20.84437327920369,-77.14435187287417,-0.7579,-0.0631,0.1809,-0.6235
6,451553.0,401.51981800000004,1.0,3.54,-1.29,8.99,-0.25,42.38,-13.56,1.5,0.12,0.19,0.04892535067848147,-0.10052347662647644,0.05968630145736675,-7.247016388579905,20.832722001771078,-77.1590095835216,-0.7579,-0.0632,0.1808,-0.6236
7,451553.0,401.51981800000004,1.0,3.54,-1.29,8.99,-0.25,42.38,-13.56,1.5,0.12,0.19,0.04892535067848147,-0.10052347662647644,0.05968630145736675,-7.247016388579905,20.832722001771078,-77.1590095835216,-0.7579,-0.0632,0.1808,-0.6236
8,451588.0,401.537822,1.0,3.54,-1.25,9.08,0.5,43.88,-13.56,-1.75,0.19,0.0,-0.011168564286903826,-0.0815760329559444,-0.018507536346117348,-7.22405231414402,20.84437327920369,-77.14435187287417,-0.7579,-0.063,0.1809,-0.6235
9,451588.0,401.537822,1.0,3.54,-1.25,9.08,0.5,43.88,-13.56,-1.75,0.19,0.0,-0.011168564286903826,-0.0815760329559444,-0.018507536346117348,-7.22405231414402,20.84437327920369,-77.14435187287417,-0.7579,-0.063,0.1809,-0.6235
10,451620.0,401.578956,1.0,3.59,-1.2,9.05,0.5,43.88,-13.56,0.19,0.37,-0.31,-0.048556584978066315,-0.14831995537233722,-0.0018281413272056566,-7.212570385921347,20.856024774540764,-77.14435187287417,-0.7579,-0.0629,0.18100000000000002,-0.6235
11,451620.0,401.578956,1.0,3.59,-1.2,9.05,0.5,43.88,-13.56,0.19,0.37,-0.31,-0.048556584978066315,-0.14831995537233722,-0.0018281413272056566,-7.212570385921347,20.856024774540764,-77.14435187287417,-0.7579,-0.0629,0.18100000000000002,-0.6235
12,451655.0,401.648689,1.0,3.53,-1.33,8.95,0.06,43.88,-14.0,0.94,-0.63,-0.12,0.09108686905821173,-0.09279170401549207,0.0950387597396567,-7.247016388579905,20.856024774540764,-77.14435187287417,-0.7579,-0.0632,0.18100000000000002,-0.6235
13,451655.0,401.648689,1.0,3.53,-1.33,8.95,0.06,43.88,-14.0,0.94,-0.63,-0.12,0.09108686905821173,-0.09279170401549207,0.0950387597396567,-7.247016388579905,20.856024774540764,-77.14435187287417,-0.7579,-0.0632,0.18100000000000002,-0.6235
14,451692.0,401.65637999999996,1.0,3.57,-1.21,9.02,-0.19,43.5,-14.0,-0.37,1.19,0.94,-0.03288594860870503,-0.13618142433322555,0.031693573802968444,-7.23553431499132,20.84437327920369,-77.17366878994224,-0.7578,-0.0631,0.1809,-0.6237
15,451692.0,401.65637999999996,1.0,3.57,-1.21,9.02,-0.19,43.5,-14.0,-0.37,1.19,0.94,-0.03288594860870503,-0.13618142433322555,0.031693573802968444,-7.23553431499132,20.84437327920369,-77.17366878994224,-0.7578,-0.0631,0.1809,-0.6237
16,451725.0,401.72162799999995,1.0,3.6,-1.25,9.03,-0.19,43.5,-14.0,0.69,-0.12,-0.5,0.010064012302907209,-0.15330506776665553,0.006660394298705796,-7.23553431499132,20.832722001771078,-77.17366878994224,-0.7578,-0.0631,0.1808,-0.6237
17,451725.0,401.72162799999995,1.0,3.6,-1.25,9.03,-0.19,43.5,-14.0,0.69,-0.12,-0.5,0.010064012302907209,-0.15330506776665553,0.006660394298705796,-7.23553431499132,20.832722001771078,-77.17366878994224,-0.7578,-0.0631,0.1808,-0.6237
18,451760.0,401.740519,1.0,3.54,-1.31,8.92,-0.56,44.25,-14.0,-0.63,-0.5,-0.63,0.08125675136614369,-0.11994459505203348,0.12196566676150054,-7.23553431499132,20.832722001771078,-77.14435187287417,-0.758,-0.0631,0.1808,-0.6235
19,451760.0,401.740519,1.0,3.54,-1.31,8.92,-0.56,44.25,-14.0,-0.63,-0.5,-0.63,0.08125675136614369,-0.11994459505203348,0.12196566676150054,-7.23553431499132,20.832722001771078,-77.14435187287417,-0.758,-0.0631,0.1808,-0.6235
20,451794.0,401.745775,1.0,3.52,-1.24,9.13,-0.56,43.06,-14.0,-0.44,0.12,-0.5,-0.03291342626149674,-0.04912063711883918,-0.056483572520487975,-7.22405231414402,20.84437327920369,-77.12969565730245,-0.7581,-0.063,0.1809,-0.6234
21,451794.0,401.745775,1.0,3.52,-1.24,9.13,-0.56,43.06,-14.0,-0.44,0.12,-0.5,-0.03291342626149674,-0.04912063711883918,-0.056483572520487975,-7.22405231414402,20.84437327920369,-77.12969565730245,-0.7581,-0.063,0.1809,-0.6234
22,451831.0,401.78705,1.0,3.55,-1.22,9.07,-0.69,43.88,-14.25,-0.69,-0.25,-0.06,-0.03729616193983088,-0.0991285217660619,-0.008877623743769547,-7.22405231414402,20.856024774540764,-77.12969565730245,-0.7581,-0.063,0.18100000000000002,-0.6234
23,451831.0,401.78705,1.0,3.55,-1.22,9.07,-0.69,43.88,-14.25,-0.69,-0.25,-0.06,-0.03729616193983088,-0.0991285217660619,-0.008877623743769547,-7.22405231414402,20.856024774540764,-77.12969565730245,-0.7581,-0.063,0.18100000000000002,-0.6234
24,451866.0,401.852367,1.0,3.55,-1.31,9.0,-0.69,43.88,-14.25,0.56,0.31,-0.56,0.06352878389888222,-0.10227248522225596,0.04426789149888144,-7.22405231414402,20.856024774540764,-77.12969565730245,-0.7581,-0.063,0.18100000000000002,-0.6234
25,451866.0,401.852367,1.0,3.55,-1.31,9.0,-0.69,43.88,-14.25,0.56,0.31,-0.56,0.06352878389888222,-0.10227248522225596,0.04426789149888144,-7.22405231414402,20.856024774540764,-77.12969565730245,-0.7581,-0.063,0.18100000000000002,-0.6234
26,451903.0,401.866125,1.0,3.58,-1.24,8.91,0.06,43.5,-12.0,0.19,1.0,0.19,0.01985059383999549,-0.177769199921175,0.1262520709123951,-7.212570385921347,20.832722001771078,-77.12969565730245,-0.7581,-0.0629,0.1808,-0.6234
27,451903.0,401.866125,1.0,3.58,-1.24,8.91,0.06,43.5,-12.0,0.19,1.0,0.19,0.01985059383999549,-0.177769199921175,0.1262520709123951,-7.212570385921347,20.832722001771078,-77.12969565730245,-0.7581,-0.0629,0.1808,-0.6234
28,451938.0,401.976869,1.0,3.57,-1.2,9.06,-1.0,43.06,-14.25,-1.06,-0.25,-1.31,-0.05035887179671361,-0.12994303584809475,-0.004011485927742697,-7.2010885302066425,20.832722001771078,-77.1003877085983,-0.7582,-0.0628,0.1808,-0.6232
29,451938.0,401.976869,1.0,3.57,-1.2,9.06,-1.0,43.06,-14.25,-1.06,-0.25,-1.31,-0.05035887179671361,-0.12994303584809475,-0.004011485927742697,-7.2010885302066425,20.832722001771078,-77.1003877085983,-0.7582,-0.0628,0.1808,-0.6232
30,451973.0,401.980792,1.0,3.48,-1.25,9.11,-1.0,43.06,-14.25,-0.12,-0.69,-1.06,-0.023550267526024068,-0.015246393206330587,-0.0251460176355156,-7.22405231414402,20.84437327920369,-77.05643698119782,-0.7585,-0.063,0.1809,-0.6229
31,451973.0,401.980792,1.0,3.48,-1.25,9.11,-1.0,43.06,-14.25,-0.12,-0.69,-1.06,-0.023550267526024068,-0.015246393206330587,-0.0251460176355156,-7.22405231414402,20.84437327920369,-77.05643698119782,-0.7585,-0.063,0.1809,-0.6229
32,452005.0,402.025494,1.0,3.59,-1.29,8.88,-1.0,44.25,-14.25,0.12,0.94,0.37,0.07793134077763025,-0.18451919194794,0.14401685090821206,-7.212570385921347,20.832722001771078,-77.05643698119782,-0.7585,-0.0629,0.1808,-0.6229
33,452005.0,402.025494,1.0,3.59,-1.29,8.88,-1.0,44.25,-14.25,0.12,0.94,0.37,0.07793134077763025,-0.18451919194794,0.14401685090821206,-7.212570385921347,20.832722001771078,-77.05643698119782,-0.7585,-0.0629,0.1808,-0.6229
34,452042.0,402.032933,1.0,3.55,-1.22,9.14,-0.25,42.38,-14.75,-0.81,-0.31,-1.06,-0.051031991495174615,-0.07926277628361099,-0.07371503111802191,-7.189606746883267,20.856024774540764,-77.01249967190056,-0.7588,-0.0627,0.18100000000000002,-0.6226
35,452042.0,402.032933,1.0,3.55,-1.22,9.14,-0.25,42.38,-14.75,-0.81,-0.31,-1.06,-0.051031991495174615,-0.07926277628361099,-0.07371503111802191,-7.189606746883267,20.856024774540764,-77.01249967190056,-0.7588,-0.0627,0.18100000000000002,-0.6226
36,452077.0,402.050276,1.0,3.56,-1.28,9.05,-0.25,42.38,-14.75,1.06,0.5,0.75,0.028499474971057093,-0.10428519812561697,-0.001653236410376735,-7.2010885302066425,20.84437327920369,-77.0271439519232,-0.7587,-0.0628,0.1809,-0.6227
37,452077.0,402.050276,1.0,3.56,-1.28,9.05,-0.25,42.38,-14.75,1.06,0.5,0.75,0.028499474971057093,-0.10428519812561697,-0.001653236410376735,-7.2010885302066425,20.84437327920369,-77.0271439519232,-0.7587,-0.0628,0.1809,-0.6227
38,452112.0,402.098746,1.0,3.56,-1.25,8.99,-0.19,43.88,-14.0,-0.44,0.0,-0.25,0.011249342895111923,-0.13001859687703698,0.05784655461499355,-7.2010885302066425,20.84437327920369,-77.0271439519232,-0.7587,-0.0628,0.1809,-0.6227
39,452112.0,402.098746,1.0,3.56,-1.25,8.99,-0.19,43.88,-14.0,-0.44,0.0,-0.25,0.011249342895111923,-0.13001859687703698,0.05784655461499355,-7.2010885302066425,20.84437327920369,-77.0271439519232,-0.7587,-0.0628,0.1809,-0.6227
40,452147.0,402.117672,1.0,3.52,-1.21,9.02,0.06,43.5,-13.19,-1.37,-0.37,-0.56,-0.04458552021595491,-0.09249845836642456,0.04937803665968943,-7.1781250358345785,20.867676487915002,-77.01249967190056,-0.7588,-0.0626,0.1811,-0.6226
41,452147.0,402.117672,1.0,3.52,-1.21,9.02,0.06,43.5,-13.19,-1.37,-0.37,-0.56,-0.04458552021595491,-0.09249845836642456,0.04937803665968943,-7.1781250358345785,20.867676487915002,-77.01249967190056,-0.7588,-0.0626,0.1811,-0.6226
42,452184.0,402.1674,1.0,3.58,-1.22,9.05,-1.0,43.5,-14.0,0.37,0.44,-0.56,-0.03126240114764989,-0.13603861868471756,-0.0008887410145277387,-7.1781250358345785,20.867676487915002,-77.01249967190056,-0.7588,-0.0626,0.1811,-0.6226
43,452184.0,402.1674,1.0,3.58,-1.22,9.05,-1.0,43.5,-14.0,0.37,0.44,-0.56,-0.03126240114764989,-0.13603861868471756,-0.0008887410145277387,-7.1781250358345785,20.867676487915002,-77.01249967190056,-0.7588,-0.0626,0.1811,-0.6226
44,452218.0,402.187915,1.0,3.54,-1.31,9.01,-1.0,43.5,-14.0,0.44,-0.63,-1.31,0.0581792397747185,-0.08889026152525781,0.03851232194359255,-7.189606746883267,20.879328419459103,-76.96857576197083,-0.759,-0.0627,0.1812,-0.6223
45,452218.0,402.187915,1.0,3.54,-1.31,9.01,-1.0,43.5,-14.0,0.44,-0.63,-1.31,0.0581792397747185,-0.08889026152525781,0.03851232194359255,-7.189606746883267,20.879328419459103,-76.96857576197083,-0.759,-0.0627,0.1812,-0.6223
46,452253.0,402.231783,1.0,3.6,-1.2,8.91,0.5,43.5,-14.75,-1.56,-0.06,0.25,-0.024104114087828643,-0.20039828002480495,0.12432798918838014,-7.166643396943946,20.90263293758787,-76.95393743306516,-0.759,-0.0625,0.1814,-0.6222
47,452253.0,402.231783,1.0,3.6,-1.2,8.91,0.5,43.5,-14.75,-1.56,-0.06,0.25,-0.024104114087828643,-0.20039828002480495,0.12432798918838014,-7.166643396943946,20.90263293758787,-76.95393743306516,-0.759,-0.0625,0.1814,-0.6222
48,452290.0,402.252792,1.0,3.62,-1.2,9.05,-0.69,43.88,-14.0,-0.44,-0.69,-2.06,-0.04860045513857275,-0.16900644330508996,-0.012513651649856072,-7.1781250358345785,20.92593832998922,-76.8953989710222,-0.7593,-0.0626,0.1816,-0.6218
49,452290.0,402.252792,1.0,3.62,-1.2,9.05,-0.69,43.88,-14.0,-0.44,-0.69,-2.06,-0.04860045513857275,-0.16900644330508996,-0.012513651649856072,-7.1781250358345785,20.92593832998922,-76.8953989710222,-0.7593,-0.0626,0.1816,-0.6218
50,452323.0,402.29404500000004,1.0,3.59,-1.27,9.04,-0.69,43.88,-14.0,-1.06,-1.31,-2.38,0.016030399066115142,-0.12117657611371092,-0.001900314073283837,-7.2010885302066425,20.9608980601766,-76.82225926226535,-0.7596,-0.0628,0.1819,-0.6213
51,452323.0,402.29404500000004,1.0,3.59,-1.27,9.04,-0.69,43.88,-14.0,-1.06,-1.31,-2.38,0.016030399066115142,-0.12117657611371092,-0.001900314073283837,-7.2010885302066425,20.9608980601766,-76.82225926226535,-0.7596,-0.0628,0.1819,-0.6213
52,452358.0,402.311009,1.0,3.55,-1.27,8.95,0.06,43.5,-12.38,-0.31,-0.94,-1.81,0.027319672632682312,-0.10490564299795536,0.0955147192228658,-7.22405231414402,20.995859763455265,-76.7345404390869,-0.7599,-0.063,0.1822,-0.6207
53,452358.0,402.311009,1.0,3.55,-1.27,8.95,0.06,43.5,-12.38,-0.31,-0.94,-1.81,0.027319672632682312,-0.10490564299795536,0.0955147192228658,-7.22405231414402,20.995859763455265,-76.7345404390869,-0.7599,-0.063,0.1822,-0.6207
54,452395.0,402.37357799999995,1.0,3.59,-1.21,9.09,-0.19,44.25,-13.19,-1.25,-1.25,-2.69,-0.05575842409864201,-0.10381825142798484,-0.04050252084644335,-7.22405231414402,21.042478443283557,-76.66148200858531,-0.7603,-0.063,0.1826,-0.6202
55,452395.0,402.37357799999995,1.0,3.59,-1.21,9.09,-0.19,44.25,-13.19,-1.25,-1.25,-2.69,-0.05575842409864201,-0.10381825142798484,-0.04050252084644335,-7.22405231414402,21.042478443283557,-76.66148200858531,-0.7603,-0.063,0.1826,-0.6202
56,452429.0,402.43431499999997,1.0,3.67,-1.3,8.94,-0.19,44.25,-13.19,-0.31,-1.31,-2.25,0.07600044900308611,-0.1955280852750636,0.05788122134799956,-7.258498535026432,21.07744476440248,-76.55926202381508,-0.7607,-0.0633,0.1829,-0.6195
57,452429.0,402.43431499999997,1.0,3.67,-1.3,8.94,-0.19,44.25,-13.19,-0.31,-1.31,-2.25,0.07600044900308611,-0.1955280852750636,0.05788122134799956,-7.258498535026432,21.07744476440248,-76.55926202381508,-0.7607,-0.0633,0.1829,-0.6195
58,452462.0,402.437683,1.0,3.62,-1.21,8.97,-0.19,43.5,-13.56,-0.81,-2.13,-1.75,-0.029127584251632976,-0.14720665011798395,0.059502633411314676,-7.292945412680463,21.147383365420364,-76.50088290484744,-0.7609,-0.0636,0.1835,-0.6191
59,452462.0,402.437683,1.0,3.62,-1.21,8.97,-0.19,43.5,-13.56,-0.81,-2.13,-1.75,-0.029127584251632976,-0.14720665011798395,0.059502633411314676,-7.292945412680463,21.147383365420364,-76.50088290484744,-0.7609,-0.0636,0.1835,-0.6191
60,452497.0,402.48193399999997,1.0,3.62,-1.25,9.04,-1.0,43.88,-13.56,-0.06,-2.0,-2.69,-0.00495750615948809,-0.09873437260421347,-0.010616775778231613,-7.35035834348681,21.21732993545333,-76.3987758164682,-0.7613,-0.0641,0.1841,-0.6184
61,452497.0,402.48193399999997,1.0,3.62,-1.25,9.04,-1.0,43.88,-13.56,-0.06,-2.0,-2.69,-0.00495750615948809,-0.09873437260421347,-0.010616775778231613,-7.35035834348681,21.21732993545333,-76.3987758164682,-0.7613,-0.0641,0.1841,-0.6184
62,452534.0,402.499735,1.0,3.68,-1.21,9.05,-1.0,43.88,-13.56,-0.75,-1.63,-2.13,-0.03487559557173492,-0.1499619906668842,-0.03638281992845727,-7.384806987935718,21.25230621784773,-76.32588599826201,-0.7615,-0.0644,0.1844,-0.6179
63,452534.0,402.499735,1.0,3.68,-1.21,9.05,-1.0,43.88,-13.56,-0.75,-1.63,-2.13,-0.03487559557173492,-0.1499619906668842,-0.03638281992845727,-7.384806987935718,21.25230621784773,-76.32588599826201,-0.7615,-0.0644,0.1844,-0.6179
64,452569.0,402.54613,1.0,3.65,-1.29,9.05,-1.0,43.88,-13.56,0.12,-2.63,-1.5,0.03739562467749175,-0.08643429696031457,-0.0361255577156161,-7.453706284964303,21.32226479540238,-76.25303259821837,-0.7618,-0.065,0.185,-0.6174
65,452569.0,402.54613,1.0,3.65,-1.29,9.05,-1.0,43.88,-13.56,0.12,-2.63,-1.5,0.03739562467749175,-0.08643429696031457,-0.0361255577156161,-7.453706284964303,21.32226479540238,-76.25303259821837,-0.7618,-0.065,0.185,-0.6174
66,452603.0,402.56512599999996,1.0,3.79,-1.14,8.76,-1.37,44.25,-13.56,-0.44,-2.31,-1.0,-0.02538286738172457,-0.3325796269857678,0.19987913244218625,-7.499640647274437,21.368908312577144,-76.20933800398176,-0.7619,-0.0654,0.1854,-0.6171
67,452603.0,402.56512599999996,1.0,3.79,-1.14,8.76,-1.37,44.25,-13.56,-0.44,-2.31,-1.0,-0.02538286738172457,-0.3325796269857678,0.19987913244218625,-7.499640647274437,21.368908312577144,-76.20933800398176,-0.7619,-0.0654,0.1854,-0.6171
68,452640.0,402.60772099999997,1.0,3.82,-1.2,8.98,-0.25,43.88,-14.0,0.56,-3.94,-3.25,-0.005472758382020271,-0.23853870794077714,-0.022687176724057068,-7.648935698119245,21.497196482057948,-76.09288289681452,-0.7621,-0.0667,0.1865,-0.6163
69,452640.0,402.60772099999997,1.0,3.82,-1.2,8.98,-0.25,43.88,-14.0,0.56,-3.94,-3.25,-0.005472758382020271,-0.23853870794077714,-0.022687176724057068,-7.648935698119245,21.497196482057948,-76.09288289681452,-0.7621,-0.0667,0.1865,-0.6163
70,452673.0,402.66623599999997,1.0,3.78,-1.27,8.97,-0.25,43.88,-14.0,0.88,-6.0,-1.94,0.0576146337236973,-0.15458733219501264,-0.008388630117851292,-7.798243752767076,21.625511921173292,-76.02014547215987,-0.7622,-0.068,0.1876,-0.6158
71,452673.0,402.66623599999997,1.0,3.78,-1.27,8.97,-0.25,43.88,-14.0,0.88,-6.0,-1.94,0.0576146337236973,-0.15458733219501264,-0.008388630117851292,-7.798243752767076,21.625511921173292,-76.02014547215987,-0.7622,-0.068,0.1876,-0.6158
72,452708.0,402.674763,1.0,3.86,-0.98,8.75,-1.37,44.25,-14.0,-9.06,-8.38,-3.19,-0.18686827411388324,-0.3310024478632726,0.2005052151428508,-7.867159619602528,21.882225322200526,-75.88930894202932,-0.7623,-0.0686,0.1898,-0.6149
73,452708.0,402.674763,1.0,3.86,-0.98,8.75,-1.37,44.25,-14.0,-9.06,-8.38,-3.19,-0.18686827411388324,-0.3310024478632726,0.2005052151428508,-7.867159619602528,21.882225322200526,-75.88930894202932,-0.7623,-0.0686,0.1898,-0.6149
74,452743.0,402.740504,1.0,3.86,-1.4,8.93,0.06,44.25,-14.25,2.44,-6.75,-3.63,0.17406323446756045,-0.11540468643567504,-0.019889764777596845,-8.073924421552888,22.127373666986447,-75.72955562090883,-0.7626,-0.0704,0.1919,-0.6138
75,452743.0,402.740504,1.0,3.86,-1.4,8.93,0.06,44.25,-14.25,2.44,-6.75,-3.63,0.17406323446756045,-0.11540468643567504,-0.019889764777596845,-8.073924421552888,22.127373666986447,-75.72955562090883,-0.7626,-0.0704,0.1919,-0.6138
76,452777.0,402.75883500000003,1.0,3.87,-1.29,8.93,0.06,44.25,-14.25,-3.81,-7.13,-3.13,0.053548950806838365,-0.11514539186988293,-0.01016078806140186,-8.154340029708836,22.337582426465424,-75.59897705351443,-0.7628,-0.0711,0.1937,-0.6129
77,452777.0,402.75883500000003,1.0,3.87,-1.29,8.93,0.06,44.25,-14.25,-3.81,-7.13,-3.13,0.053548950806838365,-0.11514539186988293,-0.01016078806140186,-8.154340029708836,22.337582426465424,-75.59897705351443,-0.7628,-0.0711,0.1937,-0.6129
78,452810.0,402.762876,1.0,4.01,-1.17,8.56,-1.0,43.88,-14.0,-0.69,-1.06,-6.44,0.047413197011543166,-0.4022416973035016,0.2904241932161167,-8.1313637329408,22.302542365509357,-75.43953757831886,-0.7637,-0.0709,0.1934,-0.6118
79,452810.0,402.762876,1.0,4.01,-1.17,8.56,-1.0,43.88,-14.0,-0.69,-1.06,-6.44,0.047413197011543166,-0.4022416973035016,0.2904241932161167,-8.1313637329408,22.302542365509357,-75.43953757831886,-0.7637,-0.0709,0.1934,-0.6118
80,452845.0,402.804652,1.0,3.86,-1.14,9.53,-0.25,43.88,-13.56,-1.69,-6.88,-6.44,-0.21430001945132165,0.10715678724082868,-0.5356269700202549,-8.292204739238791,22.489447184752866,-75.26579905121056,-0.7642,-0.0723,0.195,-0.6106
81,452845.0,402.804652,1.0,3.86,-1.14,9.53,-0.25,43.88,-13.56,-1.69,-6.88,-6.44,-0.21430001945132165,0.10715678724082868,-0.5356269700202549,-8.292204739238791,22.489447184752866,-75.26579905121056,-0.7642,-0.0723,0.195,-0.6106
82,452882.0,402.866552,1.0,4.17,-1.38,8.49,-1.0,43.5,-14.75,1.69,-5.94,-6.63,0.3124200521610961,-0.4703102330677881,0.2643964927995395,-8.349651905481078,22.431032941974188,-75.02001646610674,-0.7656,-0.0728,0.1945,-0.6089
83,452882.0,402.866552,1.0,4.17,-1.38,8.49,-1.0,43.5,-14.75,1.69,-5.94,-6.63,0.3124200521610961,-0.4703102330677881,0.2643964927995395,-8.349651905481078,22.431032941974188,-75.02001646610674,-0.7656,-0.0728,0.1945,-0.6089
84,452917.0,402.884073,1.0,4.22,-1.07,9.05,-1.0,43.5,-14.75,-4.06,-10.31,-10.88,-0.11050779313774316,-0.3406363949347072,-0.2296618163049171,-8.487533709607298,22.73485185773412,-74.71696010988838,-0.7665,-0.07400000000000001,0.1971,-0.6068
85,452917.0,402.884073,1.0,4.22,-1.07,9.05,-1.0,43.5,-14.75,-4.06,-10.31,-10.88,-0.11050779313774316,-0.3406363949347072,-0.2296618163049171,-8.487533709607298,22.73485185773412,-74.71696010988838,-0.7665,-0.07400000000000001,0.1971,-0.6068
86,452954.0,402.928928,1.0,4.23,-1.61,8.73,-1.0,43.88,-14.69,6.63,-12.06,-10.25,0.5001309547773845,-0.2678626226151275,-0.010478839099507198,-8.740349140335567,22.86343926833653,-74.2850802819462,-0.7683,-0.0762,0.1982,-0.6038
87,452954.0,402.928928,1.0,4.23,-1.61,8.73,-1.0,43.88,-14.69,6.63,-12.06,-10.25,0.5001309547773845,-0.2678626226151275,-0.010478839099507198,-8.740349140335567,22.86343926833653,-74.2850802819462,-0.7683,-0.0762,0.1982,-0.6038
88,452988.0,402.99330299999997,1.0,4.03,-1.0,8.82,-1.0,44.25,-14.69,-15.56,-10.06,-17.37,-0.17278156038414685,-0.16297220462520354,0.06104142008510394,-8.774827247055486,23.237678334824075,-73.79710182057964,-0.7701,-0.0765,0.2014,-0.6004
89,452988.0,402.99330299999997,1.0,4.03,-1.0,8.82,-1.0,44.25,-14.69,-15.56,-10.06,-17.37,-0.17278156038414685,-0.16297220462520354,0.06104142008510394,-8.774827247055486,23.237678334824075,-73.79710182057964,-0.7701,-0.0765,0.2014,-0.6004
90,453021.0,403.011912,1.0,3.93,-1.15,8.76,-1.0,44.25,-14.69,-6.88,-15.44,-27.81,-0.06678125485050035,0.06368969262731172,0.13729201267459426,-9.039186076064473,23.881491803544503,-72.81154842528053,-0.7738,-0.0788,0.2069,-0.5935
91,453021.0,403.011912,1.0,3.93,-1.15,8.76,-1.0,44.25,-14.69,-6.88,-15.44,-27.81,-0.06678125485050035,0.06368969262731172,0.13729201267459426,-9.039186076064473,23.881491803544503,-72.81154842528053,-0.7738,-0.0788,0.2069,-0.5935
92,453056.0,403.068777,1.0,4.32,-1.66,8.59,-1.37,45.0,-14.25,-10.63,-1.5,-37.06,0.5485076426527005,-0.12430668047013027,0.06551109250350429,-9.165635515674056,24.162667241251796,-71.77561964048606,-0.7786,-0.0799,0.2093,-0.5862
93,453056.0,403.068777,1.0,4.32,-1.66,8.59,-1.37,45.0,-14.25,-10.63,-1.5,-37.06,0.5485076426527005,-0.12430668047013027,0.06551109250350429,-9.165635515674056,24.162667241251796,-71.77561964048606,-0.7786,-0.0799,0.2093,-0.5862
94,453093.0,403.072203,1.0,4.58,-0.46,8.78,-2.5,45.38,-15.19,-24.62,-15.38,-33.63,-0.5914022320734713,-0.5764667676438148,-0.07233423248568549,-9.085166406176855,24.737194611496925,-70.15725143860956,-0.7858,-0.0792,0.2142,-0.5747
95,453093.0,403.072203,1.0,4.58,-0.46,8.78,-2.5,45.38,-15.19,-24.62,-15.38,-33.63,-0.5914022320734713,-0.5764667676438148,-0.07233423248568549,-9.085166406176855,24.737194611496925,-70.15725143860956,-0.7858,-0.0792,0.2142,-0.5747
96,453130.0,403.11219900000003,1.0,4.99,-0.67,8.48,-2.5,45.38,-15.19,-12.38,-13.56,-42.31,-0.2311772305142837,-0.8886590714130371,-0.012527264052577536,-9.154139652218912,25.28886585104528,-68.92962456147485,-0.7909,-0.0798,0.2189,-0.5659
97,453130.0,403.11219900000003,1.0,4.99,-0.67,8.48,-2.5,45.38,-15.19,-12.38,-13.56,-42.31,-0.2311772305142837,-0.8886590714130371,-0.012527264052577536,-9.154139652218912,25.28886585104528,-68.92962456147485,-0.7909,-0.0798,0.2189,-0.5659
98,453163.0,403.119873,1.0,5.06,-1.13,8.41,-3.19,46.06,-13.19,-14.0,-15.88,-54.31,0.28724739599329824,-0.6576768544029884,-0.04695594344414111,-9.51055493545105,25.8058643261674,-66.8163704357792,-0.8,-0.0829,0.2233,-0.5506
99,453163.0,403.119873,1.0,5.06,-1.13,8.41,-3.19,46.06,-13.19,-14.0,-15.88,-54.31,0.28724739599329824,-0.6576768544029884,-0.04695594344414111,-9.51055493545105,25.8058643261674,-66.8163704357792,-0.8,-0.0829,0.2233,-0.5506
100,453199.0,403.187144,1.0,5.0,-0.79,8.25,-5.5,45.69,-14.75,-13.06,-13.69,-43.56,0.022776975644508923,-0.6373025584405977,0.14849662275517514,-9.91307033213892,26.464637612964076,-65.01364072680407,-0.8071,-0.0864,0.2289,-0.5374
101,453199.0,403.187144,1.0,5.0,-0.79,8.25,-5.5,45.69,-14.75,-13.06,-13.69,-43.56,0.022776975644508923,-0.6373025584405977,0.14849662275517514,-9.91307033213892,26.464637612964076,-65.01364072680407,-0.8071,-0.0864,0.2289,-0.5374
102,453234.0,403.205653,1.0,4.68,-0.79,8.51,-6.88,46.06,-14.0,-12.88,-14.38,-30.31,-0.14544824482099933,-0.18062291984820966,0.06535541617265217,-10.177646918437086,26.829697512461113,-64.07848807925822,-0.8105,-0.0887,0.23199999999999998,-0.5305
103,453234.0,403.205653,1.0,4.68,-0.79,8.51,-6.88,46.06,-14.0,-12.88,-14.38,-30.31,-0.14544824482099933,-0.18062291984820966,0.06535541617265217,-10.177646918437086,26.829697512461113,-64.07848807925822,-0.8105,-0.0887,0.23199999999999998,-0.5305
104,453269.0,403.297124,1.0,4.51,-0.69,8.48,-6.88,46.06,-14.0,-3.63,-16.69,-30.75,-0.2824869175941908,0.03675358075302326,0.18139933751385406,-10.591876570929834,27.3719121623715,-62.82555919288418,-0.8148,-0.0923,0.2366,-0.5212
105,453269.0,403.297124,1.0,4.51,-0.69,8.48,-6.88,46.06,-14.0,-3.63,-16.69,-30.75,-0.2824869175941908,0.03675358075302326,0.18139933751385406,-10.591876570929834,27.3719121623715,-62.82555919288418,-0.8148,-0.0923,0.2366,-0.5212
106,453306.0,403.309997,1.0,4.73,-0.88,8.53,-7.25,47.06,-14.25,-2.81,-8.56,-28.37,-0.028242870385639,0.047423872900646764,0.013532349499140395,-10.891128461986716,27.59605210118816,-61.95480935564663,-0.8181,-0.0949,0.2385,-0.5147
107,453306.0,403.309997,1.0,4.73,-0.88,8.53,-7.25,47.06,-14.25,-2.81,-8.56,-28.37,-0.028242870385639,0.047423872900646764,0.013532349499140395,-10.891128461986716,27.59605210118816,-61.95480935564663,-0.8181,-0.0949,0.2385,-0.5147
108,453343.0,403.313721,1.0,4.93,-0.83,8.47,-6.5,46.38,-15.19,0.12,-10.0,-24.56,0.049463520166937835,-0.06541143371636704,-0.028388114034529014,-11.224997424028942,27.808494550687968,-60.9683017245208,-0.8218,-0.0978,0.2403,-0.5073
109,453343.0,403.313721,1.0,4.93,-0.83,8.47,-6.5,46.38,-15.19,0.12,-10.0,-24.56,0.049463520166937835,-0.06541143371636704,-0.028388114034529014,-11.224997424028942,27.808494550687968,-60.9683017245208,-0.8218,-0.0978,0.2403,-0.5073
110,453376.0,403.35908900000004,1.0,5.15,-0.23,8.35,-6.5,46.38,-15.19,-10.63,-12.06,-29.81,-0.366099628040887,-0.4832138577395151,0.012244687269838295,-11.432274343860266,28.210041571444727,-60.09264488671134,-0.8246,-0.0996,0.2437,-0.5007
111,453376.0,403.35908900000004,1.0,5.15,-0.23,8.35,-6.5,46.38,-15.19,-10.63,-12.06,-29.81,-0.366099628040887,-0.4832138577395151,0.012244687269838295,-11.432274343860266,28.210041571444727,-60.09264488671134,-0.8246,-0.0996,0.2437,-0.5007
112,453410.0,403.378668,1.0,6.03,0.18,8.34,-8.25,47.75,-15.88,-4.25,-19.0,-33.56,-0.3587753239073625,-1.2086772465039557,-0.408988970751599,-11.927589126675839,28.801196435314267,-58.720603220456965,-0.8289,-0.1039,0.2487,-0.4903
113,453410.0,403.378668,1.0,6.03,0.18,8.34,-8.25,47.75,-15.88,-4.25,-19.0,-33.56,-0.3587753239073625,-1.2086772465039557,-0.408988970751599,-11.927589126675839,28.801196435314267,-58.720603220456965,-0.8289,-0.1039,0.2487,-0.4903
114,453445.0,403.426904,1.0,7.39,1.09,8.08,-8.69,47.25,-16.25,25.87,-25.12,-34.19,-0.4452479559888829,-2.621833873345956,-0.8710998284171989,-12.757459245108164,29.132584441928433,-57.81539569637104,-0.8311,-0.1111,0.2515,-0.4834
115,453445.0,403.426904,1.0,7.39,1.09,8.08,-8.69,47.25,-16.25,25.87,-25.12,-34.19,-0.4452479559888829,-2.621833873345956,-0.8710998284171989,-12.757459245108164,29.132584441928433,-57.81539569637104,-0.8311,-0.1111,0.2515,-0.4834
116,453482.0,403.44498,1.0,7.75,0.01,7.8,-8.56,46.19,-18.25,25.44,-11.69,-54.31,1.0079193571541687,-2.1412376195339102,-0.9312175735067036,-14.534774284595127,28.89585348706327,-56.2374309655145,-0.8364,-0.1265,0.2495,-0.4713
117,453482.0,403.44498,1.0,7.75,0.01,7.8,-8.56,46.19,-18.25,25.44,-11.69,-54.31,1.0079193571541687,-2.1412376195339102,-0.9312175735067036,-14.534774284595127,28.89585348706327,-56.2374309655145,-0.8364,-0.1265,0.2495,-0.4713
118,453517.0,403.484836,1.0,7.28,0.32,8.19,-8.56,46.19,-18.25,2.31,-44.56,-61.94,0.5425275940700905,-1.4572536215831051,-1.0450307772830971,-15.864262703092981,29.49976914452507,-54.52914355096097,-0.8404,-0.138,0.2546,-0.4581
119,453517.0,403.484836,1.0,7.28,0.32,8.19,-8.56,46.19,-18.25,2.31,-44.56,-61.94,0.5425275940700905,-1.4572536215831051,-1.0450307772830971,-15.864262703092981,29.49976914452507,-54.52914355096097,-0.8404,-0.138,0.2546,-0.4581
120,453554.0,403.545173,1.0,8.33,1.18,8.01,-8.88,44.56,-20.56,15.19,-68.12,-56.0,0.4570660640421968,-2.186915376191835,-1.5929066471015307,-17.845191938186247,30.86465043933479,-52.1184538275471,-0.8439,-0.1551,0.2661,-0.4393
121,453554.0,403.545173,1.0,8.33,1.18,8.01,-8.88,44.56,-20.56,15.19,-68.12,-56.0,0.4570660640421968,-2.186915376191835,-1.5929066471015307,-17.845191938186247,30.86465043933479,-52.1184538275471,-0.8439,-0.1551,0.2661,-0.4393
122,453588.0,403.570662,1.0,7.58,1.24,8.47,-8.75,43.38,-22.5,45.13,-66.81,-59.81,0.0038236093505751296,-0.9733991554300708,-1.5857764081107693,-20.05257586733213,31.864439303449732,-50.465953903367264,-0.8442,-0.1741,0.2745,-0.4263
123,453588.0,403.570662,1.0,7.58,1.24,8.47,-8.75,43.38,-22.5,45.13,-66.81,-59.81,0.0038236093505751296,-0.9733991554300708,-1.5857764081107693,-20.05257586733213,31.864439303449732,-50.465953903367264,-0.8442,-0.1741,0.2745,-0.4263
124,453623.0,403.57428500000003,1.0,7.86,1.48,7.48,-8.75,43.38,-22.5,31.94,-82.37,-77.37,0.4618298276916721,-1.0675694853179425,-1.0822162680865122,-23.41318918903326,32.98621503760272,-47.90761495262175,-0.8447,-0.2029,0.2839,-0.406
125,453623.0,403.57428500000003,1.0,7.86,1.48,7.48,-8.75,43.38,-22.5,31.94,-82.37,-77.37,0.4618298276916721,-1.0675694853179425,-1.0822162680865122,-23.41318918903326,32.98621503760272,-47.90761495262175,-0.8447,-0.2029,0.2839,-0.406
126,453658.0,403.65737,1.0,8.91,3.37,8.3,-10.56,40.69,-25.5,51.63,-107.19,-88.94,-0.6511498826202039,-1.5091720850174215,-2.7206563125385355,-26.35870385587789,34.56701075551299,-45.2750645639147,-0.8436,-0.228,0.2971,-0.3849
127,453658.0,403.65737,1.0,8.91,3.37,8.3,-10.56,40.69,-25.5,51.63,-107.19,-88.94,-0.6511498826202039,-1.5091720850174215,-2.7206563125385355,-26.35870385587789,34.56701075551299,-45.2750645639147,-0.8436,-0.228,0.2971,-0.3849
128,453695.0,403.669784,1.0,8.06,3.2,6.87,-11.0,37.88,-28.19,67.75,-102.44,-90.62,-0.2373475528296192,-0.7678109023821733,-1.2275981645714733,-31.39994691440291,35.997952375875286,-42.040760042586655,-0.8383,-0.2706,0.309,-0.3587
129,453695.0,403.669784,1.0,8.06,3.2,6.87,-11.0,37.88,-28.19,67.75,-102.44,-90.62,-0.2373475528296192,-0.7678109023821733,-1.2275981645714733,-31.39994691440291,35.997952375875286,-42.040760042586655,-0.8383,-0.2706,0.309,-0.3587
130,453732.0,403.71973199999996,1.0,7.56,4.29,6.78,-11.0,37.88,-28.19,73.0,-122.5,-93.56,-1.1842970480289328,-0.4112432762472367,-1.145720495457658,-35.25171097529378,37.47102265081461,-39.266717795122325,-0.8320000000000001,-0.3028,0.3212,-0.336
131,453732.0,403.71973199999996,1.0,7.56,4.29,6.78,-11.0,37.88,-28.19,73.0,-122.5,-93.56,-1.1842970480289328,-0.4112432762472367,-1.145720495457658,-35.25171097529378,37.47102265081461,-39.266717795122325,-0.8320000000000001,-0.3028,0.3212,-0.336
132,453765.0,403.73791800000004,1.0,10.0,7.52,6.67,-13.38,32.88,-29.56,55.63,-137.44,-99.81,-1.941690476564999,-1.8106915038313318,-4.12139847676694,-40.5589927006499,39.46144077446525,-35.4802322080149,-0.8204,-0.3466,0.3376,-0.3047
133,453765.0,403.73791800000004,1.0,10.0,7.52,6.67,-13.38,32.88,-29.56,55.63,-137.44,-99.81,-1.941690476564999,-1.8106915038313318,-4.12139847676694,-40.5589927006499,39.46144077446525,-35.4802322080149,-0.8204,-0.3466,0.3376,-0.3047
134,453801.0,403.788385,1.0,8.11,6.77,6.5,-16.25,28.56,-28.87,121.94,-142.31,-113.94,-2.1439780522358074,0.642655846793406,-2.3935693248364758,-47.544236088592434,41.17041905633896,-31.078685498016352,-0.8013,-0.4031,0.3516,-0.2679
135,453801.0,403.788385,1.0,8.11,6.77,6.5,-16.25,28.56,-28.87,121.94,-142.31,-113.94,-2.1439780522358074,0.642655846793406,-2.3935693248364758,-47.544236088592434,41.17041905633896,-31.078685498016352,-0.8013,-0.4031,0.3516,-0.2679
136,453838.0,403.80695499999996,1.0,7.71,8.96,6.51,-18.19,21.69,-29.37,161.69,-111.5,-93.62,-3.6772639612688516,0.9583685477797816,-3.141904339607948,-53.436046525616895,41.586888761097505,-28.753875441458412,-0.7811,-0.4496,0.355,-0.2483
137,453838.0,403.80695499999996,1.0,7.71,8.96,6.51,-18.19,21.69,-29.37,161.69,-111.5,-93.62,-3.6772639612688516,0.9583685477797816,-3.141904339607948,-53.436046525616895,41.586888761097505,-28.753875441458412,-0.7811,-0.4496,0.355,-0.2483
138,453871.0,403.870371,1.0,7.7,7.98,5.34,-18.19,21.69,-29.37,215.94,-101.31,-79.56,-2.2362822448549,2.3227023843141548,-2.0714851800376497,-62.530394702957395,41.17041905633896,-27.14787893324093,-0.7429,-0.519,0.3516,-0.2347
139,453871.0,403.870371,1.0,7.7,7.98,5.34,-18.19,21.69,-29.37,215.94,-101.31,-79.56,-2.2362822448549,2.3227023843141548,-2.0714851800376497,-62.530394702957395,41.17041905633896,-27.14787893324093,-0.7429,-0.519,0.3516,-0.2347
140,453908.0,403.87426,1.0,7.64,7.85,3.76,-22.0,10.69,-31.06,214.56,-94.06,-82.62,-1.4674088395412872,2.2588383255754083,-1.4571886315033726,-69.57019927388535,40.48570286910027,-26.158669228245632,-0.7097,-0.5705,0.34600000000000003,-0.2263
141,453908.0,403.87426,1.0,7.64,7.85,3.76,-22.0,10.69,-31.06,214.56,-94.06,-82.62,-1.4674088395412872,2.2588383255754083,-1.4571886315033726,-69.57019927388535,40.48570286910027,-26.158669228245632,-0.7097,-0.5705,0.34600000000000003,-0.2263
142,453945.0,403.92052,1.0,7.43,8.26,1.12,-24.37,1.25,-31.37,201.75,-81.44,-98.69,-0.8816239474807082,1.2877887301638933,-1.2500782412878095,-78.8103048383864,38.85332219688672,-24.40881688456287,-0.6646,-0.6348,0.3326,-0.2114
143,453945.0,403.92052,1.0,7.43,8.26,1.12,-24.37,1.25,-31.37,201.75,-81.44,-98.69,-0.8816239474807082,1.2877887301638933,-1.2500782412878095,-78.8103048383864,38.85332219688672,-24.40881688456287,-0.6646,-0.6348,0.3326,-0.2114
144,453980.0,403.986741,1.0,6.8,7.4,-0.24,-24.37,1.25,-31.37,204.56,-82.62,-120.5,-0.07605964869116755,1.0625318564364448,-0.18949130471846765,-85.93759911863056,36.90278239165085,-22.629665556706637,-0.6299,-0.6816,0.3165,-0.1962
145,453980.0,403.986741,1.0,6.8,7.4,-0.24,-24.37,1.25,-31.37,204.56,-82.62,-120.5,-0.07605964869116755,1.0625318564364448,-0.18949130471846765,-85.93759911863056,36.90278239165085,-22.629665556706637,-0.6299,-0.6816,0.3165,-0.1962
146,454014.0,403.995529,1.0,4.84,7.0,-1.75,-28.06,-11.25,-31.5,178.5,-89.37,-140.94,-0.4751802644130946,0.4804106168775677,1.144576959699334,-95.29260089270693,33.71591204499429,-19.447737797457524,-0.5843,-0.7390000000000001,0.29,-0.1689
147,454014.0,403.995529,1.0,4.84,7.0,-1.75,-28.06,-11.25,-31.5,178.5,-89.37,-140.94,-0.4751802644130946,0.4804106168775677,1.144576959699334,-95.29260089270693,33.71591204499429,-19.447737797457524,-0.5843,-0.7390000000000001,0.29,-0.1689
148,454049.0,404.009734,1.0,5.54,5.6,-3.27,-31.87,-22.87,-28.0,166.88,-157.44,-157.94,1.8379838342141368,0.2774799757856261,1.4826293195712503,-104.93351333870716,31.054898349248795,-13.495684664619233,-0.5344,-0.7929999999999999,0.2677,-0.1175
149,454049.0,404.009734,1.0,5.54,5.6,-3.27,-31.87,-22.87,-28.0,166.88,-157.44,-157.94,1.8379838342141368,0.2774799757856261,1.4826293195712503,-104.93351333870716,31.054898349248795,-13.495684664619233,-0.5344,-0.7929999999999999,0.2677,-0.1175
150,454086.0,404.073779,1.0,2.71,4.5,-1.67,-32.25,-35.19,-18.75,138.75,-123.62,-161.94,0.34519338251996434,1.159181724049431,4.428905188343888,-111.35968772291412,28.90768703373302,-8.797813093528106,-0.4997,-0.8259,0.2496,-0.0767
151,454086.0,404.073779,1.0,2.71,4.5,-1.67,-32.25,-35.19,-18.75,138.75,-123.62,-161.94,0.34519338251996434,1.159181724049431,4.428905188343888,-111.35968772291412,28.90768703373302,-8.797813093528106,-0.4997,-0.8259,0.2496,-0.0767
152,454121.0,404.11368,1.0,1.6,3.71,-2.74,-32.25,-35.19,-18.75,126.81,-68.62,-149.06,0.2787433332730298,0.11555900880357672,4.934212389353744,-118.67809259864173,25.054040082214637,-4.6192907619204595,-0.4597,-0.8602,0.2169,-0.0403
153,454121.0,404.11368,1.0,1.6,3.71,-2.74,-32.25,-35.19,-18.75,126.81,-68.62,-149.06,0.2787433332730298,0.11555900880357672,4.934212389353744,-118.67809259864173,25.054040082214637,-4.6192907619204595,-0.4597,-0.8602,0.2169,-0.0403
154,454158.0,404.1314,1.0,1.02,1.4,-4.88,-28.75,-40.69,-8.75,121.19,-13.75,-111.75,1.005067808017457,-2.6717451753144243,5.486185161643936,-123.50224233828399,22.080670872919914,-3.1975194185389717,-0.43200000000000005,-0.8809,0.1915,-0.0279
155,454158.0,404.1314,1.0,1.02,1.4,-4.88,-28.75,-40.69,-8.75,121.19,-13.75,-111.75,1.005067808017457,-2.6717451753144243,5.486185161643936,-123.50224233828399,22.080670872919914,-3.1975194185389717,-0.43200000000000005,-0.8809,0.1915,-0.0279
156,454195.0,404.175164,1.0,1.42,1.1,-5.21,-23.25,-45.19,-3.25,55.81,-55.31,-76.25,1.6195389909035112,-2.707525091928962,5.288143462047631,-127.84492955883974,19.66867198617123,-1.1230152546764245,-0.4049,-0.8982,0.1708,-0.0098
157,454195.0,404.175164,1.0,1.42,1.1,-5.21,-23.25,-45.19,-3.25,55.81,-55.31,-76.25,1.6195389909035112,-2.707525091928962,5.288143462047631,-127.84492955883974,19.66867198617123,-1.1230152546764245,-0.4049,-0.8982,0.1708,-0.0098
158,454230.0,404.195348,1.0,-0.37,-0.14,-3.5,-23.25,-45.19,-3.25,26.94,-47.19,-56.25,0.17698420930784906,-2.6854461702313843,7.534304195232321,-129.64656611878056,18.51827857520288,0.8021474641450599,-0.3937,-0.905,0.1609,0.006999999999999999
159,454230.0,404.195348,1.0,-0.37,-0.14,-3.5,-23.25,-45.19,-3.25,26.94,-47.19,-56.25,0.17698420930784906,-2.6854461702313843,7.534304195232321,-129.64656611878056,18.51827857520288,0.8021474641450599,-0.3937,-0.905,0.1609,0.006999999999999999
160,454264.0,404.245896,1.0,-1.27,0.63,-3.15,-20.37,-44.5,0.56,-49.44,35.0,3.06,-0.9202580755658192,-2.241512170234616,7.344730369905224,-129.00391708769308,17.729205890532434,1.3751317128217122,-0.4017,-0.9026,0.1541,0.012
161,454264.0,404.245896,1.0,-1.27,0.63,-3.15,-20.37,-44.5,0.56,-49.44,35.0,3.06,-0.9202580755658192,-2.241512170234616,7.344730369905224,-129.00391708769308,17.729205890532434,1.3751317128217122,-0.4017,-0.9026,0.1541,0.012
162,454299.0,404.30390800000004,1.0,2.98,3.39,-4.96,-18.5,-45.88,1.5,-70.31,62.19,47.38,2.4560710679264206,-0.9543685856181272,3.639722441476224,-126.04885559306123,18.170051350104252,-0.8479852761926534,-0.4251,-0.8912,0.1579,-0.0074
163,454299.0,404.30390800000004,1.0,2.98,3.39,-4.96,-18.5,-45.88,1.5,-70.31,62.19,47.38,2.4560710679264206,-0.9543685856181272,3.639722441476224,-126.04885559306123,18.170051350104252,-0.8479852761926534,-0.4251,-0.8912,0.1579,-0.0074
164,454336.0,404.310872,1.0,3.86,5.22,-4.59,-19.06,-46.0,-0.69,-102.37,5.88,37.69,2.6438903636937874,0.2918353193420833,2.3139351454795354,-123.01990890666336,19.017706136871343,-1.5011923619341792,-0.4474,-0.8789,0.1652,-0.0131
165,454336.0,404.310872,1.0,3.86,5.22,-4.59,-19.06,-46.0,-0.69,-102.37,5.88,37.69,2.6438903636937874,0.2918353193420833,2.3139351454795354,-123.01990890666336,19.017706136871343,-1.5011923619341792,-0.4474,-0.8789,0.1652,-0.0131
166,454371.0,404.371103,1.0,5.42,8.48,-5.84,-19.06,-46.0,-0.69,-167.63,2.88,33.44,3.359085405385904,0.5291559603681235,-1.321195218591532,-117.14486104081259,20.25043303206116,-1.1803139285143014,-0.4908,-0.8533,0.1758,-0.0103
167,454371.0,404.371103,1.0,5.42,8.48,-5.84,-19.06,-46.0,-0.69,-167.63,2.88,33.44,3.359085405385904,0.5291559603681235,-1.321195218591532,-117.14486104081259,20.25043303206116,-1.1803139285143014,-0.4908,-0.8533,0.1758,-0.0103
168,454408.0,404.378969,1.0,3.57,10.03,-2.26,-21.37,-45.69,-3.88,-118.62,-65.06,58.56,0.5542376434951615,3.1312178222722316,-0.6020816991080942,-113.06525678920107,22.185757394813148,0.14896906869365514,-0.5169,-0.8342,0.1924,0.0013
169,454408.0,404.378969,1.0,3.57,10.03,-2.26,-21.37,-45.69,-3.88,-118.62,-65.06,58.56,0.5542376434951615,3.1312178222722316,-0.6020816991080942,-113.06525678920107,22.185757394813148,0.14896906869365514,-0.5169,-0.8342,0.1924,0.0013
170,454443.0,404.396227,1.0,3.83,12.85,-2.72,-22.25,-45.25,-7.06,-93.44,-13.06,75.12,-0.3686524912214293,3.0532726481887456,-3.52494485870084,-108.50510319404415,25.10099664997855,0.34377519274259805,-0.5422,-0.8116,0.2173,0.003
171,454443.0,404.396227,1.0,3.83,12.85,-2.72,-22.25,-45.25,-7.06,-93.44,-13.06,75.12,-0.3686524912214293,3.0532726481887456,-3.52494485870084,-108.50510319404415,25.10099664997855,0.34377519274259805,-0.5422,-0.8116,0.2173,0.003
172,454477.0,404.483341,1.0,2.91,9.0,-3.27,-22.25,-45.25,-7.06,-11.19,28.69,28.12,0.09344756944056297,0.8288199197602069,-0.16658042410904628,-107.47198140386222,25.735333308776628,-0.7104722177704716,-0.5479999999999999,-0.8063,0.2227,-0.0062
173,454477.0,404.483341,1.0,2.91,9.0,-3.27,-22.25,-45.25,-7.06,-11.19,28.69,28.12,0.09344756944056297,0.8288199197602069,-0.16658042410904628,-107.47198140386222,25.735333308776628,-0.7104722177704716,-0.5479999999999999,-0.8063,0.2227,-0.0062
174,454512.0,404.489071,1.0,3.08,7.65,-4.31,-24.19,-44.75,-8.88,-27.87,29.12,20.75,0.8650427231032385,-0.6882829103626702,0.5674418238352903,-106.20292801228649,25.782352883412447,-1.8450038134157023,-0.5571,-0.7997,0.2231,-0.0161
175,454512.0,404.489071,1.0,3.08,7.65,-4.31,-24.19,-44.75,-8.88,-27.87,29.12,20.75,0.8650427231032385,-0.6882829103626702,0.5674418238352903,-106.20292801228649,25.782352883412447,-1.8450038134157023,-0.5571,-0.7997,0.2231,-0.0161
176,454547.0,404.539246,1.0,2.25,8.32,-2.22,-24.75,-43.19,-9.19,-37.75,5.63,35.94,-0.6698801984286893,0.8612957673412605,0.9736023877138996,-104.61433000481749,26.464637612964076,-2.1659094260652934,-0.5667,-0.7913,0.2289,-0.0189
177,454547.0,404.539246,1.0,2.25,8.32,-2.22,-24.75,-43.19,-9.19,-37.75,5.63,35.94,-0.6698801984286893,0.8612957673412605,0.9736023877138996,-104.61433000481749,26.464637612964076,-2.1659094260652934,-0.5667,-0.7913,0.2289,-0.0189
178,454584.0,404.54357200000004,1.0,2.78,7.84,-2.74,-25.56,-43.06,-10.0,-12.25,27.12,47.38,-0.13591107670983832,0.24411245376079016,1.0531628497754415,-103.27503144100895,27.407295558849807,-3.701951248377608,-0.5727,-0.7841,0.2369,-0.0323
179,454584.0,404.54357200000004,1.0,2.78,7.84,-2.74,-25.56,-43.06,-10.0,-12.25,27.12,47.38,-0.13591107670983832,0.24411245376079016,1.0531628497754415,-103.27503144100895,27.407295558849807,-3.701951248377608,-0.5727,-0.7841,0.2369,-0.0323
180,454619.0,404.60576299999997,1.0,3.01,7.45,-2.94,-25.56,-43.06,-10.0,-27.69,55.75,47.0,0.07922394717694436,-0.1723112126590367,1.2526899572954695,-102.08271174423224,27.60785191517117,-5.410731896463338,-0.5798,-0.7776,0.2386,-0.0472
181,454619.0,404.60576299999997,1.0,3.01,7.45,-2.94,-25.56,-43.06,-10.0,-27.69,55.75,47.0,0.07922394717694436,-0.1723112126590367,1.2526899572954695,-102.08271174423224,27.60785191517117,-5.410731896463338,-0.5798,-0.7776,0.2386,-0.0472
182,454656.0,404.613395,1.0,7.82,16.38,-4.1,-27.87,-42.0,-10.69,-18.12,42.13,84.5,-0.07514948144398714,1.3330885570711093,-8.753630909901245,-99.61846035279729,28.61194247203445,-8.372631359788455,-0.5917,-0.7639,0.2471,-0.073
183,454656.0,404.613395,1.0,7.82,16.38,-4.1,-27.87,-42.0,-10.69,-18.12,42.13,84.5,-0.07514948144398714,1.3330885570711093,-8.753630909901245,-99.61846035279729,28.61194247203445,-8.372631359788455,-0.5917,-0.7639,0.2471,-0.073
184,454690.0,404.675884,1.0,3.19,6.45,-2.33,-29.06,-40.0,-11.56,53.81,32.69,2.38,-0.008657711305509075,-0.0024662175694318837,2.2430913824043217,-100.65391350970894,28.74204597594341,-9.993587967554063,-0.5818,-0.7697,0.2482,-0.0871
185,454690.0,404.675884,1.0,3.19,6.45,-2.33,-29.06,-40.0,-11.56,53.81,32.69,2.38,-0.008657711305509075,-0.0024662175694318837,2.2430913824043217,-100.65391350970894,28.74204597594341,-9.993587967554063,-0.5818,-0.7697,0.2482,-0.0871
186,454725.0,404.735432,1.0,3.04,7.53,-2.03,-29.06,-40.0,-11.56,-52.0,123.87,-19.62,-0.6624029416967343,0.1043356328989824,1.463165331197695,-99.28166424718141,26.19396354392425,-12.07737906844118,-0.5974,-0.762,0.2266,-0.1052
187,454725.0,404.735432,1.0,3.04,7.53,-2.03,-29.06,-40.0,-11.56,-52.0,123.87,-19.62,-0.6624029416967343,0.1043356328989824,1.463165331197695,-99.28166424718141,26.19396354392425,-12.07737906844118,-0.5974,-0.762,0.2266,-0.1052
188,454760.0,404.75242799999995,1.0,5.44,9.34,-4.07,-29.37,-39.19,-10.75,-32.0,134.88,-16.06,0.7063252991434363,-1.7278509721155464,-1.591145207405214,-97.42359233173357,22.65303861752037,-15.32065719904219,-0.6157,-0.7514,0.1964,-0.1333
189,454760.0,404.75242799999995,1.0,5.44,9.34,-4.07,-29.37,-39.19,-10.75,-32.0,134.88,-16.06,0.7063252991434363,-1.7278509721155464,-1.591145207405214,-97.42359233173357,22.65303861752037,-15.32065719904219,-0.6157,-0.7514,0.1964,-0.1333
190,454797.0,404.798928,1.0,2.66,8.72,-0.75,-28.56,-40.56,-15.5,-56.38,-14.06,-3.69,-1.6290880601692264,0.8668755875900982,0.8472360231902236,-96.1808618687908,23.34297818708293,-14.823619947246295,-0.6234,-0.7442,0.2023,-0.129
191,454797.0,404.798928,1.0,2.66,8.72,-0.75,-28.56,-40.56,-15.5,-56.38,-14.06,-3.69,-1.6290880601692264,0.8668755875900982,0.8472360231902236,-96.1808618687908,23.34297818708293,-14.823619947246295,-0.6234,-0.7442,0.2023,-0.129
192,454834.0,404.81746400000003,1.0,4.96,9.45,-2.0,-28.56,-40.56,-15.5,-20.62,24.0,19.87,0.05261572108336599,-0.1864764237545602,-1.049986593774273,-94.8682331378412,23.40148673707778,-15.517239777173634,-0.6311,-0.7365,0.2028,-0.135
193,454834.0,404.81746400000003,1.0,4.96,9.45,-2.0,-28.56,-40.56,-15.5,-20.62,24.0,19.87,0.05261572108336599,-0.1864764237545602,-1.049986593774273,-94.8682331378412,23.40148673707778,-15.517239777173634,-0.6311,-0.7365,0.2028,-0.135
194,454868.0,404.86312999999996,1.0,4.66,8.24,-2.07,-28.19,-41.0,-15.06,-3.38,22.94,-16.75,0.3689529505638198,-0.5264763118548035,0.13789638780540692,-94.5806381366887,22.875130477358805,-15.898972996932855,-0.6337,-0.7348,0.1983,-0.1383
195,454868.0,404.86312999999996,1.0,4.66,8.24,-2.07,-28.19,-41.0,-15.06,-3.38,22.94,-16.75,0.3689529505638198,-0.5264763118548035,0.13789638780540692,-94.5806381366887,22.875130477358805,-15.898972996932855,-0.6337,-0.7348,0.1983,-0.1383
196,454903.0,404.880883,1.0,4.45,9.51,-1.27,-28.37,-39.75,-16.25,-7.63,26.69,-31.31,-0.2515389599769322,0.2578172542174757,-0.7633906061207494,-94.36123915025331,21.42721774773248,-15.852692930840096,-0.6391,-0.7335,0.1859,-0.1379
197,454903.0,404.880883,1.0,4.45,9.51,-1.27,-28.37,-39.75,-16.25,-7.63,26.69,-31.31,-0.2515389599769322,0.2578172542174757,-0.7633906061207494,-94.36123915025331,21.42721774773248,-15.852692930840096,-0.6391,-0.7335,0.1859,-0.1379
198,454940.0,404.924465,1.0,3.56,9.98,-0.58,-28.06,-39.75,-15.88,-6.06,37.81,-56.75,-1.0420687451008166,0.8363625533688888,-0.7206948888979738,-94.39496330484008,19.81987998842397,-15.679165793853409,-0.643,-0.7337,0.1721,-0.1364
199,454940.0,404.924465,1.0,3.56,9.98,-0.58,-28.06,-39.75,-15.88,-6.06,37.81,-56.75,-1.0420687451008166,0.8363625533688888,-0.7206948888979738,-94.39496330484008,19.81987998842397,-15.679165793853409,-0.643,-0.7337,0.1721,-0.1364
200,454973.0,404.93805699999996,1.0,3.79,9.9,-0.78,-28.06,-39.75,-15.88,-11.69,55.25,-90.12,-0.2236806282584809,0.4561095312015136,-0.8105262287384605,-94.37809988831016,16.17670848781425,-14.996972698908555,-0.6519,-0.7336,0.1407,-0.1305
201,454973.0,404.93805699999996,1.0,3.79,9.9,-0.78,-28.06,-39.75,-15.88,-11.69,55.25,-90.12,-0.2236806282584809,0.4561095312015136,-0.8105262287384605,-94.37809988831016,16.17670848781425,-14.996972698908555,-0.6519,-0.7336,0.1407,-0.1305
202,455010.0,404.990839,1.0,3.55,10.94,-0.77,-25.69,-40.38,-17.87,9.31,40.44,-39.75,-0.5207269013675834,0.5149897832088399,-1.6973766436314666,-94.59753382343494,14.061267443693245,-14.881400387429185,-0.6544,-0.7349,0.1224,-0.1295
203,455010.0,404.990839,1.0,3.55,10.94,-0.77,-25.69,-40.38,-17.87,9.31,40.44,-39.75,-0.5207269013675834,0.5149897832088399,-1.6973766436314666,-94.59753382343494,14.061267443693245,-14.881400387429185,-0.6544,-0.7349,0.1224,-0.1295
204,455047.0,405.00909,1.0,3.35,11.78,-0.23,-23.06,-43.0,-18.25,19.25,52.63,-63.13,-0.6232803261465042,1.181599514756937,-2.369521164276754,-95.25858813139106,11.570479767497385,-15.089441590206313,-0.6533,-0.7388,0.1008,-0.1313
205,455047.0,405.00909,1.0,3.35,11.78,-0.23,-23.06,-43.0,-18.25,19.25,52.63,-63.13,-0.6232803261465042,1.181599514756937,-2.369521164276754,-95.25858813139106,11.570479767497385,-15.089441590206313,-0.6533,-0.7388,0.1008,-0.1313
206,455081.0,405.06606600000003,1.0,3.37,10.6,-1.0,-23.06,-43.0,-18.25,27.06,62.38,-82.06,0.1542069921591297,0.2530371492663006,-1.3570900724246702,-95.872524082521,8.544988083393589,-14.916070477056891,-0.6531,-0.7424,0.0745,-0.1298
207,455081.0,405.06606600000003,1.0,3.37,10.6,-1.0,-23.06,-43.0,-18.25,27.06,62.38,-82.06,0.1542069921591297,0.2530371492663006,-1.3570900724246702,-95.872524082521,8.544988083393589,-14.916070477056891,-0.6531,-0.7424,0.0745,-0.1298
208,455116.0,405.104372,1.0,3.16,11.03,-1.31,-20.75,-43.0,-20.19,51.13,47.31,-47.56,0.1994632316948905,0.18097618250191072,-1.7384815298080891,-97.28475700134165,5.410731896463338,-15.135679738336453,-0.6458,-0.7506,0.0472,-0.1317
209,455116.0,405.104372,1.0,3.16,11.03,-1.31,-20.75,-43.0,-20.19,51.13,47.31,-47.56,0.1994632316948905,0.18097618250191072,-1.7384815298080891,-97.28475700134165,5.410731896463338,-15.135679738336453,-0.6458,-0.7506,0.0472,-0.1317
210,455151.0,405.132366,1.0,2.72,10.53,-1.3,-17.5,-44.75,-21.69,48.5,58.31,-81.31,0.4122972992675784,0.3206506686745696,-1.1339392933468255,-98.84027760077332,1.6272548279067642,-15.008530771963965,-0.6371,-0.7595,0.0142,-0.1306
211,455151.0,405.132366,1.0,2.72,10.53,-1.3,-17.5,-44.75,-21.69,48.5,58.31,-81.31,0.4122972992675784,0.3206506686745696,-1.1339392933468255,-98.84027760077332,1.6272548279067642,-15.008530771963965,-0.6371,-0.7595,0.0142,-0.1306
212,455188.0,405.177591,1.0,1.95,10.5,-1.38,-13.5,-43.69,-20.87,60.25,59.13,-55.88,0.02202711932426281,0.5219724339567922,-0.9489977993751496,-100.0812477423364,-1.2146932735575866,-15.10100089527667,-0.6285,-0.7665,-0.0106,-0.1314
213,455188.0,405.177591,1.0,1.95,10.5,-1.38,-13.5,-43.69,-20.87,60.25,59.13,-55.88,0.02202711932426281,0.5219724339567922,-0.9489977993751496,-100.0812477423364,-1.2146932735575866,-15.10100089527667,-0.6285,-0.7665,-0.0106,-0.1314
214,455223.0,405.19651400000004,1.0,1.96,10.35,-1.73,-13.5,-43.69,-20.87,62.44,63.69,-63.44,0.3921809814964967,0.4113266487931426,-0.8532751622957022,-101.80973815523876,-4.802792327898413,-15.470980940849387,-0.6146,-0.7761,-0.0419,-0.1346
215,455223.0,405.19651400000004,1.0,1.96,10.35,-1.73,-13.5,-43.69,-20.87,62.44,63.69,-63.44,0.3921809814964967,0.4113266487931426,-0.8532751622957022,-101.80973815523876,-4.802792327898413,-15.470980940849387,-0.6146,-0.7761,-0.0419,-0.1346
216,455260.0,405.23632299999997,1.0,1.5,9.36,-2.03,-10.06,-45.19,-20.5,75.87,60.19,-52.25,0.2632099474035968,0.21771533127162532,0.11831574905070676,-103.27503144100895,-7.568544455864769,-15.713868313956251,-0.6018,-0.7841,-0.066,-0.1367
217,455260.0,405.23632299999997,1.0,1.5,9.36,-2.03,-10.06,-45.19,-20.5,75.87,60.19,-52.25,0.2632099474035968,0.21771533127162532,0.11831574905070676,-103.27503144100895,-7.568544455864769,-15.713868313956251,-0.6018,-0.7841,-0.066,-0.1367
218,455297.0,405.25348199999996,1.0,1.28,9.56,-2.07,-6.0,-45.5,-18.5,71.44,67.06,-64.87,0.42144952068048,0.6108102817616041,-0.030330791950978764,-105.17837759673445,-11.155913338134189,-16.13041264048083,-0.5831,-0.7943,-0.0972,-0.1403
219,455297.0,405.25348199999996,1.0,1.28,9.56,-2.07,-6.0,-45.5,-18.5,71.44,67.06,-64.87,0.42144952068048,0.6108102817616041,-0.030330791950978764,-105.17837759673445,-11.155913338134189,-16.13041264048083,-0.5831,-0.7943,-0.0972,-0.1403
220,455329.0,405.295572,1.0,0.81,8.76,-2.37,-6.0,-45.5,-18.5,75.94,65.81,-62.06,0.18683542293128155,0.4688437199591586,0.709624217306354,-106.45140340836085,-14.084359674365961,-16.350341655632345,-0.5685,-0.8009999999999999,-0.1226,-0.1422
221,455329.0,405.295572,1.0,0.81,8.76,-2.37,-6.0,-45.5,-18.5,75.94,65.81,-62.06,0.18683542293128155,0.4688437199591586,0.709624217306354,-106.45140340836085,-14.084359674365961,-16.350341655632345,-0.5685,-0.8009999999999999,-0.1226,-0.1422
222,455364.0,405.350036,1.0,0.51,7.94,-2.84,-3.0,-45.06,-16.06,75.0,70.37,-55.06,0.02056212779301836,0.20668861289441895,1.3611685444404389,-108.05519160220844,-17.787196618044018,-16.871469682269606,-0.5473,-0.8093,-0.1546,-0.1467
223,455364.0,405.350036,1.0,0.51,7.94,-2.84,-3.0,-45.06,-16.06,75.0,70.37,-55.06,0.02056212779301836,0.20668861289441895,1.3611685444404389,-108.05519160220844,-17.787196618044018,-16.871469682269606,-0.5473,-0.8093,-0.1546,-0.1467
224,455399.0,405.415079,1.0,0.82,7.95,-3.16,1.5,-45.06,-14.06,73.69,74.31,-48.31,0.3603003292993636,0.035077677391019524,1.2200643439166878,-109.07590597018145,-20.4250635419962,-17.532071555357696,-0.531,-0.8145,-0.1773,-0.1524
225,455399.0,405.415079,1.0,0.82,7.95,-3.16,1.5,-45.06,-14.06,73.69,74.31,-48.31,0.3603003292993636,0.035077677391019524,1.2200643439166878,-109.07590597018145,-20.4250635419962,-17.532071555357696,-0.531,-0.8145,-0.1773,-0.1524
226,455436.0,405.42868799999997,1.0,0.95,7.41,-3.64,3.69,-45.06,-10.06,67.37,70.25,-51.88,0.4240134576621708,-0.3688818652389427,1.5154294169242366,-110.00958136957878,-24.05720924110893,-18.30932175034793,-0.5101,-0.8192,-0.2084,-0.1591
227,455436.0,405.42868799999997,1.0,0.95,7.41,-3.64,3.69,-45.06,-10.06,67.37,70.25,-51.88,0.4240134576621708,-0.3688818652389427,1.5154294169242366,-110.00958136957878,-24.05720924110893,-18.30932175034793,-0.5101,-0.8192,-0.2084,-0.1591
228,455471.0,405.484883,1.0,0.8,7.43,-4.04,3.69,-45.06,-10.06,63.69,70.31,-41.56,0.25823883576939355,-0.40241582914778906,1.3250302134172642,-110.57101095130196,-26.499953978465857,-18.901528010085144,-0.4948,-0.8220000000000001,-0.2292,-0.1642
229,455471.0,405.484883,1.0,0.8,7.43,-4.04,3.69,-45.06,-10.06,63.69,70.31,-41.56,0.25823883576939355,-0.40241582914778906,1.3250302134172642,-110.57101095130196,-26.499953978465857,-18.901528010085144,-0.4948,-0.8220000000000001,-0.2292,-0.1642
230,455507.0,405.50271499999997,1.0,1.41,6.65,-4.94,6.75,-44.69,-8.75,60.0,74.0,-44.5,0.26536305044941744,-1.4723406448484666,1.537672102038039,-111.01493444523935,-29.796111449943446,-19.83151281371854,-0.4742,-0.8242,-0.2571,-0.1722
231,455507.0,405.50271499999997,1.0,1.41,6.65,-4.94,6.75,-44.69,-8.75,60.0,74.0,-44.5,0.26536305044941744,-1.4723406448484666,1.537672102038039,-111.01493444523935,-29.796111449943446,-19.83151281371854,-0.4742,-0.8242,-0.2571,-0.1722
232,455542.0,405.505915,1.0,1.43,6.51,-5.24,7.88,-44.25,-6.38,52.81,62.69,-39.63,0.15001007798502194,-1.5870917093436714,1.479511422875472,-111.13643927299914,-32.055155405875595,-20.506574164810864,-0.4601,-0.8248,-0.2761,-0.17800000000000002
233,455542.0,405.505915,1.0,1.43,6.51,-5.24,7.88,-44.25,-6.38,52.81,62.69,-39.63,0.15001007798502194,-1.5870917093436714,1.479511422875472,-111.13643927299914,-32.055155405875595,-20.506574164810864,-0.4601,-0.8248,-0.2761,-0.17800000000000002
234,455577.0,405.54787000000005,1.0,1.48,6.28,-5.36,7.88,-44.25,-6.38,44.63,53.75,-29.69,0.1352698199362986,-1.5926261070390062,1.572353177623958,-111.38001462419376,-34.411030131340006,-21.170698001897183,-0.4432,-0.826,-0.2958,-0.1837
235,455577.0,405.54787000000005,1.0,1.48,6.28,-5.36,7.88,-44.25,-6.38,44.63,53.75,-29.69,0.1352698199362986,-1.5926261070390062,1.572353177623958,-111.38001462419376,-34.411030131340006,-21.170698001897183,-0.4432,-0.826,-0.2958,-0.1837
236,455612.0,405.607177,1.0,1.62,6.45,-5.78,8.25,-44.19,-2.25,33.31,48.56,-38.94,0.10487791863853302,-1.7708734347015822,1.1759890809017275,-111.13643927299914,-36.23901092380315,-21.637178319468852,-0.4333,-0.8248,-0.311,-0.1877
237,455612.0,405.607177,1.0,1.62,6.45,-5.78,8.25,-44.19,-2.25,33.31,48.56,-38.94,0.10487791863853302,-1.7708734347015822,1.1759890809017275,-111.13643927299914,-36.23901092380315,-21.637178319468852,-0.4333,-0.8248,-0.311,-0.1877
238,455647.0,405.614459,1.0,1.0,6.45,-5.51,9.0,-43.06,0.06,27.69,33.38,-23.75,-0.10587287140065473,-1.0884042040968476,1.3351231468521156,-110.81284195033062,-38.23421144458892,-21.987276416568136,-0.4229,-0.8232,-0.3275,-0.1907
239,455647.0,405.614459,1.0,1.0,6.45,-5.51,9.0,-43.06,0.06,27.69,33.38,-23.75,-0.10587287140065473,-1.0884042040968476,1.3351231468521156,-110.81284195033062,-38.23421144458892,-21.987276416568136,-0.4229,-0.8232,-0.3275,-0.1907
240,455684.0,405.667811,1.0,1.45,6.47,-5.79,9.0,-43.06,0.06,27.69,32.06,-14.19,0.09016477256481392,-1.4587767525795572,1.126134998001456,-110.79266112612923,-39.19372713365675,-22.314222150985408,-0.4153,-0.8231,-0.3354,-0.1935
241,455684.0,405.667811,1.0,1.45,6.47,-5.79,9.0,-43.06,0.06,27.69,32.06,-14.19,0.09016477256481392,-1.4587767525795572,1.126134998001456,-110.79266112612923,-39.19372713365675,-22.314222150985408,-0.4153,-0.8231,-0.3354,-0.1935
242,455716.0,405.68431499999997,1.0,1.83,6.4,-6.41,10.88,-41.56,0.06,19.62,15.0,-8.75,0.0010564675533408783,-1.9971339809196804,0.7839866046309698,-110.81284195033062,-40.241528009296225,-22.57123707542117,-0.4071,-0.8232,-0.344,-0.1957
243,455716.0,405.68431499999997,1.0,1.83,6.4,-6.41,10.88,-41.56,0.06,19.62,15.0,-8.75,0.0010564675533408783,-1.9971339809196804,0.7839866046309698,-110.81284195033062,-40.241528009296225,-22.57123707542117,-0.4071,-0.8232,-0.344,-0.1957
244,455751.0,405.72602,1.0,1.37,6.79,-6.01,10.5,-42.0,1.37,19.94,10.06,-13.88,0.14499328398019573,-1.2265196420455942,0.7195312863880208,-110.91382347990452,-40.80341749737214,-22.524498571325392,-0.4024,-0.8237,-0.3486,-0.1953
245,455751.0,405.72602,1.0,1.37,6.79,-6.01,10.5,-42.0,1.37,19.94,10.06,-13.88,0.14499328398019573,-1.2265196420455942,0.7195312863880208,-110.91382347990452,-40.80341749737214,-22.524498571325392,-0.4024,-0.8237,-0.3486,-0.1953
246,455788.0,405.743785,1.0,0.74,6.6,-5.95,11.56,-41.06,2.69,11.56,12.94,-15.63,-0.2462913893007945,-0.7819716058406563,0.9275756699126952,-110.79266112612923,-41.67270371214475,-22.407668898888772,-0.3979,-0.8231,-0.3557,-0.1943
247,455788.0,405.743785,1.0,0.74,6.6,-5.95,11.56,-41.06,2.69,11.56,12.94,-15.63,-0.2462913893007945,-0.7819716058406563,0.9275756699126952,-110.79266112612923,-41.67270371214475,-22.407668898888772,-0.3979,-0.8231,-0.3557,-0.1943
248,455823.0,405.823195,1.0,0.62,6.66,-6.23,11.56,-41.06,2.69,12.63,8.5,-5.94,-0.4188390247615672,-0.7647500063851105,0.7076043742724991,-110.77248545181585,-42.22495842729175,-22.407668898888772,-0.3939,-0.823,-0.3602,-0.1943
249,455823.0,405.823195,1.0,0.62,6.66,-6.23,11.56,-41.06,2.69,12.63,8.5,-5.94,-0.4188390247615672,-0.7647500063851105,0.7076043742724991,-110.77248545181585,-42.22495842729175,-22.407668898888772,-0.3939,-0.823,-0.3602,-0.1943
250,455860.0,405.83421699999997,1.0,0.49,6.83,-6.24,11.38,-41.5,3.56,4.56,6.13,-14.56,-0.3940076993896224,-0.5842874380795511,0.5692279503952431,-110.7321495345978,-42.60599837478333,-22.325902171258928,-0.3919,-0.8228,-0.3633,-0.1936
251,455860.0,405.83421699999997,1.0,0.49,6.83,-6.24,11.38,-41.5,3.56,4.56,6.13,-14.56,-0.3940076993896224,-0.5842874380795511,0.5692279503952431,-110.7321495345978,-42.60599837478333,-22.325902171258928,-0.3919,-0.8228,-0.3633,-0.1936
252,455892.0,405.88428700000003,1.0,0.83,6.74,-6.29,12.75,-41.5,4.88,2.94,10.69,-16.5,-0.20820064519722048,-0.8917131527348205,0.595672845290558,-110.51066825702887,-43.16000282883873,-22.349262916740443,-0.3898,-0.8217,-0.3678,-0.1938
253,455892.0,405.88428700000003,1.0,0.83,6.74,-6.29,12.75,-41.5,4.88,2.94,10.69,-16.5,-0.20820064519722048,-0.8917131527348205,0.595672845290558,-110.51066825702887,-43.16000282883873,-22.349262916740443,-0.3898,-0.8217,-0.3678,-0.1938
254,455927.0,405.891325,1.0,0.56,7.37,-6.11,12.75,-41.5,4.88,1.75,8.0,-6.63,0.021283000271502983,-0.3356999258492221,0.22283799257392006,-110.1896107771162,-43.65334169783373,-22.466080778094224,-0.3889,-0.8201,-0.3718,-0.1948
255,455927.0,405.891325,1.0,0.56,7.37,-6.11,12.75,-41.5,4.88,1.75,8.0,-6.63,0.021283000271502983,-0.3356999258492221,0.22283799257392006,-110.1896107771162,-43.65334169783373,-22.466080778094224,-0.3889,-0.8201,-0.3718,-0.1948
256,455962.0,405.950469,1.0,0.84,7.29,-6.43,12.5,-41.5,2.88,-2.13,12.13,-10.88,-0.03413522878874131,-0.740765304035075,0.07809915465343488,-109.90973941260323,-44.0239043163285,-22.629665556706637,-0.3882,-0.8187,-0.3748,-0.1962
257,455962.0,405.950469,1.0,0.84,7.29,-6.43,12.5,-41.5,2.88,-2.13,12.13,-10.88,-0.03413522878874131,-0.740765304035075,0.07809915465343488,-109.90973941260323,-44.0239043163285,-22.629665556706637,-0.3882,-0.8187,-0.3748,-0.1962
258,455997.0,405.96766099999996,1.0,0.95,7.4,-6.6,13.19,-40.69,4.75,4.06,5.63,-1.19,-0.019406452738689902,-0.8479126875061396,-0.11822619388565415,-109.69052239052931,-44.40732869091076,-22.816676842803346,-0.3868,-0.8176,-0.3779,-0.1978
259,455997.0,405.96766099999996,1.0,0.95,7.4,-6.6,13.19,-40.69,4.75,4.06,5.63,-1.19,-0.019406452738689902,-0.8479126875061396,-0.11822619388565415,-109.69052239052931,-44.40732869091076,-22.816676842803346,-0.3868,-0.8176,-0.3779,-0.1978
260,456032.0,406.007027,1.0,0.85,7.19,-6.6,13.19,-40.69,4.75,7.0,2.56,0.31,-0.1553978346421232,-0.7814357987929221,0.0422345231087462,-110.00958136957878,-44.43208368482341,-22.88682192770989,-0.38299999999999995,-0.8192,-0.3781,-0.1984
261,456032.0,406.007027,1.0,0.85,7.19,-6.6,13.19,-40.69,4.75,7.0,2.56,0.31,-0.1553978346421232,-0.7814357987929221,0.0422345231087462,-110.00958136957878,-44.43208368482341,-22.88682192770989,-0.38299999999999995,-0.8192,-0.3781,-0.1984
262,456065.0,406.070229,1.0,0.95,6.98,-6.78,12.5,-40.38,4.75,5.81,4.13,3.19,-0.27804578553838377,-0.915685401196534,0.07651583919934346,-110.47046523443146,-44.37020029186166,-23.050527648721737,-0.3775,-0.8215,-0.3776,-0.1998
263,456065.0,406.070229,1.0,0.95,6.98,-6.78,12.5,-40.38,4.75,5.81,4.13,3.19,-0.27804578553838377,-0.915685401196534,0.07651583919934346,-110.47046523443146,-44.37020029186166,-23.050527648721737,-0.3775,-0.8215,-0.3776,-0.1998
264,456101.0,406.085227,1.0,1.11,7.33,-6.65,13.19,-40.69,4.0,3.56,-3.19,-6.31,0.0832774094273927,-0.8186178341712065,-0.11839053969836222,-110.53077739592041,-44.419705914934724,-23.003749734381753,-0.3768,-0.8218,-0.37799999999999995,-0.1994
265,456101.0,406.085227,1.0,1.11,7.33,-6.65,13.19,-40.69,4.0,3.56,-3.19,-6.31,0.0832774094273927,-0.8186178341712065,-0.11839053969836222,-110.53077739592041,-44.419705914934724,-23.003749734381753,-0.3768,-0.8218,-0.37799999999999995,-0.1994
266,456136.0,406.094088,1.0,0.67,6.89,-6.43,12.75,-40.75,6.19,5.94,-7.69,0.19,-0.21444897507106075,-0.5728662706621686,0.37840860125396425,-110.71198928258144,-44.43208368482341,-22.66472550596455,-0.3763,-0.8227,-0.3781,-0.1965
267,456136.0,406.094088,1.0,0.67,6.89,-6.43,12.75,-40.75,6.19,5.94,-7.69,0.19,-0.21444897507106075,-0.5728662706621686,0.37840860125396425,-110.71198928258144,-44.43208368482341,-22.66472550596455,-0.3763,-0.8227,-0.3781,-0.1965
268,456171.0,406.194953,1.0,0.79,6.96,-6.56,12.75,-40.75,6.19,3.88,-6.63,7.25,-0.16620762781232656,-0.6817697937953464,0.2355024735680065,-110.97447448991244,-44.209367167614204,-22.524498571325392,-0.3758,-0.8240000000000001,-0.3763,-0.1953
269,456171.0,406.194953,1.0,0.79,6.96,-6.56,12.75,-40.75,6.19,3.88,-6.63,7.25,-0.16620762781232656,-0.6817697937953464,0.2355024735680065,-110.97447448991244,-44.209367167614204,-22.524498571325392,-0.3758,-0.8240000000000001,-0.3763,-0.1953
270,456206.0,406.226612,1.0,1.5,6.98,-6.94,12.5,-40.69,5.19,5.13,-14.0,3.5,0.10780883008088292,-1.3683095788163246,-0.054896843810869456,-111.40034681062792,-43.900329831481116,-22.290862814695288,-0.3747,-0.8261,-0.3738,-0.1933
271,456206.0,406.226612,1.0,1.5,6.98,-6.94,12.5,-40.69,5.19,5.13,-14.0,3.5,0.10780883008088292,-1.3683095788163246,-0.054896843810869456,-111.40034681062792,-43.900329831481116,-22.290862814695288,-0.3747,-0.8261,-0.3738,-0.1933
272,456241.0,406.24151,1.0,1.25,6.97,-6.69,12.75,-39.69,4.88,3.0,-22.12,9.44,0.13973200675755293,-1.075380420377785,0.1255585368562091,-111.80810781092319,-43.505251180584146,-21.858883165817787,-0.3755,-0.8281,-0.3706,-0.1896
273,456241.0,406.24151,1.0,1.25,6.97,-6.69,12.75,-39.69,4.88,3.0,-22.12,9.44,0.13973200675755293,-1.075380420377785,0.1255585368562091,-111.80810781092319,-43.505251180584146,-21.858883165817787,-0.3755,-0.8281,-0.3706,-0.1896
274,456275.0,406.261168,1.0,0.67,7.38,-6.47,12.75,-39.69,4.88,5.31,-28.0,13.31,0.1514280227801572,-0.3666981446836619,-0.022734620849997,-112.56817591001142,-42.667502601243356,-21.08910064572278,-0.377,-0.8318,-0.3638,-0.183
275,456275.0,406.261168,1.0,0.67,7.38,-6.47,12.75,-39.69,4.88,5.31,-28.0,13.31,0.1514280227801572,-0.3666981446836619,-0.022734620849997,-112.56817591001142,-42.667502601243356,-21.08910064572278,-0.377,-0.8318,-0.3638,-0.183
276,456310.0,406.30499,1.0,0.92,7.32,-6.79,12.06,-40.75,4.88,2.06,-28.12,8.13,0.1669403128634761,-0.7684677964473292,-0.1890734944632424,-113.06525678920107,-42.12670509670736,-20.471639758994087,-0.3787,-0.8342,-0.3594,-0.1777
277,456310.0,406.30499,1.0,0.92,7.32,-6.79,12.06,-40.75,4.88,2.06,-28.12,8.13,0.1669403128634761,-0.7684677964473292,-0.1890734944632424,-113.06525678920107,-42.12670509670736,-20.471639758994087,-0.3787,-0.8342,-0.3594,-0.1777
278,456347.0,406.322809,1.0,1.62,7.31,-7.07,12.75,-41.5,4.88,10.44,-38.25,22.94,0.6093380476311843,-1.4093394650122804,-0.3760740665780542,-114.23801227723101,-40.97463022944533,-19.447737797457524,-0.3792,-0.8398,-0.35,-0.1689
279,456347.0,406.322809,1.0,1.62,7.31,-7.07,12.75,-41.5,4.88,10.44,-38.25,22.94,0.6093380476311843,-1.4093394650122804,-0.3760740665780542,-114.23801227723101,-40.97463022944533,-19.447737797457524,-0.3792,-0.8398,-0.35,-0.1689
280,456382.0,406.368921,1.0,1.18,7.31,-6.81,12.75,-41.5,4.88,29.5,-49.5,42.69,0.5786421895355138,-0.8536429146512479,-0.2004008638037451,-115.88157571501449,-39.58320288872564,-18.448619433327213,-0.376,-0.8475,-0.3386,-0.1603
281,456382.0,406.368921,1.0,1.18,7.31,-6.81,12.75,-41.5,4.88,29.5,-49.5,42.69,0.5786421895355138,-0.8536429146512479,-0.2004008638037451,-115.88157571501449,-39.58320288872564,-18.448619433327213,-0.376,-0.8475,-0.3386,-0.1603
282,456415.0,406.387848,1.0,0.93,7.62,-6.97,12.06,-40.75,4.38,35.06,-53.81,52.88,0.6341980980060118,-0.3900096161808939,-0.5352978470823864,-118.72304914641389,-37.168649209123814,-16.998909587512788,-0.3693,-0.8604,-0.3187,-0.1478
283,456415.0,406.387848,1.0,0.93,7.62,-6.97,12.06,-40.75,4.38,35.06,-53.81,52.88,0.6341980980060118,-0.3900096161808939,-0.5352978470823864,-118.72304914641389,-37.168649209123814,-16.998909587512788,-0.3693,-0.8604,-0.3187,-0.1478
284,456452.0,406.431391,1.0,2.15,6.62,-8.11,11.69,-41.5,5.38,92.62,-55.5,120.31,0.7846868642527627,-1.8803914890553344,-0.6846508904023612,-122.44600053491276,-34.315074743396394,-16.03782888845279,-0.354,-0.8765,-0.295,-0.1395
285,456452.0,406.431391,1.0,2.15,6.62,-8.11,11.69,-41.5,5.38,92.62,-55.5,120.31,0.7846868642527627,-1.8803914890553344,-0.6846508904023612,-122.44600053491276,-34.315074743396394,-16.03782888845279,-0.354,-0.8765,-0.295,-0.1395
286,456488.0,406.488798,1.0,1.9,6.79,-7.7,8.38,-41.5,5.69,94.12,-88.5,131.56,1.186141058578997,-0.4956836916928191,-0.554405306625041,-129.78141812262746,-28.576466242296,-13.991994191085649,-0.3231,-0.9055,-0.2468,-0.1218
287,456488.0,406.488798,1.0,1.9,6.79,-7.7,8.38,-41.5,5.69,94.12,-88.5,131.56,1.186141058578997,-0.4956836916928191,-0.554405306625041,-129.78141812262746,-28.576466242296,-13.991994191085649,-0.3231,-0.9055,-0.2468,-0.1218
288,456521.0,406.49656,1.0,2.4,6.05,-9.02,8.38,-41.5,5.69,48.81,-85.44,88.44,1.1624704354405089,-1.5553069287179806,-1.1456366491070522,-133.47352940641977,-25.34758912480893,-12.204140573704526,-0.3107,-0.9187,-0.2194,-0.1063
289,456521.0,406.49656,1.0,2.4,6.05,-9.02,8.38,-41.5,5.69,48.81,-85.44,88.44,1.1624704354405089,-1.5553069287179806,-1.1456366491070522,-133.47352940641977,-25.34758912480893,-12.204140573704526,-0.3107,-0.9187,-0.2194,-0.1063
290,456558.0,406.556938,1.0,0.87,5.61,-7.22,5.38,-41.88,7.25,53.75,-153.25,139.44,0.6054454710822147,-0.05013342933191245,0.6421356964043365,-137.87852272532075,-19.796614956633128,-8.41859128124216,-0.3069,-0.9332,-0.1719,-0.0734
291,456558.0,406.556938,1.0,0.87,5.61,-7.22,5.38,-41.88,7.25,53.75,-153.25,139.44,0.6054454710822147,-0.05013342933191245,0.6421356964043365,-137.87852272532075,-19.796614956633128,-8.41859128124216,-0.3069,-0.9332,-0.1719,-0.0734
292,456595.0,406.576973,1.0,0.65,5.89,-7.94,3.06,-42.56,8.56,97.62,-107.87,174.81,0.4406336238479134,0.31059984835665144,-0.08615393739487409,-142.81135091208287,-14.165187015253306,-6.190955481383822,-0.289,-0.9478,-0.1233,-0.054000000000000006
293,456595.0,406.576973,1.0,0.65,5.89,-7.94,3.06,-42.56,8.56,97.62,-107.87,174.81,0.4406336238479134,0.31059984835665144,-0.08615393739487409,-142.81135091208287,-14.165187015253306,-6.190955481383822,-0.289,-0.9478,-0.1233,-0.054000000000000006
294,456628.0,406.618657,1.0,-0.26,6.25,-7.78,3.06,-42.56,8.56,76.81,-106.56,169.31,-0.3844343477476431,1.4484196049675453,-0.06314183570846588,-148.39242814751884,-6.707435672786218,-3.701951248377608,-0.2639,-0.9622,-0.0585,-0.0323
295,456628.0,406.618657,1.0,-0.26,6.25,-7.78,3.06,-42.56,8.56,76.81,-106.56,169.31,-0.3844343477476431,1.4484196049675453,-0.06314183570846588,-148.39242814751884,-6.707435672786218,-3.701951248377608,-0.2639,-0.9622,-0.0585,-0.0323
296,456663.0,406.636667,1.0,0.76,4.17,-9.17,-2.06,-42.06,10.56,120.62,-85.5,166.75,0.4328953577484844,-0.3158806220186283,-0.2813736439985064,-153.71118144535646,0.3093975852894872,-1.8335431812694831,-0.22699999999999998,-0.9738,0.0027,-0.016
297,456663.0,406.636667,1.0,0.76,4.17,-9.17,-2.06,-42.06,10.56,120.62,-85.5,166.75,0.4328953577484844,-0.3158806220186283,-0.2813736439985064,-153.71118144535646,0.3093975852894872,-1.8335431812694831,-0.22699999999999998,-0.9738,0.0027,-0.016
298,456701.0,406.683386,1.0,0.51,3.17,-9.11,-6.38,-40.56,14.19,78.87,-74.69,154.25,0.2889952468957881,-0.6762430563158235,0.1754363134464576,-155.97377873337675,5.284543793645802,-0.6187974261216272,-0.2027,-0.9781,0.0461,-0.0054
299,456701.0,406.683386,1.0,0.51,3.17,-9.11,-6.38,-40.56,14.19,78.87,-74.69,154.25,0.2889952468957881,-0.6762430563158235,0.1754363134464576,-155.97377873337675,5.284543793645802,-0.6187974261216272,-0.2027,-0.9781,0.0461,-0.0054
300,456736.0,406.70055299999996,1.0,0.75,4.05,-9.67,-6.38,-40.56,14.19,50.5,-76.69,135.5,0.4833407968896946,0.4322566470767566,-0.6839856273163907,-155.80916562137492,11.89302513102135,1.1573944243672372,-0.1818,-0.9778,0.1036,0.0101
301,456736.0,406.70055299999996,1.0,0.75,4.05,-9.67,-6.38,-40.56,14.19,50.5,-76.69,135.5,0.4833407968896946,0.4322566470767566,-0.6839856273163907,-155.80916562137492,11.89302513102135,1.1573944243672372,-0.1818,-0.9778,0.1036,0.0101
302,456771.0,406.749894,1.0,-0.65,2.42,-8.9,-8.19,-39.0,15.56,115.87,-102.81,174.94,-0.4711875326934029,-0.6296917362948372,0.5941383649312897,-155.10823234547746,16.940979741891212,2.7733864743736323,-0.1553,-0.9765,0.1473,0.0242
303,456771.0,406.749894,1.0,-0.65,2.42,-8.9,-8.19,-39.0,15.56,115.87,-102.81,174.94,-0.4711875326934029,-0.6296917362948372,0.5941383649312897,-155.10823234547746,16.940979741891212,2.7733864743736323,-0.1553,-0.9765,0.1473,0.0242
304,456808.0,406.809754,1.0,-1.08,2.64,-7.88,-13.0,-36.19,17.69,97.62,-72.62,223.88,-1.1065794524657848,0.20073199324214766,1.5020977193367262,-150.61456567249238,25.735333308776628,4.298191253728037,-0.1157,-0.9673,0.2227,0.0375
305,456808.0,406.809754,1.0,-1.08,2.64,-7.88,-13.0,-36.19,17.69,97.62,-72.62,223.88,-1.1065794524657848,0.20073199324214766,1.5020977193367262,-150.61456567249238,25.735333308776628,4.298191253728037,-0.1157,-0.9673,0.2227,0.0375
306,456843.0,406.817585,1.0,0.64,3.64,-9.34,-15.75,-33.38,21.25,79.37,-34.69,186.06,-0.17890668621367178,1.8701909450584449,-0.060729501501374024,-146.0373496598969,31.792944149622574,4.332593112917143,-0.0947,-0.9564,0.2739,0.0378
307,456843.0,406.817585,1.0,0.64,3.64,-9.34,-15.75,-33.38,21.25,79.37,-34.69,186.06,-0.17890668621367178,1.8701909450584449,-0.060729501501374024,-146.0373496598969,31.792944149622574,4.332593112917143,-0.0947,-0.9564,0.2739,0.0378
308,456878.0,406.873115,1.0,-0.22,1.64,-10.01,-15.75,-33.38,21.25,93.87,-35.19,159.31,-0.09422504613674657,0.158491679887518,-0.3375159109109092,-140.67807487589178,38.367646412161214,4.034456312516312,-0.0641,-0.9417,0.3286,0.0352
309,456878.0,406.873115,1.0,-0.22,1.64,-10.01,-15.75,-33.38,21.25,93.87,-35.19,159.31,-0.09422504613674657,0.158491679887518,-0.3375159109109092,-140.67807487589178,38.367646412161214,4.034456312516312,-0.0641,-0.9417,0.3286,0.0352
310,456912.0,406.881299,1.0,-0.86,1.3,-9.11,-20.19,-28.75,25.25,102.81,-34.75,201.88,-0.702240533982432,-0.09022630847270584,0.5914225233887223,-135.57859793518082,43.99918511445215,3.7478120989556993,-0.0383,-0.9258,0.3746,0.0327
311,456912.0,406.881299,1.0,-0.86,1.3,-9.11,-20.19,-28.75,25.25,102.81,-34.75,201.88,-0.702240533982432,-0.09022630847270584,0.5914225233887223,-135.57859793518082,43.99918511445215,3.7478120989556993,-0.0383,-0.9258,0.3746,0.0327
312,456949.0,406.94672599999996,1.0,0.49,0.38,-9.85,-21.37,-23.5,27.25,92.06,-25.06,153.0,0.4994920039155187,0.7592609194989661,-0.02091483540790584,-128.81789729217328,51.0874785737173,2.910938660030132,-0.0043,-0.9019,0.4312,0.0254
313,456949.0,406.94672599999996,1.0,0.49,0.38,-9.85,-21.37,-23.5,27.25,92.06,-25.06,153.0,0.4994920039155187,0.7592609194989661,-0.02091483540790584,-128.81789729217328,51.0874785737173,2.910938660030132,-0.0043,-0.9019,0.4312,0.0254
314,456986.0,406.965282,1.0,-1.06,0.34,-9.17,-21.37,-23.5,27.25,75.12,-36.25,159.06,-0.6483638756957854,-0.2100725800538593,0.594506178076557,-124.40467458524144,55.49811986129514,2.6473004867786654,0.0168,-0.8846,0.4656,0.0231
315,456986.0,406.965282,1.0,-1.06,0.34,-9.17,-21.37,-23.5,27.25,75.12,-36.25,159.06,-0.6483638756957854,-0.2100725800538593,0.594506178076557,-124.40467458524144,55.49811986129514,2.6473004867786654,0.0168,-0.8846,0.4656,0.0231
316,457019.0,407.01171800000003,1.0,0.65,-0.3,-10.02,-24.69,-18.19,27.75,83.69,-17.81,121.5,0.4130138520073898,1.4085492839044984,-0.13107149302153331,-118.40897537194479,61.261061463678935,2.0742204847835874,0.0464,-0.8590000000000001,0.5095,0.0181
317,457019.0,407.01171800000003,1.0,0.65,-0.3,-10.02,-24.69,-18.19,27.75,83.69,-17.81,121.5,0.4130138520073898,1.4085492839044984,-0.13107149302153331,-118.40897537194479,61.261061463678935,2.0742204847835874,0.0464,-0.8590000000000001,0.5095,0.0181
318,457056.0,407.03216499999996,1.0,-1.2,-0.75,-9.05,-25.37,-13.25,29.37,21.12,-27.5,60.38,-0.0976616208336694,-0.2803490725040645,0.6514948071394091,-115.472556014324,64.0244233467086,2.4295230620087382,0.0596,-0.8456,0.5301,0.0212
319,457056.0,407.03216499999996,1.0,-1.2,-0.75,-9.05,-25.37,-13.25,29.37,21.12,-27.5,60.38,-0.0976616208336694,-0.2803490725040645,0.6514948071394091,-115.472556014324,64.0244233467086,2.4295230620087382,0.0596,-0.8456,0.5301,0.0212
320,457093.0,407.092637,1.0,-1.22,-0.23,-8.97,-25.19,-8.88,31.06,54.75,-35.31,125.31,-0.6137163127749234,0.094365182201855,0.7724567598804359,-112.25913519470078,67.03614692743177,2.7275366438036484,0.0712,-0.8303,0.5522,0.0238
321,457093.0,407.092637,1.0,-1.22,-0.23,-8.97,-25.19,-8.88,31.06,54.75,-35.31,125.31,-0.6137163127749234,0.094365182201855,0.7724567598804359,-112.25913519470078,67.03614692743177,2.7275366438036484,0.0712,-0.8303,0.5522,0.0238
322,457125.0,407.096096,1.0,-0.56,-0.2,-9.71,-25.19,-8.88,31.06,32.38,-15.94,79.87,-0.589223468692077,1.0392644090718106,0.15209432964524616,-108.48549085474319,70.53575900749587,2.7275366438036484,0.0862,-0.8115,0.5774,0.0238
323,457125.0,407.096096,1.0,-0.56,-0.2,-9.71,-25.19,-8.88,31.06,32.38,-15.94,79.87,-0.589223468692077,1.0392644090718106,0.15209432964524616,-108.48549085474319,70.53575900749587,2.7275366438036484,0.0862,-0.8115,0.5774,0.0238
324,457162.0,407.13651400000003,1.0,-2.07,-0.65,-9.11,-24.75,-6.69,30.5,11.88,-14.5,53.31,-0.6129243250633174,-0.5246703694477898,0.4766690367198922,-107.104699496576,71.81805792972114,3.0026424356334624,0.0908,-0.8044,0.5865,0.0262
325,457162.0,407.13651400000003,1.0,-2.07,-0.65,-9.11,-24.75,-6.69,30.5,11.88,-14.5,53.31,-0.6129243250633174,-0.5246703694477898,0.4766690367198922,-107.104699496576,71.81805792972114,3.0026424356334624,0.0908,-0.8044,0.5865,0.0262
326,457199.0,407.202316,1.0,-1.33,-0.6,-9.46,-24.69,-4.75,32.75,35.0,5.0,45.69,-0.5653923524849371,0.3302068823119643,0.2572104927500902,-104.70808777910831,74.06960243697172,2.670224968889185,0.0988,-0.7918,0.6023,0.0233
327,457199.0,407.202316,1.0,-1.33,-0.6,-9.46,-24.69,-4.75,32.75,35.0,5.0,45.69,-0.5653923524849371,0.3302068823119643,0.2572104927500902,-104.70808777910831,74.06960243697172,2.670224968889185,0.0988,-0.7918,0.6023,0.0233
328,457234.0,407.259623,1.0,-2.11,-0.72,-8.99,-24.69,-4.75,32.75,5.56,-12.94,14.38,-0.6505899248795185,-0.471778464461849,0.5792582867304628,-103.9421788631584,74.73137747245855,2.681687249969397,0.1027,-0.7877,0.6069,0.0234
329,457234.0,407.259623,1.0,-2.11,-0.72,-8.99,-24.69,-4.75,32.75,5.56,-12.94,14.38,-0.6505899248795185,-0.471778464461849,0.5792582867304628,-103.9421788631584,74.73137747245855,2.681687249969397,0.1027,-0.7877,0.6069,0.0234
330,457267.0,407.267148,1.0,-2.47,-1.67,-8.86,-24.56,-2.38,32.0,5.19,-0.25,5.25,0.17899042644160104,-1.0409728479343727,0.5182842687690403,-103.64505914352164,75.00557127858174,2.7275366438036484,0.1041,-0.7861,0.6088,0.0238
331,457267.0,407.267148,1.0,-2.47,-1.67,-8.86,-24.56,-2.38,32.0,5.19,-0.25,5.25,0.17899042644160104,-1.0409728479343727,0.5182842687690403,-103.64505914352164,75.00557127858174,2.7275366438036484,0.1041,-0.7861,0.6088,0.0238
332,457302.0,407.285167,1.0,-1.01,-0.47,-9.7,-24.19,-1.69,33.19,20.0,18.0,28.94,-0.6824079859639499,0.7544127159643593,0.09602793986997148,-102.86973660263024,75.83119675698822,2.544141615361497,0.1029,-0.7819,0.6145,0.0222
333,457302.0,407.285167,1.0,-1.01,-0.47,-9.7,-24.19,-1.69,33.19,20.0,18.0,28.94,-0.6824079859639499,0.7544127159643593,0.09602793986997148,-102.86973660263024,75.83119675698822,2.544141615361497,0.1029,-0.7819,0.6145,0.0222
334,457338.0,407.32988,1.0,-1.4,-1.3,-9.52,-24.56,-1.25,32.25,4.0,3.13,-5.38,-0.07548238013506621,0.13419709362349566,0.09806135126468796,-102.46623177403809,76.19477604284661,1.867925133192117,0.1055,-0.7797,0.617,0.0163
335,457338.0,407.32988,1.0,-1.4,-1.3,-9.52,-24.56,-1.25,32.25,4.0,3.13,-5.38,-0.07548238013506621,0.13419709362349566,0.09806135126468796,-102.46623177403809,76.19477604284661,1.867925133192117,0.1055,-0.7797,0.617,0.0163
336,457373.0,407.347079,1.0,-1.93,-1.29,-9.28,-24.56,-1.25,32.25,-11.25,0.63,-9.0,-0.16829381775063584,-0.43721579302695823,0.25217881938331743,-102.79623979019779,75.90384057849288,1.9137679978932431,0.1039,-0.7815,0.615,0.0167
337,457373.0,407.347079,1.0,-1.93,-1.29,-9.28,-24.56,-1.25,32.25,-11.25,0.63,-9.0,-0.16829381775063584,-0.43721579302695823,0.25217881938331743,-102.79623979019779,75.90384057849288,1.9137679978932431,0.1039,-0.7815,0.615,0.0167
338,457410.0,407.39383300000003,1.0,-1.41,-1.1,-9.45,-25.37,-1.25,32.69,19.56,16.06,1.37,-0.2972978808955963,0.07988098698174417,0.19385472505869927,-102.64942299100883,76.06378359355024,1.4438918508267422,0.1035,-0.7807,0.6161,0.0126
339,457410.0,407.39383300000003,1.0,-1.41,-1.1,-9.45,-25.37,-1.25,32.69,19.56,16.06,1.37,-0.2972978808955963,0.07988098698174417,0.19385472505869927,-102.64942299100883,76.06378359355024,1.4438918508267422,0.1035,-0.7807,0.6161,0.0126
340,457445.0,407.411073,1.0,-1.75,-2.01,-9.5,-25.25,-0.88,33.5,-2.69,4.06,-12.88,0.4549427372488478,-0.4649684185687532,-0.03862457593531055,-102.61275550473171,76.10743471714315,1.1573944243672372,0.1036,-0.7805,0.6164,0.0101
341,457445.0,407.411073,1.0,-1.75,-2.01,-9.5,-25.25,-0.88,33.5,-2.69,4.06,-12.88,0.4549427372488478,-0.4649684185687532,-0.03862457593531055,-102.61275550473171,76.10743471714315,1.1573944243672372,0.1036,-0.7805,0.6164,0.0101
342,457478.0,407.46842599999997,1.0,-1.42,-1.34,-9.5,-25.25,-0.88,33.5,-9.94,1.56,-14.31,-0.05845238283110975,-0.04142755788631136,0.10835803304061288,-103.21965750009808,75.56997527074246,1.3178319771025526,0.1002,-0.7838,0.6127,0.0115
343,457478.0,407.46842599999997,1.0,-1.42,-1.34,-9.5,-25.25,-0.88,33.5,-9.94,1.56,-14.31,-0.05845238283110975,-0.04142755788631136,0.10835803304061288,-103.21965750009808,75.56997527074246,1.3178319771025526,0.1002,-0.7838,0.6127,0.0115
344,457515.0,407.510104,1.0,-1.21,-1.43,-9.7,-24.87,-1.25,31.87,6.38,-2.56,2.0,0.053471778465816,0.17353055666710604,-0.07090171663557676,-103.27503144100895,75.526483262398,1.294912175882028,0.1004,-0.7841,0.6124,0.0113
345,457515.0,407.510104,1.0,-1.21,-1.43,-9.7,-24.87,-1.25,31.87,6.38,-2.56,2.0,0.053471778465816,0.17353055666710604,-0.07090171663557676,-103.27503144100895,75.526483262398,1.294912175882028,0.1004,-0.7841,0.6124,0.0113
346,457549.0,407.527835,1.0,-1.76,-1.86,-9.41,-25.69,-1.69,31.87,-4.31,7.81,-8.0,0.3397741374611398,-0.5160665943795256,0.07404866193636295,-103.21965750009808,75.59897705351443,1.1344749665222489,0.1005,-0.7838,0.6129,0.0099
347,457549.0,407.527835,1.0,-1.76,-1.86,-9.41,-25.69,-1.69,31.87,-4.31,7.81,-8.0,0.3397741374611398,-0.5160665943795256,0.07404866193636295,-103.21965750009808,75.59897705351443,1.1344749665222489,0.1005,-0.7838,0.6129,0.0099
348,457584.0,407.577026,1.0,-1.33,-1.68,-9.51,-25.69,-1.69,31.87,-4.75,3.81,-13.5,0.2853152501209878,-0.08060668288131534,0.06275458950203472,-103.58945826629656,75.25133001282822,1.1573944243672372,0.0984,-0.7858,0.6105,0.0101
349,457584.0,407.577026,1.0,-1.33,-1.68,-9.51,-25.69,-1.69,31.87,-4.75,3.81,-13.5,0.2853152501209878,-0.08060668288131534,0.06275458950203472,-103.58945826629656,75.25133001282822,1.1573944243672372,0.0984,-0.7858,0.6105,0.0101
350,457617.0,407.596266,1.0,-1.65,-1.64,-9.44,-25.19,-1.69,31.75,-11.63,3.0,-10.31,0.19831001802752726,-0.43476073476663135,0.09596741635763983,-103.9421788631584,74.96224409700284,1.1573944243672372,0.0957,-0.7877,0.6085,0.0101
351,457617.0,407.596266,1.0,-1.65,-1.64,-9.44,-25.19,-1.69,31.75,-11.63,3.0,-10.31,0.19831001802752726,-0.43476073476663135,0.09596741635763983,-103.9421788631584,74.96224409700284,1.1573944243672372,0.0957,-0.7877,0.6085,0.0101
352,457654.0,407.64729,1.0,-1.99,-1.48,-8.97,-26.37,-3.19,32.19,-7.44,6.75,-1.37,0.014594472916480528,-0.8266352193380171,0.5369217830828337,-104.01661275346248,74.91892947359995,1.1115555540621913,0.0941,-0.7881,0.6082,0.0097
353,457654.0,407.64729,1.0,-1.99,-1.48,-8.97,-26.37,-3.19,32.19,-7.44,6.75,-1.37,0.014594472916480528,-0.8266352193380171,0.5369217830828337,-104.01661275346248,74.91892947359995,1.1115555540621913,0.0941,-0.7881,0.6082,0.0097
354,457691.0,407.66726,1.0,-0.52,-1.51,-10.16,-24.87,-2.38,31.56,-1.56,6.81,-2.06,0.28596979189460275,0.6754114207219883,-0.4519142606985724,-103.96078153770134,75.04891103546538,0.7104722177704716,0.0913,-0.7878,0.6091,0.0062
355,457691.0,407.66726,1.0,-0.52,-1.51,-10.16,-24.87,-2.38,31.56,-1.56,6.81,-2.06,0.28596979189460275,0.6754114207219883,-0.4519142606985724,-103.96078153770134,75.04891103546538,0.7104722177704716,0.0913,-0.7878,0.6091,0.0062
356,457723.0,407.72000099999997,1.0,-1.6,-1.34,-9.24,-24.87,-2.38,31.56,-10.31,-4.25,-5.63,-0.02864032120562088,-0.4564825960454308,0.3449375032313053,-104.16566658300283,74.86119614779109,0.9052827329224428,0.0902,-0.7889,0.6078,0.0079
357,457723.0,407.72000099999997,1.0,-1.6,-1.34,-9.24,-24.87,-2.38,31.56,-10.31,-4.25,-5.63,-0.02864032120562088,-0.4564825960454308,0.3449375032313053,-104.16566658300283,74.86119614779109,0.9052827329224428,0.0902,-0.7889,0.6078,0.0079
358,457760.0,407.78513300000003,1.0,-1.08,-1.24,-9.82,-25.56,-1.69,31.19,3.44,-0.12,4.75,-0.05441529047376957,0.15436381610312444,-0.14873099664903575,-103.79349620326416,75.23686238255408,0.8365258107465946,0.0905,-0.7869,0.6104,0.0073
359,457760.0,407.78513300000003,1.0,-1.08,-1.24,-9.82,-25.56,-1.69,31.19,3.44,-0.12,4.75,-0.05441529047376957,0.15436381610312444,-0.14873099664903575,-103.79349620326416,75.23686238255408,0.8365258107465946,0.0905,-0.7869,0.6104,0.0073
360,457795.0,407.803125,1.0,-1.29,-1.52,-9.65,-26.69,-2.75,31.75,-2.94,-7.13,-1.81,0.18806487903641567,-0.12194487632848072,-0.04458144832209854,-103.73780360335891,75.28026949834307,0.93966131468631,0.0909,-0.7866,0.6107,0.0082
361,457795.0,407.803125,1.0,-1.29,-1.52,-9.65,-26.69,-2.75,31.75,-2.94,-7.13,-1.81,0.18806487903641567,-0.12194487632848072,-0.04458144832209854,-103.73780360335891,75.28026949834307,0.93966131468631,0.0909,-0.7866,0.6107,0.0082
362,457830.0,407.805976,1.0,-1.63,-1.41,-9.34,-26.69,-2.75,31.75,-7.81,-2.88,-4.44,0.07355446173670982,-0.4338694917628466,0.2313198748671841,-103.90498509276027,75.12117195535056,1.3178319771025526,0.0908,-0.7875,0.6096,0.0115
363,457830.0,407.805976,1.0,-1.63,-1.41,-9.34,-26.69,-2.75,31.75,-7.81,-2.88,-4.44,0.07355446173670982,-0.4338694917628466,0.2313198748671841,-103.90498509276027,75.12117195535056,1.3178319771025526,0.0908,-0.7875,0.6096,0.0115
364,457865.0,407.858044,1.0,-0.71,-1.14,-10.24,-26.0,-3.19,31.25,-3.0,8.56,-3.31,-0.01873305238019496,0.6094658484502988,-0.503029939373544,-104.05385291977898,75.00557127858174,1.237612897472461,0.0887,-0.7883,0.6088,0.0108
365,457865.0,407.858044,1.0,-0.71,-1.14,-10.24,-26.0,-3.19,31.25,-3.0,8.56,-3.31,-0.01873305238019496,0.6094658484502988,-0.503029939373544,-104.05385291977898,75.00557127858174,1.237612897472461,0.0887,-0.7883,0.6088,0.0108
366,457902.0,407.87664,1.0,-1.23,-1.45,-9.74,-26.0,-3.88,30.87,1.75,-4.31,-2.88,0.18054371432237676,-0.02284171184965955,-0.115541402276941,-104.09110859790351,74.93336628710402,1.2605325708995527,0.0897,-0.7885,0.6083,0.011000000000000001
367,457902.0,407.87664,1.0,-1.23,-1.45,-9.74,-26.0,-3.88,30.87,1.75,-4.31,-2.88,0.18054371432237676,-0.02284171184965955,-0.115541402276941,-104.09110859790351,74.93336628710402,1.2605325708995527,0.0897,-0.7885,0.6083,0.011000000000000001
368,457934.0,407.929761,1.0,-1.38,-1.56,-9.54,-26.0,-3.88,30.87,-0.44,-5.44,-3.63,0.2689021652675282,-0.20695092346328314,0.047835372147284616,-104.20296893682892,74.81791076036653,1.3522117780748235,0.0903,-0.7891,0.6075,0.0118
369,457934.0,407.929761,1.0,-1.38,-1.56,-9.54,-26.0,-3.88,30.87,-0.44,-5.44,-3.63,0.2689021652675282,-0.20695092346328314,0.047835372147284616,-104.20296893682892,74.81791076036653,1.3522117780748235,0.0903,-0.7891,0.6075,0.0118
370,457969.0,407.949788,1.0,-1.33,-1.33,-9.73,-24.5,-2.75,31.37,-7.31,-0.88,-1.69,0.0767904880585945,-0.06711885818847985,-0.1029563635151156,-104.31496972568995,74.71696010988838,1.5355728478655368,0.0895,-0.7897,0.6068,0.0134
371,457969.0,407.949788,1.0,-1.33,-1.33,-9.73,-24.5,-2.75,31.37,-7.31,-0.88,-1.69,0.0767904880585945,-0.06711885818847985,-0.1029563635151156,-104.31496972568995,74.71696010988838,1.5355728478655368,0.0895,-0.7897,0.6068,0.0134
372,458004.0,407.961173,1.0,-1.38,-1.41,-9.39,-24.87,-2.75,31.37,1.63,7.19,-4.06,0.17420051160284064,-0.20965401162915176,0.21549264662677992,-104.35233464317457,74.71696010988838,1.4782721132478738,0.0885,-0.7899,0.6068,0.0129
373,458004.0,407.961173,1.0,-1.38,-1.41,-9.39,-24.87,-2.75,31.37,1.63,7.19,-4.06,0.17420051160284064,-0.20965401162915176,0.21549264662677992,-104.35233464317457,74.71696010988838,1.4782721132478738,0.0885,-0.7899,0.6068,0.0129
374,458041.0,408.00607,1.0,-1.02,-1.4,-9.81,-24.87,-3.19,31.87,-2.25,0.0,-1.5,0.21229975721789907,0.16133889473017815,-0.1515324935141873,-104.46452369149223,74.61607730658687,1.294912175882028,0.0872,-0.7905,0.6061,0.0113
375,458041.0,408.00607,1.0,-1.02,-1.4,-9.81,-24.87,-3.19,31.87,-2.25,0.0,-1.5,0.21229975721789907,0.16133889473017815,-0.1515324935141873,-104.46452369149223,74.61607730658687,1.294912175882028,0.0872,-0.7905,0.6061,0.0113
376,458074.0,408.074163,1.0,-1.05,-1.21,-9.81,-24.87,-3.19,31.87,-4.13,-0.19,-6.13,0.03463780442886223,0.17740971915096138,-0.13166102421609338,-104.57685468499146,74.50086547711395,1.3522117780748235,0.0867,-0.7911,0.6053,0.0118
377,458074.0,408.074163,1.0,-1.05,-1.21,-9.81,-24.87,-3.19,31.87,-4.13,-0.19,-6.13,0.03463780442886223,0.17740971915096138,-0.13166102421609338,-104.57685468499146,74.50086547711395,1.3522117780748235,0.0867,-0.7911,0.6053,0.0118
378,458110.0,408.094196,1.0,-1.43,-1.49,-9.42,-25.56,-4.25,32.0,3.06,-4.13,-0.56,0.20031566433902406,-0.2864213517685994,0.16926257166282355,-104.59559036293443,74.44329258880299,1.294912175882028,0.08900000000000001,-0.7912,0.6049,0.0113
379,458110.0,408.094196,1.0,-1.43,-1.49,-9.42,-25.56,-4.25,32.0,3.06,-4.13,-0.56,0.20031566433902406,-0.2864213517685994,0.16926257166282355,-104.59559036293443,74.44329258880299,1.294912175882028,0.08900000000000001,-0.7912,0.6049,0.0113
380,458147.0,408.142253,1.0,-1.22,-1.52,-9.63,-25.56,-2.38,31.56,-7.88,-3.38,-13.44,0.28385230498010844,-0.06267881848728196,-0.014307144528762803,-104.65182119248135,74.40012733902506,1.3751317128217122,0.0884,-0.7915,0.6046,0.012
381,458147.0,408.142253,1.0,-1.22,-1.52,-9.63,-25.56,-2.38,31.56,-7.88,-3.38,-13.44,0.28385230498010844,-0.06267881848728196,-0.014307144528762803,-104.65182119248135,74.40012733902506,1.3751317128217122,0.0884,-0.7915,0.6046,0.012
382,458180.0,408.15948199999997,1.0,-1.64,-1.24,-9.28,-25.56,-2.38,31.56,-2.56,0.12,-5.31,-0.03186544319077872,-0.4395739370041936,0.3118430326395316,-105.1029620001446,73.94046239689769,1.6272548279067642,0.0874,-0.7939,0.6014,0.0142
383,458180.0,408.15948199999997,1.0,-1.64,-1.24,-9.28,-25.56,-2.38,31.56,-2.56,0.12,-5.31,-0.03186544319077872,-0.4395739370041936,0.3118430326395316,-105.1029620001446,73.94046239689769,1.6272548279067642,0.0874,-0.7939,0.6014,0.0142
384,458215.0,408.203429,1.0,-0.91,-1.59,-10.14,-25.56,-3.5,31.19,11.5,6.69,9.19,0.3594282705075977,0.2861594340449004,-0.4872668491234205,-104.78316565832016,74.2563321899432,1.2261530793833222,0.08900000000000001,-0.7922,0.6036,0.0107
385,458215.0,408.203429,1.0,-0.91,-1.59,-10.14,-25.56,-3.5,31.19,11.5,6.69,9.19,0.3594282705075977,0.2861594340449004,-0.4872668491234205,-104.78316565832016,74.2563321899432,1.2261530793833222,0.08900000000000001,-0.7922,0.6036,0.0107
386,458252.0,408.220044,1.0,-1.02,-1.96,-9.94,-25.19,-3.5,32.38,2.5,-14.75,0.0,0.686368250944893,0.1141480817145113,-0.3521623734782988,-104.63307361365904,74.3425928628069,1.3407518310456548,0.0917,-0.7914,0.6042,0.0117
387,458252.0,408.220044,1.0,-1.02,-1.96,-9.94,-25.19,-3.5,32.38,2.5,-14.75,0.0,0.686368250944893,0.1141480817145113,-0.3521623734782988,-104.63307361365904,74.3425928628069,1.3407518310456548,0.0917,-0.7914,0.6042,0.0117
388,458287.0,408.307997,1.0,-1.1,-1.33,-9.73,-25.19,-3.5,32.38,-9.31,-19.69,-1.37,0.13598356901505987,0.24600075565034485,-0.07124411247040285,-104.63307361365904,74.29945637663062,1.8908465277120163,0.0933,-0.7914,0.6039,0.0165
389,458287.0,408.307997,1.0,-1.1,-1.33,-9.73,-25.19,-3.5,32.38,-9.31,-19.69,-1.37,0.13598356901505987,0.24600075565034485,-0.07124411247040285,-104.63307361365904,74.29945637663062,1.8908465277120163,0.0933,-0.7914,0.6039,0.0165
390,458319.0,408.32070899999997,1.0,-1.48,-1.29,-9.44,-24.87,-3.19,31.0,-3.63,-10.75,1.12,0.07993907878946492,-0.06951795929914673,0.16523532179964914,-104.63307361365904,74.24196019139418,2.4868320276357756,0.0949,-0.7914,0.6035,0.0217
391,458319.0,408.32070899999997,1.0,-1.48,-1.29,-9.44,-24.87,-3.19,31.0,-3.63,-10.75,1.12,0.07993907878946492,-0.06951795929914673,0.16523532179964914,-104.63307361365904,74.24196019139418,2.4868320276357756,0.0949,-0.7914,0.6035,0.0217
392,458354.0,408.390843,1.0,-1.78,-1.19,-9.44,-24.87,-3.5,31.37,4.81,-12.5,5.06,-0.0925660087910315,-0.2761353602461881,0.1312543596740614,-104.42711160225716,74.38574166511974,2.681687249969397,0.09699999999999999,-0.7903,0.6045,0.0234
393,458354.0,408.390843,1.0,-1.78,-1.19,-9.44,-24.87,-3.5,31.37,4.81,-12.5,5.06,-0.0925660087910315,-0.2761353602461881,0.1312543596740614,-104.42711160225716,74.38574166511974,2.681687249969397,0.09699999999999999,-0.7903,0.6045,0.0234
394,458391.0,408.446166,1.0,-1.84,-1.54,-9.46,-23.69,-3.19,33.0,0.25,-7.19,4.0,0.22106172275103694,-0.34804823455380185,0.055814438820725336,-104.16566658300283,74.57286253577672,2.87655022805785,0.1,-0.7889,0.6058,0.0251
395,458391.0,408.446166,1.0,-1.84,-1.54,-9.46,-23.69,-3.19,33.0,0.25,-7.19,4.0,0.22106172275103694,-0.34804823455380185,0.055814438820725336,-104.16566658300283,74.57286253577672,2.87655022805785,0.1,-0.7889,0.6058,0.0251
396,458426.0,408.46561099999997,1.0,-1.98,-1.34,-9.29,-23.69,-3.19,33.0,4.94,5.31,-1.5,0.0033483314708651897,-0.4584046657785189,0.224898909981599,-104.1843158106976,74.55846036977005,2.888013009772368,0.1003,-0.789,0.6057,0.0252
397,458426.0,408.46561099999997,1.0,-1.98,-1.34,-9.29,-23.69,-3.19,33.0,4.94,5.31,-1.5,0.0033483314708651897,-0.4584046657785189,0.224898909981599,-104.1843158106976,74.55846036977005,2.888013009772368,0.1003,-0.789,0.6057,0.0252
398,458463.0,408.469255,1.0,-1.65,-1.05,-9.41,-22.69,-2.75,31.5,4.94,0.81,-3.38,-0.21781184710297827,-0.061369658455319435,0.1982218369609132,-104.14702125080771,74.57286253577672,2.7504615040371316,0.1005,-0.7888,0.6058,0.024
399,458463.0,408.469255,1.0,-1.65,-1.05,-9.41,-22.69,-2.75,31.5,4.94,0.81,-3.38,-0.21781184710297827,-0.061369658455319435,0.1982218369609132,-104.14702125080771,74.57286253577672,2.7504615040371316,0.1005,-0.7888,0.6058,0.024
400,458498.0,408.51792,1.0,-1.5,-1.75,-9.62,-23.37,-2.0,32.25,2.81,-2.88,0.94,0.4455824013638739,-0.03995763453373502,-0.0754934775577567,-103.97938807566652,74.73137747245855,2.6243761106355543,0.1019,-0.7879,0.6069,0.0229
401,458498.0,408.51792,1.0,-1.5,-1.75,-9.62,-23.37,-2.0,32.25,2.81,-2.88,0.94,0.4455824013638739,-0.03995763453373502,-0.0754934775577567,-103.97938807566652,74.73137747245855,2.6243761106355543,0.1019,-0.7879,0.6069,0.0229
402,458530.0,408.537962,1.0,-1.68,-1.54,-9.41,-23.37,-2.0,32.25,2.25,0.0,1.88,0.2027356566371468,-0.1729498124430412,0.12826756201461895,-103.83064378585505,74.84676629523163,2.6473004867786654,0.1034,-0.7871,0.6077,0.0231
403,458530.0,408.537962,1.0,-1.68,-1.54,-9.41,-23.37,-2.0,32.25,2.25,0.0,1.88,0.2027356566371468,-0.1729498124430412,0.12826756201461895,-103.83064378585505,74.84676629523163,2.6473004867786654,0.1034,-0.7871,0.6077,0.0231
404,458565.0,408.541339,1.0,-1.89,-1.34,-9.42,-23.69,-2.75,32.25,3.0,6.25,2.75,-0.05254317040980222,-0.32500849386573216,0.1115115948941483,-103.71924706500204,74.96224409700284,2.589989743099661,0.1036,-0.7865,0.6085,0.0226
405,458565.0,408.541339,1.0,-1.89,-1.34,-9.42,-23.69,-2.75,32.25,3.0,6.25,2.75,-0.05254317040980222,-0.32500849386573216,0.1115115948941483,-103.71924706500204,74.96224409700284,2.589989743099661,0.1036,-0.7865,0.6085,0.0226
406,458602.0,408.592571,1.0,-1.66,-1.62,-9.39,-23.37,-3.19,32.19,-2.94,5.56,-4.94,0.2547946615593225,-0.20910702139957604,0.14003456676576853,-103.79349620326416,74.90449405354882,2.372214704126748,0.1031,-0.7869,0.6081,0.0207
407,458602.0,408.592571,1.0,-1.66,-1.62,-9.39,-23.37,-3.19,32.19,-2.94,5.56,-4.94,0.2547946615593225,-0.20910702139957604,0.14003456676576853,-103.79349620326416,74.90449405354882,2.372214704126748,0.1031,-0.7869,0.6081,0.0207
408,458635.0,408.611687,1.0,-1.55,-1.69,-9.63,-23.37,-3.19,32.19,1.06,5.69,-2.75,0.3212605431665401,-0.1041022203627484,-0.08685566741233153,-103.9421788631584,74.77463787425259,2.2575997541901875,0.1022,-0.7877,0.6072,0.0197
409,458635.0,408.611687,1.0,-1.55,-1.69,-9.63,-23.37,-3.19,32.19,1.06,5.69,-2.75,0.3212605431665401,-0.1041022203627484,-0.08685566741233153,-103.9421788631584,74.77463787425259,2.2575997541901875,0.1022,-0.7877,0.6072,0.0197
410,458670.0,408.674979,1.0,-1.4,-1.31,-9.74,-24.5,-3.88,31.69,-3.56,2.38,-0.69,-0.025397255839166855,0.13262408833398032,-0.11934948773872912,-103.9421788631584,74.78906078163884,2.142987063023817,0.1018,-0.7877,0.6073,0.0187
411,458670.0,408.674979,1.0,-1.4,-1.31,-9.74,-24.5,-3.88,31.69,-3.56,2.38,-0.69,-0.025397255839166855,0.13262408833398032,-0.11934948773872912,-103.9421788631584,74.78906078163884,2.142987063023817,0.1018,-0.7877,0.6073,0.0187
412,458704.0,408.72416400000003,1.0,-1.42,-1.62,-9.63,-23.0,-3.19,30.87,5.25,0.75,2.06,0.2412438077772378,0.02571660589565161,-0.05838117488183059,-103.77492816963002,74.93336628710402,1.9825328715837252,0.1032,-0.7868,0.6083,0.0173
413,458704.0,408.72416400000003,1.0,-1.42,-1.62,-9.63,-23.0,-3.19,30.87,5.25,0.75,2.06,0.2412438077772378,0.02571660589565161,-0.05838117488183059,-103.77492816963002,74.93336628710402,1.9825328715837252,0.1032,-0.7868,0.6083,0.0173
414,458741.0,408.743069,1.0,-1.42,-1.48,-9.74,-26.0,-2.38,32.25,-1.5,0.94,-4.81,0.102115174315089,0.07405214965017881,-0.14616310837829438,-103.79349620326416,74.91892947359995,1.9939937526124858,0.1028,-0.7869,0.6082,0.0174
415,458741.0,408.743069,1.0,-1.42,-1.48,-9.74,-26.0,-2.38,32.25,-1.5,0.94,-4.81,0.102115174315089,0.07405214965017881,-0.14616310837829438,-103.79349620326416,74.91892947359995,1.9939937526124858,0.1028,-0.7869,0.6082,0.0174
416,458774.0,408.74642,1.0,-1.48,-1.71,-9.66,-26.0,-2.38,32.25,1.88,-1.37,-3.25,0.3052078905435041,-0.04315761030412668,-0.10975487093093683,-103.88639399112431,74.81791076036653,1.9939937526124858,0.1035,-0.7874,0.6075,0.0174
417,458774.0,408.74642,1.0,-1.48,-1.71,-9.66,-26.0,-2.38,32.25,1.88,-1.37,-3.25,0.3052078905435041,-0.04315761030412668,-0.10975487093093683,-103.88639399112431,74.81791076036653,1.9939937526124858,0.1035,-0.7874,0.6075,0.0174
418,458811.0,408.789858,1.0,-1.92,-1.6,-9.03,-24.5,-2.75,31.87,4.06,7.63,1.69,0.13784055952587526,-0.5612316525323521,0.4550020696967341,-103.86780674134882,74.83233783296691,1.9137679978932431,0.1034,-0.7873,0.6076,0.0167
419,458811.0,408.789858,1.0,-1.92,-1.6,-9.03,-24.5,-2.75,31.87,4.06,7.63,1.69,0.13784055952587526,-0.5612316525323521,0.4550020696967341,-103.86780674134882,74.83233783296691,1.9137679978932431,0.1034,-0.7873,0.6076,0.0167
420,458846.0,408.852835,1.0,-1.22,-1.6,-9.76,-24.06,-3.5,32.69,-1.88,3.88,-2.94,0.24493617156093644,0.206930380954507,-0.15342962263852122,-103.92358004914206,74.8034850768004,1.7877008349543104,0.1022,-0.7876,0.6074,0.0156
421,458846.0,408.852835,1.0,-1.22,-1.6,-9.76,-24.06,-3.5,32.69,-1.88,3.88,-2.94,0.24493617156093644,0.206930380954507,-0.15342962263852122,-103.92358004914206,74.8034850768004,1.7877008349543104,0.1022,-0.7876,0.6074,0.0156
422,458878.0,408.85996600000004,1.0,-1.49,-1.76,-9.48,-24.06,-3.5,32.69,0.94,3.44,-1.0,0.3480744718885781,-0.15291591090263312,0.05762128498370522,-103.96078153770134,74.77463787425259,1.707477412974553,0.1019,-0.7878,0.6072,0.0149
423,458878.0,408.85996600000004,1.0,-1.49,-1.76,-9.48,-24.06,-3.5,32.69,0.94,3.44,-1.0,0.3480744718885781,-0.15291591090263312,0.05762128498370522,-103.96078153770134,74.77463787425259,1.707477412974553,0.1019,-0.7878,0.6072,0.0149
424,458915.0,408.924182,1.0,-1.47,-1.74,-9.63,-24.06,-2.75,31.37,0.44,5.56,-0.19,0.3112968900344825,-0.12073506293887905,-0.08344187474171072,-103.96078153770134,74.78906078163884,1.6043342375287626,0.1014,-0.7878,0.6073,0.013999999999999999
425,458915.0,408.924182,1.0,-1.47,-1.74,-9.63,-24.06,-2.75,31.37,0.44,5.56,-0.19,0.3112968900344825,-0.12073506293887905,-0.08344187474171072,-103.96078153770134,74.78906078163884,1.6043342375287626,0.1014,-0.7878,0.6073,0.013999999999999999
