,TIME,ELAPSED_SECONDS,PSTATE,acc_x,acc_y,acc_z,mag_x,mag_y,mag_z,gyr_x,gyr_y,gyr_z,lin_x,lin_y,lin_z,eul_x,eul_y,eul_z,qua_w,qua_x,qua_y,qua_z
0,891895.0,729.875693,1.0,2.13,2.91,9.16,12.69,-19.5,-38.69,-0.5,0.5,0.94,0.017475010123817192,-0.016638588225641904,-0.037638586861065804,-20.4134200209308,-6.856665996646211,-106.24110823664705,-0.5702,-0.1772,-0.0598,-0.7999
1,891895.0,729.875693,1.0,2.13,2.91,9.16,12.69,-19.5,-38.69,-0.5,0.5,0.94,0.017475010123817192,-0.016638588225641904,-0.037638586861065804,-20.4134200209308,-6.856665996646211,-106.24110823664705,-0.5702,-0.1772,-0.0598,-0.7999
2,891930.0,729.879188,1.0,2.08,2.94,9.11,13.38,-19.75,-38.69,-1.25,0.31,1.37,-0.018853796020456504,0.04142686562500741,0.010731036003814864,-20.401776712875193,-6.810747745686069,-106.27930542410908,-0.5699,-0.1771,-0.0594,-0.8001
3,891930.0,729.879188,1.0,2.08,2.94,9.11,13.38,-19.75,-38.69,-1.25,0.31,1.37,-0.018853796020456504,0.04142686562500741,0.010731036003814864,-20.401776712875193,-6.810747745686069,-106.27930542410908,-0.5699,-0.1771,-0.0594,-0.8001
4,891967.0,729.887842,1.0,2.25,2.93,9.05,13.75,-19.5,-39.5,-1.12,1.56,2.25,-0.08915258693360734,-0.13054741322539146,0.03296547525994775,-20.343563363128432,-6.810747745686069,-106.37487278289608,-0.5695,-0.1766,-0.0594,-0.8006
5,891967.0,729.887842,1.0,2.25,2.93,9.05,13.75,-19.5,-39.5,-1.12,1.56,2.25,-0.08915258693360734,-0.13054741322539146,0.03296547525994775,-20.343563363128432,-6.810747745686069,-106.37487278289608,-0.5695,-0.1766,-0.0594,-0.8006
6,892002.0,729.908909,1.0,2.27,3.01,9.1,13.75,-19.5,-39.5,0.0,0.19,2.56,-0.15502477840636592,-0.11305862616146856,-0.04150642976544994,-20.320279509683687,-6.78778903124712,-106.45140340836085,-0.569,-0.1764,-0.0592,-0.8009999999999999
7,892002.0,729.908909,1.0,2.27,3.01,9.1,13.75,-19.5,-39.5,0.0,0.19,2.56,-0.15502477840636592,-0.11305862616146856,-0.04150642976544994,-20.320279509683687,-6.78778903124712,-106.45140340836085,-0.569,-0.1764,-0.0592,-0.8009999999999999
8,892035.0,729.912909,1.0,2.19,3.05,9.08,13.75,-19.75,-39.5,-0.06,-1.44,1.31,-0.17354449237096076,-0.016431479613047806,-0.017535071325022855,-20.355205608113067,-6.7533514707706495,-106.5088462839978,-0.5685,-0.1767,-0.0589,-0.8013
9,892035.0,729.912909,1.0,2.19,3.05,9.08,13.75,-19.75,-39.5,-0.06,-1.44,1.31,-0.17354449237096076,-0.016431479613047806,-0.017535071325022855,-20.355205608113067,-6.7533514707706495,-106.5088462839978,-0.5685,-0.1767,-0.0589,-0.8013
10,892069.0,729.916959,1.0,2.23,3.03,9.27,13.0,-19.5,-37.5,1.37,-1.44,-0.5,-0.09546345099577236,-0.033888819609871224,-0.19717118379919008,-20.401776712875193,-6.7418724197947295,-106.5088462839978,-0.5684,-0.1771,-0.0588,-0.8013
11,892069.0,729.916959,1.0,2.23,3.03,9.27,13.0,-19.5,-37.5,1.37,-1.44,-0.5,-0.09546345099577236,-0.033888819609871224,-0.19717118379919008,-20.401776712875193,-6.7418724197947295,-106.5088462839978,-0.5684,-0.1771,-0.0588,-0.8013
12,892106.0,729.98112,1.0,2.43,3.05,9.09,13.38,-19.06,-38.25,1.12,-4.5,-2.75,-0.21529149661916352,-0.22302884962603,-0.07967427668230975,-20.52986483879688,-6.7418724197947295,-106.39399903423677,-0.5689,-0.1782,-0.0588,-0.8007
13,892106.0,729.98112,1.0,2.43,3.05,9.09,13.38,-19.06,-38.25,1.12,-4.5,-2.75,-0.21529149661916352,-0.22302884962603,-0.07967427668230975,-20.52986483879688,-6.7418724197947295,-106.39399903423677,-0.5689,-0.1782,-0.0588,-0.8007
14,892141.0,730.031216,1.0,2.82,3.46,8.98,13.38,-19.06,-38.25,-0.69,-10.56,-9.75,-0.7115706818046221,-0.4341359343571327,-0.18682753063447244,-20.716221183013424,-6.638563994932457,-106.1456894229273,-0.5704,-0.1798,-0.0579,-0.7994
15,892141.0,730.031216,1.0,2.82,3.46,8.98,13.38,-19.06,-38.25,-0.69,-10.56,-9.75,-0.7115706818046221,-0.4341359343571327,-0.18682753063447244,-20.716221183013424,-6.638563994932457,-106.1456894229273,-0.5704,-0.1798,-0.0579,-0.7994
16,892178.0,730.0512980000001,1.0,2.79,3.58,9.38,13.0,-19.56,-37.0,5.44,-26.12,-18.44,-0.5837248128416843,-0.2415507035482767,-0.5945912048028337,-21.403893300909647,-6.3631010384043885,-105.29162283128352,-0.575,-0.1857,-0.0555,-0.7949
17,892178.0,730.0512980000001,1.0,2.79,3.58,9.38,13.0,-19.56,-37.0,5.44,-26.12,-18.44,-0.5837248128416843,-0.2415507035482767,-0.5945912048028337,-21.403893300909647,-6.3631010384043885,-105.29162283128352,-0.575,-0.1857,-0.0555,-0.7949
18,892213.0,730.09362,1.0,4.37,3.38,8.8,12.25,-19.19,-38.69,14.56,-30.5,-2.25,-0.9235661455362424,-1.7724107764620731,-0.3897653315908247,-22.197434839762675,-6.190955481383822,-104.72685126814748,-0.5770000000000001,-0.1925,-0.054000000000000006,-0.7919
19,892213.0,730.09362,1.0,4.37,3.38,8.8,12.25,-19.19,-38.69,14.56,-30.5,-2.25,-0.9235661455362424,-1.7724107764620731,-0.3897653315908247,-22.197434839762675,-6.190955481383822,-104.72685126814748,-0.5770000000000001,-0.1925,-0.054000000000000006,-0.7919
20,892246.0,730.100584,1.0,6.21,2.31,9.04,12.25,-19.19,-38.69,32.06,-62.44,61.44,-0.13181341560370494,-3.451326287702462,-0.8560312800196215,-24.54952511022461,-5.800810045139373,-105.36720117412769,-0.5653,-0.2126,-0.0506,-0.7953
21,892246.0,730.100584,1.0,6.21,2.31,9.04,12.25,-19.19,-38.69,32.06,-62.44,61.44,-0.13181341560370494,-3.451326287702462,-0.8560312800196215,-24.54952511022461,-5.800810045139373,-105.36720117412769,-0.5653,-0.2126,-0.0506,-0.7953
22,892280.0,730.1185230000001,1.0,7.69,5.71,8.0,12.69,-19.56,-37.5,15.06,-127.44,62.06,-3.7348818074713392,-3.0530597906440495,-1.7028975062650566,-27.43088596976693,-4.080321683767285,-106.03132620370606,-0.5519,-0.2371,-0.0356,-0.7988
23,892280.0,730.1185230000001,1.0,7.69,5.71,8.0,12.69,-19.56,-37.5,15.06,-127.44,62.06,-3.7348818074713392,-3.0530597906440495,-1.7028975062650566,-27.43088596976693,-4.080321683767285,-106.03132620370606,-0.5519,-0.2371,-0.0356,-0.7988
24,892317.0,730.1621240000001,1.0,9.07,6.66,9.5,7.75,-20.69,-38.69,33.81,-194.69,-3.44,-3.4200460115744615,-2.2515940158606025,-4.339165977399622,-33.668020251284275,-1.0657168616283692,-103.88639399112431,-0.5442,-0.2896,-0.0093,-0.7874
25,892317.0,730.1621240000001,1.0,9.07,6.66,9.5,7.75,-20.69,-38.69,33.81,-194.69,-3.44,-3.4200460115744615,-2.2515940158606025,-4.339165977399622,-33.668020251284275,-1.0657168616283692,-103.88639399112431,-0.5442,-0.2896,-0.0093,-0.7874
26,892352.0,730.2220990000001,1.0,10.75,8.12,9.43,7.75,-20.69,-38.69,60.44,-242.81,-40.31,-3.864559175129152,-1.984235904280586,-6.05367125330659,-39.85124375899717,1.1115555540621913,-99.86737745872108,-0.5459,-0.3408,0.0097,-0.7653
27,892352.0,730.2220990000001,1.0,10.75,8.12,9.43,7.75,-20.69,-38.69,60.44,-242.81,-40.31,-3.864559175129152,-1.984235904280586,-6.05367125330659,-39.85124375899717,1.1115555540621913,-99.86737745872108,-0.5459,-0.3408,0.0097,-0.7653
28,892387.0,730.239045,1.0,9.49,6.49,10.47,0.69,-20.69,-39.06,144.75,-300.25,-49.81,0.6372413122794743,0.7649285944025555,-5.711401029539433,-51.18910455675295,3.014105541619682,-92.0759410724168,-0.5427,-0.43200000000000005,0.0263,-0.7198
29,892387.0,730.239045,1.0,9.49,6.49,10.47,0.69,-20.69,-39.06,144.75,-300.25,-49.81,0.6372413122794743,0.7649285944025555,-5.711401029539433,-51.18910455675295,3.014105541619682,-92.0759410724168,-0.5427,-0.43200000000000005,0.0263,-0.7198
30,892422.0,730.288769,1.0,11.84,5.24,11.53,-6.75,-22.19,-37.06,271.0,-239.13,106.56,4.921461539803897,1.5763236604007682,-6.742625513746562,-64.0244233467086,3.805139007503523,-86.56562406837946,-0.4978,-0.5301,0.0332,-0.6856
31,892422.0,730.288769,1.0,11.84,5.24,11.53,-6.75,-22.19,-37.06,271.0,-239.13,106.56,4.921461539803897,1.5763236604007682,-6.742625513746562,-64.0244233467086,3.805139007503523,-86.56562406837946,-0.4978,-0.5301,0.0332,-0.6856
32,892461.0,730.310024,1.0,7.32,2.18,6.26,-17.06,-26.56,-30.25,161.5,-235.5,-72.69,4.2018327590129285,0.8512510269341677,0.9104500722539208,-71.64837292642449,5.284543793645802,-79.47928409235018,-0.4965,-0.5853,0.0461,-0.6393
33,892461.0,730.310024,1.0,7.32,2.18,6.26,-17.06,-26.56,-30.25,161.5,-235.5,-72.69,4.2018327590129285,0.8512510269341677,0.9104500722539208,-71.64837292642449,5.284543793645802,-79.47928409235018,-0.4965,-0.5853,0.0461,-0.6393
34,892493.0,730.3574269999999,1.0,12.3,8.43,4.29,-17.06,-26.56,-30.25,36.94,-299.31,-65.12,1.7585295019449843,1.574313022009528,-5.529194042618596,-82.23418197710798,7.086273935339353,-69.72374829540703,-0.4868,-0.6576,0.0618,-0.5716
35,892493.0,730.3574269999999,1.0,12.3,8.43,4.29,-17.06,-26.56,-30.25,36.94,-299.31,-65.12,1.7585295019449843,1.574313022009528,-5.529194042618596,-82.23418197710798,7.086273935339353,-69.72374829540703,-0.4868,-0.6576,0.0618,-0.5716
36,892530.0,730.374855,1.0,5.8,7.5,2.97,-23.5,-28.06,-22.19,127.94,-290.25,-112.06,0.3409821661975632,3.955990815656243,0.6992481845106528,-90.94271968197992,7.8212153932673,-60.90182687258211,-0.4799,-0.7129,0.0682,-0.5068
37,892530.0,730.374855,1.0,5.8,7.5,2.97,-23.5,-28.06,-22.19,127.94,-290.25,-112.06,0.3409821661975632,3.955990815656243,0.6992481845106528,-90.94271968197992,7.8212153932673,-60.90182687258211,-0.4799,-0.7129,0.0682,-0.5068
38,892567.0,730.4352349999999,1.0,5.62,7.7,2.53,-27.69,-30.69,-14.25,100.5,-187.06,-116.06,1.2996443300708551,4.515059054997059,1.1348297559449083,-100.97755856330471,6.17947961245989,-51.634227840640925,-0.4608,-0.7715,0.0539,-0.4355
39,892567.0,730.4352349999999,1.0,5.62,7.7,2.53,-27.69,-30.69,-14.25,100.5,-187.06,-116.06,1.2996443300708551,4.515059054997059,1.1348297559449083,-100.97755856330471,6.17947961245989,-51.634227840640925,-0.4608,-0.7715,0.0539,-0.4355
40,892604.0,730.438632,1.0,5.89,9.02,-2.18,-27.69,-30.69,-14.25,155.69,-98.81,-100.0,-1.0235328058602078,2.02143595017767,-0.9483989210722434,-106.33663306993485,3.7592774051414257,-47.131352218600796,-0.4454,-0.8004,0.0328,-0.3998
41,892604.0,730.438632,1.0,5.89,9.02,-2.18,-27.69,-30.69,-14.25,155.69,-98.81,-100.0,-1.0235328058602078,2.02143595017767,-0.9483989210722434,-106.33663306993485,3.7592774051414257,-47.131352218600796,-0.4454,-0.8004,0.0328,-0.3998
42,892639.0,730.480056,1.0,4.66,6.74,-2.52,-26.69,-33.56,-6.06,174.0,-100.31,-74.5,-0.07900192928897952,1.4574305018504408,1.3589725068990344,-114.23801227723101,0.3323159869732291,-42.286383276048326,-0.4057,-0.8398,0.0029,-0.3607
43,892639.0,730.480056,1.0,4.66,6.74,-2.52,-26.69,-33.56,-6.06,174.0,-100.31,-74.5,-0.07900192928897952,1.4574305018504408,1.3589725068990344,-114.23801227723101,0.3323159869732291,-42.286383276048326,-0.4057,-0.8398,0.0029,-0.3607
44,892674.0,730.545192,1.0,3.94,7.95,-4.64,-24.06,-34.75,2.38,133.56,-98.69,-88.75,-1.1198247340802283,1.6166395074077502,-0.011097667771389652,-120.68528037991206,-2.9224015288032215,-37.446822845384496,-0.3757,-0.8690000000000001,-0.0255,-0.321
45,892674.0,730.545192,1.0,3.94,7.95,-4.64,-24.06,-34.75,2.38,133.56,-98.69,-88.75,-1.1198247340802283,1.6166395074077502,-0.011097667771389652,-120.68528037991206,-2.9224015288032215,-37.446822845384496,-0.3757,-0.8690000000000001,-0.0255,-0.321
46,892710.0,730.562057,1.0,3.13,7.85,-4.89,-20.0,-35.06,8.75,200.44,-106.75,-56.13,-1.0240917596798609,2.262231777142301,0.3639256338944517,-126.45446035214495,-5.123950007684243,-33.751834870470574,-0.3415,-0.8928,-0.0447,-0.2903
47,892710.0,730.562057,1.0,3.13,7.85,-4.89,-20.0,-35.06,8.75,200.44,-106.75,-56.13,-1.0240917596798609,2.262231777142301,0.3639256338944517,-126.45446035214495,-5.123950007684243,-33.751834870470574,-0.3415,-0.8928,-0.0447,-0.2903
48,892743.0,730.60497,1.0,3.33,5.68,-5.94,-20.0,-35.06,8.75,251.06,-115.87,-44.75,-0.0697936864489534,1.0895185564777887,1.0064807881937623,-136.06616582647524,-7.890132207309978,-28.422768181257144,-0.2736,-0.9274,-0.0688,-0.2455
49,892743.0,730.60497,1.0,3.33,5.68,-5.94,-20.0,-35.06,8.75,251.06,-115.87,-44.75,-0.0697936864489534,1.0895185564777887,1.0064807881937623,-136.06616582647524,-7.890132207309978,-28.422768181257144,-0.2736,-0.9274,-0.0688,-0.2455
50,892780.0,730.671271,1.0,2.17,2.58,-5.38,-16.69,-34.88,16.5,261.31,-144.06,-29.62,-0.15805823370890898,-0.23907759881229884,3.464130035782073,-144.05324557319378,-9.591048446078224,-23.729249451725817,-0.2144,-0.9512,-0.0836,-0.2056
51,892780.0,730.671271,1.0,2.17,2.58,-5.38,-16.69,-34.88,16.5,261.31,-144.06,-29.62,-0.15805823370890898,-0.23907759881229884,3.464130035782073,-144.05324557319378,-9.591048446078224,-23.729249451725817,-0.2144,-0.9512,-0.0836,-0.2056
52,892817.0,730.688997,1.0,1.98,2.64,-5.43,-12.25,-31.56,23.87,247.88,-165.0,-22.5,0.5797338276576172,0.6714950684206623,3.5147581492005777,-154.01525359440276,-11.213483126166134,-16.55875139620892,-0.1423,-0.9744,-0.0977,-0.14400000000000002
53,892817.0,730.688997,1.0,1.98,2.64,-5.43,-12.25,-31.56,23.87,247.88,-165.0,-22.5,0.5797338276576172,0.6714950684206623,3.5147581492005777,-154.01525359440276,-11.213483126166134,-16.55875139620892,-0.1423,-0.9744,-0.0977,-0.14400000000000002
54,892852.0,730.728513,1.0,1.35,0.51,-6.33,-12.25,-31.56,23.87,228.94,-158.0,-34.13,0.06765772700560402,-0.7887585745539895,3.3626774408526536,-160.52975543717122,-12.319391311580373,-11.086833319532733,-0.0883,-0.9856,-0.1073,-0.0966
55,892852.0,730.728513,1.0,1.35,0.51,-6.33,-12.25,-31.56,23.87,228.94,-158.0,-34.13,0.06765772700560402,-0.7887585745539895,3.3626774408526536,-160.52975543717122,-12.319391311580373,-11.086833319532733,-0.0883,-0.9856,-0.1073,-0.0966
56,892887.0,730.745726,1.0,1.43,-0.41,-7.42,-8.19,-25.25,30.87,154.88,-162.44,-52.81,0.703812773545064,-1.2121970329501641,2.3699419962458093,-164.61437509688025,-14.24602144035678,-4.000057708800217,-0.0357,-0.991,-0.124,-0.0349
57,892887.0,730.745726,1.0,1.43,-0.41,-7.42,-8.19,-25.25,30.87,154.88,-162.44,-52.81,0.703812773545064,-1.2121970329501641,2.3699419962458093,-164.61437509688025,-14.24602144035678,-4.000057708800217,-0.0357,-0.991,-0.124,-0.0349
58,892923.0,730.795359,1.0,-0.41,-0.07,-7.08,-2.5,-19.75,36.25,95.56,-175.63,-57.5,-0.030930022746630637,-0.12259895310340604,2.7155701929190768,-163.30044367130742,-16.361918539628213,3.254837913384077,-0.0081,-0.9894,-0.1423,0.0284
59,892923.0,730.795359,1.0,-0.41,-0.07,-7.08,-2.5,-19.75,36.25,95.56,-175.63,-57.5,-0.030930022746630637,-0.12259895310340604,2.7155701929190768,-163.30044367130742,-16.361918539628213,3.254837913384077,-0.0081,-0.9894,-0.1423,0.0284
60,892960.0,730.813709,1.0,-2.52,0.71,-6.71,3.88,-14.88,37.56,58.88,-154.94,-71.44,-1.1892235434745075,1.3296649699213696,2.8283738209275526,-159.9290177639615,-18.251289114029838,8.269226458088282,0.0016,-0.9847,-0.1586,0.0721
61,892960.0,730.813709,1.0,-2.52,0.71,-6.71,3.88,-14.88,37.56,58.88,-154.94,-71.44,-1.1892235434745075,1.3296649699213696,2.8283738209275526,-159.9290177639615,-18.251289114029838,8.269226458088282,0.0016,-0.9847,-0.1586,0.0721
62,892993.0,730.856547,1.0,-1.4,-1.02,-7.76,3.88,-14.88,37.56,73.87,-108.69,-75.19,0.1775498367092882,-0.4589010577853644,1.8709152593066087,-155.05511767406654,-20.867676487915002,13.230321745568984,0.0208,-0.9764,-0.1811,0.1152
63,892993.0,730.856547,1.0,-1.4,-1.02,-7.76,3.88,-14.88,37.56,73.87,-108.69,-75.19,0.1775498367092882,-0.4589010577853644,1.8709152593066087,-155.05511767406654,-20.867676487915002,13.230321745568984,0.0208,-0.9764,-0.1811,0.1152
64,893030.0,730.913596,1.0,-1.64,-2.97,-7.54,11.0,-12.25,36.0,62.56,-111.44,-63.88,-0.3331280052610773,-2.0075856787744013,1.7928665318439805,-151.5321813460659,-22.617979384064764,16.581911426258042,0.0351,-0.9693,-0.1961,0.1442
65,893030.0,730.913596,1.0,-1.64,-2.97,-7.54,11.0,-12.25,36.0,62.56,-111.44,-63.88,-0.3331280052610773,-2.0075856787744013,1.7928665318439805,-151.5321813460659,-22.617979384064764,16.581911426258042,0.0351,-0.9693,-0.1961,0.1442
66,893067.0,730.921156,1.0,-2.04,-3.07,-7.08,14.69,-10.06,36.88,21.5,-77.5,-59.19,-0.4011477025815465,-1.840451647506077,2.0500580773895463,-147.23493252348757,-24.854522251558684,20.4134200209308,0.0441,-0.9594,-0.2152,0.1772
67,893067.0,730.921156,1.0,-2.04,-3.07,-7.08,14.69,-10.06,36.88,21.5,-77.5,-59.19,-0.4011477025815465,-1.840451647506077,2.0500580773895463,-147.23493252348757,-24.854522251558684,20.4134200209308,0.0441,-0.9594,-0.2152,0.1772
68,893104.0,730.985728,1.0,-2.06,-2.83,-7.54,14.69,-10.06,36.88,3.06,-55.25,-47.31,0.036672723673969176,-1.600762834052276,1.6494253824934262,-144.9554604078314,-26.346934855604967,22.104021805228786,0.0453,-0.9536,-0.2279,0.1917
69,893104.0,730.985728,1.0,-2.06,-2.83,-7.54,14.69,-10.06,36.88,3.06,-55.25,-47.31,0.036672723673969176,-1.600762834052276,1.6494253824934262,-144.9554604078314,-26.346934855604967,22.104021805228786,0.0453,-0.9536,-0.2279,0.1917
70,893136.0,731.005618,1.0,-1.92,-2.1,-8.54,17.06,-7.88,35.75,-30.62,-11.94,-44.56,0.8953066489371246,-1.1122576865170537,0.9190570275944409,-143.02758111671002,-28.257305549296962,22.86343926833653,0.0394,-0.9484,-0.2441,0.1982
71,893136.0,731.005618,1.0,-1.92,-2.1,-8.54,17.06,-7.88,35.75,-30.62,-11.94,-44.56,0.8953066489371246,-1.1122576865170537,0.9190570275944409,-143.02758111671002,-28.257305549296962,22.86343926833653,0.0394,-0.9484,-0.2441,0.1982
72,893171.0,731.0551849999999,1.0,-1.75,-1.77,-9.13,18.87,-6.69,33.69,-6.44,-17.75,-36.94,1.409478077082305,-0.9687297671451228,0.49927474225567,-142.0286696964437,-29.45237314889127,23.050527648721737,0.0364,-0.9456,-0.2542,0.1998
73,893171.0,731.0551849999999,1.0,-1.75,-1.77,-9.13,18.87,-6.69,33.69,-6.44,-17.75,-36.94,1.409478077082305,-0.9687297671451228,0.49927474225567,-142.0286696964437,-29.45237314889127,23.050527648721737,0.0364,-0.9456,-0.2542,0.1998
74,893208.0,731.059504,1.0,-2.49,-2.51,-7.79,20.37,-6.69,33.75,11.31,-7.63,-21.94,0.04572442215838685,-1.1397723729009044,1.328258158666518,-140.8145368825897,-30.365662677140477,23.729249451725817,0.04,-0.9421,-0.2619,0.2056
75,893208.0,731.059504,1.0,-2.49,-2.51,-7.79,20.37,-6.69,33.75,11.31,-7.63,-21.94,0.04572442215838685,-1.1397723729009044,1.328258158666518,-140.8145368825897,-30.365662677140477,23.729249451725817,0.04,-0.9421,-0.2619,0.2056
76,893243.0,731.124384,1.0,-3.53,-2.09,-6.63,20.37,-6.69,33.75,-4.19,24.94,-23.12,-1.1261002217016571,-0.10942401850559946,2.0926481413758022,-140.57602612666605,-31.197641863629613,22.95697570537593,0.0427,-0.9414,-0.2689,0.19899999999999998
77,893243.0,731.124384,1.0,-3.53,-2.09,-6.63,20.37,-6.69,33.75,-4.19,24.94,-23.12,-1.1261002217016571,-0.10942401850559946,2.0926481413758022,-140.57602612666605,-31.197641863629613,22.95697570537593,0.0427,-0.9414,-0.2689,0.19899999999999998
78,893280.0,731.143008,1.0,-1.0,-0.7,-9.85,20.5,-6.69,33.38,-22.12,41.44,-19.19,2.5314519014297203,-0.2684831215007404,0.21331022262230626,-141.08884000838947,-31.792944149622574,21.31060447484913,0.0425,-0.9429,-0.2739,0.1849
79,893280.0,731.143008,1.0,-1.0,-0.7,-9.85,20.5,-6.69,33.38,-22.12,41.44,-19.19,2.5314519014297203,-0.2684831215007404,0.21331022262230626,-141.08884000838947,-31.792944149622574,21.31060447484913,0.0425,-0.9429,-0.2739,0.1849
80,893315.0,731.1907160000001,1.0,-2.77,-1.36,-7.58,20.19,-5.88,34.56,-9.25,29.69,-24.81,-0.14623080005812822,0.2167665563626041,1.6267643765235285,-141.05445058328866,-32.401061315113324,20.4134200209308,0.0427,-0.9428,-0.27899999999999997,0.1772
81,893315.0,731.1907160000001,1.0,-2.77,-1.36,-7.58,20.19,-5.88,34.56,-9.25,29.69,-24.81,-0.14623080005812822,0.2167665563626041,1.6267643765235285,-141.05445058328866,-32.401061315113324,20.4134200209308,0.0427,-0.9428,-0.27899999999999997,0.1772
82,893349.0,731.254383,1.0,-1.78,-1.52,-8.89,20.19,-5.88,34.56,-15.31,62.75,-38.13,0.6942665407442971,-0.33701382712951444,0.6461196850713655,-141.08884000838947,-33.62013451285477,18.297714844671226,0.0444,-0.9429,-0.2892,0.159
83,893349.0,731.254383,1.0,-1.78,-1.52,-8.89,20.19,-5.88,34.56,-15.31,62.75,-38.13,0.6942665407442971,-0.33701382712951444,0.6461196850713655,-141.08884000838947,-33.62013451285477,18.297714844671226,0.0444,-0.9429,-0.2892,0.159
84,893384.0,731.2722160000001,1.0,-1.41,-2.4,-8.94,18.25,-6.25,33.38,-24.31,62.31,-43.56,0.10772102494087887,-1.096444196917665,0.5083756276322315,-140.91718374591224,-35.143514652215984,15.667598608855753,0.0458,-0.9424,-0.3019,0.1363
85,893384.0,731.2722160000001,1.0,-1.41,-2.4,-8.94,18.25,-6.25,33.38,-24.31,62.31,-43.56,0.10772102494087887,-1.096444196917665,0.5083756276322315,-140.91718374591224,-35.143514652215984,15.667598608855753,0.0458,-0.9424,-0.3019,0.1363
86,893421.0,731.333891,1.0,-0.82,-2.2,-9.65,17.5,-5.88,36.19,-32.75,50.69,-34.13,0.5334228851064271,-1.2157904746131964,-0.03571828956753542,-140.78037862226373,-36.16667598822457,13.761120312162008,0.043,-0.9420000000000001,-0.3104,0.1198
87,893421.0,731.333891,1.0,-0.82,-2.2,-9.65,17.5,-5.88,36.19,-32.75,50.69,-34.13,0.5334228851064271,-1.2157904746131964,-0.03571828956753542,-140.78037862226373,-36.16667598822457,13.761120312162008,0.043,-0.9420000000000001,-0.3104,0.1198
88,893456.0,731.338401,1.0,-1.32,-2.43,-9.48,17.5,-5.88,36.19,-26.37,36.75,-25.87,-0.3699681781704847,-1.043280571125483,-0.006218550890375596,-140.71214769326966,-36.999437339480345,11.881504040605064,0.0399,-0.9418,-0.3173,0.1035
89,893456.0,731.338401,1.0,-1.32,-2.43,-9.48,17.5,-5.88,36.19,-26.37,36.75,-25.87,-0.3699681781704847,-1.043280571125483,-0.006218550890375596,-140.71214769326966,-36.999437339480345,11.881504040605064,0.0399,-0.9418,-0.3173,0.1035
90,893491.0,731.382447,1.0,-0.96,-1.54,-9.83,15.69,-7.75,36.56,-41.38,42.06,-16.81,0.2375361643195473,-0.5352803582763973,-0.17228538954350905,-140.64403039131906,-37.616257937648726,10.407757691617306,0.036000000000000004,-0.9416,-0.3224,0.0907
91,893491.0,731.382447,1.0,-0.96,-1.54,-9.83,15.69,-7.75,36.56,-41.38,42.06,-16.81,0.2375361643195473,-0.5352803582763973,-0.17228538954350905,-140.64403039131906,-37.616257937648726,10.407757691617306,0.036000000000000004,-0.9416,-0.3224,0.0907
92,893526.0,731.401384,1.0,-0.66,-0.56,-10.44,15.25,-8.06,35.38,-44.94,44.0,-16.87,0.7448203168728085,0.0072363448945038655,-0.6426557343962376,-140.64403039131906,-38.28272700926836,8.257737442475136,0.0269,-0.9416,-0.3279,0.07200000000000001
93,893526.0,731.401384,1.0,-0.66,-0.56,-10.44,15.25,-8.06,35.38,-44.94,44.0,-16.87,0.7448203168728085,0.0072363448945038655,-0.6426557343962376,-140.64403039131906,-38.28272700926836,8.257737442475136,0.0269,-0.9416,-0.3279,0.07200000000000001
94,893562.0,731.448792,1.0,-1.41,-0.54,-9.47,13.38,-9.25,35.38,-38.13,43.0,-24.06,-0.2377518038982559,0.4732711393450976,0.23167801526781595,-140.54206620040912,-38.719689385129655,6.776309776380446,0.0214,-0.9413,-0.3315,0.0591
95,893562.0,731.448792,1.0,-1.41,-0.54,-9.47,13.38,-9.25,35.38,-38.13,43.0,-24.06,-0.2377518038982559,0.4732711393450976,0.23167801526781595,-140.54206620040912,-38.719689385129655,6.776309776380446,0.0214,-0.9413,-0.3315,0.0591
96,893595.0,731.455536,1.0,-0.52,0.49,-10.31,13.38,-9.25,35.38,-43.88,41.5,-26.0,0.821781432697732,0.6788137148535076,-0.47296512982855,-139.8686617976523,-39.77811923036006,4.802792327898413,0.0136,-0.9393,-0.3402,0.0419
97,893595.0,731.455536,1.0,-0.52,0.49,-10.31,13.38,-9.25,35.38,-43.88,41.5,-26.0,0.821781432697732,0.6788137148535076,-0.47296512982855,-139.8686617976523,-39.77811923036006,4.802792327898413,0.0136,-0.9393,-0.3402,0.0419
98,893632.0,731.514068,1.0,-1.4,0.32,-8.9,11.88,-9.88,36.69,-19.62,33.88,-34.38,-0.2387788377045537,1.1218740168381929,0.8647943001462028,-139.33764146351638,-40.43685258518578,3.793673550039814,0.0104,-0.9377,-0.3456,0.0331
99,893632.0,731.514068,1.0,-1.4,0.32,-8.9,11.88,-9.88,36.69,-19.62,33.88,-34.38,-0.2387788377045537,1.1218740168381929,0.8647943001462028,-139.33764146351638,-40.43685258518578,3.793673550039814,0.0104,-0.9377,-0.3456,0.0331
100,893669.0,731.5217299999999,1.0,-0.54,0.26,-9.59,11.38,-10.25,36.25,-35.44,53.5,-45.06,0.06284846799160987,0.5888361215409971,0.2162056884970287,-138.00625925895054,-41.9548397514564,1.5470330404085568,0.0071,-0.9336,-0.358,0.0135
101,893669.0,731.5217299999999,1.0,-0.54,0.26,-9.59,11.38,-10.25,36.25,-35.44,53.5,-45.06,0.06284846799160987,0.5888361215409971,0.2162056884970287,-138.00625925895054,-41.9548397514564,1.5470330404085568,0.0071,-0.9336,-0.358,0.0135
102,893704.0,731.587182,1.0,1.4,0.18,-10.86,11.38,-10.25,36.25,-17.94,39.81,-41.19,1.1799493580379514,-0.7179248020216702,-1.0572490924579157,-136.77619735313192,-43.209298755684706,-0.03437746822351143,0.0053,-0.9297,-0.3682,-0.0003
103,893704.0,731.587182,1.0,1.4,0.18,-10.86,11.38,-10.25,36.25,-17.94,39.81,-41.19,1.1799493580379514,-0.7179248020216702,-1.0572490924579157,-136.77619735313192,-43.209298755684706,-0.03437746822351143,0.0053,-0.9297,-0.3682,-0.0003
104,893736.0,731.6063519999999,1.0,1.31,-1.19,-10.28,10.69,-10.69,36.56,-3.31,22.37,-29.44,-4.887357813265769e-05,-1.5427406994025967,-0.5098683628983149,-135.54829362030736,-44.444462000793465,-0.9969591404369118,0.0082,-0.9257,-0.3782,-0.0087
105,893736.0,731.6063519999999,1.0,1.31,-1.19,-10.28,10.69,-10.69,36.56,-3.31,22.37,-29.44,-4.887357813265769e-05,-1.5427406994025967,-0.5098683628983149,-135.54829362030736,-44.444462000793465,-0.9969591404369118,0.0082,-0.9257,-0.3782,-0.0087
106,893773.0,731.651937,1.0,1.19,-1.16,-9.77,9.19,-11.75,36.19,-25.56,22.81,-24.81,-0.22108512976982184,-1.44465477480097,0.0046760178350080395,-134.97619058332577,-44.977249267005995,-1.79916139442209,0.0055,-0.9238,-0.3825,-0.0157
107,893773.0,731.651937,1.0,1.19,-1.16,-9.77,9.19,-11.75,36.19,-25.56,22.81,-24.81,-0.22108512976982184,-1.44465477480097,0.0046760178350080395,-134.97619058332577,-44.977249267005995,-1.79916139442209,0.0055,-0.9238,-0.3825,-0.0157
108,893810.0,731.6704530000001,1.0,1.85,-0.21,-10.72,8.38,-11.38,36.56,-27.81,15.25,-10.75,0.5894330474037304,-1.2621402126158492,-0.9842985573014592,-134.44048421864292,-45.43651590599992,-3.163128706652845,-0.0013,-0.922,-0.3862,-0.0276
109,893810.0,731.6704530000001,1.0,1.85,-0.21,-10.72,8.38,-11.38,36.56,-27.81,15.25,-10.75,0.5894330474037304,-1.2621402126158492,-0.9842985573014592,-134.44048421864292,-45.43651590599992,-3.163128706652845,-0.0013,-0.922,-0.3862,-0.0276
110,893843.0,731.71705,1.0,1.4,0.03,-10.47,8.38,-11.38,36.56,-1.69,-7.31,-5.94,0.4379904272583373,-0.8423221236609533,-0.7138280226766032,-134.20429804752106,-45.67265480727474,-3.117274866889664,-0.0043,-0.9212,-0.3881,-0.0272
111,893843.0,731.71705,1.0,1.4,0.03,-10.47,8.38,-11.38,36.56,-1.69,-7.31,-5.94,0.4379904272583373,-0.8423221236609533,-0.7138280226766032,-134.20429804752106,-45.67265480727474,-3.117274866889664,-0.0043,-0.9212,-0.3881,-0.0272
112,893880.0,731.734111,1.0,1.15,0.39,-10.46,8.75,-12.5,37.5,-21.06,-10.13,-3.06,0.4852481000749719,-0.5089517113206454,-0.7000955682964616,-134.1748557862076,-45.709958605695505,-3.094348134689141,-0.0092,-0.9211,-0.3884,-0.027000000000000003
113,893880.0,731.734111,1.0,1.15,0.39,-10.46,8.75,-12.5,37.5,-21.06,-10.13,-3.06,0.4852481000749719,-0.5089517113206454,-0.7000955682964616,-134.1748557862076,-45.709958605695505,-3.094348134689141,-0.0092,-0.9211,-0.3884,-0.027000000000000003
114,893917.0,731.7846030000001,1.0,0.5,0.85,-9.43,9.19,-13.25,36.25,-5.5,-8.5,-0.63,0.4181448917203745,0.1960663271270635,0.3364803687370479,-134.35177886278402,-45.51106402154343,-2.910938660030132,-0.0131,-0.9217,-0.3868,-0.0254
115,893917.0,731.7846030000001,1.0,0.5,0.85,-9.43,9.19,-13.25,36.25,-5.5,-8.5,-0.63,0.4181448917203745,0.1960663271270635,0.3364803687370479,-134.35177886278402,-45.51106402154343,-2.910938660030132,-0.0131,-0.9217,-0.3868,-0.0254
116,893949.0,731.901275,1.0,0.51,0.53,-9.35,9.19,-13.25,36.25,-6.5,2.63,-0.06,0.18899902158496226,-0.04597232613182578,0.4297813374309261,-134.3222466489682,-45.53591791274641,-2.956790311078442,-0.0139,-0.9216,-0.387,-0.0258
117,893949.0,731.901275,1.0,0.51,0.53,-9.35,9.19,-13.25,36.25,-6.5,2.63,-0.06,0.18899902158496226,-0.04597232613182578,0.4297813374309261,-134.3222466489682,-45.53591791274641,-2.956790311078442,-0.0139,-0.9216,-0.387,-0.0258
118,893984.0,732.0843480000001,1.0,0.66,0.16,-9.57,8.38,-13.25,37.19,-9.81,8.44,-3.88,-0.03101185042936166,-0.4064597063504419,0.2212481423705306,-134.47008902668762,-45.3868284428534,-3.243374149708243,-0.0146,-0.9221,-0.3858,-0.0283
119,893984.0,732.0843480000001,1.0,0.66,0.16,-9.57,8.38,-13.25,37.19,-9.81,8.44,-3.88,-0.03101185042936166,-0.4064597063504419,0.2212481423705306,-134.47008902668762,-45.3868284428534,-3.243374149708243,-0.0146,-0.9221,-0.3858,-0.0283
120,894019.0,732.147598,1.0,0.63,0.62,-9.8,8.38,-13.69,36.25,-7.81,0.69,-0.37,0.18815332328323192,-0.10136078835737013,-0.030810257481151737,-134.64810211296725,-45.1509357631892,-3.5414428939599265,-0.0179,-0.9227,-0.3839,-0.0309
121,894019.0,732.147598,1.0,0.63,0.62,-9.8,8.38,-13.69,36.25,-7.81,0.69,-0.37,0.18815332328323192,-0.10136078835737013,-0.030810257481151737,-134.64810211296725,-45.1509357631892,-3.5414428939599265,-0.0179,-0.9227,-0.3839,-0.0309
122,894054.0,732.166289,1.0,0.62,1.2,-9.75,8.38,-13.69,36.25,-20.31,3.19,-0.56,0.5263336235083241,0.26235109160611625,-0.018880256505125814,-134.588690989807,-45.16334612512468,-3.793673550039814,-0.0217,-0.9225,-0.384,-0.0331
123,894054.0,732.166289,1.0,0.62,1.2,-9.75,8.38,-13.69,36.25,-20.31,3.19,-0.56,0.5263336235083241,0.26235109160611625,-0.018880256505125814,-134.588690989807,-45.16334612512468,-3.793673550039814,-0.0217,-0.9225,-0.384,-0.0331
124,894089.0,732.169814,1.0,0.65,0.57,-9.93,10.25,-13.25,37.56,-14.94,6.19,-0.81,-0.0014592857922639394,-0.2332063673450903,-0.15818379995445042,-134.47008902668762,-45.200580565791434,-4.206454848857137,-0.0247,-0.9221,-0.3843,-0.0367
125,894089.0,732.169814,1.0,0.65,0.57,-9.93,10.25,-13.25,37.56,-14.94,6.19,-0.81,-0.0014592857922639394,-0.2332063673450903,-0.15818379995445042,-134.47008902668762,-45.200580565791434,-4.206454848857137,-0.0247,-0.9221,-0.3843,-0.0367
126,894124.0,732.2137740000001,1.0,1.1,0.96,-10.37,8.06,-14.0,36.25,3.0,19.44,-4.19,0.47064023032498903,-0.2576661464862401,-0.6518683429850416,-134.52935339042858,-45.10129990098643,-4.6766337060034,-0.025,-0.9223,-0.3835,-0.0408
127,894124.0,732.2137740000001,1.0,1.1,0.96,-10.37,8.06,-14.0,36.25,3.0,19.44,-4.19,0.47064023032498903,-0.2576661464862401,-0.6518683429850416,-134.52935339042858,-45.10129990098643,-4.6766337060034,-0.025,-0.9223,-0.3835,-0.0408
128,894158.0,732.222108,1.0,1.0,0.24,-9.97,9.19,-13.69,36.69,0.75,10.13,-2.94,-0.12187644406378585,-0.6227439030640114,-0.1961414185780672,-134.35177886278402,-45.25023432294885,-5.089538374458754,-0.0229,-0.9217,-0.3847,-0.0444
129,894158.0,732.222108,1.0,1.0,0.24,-9.97,9.19,-13.69,36.69,0.75,10.13,-2.94,-0.12187644406378585,-0.6227439030640114,-0.1961414185780672,-134.35177886278402,-45.25023432294885,-5.089538374458754,-0.0229,-0.9217,-0.3847,-0.0444
130,894193.0,732.242208,1.0,1.11,0.72,-10.07,9.19,-13.69,36.69,-12.5,6.19,-0.5,0.21137215811725973,-0.3762872490717566,-0.34072058143433104,-134.26323636741046,-45.287480525770206,-5.4451479667522715,-0.0248,-0.9214,-0.385,-0.0475
131,894193.0,732.242208,1.0,1.11,0.72,-10.07,9.19,-13.69,36.69,-12.5,6.19,-0.5,0.21137215811725973,-0.3762872490717566,-0.34072058143433104,-134.26323636741046,-45.287480525770206,-5.4451479667522715,-0.0248,-0.9214,-0.385,-0.0475
132,894230.0,732.245492,1.0,0.91,0.86,-9.5,8.38,-14.75,36.25,-11.0,6.63,0.81,0.16136135259028547,-0.15699019479794474,0.2271397519430831,-134.38132917213414,-45.10129990098643,-5.7663887448030415,-0.0276,-0.9218,-0.3835,-0.0503
133,894230.0,732.245492,1.0,0.91,0.86,-9.5,8.38,-14.75,36.25,-11.0,6.63,0.81,0.16136135259028547,-0.15699019479794474,0.2271397519430831,-134.38132917213414,-45.10129990098643,-5.7663887448030415,-0.0276,-0.9218,-0.3835,-0.0503
134,894265.0,732.28854,1.0,1.08,1.17,-9.76,7.38,-14.75,35.88,-4.44,3.25,1.44,0.4244121837149587,-0.07773653719437801,-0.07296190174489325,-134.588690989807,-44.82846183777319,-5.961449757231111,-0.0294,-0.9225,-0.3813,-0.052000000000000005
135,894265.0,732.28854,1.0,1.08,1.17,-9.76,7.38,-14.75,35.88,-4.44,3.25,1.44,0.4244121837149587,-0.07773653719437801,-0.07296190174489325,-134.588690989807,-44.82846183777319,-5.961449757231111,-0.0294,-0.9225,-0.3813,-0.052000000000000005
136,894298.0,732.296229,1.0,1.1,0.8,-9.79,7.38,-14.75,35.88,-3.13,2.81,2.38,0.14705674494670584,-0.3458310610817661,-0.07023590553503922,-134.61838734283256,-44.77888374446125,-6.133576755953128,-0.0296,-0.9226,-0.3809,-0.0535
137,894298.0,732.296229,1.0,1.1,0.8,-9.79,7.38,-14.75,35.88,-3.13,2.81,2.38,0.14705674494670584,-0.3458310610817661,-0.07023590553503922,-134.61838734283256,-44.77888374446125,-6.133576755953128,-0.0296,-0.9226,-0.3809,-0.0535
138,894332.0,732.315775,1.0,0.92,0.93,-9.81,8.06,-14.38,35.38,-5.44,2.5,4.31,0.0824077680932342,-0.1274559171649261,-0.0890240017513495,-134.7075870499225,-44.65497713304196,-6.271288310584378,-0.0302,-0.9229,-0.3799,-0.0547
139,894332.0,732.315775,1.0,0.92,0.93,-9.81,8.06,-14.38,35.38,-5.44,2.5,4.31,0.0824077680932342,-0.1274559171649261,-0.0890240017513495,-134.7075870499225,-44.65497713304196,-6.271288310584378,-0.0302,-0.9229,-0.3799,-0.0547
140,894369.0,732.3188200000001,1.0,1.05,1.13,-9.78,7.69,-15.5,36.69,-5.25,3.63,3.69,0.27470915829120995,-0.07189648758143374,-0.09017604542609804,-134.9462708023221,-44.37020029186166,-6.5008278159272015,-0.031,-0.9237,-0.3776,-0.0567
141,894369.0,732.3188200000001,1.0,1.05,1.13,-9.78,7.69,-15.5,36.69,-5.25,3.63,3.69,0.27470915829120995,-0.07189648758143374,-0.09017604542609804,-134.9462708023221,-44.37020029186166,-6.5008278159272015,-0.031,-0.9237,-0.3776,-0.0567
142,894402.0,732.364065,1.0,1.21,1.1,-10.0,7.69,-15.5,36.69,-4.38,1.81,2.5,0.31024391281133673,-0.2087034126185376,-0.3192717654554737,-135.00612922505886,-44.295958202894106,-6.650042440520529,-0.0316,-0.9239,-0.377,-0.057999999999999996
143,894402.0,732.364065,1.0,1.21,1.1,-10.0,7.69,-15.5,36.69,-4.38,1.81,2.5,0.31024391281133673,-0.2087034126185376,-0.3192717654554737,-135.00612922505886,-44.295958202894106,-6.650042440520529,-0.0316,-0.9239,-0.377,-0.057999999999999996
144,894437.0,732.372176,1.0,1.11,1.03,-9.92,7.25,-15.5,36.75,-3.44,1.5,0.5,0.16901107024414427,-0.19545210674187088,-0.224931816050006,-135.12607315636853,-44.11043851170447,-6.7992683543101915,-0.0327,-0.9243,-0.3755,-0.0593
145,894437.0,732.372176,1.0,1.11,1.03,-9.92,7.25,-15.5,36.75,-3.44,1.5,0.5,0.16901107024414427,-0.19545210674187088,-0.224931816050006,-135.12607315636853,-44.11043851170447,-6.7992683543101915,-0.0327,-0.9243,-0.3755,-0.0593
146,894472.0,732.392027,1.0,0.95,1.34,-9.71,7.69,-15.88,36.69,-4.13,2.63,-0.06,0.2704422532911047,0.13444519669051458,-0.036671872047142166,-135.18615927411605,-44.03626472561431,-6.925545442265205,-0.0336,-0.9245,-0.3749,-0.0604
147,894472.0,732.392027,1.0,0.95,1.34,-9.71,7.69,-15.88,36.69,-4.13,2.63,-0.06,0.2704422532911047,0.13444519669051458,-0.036671872047142166,-135.18615927411605,-44.03626472561431,-6.925545442265205,-0.0336,-0.9245,-0.3749,-0.0604
148,894507.0,732.3961419999999,1.0,0.95,1.17,-9.63,7.69,-15.88,36.69,0.63,4.63,-2.0,0.14266362931618792,0.0219795069333284,0.06049876014406585,-135.12607315636853,-44.0857117567441,-7.063311874799694,-0.0336,-0.9243,-0.3753,-0.0616
149,894507.0,732.3961419999999,1.0,0.95,1.17,-9.63,7.69,-15.88,36.69,0.63,4.63,-2.0,0.14266362931618792,0.0219795069333284,0.06049876014406585,-135.12607315636853,-44.0857117567441,-7.063311874799694,-0.0336,-0.9243,-0.3753,-0.0616
150,894539.0,732.4397240000001,1.0,1.2,1.09,-9.89,7.0,-16.25,36.25,-2.69,5.81,-5.0,0.19038337296279556,-0.1911888870688868,-0.21170320702762704,-135.12607315636853,-44.03626472561431,-7.315910364212048,-0.0333,-0.9243,-0.3749,-0.0638
151,894539.0,732.4397240000001,1.0,1.2,1.09,-9.89,7.0,-16.25,36.25,-2.69,5.81,-5.0,0.19038337296279556,-0.1911888870688868,-0.21170320702762704,-135.12607315636853,-44.03626472561431,-7.315910364212048,-0.0333,-0.9243,-0.3749,-0.0638
152,894574.0,732.468531,1.0,1.01,1.13,-9.61,7.25,-15.88,36.25,-1.75,3.13,-4.56,0.1045070135096669,-0.026125809713573256,0.07846950587911118,-135.03608676528202,-44.11043851170447,-7.4192563007107175,-0.0336,-0.924,-0.3755,-0.0647
153,894574.0,732.468531,1.0,1.01,1.13,-9.61,7.25,-15.88,36.25,-1.75,3.13,-4.56,0.1045070135096669,-0.026125809713573256,0.07846950587911118,-135.03608676528202,-44.11043851170447,-7.4192563007107175,-0.0336,-0.924,-0.3755,-0.0647
154,894611.0,732.473038,1.0,1.41,1.09,-9.9,8.06,-17.0,34.69,-5.25,5.38,-3.0,0.2681419837741533,-0.3180847512867824,-0.2438784422032505,-134.9462708023221,-44.12280269978493,-7.729330710703709,-0.0336,-0.9237,-0.3756,-0.0674
155,894611.0,732.473038,1.0,1.41,1.09,-9.9,8.06,-17.0,34.69,-5.25,5.38,-3.0,0.2681419837741533,-0.3180847512867824,-0.2438784422032505,-134.9462708023221,-44.12280269978493,-7.729330710703709,-0.0336,-0.9237,-0.3756,-0.0674
156,894644.0,732.574624,1.0,1.4,1.19,-9.93,8.06,-17.0,34.69,-4.69,0.12,-3.75,0.2949609762692931,-0.2626145498088233,-0.2841889948857581,-134.7969534952698,-44.24647435383947,-7.844187348567063,-0.0351,-0.9232,-0.3766,-0.0684
157,894644.0,732.574624,1.0,1.4,1.19,-9.93,8.06,-17.0,34.69,-4.69,0.12,-3.75,0.2949609762692931,-0.2626145498088233,-0.2841889948857581,-134.7969534952698,-44.24647435383947,-7.844187348567063,-0.0351,-0.9232,-0.3766,-0.0684
158,894681.0,732.584079,1.0,1.32,1.22,-9.7,7.25,-16.25,35.88,-2.81,0.88,-3.38,0.2789858884593113,-0.19351705935794805,-0.05263587788071078,-134.73735728971755,-44.27121519182589,-7.9016186202083185,-0.0359,-0.9229999999999999,-0.3768,-0.0689
159,894681.0,732.584079,1.0,1.32,1.22,-9.7,7.25,-16.25,35.88,-2.81,0.88,-3.38,0.2789858884593113,-0.19351705935794805,-0.05263587788071078,-134.73735728971755,-44.27121519182589,-7.9016186202083185,-0.0359,-0.9229999999999999,-0.3768,-0.0689
160,894715.0,732.587182,1.0,1.11,0.96,-9.43,6.19,-16.69,36.0,-0.56,1.69,-1.44,-0.01208375074598303,-0.22364274565655476,0.2657675510185005,-134.91636984441135,-44.098074864095786,-7.936078336486531,-0.0359,-0.9236,-0.3754,-0.0692
161,894715.0,732.587182,1.0,1.11,0.96,-9.43,6.19,-16.69,36.0,-0.56,1.69,-1.44,-0.01208375074598303,-0.22364274565655476,0.2657675510185005,-134.91636984441135,-44.098074864095786,-7.936078336486531,-0.0359,-0.9236,-0.3754,-0.0692
162,894750.0,732.590515,1.0,1.2,1.14,-9.7,6.19,-16.69,36.0,-4.0,6.81,-1.19,0.09020652311341132,-0.14893784027588094,-0.032012526122221274,-134.8267795347168,-44.13516742855202,-8.200293609338797,-0.0361,-0.9233,-0.3757,-0.0715
163,894750.0,732.590515,1.0,1.2,1.14,-9.7,6.19,-16.69,36.0,-4.0,6.81,-1.19,0.09020652311341132,-0.14893784027588094,-0.032012526122221274,-134.8267795347168,-44.13516742855202,-8.200293609338797,-0.0361,-0.9233,-0.3757,-0.0715
164,894785.0,732.633604,1.0,1.31,1.26,-9.78,7.38,-16.25,35.5,-1.25,2.75,-1.31,0.2097717525603693,-0.13600487221680746,-0.1376749387055476,-134.7969534952698,-44.12280269978493,-8.361141590530956,-0.0364,-0.9232,-0.3756,-0.0729
165,894785.0,732.633604,1.0,1.31,1.26,-9.78,7.38,-16.25,35.5,-1.25,2.75,-1.31,0.2097717525603693,-0.13600487221680746,-0.1376749387055476,-134.7969534952698,-44.12280269978493,-8.361141590530956,-0.0364,-0.9232,-0.3756,-0.0729
166,894820.0,732.704117,1.0,1.33,1.12,-9.71,6.88,-16.69,36.75,-1.69,1.94,-0.44,0.11737161806531755,-0.2338298545871895,-0.05433106186075598,-134.7969534952698,-44.098074864095786,-8.510515201802361,-0.0361,-0.9232,-0.3754,-0.0742
167,894820.0,732.704117,1.0,1.33,1.12,-9.71,6.88,-16.69,36.75,-1.69,1.94,-0.44,0.11737161806531755,-0.2338298545871895,-0.05433106186075598,-134.7969534952698,-44.098074864095786,-8.510515201802361,-0.0361,-0.9232,-0.3754,-0.0742
168,894855.0,732.724076,1.0,1.33,1.26,-9.65,6.88,-16.69,36.75,-3.44,1.06,0.56,0.2059593633606367,-0.1339789450228085,-0.012648874305371649,-134.7969534952698,-44.07334918943469,-8.602444609340731,-0.0365,-0.9232,-0.3752,-0.075
169,894855.0,732.724076,1.0,1.33,1.26,-9.65,6.88,-16.69,36.75,-3.44,1.06,0.56,0.2059593633606367,-0.1339789450228085,-0.012648874305371649,-134.7969534952698,-44.07334918943469,-8.602444609340731,-0.0365,-0.9232,-0.3752,-0.075
170,894887.0,732.7303730000001,1.0,1.39,1.26,-10.04,7.25,-16.25,36.38,-4.38,0.06,-0.44,0.15511042937644245,-0.19052199141633475,-0.4041747524617421,-134.7671460925717,-44.060987161952966,-8.72885661442212,-0.0375,-0.9231,-0.3751,-0.0761
171,894887.0,732.7303730000001,1.0,1.39,1.26,-10.04,7.25,-16.25,36.38,-4.38,0.06,-0.44,0.15511042937644245,-0.19052199141633475,-0.4041747524617421,-134.7671460925717,-44.060987161952966,-8.72885661442212,-0.0375,-0.9231,-0.3751,-0.0761
172,894924.0,732.76802,1.0,1.09,1.14,-9.49,7.0,-17.0,35.88,0.12,-0.12,-0.5,-0.0466844586507884,-0.06943277857347885,0.18683713016827846,-134.85662424793804,-43.97446806674141,-8.705871826379285,-0.038,-0.9234,-0.3744,-0.0759
173,894924.0,732.76802,1.0,1.09,1.14,-9.49,7.0,-17.0,35.88,0.12,-0.12,-0.5,-0.0466844586507884,-0.06943277857347885,0.18683713016827846,-134.85662424793804,-43.97446806674141,-8.705871826379285,-0.038,-0.9234,-0.3744,-0.0759
174,894959.0,732.835001,1.0,1.31,1.2,-9.68,6.19,-15.88,35.5,-0.5,4.56,0.56,0.1004004939452055,-0.1680383402687553,-0.03307473481932455,-134.88648767208014,-43.92504042696694,-8.832292528579133,-0.0377,-0.9235,-0.374,-0.077
175,894959.0,732.835001,1.0,1.31,1.2,-9.68,6.19,-15.88,35.5,-0.5,4.56,0.56,0.1004004939452055,-0.1680383402687553,-0.03307473481932455,-134.88648767208014,-43.92504042696694,-8.832292528579133,-0.0377,-0.9235,-0.374,-0.077
176,894994.0,732.856163,1.0,1.47,1.24,-9.79,6.19,-15.88,35.5,-0.56,1.69,1.63,0.20915827856907354,-0.24142075841528915,-0.1653392113816583,-134.91636984441135,-43.86326796394638,-8.92424161449454,-0.0375,-0.9236,-0.3735,-0.0778
177,894994.0,732.856163,1.0,1.47,1.24,-9.79,6.19,-15.88,35.5,-0.56,1.69,1.63,0.20915827856907354,-0.24142075841528915,-0.1653392113816583,-134.91636984441135,-43.86326796394638,-8.92424161449454,-0.0375,-0.9236,-0.3735,-0.0778
178,895029.0,732.9061429999999,1.0,1.31,1.16,-9.64,5.88,-15.88,36.0,-3.44,-0.5,0.81,0.0574359929405545,-0.1872406865034156,0.011092740097289777,-134.97619058332577,-43.78915870024722,-8.970218312913039,-0.0378,-0.9238,-0.3729,-0.0782
179,895029.0,732.9061429999999,1.0,1.31,1.16,-9.64,5.88,-15.88,36.0,-3.44,-0.5,0.81,0.0574359929405545,-0.1872406865034156,0.011092740097289777,-134.97619058332577,-43.78915870024722,-8.970218312913039,-0.0378,-0.9238,-0.3729,-0.0782
180,895064.0,732.9255730000001,1.0,1.39,1.34,-9.71,6.19,-16.69,35.0,-4.81,1.69,1.31,0.2023111949807728,-0.1248346197147232,-0.09058630606575413,-135.12607315636853,-43.591628016640854,-9.06217605835773,-0.0389,-0.9243,-0.3713,-0.079
181,895064.0,732.9255730000001,1.0,1.39,1.34,-9.71,6.19,-16.69,35.0,-4.81,1.69,1.31,0.2023111949807728,-0.1248346197147232,-0.09058630606575413,-135.12607315636853,-43.591628016640854,-9.06217605835773,-0.0389,-0.9243,-0.3713,-0.079
182,895098.0,733.058659,1.0,1.48,1.27,-9.89,6.19,-16.69,35.0,-1.69,-0.06,0.94,0.17313978113706255,-0.2421325518882793,-0.2694005379590028,-135.1561066706563,-43.542266640188856,-9.13114820216436,-0.0393,-0.9244,-0.3709,-0.0796
183,895098.0,733.058659,1.0,1.48,1.27,-9.89,6.19,-16.69,35.0,-1.69,-0.06,0.94,0.17313978113706255,-0.2421325518882793,-0.2694005379590028,-135.1561066706563,-43.542266640188856,-9.13114820216436,-0.0393,-0.9244,-0.3709,-0.0796
184,895133.0,733.072811,1.0,1.14,1.25,-9.64,7.38,-16.69,36.25,-2.63,-1.31,0.25,-0.03814860938555428,-0.032362502719105235,0.01945441842405593,-135.18615927411605,-43.5175891368055,-9.096661717453259,-0.04,-0.9245,-0.3707,-0.0793
185,895133.0,733.072811,1.0,1.14,1.25,-9.64,7.38,-16.69,36.25,-2.63,-1.31,0.25,-0.03814860938555428,-0.032362502719105235,0.01945441842405593,-135.18615927411605,-43.5175891368055,-9.096661717453259,-0.04,-0.9245,-0.3707,-0.0793
186,895168.0,733.0764059999999,1.0,1.25,1.35,-9.62,6.56,-16.69,35.69,-5.5,-0.56,1.44,0.08929820873905543,-0.05327098614245285,0.012846447143152416,-135.2162310052641,-43.44356934572808,-9.17713147157167,-0.0413,-0.9246,-0.3701,-0.08
187,895168.0,733.0764059999999,1.0,1.25,1.35,-9.62,6.56,-16.69,35.69,-5.5,-0.56,1.44,0.08929820873905543,-0.05327098614245285,0.012846447143152416,-135.2162310052641,-43.44356934572808,-9.17713147157167,-0.0413,-0.9246,-0.3701,-0.08
188,895203.0,733.12601,1.0,1.37,1.67,-9.62,6.56,-16.69,35.69,-2.0,1.75,2.13,0.3775447073101351,0.09396311503218667,-0.045194036879369286,-135.27643200533063,-43.35723698802017,-9.246109154854068,-0.0417,-0.9248,-0.3694,-0.0806
189,895203.0,733.12601,1.0,1.37,1.67,-9.62,6.56,-16.69,35.69,-2.0,1.75,2.13,0.3775447073101351,0.09396311503218667,-0.045194036879369286,-135.27643200533063,-43.35723698802017,-9.246109154854068,-0.0417,-0.9248,-0.3694,-0.0806
190,895236.0,733.144904,1.0,1.57,1.18,-9.93,6.19,-17.0,35.5,0.81,1.31,0.25,0.12154058766072208,-0.3888311321067736,-0.3075102832986438,-135.3668779333915,-43.25860308220909,-9.3380846266553,-0.0413,-0.9251,-0.3686,-0.0814
191,895236.0,733.144904,1.0,1.57,1.18,-9.93,6.19,-17.0,35.5,0.81,1.31,0.25,0.12154058766072208,-0.3888311321067736,-0.3075102832986438,-135.3668779333915,-43.25860308220909,-9.3380846266553,-0.0413,-0.9251,-0.3686,-0.0814
192,895272.0,733.148225,1.0,1.33,1.25,-9.65,6.56,-17.37,37.19,-2.44,-1.69,-0.37,0.04364681703242286,-0.17868371757059898,-0.012722031063804096,-135.397065246721,-43.23394986814831,-9.3380846266553,-0.0419,-0.9252,-0.3684,-0.0814
193,895272.0,733.148225,1.0,1.33,1.25,-9.65,6.56,-17.37,37.19,-2.44,-1.69,-0.37,0.04364681703242286,-0.17868371757059898,-0.012722031063804096,-135.397065246721,-43.23394986814831,-9.3380846266553,-0.0419,-0.9252,-0.3684,-0.0814
194,895305.0,733.188909,1.0,1.34,1.44,-9.8,6.56,-17.37,37.19,-4.63,-1.19,0.44,0.14097248967953266,-0.07148344768477,-0.18755916700569664,-135.397065246721,-43.209298755684706,-9.349581983346614,-0.0431,-0.9252,-0.3682,-0.0815
195,895305.0,733.188909,1.0,1.34,1.44,-9.8,6.56,-17.37,37.19,-4.63,-1.19,0.44,0.14097248967953266,-0.07148344768477,-0.18755916700569664,-135.397065246721,-43.209298755684706,-9.349581983346614,-0.0431,-0.9252,-0.3682,-0.0815
196,895340.0,733.207505,1.0,1.25,1.63,-9.68,6.56,-17.37,36.0,-4.25,-1.0,-0.25,0.21601744263188624,0.1064541631521625,-0.08596360691027449,-135.45749811569678,-43.135358011103925,-9.349581983346614,-0.0445,-0.9254,-0.3676,-0.0815
197,895340.0,733.207505,1.0,1.25,1.63,-9.68,6.56,-17.37,36.0,-4.25,-1.0,-0.25,0.21601744263188624,0.1064541631521625,-0.08596360691027449,-135.45749811569678,-43.135358011103925,-9.349581983346614,-0.0445,-0.9254,-0.3676,-0.0815
198,895375.0,733.259339,1.0,1.2,1.41,-9.63,6.88,-16.25,35.56,-1.19,0.94,0.37,0.0335427673161767,-0.021520777379997247,0.00035550417224250447,-135.397065246721,-43.16000282883873,-9.384074619875276,-0.0448,-0.9252,-0.3678,-0.0818
199,895375.0,733.259339,1.0,1.2,1.41,-9.63,6.88,-16.25,35.56,-1.19,0.94,0.37,0.0335427673161767,-0.021520777379997247,0.00035550417224250447,-135.397065246721,-43.16000282883873,-9.384074619875276,-0.0448,-0.9252,-0.3678,-0.0818
200,895410.0,733.278202,1.0,1.33,1.36,-9.66,6.19,-17.0,35.88,-1.63,2.81,0.56,0.06940313121233731,-0.1445070704868905,-0.03755646430971993,-135.397065246721,-43.12303638792578,-9.48755765518811,-0.045,-0.9252,-0.3675,-0.0827
201,895410.0,733.278202,1.0,1.33,1.36,-9.66,6.19,-17.0,35.88,-1.63,2.81,0.56,0.06940313121233731,-0.1445070704868905,-0.03755646430971993,-135.397065246721,-43.12303638792578,-9.48755765518811,-0.045,-0.9252,-0.3675,-0.0827
