,TIME,ELAPSED_SECONDS,PSTATE,acc_x,acc_y,acc_z,mag_x,mag_y,mag_z,gyr_x,gyr_y,gyr_z,lin_x,lin_y,lin_z,eul_x,eul_y,eul_z,qua_w,qua_x,qua_y,qua_z
0,3839868.0,3814.13559,1.0,5.89,1.54,7.46,-8.0,-18.5,-39.5,0.81,0.19,0.56,-0.014193243231215624,-0.06634416392829112,0.17801058397868808,-37.676791133557344,9.269102460835224,-111.01493444523935,-0.4581,-0.3229,0.0808,-0.8242
1,3839868.0,3814.13559,1.0,5.89,1.54,7.46,-8.0,-18.5,-39.5,0.81,0.19,0.56,-0.014193243231215624,-0.06634416392829112,0.17801058397868808,-37.676791133557344,9.269102460835224,-111.01493444523935,-0.4581,-0.3229,0.0808,-0.8242
2,3839903.0,3814.139308,1.0,5.88,1.56,7.56,-8.75,-18.06,-38.25,0.06,0.44,0.12,0.019203111982217747,-0.005064963468830896,0.10298030309485108,-37.676791133557344,9.269102460835224,-111.01493444523935,-0.4581,-0.3229,0.0808,-0.8242
3,3839903.0,3814.139308,1.0,5.88,1.56,7.56,-8.75,-18.06,-38.25,0.06,0.44,0.12,0.019203111982217747,-0.005064963468830896,0.10298030309485108,-37.676791133557344,9.269102460835224,-111.01493444523935,-0.4581,-0.3229,0.0808,-0.8242
4,3839938.0,3814.177879,1.0,6.12,1.65,7.44,-8.75,-17.37,-39.5,-0.25,-1.31,0.19,-0.19533362929716885,-0.17082363650814925,0.03612472965369662,-37.70100746591034,9.280599254023052,-111.01493444523935,-0.4581,-0.3231,0.0809,-0.8242
5,3839938.0,3814.177879,1.0,6.12,1.65,7.44,-8.75,-17.37,-39.5,-0.25,-1.31,0.19,-0.19533362929716885,-0.17082363650814925,0.03612472965369662,-37.70100746591034,9.280599254023052,-111.01493444523935,-0.4581,-0.3231,0.0809,-0.8242
6,3839973.0,3814.2616420000004,1.0,6.66,1.76,6.93,-8.75,-17.37,-39.5,3.38,-12.06,2.69,-0.6957435639727821,-0.6766348597186383,0.08367688681059883,-37.9069169867096,9.349581983346614,-110.93403529967291,-0.4574,-0.3248,0.0815,-0.8238
7,3839973.0,3814.2616420000004,1.0,6.66,1.76,6.93,-8.75,-17.37,-39.5,3.38,-12.06,2.69,-0.6957435639727821,-0.6766348597186383,0.08367688681059883,-37.9069169867096,9.349581983346614,-110.93403529967291,-0.4574,-0.3248,0.0815,-0.8238
8,3840010.0,3814.274706,1.0,8.68,2.82,7.0,-7.56,-18.06,-37.88,11.19,-33.38,9.75,-2.1380475438826423,-1.2931070750541744,-1.420612658036564,-38.91408254537286,9.637046865121436,-110.59113537677601,-0.4541,-0.3331,0.084,-0.8221
9,3840010.0,3814.274706,1.0,8.68,2.82,7.0,-7.56,-18.06,-37.88,11.19,-33.38,9.75,-2.1380475438826423,-1.2931070750541744,-1.420612658036564,-38.91408254537286,9.637046865121436,-110.59113537677601,-0.4541,-0.3331,0.084,-0.8221
10,3840045.0,3814.2860619999997,1.0,9.41,3.17,5.55,-9.06,-17.69,-37.38,38.13,-60.0,5.69,-3.1629274336297337,-2.0216160116031148,-0.9315276271033196,-40.47348957852153,9.821056182581472,-110.02956467321043,-0.4492,-0.3459,0.0856,-0.8193
11,3840045.0,3814.2860619999997,1.0,9.41,3.17,5.55,-9.06,-17.69,-37.38,38.13,-60.0,5.69,-3.1629274336297337,-2.0216160116031148,-0.9315276271033196,-40.47348957852153,9.821056182581472,-110.02956467321043,-0.4492,-0.3459,0.0856,-0.8193
12,3840079.0,3814.311398,1.0,11.0,2.22,4.59,-9.06,-17.69,-37.38,49.0,-154.0,-1.69,-2.7275920974347176,-3.5110902082405464,-1.4729327449249698,-45.26264916304815,10.200656128703407,-107.56890139317555,-0.4396,-0.3848,0.0889,-0.8068
13,3840079.0,3814.311398,1.0,11.0,2.22,4.59,-9.06,-17.69,-37.38,49.0,-154.0,-1.69,-2.7275920974347176,-3.5110902082405464,-1.4729327449249698,-45.26264916304815,10.200656128703407,-107.56890139317555,-0.4396,-0.3848,0.0889,-0.8068
14,3840114.0,3814.3809979999996,1.0,14.09,3.57,5.13,-10.56,-18.87,-37.88,44.31,-236.63,-16.25,-2.753592049572891,-3.008447359753722,-5.0579682362050535,-53.64140160793269,12.342442956629045,-101.51944563950941,-0.4301,-0.4512,0.1075,-0.7745
15,3840114.0,3814.3809979999996,1.0,14.09,3.57,5.13,-10.56,-18.87,-37.88,44.31,-236.63,-16.25,-2.753592049572891,-3.008447359753722,-5.0579682362050535,-53.64140160793269,12.342442956629045,-101.51944563950941,-0.4301,-0.4512,0.1075,-0.7745
16,3840151.0,3814.385918,1.0,15.47,3.42,3.55,-17.0,-20.0,-35.75,58.75,-318.38,-44.25,-2.0100424054722037,-3.3304387210695374,-5.956842869710201,-61.88799370587642,14.523222401516824,-94.61443221012439,-0.4235,-0.5142,0.1264,-0.735
17,3840151.0,3814.385918,1.0,15.47,3.42,3.55,-17.0,-20.0,-35.75,58.75,-318.38,-44.25,-2.0100424054722037,-3.3304387210695374,-5.956842869710201,-61.88799370587642,14.523222401516824,-94.61443221012439,-0.4235,-0.5142,0.1264,-0.735
18,3840188.0,3814.434211,1.0,15.56,2.71,4.18,-24.75,-21.5,-28.69,63.19,-377.38,-27.44,1.99925103484192,-0.7130531342291075,-6.392876243919902,-75.36712180089249,17.92639313237552,-83.1806607941667,-0.4017,-0.6113,0.1558,-0.6638
19,3840188.0,3814.434211,1.0,15.56,2.71,4.18,-24.75,-21.5,-28.69,63.19,-377.38,-27.44,1.99925103484192,-0.7130531342291075,-6.392876243919902,-75.36712180089249,17.92639313237552,-83.1806607941667,-0.4017,-0.6113,0.1558,-0.6638
20,3840223.0,3814.467307,1.0,15.25,3.13,2.46,-24.75,-21.5,-28.69,11.5,-371.56,-48.0,2.6989957694545654,0.4948369884190584,-5.713709473651337,-85.00152199363876,21.24064723466595,-73.46788204137806,-0.3896,-0.6756,0.1843,-0.5981
21,3840223.0,3814.467307,1.0,15.25,3.13,2.46,-24.75,-21.5,-28.69,11.5,-371.56,-48.0,2.6989957694545654,0.4948369884190584,-5.713709473651337,-85.00152199363876,21.24064723466595,-73.46788204137806,-0.3896,-0.6756,0.1843,-0.5981
22,3840262.0,3814.51027,1.0,13.0,2.35,-0.87,-33.06,-22.56,-19.0,29.81,-333.31,-25.37,2.78901947670638,0.1075277769450027,-3.135112172738985,-96.36974625847458,24.924931536010146,-61.67434029817293,-0.3677,-0.7453,0.2158,-0.5126
23,3840262.0,3814.51027,1.0,13.0,2.35,-0.87,-33.06,-22.56,-19.0,29.81,-333.31,-25.37,2.78901947670638,0.1075277769450027,-3.135112172738985,-96.36974625847458,24.924931536010146,-61.67434029817293,-0.3677,-0.7453,0.2158,-0.5126
24,3840296.0,3814.548755,1.0,11.29,3.74,-0.84,-37.5,-22.37,-7.5,2.25,-345.94,-15.5,2.4622081665282307,2.5838835541900336,-1.5695697905573187,-104.2402868961662,27.985604401100783,-52.87227083326433,-0.3469,-0.7893,0.2418,-0.4452
25,3840296.0,3814.548755,1.0,11.29,3.74,-0.84,-37.5,-22.37,-7.5,2.25,-345.94,-15.5,2.4622081665282307,2.5838835541900336,-1.5695697905573187,-104.2402868961662,27.985604401100783,-52.87227083326433,-0.3469,-0.7893,0.2418,-0.4452
26,3840331.0,3814.586994,1.0,8.09,3.16,-3.36,-37.5,-22.37,-7.5,1.12,-265.0,-32.5,1.2583036508060057,1.29839346647018,0.6713259045671619,-112.6714672903495,31.233335490801053,-42.0775906009399,-0.3254,-0.8323,0.2692,-0.359
27,3840331.0,3814.586994,1.0,8.09,3.16,-3.36,-37.5,-22.37,-7.5,1.12,-265.0,-32.5,1.2583036508060057,1.29839346647018,0.6713259045671619,-112.6714672903495,31.233335490801053,-42.0775906009399,-0.3254,-0.8323,0.2692,-0.359
28,3840366.0,3814.6290659999995,1.0,7.73,5.19,-5.7,-38.38,-22.75,3.25,-18.56,-243.75,-38.25,-0.035947150785793025,1.8207688911362243,-0.95729483669537,-118.8580978383618,33.24922417976444,-33.0340215452869,-0.3099,-0.861,0.2861,-0.2843
29,3840366.0,3814.6290659999995,1.0,7.73,5.19,-5.7,-38.38,-22.75,3.25,-18.56,-243.75,-38.25,-0.035947150785793025,1.8207688911362243,-0.95729483669537,-118.8580978383618,33.24922417976444,-33.0340215452869,-0.3099,-0.861,0.2861,-0.2843
30,3840403.0,3814.6779869999996,1.0,6.03,5.85,-6.97,-35.38,-22.25,12.75,21.81,-214.69,-52.56,-1.0794874629475593,1.5634317759600087,-0.9429866403361568,-123.28472684734406,34.015373611081245,-26.676574330601248,-0.2946,-0.88,0.2925,-0.2307
31,3840403.0,3814.6779869999996,1.0,6.03,5.85,-6.97,-35.38,-22.25,12.75,21.81,-214.69,-52.56,-1.0794874629475593,1.5634317759600087,-0.9429866403361568,-123.28472684734406,34.015373611081245,-26.676574330601248,-0.2946,-0.88,0.2925,-0.2307
32,3840440.0,3814.6856340000004,1.0,4.35,5.05,-6.85,-31.06,-23.06,17.37,48.69,-195.94,-54.06,-0.8058691461770044,1.4273242709300566,0.39066251355685466,-129.1371769317901,33.9794256257345,-19.56400979675284,-0.2648,-0.9031,0.2922,-0.1699
33,3840440.0,3814.6856340000004,1.0,4.35,5.05,-6.85,-31.06,-23.06,17.37,48.69,-195.94,-54.06,-0.8058691461770044,1.4273242709300566,0.39066251355685466,-129.1371769317901,33.9794256257345,-19.56400979675284,-0.2648,-0.9031,0.2922,-0.1699
34,3840473.0,3814.711414,1.0,3.21,5.42,-6.61,-31.06,-23.06,17.37,53.5,-191.06,-60.56,-1.2348495082467246,1.9723455940716592,0.9772899127949852,-133.15540493778332,33.62013451285477,-14.442363367873067,-0.2419,-0.9176,0.2892,-0.1257
35,3840473.0,3814.711414,1.0,3.21,5.42,-6.61,-31.06,-23.06,17.37,53.5,-191.06,-60.56,-1.2348495082467246,1.9723455940716592,0.9772899127949852,-133.15540493778332,33.62013451285477,-14.442363367873067,-0.2419,-0.9176,0.2892,-0.1257
36,3840512.0,3814.754951,1.0,1.35,4.04,-5.42,-25.5,-23.5,23.5,73.62,-159.19,-67.69,-1.230058345599831,1.4372603407547908,3.177793448579262,-138.5209607780903,32.460730842800366,-8.395611151395807,-0.2048,-0.9352,0.2795,-0.0732
37,3840512.0,3814.754951,1.0,1.35,4.04,-5.42,-25.5,-23.5,23.5,73.62,-159.19,-67.69,-1.230058345599831,1.4372603407547908,3.177793448579262,-138.5209607780903,32.460730842800366,-8.395611151395807,-0.2048,-0.9352,0.2795,-0.0732
38,3840546.0,3814.791858,1.0,1.55,4.37,-6.36,-20.69,-24.56,26.37,75.0,-130.13,-66.31,-0.8629982361116206,1.9255327922894196,2.224001550395709,-141.95828650840244,31.197641863629613,-4.837200229263812,-0.179,-0.9454,0.2689,-0.0422
39,3840546.0,3814.791858,1.0,1.55,4.37,-6.36,-20.69,-24.56,26.37,75.0,-130.13,-66.31,-0.8629982361116206,1.9255327922894196,2.224001550395709,-141.95828650840244,31.197641863629613,-4.837200229263812,-0.179,-0.9454,0.2689,-0.0422
40,3840581.0,3814.834454,1.0,1.03,2.57,-6.12,-20.69,-24.56,26.37,108.37,-146.0,-56.13,0.024843087910460217,1.0241044279706382,3.1680663452138362,-146.23408088100356,29.653841828798466,-0.3781528311358495,-0.1371,-0.9569,0.2559,-0.0033
41,3840581.0,3814.834454,1.0,1.03,2.57,-6.12,-20.69,-24.56,26.37,108.37,-146.0,-56.13,0.024843087910460217,1.0241044279706382,3.1680663452138362,-146.23408088100356,29.653841828798466,-0.3781528311358495,-0.1371,-0.9569,0.2559,-0.0033
42,3840616.0,3814.8646700000004,1.0,-0.09,0.64,-5.78,-15.5,-23.75,30.87,110.87,-148.31,-52.25,0.2922507599890085,-0.3730821048156167,4.00996998154528,-149.46197984083236,28.35184823709937,4.298191253728037,-0.0887,-0.9647,0.2449,0.0375
43,3840616.0,3814.8646700000004,1.0,-0.09,0.64,-5.78,-15.5,-23.75,30.87,110.87,-148.31,-52.25,0.2922507599890085,-0.3730821048156167,4.00996998154528,-149.46197984083236,28.35184823709937,4.298191253728037,-0.0887,-0.9647,0.2449,0.0375
44,3840653.0,3814.905378,1.0,-0.77,0.64,-5.78,-9.5,-21.37,33.88,43.63,-154.94,-52.81,0.003029630558182617,-0.296815185762681,3.9480843421926775,-150.56941987552764,27.301153346475182,8.165828301178744,-0.0623,-0.9672,0.23600000000000002,0.0712
45,3840653.0,3814.905378,1.0,-0.77,0.64,-5.78,-9.5,-21.37,33.88,43.63,-154.94,-52.81,0.003029630558182617,-0.296815185762681,3.9480843421926775,-150.56941987552764,27.301153346475182,8.165828301178744,-0.0623,-0.9672,0.23600000000000002,0.0712
46,3840690.0,3814.9417759999997,1.0,-2.54,1.64,-4.55,-4.56,-18.75,36.0,-15.56,-146.5,-68.62,-1.7176418498692698,0.2002028103738377,4.6246305760402535,-150.43438697810743,25.230149327633608,14.130545861300053,-0.0475,-0.9669,0.2184,0.12300000000000001
47,3840690.0,3814.9417759999997,1.0,-2.54,1.64,-4.55,-4.56,-18.75,36.0,-15.56,-146.5,-68.62,-1.7176418498692698,0.2002028103738377,4.6246305760402535,-150.43438697810743,25.230149327633608,14.130545861300053,-0.0475,-0.9669,0.2184,0.12300000000000001
48,3840724.0,3814.9845609999998,1.0,-4.93,1.04,-3.14,-4.56,-18.75,36.0,-22.69,-87.19,-78.0,-3.722242821528954,-1.1013594217008047,5.3146553648955654,-150.43438697810743,23.12070182440919,17.416134643761747,-0.0441,-0.9669,0.2004,0.1514
49,3840724.0,3814.9845609999998,1.0,-4.93,1.04,-3.14,-4.56,-18.75,36.0,-22.69,-87.19,-78.0,-3.722242821528954,-1.1013594217008047,5.3146553648955654,-150.43438697810743,23.12070182440919,17.416134643761747,-0.0441,-0.9669,0.2004,0.1514
50,3840761.0,3815.026,1.0,-4.72,3.4,-4.21,1.37,-19.5,35.56,-88.5,9.69,-108.37,-3.8128124517078166,1.3419958646142338,3.8716682555074273,-152.00202441389632,19.319861939553064,19.017706136871343,-0.0557,-0.9703,0.1678,0.1652
51,3840761.0,3815.026,1.0,-4.72,3.4,-4.21,1.37,-19.5,35.56,-88.5,9.69,-108.37,-3.8128124517078166,1.3419958646142338,3.8716682555074273,-152.00202441389632,19.319861939553064,19.017706136871343,-0.0557,-0.9703,0.1678,0.1652
52,3840796.0,3815.0573130000002,1.0,-5.23,4.91,-3.96,4.38,-20.25,33.69,-104.69,41.69,-142.94,-4.560148712808148,2.8040412355496107,3.603022314007584,-154.27134430279997,14.996972698908555,18.796984460560502,-0.0763,-0.9749,0.1305,0.1633
53,3840796.0,3815.0573130000002,1.0,-5.23,4.91,-3.96,4.38,-20.25,33.69,-104.69,41.69,-142.94,-4.560148712808148,2.8040412355496107,3.603022314007584,-154.27134430279997,14.996972698908555,18.796984460560502,-0.0763,-0.9749,0.1305,0.1633
54,3840831.0,3815.0688840000003,1.0,-4.35,7.27,-4.49,4.38,-20.25,33.69,-72.81,112.06,-171.56,-3.569626842053799,5.532518175799406,2.8363912642758926,-158.1040290229696,8.073924421552888,16.732468293463864,-0.1002,-0.9818,0.0704,0.1455
55,3840831.0,3815.0688840000003,1.0,-4.35,7.27,-4.49,4.38,-20.25,33.69,-72.81,112.06,-171.56,-3.569626842053799,5.532518175799406,2.8363912642758926,-158.1040290229696,8.073924421552888,16.732468293463864,-0.1002,-0.9818,0.0704,0.1455
56,3840866.0,3815.1049840000005,1.0,-0.77,7.76,-6.59,5.56,-21.37,31.75,-6.75,141.44,-171.63,0.6946313396741016,6.266677110306115,1.7764043439127626,-163.14335483645732,0.8365258107465946,12.181091916848366,-0.10099999999999999,-0.9892,0.0073,0.1061
57,3840866.0,3815.1049840000005,1.0,-0.77,7.76,-6.59,5.56,-21.37,31.75,-6.75,141.44,-171.63,0.6946313396741016,6.266677110306115,1.7764043439127626,-163.14335483645732,0.8365258107465946,12.181091916848366,-0.10099999999999999,-0.9892,0.0073,0.1061
58,3840903.0,3815.144343,1.0,1.31,6.0,-7.33,5.25,-22.5,34.06,94.5,161.5,-176.5,2.808651287263109,4.648332563095285,1.9358506549891423,-167.13036680379562,-4.298191253728037,8.22327089407658,-0.0782,-0.9937,-0.0375,0.0717
59,3840903.0,3815.144343,1.0,1.31,6.0,-7.33,5.25,-22.5,34.06,94.5,161.5,-176.5,2.808651287263109,4.648332563095285,1.9358506549891423,-167.13036680379562,-4.298191253728037,8.22327089407658,-0.0782,-0.9937,-0.0375,0.0717
60,3840940.0,3815.1824579999998,1.0,5.18,2.97,-9.93,3.06,-20.56,34.06,200.56,105.75,-172.06,6.2204904794872276,1.4478900420230032,0.1388005689828109,-167.86710278173726,-11.351662230904264,3.495584654482353,-0.0197,-0.9944,-0.0989,0.0305
61,3840940.0,3815.1824579999998,1.0,5.18,2.97,-9.93,3.06,-20.56,34.06,200.56,105.75,-172.06,6.2204904794872276,1.4478900420230032,0.1388005689828109,-167.86710278173726,-11.351662230904264,3.495584654482353,-0.0197,-0.9944,-0.0989,0.0305
62,3840974.0,3815.233433,1.0,6.69,-7.71,-8.55,3.06,-20.56,34.06,272.94,74.37,-161.56,4.755605203058644,-8.437163497668168,0.6687513757944714,-163.06535294380294,-15.875832638109523,2.051298459271143,0.0487,-0.9891,-0.1381,0.0179
63,3840974.0,3815.233433,1.0,6.69,-7.71,-8.55,3.06,-20.56,34.06,272.94,74.37,-161.56,4.755605203058644,-8.437163497668168,0.6687513757944714,-163.06535294380294,-15.875832638109523,2.051298459271143,0.0487,-0.9891,-0.1381,0.0179
64,3841011.0,3815.2823630000003,1.0,5.45,-9.53,-11.23,2.75,-14.5,37.5,82.19,0.81,-128.13,2.3885934702240856,-8.259422221134134,-3.3353767008950523,-155.214797761141,-21.170698001897183,1.306372069959298,0.11,-0.9767,-0.1837,0.0114
65,3841011.0,3815.2823630000003,1.0,5.45,-9.53,-11.23,2.75,-14.5,37.5,82.19,0.81,-128.13,2.3885934702240856,-8.259422221134134,-3.3353767008950523,-155.214797761141,-21.170698001897183,1.306372069959298,0.11,-0.9767,-0.1837,0.0114
66,3841048.0,3815.289703,1.0,3.25,-3.44,-10.26,3.19,-7.38,39.75,-36.69,-102.87,-93.56,2.5016281031036307,-2.4324694900425867,-0.9399145214540106,-152.62462859250314,-24.373645675055762,2.7963115557322795,0.1044,-0.9716,-0.2111,0.0244
67,3841048.0,3815.289703,1.0,3.25,-3.44,-10.26,3.19,-7.38,39.75,-36.69,-102.87,-93.56,2.5016281031036307,-2.4324694900425867,-0.9399145214540106,-152.62462859250314,-24.373645675055762,2.7963115557322795,0.1044,-0.9716,-0.2111,0.0244
68,3841083.0,3815.333797,1.0,2.63,-6.06,-9.28,3.19,-7.38,39.75,47.94,-47.63,-64.0,0.9003342496053772,-4.8944449497195075,-0.4399448916287661,-149.37507492345586,-27.666855466190324,5.582817194583068,0.1008,-0.9645,-0.2391,0.0487
69,3841083.0,3815.333797,1.0,2.63,-6.06,-9.28,3.19,-7.38,39.75,47.94,-47.63,-64.0,0.9003342496053772,-4.8944449497195075,-0.4399448916287661,-149.37507492345586,-27.666855466190324,5.582817194583068,0.1008,-0.9645,-0.2391,0.0487
70,3841116.0,3815.3622100000002,1.0,2.89,-8.6,-10.22,6.19,-7.38,39.06,43.06,-6.75,-32.88,0.1471425626699958,-6.799129383926514,-2.0470704575980303,-147.6436957459843,-28.824858813433643,6.225383461526625,0.1126,-0.9604,-0.2489,0.0543
71,3841116.0,3815.3622100000002,1.0,2.89,-8.6,-10.22,6.19,-7.38,39.06,43.06,-6.75,-32.88,0.1471425626699958,-6.799129383926514,-2.0470704575980303,-147.6436957459843,-28.824858813433643,6.225383461526625,0.1126,-0.9604,-0.2489,0.0543
72,3841153.0,3815.3974590000003,1.0,1.09,-4.9,-9.61,7.56,-5.88,38.25,-58.94,-37.31,13.0,0.24314464992198134,-3.1896219875724667,-0.5527608063928344,-148.35037934063973,-28.61194247203445,6.7992683543101915,0.0989,-0.9621,-0.2471,0.0593
73,3841153.0,3815.3974590000003,1.0,1.09,-4.9,-9.61,7.56,-5.88,38.25,-58.94,-37.31,13.0,0.24314464992198134,-3.1896219875724667,-0.5527608063928344,-148.35037934063973,-28.61194247203445,6.7992683543101915,0.0989,-0.9621,-0.2471,0.0593
74,3841187.0,3815.434469,1.0,-0.43,-2.22,-8.6,7.56,-5.88,38.25,-48.19,-9.31,30.75,-0.011276188891619798,-0.5932965500360659,0.93415474492776,-149.46197984083236,-28.0210345439132,7.1207175606295605,0.0837,-0.9647,-0.2421,0.0621
75,3841187.0,3815.434469,1.0,-0.43,-2.22,-8.6,7.56,-5.88,38.25,-48.19,-9.31,30.75,-0.011276188891619798,-0.5932965500360659,0.93415474492776,-149.46197984083236,-28.0210345439132,7.1207175606295605,0.0837,-0.9647,-0.2421,0.0621
76,3841222.0,3815.4687229999995,1.0,0.29,-3.08,-9.12,9.06,-6.19,38.25,-15.0,45.63,39.0,0.14966698070738546,-1.7100726700236306,0.3304613538129555,-151.3927025567389,-26.48818157203767,5.92702598542953,0.0768,-0.9690000000000001,-0.2291,0.0517
77,3841222.0,3815.4687229999995,1.0,0.29,-3.08,-9.12,9.06,-6.19,38.25,-15.0,45.63,39.0,0.14966698070738546,-1.7100726700236306,0.3304613538129555,-151.3927025567389,-26.48818157203767,5.92702598542953,0.0768,-0.9690000000000001,-0.2291,0.0517
78,3841257.0,3815.497784,1.0,1.04,-2.84,-9.78,8.69,-8.06,37.75,-49.56,57.25,41.88,0.6479909056460782,-1.8566484973912023,-0.23967092575859186,-154.0662728728033,-24.50261820231894,3.5529075421905287,0.0664,-0.9745,-0.2122,0.031
79,3841257.0,3815.497784,1.0,1.04,-2.84,-9.78,8.69,-8.06,37.75,-49.56,57.25,41.88,0.6479909056460782,-1.8566484973912023,-0.23967092575859186,-154.0662728728033,-24.50261820231894,3.5529075421905287,0.0664,-0.9745,-0.2122,0.031
80,3841294.0,3815.537925,1.0,-0.68,-0.95,-8.35,6.06,-9.56,38.56,-78.87,63.19,32.5,-0.6177862972399986,0.17889411476909278,1.3998826672707594,-156.25063177900063,-22.98036223475966,1.4668120111410634,0.0505,-0.9786,-0.1992,0.0128
81,3841294.0,3815.537925,1.0,-0.68,-0.95,-8.35,6.06,-9.56,38.56,-78.87,63.19,32.5,-0.6177862972399986,0.17889411476909278,1.3998826672707594,-156.25063177900063,-22.98036223475966,1.4668120111410634,0.0505,-0.9786,-0.1992,0.0128
82,3841327.0,3815.5811369999997,1.0,-1.29,-0.1,-7.1,6.06,-9.56,38.56,-82.44,103.56,25.56,-1.4887626878179647,0.8740520417755444,2.799245438564359,-157.74491268375093,-21.800531789289547,-2.7733864743736323,0.0305,-0.9812,-0.1891,-0.0242
83,3841327.0,3815.5811369999997,1.0,-1.29,-0.1,-7.1,6.06,-9.56,38.56,-82.44,103.56,25.56,-1.4887626878179647,0.8740520417755444,2.799245438564359,-157.74491268375093,-21.800531789289547,-2.7733864743736323,0.0305,-0.9812,-0.1891,-0.0242
84,3841363.0,3815.628676,1.0,0.34,-0.67,-6.62,4.56,-11.75,37.75,-70.62,195.0,5.81,-0.7823215943244443,-0.29883546907209924,3.196992649919125,-157.33304425296922,-21.054133663315955,-8.004999928704901,0.0214,-0.9805,-0.1827,-0.0698
85,3841363.0,3815.628676,1.0,0.34,-0.67,-6.62,4.56,-11.75,37.75,-70.62,195.0,5.81,-0.7823215943244443,-0.29883546907209924,3.196992649919125,-157.33304425296922,-21.054133663315955,-8.004999928704901,0.0214,-0.9805,-0.1827,-0.0698
86,3841400.0,3815.6675579999996,1.0,2.68,0.75,-6.41,0.75,-14.75,36.56,-126.31,287.19,-28.69,0.600186149612831,0.13292325060112753,2.8456796656814736,-151.6255402012684,-21.112413070583106,-18.75052573300884,0.0002,-0.9695,-0.1832,-0.1629
87,3841400.0,3815.6675579999996,1.0,2.68,0.75,-6.41,0.75,-14.75,36.56,-126.31,287.19,-28.69,0.600186149612831,0.13292325060112753,2.8456796656814736,-151.6255402012684,-21.112413070583106,-18.75052573300884,0.0002,-0.9695,-0.1832,-0.1629
88,3841435.0,3815.6862229999997,1.0,6.29,3.1,-11.88,0.75,-14.75,36.56,-72.06,219.5,-17.06,1.0190733202122482,1.3332801297488917,-3.8861347300557685,-145.7248595525418,-21.298944377524897,-26.47640945025204,-0.0132,-0.9556,-0.1848,-0.22899999999999998
89,3841435.0,3815.6862229999997,1.0,6.29,3.1,-11.88,0.75,-14.75,36.56,-72.06,219.5,-17.06,1.0190733202122482,1.3332801297488917,-3.8861347300557685,-145.7248595525418,-21.298944377524897,-26.47640945025204,-0.0132,-0.9556,-0.1848,-0.22899999999999998
90,3841470.0,3815.713471,1.0,6.5,1.36,-12.75,-7.69,-18.19,34.5,23.56,98.56,22.94,-0.8542149287218362,0.19317155277227915,-4.542395320394956,-142.56060519917662,-20.448351223683986,-30.99543647635929,-0.0038,-0.9471,-0.1775,-0.2672
91,3841470.0,3815.713471,1.0,6.5,1.36,-12.75,-7.69,-18.19,34.5,23.56,98.56,22.94,-0.8542149287218362,0.19317155277227915,-4.542395320394956,-142.56060519917662,-20.448351223683986,-30.99543647635929,-0.0038,-0.9471,-0.1775,-0.2672
92,3841505.0,3815.750693,1.0,4.6,1.9,-7.9,-15.56,-20.06,32.69,4.5,-23.81,30.31,0.3177448551826404,1.0498331060626254,0.534277668367718,-143.64697188895283,-18.947996901150276,-30.757674330799205,0.0001,-0.9501,-0.1646,-0.2652
93,3841505.0,3815.750693,1.0,4.6,1.9,-7.9,-15.56,-20.06,32.69,4.5,-23.81,30.31,0.3177448551826404,1.0498331060626254,0.534277668367718,-143.64697188895283,-18.947996901150276,-30.757674330799205,0.0001,-0.9501,-0.1646,-0.2652
94,3841542.0,3815.7937810000003,1.0,5.43,0.6,-9.34,-17.06,-19.56,32.69,18.37,4.13,13.44,-0.07934408743365905,-0.1648507209028001,-1.0121775129797328,-144.27673180622273,-17.996001378555594,-30.555683180576786,0.0054,-0.9518,-0.1564,-0.2635
95,3841542.0,3815.7937810000003,1.0,5.43,0.6,-9.34,-17.06,-19.56,32.69,18.37,4.13,13.44,-0.07934408743365905,-0.1648507209028001,-1.0121775129797328,-144.27673180622273,-17.996001378555594,-30.555683180576786,0.0054,-0.9518,-0.1564,-0.2635
96,3841576.0,3815.832314,1.0,5.84,0.15,-11.06,-17.06,-19.56,32.69,15.25,-59.31,18.31,-0.2901862764660861,-0.50569017756027,-2.687819551336295,-146.31308564363076,-17.450913825320047,-28.576466242296,0.0091,-0.9571,-0.1517,-0.2468
97,3841576.0,3815.832314,1.0,5.84,0.15,-11.06,-17.06,-19.56,32.69,15.25,-59.31,18.31,-0.2901862764660861,-0.50569017756027,-2.687819551336295,-146.31308564363076,-17.450913825320047,-28.576466242296,0.0091,-0.9571,-0.1517,-0.2468
98,3841613.0,3815.88278,1.0,5.58,-0.8,-11.52,-16.37,-19.56,33.25,-1.31,-201.38,55.38,0.09188965028960502,-1.4307499693006518,-2.9382042878102705,-151.2538864729402,-15.875832638109523,-23.82293200606416,0.0071,-0.9687,-0.1381,-0.2064
99,3841613.0,3815.88278,1.0,5.58,-0.8,-11.52,-16.37,-19.56,33.25,-1.31,-201.38,55.38,0.09188965028960502,-1.4307499693006518,-2.9382042878102705,-151.2538864729402,-15.875832638109523,-23.82293200606416,0.0071,-0.9687,-0.1381,-0.2064
100,3841650.0,3815.8887560000003,1.0,1.88,1.09,-6.65,-13.69,-18.06,34.5,-23.62,-212.44,46.88,0.20973621470522255,0.7546022307243675,2.854557783003239,-158.96550158142097,-13.865006554805131,-15.760140597334962,-0.0057,-0.9832,-0.1207,-0.1371
101,3841650.0,3815.8887560000003,1.0,1.88,1.09,-6.65,-13.69,-18.06,34.5,-23.62,-212.44,46.88,0.20973621470522255,0.7546022307243675,2.854557783003239,-158.96550158142097,-13.865006554805131,-15.760140597334962,-0.0057,-0.9832,-0.1207,-0.1371
102,3841685.0,3815.9335810000002,1.0,1.51,0.8,-8.51,-13.69,-18.06,34.5,-11.69,-55.56,17.75,-0.3415948274094792,0.4609253113396707,1.1457573883084358,-161.28990608516978,-13.138038375794716,-13.184178987120148,-0.0117,-0.9867,-0.1144,-0.1148
103,3841685.0,3815.9335810000002,1.0,1.51,0.8,-8.51,-13.69,-18.06,34.5,-11.69,-55.56,17.75,-0.3415948274094792,0.4609253113396707,1.1457573883084358,-161.28990608516978,-13.138038375794716,-13.184178987120148,-0.0117,-0.9867,-0.1144,-0.1148
104,3841720.0,3815.9930369999997,1.0,1.54,0.56,-9.07,-8.06,-18.5,36.0,0.12,-1.88,4.19,-0.4384690875234695,0.20009217771893653,0.6024222768446226,-161.86255690793462,-12.665219075015518,-12.803582439206053,-0.0128,-0.9875,-0.1103,-0.1115
105,3841720.0,3815.9930369999997,1.0,1.54,0.56,-9.07,-8.06,-18.5,36.0,0.12,-1.88,4.19,-0.4384690875234695,0.20009217771893653,0.6024222768446226,-161.86255690793462,-12.665219075015518,-12.803582439206053,-0.0128,-0.9875,-0.1103,-0.1115
106,3841755.0,3815.9996590000005,1.0,2.54,-0.39,-9.62,-5.5,-18.5,36.38,1.25,14.06,-0.63,0.12519131210777767,-0.9191124447519308,-0.10736328672071772,-161.64573705685663,-12.572987144073346,-13.172643633299911,-0.0118,-0.9872,-0.1095,-0.1147
107,3841755.0,3815.9996590000005,1.0,2.54,-0.39,-9.62,-5.5,-18.5,36.38,1.25,14.06,-0.63,0.12519131210777767,-0.9191124447519308,-0.10736328672071772,-161.64573705685663,-12.572987144073346,-13.172643633299911,-0.0118,-0.9872,-0.1095,-0.1147
108,3841792.0,3816.0496329999996,1.0,2.93,-0.2,-9.94,-6.19,-18.06,36.0,-2.5,3.13,3.94,0.42996939465134576,-0.8172282550962962,-0.516903859923211,-161.7899992062843,-12.169567773976445,-13.380300633180664,-0.0125,-0.9874,-0.106,-0.1165
109,3841792.0,3816.0496329999996,1.0,2.93,-0.2,-9.94,-6.19,-18.06,36.0,-2.5,3.13,3.94,0.42996939465134576,-0.8172282550962962,-0.516903859923211,-161.7899992062843,-12.169567773976445,-13.380300633180664,-0.0125,-0.9874,-0.106,-0.1165
110,3841824.0,3816.0850479999995,1.0,2.51,-0.67,-9.46,-6.19,-18.06,36.0,-14.88,-11.38,20.81,0.09585435412946808,-1.197955041793919,0.07031004801418916,-162.37875406030932,-11.651107384541652,-13.138038375794716,-0.0134,-0.9882,-0.1015,-0.1144
111,3841824.0,3816.0850479999995,1.0,2.51,-0.67,-9.46,-6.19,-18.06,36.0,-14.88,-11.38,20.81,0.09585435412946808,-1.197955041793919,0.07031004801418916,-162.37875406030932,-11.651107384541652,-13.138038375794716,-0.0134,-0.9882,-0.1015,-0.1144
112,3841863.0,3816.1280899999997,1.0,2.68,0.76,-10.04,-6.19,-18.06,35.19,-25.81,-1.69,11.75,0.4021607065582315,-0.002633823097280941,-0.6048753363316788,-162.91040944456057,-10.718474180434589,-13.045763563399612,-0.0228,-0.9889,-0.0934,-0.1136
113,3841863.0,3816.1280899999997,1.0,2.68,0.76,-10.04,-6.19,-18.06,35.19,-25.81,-1.69,11.75,0.4021607065582315,-0.002633823097280941,-0.6048753363316788,-162.91040944456057,-10.718474180434589,-13.045763563399612,-0.0228,-0.9889,-0.0934,-0.1136
114,3841898.0,3816.1382329999997,1.0,2.1,0.6,-9.2,-7.38,-18.75,35.25,-8.63,-6.88,11.13,0.026611395870240168,-0.08000573366654945,0.3513398032803625,-163.45901362866948,-9.936074868420336,-12.907367253850758,-0.0262,-0.9896,-0.0866,-0.1124
115,3841898.0,3816.1382329999997,1.0,2.1,0.6,-9.2,-7.38,-18.75,35.25,-8.63,-6.88,11.13,0.026611395870240168,-0.08000573366654945,0.3513398032803625,-163.45901362866948,-9.936074868420336,-12.907367253850758,-0.0262,-0.9896,-0.0866,-0.1124
116,3841933.0,3816.181103,1.0,1.94,0.92,-9.29,-7.38,-18.75,35.25,-0.5,4.81,5.31,-0.09613846675813212,0.23556598953932126,0.27515661964339694,-163.53886738912243,-9.591048446078224,-12.88430304585338,-0.0278,-0.9897,-0.0836,-0.1122
117,3841933.0,3816.181103,1.0,1.94,0.92,-9.29,-7.38,-18.75,35.25,-0.5,4.81,5.31,-0.09613846675813212,0.23556598953932126,0.27515661964339694,-163.53886738912243,-9.591048446078224,-12.88430304585338,-0.0278,-0.9897,-0.0836,-0.1122
118,3841966.0,3816.2181990000004,1.0,2.19,0.6,-9.46,-6.19,-19.19,36.06,-1.75,8.31,4.25,-0.004292865576704712,-0.12053556791307082,0.07869272479710078,-163.45901362866948,-9.326587364176332,-13.230321745568984,-0.0279,-0.9896,-0.0813,-0.1152
119,3841966.0,3816.2181990000004,1.0,2.19,0.6,-9.46,-6.19,-19.19,36.06,-1.75,8.31,4.25,-0.004292865576704712,-0.12053556791307082,0.07869272479710078,-163.45901362866948,-9.326587364176332,-13.230321745568984,-0.0279,-0.9896,-0.0813,-0.1152
120,3842002.0,3816.255369,1.0,2.22,0.81,-9.39,-6.19,-18.75,34.75,-2.0,7.81,-1.75,0.02724079495886674,0.0825357136281718,0.12424090953775567,-163.30044367130742,-9.188627520029687,-13.495684664619233,-0.0283,-0.9894,-0.0801,-0.1175
121,3842002.0,3816.255369,1.0,2.22,0.81,-9.39,-6.19,-18.75,34.75,-2.0,7.81,-1.75,0.02724079495886674,0.0825357136281718,0.12424090953775567,-163.30044367130742,-9.188627520029687,-13.495684664619233,-0.0283,-0.9894,-0.0801,-0.1175
122,3842037.0,3816.2925590000004,1.0,2.25,0.7,-9.6,-6.19,-18.75,34.75,1.5,7.25,-3.38,-0.044030408757351376,-0.03792596090814121,-0.07814250892975673,-163.06535294380294,-9.280599254023052,-13.691869135619404,-0.0283,-0.9891,-0.0809,-0.1192
123,3842037.0,3816.2925590000004,1.0,2.25,0.7,-9.6,-6.19,-18.75,34.75,1.5,7.25,-3.38,-0.044030408757351376,-0.03792596090814121,-0.07814250892975673,-163.06535294380294,-9.280599254023052,-13.691869135619404,-0.0283,-0.9891,-0.0809,-0.1192
124,3842070.0,3816.330209,1.0,2.27,0.43,-9.59,-6.19,-18.5,34.75,2.88,1.69,-3.69,-0.08601851376599601,-0.2875222132323715,-0.0531589125594838,-162.9877060930459,-9.384074619875276,-13.830376539145913,-0.0273,-0.9890000000000001,-0.0818,-0.1204
125,3842070.0,3816.330209,1.0,2.27,0.43,-9.59,-6.19,-18.5,34.75,2.88,1.69,-3.69,-0.08601851376599601,-0.2875222132323715,-0.0531589125594838,-162.9877060930459,-9.384074619875276,-13.830376539145913,-0.0273,-0.9890000000000001,-0.0818,-0.1204
126,3842107.0,3816.383504,1.0,2.29,-0.07,-9.42,-8.06,-18.75,36.38,1.5,1.81,-2.5,-0.10712275795615372,-0.7737054963137731,0.14356019809389764,-163.06535294380294,-9.200123661166053,-13.865006554805131,-0.0273,-0.9891,-0.0802,-0.1207
127,3842107.0,3816.383504,1.0,2.29,-0.07,-9.42,-8.06,-18.75,36.38,1.5,1.81,-2.5,-0.10712275795615372,-0.7737054963137731,0.14356019809389764,-163.06535294380294,-9.200123661166053,-13.865006554805131,-0.0273,-0.9891,-0.0802,-0.1207
128,3842142.0,3816.387053,1.0,2.27,0.37,-9.46,-8.06,-18.06,35.69,-8.5,2.38,-1.56,-0.08575421093550539,-0.3786282104727432,0.07881946624063119,-163.06535294380294,-8.95872400294449,-13.945814879054648,-0.0297,-0.9891,-0.0781,-0.1214
129,3842142.0,3816.387053,1.0,2.27,0.37,-9.46,-8.06,-18.06,35.69,-8.5,2.38,-1.56,-0.08575421093550539,-0.3786282104727432,0.07881946624063119,-163.06535294380294,-8.95872400294449,-13.945814879054648,-0.0297,-0.9891,-0.0781,-0.1214
130,3842177.0,3816.526217,1.0,2.51,0.46,-9.75,-8.06,-18.06,35.69,-2.75,4.06,-0.25,0.06044133982022519,-0.3603682721824357,-0.2651264844562036,-162.91040944456057,-8.95872400294449,-14.084359674365961,-0.0308,-0.9889,-0.0781,-0.1226
131,3842177.0,3816.526217,1.0,2.51,0.46,-9.75,-8.06,-18.06,35.69,-2.75,4.06,-0.25,0.06044133982022519,-0.3603682721824357,-0.2651264844562036,-162.91040944456057,-8.95872400294449,-14.084359674365961,-0.0308,-0.9889,-0.0781,-0.1226
132,3842213.0,3816.5790770000003,1.0,2.22,0.42,-9.64,-8.06,-18.75,36.06,-2.38,-5.63,-0.44,-0.1785436663650295,-0.3600032832639089,-0.0864243348688234,-163.14335483645732,-8.671395302011161,-13.98044914927855,-0.0316,-0.9892,-0.0756,-0.1217
133,3842213.0,3816.5790770000003,1.0,2.22,0.42,-9.64,-8.06,-18.75,36.06,-2.38,-5.63,-0.44,-0.1785436663650295,-0.3600032832639089,-0.0864243348688234,-163.14335483645732,-8.671395302011161,-13.98044914927855,-0.0316,-0.9892,-0.0756,-0.1217
134,3842248.0,3816.6266229999997,1.0,2.16,0.74,-9.47,-7.69,-18.5,35.19,-6.5,3.31,-4.44,-0.15037087901236,-0.06191312648897385,0.06664715793093734,-163.14335483645732,-8.544988083393589,-13.968904250085991,-0.0335,-0.9892,-0.0745,-0.1216
135,3842248.0,3816.6266229999997,1.0,2.16,0.74,-9.47,-7.69,-18.5,35.19,-6.5,3.31,-4.44,-0.15037087901236,-0.06191312648897385,0.06664715793093734,-163.14335483645732,-8.544988083393589,-13.968904250085991,-0.0335,-0.9892,-0.0745,-0.1216
136,3842283.0,3816.6358,1.0,2.41,0.73,-9.58,-7.69,-18.5,35.19,2.25,2.25,-3.63,0.03697808858474525,-0.1251697894251596,-0.09791284470848892,-162.9877060930459,-8.68288738926451,-14.107452479907948,-0.0339,-0.9890000000000001,-0.0757,-0.1228
137,3842283.0,3816.6358,1.0,2.41,0.73,-9.58,-7.69,-18.5,35.19,2.25,2.25,-3.63,0.03697808858474525,-0.1251697894251596,-0.09791284470848892,-162.9877060930459,-8.68288738926451,-14.107452479907948,-0.0339,-0.9890000000000001,-0.0757,-0.1228
138,3842318.0,3816.6936909999995,1.0,2.6,0.4,-9.89,-7.38,-18.75,35.69,5.5,4.38,-4.88,0.07645847851132671,-0.4696310266074641,-0.4161529815658369,-162.8334582675195,-8.751841754333862,-14.222925164993965,-0.0326,-0.9888,-0.0763,-0.1238
139,3842318.0,3816.6936909999995,1.0,2.6,0.4,-9.89,-7.38,-18.75,35.69,5.5,4.38,-4.88,0.07645847851132671,-0.4696310266074641,-0.4161529815658369,-162.8334582675195,-8.751841754333862,-14.222925164993965,-0.0326,-0.9888,-0.0763,-0.1238
140,3842355.0,3816.697604,1.0,2.53,0.32,-9.55,-7.0,-19.19,35.19,1.19,3.69,-5.44,0.07342549815585678,-0.5115964471662432,-0.06445316892025232,-162.75684793649998,-8.843785851491393,-14.280666944469896,-0.032,-0.9887,-0.0771,-0.1243
141,3842355.0,3816.697604,1.0,2.53,0.32,-9.55,-7.0,-19.19,35.19,1.19,3.69,-5.44,0.07342549815585678,-0.5115964471662432,-0.06445316892025232,-162.75684793649998,-8.843785851491393,-14.280666944469896,-0.032,-0.9887,-0.0771,-0.1243
142,3842387.0,3816.700997,1.0,2.58,0.32,-9.6,-7.0,-19.19,35.19,1.06,1.19,-2.69,0.09339299046203707,-0.5093402274056716,-0.12565337243476016,-162.68057392822612,-8.947229783297066,-14.373061379793723,-0.0313,-0.9886,-0.078,-0.1251
143,3842387.0,3816.700997,1.0,2.58,0.32,-9.6,-7.0,-19.19,35.19,1.06,1.19,-2.69,0.09339299046203707,-0.5093402274056716,-0.12565337243476016,-162.68057392822612,-8.947229783297066,-14.373061379793723,-0.0313,-0.9886,-0.078,-0.1251
144,3842422.0,3816.7304159999994,1.0,2.22,0.11,-9.3,-6.56,-18.5,35.25,-1.75,2.06,-2.5,-0.20555133412276544,-0.6297484540730774,0.26769484056912063,-162.60463181843892,-9.027691221695424,-14.373061379793723,-0.0304,-0.9885,-0.0787,-0.1251
145,3842422.0,3816.7304159999994,1.0,2.22,0.11,-9.3,-6.56,-18.5,35.25,-1.75,2.06,-2.5,-0.20555133412276544,-0.6297484540730774,0.26769484056912063,-162.60463181843892,-9.027691221695424,-14.373061379793723,-0.0304,-0.9885,-0.0787,-0.1251
146,3842457.0,3816.808284,1.0,2.29,0.45,-9.35,-6.56,-19.19,34.38,-3.44,5.88,-1.56,-0.12717875307346213,-0.3197365045472479,0.17593382037833116,-162.45372607444324,-9.039186076064473,-14.523222401516824,-0.0311,-0.9883,-0.0788,-0.1264
147,3842457.0,3816.808284,1.0,2.29,0.45,-9.35,-6.56,-19.19,34.38,-3.44,5.88,-1.56,-0.12717875307346213,-0.3197365045472479,0.17593382037833116,-162.45372607444324,-9.039186076064473,-14.523222401516824,-0.0311,-0.9883,-0.0788,-0.1264
148,3842494.0,3816.812943,1.0,2.7,0.63,-9.58,-7.69,-19.56,34.75,0.19,7.38,-0.19,0.18549007151405772,-0.2255986105074512,-0.16220142332389642,-162.37875406030932,-8.820799294692952,-14.788953503219902,-0.0319,-0.9882,-0.0769,-0.1287
149,3842494.0,3816.812943,1.0,2.7,0.63,-9.58,-7.69,-19.56,34.75,0.19,7.38,-0.19,0.18549007151405772,-0.2255986105074512,-0.16220142332389642,-162.37875406030932,-8.820799294692952,-14.788953503219902,-0.0319,-0.9882,-0.0769,-0.1287
