,TIME,ELAPSED_SECONDS,PSTATE,acc_x,acc_y,acc_z,mag_x,mag_y,mag_z,gyr_x,gyr_y,gyr_z,lin_x,lin_y,lin_z,eul_x,eul_y,eul_z,qua_w,qua_x,qua_y,qua_z
0,715081.0,552.616902,1.0,6.04,3.36,6.81,-7.56,-21.56,-38.06,9.88,1.63,6.06,0.0776247233709211,-0.22130315294998315,0.1065314792387202,-44.754098011748425,3.5873017007906127,-97.42359233173357,-0.5379999999999999,-0.3807,0.0313,-0.7514
1,715081.0,552.616902,1.0,6.04,3.36,6.81,-7.56,-21.56,-38.06,9.88,1.63,6.06,0.0776247233709211,-0.22130315294998315,0.1065314792387202,-44.754098011748425,3.5873017007906127,-97.42359233173357,-0.5379999999999999,-0.3807,0.0313,-0.7514
2,715118.0,552.667508,1.0,7.24,3.21,5.98,-7.19,-21.87,-38.19,12.31,-3.25,18.56,-0.4010671699171817,-1.5684474544533575,0.015775794504692797,-44.952445815509726,3.495584654482353,-97.77152203051998,-0.5341,-0.3823,0.0305,-0.7534
3,715118.0,552.667508,1.0,7.24,3.21,5.98,-7.19,-21.87,-38.19,12.31,-3.25,18.56,-0.4010671699171817,-1.5684474544533575,0.015775794504692797,-44.952445815509726,3.495584654482353,-97.77152203051998,-0.5341,-0.3823,0.0305,-0.7534
4,715153.0,552.69429,1.0,7.04,3.93,6.67,-7.19,-21.87,-38.19,15.25,-24.44,28.81,-0.5600865570894792,-0.6372227925669973,-0.6229065658948674,-45.635356121986106,3.7363468303015943,-98.12066633896302,-0.5273,-0.3878,0.0326,-0.7554
5,715153.0,552.69429,1.0,7.04,3.93,6.67,-7.19,-21.87,-38.19,15.25,-24.44,28.81,-0.5600865570894792,-0.6372227925669973,-0.6229065658948674,-45.635356121986106,3.7363468303015943,-98.12066633896302,-0.5273,-0.3878,0.0326,-0.7554
6,715186.0,552.735949,1.0,8.03,4.9,5.67,-7.19,-21.87,-38.56,29.19,-34.75,33.56,-1.96223721628074,-1.1181973864905703,-0.9422596987503056,-46.9938686467816,4.2179217507646545,-98.40086710313936,-0.5164,-0.3987,0.0368,-0.757
7,715186.0,552.735949,1.0,8.03,4.9,5.67,-7.19,-21.87,-38.56,29.19,-34.75,33.56,-1.96223721628074,-1.1181973864905703,-0.9422596987503056,-46.9938686467816,4.2179217507646545,-98.40086710313936,-0.5164,-0.3987,0.0368,-0.757
8,715223.0,552.743752,1.0,9.97,4.67,4.9,-10.06,-22.69,-38.06,59.13,-44.56,54.38,-2.3035990587985817,-2.5311989866793763,-1.7478410344911148,-49.47984477339551,4.309658496908005,-98.89313900458244,-0.4962,-0.4185,0.0376,-0.7598
9,715223.0,552.743752,1.0,9.97,4.67,4.9,-10.06,-22.69,-38.06,59.13,-44.56,54.38,-2.3035990587985817,-2.5311989866793763,-1.7478410344911148,-49.47984477339551,4.309658496908005,-98.89313900458244,-0.4962,-0.4185,0.0376,-0.7598
10,715259.0,552.8078879999999,1.0,12.73,5.9,3.6,-11.25,-23.69,-36.5,79.62,-85.69,67.44,-4.2377609959835185,-3.8147289254006567,-3.5092099033871067,-52.28433952334372,4.412865642375664,-99.14020348928251,-0.4742,-0.4406,0.0385,-0.7612
11,715259.0,552.8078879999999,1.0,12.73,5.9,3.6,-11.25,-23.69,-36.5,79.62,-85.69,67.44,-4.2377609959835185,-3.8147289254006567,-3.5092099033871067,-52.28433952334372,4.412865642375664,-99.14020348928251,-0.4742,-0.4406,0.0385,-0.7612
12,715292.0,552.872247,1.0,14.44,5.77,3.45,-11.25,-23.69,-36.5,66.62,-155.69,16.69,-3.4268522399004064,-3.980119009785387,-5.230781176694859,-58.31342248941901,5.4336758888612415,-96.1294081383098,-0.455,-0.4872,0.0474,-0.7439
13,715292.0,552.872247,1.0,14.44,5.77,3.45,-11.25,-23.69,-36.5,66.62,-155.69,16.69,-3.4268522399004064,-3.980119009785387,-5.230781176694859,-58.31342248941901,5.4336758888612415,-96.1294081383098,-0.455,-0.4872,0.0474,-0.7439
14,715329.0,552.877511,1.0,15.99,5.13,3.37,-16.06,-24.06,-32.38,14.06,-259.0,-63.19,-1.5095616117403916,-4.411526819593097,-6.67405249899471,-64.44384400831176,7.304427851725569,-90.177300926755,-0.4584,-0.5332,0.0637,-0.7082
15,715329.0,552.877511,1.0,15.99,5.13,3.37,-16.06,-24.06,-32.38,14.06,-259.0,-63.19,-1.5095616117403916,-4.411526819593097,-6.67405249899471,-64.44384400831176,7.304427851725569,-90.177300926755,-0.4584,-0.5332,0.0637,-0.7082
16,715366.0,552.897094,1.0,18.92,6.49,3.09,-22.5,-24.69,-29.56,29.06,-360.63,-61.25,0.8007227806010344,-3.0246097471555884,-10.189479098053905,-75.59897705351443,11.075320376717384,-79.15182427198795,-0.4575,-0.6129,0.0965,-0.6371
17,715366.0,552.897094,1.0,18.92,6.49,3.09,-22.5,-24.69,-29.56,29.06,-360.63,-61.25,0.8007227806010344,-3.0246097471555884,-10.189479098053905,-75.59897705351443,11.075320376717384,-79.15182427198795,-0.4575,-0.6129,0.0965,-0.6371
18,715403.0,552.9444980000001,1.0,14.9,5.78,5.16,-22.5,-24.69,-29.56,65.31,-412.19,-57.06,4.382054291103142,2.1324677198236897,-6.264883268911666,-85.84367215482173,14.280666944469896,-68.98522882076507,-0.4473,-0.6809999999999999,0.1243,-0.5663
19,715403.0,552.9444980000001,1.0,14.9,5.78,5.16,-22.5,-24.69,-29.56,65.31,-412.19,-57.06,4.382054291103142,2.1324677198236897,-6.264883268911666,-85.84367215482173,14.280666944469896,-68.98522882076507,-0.4473,-0.6809999999999999,0.1243,-0.5663
20,715436.0,553.0088450000001,1.0,15.03,7.63,1.58,-29.19,-25.25,-20.75,58.0,-400.5,-110.75,4.184215938693057,3.4223593728906327,-6.236853149286767,-99.77840482252957,17.90319186690899,-54.07840095968836,-0.4292,-0.7648,0.1556,-0.4546
21,715436.0,553.0088450000001,1.0,15.03,7.63,1.58,-29.19,-25.25,-20.75,58.0,-400.5,-110.75,4.184215938693057,3.4223593728906327,-6.236853149286767,-99.77840482252957,17.90319186690899,-54.07840095968836,-0.4292,-0.7648,0.1556,-0.4546
22,715472.0,553.026561,1.0,9.39,5.06,1.38,-35.69,-26.5,-7.56,106.44,-442.19,-105.31,4.588705920685293,4.548091132911202,1.20788584343644,-114.36476553066456,19.924582858932858,-38.37977954174036,-0.3946,-0.8404,0.17300000000000001,-0.3287
23,715472.0,553.026561,1.0,9.39,5.06,1.38,-35.69,-26.5,-7.56,106.44,-442.19,-105.31,4.588705920685293,4.548091132911202,1.20788584343644,-114.36476553066456,19.924582858932858,-38.37977954174036,-0.3946,-0.8404,0.17300000000000001,-0.3287
24,715509.0,553.030658,1.0,3.52,7.85,-0.85,-33.5,-29.19,5.06,5.44,-361.19,-156.5,-1.1368467644317155,4.954443181091705,2.8140487530007814,-122.92389068833596,20.52986483879688,-26.676574330601248,-0.3785,-0.8785,0.1782,-0.2307
25,715509.0,553.030658,1.0,3.52,7.85,-0.85,-33.5,-29.19,5.06,5.44,-361.19,-156.5,-1.1368467644317155,4.954443181091705,2.8140487530007814,-122.92389068833596,20.52986483879688,-26.676574330601248,-0.3785,-0.8785,0.1782,-0.2307
26,715542.0,553.195389,1.0,1.92,10.92,-3.63,-33.5,-29.19,5.06,25.44,-264.56,-173.63,-2.8339186504033664,5.2137897979278325,-0.2380003685255083,-130.24247093533856,18.35575126897081,-14.61564163128423,-0.3679,-0.9072,0.1595,-0.1272
27,715542.0,553.195389,1.0,1.92,10.92,-3.63,-33.5,-29.19,5.06,25.44,-264.56,-173.63,-2.8339186504033664,5.2137897979278325,-0.2380003685255083,-130.24247093533856,18.35575126897081,-14.61564163128423,-0.3679,-0.9072,0.1595,-0.1272
28,715579.0,553.335576,1.0,0.01,7.97,-2.39,-25.75,-34.75,15.5,136.5,-180.75,-148.63,-2.5092410414852493,4.301982590528105,3.141085118722563,-136.34269592729157,15.875832638109523,-8.154340029708836,-0.3379,-0.9283,0.1381,-0.0711
29,715579.0,553.335576,1.0,0.01,7.97,-2.39,-25.75,-34.75,15.5,136.5,-180.75,-148.63,-2.5092410414852493,4.301982590528105,3.141085118722563,-136.34269592729157,15.875832638109523,-8.154340029708836,-0.3379,-0.9283,0.1381,-0.0711
30,715618.0,553.494915,1.0,-3.19,1.91,6.2,-13.5,-34.75,25.19,-1343.31,56.81,-31.25,-3.3861342803858663,5.537315041753792,12.990427122155836,-124.60157138168795,15.424724640986323,-10.097117916179354,-0.4363,-0.8854,0.1342,-0.08800000000000001
31,715618.0,553.494915,1.0,-3.19,1.91,6.2,-13.5,-34.75,25.19,-1343.31,56.81,-31.25,-3.3861342803858663,5.537315041753792,12.990427122155836,-124.60157138168795,15.424724640986323,-10.097117916179354,-0.4363,-0.8854,0.1342,-0.08800000000000001
32,715653.0,553.533224,1.0,-0.55,2.49,-2.86,-13.5,-34.75,25.19,593.31,-0.37,-514.19,-0.8154336326598971,0.03535434614136679,6.0628527217094135,-139.96897956123578,9.349581983346614,-0.7563097804494618,-0.3324,-0.9396,0.0815,-0.0066
33,715653.0,553.533224,1.0,-0.55,2.49,-2.86,-13.5,-34.75,25.19,593.31,-0.37,-514.19,-0.8154336326598971,0.03535434614136679,6.0628527217094135,-139.96897956123578,9.349581983346614,-0.7563097804494618,-0.3324,-0.9396,0.0815,-0.0066
34,715687.0,553.549072,1.0,0.26,7.95,-1.49,-9.5,-32.25,8.0,219.88,57.0,-160.75,-0.2861394934955098,6.08339039751779,4.477420650305012,-148.98694437514695,4.89454770282183,1.2261530793833222,-0.2636,-0.9636,0.0427,0.0107
35,715687.0,553.549072,1.0,0.26,7.95,-1.49,-9.5,-32.25,8.0,219.88,57.0,-160.75,-0.2861394934955098,6.08339039751779,4.477420650305012,-148.98694437514695,4.89454770282183,1.2261530793833222,-0.2636,-0.9636,0.0427,0.0107
36,715722.0,553.5585169999999,1.0,-1.27,4.05,-2.95,-9.0,-39.0,23.19,199.94,-33.88,-113.75,-1.145003903238876,2.6374317690194573,5.511208261908953,-157.863978815261,0.04583662483277591,1.9825328715837252,-0.1912,-0.9814,0.0004,0.0173
37,715722.0,553.5585169999999,1.0,-1.27,4.05,-2.95,-9.0,-39.0,23.19,199.94,-33.88,-113.75,-1.145003903238876,2.6374317690194573,5.511208261908953,-157.863978815261,0.04583662483277591,1.9825328715837252,-0.1912,-0.9814,0.0004,0.0173
38,715759.0,553.56185,1.0,-0.92,3.15,-3.98,-4.25,-31.25,31.19,162.69,-44.81,-154.13,-0.4121507775470662,1.8838580301565055,5.022247147105797,-162.15571301144445,-3.380941489627292,4.6192907619204595,-0.1472,-0.9879,-0.0295,0.0403
39,715759.0,553.56185,1.0,-0.92,3.15,-3.98,-4.25,-31.25,31.19,162.69,-44.81,-154.13,-0.4121507775470662,1.8838580301565055,5.022247147105797,-162.15571301144445,-3.380941489627292,4.6192907619204595,-0.1472,-0.9879,-0.0295,0.0403
40,715794.0,553.604281,1.0,-0.26,0.74,-6.11,-4.25,-31.25,31.19,178.63,13.25,-151.94,0.3719922127813138,-0.3518232963849195,3.6678274612918713,-165.4050127335264,-8.970218312913039,5.582817194583068,-0.0877,-0.9919,-0.0782,0.0487
41,715794.0,553.604281,1.0,-0.26,0.74,-6.11,-4.25,-31.25,31.19,178.63,13.25,-151.94,0.3719922127813138,-0.3518232963849195,3.6678274612918713,-165.4050127335264,-8.970218312913039,5.582817194583068,-0.0877,-0.9919,-0.0782,0.0487
42,715831.0,553.621321,1.0,-0.84,-3.06,-7.61,1.37,-24.75,35.5,185.25,-49.19,-115.44,-0.6449930263006873,-3.4840904896926284,2.361759305325104,-165.2256794561049,-12.296340166976414,6.810747745686069,-0.0385,-0.9917,-0.1071,0.0594
43,715831.0,553.621321,1.0,-0.84,-3.06,-7.61,1.37,-24.75,35.5,185.25,-49.19,-115.44,-0.6449930263006873,-3.4840904896926284,2.361759305325104,-165.2256794561049,-12.296340166976414,6.810747745686069,-0.0385,-0.9917,-0.1071,0.0594
44,715868.0,553.624486,1.0,-2.09,-2.83,-6.61,4.0,-18.0,37.69,67.37,-104.06,-130.5,-1.447967833621436,-2.301505989144189,2.829862821453484,-159.9290177639615,-16.338764939656073,11.501374957383893,0.0013,-0.9847,-0.1421,0.1002
45,715868.0,553.624486,1.0,-2.09,-2.83,-6.61,4.0,-18.0,37.69,67.37,-104.06,-130.5,-1.447967833621436,-2.301505989144189,2.829862821453484,-159.9290177639615,-16.338764939656073,11.501374957383893,0.0013,-0.9847,-0.1421,0.1002
46,715902.0,553.663026,1.0,-3.98,0.05,-5.35,4.0,-18.0,37.69,16.75,-77.0,-141.31,-2.2852519170970083,1.2472618614509845,3.667646699432857,-155.05511767406654,-20.331921330362565,14.257569796129179,0.0055,-0.9764,-0.1765,0.1241
47,715902.0,553.663026,1.0,-3.98,0.05,-5.35,4.0,-18.0,37.69,16.75,-77.0,-141.31,-2.2852519170970083,1.2472618614509845,3.667646699432857,-155.05511767406654,-20.331921330362565,14.257569796129179,0.0055,-0.9764,-0.1765,0.1241
48,715937.0,553.670656,1.0,0.07,-1.81,-9.2,8.5,-13.88,38.75,53.19,7.81,-128.38,1.5427004906287818,-1.6333110009321985,0.7031687773880932,-150.84131999821054,-25.382826336621637,13.691869135619404,0.0287,-0.9678,-0.2197,0.1192
49,715937.0,553.670656,1.0,0.07,-1.81,-9.2,8.5,-13.88,38.75,53.19,7.81,-128.38,1.5427004906287818,-1.6333110009321985,0.7031687773880932,-150.84131999821054,-25.382826336621637,13.691869135619404,0.0287,-0.9678,-0.2197,0.1192
50,715972.0,553.689446,1.0,-1.11,-2.23,-8.72,11.88,-11.88,38.06,20.81,-130.69,-112.87,0.7141913730753289,-1.4926155257499945,0.8900682796928905,-144.9554604078314,-29.796111449943446,17.59004678708234,0.0341,-0.9536,-0.2571,0.1529
51,715972.0,553.689446,1.0,-1.11,-2.23,-8.72,11.88,-11.88,38.06,20.81,-130.69,-112.87,0.7141913730753289,-1.4926155257499945,0.8900682796928905,-144.9554604078314,-29.796111449943446,17.59004678708234,0.0341,-0.9536,-0.2571,0.1529
52,716009.0,553.692673,1.0,-0.2,-1.3,-9.89,13.38,-9.25,37.25,-10.06,-14.0,-115.44,2.343057280354206,-1.2434298248634907,0.188642677710261,-141.46907086921098,-33.285102998046874,18.460228812044047,0.0342,-0.9440000000000001,-0.2864,0.1604
53,716009.0,553.692673,1.0,-0.2,-1.3,-9.89,13.38,-9.25,37.25,-10.06,-14.0,-115.44,2.343057280354206,-1.2434298248634907,0.188642677710261,-141.46907086921098,-33.285102998046874,18.460228812044047,0.0342,-0.9440000000000001,-0.2864,0.1604
54,716044.0,553.73331,1.0,-0.2,-2.53,-7.87,13.38,-9.25,37.25,16.31,3.5,-100.0,0.9480965195500898,-2.064778648064551,1.8558260097387558,-137.91042216197232,-37.1323824635344,18.437010245615284,0.0425,-0.9333,-0.3184,0.1602
55,716044.0,553.73331,1.0,-0.2,-2.53,-7.87,13.38,-9.25,37.25,16.31,3.5,-100.0,0.9480965195500898,-2.064778648064551,1.8558260097387558,-137.91042216197232,-37.1323824635344,18.437010245615284,0.0425,-0.9333,-0.3184,0.1602
56,716081.0,553.750361,1.0,3.09,-2.13,-12.11,16.37,-7.56,36.19,-25.81,-12.63,-88.0,4.723087916409874,-3.993544330303709,-1.2604699603041285,-135.63926552609757,-39.948769456648414,17.891591511712036,0.0407,-0.9259999999999999,-0.3416,0.1555
57,716081.0,553.750361,1.0,3.09,-2.13,-12.11,16.37,-7.56,36.19,-25.81,-12.63,-88.0,4.723087916409874,-3.993544330303709,-1.2604699603041285,-135.63926552609757,-39.948769456648414,17.891591511712036,0.0407,-0.9259999999999999,-0.3416,0.1555
58,716118.0,553.759844,1.0,-0.13,-3.73,-8.66,16.5,-6.06,35.75,-0.56,-15.31,-58.81,0.3131328998951982,-3.003935158835785,0.8733571385455274,-132.75344370342964,-42.69210790112656,18.69245669557365,0.0416,-0.9162,-0.364,0.1624
59,716118.0,553.759844,1.0,-0.13,-3.73,-8.66,16.5,-6.06,35.75,-0.56,-15.31,-58.81,0.3131328998951982,-3.003935158835785,0.8733571385455274,-132.75344370342964,-42.69210790112656,18.69245669557365,0.0416,-0.9162,-0.364,0.1624
60,716150.0,553.7629459999999,1.0,0.82,-3.92,-9.17,16.5,-6.06,35.75,-25.25,11.94,-39.63,0.8509510119984959,-3.788343452796594,0.5842839121225545,-131.67829939723129,-44.04862567408432,18.262895263137004,0.0406,-0.9124,-0.375,0.1587
61,716150.0,553.7629459999999,1.0,0.82,-3.92,-9.17,16.5,-6.06,35.75,-25.25,11.94,-39.63,0.8509510119984959,-3.788343452796594,0.5842839121225545,-131.67829939723129,-44.04862567408432,18.262895263137004,0.0406,-0.9124,-0.375,0.1587
62,716185.0,553.807383,1.0,0.56,-3.02,-10.07,17.69,-6.0,35.69,-34.25,-8.0,-23.31,1.3654090178798757,-3.1368429480224176,-0.14999474275015778,-130.81759051018483,-45.2750645639147,17.82199325799314,0.0317,-0.9093,-0.3849,0.1549
63,716185.0,553.807383,1.0,0.56,-3.02,-10.07,17.69,-6.0,35.69,-34.25,-8.0,-23.31,1.3654090178798757,-3.1368429480224176,-0.14999474275015778,-130.81759051018483,-45.2750645639147,17.82199325799314,0.0317,-0.9093,-0.3849,0.1549
64,716220.0,553.82661,1.0,-0.88,-2.4,-9.21,18.0,-6.0,36.88,-31.25,-19.25,-6.31,0.5238025943404033,-1.7702435830079355,0.42846422134421935,-130.3788376016962,-45.77214298203665,17.92639313237552,0.0233,-0.9077,-0.3889,0.1558
65,716220.0,553.82661,1.0,-0.88,-2.4,-9.21,18.0,-6.0,36.88,-31.25,-19.25,-6.31,0.5238025943404033,-1.7702435830079355,0.42846422134421935,-130.3788376016962,-45.77214298203665,17.92639313237552,0.0233,-0.9077,-0.3889,0.1558
66,716257.0,553.829942,1.0,-2.11,-2.06,-8.46,18.37,-6.25,35.69,-39.38,1.37,-0.81,-0.4017669715526221,-0.7556370045719891,0.8884160931162555,-130.81759051018483,-45.54834570673154,17.49728858817925,0.0123,-0.9093,-0.3871,0.1521
67,716257.0,553.829942,1.0,-2.11,-2.06,-8.46,18.37,-6.25,35.69,-39.38,1.37,-0.81,-0.4017669715526221,-0.7556370045719891,0.8884160931162555,-130.81759051018483,-45.54834570673154,17.49728858817925,0.0123,-0.9093,-0.3871,0.1521
68,716292.0,553.8700150000001,1.0,-2.17,-0.46,-9.34,18.37,-6.25,35.69,-30.31,-8.38,-1.25,0.8236378349085791,0.18904122332790246,0.2441197839541527,-130.87269286132405,-45.64778844933024,17.207493384994194,0.0036,-0.9095,-0.3879,0.1496
69,716292.0,553.8700150000001,1.0,-2.17,-0.46,-9.34,18.37,-6.25,35.69,-30.31,-8.38,-1.25,0.8236378349085791,0.18904122332790246,0.2441197839541527,-130.87269286132405,-45.64778844933024,17.207493384994194,0.0036,-0.9095,-0.3879,0.1496
70,716328.0,553.877467,1.0,-2.39,-1.04,-9.06,18.0,-7.75,35.69,-17.25,-0.81,-8.31,0.1352675822756936,-0.12497541315026145,0.3809731634384352,-131.14907903681728,-45.39924946360132,17.103194349757633,-0.002,-0.9105,-0.3859,0.1487
71,716328.0,553.877467,1.0,-2.39,-1.04,-9.06,18.0,-7.75,35.69,-17.25,-0.81,-8.31,0.1352675822756936,-0.12497541315026145,0.3809731634384352,-131.14907903681728,-45.39924946360132,17.103194349757633,-0.002,-0.9105,-0.3859,0.1487
72,716363.0,553.895618,1.0,-2.52,-1.44,-8.87,19.5,-8.5,35.06,-6.69,16.75,-15.25,-0.3429523009770348,-0.27517949603191216,0.4842275699543528,-131.2878239276356,-45.39924946360132,16.720885966499374,-0.0024,-0.9109999999999999,-0.3859,0.1454
73,716363.0,553.895618,1.0,-2.52,-1.44,-8.87,19.5,-8.5,35.06,-6.69,16.75,-15.25,-0.3429523009770348,-0.27517949603191216,0.4842275699543528,-131.2878239276356,-45.39924946360132,16.720885966499374,-0.0024,-0.9109999999999999,-0.3859,0.1454
74,716396.0,553.941567,1.0,-1.24,-2.28,-10.28,19.5,-8.5,35.06,-9.31,12.88,-10.5,0.13019844851226692,-1.8263895816158489,-0.6366133530027405,-131.0660093808112,-45.99612491286469,15.817984589415364,-0.001,-0.9102,-0.3907,0.1376
75,716396.0,553.941567,1.0,-1.24,-2.28,-10.28,19.5,-8.5,35.06,-9.31,12.88,-10.5,0.13019844851226692,-1.8263895816158489,-0.6366133530027405,-131.0660093808112,-45.99612491286469,15.817984589415364,-0.001,-0.9102,-0.3907,0.1376
76,716433.0,554.0040690000001,1.0,-2.13,-1.67,-9.41,19.87,-8.06,35.88,-10.31,5.56,-4.69,-0.3048716012135953,-0.6870015068940211,0.04401806817450549,-131.20453254720215,-45.971228872033386,15.482545411826456,-0.0029,-0.9107,-0.3905,0.1347
77,716433.0,554.0040690000001,1.0,-2.13,-1.67,-9.41,19.87,-8.06,35.88,-10.31,5.56,-4.69,-0.3048716012135953,-0.6870015068940211,0.04401806817450549,-131.20453254720215,-45.971228872033386,15.482545411826456,-0.0029,-0.9107,-0.3905,0.1347
78,716468.0,554.071064,1.0,-2.23,-1.16,-8.82,18.75,-8.5,34.19,3.56,20.5,-5.63,-0.2003007099870512,-0.14945412423746365,0.6388562037626979,-131.53850453910292,-45.7597049678229,15.077882439571027,-0.0013,-0.9119,-0.3888,0.1312
79,716468.0,554.071064,1.0,-2.23,-1.16,-8.82,18.75,-8.5,34.19,3.56,20.5,-5.63,-0.2003007099870512,-0.14945412423746365,0.6388562037626979,-131.53850453910292,-45.7597049678229,15.077882439571027,-0.0013,-0.9119,-0.3888,0.1312
80,716505.0,554.078885,1.0,-1.41,-1.4,-9.41,18.75,-8.5,34.19,-1.19,25.06,-5.0,0.23049509680232624,-0.8516187877110163,0.2297080324005467,-131.62233589525562,-45.946335125324666,14.373061379793723,0.0021,-0.9122,-0.3903,0.1251
81,716505.0,554.078885,1.0,-1.41,-1.4,-9.41,18.75,-8.5,34.19,-1.19,25.06,-5.0,0.23049509680232624,-0.8516187877110163,0.2297080324005467,-131.62233589525562,-45.946335125324666,14.373061379793723,0.0021,-0.9122,-0.3903,0.1251
82,716537.0,554.097929,1.0,-1.74,-1.17,-8.73,18.0,-7.75,35.0,-5.13,43.06,-5.75,-0.13236735295390695,-0.2660799269322863,0.8332960921038151,-132.01536875371886,-45.90899880278562,13.161108413553293,0.0054,-0.9136,-0.39,0.1146
83,716537.0,554.097929,1.0,-1.74,-1.17,-8.73,18.0,-7.75,35.0,-5.13,43.06,-5.75,-0.13236735295390695,-0.2660799269322863,0.8332960921038151,-132.01536875371886,-45.90899880278562,13.161108413553293,0.0054,-0.9136,-0.39,0.1146
84,716572.0,554.101108,1.0,-0.87,-1.41,-8.85,16.5,-8.56,35.38,-28.94,80.94,-7.88,-0.08175727318854831,-0.8549917865233301,0.8439604040551281,-132.95401941873996,-45.74726752330664,10.327214181692757,0.0078,-0.9169,-0.3887,0.09
85,716572.0,554.101108,1.0,-0.87,-1.41,-8.85,16.5,-8.56,35.38,-28.94,80.94,-7.88,-0.08175727318854831,-0.8549917865233301,0.8439604040551281,-132.95401941873996,-45.74726752330664,10.327214181692757,0.0078,-0.9169,-0.3887,0.09
86,716609.0,554.142471,1.0,-0.91,-1.33,-9.4,15.0,-8.5,37.0,-18.44,45.69,4.81,-0.2183432084350696,-0.6979875737710094,0.2975943376226091,-133.85216386873807,-45.23782004339508,8.590953131273462,0.0078,-0.92,-0.3846,0.0749
87,716609.0,554.142471,1.0,-0.91,-1.33,-9.4,15.0,-8.5,37.0,-18.44,45.69,4.81,-0.2183432084350696,-0.6979875737710094,0.2975943376226091,-133.85216386873807,-45.23782004339508,8.590953131273462,0.0078,-0.92,-0.3846,0.0749
88,716642.0,554.201364,1.0,-0.59,-1.65,-8.73,15.0,-8.5,37.0,-42.06,85.5,7.44,-0.7849895692053035,-0.9689675269010591,0.9902792439547329,-134.588690989807,-45.02686284001362,5.376316314590642,0.0058,-0.9225,-0.3829,0.0469
89,716642.0,554.201364,1.0,-0.59,-1.65,-8.73,15.0,-8.5,37.0,-42.06,85.5,7.44,-0.7849895692053035,-0.9689675269010591,0.9902792439547329,-134.588690989807,-45.02686284001362,5.376316314590642,0.0058,-0.9225,-0.3829,0.0469
90,716679.0,554.209314,1.0,0.22,-0.29,-10.91,14.69,-9.56,38.0,-43.06,76.37,5.13,0.4151540119602489,-0.510371168001191,-1.0895772561298234,-135.336709981557,-44.580659579875785,2.544141615361497,0.0017,-0.925,-0.3793,0.0222
91,716679.0,554.209314,1.0,0.22,-0.29,-10.91,14.69,-9.56,38.0,-43.06,76.37,5.13,0.4151540119602489,-0.510371168001191,-1.0895772561298234,-135.336709981557,-44.580659579875785,2.544141615361497,0.0017,-0.925,-0.3793,0.0222
92,716716.0,554.271041,1.0,1.0,-0.15,-11.6,11.25,-10.75,39.0,-21.31,15.88,9.94,0.8082808468827019,-0.94604668220903,-1.770663062522056,-136.09680960991037,-43.887975339090566,1.1459346897143057,-0.0027,-0.9275,-0.3737,0.01
93,716716.0,554.271041,1.0,1.0,-0.15,-11.6,11.25,-10.75,39.0,-21.31,15.88,9.94,0.8082808468827019,-0.94604668220903,-1.770663062522056,-136.09680960991037,-43.887975339090566,1.1459346897143057,-0.0027,-0.9275,-0.3737,0.01
94,716750.0,554.28768,1.0,-0.23,-0.05,-9.82,11.25,-10.75,39.0,-9.19,-23.06,14.56,-0.00040019291881074337,-0.1061161087687008,-0.01559715690383534,-136.43524351543036,-43.505251180584146,1.581413711340907,-0.006999999999999999,-0.9286,-0.3706,0.0138
95,716750.0,554.28768,1.0,-0.23,-0.05,-9.82,11.25,-10.75,39.0,-9.19,-23.06,14.56,-0.00040019291881074337,-0.1061161087687008,-0.01559715690383534,-136.43524351543036,-43.505251180584146,1.581413711340907,-0.006999999999999999,-0.9286,-0.3706,0.0138
96,716783.0,554.348462,1.0,0.36,0.44,-10.43,10.19,-12.25,38.06,-3.0,-14.94,5.13,0.8437462771074951,-0.2860101929590467,-0.6007699679551131,-137.02578084639396,-42.889024777076095,2.1659094260652934,-0.0113,-0.9305,-0.3656,0.0189
97,716783.0,554.348462,1.0,0.36,0.44,-10.43,10.19,-12.25,38.06,-3.0,-14.94,5.13,0.8437462771074951,-0.2860101929590467,-0.6007699679551131,-137.02578084639396,-42.889024777076095,2.1659094260652934,-0.0113,-0.9305,-0.3656,0.0189
98,716820.0,554.388738,1.0,-0.69,0.0,-9.44,9.75,-13.0,37.25,-1.0,-23.87,5.38,-0.1705923222376895,0.06356809075070423,0.34321735864666003,-137.56078717941855,-42.32324429701836,2.7963115557322795,-0.0133,-0.9322,-0.361,0.0244
99,716820.0,554.388738,1.0,-0.69,0.0,-9.44,9.75,-13.0,37.25,-1.0,-23.87,5.38,-0.1705923222376895,0.06356809075070423,0.34321735864666003,-137.56078717941855,-42.32324429701836,2.7963115557322795,-0.0133,-0.9322,-0.361,0.0244
100,716855.0,554.4036179999999,1.0,-0.54,0.14,-9.39,9.75,-13.0,37.25,-0.75,-5.44,2.19,0.07448150486218429,0.024104649056314837,0.40041953975040206,-137.97429037596618,-41.84440708007335,3.140201723904295,-0.0146,-0.9335,-0.3571,0.0274
101,716855.0,554.4036179999999,1.0,-0.54,0.14,-9.39,9.75,-13.0,37.25,-0.75,-5.44,2.19,0.07448150486218429,0.024104649056314837,0.40041953975040206,-137.97429037596618,-41.84440708007335,3.140201723904295,-0.0146,-0.9335,-0.3571,0.0274
102,716890.0,554.408783,1.0,0.07,-0.16,-10.03,10.5,-13.0,37.06,6.25,-2.94,-0.31,0.3682286861954625,-0.6258707873421103,-0.1985533158859152,-138.00625925895054,-41.832139296563675,3.1975194185389717,-0.0139,-0.9336,-0.35700000000000004,0.0279
103,716890.0,554.408783,1.0,0.07,-0.16,-10.03,10.5,-13.0,37.06,6.25,-2.94,-0.31,0.3682286861954625,-0.6258707873421103,-0.1985533158859152,-138.00625925895054,-41.832139296563675,3.1975194185389717,-0.0139,-0.9336,-0.35700000000000004,0.0279
104,716924.0,554.46488,1.0,-0.84,-0.33,-9.23,10.5,-12.56,37.88,-0.12,-11.19,-1.06,-0.4056652742312679,-0.14228744493770906,0.542601750541456,-138.26285199839916,-41.53786260419432,3.5529075421905287,-0.0144,-0.9344,-0.3546,0.031
105,716924.0,554.46488,1.0,-0.84,-0.33,-9.23,10.5,-12.56,37.88,-0.12,-11.19,-1.06,-0.4056652742312679,-0.14228744493770906,0.542601750541456,-138.26285199839916,-41.53786260419432,3.5529075421905287,-0.0144,-0.9344,-0.3546,0.031
106,716961.0,554.514207,1.0,-0.21,0.09,-9.8,11.25,-12.56,37.88,1.0,4.13,-2.81,0.36243582938815744,-0.2776703818866071,0.014625723651480628,-138.4562899093435,-41.341837382049434,3.5185137037623337,-0.0148,-0.935,-0.353,0.0307
107,716961.0,554.514207,1.0,-0.21,0.09,-9.8,11.25,-12.56,37.88,1.0,4.13,-2.81,0.36243582938815744,-0.2776703818866071,0.014625723651480628,-138.4562899093435,-41.341837382049434,3.5185137037623337,-0.0148,-0.935,-0.353,0.0307
108,716994.0,554.5328440000001,1.0,-0.33,-0.15,-9.64,11.25,-12.56,37.88,2.81,4.13,-5.88,0.10164589580788574,-0.3274602111661332,0.16593229217510694,-138.26285199839916,-41.53786260419432,3.40386984812725,-0.0128,-0.9344,-0.3546,0.0297
109,716994.0,554.5328440000001,1.0,-0.33,-0.15,-9.64,11.25,-12.56,37.88,2.81,4.13,-5.88,0.10164589580788574,-0.3274602111661332,0.16593229217510694,-138.26285199839916,-41.53786260419432,3.40386984812725,-0.0128,-0.9344,-0.3546,0.0297
110,717031.0,554.576547,1.0,-0.4,-0.5,-9.63,11.25,-12.56,37.5,-0.88,0.94,-4.69,-0.19118189377894346,-0.5379098974874952,0.17228430081273238,-138.39171512082905,-41.452085959696824,3.346549205454908,-0.0127,-0.9348,-0.3539,0.0292
111,717031.0,554.576547,1.0,-0.4,-0.5,-9.63,11.25,-12.56,37.5,-0.88,0.94,-4.69,-0.19118189377894346,-0.5379098974874952,0.17228430081273238,-138.39171512082905,-41.452085959696824,3.346549205454908,-0.0127,-0.9348,-0.3539,0.0292
112,717068.0,554.660526,1.0,-0.05,-0.59,-9.86,11.25,-12.25,37.5,-4.81,0.56,-0.31,0.0025979037295039142,-0.8354510483027511,-0.03571835303302784,-138.5533323833026,-41.280605467484456,3.2089830530311807,-0.0125,-0.9353,-0.3525,0.027999999999999997
113,717068.0,554.660526,1.0,-0.05,-0.59,-9.86,11.25,-12.25,37.5,-4.81,0.56,-0.31,0.0025979037295039142,-0.8354510483027511,-0.03571835303302784,-138.5533323833026,-41.280605467484456,3.2089830530311807,-0.0125,-0.9353,-0.3525,0.027999999999999997
114,717101.0,554.664312,1.0,-0.15,-0.23,-9.7,11.25,-12.25,37.5,-1.56,5.63,-2.81,0.13108446873286114,-0.5027894898295142,0.1166851088884755,-138.48861330559185,-41.35408524581363,3.082884815106741,-0.0135,-0.9351,-0.3531,0.0269
115,717101.0,554.664312,1.0,-0.15,-0.23,-9.7,11.25,-12.25,37.5,-1.56,5.63,-2.81,0.13108446873286114,-0.5027894898295142,0.1166851088884755,-138.48861330559185,-41.35408524581363,3.082884815106741,-0.0135,-0.9351,-0.3531,0.0269
116,717135.0,554.713707,1.0,0.0,0.2,-10.01,12.38,-12.25,36.5,-8.25,5.13,-2.31,0.48182776027719,-0.2839705157329364,-0.18971447692963567,-138.42399053309921,-41.41533197987328,2.7504615040371316,-0.0141,-0.9349,-0.3536,0.024
117,717135.0,554.713707,1.0,0.0,0.2,-10.01,12.38,-12.25,36.5,-8.25,5.13,-2.31,0.48182776027719,-0.2839705157329364,-0.18971447692963567,-138.42399053309921,-41.41533197987328,2.7504615040371316,-0.0141,-0.9349,-0.3536,0.024
118,717170.0,554.718663,1.0,-0.15,-0.54,-9.67,11.25,-13.0,36.88,0.0,5.38,-1.0,-0.1385037128505188,-0.69797818469934,0.14659600557479102,-138.6505925631453,-41.219385875064134,2.6473004867786654,-0.0129,-0.9356,-0.35200000000000004,0.0231
119,717170.0,554.718663,1.0,-0.15,-0.54,-9.67,11.25,-13.0,36.88,0.0,5.38,-1.0,-0.1385037128505188,-0.69797818469934,0.14659600557479102,-138.6505925631453,-41.219385875064134,2.6473004867786654,-0.0129,-0.9356,-0.35200000000000004,0.0231
120,717207.0,554.736661,1.0,-0.21,-0.33,-9.61,11.25,-13.0,36.88,-4.25,1.0,-1.56,-0.07476124471148413,-0.5108732067092645,0.20256132262119309,-138.94369485234358,-40.9501654253067,2.509755787270372,-0.013999999999999999,-0.9365,-0.3498,0.0219
121,717207.0,554.736661,1.0,-0.21,-0.33,-9.61,11.25,-13.0,36.88,-4.25,1.0,-1.56,-0.07476124471148413,-0.5108732067092645,0.20256132262119309,-138.94369485234358,-40.9501654253067,2.509755787270372,-0.013999999999999999,-0.9365,-0.3498,0.0219
122,717240.0,554.783358,1.0,-0.15,0.06,-9.83,10.5,-13.0,36.5,-9.56,3.13,-1.63,0.18890550591227456,-0.2820377738737857,-0.01881535304788073,-138.87838831455554,-40.99909698527016,2.3034454566839293,-0.0156,-0.9363,-0.3502,0.0201
123,717240.0,554.783358,1.0,-0.15,0.06,-9.83,10.5,-13.0,36.5,-9.56,3.13,-1.63,0.18890550591227456,-0.2820377738737857,-0.01881535304788073,-138.87838831455554,-40.99909698527016,2.3034454566839293,-0.0156,-0.9363,-0.3502,0.0201
124,717277.0,554.800919,1.0,-0.27,0.13,-9.45,10.88,-13.38,37.38,-8.06,6.13,-2.94,0.07650791176595245,-0.13693910147521926,0.35320119959258633,-139.04184146178912,-40.84009791641019,1.9825328715837252,-0.0168,-0.9368,-0.3489,0.0173
125,717277.0,554.800919,1.0,-0.27,0.13,-9.45,10.88,-13.38,37.38,-8.06,6.13,-2.94,0.07650791176595245,-0.13693910147521926,0.35320119959258633,-139.04184146178912,-40.84009791641019,1.9825328715837252,-0.0168,-0.9368,-0.3489,0.0173
126,717312.0,554.849362,1.0,-0.21,0.22,-9.6,10.88,-13.0,37.88,-6.31,1.06,0.75,0.14873485801428962,-0.11987837303140222,0.2037334056683182,-139.2388131216407,-40.668959944372276,1.79916139442209,-0.0177,-0.9374,-0.3475,0.0157
127,717312.0,554.849362,1.0,-0.21,0.22,-9.6,10.88,-13.0,37.88,-6.31,1.06,0.75,0.14873485801428962,-0.11987837303140222,0.2037334056683182,-139.2388131216407,-40.668959944372276,1.79916139442209,-0.0177,-0.9374,-0.3475,0.0157
128,717346.0,554.92169,1.0,-0.25,0.05,-9.5,10.88,-13.0,37.88,-8.13,5.75,-1.88,-0.04861688420598255,-0.2283716310343044,0.3060982898776459,-139.14021367291954,-40.742293166188276,1.5126525087430307,-0.0192,-0.9371,-0.3481,0.0132
129,717346.0,554.92169,1.0,-0.25,0.05,-9.5,10.88,-13.0,37.88,-8.13,5.75,-1.88,-0.04861688420598255,-0.2283716310343044,0.3060982898776459,-139.14021367291954,-40.742293166188276,1.5126525087430307,-0.0192,-0.9371,-0.3481,0.0132
130,717381.0,554.9408559999999,1.0,0.32,0.36,-10.24,10.5,-14.06,37.88,-8.38,8.5,-1.88,0.5197253138417344,-0.4043638134113653,-0.4235003168113565,-139.33764146351638,-40.54677652678586,1.1344749665222489,-0.0208,-0.9377,-0.3465,0.0099
131,717381.0,554.9408559999999,1.0,0.32,0.36,-10.24,10.5,-14.06,37.88,-8.38,8.5,-1.88,0.5197253138417344,-0.4043638134113653,-0.4235003168113565,-139.33764146351638,-40.54677652678586,1.1344749665222489,-0.0208,-0.9377,-0.3465,0.0099
132,717418.0,554.945336,1.0,0.07,-0.14,-9.72,10.19,-13.75,37.0,-2.06,2.06,-0.75,-0.016331316008192598,-0.5902563407679826,0.103339701947041,-139.5691405181039,-40.36359153375482,1.0084187350403075,-0.0208,-0.9384,-0.345,0.0088
133,717418.0,554.945336,1.0,0.07,-0.14,-9.72,10.19,-13.75,37.0,-2.06,2.06,-0.75,-0.016331316008192598,-0.5902563407679826,0.103339701947041,-139.5691405181039,-40.36359153375482,1.0084187350403075,-0.0208,-0.9384,-0.345,0.0088
134,717453.0,554.9889730000001,1.0,-0.05,0.19,-9.69,10.19,-13.75,37.0,-5.75,0.31,-0.31,0.08883992402146076,-0.278566338526616,0.11906989643751233,-139.5691405181039,-40.351383033032214,0.9511208605830096,-0.022000000000000002,-0.9384,-0.3449,0.0083
135,717453.0,554.9889730000001,1.0,-0.05,0.19,-9.69,10.19,-13.75,37.0,-5.75,0.31,-0.31,0.08883992402146076,-0.278566338526616,0.11906989643751233,-139.5691405181039,-40.351383033032214,0.9511208605830096,-0.022000000000000002,-0.9384,-0.3449,0.0083
136,717486.0,555.0084320000001,1.0,0.16,0.43,-9.93,10.88,-13.38,36.56,-5.19,3.56,-1.81,0.3688573494278228,-0.2535848963600251,-0.12386050833295136,-139.5028685781741,-40.38800996971994,0.7792286067117273,-0.0231,-0.9382,-0.3452,0.0068
137,717486.0,555.0084320000001,1.0,0.16,0.43,-9.93,10.88,-13.38,36.56,-5.19,3.56,-1.81,0.3688573494278228,-0.2535848963600251,-0.12386050833295136,-139.5028685781741,-40.38800996971994,0.7792286067117273,-0.0231,-0.9382,-0.3452,0.0068
138,717520.0,555.05628,1.0,-0.18,0.05,-9.61,10.19,-14.88,37.06,-1.44,-1.88,-0.81,-0.13366058490298385,-0.3040268385114753,0.2005736662668518,-139.76858389100772,-40.13171155486349,0.7792286067117273,-0.0229,-0.9390000000000001,-0.3431,0.0068
139,717520.0,555.05628,1.0,-0.18,0.05,-9.61,10.19,-14.88,37.06,-1.44,-1.88,-0.81,-0.13366058490298385,-0.3040268385114753,0.2005736662668518,-139.76858389100772,-40.13171155486349,0.7792286067117273,-0.0229,-0.9390000000000001,-0.3431,0.0068
140,717555.0,555.150646,1.0,-0.08,0.27,-9.66,10.19,-14.88,37.06,-5.13,1.75,-1.44,0.07092735764932337,-0.20617388783575125,0.1450061627478938,-139.73527758064992,-40.15611188549902,0.7104722177704716,-0.0233,-0.9389,-0.3433,0.0062
141,717555.0,555.150646,1.0,-0.08,0.27,-9.66,10.19,-14.88,37.06,-5.13,1.75,-1.44,0.07092735764932337,-0.20617388783575125,0.1450061627478938,-139.73527758064992,-40.15611188549902,0.7104722177704716,-0.0233,-0.9389,-0.3433,0.0062
