,TIME,ELAPSED_SECONDS,PSTATE,acc_x,acc_y,acc_z,mag_x,mag_y,mag_z,gyr_x,gyr_y,gyr_z,lin_x,lin_y,lin_z,eul_x,eul_y,eul_z,qua_w,qua_x,qua_y,qua_z
0,2696265.0,2668.475638,1.0,1.98,0.92,9.72,15.19,-8.38,-41.06,-0.94,-2.56,-5.88,-0.1686776110525541,-0.2778701243602513,-0.1502338527682774,-10.453784866884499,2.681687249969397,-99.44105363347383,-0.6396,-0.0911,0.0234,-0.7629
1,2696265.0,2668.475638,1.0,1.98,0.92,9.72,15.19,-8.38,-41.06,-0.94,-2.56,-5.88,-0.1686776110525541,-0.2778701243602513,-0.1502338527682774,-10.453784866884499,2.681687249969397,-99.44105363347383,-0.6396,-0.0911,0.0234,-0.7629
2,2696300.0,2668.48196,1.0,2.69,1.27,9.65,15.19,-8.06,-41.5,-0.06,-10.06,-26.31,-0.6087133372362548,-0.8963628608304575,-0.23314589906062544,-10.6148933492606,2.7733864743736323,-98.85789490415894,-0.6433,-0.0925,0.0242,-0.7596
3,2696300.0,2668.48196,1.0,2.69,1.27,9.65,15.19,-8.06,-41.5,-0.06,-10.06,-26.31,-0.6087133372362548,-0.8963628608304575,-0.23314589906062544,-10.6148933492606,2.7733864743736323,-98.85789490415894,-0.6433,-0.0925,0.0242,-0.7596
4,2696335.0,2668.4927190000003,1.0,6.0,1.32,8.87,15.19,-8.06,-41.5,3.69,-33.88,-57.81,-0.9924000223797408,-4.1105552108873145,-0.11996966904282047,-11.662626087112969,3.243374149708243,-96.67958303327644,-0.6563,-0.1016,0.0283,-0.7471
5,2696335.0,2668.4927190000003,1.0,6.0,1.32,8.87,15.19,-8.06,-41.5,3.69,-33.88,-57.81,-0.9924000223797408,-4.1105552108873145,-0.11996966904282047,-11.662626087112969,3.243374149708243,-96.67958303327644,-0.6563,-0.1016,0.0283,-0.7471
6,2696370.0,2668.54429,1.0,10.1,2.24,9.09,15.19,-7.69,-41.88,4.5,-157.0,-132.44,-1.6649578376084784,-7.46952273315584,-1.6427973900644766,-14.46546520944767,5.0436569106979485,-92.98762003555102,-0.6754,-0.1259,0.044000000000000004,-0.7253
7,2696370.0,2668.54429,1.0,10.1,2.24,9.09,15.19,-7.69,-41.88,4.5,-157.0,-132.44,-1.6649578376084784,-7.46952273315584,-1.6427973900644766,-14.46546520944767,5.0436569106979485,-92.98762003555102,-0.6754,-0.1259,0.044000000000000004,-0.7253
8,2696407.0,2668.5616059999998,1.0,8.86,-0.08,10.84,13.25,-6.19,-41.5,-3.5,-268.38,-242.5,2.3574675111483003,-4.050186724605522,-3.3861485821700983,-21.50886039245491,9.717547848465047,-83.27262296307823,-0.7187,-0.1866,0.0847,-0.6644
9,2696407.0,2668.5616059999998,1.0,8.86,-0.08,10.84,13.25,-6.19,-41.5,-3.5,-268.38,-242.5,2.3574675111483003,-4.050186724605522,-3.3861485821700983,-21.50886039245491,9.717547848465047,-83.27262296307823,-0.7187,-0.1866,0.0847,-0.6644
10,2696443.0,2668.621078,1.0,12.47,3.05,9.96,13.25,-6.19,-41.5,-21.5,-297.0,-244.94,0.9580708994739352,-5.953905609979395,-5.281030674611232,-27.218614801739264,14.881400387429185,-73.96915070870061,-0.7523,-0.2353,0.1295,-0.6016
11,2696443.0,2668.621078,1.0,12.47,3.05,9.96,13.25,-6.19,-41.5,-21.5,-297.0,-244.94,0.9580708994739352,-5.953905609979395,-5.281030674611232,-27.218614801739264,14.881400387429185,-73.96915070870061,-0.7523,-0.2353,0.1295,-0.6016
12,2696478.0,2668.6643329999997,1.0,11.12,1.81,10.27,4.0,-4.69,-43.06,41.63,-349.06,-214.69,3.099248867749898,-0.9756429658837902,-5.087851578061367,-36.830309031624424,21.917240280609395,-61.80784574236153,-0.7748,-0.3159,0.1901,-0.5136
13,2696478.0,2668.6643329999997,1.0,11.12,1.81,10.27,4.0,-4.69,-43.06,41.63,-349.06,-214.69,3.099248867749898,-0.9756429658837902,-5.087851578061367,-36.830309031624424,21.917240280609395,-61.80784574236153,-0.7748,-0.3159,0.1901,-0.5136
14,2696513.0,2668.684684,1.0,10.6,5.95,10.13,-9.38,-5.0,-44.0,-23.25,-316.88,-228.25,-0.19121610343527215,1.1264056066515011,-5.975429926647536,-44.89044689976561,28.978694933911964,-49.12681310673511,-0.7866,-0.3818,0.2502,-0.4157
15,2696513.0,2668.684684,1.0,10.6,5.95,10.13,-9.38,-5.0,-44.0,-23.25,-316.88,-228.25,-0.19121610343527215,1.1264056066515011,-5.975429926647536,-44.89044689976561,28.978694933911964,-49.12681310673511,-0.7866,-0.3818,0.2502,-0.4157
16,2696550.0,2668.7255649999997,1.0,8.47,7.81,8.12,-21.25,-8.19,-38.19,53.25,-253.31,-192.63,-2.2364444938410704,1.3299951687299745,-4.046177468683888,-50.44061941505198,32.53234621871178,-40.87678270719479,-0.7862,-0.4261,0.2801,-0.3492
17,2696550.0,2668.7255649999997,1.0,8.47,7.81,8.12,-21.25,-8.19,-38.19,53.25,-253.31,-192.63,-2.2364444938410704,1.3299951687299745,-4.046177468683888,-50.44061941505198,32.53234621871178,-40.87678270719479,-0.7862,-0.4261,0.2801,-0.3492
18,2696585.0,2668.742539,1.0,9.69,8.45,6.82,-21.25,-8.19,-38.19,112.75,-199.19,-168.06,-0.9155950752080708,1.9285798883515888,-4.589643456042793,-58.970568079244025,34.60301565627788,-32.711441879621354,-0.7681,-0.4922,0.2974,-0.2816
19,2696585.0,2668.742539,1.0,9.69,8.45,6.82,-21.25,-8.19,-38.19,112.75,-199.19,-168.06,-0.9155950752080708,1.9285798883515888,-4.589643456042793,-58.970568079244025,34.60301565627788,-32.711441879621354,-0.7681,-0.4922,0.2974,-0.2816
20,2696622.0,2668.778264,1.0,7.28,10.13,5.64,-29.37,-13.19,-31.75,132.63,-180.38,-169.44,-2.8449908516237126,2.038813281068552,-3.4286878294290624,-65.20397390849297,35.27575900730597,-26.923951406436,-0.7509,-0.5388,0.303,-0.2328
21,2696622.0,2668.778264,1.0,7.28,10.13,5.64,-29.37,-13.19,-31.75,132.63,-180.38,-169.44,-2.8449908516237126,2.038813281068552,-3.4286878294290624,-65.20397390849297,35.27575900730597,-26.923951406436,-0.7509,-0.5388,0.303,-0.2328
22,2696658.0,2668.8329350000004,1.0,6.83,9.98,3.08,-31.75,-19.56,-25.25,184.31,-169.75,-155.38,-1.7119509580292362,1.8684854445485837,-2.412747941830558,-75.20793134376436,35.07140174532199,-20.70457229377833,-0.7103,-0.6102,0.3013,-0.1797
23,2696658.0,2668.8329350000004,1.0,6.83,9.98,3.08,-31.75,-19.56,-25.25,184.31,-169.75,-155.38,-1.7119509580292362,1.8684854445485837,-2.412747941830558,-75.20793134376436,35.07140174532199,-20.70457229377833,-0.7103,-0.6102,0.3013,-0.1797
24,2696695.0,2668.8924230000002,1.0,3.87,11.33,4.4,-31.75,-19.56,-25.25,172.0,-186.13,-136.94,-4.515858973301316,4.556681713807731,-1.2182975958983278,-84.90830040880186,35.37196719600466,-14.46546520944767,-0.6605,-0.675,0.3038,-0.1259
25,2696695.0,2668.8924230000002,1.0,3.87,11.33,4.4,-31.75,-19.56,-25.25,172.0,-186.13,-136.94,-4.515858973301316,4.556681713807731,-1.2182975958983278,-84.90830040880186,35.37196719600466,-14.46546520944767,-0.6605,-0.675,0.3038,-0.1259
26,2696730.0,2668.910064,1.0,3.06,9.99,2.19,-31.56,-27.0,-15.19,230.06,-117.75,-110.69,-3.5780642844007566,3.6738309042588777,0.4439461990882077,-92.58886357052627,34.75907767623433,-11.478340954533572,-0.615,-0.7229,0.2987,-0.1
27,2696730.0,2668.910064,1.0,3.06,9.99,2.19,-31.56,-27.0,-15.19,230.06,-117.75,-110.69,-3.5780642844007566,3.6738309042588777,0.4439461990882077,-92.58886357052627,34.75907767623433,-11.478340954533572,-0.615,-0.7229,0.2987,-0.1
28,2696767.0,2668.9503019999997,1.0,1.68,9.77,2.29,-29.19,-31.0,-7.5,240.63,-99.94,-70.94,-4.357985989379157,4.956908042549252,2.063496845497274,-102.74115590851987,33.83566809114509,-9.073671186517632,-0.5466,-0.7812,0.29100000000000004,-0.0791
29,2696767.0,2668.9503019999997,1.0,1.68,9.77,2.29,-29.19,-31.0,-7.5,240.63,-99.94,-70.94,-4.357985989379157,4.956908042549252,2.063496845497274,-102.74115590851987,33.83566809114509,-9.073671186517632,-0.5466,-0.7812,0.29100000000000004,-0.0791
30,2696802.0,2668.96332,1.0,0.7,7.92,1.19,-27.06,-32.06,-0.19,278.88,-68.25,-15.88,-3.9611729072724198,4.108149595744054,4.144078490722704,-110.1495692444103,33.57225481905068,-8.92424161449454,-0.4882,-0.8199,0.2888,-0.0778
31,2696802.0,2668.96332,1.0,0.7,7.92,1.19,-27.06,-32.06,-0.19,278.88,-68.25,-15.88,-3.9611729072724198,4.108149595744054,4.144078490722704,-110.1495692444103,33.57225481905068,-8.92424161449454,-0.4882,-0.8199,0.2888,-0.0778
32,2696837.0,2669.015459,1.0,0.85,5.41,0.38,-27.06,-32.06,-0.19,286.69,-53.69,16.62,-2.4630427705716613,3.4147401115295244,6.284155105603983,-119.62852711601612,33.943481085591756,-10.51132121524803,-0.39899999999999997,-0.8644,0.2919,-0.0916
33,2696837.0,2669.015459,1.0,0.85,5.41,0.38,-27.06,-32.06,-0.19,286.69,-53.69,16.62,-2.4630427705716613,3.4147401115295244,6.284155105603983,-119.62852711601612,33.943481085591756,-10.51132121524803,-0.39899999999999997,-0.8644,0.2919,-0.0916
34,2696871.0,2669.0737510000004,1.0,-1.71,4.05,-0.09,-26.69,-31.5,9.19,250.94,-47.19,12.31,-3.768848850724301,1.5986623316833302,8.202045036262529,-125.47069041747116,34.14721243955784,-11.628070333672753,-0.3366,-0.8889,0.2936,-0.1013
35,2696871.0,2669.0737510000004,1.0,-1.71,4.05,-0.09,-26.69,-31.5,9.19,250.94,-47.19,12.31,-3.768848850724301,1.5986623316833302,8.202045036262529,-125.47069041747116,34.14721243955784,-11.628070333672753,-0.3366,-0.8889,0.2936,-0.1013
36,2696908.0,2669.091277,1.0,-4.94,-0.58,1.17,-25.56,-29.56,16.69,248.19,30.25,18.69,-3.524127984053545,-2.0551441735704943,12.883304738161227,-131.90276546625157,33.58422417640036,-14.38461134345722,-0.2586,-0.9132,0.2889,-0.1252
37,2696908.0,2669.091277,1.0,-4.94,-0.58,1.17,-25.56,-29.56,16.69,248.19,30.25,18.69,-3.524127984053545,-2.0551441735704943,12.883304738161227,-131.90276546625157,33.58422417640036,-14.38461134345722,-0.2586,-0.9132,0.2889,-0.1252
38,2696945.0,2669.094815,1.0,-3.2,-1.02,0.57,-25.56,-29.56,16.69,150.5,148.38,2.44,-1.8329355949781239,-1.883283337579391,11.97434254624774,-133.82293398949477,32.3533321925502,-18.86667840059343,-0.2221,-0.9199,0.2786,-0.1639
39,2696945.0,2669.094815,1.0,-3.2,-1.02,0.57,-25.56,-29.56,16.69,150.5,148.38,2.44,-1.8329355949781239,-1.883283337579391,11.97434254624774,-133.82293398949477,32.3533321925502,-18.86667840059343,-0.2221,-0.9199,0.2786,-0.1639
40,2696978.0,2669.133622,1.0,5.26,-0.17,-4.54,-24.87,-24.0,22.87,66.69,282.75,-15.88,2.5258968784872415,-0.6516587821342963,3.3643456148505635,-131.2600452849924,28.990530688715445,-28.422768181257144,-0.2174,-0.9109,0.2503,-0.2455
41,2696978.0,2669.133622,1.0,5.26,-0.17,-4.54,-24.87,-24.0,22.87,66.69,282.75,-15.88,2.5258968784872415,-0.6516587821342963,3.3643456148505635,-131.2600452849924,28.990530688715445,-28.422768181257144,-0.2174,-0.9109,0.2503,-0.2455
42,2697015.0,2669.201372,1.0,4.6,-1.89,-6.12,-28.19,-21.0,21.0,62.19,207.38,7.19,1.3069707747628594,-3.5270455039404065,2.875684886319977,-126.65833324064701,26.441094791301843,-37.37423381555307,-0.2156,-0.8936,0.2287,-0.3204
43,2697015.0,2669.201372,1.0,4.6,-1.89,-6.12,-28.19,-21.0,21.0,62.19,207.38,7.19,1.3069707747628594,-3.5270455039404065,2.875684886319977,-126.65833324064701,26.441094791301843,-37.37423381555307,-0.2156,-0.8936,0.2287,-0.3204
44,2697052.0,2669.2198129999997,1.0,8.77,-4.49,-1.66,-32.0,-20.56,16.69,72.75,230.56,66.06,6.986134875373661,-2.3433971311702817,3.0589830410644385,-122.73229666048941,26.25279302590076,-43.52992762326994,-0.2015,-0.8777,0.2271,-0.3708
45,2697052.0,2669.2198129999997,1.0,8.77,-4.49,-1.66,-32.0,-20.56,16.69,72.75,230.56,66.06,6.986134875373661,-2.3433971311702817,3.0589830410644385,-122.73229666048941,26.25279302590076,-43.52992762326994,-0.2015,-0.8777,0.2271,-0.3708
46,2697084.0,2669.262495,1.0,11.96,-2.78,-3.08,-32.0,-20.56,16.69,-63.44,210.88,30.62,5.7513286175132325,-1.6427187530811085,-1.3504147677446507,-114.9378688809502,26.170433719349266,-51.95268548055449,-0.2143,-0.8431,0.2264,-0.43799999999999994
47,2697084.0,2669.262495,1.0,11.96,-2.78,-3.08,-32.0,-20.56,16.69,-63.44,210.88,30.62,5.7513286175132325,-1.6427187530811085,-1.3504147677446507,-114.9378688809502,26.170433719349266,-51.95268548055449,-0.2143,-0.8431,0.2264,-0.43799999999999994
48,2697121.0,2669.281509,1.0,14.5,-3.96,-3.45,-34.88,-17.06,11.06,-29.44,217.06,72.56,6.060546536900108,-2.9172660113059035,-4.071153669649869,-108.48549085474319,26.73546210533703,-58.28718053424962,-0.2255,-0.8115,0.2312,-0.48700000000000004
49,2697121.0,2669.281509,1.0,14.5,-3.96,-3.45,-34.88,-17.06,11.06,-29.44,217.06,72.56,6.060546536900108,-2.9172660113059035,-4.071153669649869,-108.48549085474319,26.73546210533703,-58.28718053424962,-0.2255,-0.8115,0.2312,-0.48700000000000004
50,2697160.0,2669.324323,1.0,16.79,2.02,-4.32,-39.5,-15.88,2.38,-159.88,11.0,32.44,1.9083602218703148,0.9457003438416524,-7.5170537645891695,-103.05373789076752,29.772396589189743,-60.41061431817495,-0.2608,-0.7829,0.2569,-0.5031
51,2697160.0,2669.324323,1.0,16.79,2.02,-4.32,-39.5,-15.88,2.38,-159.88,11.0,32.44,1.9083602218703148,0.9457003438416524,-7.5170537645891695,-103.05373789076752,29.772396589189743,-60.41061431817495,-0.2608,-0.7829,0.2569,-0.5031
52,2697195.0,2669.381513,1.0,9.76,2.04,-4.77,-39.5,-15.88,2.38,-6.5,-18.0,46.75,-0.9768044464597226,-0.30085402923533505,-1.1991411994762728,-101.97342600574191,31.924028325694472,-59.80162063871753,-0.2684,-0.777,0.275,-0.4985
53,2697195.0,2669.381513,1.0,9.76,2.04,-4.77,-39.5,-15.88,2.38,-6.5,-18.0,46.75,-0.9768044464597226,-0.30085402923533505,-1.1991411994762728,-101.97342600574191,31.924028325694472,-59.80162063871753,-0.2684,-0.777,0.275,-0.4985
54,2697230.0,2669.395277,1.0,11.01,-1.02,-0.02,-42.19,-15.38,0.37,15.0,-20.37,61.94,4.39509200712892,1.4860956755488792,-0.2300619063957612,-102.5761026611454,33.22530683110648,-59.99999999999999,-0.2435,-0.7803,0.2859,-0.5
55,2697230.0,2669.395277,1.0,11.01,-1.02,-0.02,-42.19,-15.38,0.37,15.0,-20.37,61.94,4.39509200712892,1.4860956755488792,-0.2300619063957612,-102.5761026611454,33.22530683110648,-59.99999999999999,-0.2435,-0.7803,0.2859,-0.5
56,2697265.0,2669.487932,1.0,11.79,3.87,-6.98,-42.88,-14.38,5.69,-7.69,-9.06,0.56,-3.196058282105831,0.629374594570389,-4.05302167998911,-102.53946443897644,33.919519970596944,-59.73553808607135,-0.2416,-0.7801,0.2917,-0.498
57,2697265.0,2669.487932,1.0,11.79,3.87,-6.98,-42.88,-14.38,5.69,-7.69,-9.06,0.56,-3.196058282105831,0.629374594570389,-4.05302167998911,-102.53946443897644,33.919519970596944,-59.73553808607135,-0.2416,-0.7801,0.2917,-0.498
58,2697302.0,2669.54214,1.0,6.5,-1.74,-2.17,-43.88,-13.69,8.75,102.37,-58.25,52.19,1.958192530840647,-1.04506704162306,3.093989060352212,-104.59559036293443,33.57225481905068,-59.352689332048705,-0.2131,-0.7912,0.2888,-0.4951
59,2697302.0,2669.54214,1.0,6.5,-1.74,-2.17,-43.88,-13.69,8.75,102.37,-58.25,52.19,1.958192530840647,-1.04506704162306,3.093989060352212,-104.59559036293443,33.57225481905068,-59.352689332048705,-0.2131,-0.7912,0.2888,-0.4951
60,2697334.0,2669.5948359999998,1.0,5.56,-1.27,-2.63,-43.88,-13.69,8.75,92.12,-24.44,30.12,0.8672844213510182,-0.9388660857204552,3.657686818652612,-105.87907721917452,33.32098517464778,-59.82805979528858,-0.1798,-0.7979999999999999,0.2867,-0.4987
61,2697334.0,2669.5948359999998,1.0,5.56,-1.27,-2.63,-43.88,-13.69,8.75,92.12,-24.44,30.12,0.8672844213510182,-0.9388660857204552,3.657686818652612,-105.87907721917452,33.32098517464778,-59.82805979528858,-0.1798,-0.7979999999999999,0.2867,-0.4987
62,2697371.0,2669.655863,1.0,9.34,-2.44,-6.12,-42.56,-11.19,11.5,-1.69,-4.94,42.31,0.27648099715315777,-2.6228874848358865,-1.3148435822534417,-105.4428449688075,33.73986021591224,-60.46365910623083,-0.1703,-0.7957,0.2902,-0.5035
63,2697371.0,2669.655863,1.0,9.34,-2.44,-6.12,-42.56,-11.19,11.5,-1.69,-4.94,42.31,0.27648099715315777,-2.6228874848358865,-1.3148435822534417,-105.4428449688075,33.73986021591224,-60.46365910623083,-0.1703,-0.7957,0.2902,-0.5035
64,2697408.0,2669.666236,1.0,16.39,4.92,-7.31,-44.75,-7.88,14.25,-5.0,-85.0,9.0,-2.721429101994246,5.204106498244494,-7.850804493718746,-106.52800248099959,35.504295540348124,-58.65487400856189,-0.1578,-0.8014,0.3049,-0.4898
65,2697408.0,2669.666236,1.0,16.39,4.92,-7.31,-44.75,-7.88,14.25,-5.0,-85.0,9.0,-2.721429101994246,5.204106498244494,-7.850804493718746,-106.52800248099959,35.504295540348124,-58.65487400856189,-0.1578,-0.8014,0.3049,-0.4898
66,2697443.0,2669.670516,1.0,11.56,1.15,-8.39,-44.75,-7.88,14.25,5.38,-83.5,9.94,-2.352333864331622,0.6199428342076425,-4.315332731650447,-108.25050517877196,35.94976046847315,-56.91411976899951,-0.1453,-0.8103,0.3086,-0.4765
67,2697443.0,2669.670516,1.0,11.56,1.15,-8.39,-44.75,-7.88,14.25,5.38,-83.5,9.94,-2.352333864331622,0.6199428342076425,-4.315332731650447,-108.25050517877196,35.94976046847315,-56.91411976899951,-0.1453,-0.8103,0.3086,-0.4765
68,2697478.0,2669.712224,1.0,9.15,3.96,-5.02,-47.69,-5.06,17.69,73.44,-80.19,-13.5,-2.3010499544748293,4.277999070807991,-0.2436431826478245,-111.21754699943544,35.25171097529378,-54.96788438262905,-0.1202,-0.8252,0.3028,-0.4615
69,2697478.0,2669.712224,1.0,9.15,3.96,-5.02,-47.69,-5.06,17.69,73.44,-80.19,-13.5,-2.3010499544748293,4.277999070807991,-0.2436431826478245,-111.21754699943544,35.25171097529378,-54.96788438262905,-0.1202,-0.8252,0.3028,-0.4615
70,2697512.0,2669.7288,1.0,6.69,10.19,2.68,-46.88,-3.0,20.56,182.63,-33.31,-90.69,-0.8339107166561792,12.092491802668867,6.831614719699589,-114.57650555012708,32.2936788968098,-53.962642188164594,-0.0943,-0.8414,0.2781,-0.4537
71,2697512.0,2669.7288,1.0,6.69,10.19,2.68,-46.88,-3.0,20.56,182.63,-33.31,-90.69,-0.8339107166561792,12.092491802668867,6.831614719699589,-114.57650555012708,32.2936788968098,-53.962642188164594,-0.0943,-0.8414,0.2781,-0.4537
72,2697549.0,2669.732208,1.0,16.89,-8.96,-6.2,-45.75,-2.69,19.25,241.0,142.5,-347.06,4.636610227828112,-7.1259806299453095,-8.406420736612326,-114.57650555012708,16.524012627926176,-62.262463418184296,-0.0635,-0.8414,0.1437,-0.517
73,2697549.0,2669.732208,1.0,16.89,-8.96,-6.2,-45.75,-2.69,19.25,241.0,142.5,-347.06,4.636610227828112,-7.1259806299453095,-8.406420736612326,-114.57650555012708,16.524012627926176,-62.262463418184296,-0.0635,-0.8414,0.1437,-0.517
74,2697584.0,2669.772346,1.0,18.93,-9.47,-13.26,-45.75,-2.69,19.25,73.0,-187.88,-88.5,0.8061425484115303,-10.056538231737065,-13.04219183028215,-120.61584152012749,10.074110549810433,-57.82848630952777,-0.0621,-0.8687,0.0878,-0.4835
75,2697584.0,2669.772346,1.0,18.93,-9.47,-13.26,-45.75,-2.69,19.25,73.0,-187.88,-88.5,0.8061425484115303,-10.056538231737065,-13.04219183028215,-120.61584152012749,10.074110549810433,-57.82848630952777,-0.0621,-0.8687,0.0878,-0.4835
76,2697621.0,2669.7894890000002,1.0,4.41,-13.61,-1.36,-44.38,-12.19,8.0,68.0,-237.75,23.25,4.273368079176706,-13.034880049108482,5.521789749626907,-128.60607229870925,9.76355056625781,-50.111510359679706,-0.0391,-0.9011,0.0851,-0.4235
77,2697621.0,2669.7894890000002,1.0,4.41,-13.61,-1.36,-44.38,-12.19,8.0,68.0,-237.75,23.25,4.273368079176706,-13.034880049108482,5.521789749626907,-128.60607229870925,9.76355056625781,-50.111510359679706,-0.0391,-0.9011,0.0851,-0.4235
78,2697658.0,2669.836543,1.0,2.14,-9.94,-3.22,-37.56,-13.38,16.25,-198.31,-219.94,109.0,2.2144691200693454,-9.775891902148174,6.162522664989193,-135.30656135192416,14.54632631618216,-41.41533197987328,-0.0582,-0.9249,0.1266,-0.3536
79,2697658.0,2669.836543,1.0,2.14,-9.94,-3.22,-37.56,-13.38,16.25,-198.31,-219.94,109.0,2.2144691200693454,-9.775891902148174,6.162522664989193,-135.30656135192416,14.54632631618216,-41.41533197987328,-0.0582,-0.9249,0.1266,-0.3536
80,2697693.0,2669.855184,1.0,1.77,-3.6,-1.48,-37.56,-13.38,16.25,-113.44,-167.69,175.56,1.8929637797582664,-3.184505111695608,7.671488338179555,-137.40276743944383,20.751169149926106,-35.67278424373711,-0.0754,-0.9317,0.1801,-0.3063
81,2697693.0,2669.855184,1.0,1.77,-3.6,-1.48,-37.56,-13.38,16.25,-113.44,-167.69,175.56,1.8929637797582664,-3.184505111695608,7.671488338179555,-137.40276743944383,20.751169149926106,-35.67278424373711,-0.0754,-0.9317,0.1801,-0.3063
82,2697728.0,2669.898925,1.0,4.97,1.22,-3.54,-34.19,-13.25,20.25,-112.19,39.69,170.13,1.1163023817925315,1.9600044126900016,4.007240401201168,-133.53159111803808,28.517345406099267,-34.351055102879386,-0.0877,-0.9189,0.2463,-0.2953
83,2697728.0,2669.898925,1.0,4.97,1.22,-3.54,-34.19,-13.25,20.25,-112.19,39.69,170.13,1.1163023817925315,1.9600044126900016,4.007240401201168,-133.53159111803808,28.517345406099267,-34.351055102879386,-0.0877,-0.9189,0.2463,-0.2953
84,2697764.0,2669.967432,1.0,7.33,4.55,-9.09,-31.06,-10.5,22.37,-88.0,7.94,170.63,-2.405062460024027,3.9243066095859773,-1.8498928921847568,-127.97542141388577,35.817266589294526,-34.44701981345315,-0.1001,-0.8987,0.3075,-0.2961
85,2697764.0,2669.967432,1.0,7.33,4.55,-9.09,-31.06,-10.5,22.37,-88.0,7.94,170.63,-2.405062460024027,3.9243066095859773,-1.8498928921847568,-127.97542141388577,35.817266589294526,-34.44701981345315,-0.1001,-0.8987,0.3075,-0.2961
86,2697801.0,2669.970888,1.0,6.5,3.72,-5.51,-33.25,-9.0,21.69,44.69,-34.44,115.94,-0.9928190386028812,4.534073420493687,1.7502867650061642,-126.17530318519164,39.9000028418168,-33.105742400688804,-0.085,-0.8917,0.3412,-0.2849
87,2697801.0,2669.970888,1.0,6.5,3.72,-5.51,-33.25,-9.0,21.69,44.69,-34.44,115.94,-0.9928190386028812,4.534073420493687,1.7502867650061642,-126.17530318519164,39.9000028418168,-33.105742400688804,-0.085,-0.8917,0.3412,-0.2849
88,2697836.0,2670.008825,1.0,7.83,5.17,-8.73,-33.25,-9.0,21.69,20.0,60.81,78.06,-3.3843650903607085,5.36098306789891,-1.3314213537330613,-122.89990924402274,42.36010990852977,-35.43211039129503,-0.0724,-0.8784,0.3613,-0.3043
89,2697836.0,2670.008825,1.0,7.83,5.17,-8.73,-33.25,-9.0,21.69,20.0,60.81,78.06,-3.3843650903607085,5.36098306789891,-1.3314213537330613,-122.89990924402274,42.36010990852977,-35.43211039129503,-0.0724,-0.8784,0.3613,-0.3043
90,2697871.0,2670.066127,1.0,7.13,-0.9,-7.88,-35.06,-6.75,24.0,87.44,83.75,22.5,0.16307254075996214,0.8262178351746253,-0.8250042191368046,-121.12678863705332,42.163546289132256,-38.44045190034536,-0.0605,-0.8709,0.3597,-0.3292
91,2697871.0,2670.066127,1.0,7.13,-0.9,-7.88,-35.06,-6.75,24.0,87.44,83.75,22.5,0.16307254075996214,0.8262178351746253,-0.8250042191368046,-121.12678863705332,42.163546289132256,-38.44045190034536,-0.0605,-0.8709,0.3597,-0.3292
92,2697908.0,2670.125425,1.0,7.55,0.35,-9.83,-40.56,-3.75,23.5,79.31,-12.75,39.69,-2.081030903462752,1.5906157668421366,-2.3132985090121654,-119.58296175366009,42.421562810614134,-40.63229985656115,-0.0413,-0.8642,0.3618,-0.3472
93,2697908.0,2670.125425,1.0,7.55,0.35,-9.83,-40.56,-3.75,23.5,79.31,-12.75,39.69,-2.081030903462752,1.5906157668421366,-2.3132985090121654,-119.58296175366009,42.421562810614134,-40.63229985656115,-0.0413,-0.8642,0.3618,-0.3472
94,2697945.0,2670.132717,1.0,6.71,-1.62,-7.79,-40.56,-3.75,23.5,153.81,-175.56,85.12,0.08557782270752518,1.3971044262502483,-0.5070969262345475,-121.03358960360973,43.591628016640854,-37.70100746591034,0.0057,-0.8705,0.3713,-0.3231
95,2697945.0,2670.132717,1.0,6.71,-1.62,-7.79,-40.56,-3.75,23.5,153.81,-175.56,85.12,0.08557782270752518,1.3971044262502483,-0.5070969262345475,-121.03358960360973,43.591628016640854,-37.70100746591034,0.0057,-0.8705,0.3713,-0.3231
96,2697977.0,2670.150493,1.0,6.95,1.96,-9.12,-45.69,3.88,25.37,103.5,-117.25,1.88,-2.4443710741308964,5.160396524897658,-0.32813454422077903,-123.16421485435569,43.591628016640854,-33.931500337029355,0.0593,-0.8795,0.3713,-0.2918
97,2697977.0,2670.150493,1.0,6.95,1.96,-9.12,-45.69,3.88,25.37,103.5,-117.25,1.88,-2.4443710741308964,5.160396524897658,-0.32813454422077903,-123.16421485435569,43.591628016640854,-33.931500337029355,0.0593,-0.8795,0.3713,-0.2918
98,2698014.0,2670.1941079999997,1.0,7.78,3.28,-9.68,-43.5,11.56,29.75,116.94,-23.56,-135.88,-2.8018217327387203,7.081100321539281,-0.5372860600425861,-125.52074054609028,39.92438520696097,-34.09926566702287,0.0839,-0.8891,0.3414,-0.2932
99,2698014.0,2670.1941079999997,1.0,7.78,3.28,-9.68,-43.5,11.56,29.75,116.94,-23.56,-135.88,-2.8018217327387203,7.081100321539281,-0.5372860600425861,-125.52074054609028,39.92438520696097,-34.09926566702287,0.0839,-0.8891,0.3414,-0.2932
100,2698051.0,2670.2554219999997,1.0,8.56,-11.72,-9.01,-42.75,13.69,32.88,144.5,42.81,-306.69,4.770812191875526,-5.575977708664151,-5.619299682996257,-130.79006103529238,29.132584441928433,-37.20491981438743,0.0914,-0.9092,0.2515,-0.319
101,2698051.0,2670.2554219999997,1.0,8.56,-11.72,-9.01,-42.75,13.69,32.88,144.5,42.81,-306.69,4.770812191875526,-5.575977708664151,-5.619299682996257,-130.79006103529238,29.132584441928433,-37.20491981438743,0.0914,-0.9092,0.2515,-0.319
102,2698086.0,2670.274562,1.0,7.5,-13.6,-10.07,-42.75,13.69,32.88,45.5,-151.06,-133.06,3.318244647292267,-8.373965820788419,-6.363719472989278,-136.5279785234642,21.21732993545333,-35.17957649356332,0.1091,-0.9289,0.1841,-0.3022
103,2698086.0,2670.274562,1.0,7.5,-13.6,-10.07,-42.75,13.69,32.88,45.5,-151.06,-133.06,3.318244647292267,-8.373965820788419,-6.363719472989278,-136.5279785234642,21.21732993545333,-35.17957649356332,0.1091,-0.9289,0.1841,-0.3022
104,2698123.0,2670.313174,1.0,2.22,-20.11,-0.01,-36.75,2.25,22.69,-24.94,-74.19,18.94,6.932124682514237,-17.49576360669627,2.378022724070794,-139.66874405322235,19.796614956633128,-31.85252256097231,0.1184,-0.9387,0.1719,-0.2744
105,2698123.0,2670.313174,1.0,2.22,-20.11,-0.01,-36.75,2.25,22.69,-24.94,-74.19,18.94,6.932124682514237,-17.49576360669627,2.378022724070794,-139.66874405322235,19.796614956633128,-31.85252256097231,0.1184,-0.9387,0.1719,-0.2744
106,2698160.0,2670.326456,1.0,1.74,-12.08,-4.01,-30.87,1.69,28.56,-244.63,-9.25,158.69,3.9465664083652587,-9.903705137041007,2.6389908184463455,-139.40365501423122,25.89992116016652,-29.618281737295238,0.0686,-0.9379,0.2241,-0.2556
107,2698160.0,2670.326456,1.0,1.74,-12.08,-4.01,-30.87,1.69,28.56,-244.63,-9.25,158.69,3.9465664083652587,-9.903705137041007,2.6389908184463455,-139.40365501423122,25.89992116016652,-29.618281737295238,0.0686,-0.9379,0.2241,-0.2556
108,2698194.0,2670.37882,1.0,1.05,-3.64,-5.86,-30.87,1.69,28.56,-243.25,-53.81,237.75,0.12395189571269385,-2.963831921643401,3.4906357292912324,-136.68295663578678,33.656048249410745,-26.32339770363258,0.0237,-0.9294,0.2895,-0.2277
109,2698194.0,2670.37882,1.0,1.05,-3.64,-5.86,-30.87,1.69,28.56,-243.25,-53.81,237.75,0.12395189571269385,-2.963831921643401,3.4906357292912324,-136.68295663578678,33.656048249410745,-26.32339770363258,0.0237,-0.9294,0.2895,-0.2277
110,2698229.0,2670.402106,1.0,5.94,-0.15,-6.21,-29.0,-0.5,28.56,-248.44,-52.06,271.13,1.898480917658553,2.8668243468619345,1.9296398838756108,-129.0571819857357,45.64778844933024,-21.22898847391229,-0.0225,-0.9028,0.3879,-0.1842
111,2698229.0,2670.402106,1.0,5.94,-0.15,-6.21,-29.0,-0.5,28.56,-248.44,-52.06,271.13,1.898480917658553,2.8668243468619345,1.9296398838756108,-129.0571819857357,45.64778844933024,-21.22898847391229,-0.0225,-0.9028,0.3879,-0.1842
112,2698264.0,2670.441221,1.0,7.04,7.15,-4.63,-28.87,-1.56,26.69,-265.63,3.19,218.25,-3.1865778533969022,8.081372711520439,2.975973848861435,-119.94836140851372,56.04262977353804,-17.045256614539127,-0.0876,-0.8658,0.4698,-0.1482
113,2698264.0,2670.441221,1.0,7.04,7.15,-4.63,-28.87,-1.56,26.69,-265.63,3.19,218.25,-3.1865778533969022,8.081372711520439,2.975973848861435,-119.94836140851372,56.04262977353804,-17.045256614539127,-0.0876,-0.8658,0.4698,-0.1482
114,2698301.0,2670.458675,1.0,6.38,11.15,-9.61,-29.69,-6.19,27.56,-141.38,129.81,66.62,-8.034665125317481,6.6119427311157875,-2.4042209617476558,-114.91656280775707,59.656267897430276,-17.485694626999518,-0.1376,-0.843,0.4974,-0.152
115,2698301.0,2670.458675,1.0,6.38,11.15,-9.61,-29.69,-6.19,27.56,-141.38,129.81,66.62,-8.034665125317481,6.6119427311157875,-2.4042209617476558,-114.91656280775707,59.656267897430276,-17.485694626999518,-0.1376,-0.843,0.4974,-0.152
116,2698336.0,2670.500732,1.0,6.31,5.53,-8.66,-29.69,-6.19,27.56,35.94,92.19,-39.56,-3.2396552704249753,3.6746520298332657,-1.211252077457848,-114.4705595501544,58.14290959834098,-20.832722001771078,-0.1551,-0.8409,0.4859,-0.1808
117,2698336.0,2670.500732,1.0,6.31,5.53,-8.66,-29.69,-6.19,27.56,35.94,92.19,-39.56,-3.2396552704249753,3.6746520298332657,-1.211252077457848,-114.4705595501544,58.14290959834098,-20.832722001771078,-0.1551,-0.8409,0.4859,-0.1808
118,2698373.0,2670.554916,1.0,4.39,-1.27,-6.61,-34.0,-9.19,24.06,87.56,45.63,-34.5,1.749686916916504,-0.2849818785831023,1.968634879980745,-115.66601281547123,56.09455949870071,-23.694122645249475,-0.1421,-0.8465,0.4702,-0.2053
119,2698373.0,2670.554916,1.0,4.39,-1.27,-6.61,-34.0,-9.19,24.06,87.56,45.63,-34.5,1.749686916916504,-0.2849818785831023,1.968634879980745,-115.66601281547123,56.09455949870071,-23.694122645249475,-0.1421,-0.8465,0.4702,-0.2053
120,2698409.0,2670.5716629999997,1.0,5.78,-2.1,-9.08,-33.75,-8.88,23.75,-15.56,150.0,-51.81,2.144815845605103,-1.5046492823652322,-0.8423215712607242,-115.49402564842946,53.667084063629616,-27.57245336826063,-0.1558,-0.8457,0.4514,-0.2383
121,2698409.0,2670.5716629999997,1.0,5.78,-2.1,-9.08,-33.75,-8.88,23.75,-15.56,150.0,-51.81,2.144815845605103,-1.5046492823652322,-0.8423215712607242,-115.49402564842946,53.667084063629616,-27.57245336826063,-0.1558,-0.8457,0.4514,-0.2383
122,2698444.0,2670.6116239999997,1.0,5.17,-2.43,-9.21,-33.75,-8.88,23.75,3.88,82.06,-19.94,1.8851241253077144,-2.875925610837317,-0.4711541873307166,-114.55530415588284,52.016428687631496,-30.28255562108873,-0.17800000000000002,-0.8413,0.4385,-0.2612
123,2698444.0,2670.6116239999997,1.0,5.17,-2.43,-9.21,-33.75,-8.88,23.75,3.88,82.06,-19.94,1.8851241253077144,-2.875925610837317,-0.4711541873307166,-114.55530415588284,52.016428687631496,-30.28255562108873,-0.17800000000000002,-0.8413,0.4385,-0.2612
124,2698479.0,2670.6719989999997,1.0,4.99,-2.4,-7.24,-37.75,-9.25,21.0,-87.69,107.12,-14.44,2.281022516543657,-2.502357744233687,1.3442128806534352,-112.89920199482374,51.0874785737173,-32.329469794230796,-0.2051,-0.8334,0.4312,-0.2784
125,2698479.0,2670.6719989999997,1.0,4.99,-2.4,-7.24,-37.75,-9.25,21.0,-87.69,107.12,-14.44,2.281022516543657,-2.502357744233687,1.3442128806534352,-112.89920199482374,51.0874785737173,-32.329469794230796,-0.2051,-0.8334,0.4312,-0.2784
126,2698514.0,2670.6895289999998,1.0,6.02,3.99,-8.07,-38.56,-10.38,18.75,-94.0,119.94,-27.19,-2.7369486565314194,0.00903673542496608,-0.6716337520714131,-109.79009253076951,50.36463176877203,-34.255115225601216,-0.2509,-0.8181,0.4255,-0.2945
127,2698514.0,2670.6895289999998,1.0,6.02,3.99,-8.07,-38.56,-10.38,18.75,-94.0,119.94,-27.19,-2.7369486565314194,0.00903673542496608,-0.6716337520714131,-109.79009253076951,50.36463176877203,-34.255115225601216,-0.2509,-0.8181,0.4255,-0.2945
128,2698553.0,2670.734406,1.0,6.78,1.35,-6.69,-40.06,-13.0,13.88,-23.25,90.06,-12.81,0.1553053388563811,-0.4065369976747275,0.19636343188746075,-108.58359923261342,49.66917497940315,-35.60056506187857,-0.2662,-0.812,0.42,-0.3057
129,2698553.0,2670.734406,1.0,6.78,1.35,-6.69,-40.06,-13.0,13.88,-23.25,90.06,-12.81,0.1553053388563811,-0.4065369976747275,0.19636343188746075,-108.58359923261342,49.66917497940315,-35.60056506187857,-0.2662,-0.812,0.42,-0.3057
130,2698586.0,2670.749598,1.0,6.84,0.32,-7.02,-40.06,-13.0,13.88,-21.62,95.56,-33.31,0.8311315602587082,-1.7923981094532495,0.20118648454327293,-106.93127927577495,47.81985609667796,-38.08870741479733,-0.2891,-0.8035,0.4053,-0.3263
131,2698586.0,2670.749598,1.0,6.84,0.32,-7.02,-40.06,-13.0,13.88,-21.62,95.56,-33.31,0.8311315602587082,-1.7923981094532495,0.20118648454327293,-106.93127927577495,47.81985609667796,-38.08870741479733,-0.2891,-0.8035,0.4053,-0.3263
132,2698622.0,2670.793405,1.0,6.95,2.25,-5.45,-42.25,-14.5,11.88,-97.81,65.94,-44.56,-0.17066213823390708,-0.06847213633424376,0.6943678489074845,-105.67017110275856,46.943892407350866,-38.53755098296754,-0.3123,-0.7969,0.3983,-0.33
133,2698622.0,2670.793405,1.0,6.95,2.25,-5.45,-42.25,-14.5,11.88,-97.81,65.94,-44.56,-0.17066213823390708,-0.06847213633424376,0.6943678489074845,-105.67017110275856,46.943892407350866,-38.53755098296754,-0.3123,-0.7969,0.3983,-0.33
134,2698659.0,2670.849554,1.0,11.46,1.68,-5.64,-42.0,-14.75,9.56,-114.94,58.63,-40.88,2.8560539568287058,0.4457633033736499,-2.7475465443053544,-103.34891599443549,45.61049316943376,-38.015979325491685,-0.3582,-0.7845,0.3876,-0.3257
135,2698659.0,2670.849554,1.0,11.46,1.68,-5.64,-42.0,-14.75,9.56,-114.94,58.63,-40.88,2.8560539568287058,0.4457633033736499,-2.7475465443053544,-103.34891599443549,45.61049316943376,-38.015979325491685,-0.3582,-0.7845,0.3876,-0.3257
136,2698694.0,2670.869019,1.0,5.85,1.75,-4.65,-42.0,-14.75,9.56,-91.12,48.13,-57.88,0.5157169499695314,-1.2181471698074728,2.2463819161153937,-101.66447905765742,44.81606648541226,-37.579943248225064,-0.3872,-0.7753,0.3812,-0.3221
137,2698694.0,2670.869019,1.0,5.85,1.75,-4.65,-42.0,-14.75,9.56,-91.12,48.13,-57.88,0.5157169499695314,-1.2181471698074728,2.2463819161153937,-101.66447905765742,44.81606648541226,-37.579943248225064,-0.3872,-0.7753,0.3812,-0.3221
138,2698729.0,2670.915643,1.0,4.69,2.85,-1.78,-42.69,-18.5,5.5,-146.69,76.5,-101.31,-0.057175271754755334,0.6853992034133889,4.078303037720212,-98.94602892121195,42.34782086095775,-36.17873077462121,-0.442,-0.7601,0.3612,-0.3105
139,2698729.0,2670.915643,1.0,4.69,2.85,-1.78,-42.69,-18.5,5.5,-146.69,76.5,-101.31,-0.057175271754755334,0.6853992034133889,4.078303037720212,-98.94602892121195,42.34782086095775,-36.17873077462121,-0.442,-0.7601,0.3612,-0.3105
140,2698764.0,2670.933874,1.0,12.3,7.31,-6.17,-41.88,-21.87,2.75,-131.06,115.81,-135.94,0.6809379789453769,-1.2624426728081932,-5.709069833984586,-96.09511993474894,38.8168714421915,-35.612600576556765,-0.4929,-0.7437,0.3323,-0.3058
141,2698764.0,2670.933874,1.0,12.3,7.31,-6.17,-41.88,-21.87,2.75,-131.06,115.81,-135.94,0.6809379789453769,-1.2624426728081932,-5.709069833984586,-96.09511993474894,38.8168714421915,-35.612600576556765,-0.4929,-0.7437,0.3323,-0.3058
142,2698801.0,2670.972789,1.0,9.79,7.49,-2.67,-38.5,-26.19,-3.69,-64.44,22.69,-92.5,0.38861051810727787,0.7016071133047621,-2.7802411699345555,-94.74971670141693,35.504295540348124,-33.67999263161277,-0.5308,-0.7358,0.3049,-0.2897
143,2698801.0,2670.972789,1.0,9.79,7.49,-2.67,-38.5,-26.19,-3.69,-64.44,22.69,-92.5,0.38861051810727787,0.7016071133047621,-2.7802411699345555,-94.74971670141693,35.504295540348124,-33.67999263161277,-0.5308,-0.7358,0.3049,-0.2897
144,2698835.0,2671.031016,1.0,8.45,7.56,-2.31,-38.5,-26.19,-3.69,-44.31,5.81,-99.37,0.2582996060438203,0.5088572160980545,-1.750449361307863,-94.783564940407,32.962313998592656,-31.292831778140112,-0.5524,-0.736,0.2837,-0.2697
145,2698835.0,2671.031016,1.0,8.45,7.56,-2.31,-38.5,-26.19,-3.69,-44.31,5.81,-99.37,0.2582996060438203,0.5088572160980545,-1.750449361307863,-94.783564940407,32.962313998592656,-31.292831778140112,-0.5524,-0.736,0.2837,-0.2697
146,2698872.0,2671.049767,1.0,10.83,9.49,-4.75,-35.5,-29.06,-6.06,-45.13,7.56,-107.37,1.1215032334875592,-1.4760802648067406,-5.242433611606558,-94.83435769046784,30.817102104618424,-29.36944254732168,-0.5682,-0.7363,0.2657,-0.2535
147,2698872.0,2671.049767,1.0,10.83,9.49,-4.75,-35.5,-29.06,-6.06,-45.13,7.56,-107.37,1.1215032334875592,-1.4760802648067406,-5.242433611606558,-94.83435769046784,30.817102104618424,-29.36944254732168,-0.5682,-0.7363,0.2657,-0.2535
148,2698909.0,2671.090827,1.0,8.34,8.77,-3.04,-32.56,-31.37,-7.56,4.0,-76.0,-87.19,0.7755705823323913,0.033205863048254784,-2.6475656574583155,-96.83485491073408,29.54717030181495,-25.45330808515709,-0.5718,-0.748,0.255,-0.2203
149,2698909.0,2671.090827,1.0,8.34,8.77,-3.04,-32.56,-31.37,-7.56,4.0,-76.0,-87.19,0.7755705823323913,0.033205863048254784,-2.6475656574583155,-96.83485491073408,29.54717030181495,-25.45330808515709,-0.5718,-0.748,0.255,-0.2203
150,2698944.0,2671.106938,1.0,3.23,5.95,-0.98,-32.56,-31.37,-7.56,39.0,-114.06,-52.81,-1.0552504364853503,1.0530808063176649,3.1303286078213084,-99.44105363347383,29.89098396291072,-22.033971792326973,-0.5612,-0.7629,0.2579,-0.1911
151,2698944.0,2671.106938,1.0,3.23,5.95,-0.98,-32.56,-31.37,-7.56,39.0,-114.06,-52.81,-1.0552504364853503,1.0530808063176649,3.1303286078213084,-99.44105363347383,29.89098396291072,-22.033971792326973,-0.5612,-0.7629,0.2579,-0.1911
152,2698979.0,2671.1465559999997,1.0,5.72,7.72,-6.61,-31.37,-34.38,-5.06,40.63,-75.0,-27.25,0.2268479851803016,-2.8208533514157503,-1.5070685028365514,-102.22862690361036,30.48441543516209,-19.192010366536685,-0.545,-0.7784,0.2629,-0.1667
153,2698979.0,2671.1465559999997,1.0,5.72,7.72,-6.61,-31.37,-34.38,-5.06,40.63,-75.0,-27.25,0.2268479851803016,-2.8208533514157503,-1.5070685028365514,-102.22862690361036,30.48441543516209,-19.192010366536685,-0.545,-0.7784,0.2629,-0.1667
154,2699014.0,2671.212218,1.0,1.92,5.3,-1.63,-29.25,-36.06,-2.69,70.31,-107.75,-21.12,-1.4344761733177191,0.6600909827943431,4.155114102333122,-105.15951761656832,31.542810907574808,-16.489275388774946,-0.5242,-0.7942,0.2718,-0.1434
155,2699014.0,2671.212218,1.0,1.92,5.3,-1.63,-29.25,-36.06,-2.69,70.31,-107.75,-21.12,-1.4344761733177191,0.6600909827943431,4.155114102333122,-105.15951761656832,31.542810907574808,-16.489275388774946,-0.5242,-0.7942,0.2718,-0.1434
156,2699051.0,2671.276964,1.0,2.11,4.27,-2.66,-28.19,-36.19,1.37,75.19,-64.31,6.81,-0.5961547819107224,-0.1471702969911286,4.385991333408963,-108.56396821294662,32.412994497933816,-14.881400387429185,-0.4961,-0.8119,0.2791,-0.1295
157,2699051.0,2671.276964,1.0,2.11,4.27,-2.66,-28.19,-36.19,1.37,75.19,-64.31,6.81,-0.5961547819107224,-0.1471702969911286,4.385991333408963,-108.56396821294662,32.412994497933816,-14.881400387429185,-0.4961,-0.8119,0.2791,-0.1295
158,2699085.0,2671.295821,1.0,1.03,4.38,-3.37,-28.19,-36.19,1.37,70.0,-67.0,33.56,-1.5602026937224975,-0.7788161619749681,4.462362120371168,-110.81284195033062,34.279097871531036,-14.118999098561428,-0.4694,-0.8232,0.2947,-0.1229
159,2699085.0,2671.295821,1.0,1.03,4.38,-3.37,-28.19,-36.19,1.37,70.0,-67.0,33.56,-1.5602026937224975,-0.7788161619749681,4.462362120371168,-110.81284195033062,34.279097871531036,-14.118999098561428,-0.4694,-0.8232,0.2947,-0.1229
160,2699122.0,2671.2991690000003,1.0,1.77,3.33,-4.4,-27.75,-36.19,3.75,81.69,-30.69,46.13,-0.3898206760716586,-1.5522218246081898,4.237049722806217,-112.25913519470078,35.57649524988903,-14.407711711634985,-0.4489,-0.8303,0.3055,-0.1254
161,2699122.0,2671.2991690000003,1.0,1.77,3.33,-4.4,-27.75,-36.19,3.75,81.69,-30.69,46.13,-0.3898206760716586,-1.5522218246081898,4.237049722806217,-112.25913519470078,35.57649524988903,-14.407711711634985,-0.4489,-0.8303,0.3055,-0.1254
162,2699157.0,2671.336645,1.0,4.67,4.75,-5.49,-29.69,-34.25,7.0,61.13,-6.56,66.19,0.6613725060740809,-0.4116915852233745,1.2098717402758616,-112.9614299666055,37.519427463611905,-15.887402736014533,-0.4272,-0.8337,0.3216,-0.1382
163,2699157.0,2671.336645,1.0,4.67,4.75,-5.49,-29.69,-34.25,7.0,61.13,-6.56,66.19,0.6613725060740809,-0.4116915852233745,1.2098717402758616,-112.9614299666055,37.519427463611905,-15.887402736014533,-0.4272,-0.8337,0.3216,-0.1382
164,2699192.0,2671.397658,1.0,3.7,5.47,-4.99,-29.69,-34.25,7.0,64.69,-28.31,61.38,-0.8560639530836159,0.09621485925602924,1.57446333975661,-113.19003713661381,39.181563633405815,-16.848301053200124,-0.4114,-0.8348,0.3353,-0.1465
165,2699192.0,2671.397658,1.0,3.7,5.47,-4.99,-29.69,-34.25,7.0,64.69,-28.31,61.38,-0.8560639530836159,0.09621485925602924,1.57446333975661,-113.19003713661381,39.181563633405815,-16.848301053200124,-0.4114,-0.8348,0.3353,-0.1465
166,2699227.0,2671.449935,1.0,4.44,4.43,-5.51,-30.0,-32.75,9.38,58.38,15.38,43.56,0.034020944081314834,-0.2112047022899466,1.4608225905040155,-113.75411958451244,40.351383033032214,-18.564721836939235,-0.3919,-0.8375,0.3449,-0.1613
167,2699227.0,2671.449935,1.0,4.44,4.43,-5.51,-30.0,-32.75,9.38,58.38,15.38,43.56,0.034020944081314834,-0.2112047022899466,1.4608225905040155,-113.75411958451244,40.351383033032214,-18.564721836939235,-0.3919,-0.8375,0.3449,-0.1613
168,2699264.0,2671.457193,1.0,6.76,5.58,-8.18,-33.0,-29.75,11.38,43.81,29.12,42.06,0.4698797691359433,-0.6740075193632187,-2.1545926974122818,-113.10682738081556,41.341837382049434,-20.11076285425295,-0.3858,-0.8344,0.353,-0.1746
169,2699264.0,2671.457193,1.0,6.76,5.58,-8.18,-33.0,-29.75,11.38,43.81,29.12,42.06,0.4698797691359433,-0.6740075193632187,-2.1545926974122818,-113.10682738081556,41.341837382049434,-20.11076285425295,-0.3858,-0.8344,0.353,-0.1746
170,2699298.0,2671.473351,1.0,5.78,4.74,-7.02,-33.0,-29.75,11.38,54.19,13.31,37.5,0.007242328643096484,-0.43817570131830985,-0.4385610570475825,-112.87847065921488,42.60599837478333,-21.683846183764324,-0.3717,-0.8333,0.3633,-0.1881
171,2699298.0,2671.473351,1.0,5.78,4.74,-7.02,-33.0,-29.75,11.38,54.19,13.31,37.5,0.007242328643096484,-0.43817570131830985,-0.4385610570475825,-112.87847065921488,42.60599837478333,-21.683846183764324,-0.3717,-0.8333,0.3633,-0.1881
172,2699333.0,2671.515232,1.0,7.73,4.34,-8.78,-34.88,-27.5,12.69,45.5,54.31,12.75,1.1559357562396009,-1.0883932591664314,-2.5689757474459824,-112.94068164320149,42.286383276048326,-23.49511329436541,-0.3654,-0.8336,0.3607,-0.2036
173,2699333.0,2671.515232,1.0,7.73,4.34,-8.78,-34.88,-27.5,12.69,45.5,54.31,12.75,1.1559357562396009,-1.0883932591664314,-2.5689757474459824,-112.94068164320149,42.286383276048326,-23.49511329436541,-0.3654,-0.8336,0.3607,-0.2036
174,2699370.0,2671.566864,1.0,7.07,3.99,-7.86,-35.56,-26.75,13.0,45.38,34.56,15.5,0.6551800173337989,-0.8643577631078021,-1.4409375103171271,-112.83702493862923,42.20039204818604,-25.512050354420897,-0.3572,-0.8331,0.36,-0.2208
175,2699370.0,2671.566864,1.0,7.07,3.99,-7.86,-35.56,-26.75,13.0,45.38,34.56,15.5,0.6551800173337989,-0.8643577631078021,-1.4409375103171271,-112.83702493862923,42.20039204818604,-25.512050354420897,-0.3572,-0.8331,0.36,-0.2208
176,2699405.0,2671.5753760000002,1.0,6.82,3.56,-7.35,-37.5,-25.69,12.69,28.87,16.0,28.19,0.6208420021175265,-0.7388267563361004,-0.7894431589208235,-112.77489865498623,42.421562810614134,-26.688351311037593,-0.3495,-0.8328,0.3618,-0.2308
177,2699405.0,2671.5753760000002,1.0,6.82,3.56,-7.35,-37.5,-25.69,12.69,28.87,16.0,28.19,0.6208420021175265,-0.7388267563361004,-0.7894431589208235,-112.77489865498623,42.421562810614134,-26.688351311037593,-0.3495,-0.8328,0.3618,-0.2308
178,2699440.0,2671.634054,1.0,7.02,4.05,-6.97,-37.5,-25.69,12.69,17.44,8.94,18.5,0.21147629374594132,-0.06757674096567445,-0.8804689364236022,-112.58882301862495,42.790549766583936,-27.59605210118816,-0.3434,-0.8319,0.3648,-0.2385
179,2699440.0,2671.634054,1.0,7.02,4.05,-6.97,-37.5,-25.69,12.69,17.44,8.94,18.5,0.21147629374594132,-0.06757674096567445,-0.8804689364236022,-112.58882301862495,42.790549766583936,-27.59605210118816,-0.3434,-0.8319,0.3648,-0.2385
180,2699474.0,2671.651806,1.0,6.49,2.67,-6.58,-37.5,-24.19,12.69,29.12,11.38,20.0,0.8421393357601317,-0.6481587354944507,0.2454737338302504,-112.60947570576613,42.91364872106161,-28.399126966206964,-0.3372,-0.8320000000000001,0.3658,-0.2453
181,2699474.0,2671.651806,1.0,6.49,2.67,-6.58,-37.5,-24.19,12.69,29.12,11.38,20.0,0.8421393357601317,-0.6481587354944507,0.2454737338302504,-112.60947570576613,42.91364872106161,-28.399126966206964,-0.3372,-0.8320000000000001,0.3658,-0.2453
182,2699511.0,2671.687828,1.0,6.85,3.45,-7.43,-37.5,-23.0,13.06,11.94,0.44,15.81,0.15827940475377833,-0.6815837903679329,-0.8488786666940413,-111.97181334084304,43.801508905676954,-28.90768703373302,-0.3339,-0.8289,0.373,-0.2496
183,2699511.0,2671.687828,1.0,6.85,3.45,-7.43,-37.5,-23.0,13.06,11.94,0.44,15.81,0.15827940475377833,-0.6815837903679329,-0.8488786666940413,-111.97181334084304,43.801508905676954,-28.90768703373302,-0.3339,-0.8289,0.373,-0.2496
184,2699546.0,2671.7444140000002,1.0,5.9,2.73,-5.95,-37.5,-23.0,13.06,17.81,-1.63,20.37,0.31495540125361,-0.3007270705368621,1.0046180570752608,-111.97181334084304,44.17226486112258,-29.17994585204534,-0.3287,-0.8289,0.376,-0.2519
185,2699546.0,2671.7444140000002,1.0,5.9,2.73,-5.95,-37.5,-23.0,13.06,17.81,-1.63,20.37,0.31495540125361,-0.3007270705368621,1.0046180570752608,-111.97181334084304,44.17226486112258,-29.17994585204534,-0.3287,-0.8289,0.376,-0.2519
186,2699581.0,2671.761257,1.0,5.72,1.9,-8.11,-38.56,-22.69,13.88,-17.25,41.0,-10.69,0.38239110528523207,-2.4361120550431155,0.007689080704917472,-111.11617542436285,44.7912774389752,-29.80796936990455,-0.3295,-0.8247,0.381,-0.2572
187,2699581.0,2671.761257,1.0,5.72,1.9,-8.11,-38.56,-22.69,13.88,-17.25,41.0,-10.69,0.38239110528523207,-2.4361120550431155,0.007689080704917472,-111.11617542436285,44.7912774389752,-29.80796936990455,-0.3295,-0.8247,0.381,-0.2572
188,2699616.0,2671.808169,1.0,7.4,6.95,-9.01,-40.06,-21.5,13.0,-45.94,54.06,8.56,-2.843963253755441,-0.28458098305189594,-3.4626185056627747,-109.43221295455638,45.225406324165256,-30.17572764472251,-0.3437,-0.8163,0.3845,-0.2603
189,2699616.0,2671.808169,1.0,7.4,6.95,-9.01,-40.06,-21.5,13.0,-45.94,54.06,8.56,-2.843963253755441,-0.28458098305189594,-3.4626185056627747,-109.43221295455638,45.225406324165256,-30.17572764472251,-0.3437,-0.8163,0.3845,-0.2603
190,2699653.0,2671.826747,1.0,7.67,2.7,-5.31,-41.56,-21.87,9.38,60.19,32.06,0.75,1.1560076163418618,0.5757966207359724,0.18131340108000948,-109.09565995624818,44.91524480207666,-31.507090202315183,-0.3416,-0.8146,0.382,-0.2715
191,2699653.0,2671.826747,1.0,7.67,2.7,-5.31,-41.56,-21.87,9.38,60.19,32.06,0.75,1.1560076163418618,0.5757966207359724,0.18131340108000948,-109.09565995624818,44.91524480207666,-31.507090202315183,-0.3416,-0.8146,0.382,-0.2715
192,2699687.0,2671.864082,1.0,14.18,6.41,-9.65,-41.56,-21.87,9.38,32.13,11.81,12.25,0.6664783060636661,1.9879614772252356,-8.383644550463304,-109.47189924933485,44.543508213508154,-32.75921457984873,-0.3318,-0.8165,0.379,-0.282
193,2699687.0,2671.864082,1.0,14.18,6.41,-9.65,-41.56,-21.87,9.38,32.13,11.81,12.25,0.6664783060636661,1.9879614772252356,-8.383644550463304,-109.47189924933485,44.543508213508154,-32.75921457984873,-0.3318,-0.8165,0.379,-0.282
194,2699724.0,2671.917796,1.0,12.44,9.17,-9.88,-40.5,-21.5,11.5,47.38,-48.13,-59.5,-2.2610776547017464,2.7840519712704284,-8.182054301885495,-110.85321906669195,44.13516742855202,-31.70954918748255,-0.3259,-0.8234,0.3757,-0.2732
195,2699724.0,2671.917796,1.0,12.44,9.17,-9.88,-40.5,-21.5,11.5,47.38,-48.13,-59.5,-2.2610776547017464,2.7840519712704284,-8.182054301885495,-110.85321906669195,44.13516742855202,-31.70954918748255,-0.3259,-0.8234,0.3757,-0.2732
196,2699759.0,2671.9255359999997,1.0,8.96,7.78,-5.9,-40.06,-20.06,9.88,133.56,-119.37,-141.06,-1.2394592529717303,4.6720234280876465,-2.532553290635212,-118.0517930817869,40.58342649226998,-28.091903034402694,-0.2929,-0.8574,0.3468,-0.2427
197,2699759.0,2671.9255359999997,1.0,8.96,7.78,-5.9,-40.06,-20.06,9.88,133.56,-119.37,-141.06,-1.2394592529717303,4.6720234280876465,-2.532553290635212,-118.0517930817869,40.58342649226998,-28.091903034402694,-0.2929,-0.8574,0.3468,-0.2427
198,2699794.0,2671.978959,1.0,5.16,4.4,-3.5,-40.06,-20.06,9.88,193.38,-55.81,-177.0,-0.09929620338228506,3.1317478621640737,2.848353111261733,-125.42068267085124,35.57649524988903,-26.229260388868166,-0.2556,-0.8887,0.3055,-0.2269
199,2699794.0,2671.978959,1.0,5.16,4.4,-3.5,-40.06,-20.06,9.88,193.38,-55.81,-177.0,-0.09929620338228506,3.1317478621640737,2.848353111261733,-125.42068267085124,35.57649524988903,-26.229260388868166,-0.2556,-0.8887,0.3055,-0.2269
200,2699829.0,2672.048287,1.0,2.4,4.15,-5.01,-30.75,-19.37,16.0,169.56,-52.38,-161.31,-1.8333858633366484,1.6844627566746373,3.3348742392451958,-134.3222466489682,28.387306821530828,-24.854522251558684,-0.21,-0.9216,0.2452,-0.2152
201,2699829.0,2672.048287,1.0,2.4,4.15,-5.01,-30.75,-19.37,16.0,169.56,-52.38,-161.31,-1.8333858633366484,1.6844627566746373,3.3348742392451958,-134.3222466489682,28.387306821530828,-24.854522251558684,-0.21,-0.9216,0.2452,-0.2152
202,2699866.0,2672.058035,1.0,3.69,2.59,-5.6,-26.25,-20.87,21.25,194.5,-46.31,-193.63,0.1998248411918773,1.0439958045165714,2.6964922807229925,-141.33038910827102,22.431032941974188,-23.483409106034056,-0.1743,-0.9436,0.1945,-0.2035
203,2699866.0,2672.058035,1.0,3.69,2.59,-5.6,-26.25,-20.87,21.25,194.5,-46.31,-193.63,0.1998248411918773,1.0439958045165714,2.6964922807229925,-141.33038910827102,22.431032941974188,-23.483409106034056,-0.1743,-0.9436,0.1945,-0.2035
204,2699902.0,2672.0613989999997,1.0,3.56,0.61,-5.6,-22.06,-21.25,26.19,209.13,-45.31,-165.5,1.108145426161595,-0.2454214920178293,3.240259666968245,-150.2552755154301,14.477016351828802,-22.022297601396428,-0.1163,-0.9665,0.126,-0.191
205,2699902.0,2672.0613989999997,1.0,3.56,0.61,-5.6,-22.06,-21.25,26.19,209.13,-45.31,-165.5,1.108145426161595,-0.2454214920178293,3.240259666968245,-150.2552755154301,14.477016351828802,-22.022297601396428,-0.1163,-0.9665,0.126,-0.191
206,2699937.0,2672.10167,1.0,2.23,-3.03,-5.68,-22.06,-21.25,26.19,178.25,-20.56,-154.44,0.5189457369646493,-3.60903411359877,4.051498560726959,-156.36226771891504,7.315910364212048,-21.147383365420364,-0.0649,-0.9788,0.0638,-0.1835
207,2699937.0,2672.10167,1.0,2.23,-3.03,-5.68,-22.06,-21.25,26.19,178.25,-20.56,-154.44,0.5189457369646493,-3.60903411359877,4.051498560726959,-156.36226771891504,7.315910364212048,-21.147383365420364,-0.0649,-0.9788,0.0638,-0.1835
208,2699974.0,2672.161109,1.0,3.23,-2.52,-7.64,-19.06,-19.56,30.25,79.19,-17.69,-137.88,0.5254778279523238,-3.1842558741908107,1.760701480402583,-158.5304946671076,2.7733864743736323,-20.52986483879688,-0.0474,-0.9825,0.0242,-0.1782
209,2699974.0,2672.161109,1.0,3.23,-2.52,-7.64,-19.06,-19.56,30.25,79.19,-17.69,-137.88,0.5254778279523238,-3.1842558741908107,1.760701480402583,-158.5304946671076,2.7733864743736323,-20.52986483879688,-0.0474,-0.9825,0.0242,-0.1782
210,2700011.0,2672.1787640000002,1.0,4.02,-1.3,-8.96,-15.25,-18.5,32.0,69.62,-36.75,-105.75,0.8208250552159484,-2.016807550507832,0.14276188325607642,-160.39468315225946,-2.0398374773549266,-19.12228331882828,-0.0333,-0.9854,-0.0178,-0.1661
211,2700011.0,2672.1787640000002,1.0,4.02,-1.3,-8.96,-15.25,-18.5,32.0,69.62,-36.75,-105.75,0.8208250552159484,-2.016807550507832,0.14276188325607642,-160.39468315225946,-2.0398374773549266,-19.12228331882828,-0.0333,-0.9854,-0.0178,-0.1661
212,2700048.0,2672.222981,1.0,3.25,-2.59,-8.26,-15.25,-18.5,32.0,28.81,-21.75,-102.81,0.2636998584547442,-3.1757905488235325,1.1266144715788131,-160.80272323312002,-5.192774664418371,-18.228077382152183,-0.0247,-0.986,-0.0453,-0.1584
213,2700048.0,2672.222981,1.0,3.25,-2.59,-8.26,-15.25,-18.5,32.0,28.81,-21.75,-102.81,0.2636998584547442,-3.1757905488235325,1.1266144715788131,-160.80272323312002,-5.192774664418371,-18.228077382152183,-0.0247,-0.986,-0.0453,-0.1584
214,2700081.0,2672.241294,1.0,4.02,-0.41,-9.7,-12.25,-18.87,34.5,43.5,-39.44,-82.37,0.9248832303859732,-1.269813834054502,-0.5832808870172332,-160.8715680310398,-8.809306149715164,-16.732468293463864,-0.0233,-0.9861,-0.0768,-0.1455
215,2700081.0,2672.241294,1.0,4.02,-0.41,-9.7,-12.25,-18.87,34.5,43.5,-39.44,-82.37,0.9248832303859732,-1.269813834054502,-0.5832808870172332,-160.8715680310398,-8.809306149715164,-16.732468293463864,-0.0233,-0.9861,-0.0768,-0.1455
216,2700118.0,2672.285309,1.0,3.71,-2.27,-9.16,-8.75,-18.5,34.5,49.94,-19.75,-65.19,0.5810418997937831,-2.9079895147470136,0.10981612018100684,-160.4621037024181,-11.674144907935558,-15.586632804931574,-0.0102,-0.9855,-0.1017,-0.1356
217,2700118.0,2672.285309,1.0,3.71,-2.27,-9.16,-8.75,-18.5,34.5,49.94,-19.75,-65.19,0.5810418997937831,-2.9079895147470136,0.10981612018100684,-160.4621037024181,-11.674144907935558,-15.586632804931574,-0.0102,-0.9855,-0.1017,-0.1356
218,2700154.0,2672.345154,1.0,3.53,-2.01,-10.17,-6.88,-18.87,35.38,8.75,-32.63,-43.81,0.2824618881578367,-2.6226001887273225,-0.8221826514168864,-160.19378503937315,-13.103434321670449,-14.754288420181696,-0.0081,-0.9851,-0.1141,-0.1284
219,2700154.0,2672.345154,1.0,3.53,-2.01,-10.17,-6.88,-18.87,35.38,8.75,-32.63,-43.81,0.2824618881578367,-2.6226001887273225,-0.8221826514168864,-160.19378503937315,-13.103434321670449,-14.754288420181696,-0.0081,-0.9851,-0.1141,-0.1284
220,2700189.0,2672.365448,1.0,3.14,-1.38,-9.47,-6.88,-18.87,35.38,4.5,-40.06,-30.62,0.4379375605485134,-2.017800105904493,-0.05142250052831798,-160.32749140960402,-14.407711711634985,-13.288003224878931,-0.0093,-0.9853,-0.1254,-0.1157
221,2700189.0,2672.365448,1.0,3.14,-1.38,-9.47,-6.88,-18.87,35.38,4.5,-40.06,-30.62,0.4379375605485134,-2.017800105904493,-0.05142250052831798,-160.32749140960402,-14.407711711634985,-13.288003224878931,-0.0093,-0.9853,-0.1254,-0.1157
222,2700224.0,2672.409996,1.0,3.07,-1.4,-9.95,-5.75,-17.37,35.75,4.63,-21.37,-23.62,0.35972175130318,-2.0557726635583755,-0.4905243219878273,-160.26052613773837,-15.135679738336453,-12.561458728935325,-0.0096,-0.9852,-0.1317,-0.1094
223,2700224.0,2672.409996,1.0,3.07,-1.4,-9.95,-5.75,-17.37,35.75,4.63,-21.37,-23.62,0.35972175130318,-2.0557726635583755,-0.4905243219878273,-160.26052613773837,-15.135679738336453,-12.561458728935325,-0.0096,-0.9852,-0.1317,-0.1094
224,2700261.0,2672.4292379999997,1.0,2.09,-1.37,-9.18,-4.25,-17.75,36.19,-5.63,-9.06,-14.38,-0.3167177580459468,-1.8244998013223035,0.4745392882310249,-160.06096636558732,-15.817984589415364,-11.973676148985312,-0.011000000000000001,-0.9849,-0.1376,-0.1043
225,2700261.0,2672.4292379999997,1.0,2.09,-1.37,-9.18,-4.25,-17.75,36.19,-5.63,-9.06,-14.38,-0.3167177580459468,-1.8244998013223035,0.4745392882310249,-160.06096636558732,-15.817984589415364,-11.973676148985312,-0.011000000000000001,-0.9849,-0.1376,-0.1043
226,2700296.0,2672.467502,1.0,2.29,-1.4,-9.42,-4.25,-17.75,36.19,3.63,-13.13,1.5,-0.13739265860988065,-1.916357617474224,0.2020054600230736,-160.19378503937315,-15.887402736014533,-11.662626087112969,-0.0111,-0.9851,-0.1382,-0.1016
227,2700296.0,2672.467502,1.0,2.29,-1.4,-9.42,-4.25,-17.75,36.19,3.63,-13.13,1.5,-0.13739265860988065,-1.916357617474224,0.2020054600230736,-160.19378503937315,-15.887402736014533,-11.662626087112969,-0.0111,-0.9851,-0.1382,-0.1016
228,2700331.0,2672.5224989999997,1.0,2.6,-0.37,-10.17,-3.5,-18.19,36.56,-9.0,-12.75,5.13,0.3611333915154259,-1.0784115027759449,-0.6352086134946813,-160.66576217664587,-15.667598608855753,-11.19045487105573,-0.0143,-0.9858,-0.1363,-0.0975
229,2700331.0,2672.5224989999997,1.0,2.6,-0.37,-10.17,-3.5,-18.19,36.56,-9.0,-12.75,5.13,0.3611333915154259,-1.0784115027759449,-0.6352086134946813,-160.66576217664587,-15.667598608855753,-11.19045487105573,-0.0143,-0.9858,-0.1363,-0.0975
230,2700365.0,2672.5302420000003,1.0,1.92,0.05,-9.41,-2.75,-18.5,36.19,-6.06,-11.44,6.13,0.04645939014666325,-0.5244518912764221,0.21708318294283835,-161.00999937311443,-15.459416628401115,-10.776022876638457,-0.0159,-0.9863,-0.1345,-0.0939
231,2700365.0,2672.5302420000003,1.0,1.92,0.05,-9.41,-2.75,-18.5,36.19,-6.06,-11.44,6.13,0.04645939014666325,-0.5244518912764221,0.21708318294283835,-161.00999937311443,-15.459416628401115,-10.776022876638457,-0.0159,-0.9863,-0.1345,-0.0939
232,2700402.0,2672.588581,1.0,1.56,-0.48,-9.19,-2.06,-18.5,35.75,0.31,8.19,11.31,-0.384067345289834,-0.9457844180145054,0.5288224466918976,-161.28990608516978,-15.135679738336453,-10.753003071870054,-0.0165,-0.9867,-0.1317,-0.0937
233,2700402.0,2672.588581,1.0,1.56,-0.48,-9.19,-2.06,-18.5,35.75,0.31,8.19,11.31,-0.384067345289834,-0.9457844180145054,0.5288224466918976,-161.28990608516978,-15.135679738336453,-10.753003071870054,-0.0165,-0.9867,-0.1317,-0.0937
234,2700437.0,2672.605087,1.0,1.69,0.39,-9.75,-2.06,-18.5,35.75,-17.12,6.38,17.56,-0.20599938303417611,-0.17920444528996346,-0.09265048139654652,-161.50259041794217,-14.592535930080526,-11.086833319532733,-0.019,-0.987,-0.127,-0.0966
235,2700437.0,2672.605087,1.0,1.69,0.39,-9.75,-2.06,-18.5,35.75,-17.12,6.38,17.56,-0.20599938303417611,-0.17920444528996346,-0.09265048139654652,-161.50259041794217,-14.592535930080526,-11.086833319532733,-0.019,-0.987,-0.127,-0.0966
236,2700474.0,2672.650573,1.0,2.78,0.73,-10.59,-2.5,-18.87,36.56,-16.31,13.5,8.13,0.6445142699832869,-0.21150678354598407,-1.1454852363957766,-161.50259041794217,-14.118999098561428,-11.570479767497385,-0.0236,-0.987,-0.1229,-0.1008
237,2700474.0,2672.650573,1.0,2.78,0.73,-10.59,-2.5,-18.87,36.56,-16.31,13.5,8.13,0.6445142699832869,-0.21150678354598407,-1.1454852363957766,-161.50259041794217,-14.118999098561428,-11.570479767497385,-0.0236,-0.987,-0.1229,-0.1008
238,2700509.0,2672.720525,1.0,1.55,0.25,-9.37,-2.75,-18.87,35.69,1.94,-15.94,14.44,-0.3625120703233979,-0.3692921170368301,0.3201275427892263,-161.86255690793462,-13.738036026791262,-11.409241734119899,-0.0249,-0.9875,-0.1196,-0.0994
239,2700509.0,2672.720525,1.0,1.55,0.25,-9.37,-2.75,-18.87,35.69,1.94,-15.94,14.44,-0.3625120703233979,-0.3692921170368301,0.3201275427892263,-161.86255690793462,-13.738036026791262,-11.409241734119899,-0.0249,-0.9875,-0.1196,-0.0994
240,2700544.0,2672.7386109999998,1.0,1.49,0.22,-9.3,-2.75,-18.87,35.69,-14.13,2.13,10.94,-0.38588857857326203,-0.4172996520461656,0.4026375050418576,-162.37875406030932,-13.172643633299911,-11.236511835589646,-0.0269,-0.9882,-0.1147,-0.0979
241,2700544.0,2672.7386109999998,1.0,1.49,0.22,-9.3,-2.75,-18.87,35.69,-14.13,2.13,10.94,-0.38588857857326203,-0.4172996520461656,0.4026375050418576,-162.37875406030932,-13.172643633299911,-11.236511835589646,-0.0269,-0.9882,-0.1147,-0.0979
242,2700578.0,2672.778212,1.0,2.14,0.74,-9.87,-3.5,-19.25,37.0,-11.0,-2.31,3.44,0.2164467896679043,-0.15155015887505685,-0.3163082305069018,-162.45372607444324,-12.930431986971733,-11.294085603048902,-0.0308,-0.9883,-0.1126,-0.0984
243,2700578.0,2672.778212,1.0,2.14,0.74,-9.87,-3.5,-19.25,37.0,-11.0,-2.31,3.44,0.2164467896679043,-0.15155015887505685,-0.3163082305069018,-162.45372607444324,-12.930431986971733,-11.294085603048902,-0.0308,-0.9883,-0.1126,-0.0984
