,TIME,ELAPSED_SECONDS,PSTATE,acc_x,acc_y,acc_z,mag_x,mag_y,mag_z,gyr_x,gyr_y,gyr_z,lin_x,lin_y,lin_z,eul_x,eul_y,eul_z,qua_w,qua_x,qua_y,qua_z
0,1160009.0,1020.0671779999999,1.0,2.86,6.26,-7.33,-15.25,-28.87,15.5,1.12,-0.12,1.12,0.0801929000907054,-0.02642247715318824,-0.24765111700838996,-125.62096841990898,31.102474019884113,-5.284543793645802,-0.36700000000000005,-0.8895,0.2681,-0.0461
1,1160009.0,1020.0671779999999,1.0,2.86,6.26,-7.33,-15.25,-28.87,15.5,1.12,-0.12,1.12,0.0801929000907054,-0.02642247715318824,-0.24765111700838996,-125.62096841990898,31.102474019884113,-5.284543793645802,-0.36700000000000005,-0.8895,0.2681,-0.0461
2,1160044.0,1020.077235,1.0,2.8,6.4,-7.18,-15.69,-29.56,16.75,-2.63,-3.81,-1.44,-0.03764065387664611,0.131196519933364,-0.2100246305514588,-125.59589546247182,31.114368796125287,-5.146891353190199,-0.3673,-0.8894,0.2682,-0.0449
3,1160044.0,1020.077235,1.0,2.8,6.4,-7.18,-15.69,-29.56,16.75,-2.63,-3.81,-1.44,-0.03764065387664611,0.131196519933364,-0.2100246305514588,-125.59589546247182,31.114368796125287,-5.146891353190199,-0.3673,-0.8894,0.2682,-0.0449
4,1160081.0,1020.134959,1.0,2.62,6.09,-7.25,-15.69,-28.87,16.37,2.69,-0.5,-1.75,-0.02018060996677401,-0.1632192135283721,-0.0161781177732383,-125.696251455902,31.078685498016352,-5.112479412053579,-0.3667,-0.8898,0.2679,-0.0446
5,1160081.0,1020.134959,1.0,2.62,6.09,-7.25,-15.69,-28.87,16.37,2.69,-0.5,-1.75,-0.02018060996677401,-0.1632192135283721,-0.0161781177732383,-125.696251455902,31.078685498016352,-5.112479412053579,-0.3667,-0.8898,0.2679,-0.0446
6,1160114.0,1020.152824,1.0,2.62,6.02,-7.22,-15.69,-28.87,16.37,-3.19,0.5,0.5,0.013700901935788046,-0.18761180028531133,0.04971328309546408,-125.696251455902,31.06679175207397,-5.112479412053579,-0.3669,-0.8898,0.2678,-0.0446
7,1160114.0,1020.152824,1.0,2.62,6.02,-7.22,-15.69,-28.87,16.37,-3.19,0.5,0.5,0.013700901935788046,-0.18761180028531133,0.04971328309546408,-125.696251455902,31.06679175207397,-5.112479412053579,-0.3669,-0.8898,0.2678,-0.0446
8,1160151.0,1020.1610890000001,1.0,2.87,6.21,-7.39,-15.69,-29.19,16.75,-0.37,-1.44,0.5,0.14999422418970287,-0.07586244825174003,-0.2623542517448048,-125.696251455902,31.078685498016352,-5.101008867683621,-0.3667,-0.8898,0.2679,-0.0445
9,1160151.0,1020.1610890000001,1.0,2.87,6.21,-7.39,-15.69,-29.19,16.75,-0.37,-1.44,0.5,0.14999422418970287,-0.07586244825174003,-0.2623542517448048,-125.696251455902,31.078685498016352,-5.101008867683621,-0.3667,-0.8898,0.2679,-0.0445
10,1160187.0,1020.210639,1.0,2.78,6.41,-7.22,-15.0,-28.87,15.5,-2.19,-3.5,-0.44,-0.029346721560156937,0.11836373863213635,-0.2397438204368019,-125.64605206137207,31.12626391611525,-4.96336629149859,-0.3669,-0.8896,0.2683,-0.0433
11,1160187.0,1020.210639,1.0,2.78,6.41,-7.22,-15.0,-28.87,15.5,-2.19,-3.5,-0.44,-0.029346721560156937,0.11836373863213635,-0.2397438204368019,-125.64605206137207,31.12626391611525,-4.96336629149859,-0.3669,-0.8896,0.2683,-0.0433
12,1160220.0,1020.2664300000001,1.0,2.57,6.15,-6.95,-15.0,-28.87,15.5,1.31,-1.5,-0.44,-0.09866324812991012,0.06732498068785775,0.1777542735709403,-125.696251455902,31.16195134015795,-4.871608567013157,-0.3665,-0.8898,0.2686,-0.0425
13,1160220.0,1020.2664300000001,1.0,2.57,6.15,-6.95,-15.0,-28.87,15.5,1.31,-1.5,-0.44,-0.09866324812991012,0.06732498068785775,0.1777542735709403,-125.696251455902,31.16195134015795,-4.871608567013157,-0.3665,-0.8898,0.2686,-0.0425
14,1160255.0,1020.2699060000001,1.0,2.75,6.27,-7.38,-16.5,-29.19,15.5,0.56,2.63,0.44,0.03462547612251449,-0.07605478264376586,-0.25977025480956506,-125.696251455902,31.138159380012002,-4.9518964029981625,-0.3665,-0.8898,0.2684,-0.0432
15,1160255.0,1020.2699060000001,1.0,2.75,6.27,-7.38,-16.5,-29.19,15.5,0.56,2.63,0.44,0.03462547612251449,-0.07605478264376586,-0.25977025480956506,-125.696251455902,31.138159380012002,-4.9518964029981625,-0.3665,-0.8898,0.2684,-0.0432
16,1160292.0,1020.306501,1.0,2.82,6.26,-7.38,-15.25,-30.0,15.19,-0.94,-0.69,-1.75,0.10605009674756473,-0.05519993050062277,-0.2725417505647556,-125.696251455902,31.114368796125287,-4.928956774809122,-0.3668,-0.8898,0.2682,-0.043
17,1160292.0,1020.306501,1.0,2.82,6.26,-7.38,-15.25,-30.0,15.19,-0.94,-0.69,-1.75,0.10605009674756473,-0.05519993050062277,-0.2725417505647556,-125.696251455902,31.114368796125287,-4.928956774809122,-0.3668,-0.8898,0.2682,-0.043
18,1160327.0,1020.4150490000001,1.0,2.58,6.23,-7.13,-15.0,-29.56,15.19,-1.25,-2.13,-2.13,-0.09736486218646856,-0.002007577171220909,-0.006439016881754966,-125.74649376545209,31.06679175207397,-4.837200229263812,-0.3666,-0.89,0.2678,-0.0422
19,1160327.0,1020.4150490000001,1.0,2.58,6.23,-7.13,-15.0,-29.56,15.19,-1.25,-2.13,-2.13,-0.09736486218646856,-0.002007577171220909,-0.006439016881754966,-125.74649376545209,31.06679175207397,-4.837200229263812,-0.3666,-0.89,0.2678,-0.0422
20,1160361.0,1020.418834,1.0,2.67,6.21,-7.28,-15.0,-29.56,15.19,0.31,1.31,0.12,0.0009044054912513144,-0.07048338521937136,-0.1274544525643435,-125.77163105081793,31.06679175207397,-4.871608567013157,-0.3663,-0.8901,0.2678,-0.0425
21,1160361.0,1020.418834,1.0,2.67,6.21,-7.28,-15.0,-29.56,15.19,0.31,1.31,0.12,0.0009044054912513144,-0.07048338521937136,-0.1274544525643435,-125.77163105081793,31.06679175207397,-4.871608567013157,-0.3663,-0.8901,0.2678,-0.0425
22,1160398.0,1020.459597,1.0,2.74,6.25,-7.39,-14.19,-28.87,15.5,-1.63,1.0,-0.31,0.05114022885198083,-0.09791971207470596,-0.25167970263851736,-125.74649376545209,31.04300528938303,-4.906017344265486,-0.3666,-0.89,0.2676,-0.0428
23,1160398.0,1020.459597,1.0,2.74,6.25,-7.39,-14.19,-28.87,15.5,-1.63,1.0,-0.31,0.05114022885198083,-0.09791971207470596,-0.25167970263851736,-125.74649376545209,31.04300528938303,-4.906017344265486,-0.3666,-0.89,0.2676,-0.0428
24,1160433.0,1020.4754230000001,1.0,2.68,6.3,-7.22,-15.69,-29.19,16.75,-0.94,0.44,-0.5,-0.04406828083456876,0.0201437050591049,-0.14314659177868982,-125.74649376545209,31.04300528938303,-4.89454770282183,-0.3666,-0.89,0.2676,-0.0427
25,1160433.0,1020.4754230000001,1.0,2.68,6.3,-7.22,-15.69,-29.19,16.75,-0.94,0.44,-0.5,-0.04406828083456876,0.0201437050591049,-0.14314659177868982,-125.74649376545209,31.04300528938303,-4.89454770282183,-0.3666,-0.89,0.2676,-0.0427
26,1160470.0,1020.4781310000001,1.0,2.62,6.03,-7.15,-15.69,-29.19,16.75,1.06,0.75,0.75,0.02529596209225177,-0.10708974156612472,0.09399372575899534,-125.821937957947,31.04300528938303,-4.928956774809122,-0.366,-0.8903,0.2676,-0.043
27,1160470.0,1020.4781310000001,1.0,2.62,6.03,-7.15,-15.69,-29.19,16.75,1.06,0.75,0.75,0.02529596209225177,-0.10708974156612472,0.09399372575899534,-125.821937957947,31.04300528938303,-4.928956774809122,-0.366,-0.8903,0.2676,-0.043
28,1160505.0,1020.514849,1.0,2.69,6.11,-7.24,-15.25,-28.87,15.5,0.63,-0.19,0.31,0.054587300854902536,-0.08779755299244041,-0.040944214643186434,-125.821937957947,31.04300528938303,-4.928956774809122,-0.3659,-0.8903,0.2676,-0.043
29,1160505.0,1020.514849,1.0,2.69,6.11,-7.24,-15.25,-28.87,15.5,0.63,-0.19,0.31,0.054587300854902536,-0.08779755299244041,-0.040944214643186434,-125.821937957947,31.04300528938303,-4.928956774809122,-0.3659,-0.8903,0.2676,-0.043
30,1160542.0,1020.5714949999999,1.0,2.71,6.22,-7.24,-15.69,-29.19,15.19,1.06,0.06,0.0,0.010746304490640846,-0.013298073200006756,-0.11553764578603246,-125.84710760989958,31.031112572318907,-4.96336629149859,-0.3658,-0.8904,0.2675,-0.0433
31,1160542.0,1020.5714949999999,1.0,2.71,6.22,-7.24,-15.69,-29.19,15.19,1.06,0.06,0.0,0.010746304490640846,-0.013298073200006756,-0.11553764578603246,-125.84710760989958,31.031112572318907,-4.96336629149859,-0.3658,-0.8904,0.2675,-0.0433
32,1160577.0,1020.588853,1.0,2.65,6.33,-7.04,-15.69,-29.19,15.19,0.56,2.81,-2.31,-0.12095916942393957,0.1609416043459273,-0.022514088533817755,-125.87228808096123,30.983545128924852,-4.986306217889054,-0.3657,-0.8905,0.2671,-0.0435
33,1160577.0,1020.588853,1.0,2.65,6.33,-7.04,-15.69,-29.19,15.19,0.56,2.81,-2.31,-0.12095916942393957,0.1609416043459273,-0.022514088533817755,-125.87228808096123,30.983545128924852,-4.986306217889054,-0.3657,-0.8905,0.2671,-0.0435
34,1160609.0,1020.6301779999999,1.0,2.62,6.12,-7.13,-16.06,-29.56,16.75,-2.63,6.69,-2.38,-0.03839528804493675,-0.06031602883680433,0.052133724011664384,-125.89747938631321,30.805215870860085,-5.146891353190199,-0.3666,-0.8906,0.2656,-0.0449
35,1160609.0,1020.6301779999999,1.0,2.62,6.12,-7.13,-16.06,-29.56,16.75,-2.63,6.69,-2.38,-0.03839528804493675,-0.06031602883680433,0.052133724011664384,-125.89747938631321,30.805215870860085,-5.146891353190199,-0.3666,-0.8906,0.2656,-0.0449
36,1160644.0,1020.6863529999999,1.0,2.17,5.91,-6.54,-13.75,-29.19,16.75,-6.25,7.13,-3.75,-0.3823241568131523,-0.01153704395536348,0.7367935989463492,-125.821937957947,30.650725683430657,-5.238658808769412,-0.368,-0.8903,0.2643,-0.0457
37,1160644.0,1020.6863529999999,1.0,2.17,5.91,-6.54,-13.75,-29.19,16.75,-6.25,7.13,-3.75,-0.3823241568131523,-0.01153704395536348,0.7367935989463492,-125.821937957947,30.650725683430657,-5.238658808769412,-0.368,-0.8903,0.2643,-0.0457
38,1160681.0,1020.739161,1.0,2.92,6.46,-6.95,-15.25,-30.0,15.5,-14.0,25.56,-9.88,0.0217770835783741,0.24447810806176,-0.11807952847126126,-125.5457815403515,30.17572764472251,-5.6516548202737225,-0.3729,-0.8892,0.2603,-0.0493
39,1160681.0,1020.739161,1.0,2.92,6.46,-6.95,-15.25,-30.0,15.5,-14.0,25.56,-9.88,0.0217770835783741,0.24447810806176,-0.11807952847126126,-125.5457815403515,30.17572764472251,-5.6516548202737225,-0.3729,-0.8892,0.2603,-0.0493
40,1160716.0,1020.7573160000001,1.0,3.32,6.85,-7.2,-15.25,-30.0,15.5,-28.56,18.87,-21.12,0.2864150571440692,0.24945219888414535,-0.664292651715412,-125.07180537967443,29.215470253177052,-5.8467059276897535,-0.3829,-0.8873,0.2522,-0.051
41,1160716.0,1020.7573160000001,1.0,3.32,6.85,-7.2,-15.25,-30.0,15.5,-28.56,18.87,-21.12,0.2864150571440692,0.24945219888414535,-0.664292651715412,-125.07180537967443,29.215470253177052,-5.8467059276897535,-0.3829,-0.8873,0.2522,-0.051
42,1160753.0,1020.7928800000001,1.0,2.46,6.54,-6.6,-15.0,-30.0,15.19,-12.81,28.19,-32.63,-0.29440921210716564,0.01957310996142469,0.19956198597656005,-124.94770072590693,28.174596802852534,-5.984399237389443,-0.3893,-0.8868,0.2434,-0.0522
43,1160753.0,1020.7928800000001,1.0,2.46,6.54,-6.6,-15.0,-30.0,15.19,-12.81,28.19,-32.63,-0.29440921210716564,0.01957310996142469,0.19956198597656005,-124.94770072590693,28.174596802852534,-5.984399237389443,-0.3893,-0.8868,0.2434,-0.0522
44,1160790.0,1020.7993869999999,1.0,2.21,6.58,-5.9,-14.56,-30.37,13.88,-36.0,39.19,-37.56,-0.4901390147856178,0.21676180464873074,0.7125157329996252,-124.57692406667047,26.29986168212807,-6.454917855397503,-0.4018,-0.8853,0.2275,-0.0563
45,1160790.0,1020.7993869999999,1.0,2.21,6.58,-5.9,-14.56,-30.37,13.88,-36.0,39.19,-37.56,-0.4901390147856178,0.21676180464873074,0.7125157329996252,-124.57692406667047,26.29986168212807,-6.454917855397503,-0.4018,-0.8853,0.2275,-0.0563
46,1160822.0,1020.858743,1.0,2.0,7.08,-5.22,-14.56,-30.37,13.88,-51.06,73.37,-65.75,-0.8244813782068694,0.6637107449158268,0.8481613716613214,-123.8908464883956,24.13923033811999,-7.063311874799694,-0.4167,-0.8825,0.2091,-0.0616
47,1160822.0,1020.858743,1.0,2.0,7.08,-5.22,-14.56,-30.37,13.88,-51.06,73.37,-65.75,-0.8244813782068694,0.6637107449158268,0.8481613716613214,-123.8908464883956,24.13923033811999,-7.063311874799694,-0.4167,-0.8825,0.2091,-0.0616
48,1160857.0,1020.8753220000001,1.0,2.18,5.28,-4.84,-14.56,-31.06,12.69,-54.44,99.62,-87.5,0.1870585097815776,-0.4354240428981893,2.3345810082959964,-122.73229666048941,19.924582858932858,-8.487533709607298,-0.4407,-0.8777,0.17300000000000001,-0.07400000000000001
49,1160857.0,1020.8753220000001,1.0,2.18,5.28,-4.84,-14.56,-31.06,12.69,-54.44,99.62,-87.5,0.1870585097815776,-0.4354240428981893,2.3345810082959964,-122.73229666048941,19.924582858932858,-8.487533709607298,-0.4407,-0.8777,0.17300000000000001,-0.07400000000000001
50,1160894.0,1020.916349,1.0,2.59,8.12,-4.19,-13.06,-32.19,10.25,-58.44,70.94,-29.81,-0.4178618031415733,1.383049221576095,0.4198951633073413,-121.22012218744959,18.088822794467358,-9.522053719499675,-0.4575,-0.8713,0.1572,-0.083
51,1160894.0,1020.916349,1.0,2.59,8.12,-4.19,-13.06,-32.19,10.25,-58.44,70.94,-29.81,-0.4178618031415733,1.383049221576095,0.4198951633073413,-121.22012218744959,18.088822794467358,-9.522053719499675,-0.4575,-0.8713,0.1572,-0.083
52,1160931.0,1020.9820460000001,1.0,1.76,5.96,-3.71,-12.25,-33.0,8.69,-9.5,104.5,-48.44,-0.4765648097242594,0.28064393143957256,2.590180990444245,-120.52337099749846,15.239724647140953,-11.708702081111404,-0.4669,-0.8683,0.1326,-0.102
53,1160931.0,1020.9820460000001,1.0,1.76,5.96,-3.71,-12.25,-33.0,8.69,-9.5,104.5,-48.44,-0.4765648097242594,0.28064393143957256,2.590180990444245,-120.52337099749846,15.239724647140953,-11.708702081111404,-0.4669,-0.8683,0.1326,-0.102
54,1160966.0,1020.990745,1.0,0.31,2.12,-3.41,-12.25,-33.0,8.69,-44.31,127.81,-52.94,-0.7032837719565551,-1.7972211994790996,6.2719664361932645,-119.10638959402516,12.319391311580373,-13.8765501759761,-0.4802,-0.8621,0.1073,-0.1208
55,1160966.0,1020.990745,1.0,0.31,2.12,-3.41,-12.25,-33.0,8.69,-44.31,127.81,-52.94,-0.7032837719565551,-1.7972211994790996,6.2719664361932645,-119.10638959402516,12.319391311580373,-13.8765501759761,-0.4802,-0.8621,0.1073,-0.1208
56,1161003.0,1021.030627,1.0,0.17,-1.57,-4.36,-11.5,-33.38,6.56,50.88,92.81,57.38,-0.1506683996095025,-4.529523579210809,8.824756330231011,-118.67809259864173,10.48830635783265,-17.949595138790567,-0.4769,-0.8602,0.0914,-0.156
57,1161003.0,1021.030627,1.0,0.17,-1.57,-4.36,-11.5,-33.38,6.56,50.88,92.81,57.38,-0.1506683996095025,-4.529523579210809,8.824756330231011,-118.67809259864173,10.48830635783265,-17.949595138790567,-0.4769,-0.8602,0.0914,-0.156
58,1161037.0,1021.0493050000001,1.0,0.6,-2.84,-2.53,-11.5,-33.0,6.19,8.81,80.5,96.06,0.957622887834293,-3.665220511386337,10.49629991670324,-118.16321281406336,11.420757981123572,-21.32226479540238,-0.4689,-0.8579,0.0995,-0.185
59,1161037.0,1021.0493050000001,1.0,0.6,-2.84,-2.53,-11.5,-33.0,6.19,8.81,80.5,96.06,0.957622887834293,-3.665220511386337,10.49629991670324,-118.16321281406336,11.420757981123572,-21.32226479540238,-0.4689,-0.8579,0.0995,-0.185
60,1161072.0,1021.102981,1.0,3.28,-1.45,0.61,-11.5,-33.0,6.19,-145.44,97.19,133.06,3.619366838018928,-0.23696067038541715,9.529101206921448,-113.08603923231148,14.153639819523336,-26.1821984911941,-0.4874,-0.8343,0.1232,-0.2265
61,1161072.0,1021.102981,1.0,3.28,-1.45,0.61,-11.5,-33.0,6.19,-145.44,97.19,133.06,3.619366838018928,-0.23696067038541715,9.529101206921448,-113.08603923231148,14.153639819523336,-26.1821984911941,-0.4874,-0.8343,0.1232,-0.2265
62,1161107.0,1021.144736,1.0,7.85,4.51,1.35,-14.5,-30.69,5.25,-200.0,105.31,185.94,4.046587099833428,2.7445769294382103,2.0685927294793665,-103.21965750009808,19.412860145181693,-31.94786641552185,-0.5306,-0.7838,0.1686,-0.2752
63,1161107.0,1021.144736,1.0,7.85,4.51,1.35,-14.5,-30.69,5.25,-200.0,105.31,185.94,4.046587099833428,2.7445769294382103,2.0685927294793665,-103.21965750009808,19.412860145181693,-31.94786641552185,-0.5306,-0.7838,0.1686,-0.2752
64,1161144.0,1021.2021679999999,1.0,10.59,1.17,4.12,-19.37,-29.19,-0.37,-49.94,132.5,193.5,7.97859429152861,3.738694293615669,2.5364644377139434,-98.0332655181114,22.559552093060894,-37.446822845384496,-0.5374,-0.7549,0.1956,-0.321
65,1161144.0,1021.2021679999999,1.0,10.59,1.17,4.12,-19.37,-29.19,-0.37,-49.94,132.5,193.5,7.97859429152861,3.738694293615669,2.5364644377139434,-98.0332655181114,22.559552093060894,-37.446822845384496,-0.5374,-0.7549,0.1956,-0.321
66,1161181.0,1021.219546,1.0,13.89,4.79,3.59,-22.69,-24.0,-4.38,-306.63,163.06,166.75,5.621892613688751,2.891064435565129,-3.9338146889965997,-86.01592640293836,27.242195772473625,-44.345450751183655,-0.5803,-0.6821,0.2355,-0.3774
67,1161181.0,1021.219546,1.0,13.89,4.79,3.59,-22.69,-24.0,-4.38,-306.63,163.06,166.75,5.621892613688751,2.891064435565129,-3.9338146889965997,-86.01592640293836,27.242195772473625,-44.345450751183655,-0.5803,-0.6821,0.2355,-0.3774
68,1161216.0,1021.257243,1.0,14.12,8.51,6.07,-22.69,-24.0,-4.38,-177.63,113.12,164.69,1.4324020695184028,4.5235380238246465,-7.108586565246497,-77.07108573183801,30.94787313807167,-48.1836233337003,-0.6116,-0.623,0.2668,-0.4082
69,1161216.0,1021.257243,1.0,14.12,8.51,6.07,-22.69,-24.0,-4.38,-177.63,113.12,164.69,1.4324020695184028,4.5235380238246465,-7.108586565246497,-77.07108573183801,30.94787313807167,-48.1836233337003,-0.6116,-0.623,0.2668,-0.4082
70,1161252.0,1021.3159710000001,1.0,13.18,6.14,8.58,-25.37,-17.69,-11.69,-161.81,73.25,148.25,1.211528227267744,5.82093214831411,-5.9945318633688505,-69.27745617086707,34.96325925488904,-52.78270669863224,-0.6238,-0.5684,0.3004,-0.4445
71,1161252.0,1021.3159710000001,1.0,13.18,6.14,8.58,-25.37,-17.69,-11.69,-161.81,73.25,148.25,1.211528227267744,5.82093214831411,-5.9945318633688505,-69.27745617086707,34.96325925488904,-52.78270669863224,-0.6238,-0.5684,0.3004,-0.4445
72,1161289.0,1021.3229349999999,1.0,14.31,8.64,8.91,-27.75,-11.69,-15.5,-162.56,91.19,149.75,-3.0216537203514315,4.308105642572267,-8.390152866622572,-60.450396568246546,39.023479875283186,-56.56249373757082,-0.6408,-0.5034,0.33399999999999996,-0.4738
73,1161289.0,1021.3229349999999,1.0,14.31,8.64,8.91,-27.75,-11.69,-15.5,-162.56,91.19,149.75,-3.0216537203514315,4.308105642572267,-8.390152866622572,-60.450396568246546,39.023479875283186,-56.56249373757082,-0.6408,-0.5034,0.33399999999999996,-0.4738
74,1161324.0,1021.3768789999999,1.0,13.26,6.3,5.33,-27.75,-11.69,-15.5,-35.0,128.13,97.06,-2.272492106877205,0.17172023478535306,-5.644330285572367,-55.549919093881286,39.364064490012716,-59.973537976801865,-0.6478,-0.466,0.3368,-0.4998
75,1161324.0,1021.3768789999999,1.0,13.26,6.3,5.33,-27.75,-11.69,-15.5,-35.0,128.13,97.06,-2.272492106877205,0.17172023478535306,-5.644330285572367,-55.549919093881286,39.364064490012716,-59.973537976801865,-0.6478,-0.466,0.3368,-0.4998
76,1161359.0,1021.477874,1.0,13.06,4.26,3.75,-27.0,-6.19,-16.37,-50.88,101.94,106.19,-1.4272770569203836,-2.1305819817269738,-4.200391108739888,-50.64336935396991,39.23022039326242,-64.60646007520779,-0.6472,-0.4277,0.3357,-0.5344
77,1161359.0,1021.477874,1.0,13.06,4.26,3.75,-27.0,-6.19,-16.37,-50.88,101.94,106.19,-1.4272770569203836,-2.1305819817269738,-4.200391108739888,-50.64336935396991,39.23022039326242,-64.60646007520779,-0.6472,-0.4277,0.3357,-0.5344
78,1161394.0,1021.48956,1.0,13.71,3.65,2.28,-26.69,-2.25,-20.06,23.5,42.0,113.56,-1.5566832875526644,-4.033746072280197,-3.897022127083984,-48.49763058758104,39.449267117403366,-68.13926040565448,-0.6353,-0.4107,0.3375,-0.5602
79,1161394.0,1021.48956,1.0,13.71,3.65,2.28,-26.69,-2.25,-20.06,23.5,42.0,113.56,-1.5566832875526644,-4.033746072280197,-3.897022127083984,-48.49763058758104,39.449267117403366,-68.13926040565448,-0.6353,-0.4107,0.3375,-0.5602
80,1161433.0,1021.4928449999999,1.0,13.85,5.33,2.52,-26.0,0.75,-21.69,-69.5,33.25,59.13,-4.065243531454723,-4.255004083505412,-4.047971441212956,-45.57320299258629,40.668959944372276,-70.78858910682754,-0.6275,-0.3873,0.3475,-0.5792
81,1161433.0,1021.4928449999999,1.0,13.85,5.33,2.52,-26.0,0.75,-21.69,-69.5,33.25,59.13,-4.065243531454723,-4.255004083505412,-4.047971441212956,-45.57320299258629,40.668959944372276,-70.78858910682754,-0.6275,-0.3873,0.3475,-0.5792
82,1161465.0,1021.5376460000001,1.0,11.75,5.17,3.66,-26.0,0.75,-21.69,-59.63,18.5,12.75,-4.396997814177095,-2.6210167658148205,-2.5215161789351104,-43.0983947119019,41.96711256530092,-70.74642327318205,-0.6339,-0.3673,0.3581,-0.5789
83,1161465.0,1021.5376460000001,1.0,11.75,5.17,3.66,-26.0,0.75,-21.69,-59.63,18.5,12.75,-4.396997814177095,-2.6210167658148205,-2.5215161789351104,-43.0983947119019,41.96711256530092,-70.74642327318205,-0.6339,-0.3673,0.3581,-0.5789
84,1161504.0,1021.6373070000001,1.0,11.04,3.64,3.28,-26.69,3.06,-22.87,-16.0,14.19,5.38,-2.9751045353615795,-2.6947760921148625,-1.585300439544458,-42.11442571308733,42.11442571308733,-70.74642327318205,-0.6378,-0.3593,0.3593,-0.5789
85,1161504.0,1021.6373070000001,1.0,11.04,3.64,3.28,-26.69,3.06,-22.87,-16.0,14.19,5.38,-2.9751045353615795,-2.6947760921148625,-1.585300439544458,-42.11442571308733,42.11442571308733,-70.74642327318205,-0.6378,-0.3593,0.3593,-0.5789
86,1161539.0,1021.6481269999999,1.0,9.69,3.41,4.32,-25.87,4.06,-22.5,-6.5,-0.75,3.19,-2.928595827275623,-1.1388564777661396,-0.885072611605386,-41.881213444145885,42.26181180963939,-70.80264683442816,-0.6377,-0.3574,0.3605,-0.5793
87,1161539.0,1021.6481269999999,1.0,9.69,3.41,4.32,-25.87,4.06,-22.5,-6.5,-0.75,3.19,-2.928595827275623,-1.1388564777661396,-0.885072611605386,-41.881213444145885,42.26181180963939,-70.80264683442816,-0.6377,-0.3574,0.3605,-0.5793
88,1161574.0,1021.6512039999999,1.0,8.67,1.69,4.7,-25.87,4.06,-22.5,22.25,5.75,-1.56,-1.2405780106090132,-0.18484931069015695,-0.12017209631716776,-42.31095678024124,41.74627885444266,-71.1404012489265,-0.6359,-0.3609,0.3563,-0.5817
89,1161574.0,1021.6512039999999,1.0,8.67,1.69,4.7,-25.87,4.06,-22.5,22.25,5.75,-1.56,-1.2405780106090132,-0.18484931069015695,-0.12017209631716776,-42.31095678024124,41.74627885444266,-71.1404012489265,-0.6359,-0.3609,0.3563,-0.5817
90,1161609.0,1021.6542189999999,1.0,8.34,1.3,4.35,-25.87,3.38,-22.5,11.75,15.88,2.25,-0.8235915426563802,-0.3789611155712802,0.35433888346612363,-42.335532323855574,41.072508978695026,-71.63424070118842,-0.6356,-0.3611,0.3508,-0.5852
91,1161609.0,1021.6542189999999,1.0,8.34,1.3,4.35,-25.87,3.38,-22.5,11.75,15.88,2.25,-0.8235915426563802,-0.3789611155712802,0.35433888346612363,-42.335532323855574,41.072508978695026,-71.63424070118842,-0.6356,-0.3611,0.3508,-0.5852
92,1161644.0,1021.70169,1.0,8.39,0.5,4.09,-25.87,3.38,-22.06,42.94,2.38,9.56,0.012336478971173737,-0.6057172741892916,0.4791018551210176,-42.72901972322527,40.510130890629796,-72.27144436256579,-0.6323,-0.3643,0.3462,-0.5897
93,1161644.0,1021.70169,1.0,8.39,0.5,4.09,-25.87,3.38,-22.06,42.94,2.38,9.56,0.012336478971173737,-0.6057172741892916,0.4791018551210176,-42.72901972322527,40.510130890629796,-72.27144436256579,-0.6323,-0.3643,0.3462,-0.5897
94,1161680.0,1021.717924,1.0,8.52,0.31,3.86,-25.37,3.0,-22.37,42.13,-8.56,17.81,0.2312750641067807,-0.8123163584053974,0.4860945455976466,-43.764459893907535,39.87562235967538,-73.32496313273802,-0.6231,-0.3727,0.341,-0.5971
95,1161680.0,1021.717924,1.0,8.52,0.31,3.86,-25.37,3.0,-22.37,42.13,-8.56,17.81,0.2312750641067807,-0.8123163584053974,0.4860945455976466,-43.764459893907535,39.87562235967538,-73.32496313273802,-0.6231,-0.3727,0.341,-0.5971
96,1161715.0,1021.755234,1.0,8.36,0.62,4.45,-25.37,3.0,-22.37,16.19,-8.44,14.13,-0.09432308842042404,-0.16495802619521815,0.3176884127353201,-44.19699919021153,39.86343282424955,-73.79710182057964,-0.6178,-0.3762,0.3409,-0.6004
97,1161715.0,1021.755234,1.0,8.36,0.62,4.45,-25.37,3.0,-22.37,16.19,-8.44,14.13,-0.09432308842042404,-0.16495802619521815,0.3176884127353201,-44.19699919021153,39.86343282424955,-73.79710182057964,-0.6178,-0.3762,0.3409,-0.6004
98,1161752.0,1021.7700869999999,1.0,8.66,0.7,4.15,-25.37,2.19,-22.75,0.37,-13.88,8.69,-0.21758953077155274,-0.5171445922828124,0.1945057924482203,-44.345450751183655,40.13171155486349,-74.01219332198103,-0.6144,-0.3774,0.3431,-0.6019
99,1161752.0,1021.7700869999999,1.0,8.66,0.7,4.15,-25.37,2.19,-22.75,0.37,-13.88,8.69,-0.21758953077155274,-0.5171445922828124,0.1945057924482203,-44.345450751183655,40.13171155486349,-74.01219332198103,-0.6144,-0.3774,0.3431,-0.6019
100,1161787.0,1021.850223,1.0,8.51,1.04,4.97,-24.69,3.38,-21.56,0.69,-11.56,6.13,-0.5769257655767202,0.34723464270753346,-0.08016873829582494,-44.209367167614204,40.889011943209034,-73.29639527690128,-0.6166,-0.3763,0.3493,-0.5969
101,1161787.0,1021.850223,1.0,8.51,1.04,4.97,-24.69,3.38,-21.56,0.69,-11.56,6.13,-0.5769257655767202,0.34723464270753346,-0.08016873829582494,-44.209367167614204,40.889011943209034,-73.29639527690128,-0.6166,-0.3763,0.3493,-0.5969
102,1161822.0,1021.8574060000001,1.0,8.7,0.49,4.47,-24.69,3.38,-21.56,6.0,-5.19,7.56,-0.03592737347300412,-0.1425499022818224,0.014337262490297318,-44.506361779453115,40.86455395752174,-73.56800446686195,-0.6133,-0.3787,0.3491,-0.5988
103,1161822.0,1021.8574060000001,1.0,8.7,0.49,4.47,-24.69,3.38,-21.56,6.0,-5.19,7.56,-0.03592737347300412,-0.1425499022818224,0.014337262490297318,-44.506361779453115,40.86455395752174,-73.56800446686195,-0.6133,-0.3787,0.3491,-0.5988
104,1161857.0,1021.9054980000001,1.0,8.51,0.67,4.7,-25.75,2.56,-21.69,-0.12,-7.19,1.75,-0.2342341462774631,0.1837100408656882,0.06650703464251784,-44.345450751183655,41.31734313597096,-73.02526419838799,-0.6157,-0.3774,0.3528,-0.595
105,1161857.0,1021.9054980000001,1.0,8.51,0.67,4.7,-25.75,2.56,-21.69,-0.12,-7.19,1.75,-0.2342341462774631,0.1837100408656882,0.06650703464251784,-44.345450751183655,41.31734313597096,-73.02526419838799,-0.6157,-0.3774,0.3528,-0.595
106,1161891.0,1021.9222269999999,1.0,8.32,0.38,4.95,-26.5,3.0,-22.06,-1.81,-0.25,-1.12,0.0424674584878888,0.5089802473844136,0.13150474926902864,-44.07334918943469,41.709489033737505,-72.35660000190678,-0.6198,-0.3752,0.35600000000000004,-0.5903
107,1161891.0,1021.9222269999999,1.0,8.32,0.38,4.95,-26.5,3.0,-22.06,-1.81,-0.25,-1.12,0.0424674584878888,0.5089802473844136,0.13150474926902864,-44.07334918943469,41.709489033737505,-72.35660000190678,-0.6198,-0.3752,0.35600000000000004,-0.5903
108,1161926.0,1021.965939,1.0,8.35,0.65,4.65,-26.5,3.0,-22.06,-3.31,-3.63,1.56,-0.2374608737394248,0.22901628248131645,0.23279686368119634,-44.011544446012536,41.80760523510253,-72.2856337588228,-0.6199,-0.3747,0.3568,-0.5898
109,1161926.0,1021.965939,1.0,8.35,0.65,4.65,-26.5,3.0,-22.06,-3.31,-3.63,1.56,-0.2374608737394248,0.22901628248131645,0.23279686368119634,-44.011544446012536,41.80760523510253,-72.2856337588228,-0.6199,-0.3747,0.3568,-0.5898
110,1161961.0,1021.983141,1.0,8.34,0.42,4.55,-25.75,3.38,-20.5,11.38,-5.63,0.19,0.008729057936192497,0.1829861442650278,0.2987091149000829,-43.99918511445215,42.08986846540722,-71.71905293720884,-0.6226,-0.3746,0.3591,-0.5858
111,1161961.0,1021.983141,1.0,8.34,0.42,4.55,-25.75,3.38,-20.5,11.38,-5.63,0.19,0.008729057936192497,0.1829861442650278,0.2987091149000829,-43.99918511445215,42.08986846540722,-71.71905293720884,-0.6226,-0.3746,0.3591,-0.5858
112,1161996.0,1022.028557,1.0,8.32,-0.19,4.9,-26.87,3.38,-21.69,3.5,0.44,-0.37,0.6208000825118465,0.5356196611474304,0.18395709020881235,-43.8262109221212,42.31095678024124,-71.18267056189946,-0.6259,-0.3732,0.3609,-0.5820000000000001
113,1161996.0,1022.028557,1.0,8.32,-0.19,4.9,-26.87,3.38,-21.69,3.5,0.44,-0.37,0.6208000825118465,0.5356196611474304,0.18395709020881235,-43.8262109221212,42.31095678024124,-71.18267056189946,-0.6259,-0.3732,0.3609,-0.5820000000000001
114,1162033.0,1022.0449779999999,1.0,8.33,0.64,4.54,-25.75,3.0,-22.06,-11.69,4.38,2.19,-0.243316047931486,0.14386333491646086,0.3024298509459111,-43.17232602381402,42.76593619701882,-70.59190932634084,-0.6307,-0.3679,0.3646,-0.5778
115,1162033.0,1022.0449779999999,1.0,8.33,0.64,4.54,-25.75,3.0,-22.06,-11.69,4.38,2.19,-0.243316047931486,0.14386333491646086,0.3024298509459111,-43.17232602381402,42.76593619701882,-70.59190932634084,-0.6307,-0.3679,0.3646,-0.5778
116,1162067.0,1022.125993,1.0,8.38,-0.08,4.56,-25.75,3.0,-22.06,-1.0,4.0,1.44,0.4587670072915482,0.15639440824499196,0.2782989557693956,-42.97521768410124,42.76593619701882,-70.67617134909206,-0.6312,-0.3663,0.3646,-0.5784
117,1162067.0,1022.125993,1.0,8.38,-0.08,4.56,-25.75,3.0,-22.06,-1.0,4.0,1.44,0.4587670072915482,0.15639440824499196,0.2782989557693956,-42.97521768410124,42.76593619701882,-70.67617134909206,-0.6312,-0.3663,0.3646,-0.5784
118,1162104.0,1022.1806960000001,1.0,8.49,0.66,4.14,-26.19,3.0,-22.5,-5.56,3.06,6.0,-0.2963666136104748,-0.3372566319596033,0.3486520726087914,-42.396980116115046,43.18464974314042,-70.21327111376787,-0.6348,-0.3616,0.368,-0.5751
119,1162104.0,1022.1806960000001,1.0,8.49,0.66,4.14,-26.19,3.0,-22.5,-5.56,3.06,6.0,-0.2963666136104748,-0.3372566319596033,0.3486520726087914,-42.396980116115046,43.18464974314042,-70.21327111376787,-0.6348,-0.3616,0.368,-0.5751
120,1162139.0,1022.1972099999999,1.0,8.54,0.05,4.68,-25.75,3.69,-21.69,5.06,1.88,5.25,0.2629110239608121,0.15561850643730768,0.07304015195625801,-42.08986846540722,43.4312345665289,-69.93336466039091,-0.637,-0.3591,0.37,-0.5731
121,1162139.0,1022.1972099999999,1.0,8.54,0.05,4.68,-25.75,3.69,-21.69,5.06,1.88,5.25,0.2629110239608121,0.15561850643730768,0.07304015195625801,-42.08986846540722,43.4312345665289,-69.93336466039091,-0.637,-0.3591,0.37,-0.5731
122,1162174.0,1022.1999880000001,1.0,8.59,0.86,4.37,-25.75,3.69,-21.69,-22.69,3.94,9.0,-0.5838116703510129,-0.2413601727764545,0.1513142108852925,-41.66044293714295,43.65334169783373,-70.0172862891219,-0.6373,-0.3556,0.3718,-0.5737
123,1162174.0,1022.1999880000001,1.0,8.59,0.86,4.37,-25.75,3.69,-21.69,-22.69,3.94,9.0,-0.5838116703510129,-0.2413601727764545,0.1513142108852925,-41.66044293714295,43.65334169783373,-70.0172862891219,-0.6373,-0.3556,0.3718,-0.5737
124,1162207.0,1022.2387050000001,1.0,8.73,0.81,4.14,-25.37,3.38,-22.87,-7.69,4.31,6.25,-0.5756660248985905,-0.5447854526388554,0.14329564251260685,-40.90124166576177,44.19699919021153,-69.58415236536644,-0.6411,-0.3494,0.3762,-0.5706
125,1162207.0,1022.2387050000001,1.0,8.73,0.81,4.14,-25.37,3.38,-22.87,-7.69,4.31,6.25,-0.5756660248985905,-0.5447854526388554,0.14329564251260685,-40.90124166576177,44.19699919021153,-69.58415236536644,-0.6411,-0.3494,0.3762,-0.5706
126,1162244.0,1022.2985869999999,1.0,8.72,0.79,4.38,-25.75,4.5,-22.5,-4.38,0.81,5.5,-0.578908785109191,-0.3330727693155311,0.03931529963962355,-40.57120935574602,44.51874337646561,-68.98522882076507,-0.6447,-0.3467,0.3788,-0.5663
127,1162244.0,1022.2985869999999,1.0,8.72,0.79,4.38,-25.75,4.5,-22.5,-4.38,0.81,5.5,-0.578908785109191,-0.3330727693155311,0.03931529963962355,-40.57120935574602,44.51874337646561,-68.98522882076507,-0.6447,-0.3467,0.3788,-0.5663
128,1162278.0,1022.3560460000001,1.0,8.67,0.73,4.49,-25.75,4.5,-22.5,-1.94,-1.12,4.31,-0.5249506398324695,-0.1816850841331561,0.031512284553581786,-40.668959944372276,44.605429900527255,-68.83236163614916,-0.6448,-0.3475,0.3795,-0.5652
129,1162278.0,1022.3560460000001,1.0,8.67,0.73,4.49,-25.75,4.5,-22.5,-1.94,-1.12,4.31,-0.5249506398324695,-0.1816850841331561,0.031512284553581786,-40.668959944372276,44.605429900527255,-68.83236163614916,-0.6448,-0.3475,0.3795,-0.5652
130,1162311.0,1022.363211,1.0,8.75,0.23,4.34,-26.19,4.06,-22.06,-3.38,-1.37,5.63,-0.02000397318902336,-0.2815790741511619,0.040826273039902716,-40.44906443675953,44.89044689976561,-68.44387353354183,-0.6469,-0.3457,0.3818,-0.5624
131,1162311.0,1022.363211,1.0,8.75,0.23,4.34,-26.19,4.06,-22.06,-3.38,-1.37,5.63,-0.02000397318902336,-0.2815790741511619,0.040826273039902716,-40.44906443675953,44.89044689976561,-68.44387353354183,-0.6469,-0.3457,0.3818,-0.5624
132,1162346.0,1022.3816730000001,1.0,8.69,1.08,4.28,-25.37,4.5,-22.5,-8.38,5.88,1.75,-0.8948920398699991,-0.44785030360889744,0.11131615621025936,-39.86343282424955,45.324731779489326,-67.89043829465147,-0.6508,-0.3409,0.3853,-0.5584
133,1162346.0,1022.3816730000001,1.0,8.69,1.08,4.28,-25.37,4.5,-22.5,-8.38,5.88,1.75,-0.8948920398699991,-0.44785030360889744,0.11131615621025936,-39.86343282424955,45.324731779489326,-67.89043829465147,-0.6508,-0.3409,0.3853,-0.5584
134,1162383.0,1022.426702,1.0,8.77,0.58,4.3,-26.19,4.5,-21.69,-2.0,0.63,-1.75,-0.3773768480526589,-0.4239038655640992,0.03847759021352815,-39.54666937259589,45.424093194951936,-67.40765461346972,-0.6547,-0.3383,0.3861,-0.5549
135,1162383.0,1022.426702,1.0,8.77,0.58,4.3,-26.19,4.5,-21.69,-2.0,0.63,-1.75,-0.3773768480526589,-0.4239038655640992,0.03847759021352815,-39.54666937259589,45.424093194951936,-67.40765461346972,-0.6547,-0.3383,0.3861,-0.5549
136,1162418.0,1022.5138,1.0,8.58,1.05,4.3,-26.19,4.5,-21.69,-5.69,-7.06,-1.88,-0.8668406495907659,-0.3788242432887437,0.19863358239778076,-39.558846745858816,45.66022134435174,-67.173649069206,-0.6549,-0.3384,0.38799999999999996,-0.5532
137,1162418.0,1022.5138,1.0,8.58,1.05,4.3,-26.19,4.5,-21.69,-5.69,-7.06,-1.88,-0.8668406495907659,-0.3788242432887437,0.19863358239778076,-39.558846745858816,45.66022134435174,-67.173649069206,-0.6549,-0.3384,0.38799999999999996,-0.5532
138,1162455.0,1022.519175,1.0,8.55,0.24,4.41,-25.37,4.88,-22.87,8.06,-0.69,-2.88,-0.04918452625195635,-0.11803065435196335,0.1841841181685293,-39.58320288872564,45.77214298203665,-66.66543528126398,-0.6575,-0.3386,0.3889,-0.5495
139,1162455.0,1022.519175,1.0,8.55,0.24,4.41,-25.37,4.88,-22.87,8.06,-0.69,-2.88,-0.04918452625195635,-0.11803065435196335,0.1841841181685293,-39.58320288872564,45.77214298203665,-66.66543528126398,-0.6575,-0.3386,0.3889,-0.5495
140,1162489.0,1022.5293130000001,1.0,8.53,0.6,4.54,-25.75,3.69,-22.06,0.0,0.94,-2.25,-0.4174556921644415,-0.05914024758633785,0.1342804259920385,-39.37623490539532,45.946335125324666,-66.21341126631584,-0.6602,-0.3369,0.3903,-0.5462
141,1162489.0,1022.5293130000001,1.0,8.53,0.6,4.54,-25.75,3.69,-22.06,0.0,0.94,-2.25,-0.4174556921644415,-0.05914024758633785,0.1342804259920385,-39.37623490539532,45.946335125324666,-66.21341126631584,-0.6602,-0.3369,0.3903,-0.5462
142,1162522.0,1022.565852,1.0,8.59,0.21,4.3,-25.75,3.69,-22.06,-0.81,-4.69,-1.44,0.028042179159654124,-0.2092140659808681,0.2005247087712956,-39.522316021456795,45.92144367093,-66.11767701122476,-0.6603,-0.3381,0.3901,-0.5455
143,1162522.0,1022.565852,1.0,8.59,0.21,4.3,-25.75,3.69,-22.06,-0.81,-4.69,-1.44,0.028042179159654124,-0.2092140659808681,0.2005247087712956,-39.522316021456795,45.92144367093,-66.11767701122476,-0.6603,-0.3381,0.3901,-0.5455
144,1162557.0,1022.5827390000001,1.0,8.58,0.66,4.05,-25.37,4.5,-21.25,0.25,-10.56,-1.06,-0.3767875188393573,-0.4472770818886351,0.31389095019450863,-39.48578948035391,46.39477504755206,-65.43536500136207,-0.6624,-0.3378,0.3939,-0.5405
145,1162557.0,1022.5827390000001,1.0,8.58,0.66,4.05,-25.37,4.5,-21.25,0.25,-10.56,-1.06,-0.3767875188393573,-0.4472770818886351,0.31389095019450863,-39.48578948035391,46.39477504755206,-65.43536500136207,-0.6624,-0.3378,0.3939,-0.5405
146,1162594.0,1022.62669,1.0,8.41,0.23,4.65,-25.75,4.5,-20.5,10.13,-5.38,-2.56,-0.04265461795409342,0.2812579024712845,0.1981863051180408,-39.5953816587114,46.59432285421078,-64.90496933686148,-0.6639,-0.3387,0.3955,-0.5366
147,1162594.0,1022.62669,1.0,8.41,0.23,4.65,-25.75,4.5,-20.5,10.13,-5.38,-2.56,-0.04265461795409342,0.2812579024712845,0.1981863051180408,-39.5953816587114,46.59432285421078,-64.90496933686148,-0.6639,-0.3387,0.3955,-0.5366
148,1162629.0,1022.6835130000001,1.0,8.72,-0.1,4.38,-25.75,4.5,-20.5,7.56,-0.37,-2.19,0.38827803716867226,-0.01851436204141477,0.05566556845409032,-39.814679382357845,46.44464801216442,-64.94571342127749,-0.6635,-0.3405,0.3943,-0.5369
149,1162629.0,1022.6835130000001,1.0,8.72,-0.1,4.38,-25.75,4.5,-20.5,7.56,-0.37,-2.19,0.38827803716867226,-0.01851436204141477,0.05566556845409032,-39.814679382357845,46.44464801216442,-64.94571342127749,-0.6635,-0.3405,0.3943,-0.5369
150,1162663.0,1022.694605,1.0,8.41,0.55,4.64,-25.75,4.88,-21.69,-6.5,-0.5,-0.75,-0.3466775021268784,0.22469324943838886,0.19470286879001544,-39.41274892746301,46.88143541316104,-64.26784056455223,-0.6672,-0.3372,0.3978,-0.5319
151,1162663.0,1022.694605,1.0,8.41,0.55,4.64,-25.75,4.88,-21.69,-6.5,-0.5,-0.75,-0.3466775021268784,0.22469324943838886,0.19470286879001544,-39.41274892746301,46.88143541316104,-64.26784056455223,-0.6672,-0.3372,0.3978,-0.5319
152,1162698.0,1022.746166,1.0,8.51,0.15,4.49,-26.5,3.38,-21.69,5.31,-0.94,-0.25,0.09144644377696554,0.13549841455775846,0.18500888595023035,-39.31538744994931,46.968879343305815,-63.97037455615307,-0.6689,-0.3364,0.3985,-0.5297
153,1162698.0,1022.746166,1.0,8.51,0.15,4.49,-26.5,3.38,-21.69,5.31,-0.94,-0.25,0.09144644377696554,0.13549841455775846,0.18500888595023035,-39.31538744994931,46.968879343305815,-63.97037455615307,-0.6689,-0.3364,0.3985,-0.5297
154,1162735.0,1022.8124029999999,1.0,8.65,0.48,4.22,-25.75,3.38,-22.06,0.88,-4.0,2.19,-0.17880657359929564,-0.22008824762398185,0.17436629505777645,-39.15723801119543,47.21887922414317,-63.659902079059314,-0.6702,-0.3351,0.4005,-0.5274
155,1162735.0,1022.8124029999999,1.0,8.65,0.48,4.22,-25.75,3.38,-22.06,0.88,-4.0,2.19,-0.17880657359929564,-0.22008824762398185,0.17436629505777645,-39.15723801119543,47.21887922414317,-63.659902079059314,-0.6702,-0.3351,0.4005,-0.5274
156,1162768.0,1022.8542630000001,1.0,8.55,0.14,4.37,-25.75,3.38,-22.06,3.25,-4.13,-0.75,0.11389524209412727,0.060272465697766016,0.204442175561546,-39.327556017124884,47.29392563415834,-63.63292917864976,-0.6693,-0.3365,0.4011,-0.5272
157,1162768.0,1022.8542630000001,1.0,8.55,0.14,4.37,-25.75,3.38,-22.06,3.25,-4.13,-0.75,0.11389524209412727,0.060272465697766016,0.204442175561546,-39.327556017124884,47.29392563415834,-63.63292917864976,-0.6693,-0.3365,0.4011,-0.5272
158,1162805.0,1022.870634,1.0,8.41,0.52,4.42,-26.5,4.06,-22.06,-7.88,0.44,-0.75,-0.2991726529658172,0.07898173201968661,0.2966995474621665,-38.974854277526724,47.619376147320615,-63.1077408741901,-0.6722,-0.3336,0.4037,-0.5233
159,1162805.0,1022.870634,1.0,8.41,0.52,4.42,-26.5,4.06,-22.06,-7.88,0.44,-0.75,-0.2991726529658172,0.07898173201968661,0.2966995474621665,-38.974854277526724,47.619376147320615,-63.1077408741901,-0.6722,-0.3336,0.4037,-0.5233
160,1162840.0,1022.8737130000001,1.0,8.5,0.34,4.3,-26.19,4.06,-21.25,-0.63,1.94,0.88,-0.08925588144659491,-0.03775596748144805,0.2753222921438283,-38.683253582612885,47.76972155794277,-62.71817306273571,-0.6749,-0.3312,0.4049,-0.5204
161,1162840.0,1022.8737130000001,1.0,8.5,0.34,4.3,-26.19,4.06,-21.25,-0.63,1.94,0.88,-0.08925588144659491,-0.03775596748144805,0.2753222921438283,-38.683253582612885,47.76972155794277,-62.71817306273571,-0.6749,-0.3312,0.4049,-0.5204
162,1162874.0,1022.9120949999999,1.0,8.57,0.24,4.4,-26.19,4.06,-21.25,-1.31,-0.63,0.88,-0.007761395283917948,0.04447390182667688,0.17023667175387305,-38.69539839808244,47.78225428161778,-62.75843566799939,-0.6746,-0.3313,0.405,-0.5207
163,1162874.0,1022.9120949999999,1.0,8.57,0.24,4.4,-26.19,4.06,-21.25,-1.31,-0.63,0.88,-0.007761395283917948,0.04447390182667688,0.17023667175387305,-38.69539839808244,47.78225428161778,-62.75843566799939,-0.6746,-0.3313,0.405,-0.5207
164,1162909.0,1022.9531609999999,1.0,8.52,0.26,4.34,-27.25,4.5,-22.5,1.56,-0.5,0.37,-0.027194779612961902,0.010075549074976651,0.24146526956887904,-38.42831653324454,48.02049166769566,-62.30262894881712,-0.6771,-0.3291,0.4069,-0.5173
165,1162909.0,1022.9531609999999,1.0,8.52,0.26,4.34,-27.25,4.5,-22.5,1.56,-0.5,0.37,-0.027194779612961902,0.010075549074976651,0.24146526956887904,-38.42831653324454,48.02049166769566,-62.30262894881712,-0.6771,-0.3291,0.4069,-0.5173
166,1162944.0,1022.984051,1.0,8.55,0.53,4.49,-26.87,3.38,-21.25,-3.06,2.06,1.88,-0.3281226644200994,0.045246371567726484,0.1405345298147882,-38.12507743338386,48.20872972254528,-61.96817529160685,-0.6793,-0.3266,0.4084,-0.5148
167,1162944.0,1022.984051,1.0,8.55,0.53,4.49,-26.87,3.38,-21.25,-3.06,2.06,1.88,-0.3281226644200994,0.045246371567726484,0.1405345298147882,-38.12507743338386,48.20872972254528,-61.96817529160685,-0.6793,-0.3266,0.4084,-0.5148
168,1162979.0,1023.0256220000001,1.0,8.6,0.48,4.22,-26.87,3.38,-21.25,-2.56,3.63,2.38,-0.2200179847967452,-0.21424304220150936,0.219966944571798,-38.04022025359053,48.171071061668,-62.04839058120868,-0.6794,-0.3259,0.4081,-0.5154
169,1162979.0,1023.0256220000001,1.0,8.6,0.48,4.22,-26.87,3.38,-21.25,-2.56,3.63,2.38,-0.2200179847967452,-0.21424304220150936,0.219966944571798,-38.04022025359053,48.171071061668,-62.04839058120868,-0.6794,-0.3259,0.4081,-0.5154
170,1163012.0,1023.0775369999999,1.0,8.74,0.47,4.03,-25.75,4.5,-21.69,-0.94,-1.19,0.81,-0.14796989053426213,-0.43501050764070026,0.18177229845295886,-37.822115366775535,48.371981330891565,-61.63430677668394,-0.6816,-0.3241,0.4097,-0.5123
171,1163012.0,1023.0775369999999,1.0,8.74,0.47,4.03,-25.75,4.5,-21.69,-0.94,-1.19,0.81,-0.14796989053426213,-0.43501050764070026,0.18177229845295886,-37.822115366775535,48.371981330891565,-61.63430677668394,-0.6816,-0.3241,0.4097,-0.5123
172,1163046.0,1023.094282,1.0,8.65,0.46,4.38,-25.75,4.06,-21.69,-3.56,-2.19,0.63,-0.2373704161061072,-0.088050741667421,0.10333085898183823,-37.616257937648726,48.598194686002294,-61.261061463678935,-0.6835,-0.3224,0.4115,-0.5095
173,1163046.0,1023.094282,1.0,8.65,0.46,4.38,-25.75,4.06,-21.69,-3.56,-2.19,0.63,-0.2373704161061072,-0.088050741667421,0.10333085898183823,-37.616257937648726,48.598194686002294,-61.261061463678935,-0.6835,-0.3224,0.4115,-0.5095
174,1163083.0,1023.1361699999999,1.0,8.63,0.57,4.33,-26.87,4.5,-21.69,4.19,-2.06,0.06,-0.31864034659653795,-0.1320650038924076,0.14064114606924072,-37.579943248225064,48.74911561441486,-60.83537468333018,-0.6852,-0.3221,0.4127,-0.5063
175,1163083.0,1023.1361699999999,1.0,8.63,0.57,4.33,-26.87,4.5,-21.69,4.19,-2.06,0.06,-0.31864034659653795,-0.1320650038924076,0.14064114606924072,-37.579943248225064,48.74911561441486,-60.83537468333018,-0.6852,-0.3221,0.4127,-0.5063
176,1163116.0,1023.156933,1.0,8.71,0.23,4.18,-26.87,4.5,-21.69,-0.44,-0.19,-0.31,0.06452997044068187,-0.1958278091589729,0.14503070755864833,-37.676791133557344,48.686220967347204,-60.88853462317393,-0.6849,-0.3229,0.4122,-0.5067
177,1163116.0,1023.156933,1.0,8.71,0.23,4.18,-26.87,4.5,-21.69,-0.44,-0.19,-0.31,0.06452997044068187,-0.1958278091589729,0.14503070755864833,-37.676791133557344,48.686220967347204,-60.88853462317393,-0.6849,-0.3229,0.4122,-0.5067
178,1163153.0,1023.196516,1.0,8.53,0.54,4.4,-25.75,4.06,-21.69,-2.13,1.12,-1.25,-0.3186384499173891,-0.02547146512084231,0.1988239845738864,-37.37423381555307,48.90012665540839,-60.46365910623083,-0.6874,-0.3204,0.4139,-0.5035
179,1163153.0,1023.196516,1.0,8.53,0.54,4.4,-25.75,4.06,-21.69,-2.13,1.12,-1.25,-0.3186384499173891,-0.02547146512084231,0.1988239845738864,-37.37423381555307,48.90012665540839,-60.46365910623083,-0.6874,-0.3204,0.4139,-0.5035
180,1163188.0,1023.212623,1.0,8.62,0.37,4.24,-26.19,4.5,-21.25,1.19,0.63,0.37,-0.09318620908403297,-0.1558880896884811,0.19489078360627232,-37.20491981438743,49.000850954751044,-60.11912281043993,-0.6895,-0.319,0.4147,-0.5009
181,1163188.0,1023.212623,1.0,8.62,0.37,4.24,-26.19,4.5,-21.25,1.19,0.63,0.37,-0.09318620908403297,-0.1558880896884811,0.19489078360627232,-37.20491981438743,49.000850954751044,-60.11912281043993,-0.6895,-0.319,0.4147,-0.5009
182,1163225.0,1023.250174,1.0,8.63,0.39,4.21,-26.19,4.5,-21.25,-0.81,-4.75,0.19,-0.1080423516050375,-0.1713268228711966,0.19873274546327305,-37.28956626386321,49.07642066173354,-60.09264488671134,-0.6889,-0.3197,0.4153,-0.5007
183,1163225.0,1023.250174,1.0,8.63,0.39,4.21,-26.19,4.5,-21.25,-0.81,-4.75,0.19,-0.1080423516050375,-0.1713268228711966,0.19873274546327305,-37.28956626386321,49.07642066173354,-60.09264488671134,-0.6889,-0.3197,0.4153,-0.5007
184,1163257.0,1023.308324,1.0,8.56,0.26,4.3,-26.19,4.06,-21.69,2.63,-3.13,-1.63,-0.014641925953754688,-0.0020172744340716253,0.2238016998019745,-37.24119428419274,49.27805128980349,-59.72232420224728,-0.6902,-0.3193,0.4169,-0.4979
185,1163257.0,1023.308324,1.0,8.56,0.26,4.3,-26.19,4.06,-21.69,2.63,-3.13,-1.63,-0.014641925953754688,-0.0020172744340716253,0.2238016998019745,-37.24119428419274,49.27805128980349,-59.72232420224728,-0.6902,-0.3193,0.4169,-0.4979
186,1163294.0,1023.325567,1.0,8.64,0.02,4.56,-26.87,4.5,-21.69,1.94,1.81,0.0,0.1685589891082504,0.26120409136261635,0.042073189413365235,-37.09611957275582,49.378927610894635,-59.36587885432352,-0.6922,-0.3181,0.4177,-0.4952
187,1163294.0,1023.325567,1.0,8.64,0.02,4.56,-26.87,4.5,-21.69,1.94,1.81,0.0,0.1685589891082504,0.26120409136261635,0.042073189413365235,-37.09611957275582,49.378927610894635,-59.36587885432352,-0.6922,-0.3181,0.4177,-0.4952
188,1163329.0,1023.3670619999999,1.0,8.6,0.56,4.31,-26.87,4.5,-21.69,-7.44,3.13,1.25,-0.2945781031149575,-0.12302057285700575,0.17608461266062925,-36.93902480540506,49.378927610894635,-59.3790692419753,-0.6927,-0.3168,0.4177,-0.4953
189,1163329.0,1023.3670619999999,1.0,8.6,0.56,4.31,-26.87,4.5,-21.69,-7.44,3.13,1.25,-0.2945781031149575,-0.12302057285700575,0.17608461266062925,-36.93902480540506,49.378927610894635,-59.3790692419753,-0.6927,-0.3168,0.4177,-0.4953
190,1163362.0,1023.423388,1.0,8.69,0.35,4.18,-25.75,4.5,-22.06,6.44,-1.5,0.81,-0.038284488817234015,-0.204257071100906,0.15948392146577994,-36.85446512108432,49.45461164689416,-59.14177438587889,-0.6940000000000001,-0.3161,0.4183,-0.4935
191,1163362.0,1023.423388,1.0,8.69,0.35,4.18,-25.75,4.5,-22.06,6.44,-1.5,0.81,-0.038284488817234015,-0.204257071100906,0.15948392146577994,-36.85446512108432,49.45461164689416,-59.14177438587889,-0.6940000000000001,-0.3161,0.4183,-0.4935
192,1163397.0,1023.430059,1.0,8.6,0.52,4.28,-26.5,4.88,-22.06,-6.0,-0.12,0.25,-0.2533362980239651,-0.14202945613336304,0.19080638887081314,-36.54056778374004,49.69442993487328,-58.73375160745704,-0.6962,-0.3135,0.4202,-0.4904
193,1163397.0,1023.430059,1.0,8.6,0.52,4.28,-26.5,4.88,-22.06,-6.0,-0.12,0.25,-0.2533362980239651,-0.14202945613336304,0.19080638887081314,-36.54056778374004,49.69442993487328,-58.73375160745704,-0.6962,-0.3135,0.4202,-0.4904
