acc_x,acc_y,acc_z,lin_x,lin_y,lin_z,eul_x,eul_y,eul_z
-0.11,7.38,-6.2,0.1734776691475308,-0.011031540932759,0.1688969525614112,-129.88954402446632,1.2032334798806037,2.4180613422720283
-0.11,7.38,-6.2,0.1734776691475308,-0.011031540932759,0.1688969525614112,-129.88954402446632,1.2032334798806037,2.4180613422720283
-0.13,7.75,-6.41,0.1525583236393675,0.0379029629105791,-0.2503271464039329,-129.72743673627951,1.2032334798806037,2.349291527927613
-0.13,7.75,-6.41,0.1525583236393675,0.0379029629105791,-0.2503271464039329,-129.72743673627951,1.2032334798806037,2.349291527927613
-0.14,7.27,-6.4,0.1337435127596054,-0.2553285276685768,0.1242215847854932,-129.78141812262746,1.100095864564908,2.24613838532295
-0.14,7.27,-6.4,0.1337435127596054,-0.2553285276685768,0.1242215847854932,-129.78141812262746,1.100095864564908,2.24613838532295
-0.17,7.49,-6.25,0.0961127692681418,-0.0082212719269776,0.0505137388425342,-129.75442065073912,1.0657168616283692,2.223215714892369
-0.17,7.49,-6.25,0.0961127692681418,-0.0082212719269776,0.0505137388425342,-129.75442065073912,1.0657168616283692,2.223215714892369
-0.22,7.72,-6.11,0.0463563265401593,0.2378009580630351,-0.0381558282189633,-129.7004663573504,1.100095864564908,2.280522559802512
-0.22,7.72,-6.11,0.0463563265401593,0.2378009580630351,-0.0381558282189633,-129.7004663573504,1.100095864564908,2.280522559802512
-0.1,7.57,-6.49,0.1807579177610525,-0.1431960198123665,-0.1623931574487969,-129.72743673627951,1.1573944243672372,2.2919839967771853
-0.1,7.57,-6.49,0.1807579177610525,-0.1431960198123665,-0.1623931574487969,-129.72743673627951,1.1573944243672372,2.2919839967771853
-0.16,7.33,-6.08,0.1044589085857706,0.0194013490397968,0.2824906185074543,-129.72743673627951,1.1573944243672372,2.3034454566839293
-0.16,7.33,-6.08,0.1044589085857706,0.0194013490397968,0.2824906185074543,-129.72743673627951,1.1573944243672372,2.3034454566839293
-0.16,7.64,-6.27,0.1049963875855655,0.0550061802469867,-0.0773800525002759,-129.64656611878056,1.1917736982377245,2.269061145645111
-0.16,7.64,-6.27,0.1049963875855655,0.0550061802469867,-0.0773800525002759,-129.64656611878056,1.1917736982377245,2.269061145645111
-0.22,7.77,-6.31,0.0449879007460359,0.0979569897462555,-0.2046326609254389,-129.5927197609984,1.2146932735575866,2.269061145645111
-0.22,7.77,-6.31,0.0449879007460359,0.0979569897462555,-0.2046326609254389,-129.5927197609984,1.2146932735575866,2.269061145645111
-0.1,7.22,-6.3,0.1580833360377446,-0.2180310727105259,0.227721452912915,-129.72743673627951,1.1917736982377245,2.2117544130994498
-0.1,7.22,-6.3,0.1580833360377446,-0.2180310727105259,0.227721452912915,-129.72743673627951,1.1917736982377245,2.2117544130994498
-0.07,8.01,-6.29,0.19233894155009,0.2791013922570657,-0.3724564511775128,-129.64656611878056,1.1803139285143014,2.24613838532295
-0.07,8.01,-6.29,0.19233894155009,0.2791013922570657,-0.3724564511775128,-129.64656611878056,1.1803139285143014,2.24613838532295
-0.2,7.26,-6.47,0.0749884561942127,-0.3280139365066237,0.0857815414261953,-129.72743673627951,1.1573944243672372,2.2575997541901875
-0.2,7.26,-6.47,0.0749884561942127,-0.3280139365066237,0.0857815414261953,-129.72743673627951,1.1573944243672372,2.2575997541901875
-0.27,7.59,-6.07,-0.0126908434122501,0.1676142869027059,0.0856601124772478,-129.5927197609984,1.2261530793833222,2.2919839967771853
-0.27,7.59,-6.07,-0.0126908434122501,0.1676142869027059,0.0856601124772478,-129.5927197609984,1.2261530793833222,2.2919839967771853
0.0,7.79,-6.27,0.2584979117968711,0.1493865185158793,-0.1887420632300553,-129.5927197609984,1.2490727279396536,2.2575997541901875
0.0,7.79,-6.27,0.2584979117968711,0.1493865185158793,-0.1887420632300553,-129.5927197609984,1.2490727279396536,2.2575997541901875
-0.13,7.62,-6.41,0.1279113497476231,-0.064542006147823,-0.1507027112404859,-129.64656611878056,1.2261530793833222,2.200293133435064
-0.13,7.62,-6.41,0.1279113497476231,-0.064542006147823,-0.1507027112404859,-129.64656611878056,1.2261530793833222,2.200293133435064
-0.18,7.62,-6.39,0.0779988092816988,-0.0553753433554748,-0.1391908270542359,-129.61963621563214,1.2146932735575866,2.200293133435064
-0.18,7.62,-6.39,0.0779988092816988,-0.0553753433554748,-0.1391908270542359,-129.61963621563214,1.2146932735575866,2.200293133435064
-0.18,7.5,-6.06,0.0619039388592028,0.1329463954975347,0.1638032648144847,-129.7004663573504,1.1917736982377245,2.1773706400327653
-0.18,7.5,-6.06,0.0619039388592028,0.1329463954975347,0.1638032648144847,-129.7004663573504,1.1917736982377245,2.1773706400327653
-0.07,7.55,-6.27,0.1707501618261609,0.0177787767232149,-0.0061390172638748,-129.75442065073912,1.1803139285143014,2.1086036789736795
-0.07,7.55,-6.27,0.1707501618261609,0.0177787767232149,-0.0061390172638748,-129.75442065073912,1.1803139285143014,2.1086036789736795
-0.06,7.84,-6.45,0.1795907027995162,0.0336159865644374,-0.3441291397958839,-129.56581673326838,1.1459346897143057,2.0398374773549266
-0.06,7.84,-6.45,0.1795907027995162,0.0336159865644374,-0.3441291397958839,-129.56581673326838,1.1459346897143057,2.0398374773549266
-0.16,7.75,-6.42,0.0784069176125736,-0.0057843516407207,-0.258056597638431,-129.56581673326838,1.0771765184626354,2.0054546535892377
-0.16,7.75,-6.42,0.0784069176125736,-0.0057843516407207,-0.258056597638431,-129.56581673326838,1.0771765184626354,2.0054546535892377
-0.19,7.58,-6.13,0.0435486905908409,0.1466770573908378,0.0574967366451257,-129.78141812262746,1.0084187350403075,2.016915574628728
-0.19,7.58,-6.13,0.0435486905908409,0.1466770573908378,0.0574967366451257,-129.78141812262746,1.0084187350403075,2.016915574628728
-0.2,7.4,-6.3,0.0475958878540934,-0.0731305767226322,0.0864449327080745,-129.9436888935972,0.9511208605830096,2.0398374773549266
-0.2,7.4,-6.3,0.0475958878540934,-0.0731305767226322,0.0864449327080745,-129.9436888935972,0.9511208605830096,2.0398374773549266
-0.08,7.46,-6.46,0.1689764779089533,-0.1385142120271414,-0.0595478878887281,-130.02500909601727,0.93966131468631,2.0054546535892377
-0.08,7.46,-6.46,0.1689764779089533,-0.1385142120271414,-0.0595478878887281,-130.02500909601727,0.93966131468631,2.0054546535892377
-0.04,7.6,-6.49,0.1988515398087069,-0.05877940810702,-0.185281897601099,-130.10645331555745,0.9167422509706517,1.925228761643688
-0.04,7.6,-6.49,0.1988515398087069,-0.05877940810702,-0.185281897601099,-130.10645331555745,0.9167422509706517,1.925228761643688
-0.15,7.69,-6.38,0.0873405431902912,0.0953596923415682,-0.1856609518565211,-130.18802216268048,0.9282017781870658,1.94815034703792
-0.15,7.69,-6.38,0.0873405431902912,0.0953596923415682,-0.1856609518565211,-130.18802216268048,0.9282017781870658,1.94815034703792
-0.2,7.59,-6.29,0.0443490887471083,0.1386151859966902,-0.0519005521115243,-130.40615307468192,0.9969591404369118,2.051298459271143
-0.2,7.59,-6.29,0.0443490887471083,0.1386151859966902,-0.0519005521115243,-130.40615307468192,0.9969591404369118,2.051298459271143
-0.18,7.06,-6.29,0.0710416252917624,-0.1497482577344886,0.3508248881030251,-130.76254599505174,1.0198783397289315,2.1086036789736795
-0.18,7.06,-6.29,0.0710416252917624,-0.1497482577344886,0.3508248881030251,-130.76254599505174,1.0198783397289315,2.1086036789736795
-0.19,7.58,-6.42,0.0804217096664987,0.1058200364654875,-0.1276962023676606,-130.81759051018483,1.0886361860699356,2.2346770389286066
-0.19,7.58,-6.42,0.0804217096664987,0.1058200364654875,-0.1276962023676606,-130.81759051018483,1.0886361860699356,2.2346770389286066
-0.14,7.34,-6.53,0.1548331956445902,-0.077846226296061,-0.0171001315219712,-131.14907903681728,1.1573944243672372,2.3951379752687134
-0.14,7.34,-6.53,0.1548331956445902,-0.077846226296061,-0.0171001315219712,-131.14907903681728,1.1573944243672372,2.3951379752687134
-0.2,7.6,-6.36,0.1041962958326595,0.2406402163508607,-0.1019742949366797,-131.2600452849924,1.1573944243672372,2.509755787270372
-0.2,7.6,-6.36,0.1041962958326595,0.2406402163508607,-0.1019742949366797,-131.2600452849924,1.1573944243672372,2.509755787270372
-0.18,7.19,-6.54,0.1347350716467559,-0.1451802907948618,0.0875518348597221,-131.37124925693712,1.100095864564908,2.4982938949536853
-0.18,7.19,-6.54,0.1347350716467559,-0.1451802907948618,0.0875518348597221,-131.37124925693712,1.100095864564908,2.4982938949536853
-0.36,7.13,-6.51,-0.0417633783056823,-0.1642698352133358,0.1465324416329441,-131.3990875860209,1.0542572154525014,2.509755787270372
-0.36,7.13,-6.51,-0.0417633783056823,-0.1642698352133358,0.1465324416329441,-131.3990875860209,1.0542572154525014,2.509755787270372
-0.22,7.87,-6.61,0.1018128504894991,0.2557471177221919,-0.4696152532548013,-131.3990875860209,1.0313379546174166,2.486832027635776
-0.22,7.87,-6.61,0.1018128504894991,0.2557471177221919,-0.4696152532548013,-131.3990875860209,1.0313379546174166,2.486832027635776
-0.07,7.87,-7.01,0.3087490481261462,0.0752523122892965,-0.728097795499254,-132.01536875371886,0.9052827329224428,2.670224968889185
-0.07,7.87,-7.01,0.3087490481261462,0.0752523122892965,-0.728097795499254,-132.01536875371886,0.9052827329224428,2.670224968889185
-0.45,7.54,-6.63,-0.0060359324971562,0.2085954316407688,-0.2416061429044713,-132.46829135766265,0.8479852761926534,3.1860558160551733
-0.45,7.54,-6.63,-0.0060359324971562,0.2085954316407688,-0.2416061429044713,-132.46829135766265,0.8479852761926534,3.1860558160551733
-0.43,7.65,-6.84,0.1503229177189469,0.3485350097925943,-0.4573125080841667,-133.61881240543406,0.6646347687728765,3.8853982832056495
-0.43,7.65,-6.84,0.1503229177189469,0.3485350097925943,-0.4573125080841667,-133.61881240543406,0.6646347687728765,3.8853982832056495
-0.64,7.16,-6.46,0.0435590270821238,0.5337014891925653,0.1567761494466495,-135.06606324188033,0.3093975852894872,4.642227799866185
-0.64,7.16,-6.46,0.0435590270821238,0.5337014891925653,0.1567761494466495,-135.06606324188033,0.3093975852894872,4.642227799866185
-0.58,6.09,-7.15,0.2530208309051414,-0.3280062255518881,0.4058312922954794,-137.27675296577294,0.206264917630254,5.445147966752272
-0.58,6.09,-7.15,0.2530208309051414,-0.3280062255518881,0.4058312922954794,-137.27675296577294,0.206264917630254,5.445147966752272
-0.62,6.92,-8.03,0.4451745047681184,-0.0924614661324922,-0.8020714374581974,-138.3272359651665,0.3093975852894872,6.236859579751598
-0.62,6.92,-8.03,0.4451745047681184,-0.0924614661324922,-0.8020714374581974,-138.3272359651665,0.3093975852894872,6.236859579751598
-0.78,5.98,-8.05,0.5206756554777843,-0.49288935960496,-0.2261590254415289,-139.8686617976523,0.2406424508273681,7.8212153932673
-0.78,5.98,-8.05,0.5206756554777843,-0.49288935960496,-0.2261590254415289,-139.8686617976523,0.2406424508273681,7.8212153932673
-1.82,7.18,-7.66,-0.2377528904564649,0.8799080983534182,-0.8098294212361967,-140.8829393690889,0.7333909844413455,9.683046840720888
-1.82,7.18,-7.66,-0.2377528904564649,0.8799080983534182,-0.8098294212361967,-140.8829393690889,0.7333909844413455,9.683046840720888
-1.75,5.38,-7.64,0.1378889727626823,-0.0140558691477079,0.3010048843998501,-143.06373822672285,1.3407518310456548,12.411600904099071
-1.75,5.38,-7.64,0.1378889727626823,-0.0140558691477079,0.3010048843998501,-143.06373822672285,1.3407518310456548,12.411600904099071
-2.1,4.24,-7.22,-0.0663885536599587,-0.501236341360499,1.1892052110824365,-143.94200484154302,1.6501754833924644,14.419262116395176
-2.1,4.24,-7.22,-0.0663885536599587,-0.501236341360499,1.1892052110824365,-143.94200484154302,1.6501754833924644,14.419262116395176
-2.09,5.19,-8.8,0.7336809896242175,-0.4462174668578322,-0.5859821101891729,-143.5003197378201,1.9366895446536667,16.5471716366683
-2.09,5.19,-8.8,0.7336809896242175,-0.4462174668578322,-0.5859821101891729,-143.5003197378201,1.9366895446536667,16.5471716366683
-3.13,5.3,-6.6,-0.5983662398236861,0.7670725566663767,0.834445280097059,-143.06373822672285,2.440984806055245,18.704070115126303
-3.13,5.3,-6.6,-0.5983662398236861,0.7670725566663767,0.834445280097059,-143.06373822672285,2.440984806055245,18.704070115126303
-2.63,4.29,-9.13,0.9480264397762904,-1.008478735282397,-0.5259255022631386,-143.5003197378201,2.314906939637541,20.506574164810864
-2.63,4.29,-9.13,0.9480264397762904,-1.008478735282397,-0.5259255022631386,-143.5003197378201,2.314906939637541,20.506574164810864
-3.72,4.46,-7.24,-0.4134951392417828,-0.0131937423024801,0.5343014466405265,-142.77543036661098,2.3951379752687134,22.53618284114898
-3.72,4.46,-7.24,-0.4134951392417828,-0.0131937423024801,0.5343014466405265,-142.77543036661098,2.3951379752687134,22.53618284114898
-3.84,4.53,-7.14,-0.2563404499213069,0.1611393334454862,0.5247092714157588,-141.9231418994875,2.9338644268256844,24.66681067830264
-3.84,4.53,-7.14,-0.2563404499213069,0.1611393334454862,0.5247092714157588,-141.9231418994875,2.9338644268256844,24.66681067830264
-3.87,5.04,-6.51,-0.457086402418193,0.9702543008122708,0.7729199502099533,-142.0286696964437,2.956790311078442,25.13621688663897
-3.87,5.04,-6.51,-0.457086402418193,0.9702543008122708,0.7729199502099533,-142.0286696964437,2.956790311078442,25.13621688663897
-3.74,3.36,-7.39,-0.1285362509308349,-0.8150354267087936,0.9067345124570868,-142.6678687639012,2.6129139620146145,24.66681067830264
-3.74,3.36,-7.39,-0.1285362509308349,-0.8150354267087936,0.9067345124570868,-142.6678687639012,2.6129139620146145,24.66681067830264
-3.83,4.01,-6.92,-0.451967505804678,-0.0813834442128633,0.9508890440626327,-142.84730495776557,2.589989743099661,24.080642561887807
-3.83,4.01,-6.92,-0.451967505804678,-0.0813834442128633,0.9508890440626327,-142.84730495776557,2.589989743099661,24.080642561887807
-3.08,2.42,-6.57,-0.1312859694105166,-1.2448135435259515,2.260730358492389,-143.35423456188457,2.750461504037132,23.10900551875196
-3.08,2.42,-6.57,-0.1312859694105166,-1.2448135435259515,2.260730358492389,-143.35423456188457,2.750461504037132,23.10900551875196
-3.34,5.57,-6.77,-0.4180880975981371,1.0651395548713003,0.4951474321382854,-142.73954322436268,3.701951248377608,21.38056975127936
-3.34,5.57,-6.77,-0.4180880975981371,1.0651395548713003,0.4951474321382854,-142.73954322436268,3.701951248377608,21.38056975127936
-2.77,4.87,-6.83,-0.2274556107511706,0.3760956831596896,0.9836394037099508,-143.3178010626215,3.35801326652208,18.878294741272413
-2.77,4.87,-6.83,-0.2274556107511706,0.3760956831596896,0.9836394037099508,-143.3178010626215,3.35801326652208,18.878294741272413
-2.23,4.9,-8.39,0.1237072261118051,-0.492833478561979,-0.1490926485730472,-144.27673180622273,3.380941489627292,14.84673166768115
-2.23,4.9,-8.39,0.1237072261118051,-0.492833478561979,-0.1490926485730472,-144.27673180622273,3.380941489627292,14.84673166768115
-1.33,5.71,-8.38,0.5265234967171298,0.1182804550467495,-0.4063898384300213,-144.50157885257724,3.254837913384077,11.939110700430106
-1.33,5.71,-8.38,0.5265234967171298,0.1182804550467495,-0.4063898384300213,-144.50157885257724,3.254837913384077,11.939110700430106
-0.89,5.57,-8.82,0.4657035045264674,-0.332975359867921,-0.6471362832369323,-144.80353687392875,3.3121572228147254,8.590953131273462
-0.89,5.57,-8.82,0.4657035045264674,-0.332975359867921,-0.6471362832369323,-144.80353687392875,3.3121572228147254,8.590953131273462
-0.99,6.43,-6.83,-0.3289691667226482,1.328334442015919,0.4738472646208756,-144.57683474921032,2.922401528803221,5.869654220523909
-0.99,6.43,-6.83,-0.3289691667226482,1.328334442015919,0.4738472646208756,-144.57683474921032,2.922401528803221,5.869654220523909
0.66,4.86,-9.28,0.6896101317556639,-1.297960804364386,-0.586296435756978,-145.10802458844395,1.306372069959298,0.4010712754482724
0.66,4.86,-9.28,0.6896101317556639,-1.297960804364386,-0.586296435756978,-145.10802458844395,1.306372069959298,0.4010712754482724
0.67,5.68,-7.48,0.2709338194263331,0.3082344584981991,0.3995629703140633,-144.57683474921032,0.7792286067117273,-2.3034454566839293
0.67,5.68,-7.48,0.2709338194263331,0.3082344584981991,0.3995629703140633,-144.57683474921032,0.7792286067117273,-2.3034454566839293
0.94,6.05,-6.87,0.0054932034423787,0.827116943038138,0.6415614904843832,-143.3907030739344,0.5156637559929028,-6.1221011960432445
0.94,6.05,-6.87,0.0054932034423787,0.827116943038138,0.6415614904843832,-143.3907030739344,0.5156637559929028,-6.1221011960432445
2.55,4.87,-8.51,0.7794189506398135,-1.301194146584392,-0.210280662247694,-141.85294621850556,-0.6417160846123932,-10.48830635783265
2.55,4.87,-8.51,0.7794189506398135,-1.301194146584392,-0.210280662247694,-141.85294621850556,-0.6417160846123932,-10.48830635783265
2.93,7.53,-8.02,0.3281965059922642,0.6650673522316417,-1.553639277586644,-138.48861330559183,-1.3178319771025526,-14.985414779298193
2.93,7.53,-8.02,0.3281965059922642,0.6650673522316417,-1.553639277586644,-138.48861330559183,-1.3178319771025526,-14.985414779298193
2.46,5.65,-5.74,0.185974639968707,0.5232158088711962,1.4034744900730676,-136.68295663578678,-1.7762402933693409,-17.972797887176398
2.46,5.65,-5.74,0.185974639968707,0.5232158088711962,1.4034744900730676,-136.68295663578678,-1.7762402933693409,-17.972797887176398
3.98,6.4,-8.06,0.0632605402821254,-0.6944218395193227,-1.2059689624830767,-133.9692588477758,-3.0599582684028324,-22.723163534007305
3.98,6.4,-8.06,0.0632605402821254,-0.6944218395193227,-1.2059689624830767,-133.9692588477758,-3.0599582684028324,-22.723163534007305
3.83,6.3,-6.65,0.030588217917271,0.0189890919441677,-0.1221013704046303,-132.09998463629478,-3.4153340784378665,-25.512050354420897
3.83,6.3,-6.65,0.030588217917271,0.0189890919441677,-0.1221013704046303,-132.09998463629478,-3.4153340784378665,-25.512050354420897
4.46,6.32,-6.23,0.0748995235612594,-0.1130905019604404,-0.1245382773279768,-128.39505791682004,-4.481672390551605,-30.05706136986712
4.46,6.32,-6.23,0.0748995235612594,-0.1130905019604404,-0.1245382773279768,-128.39505791682004,-4.481672390551605,-30.05706136986712
4.94,7.32,-6.1,-0.0907876505112803,0.3200256740264442,-0.9211336094171172,-125.29584795913512,-5.318958088351593,-33.309024075692264
4.94,7.32,-6.1,-0.0907876505112803,0.3200256740264442,-0.9211336094171172,-125.29584795913512,-5.318958088351593,-33.309024075692264
4.82,6.19,-5.51,-0.1707230242308524,-0.2465959820881758,0.2244454483002442,-122.9958904624243,-5.617235753841245,-36.10640826375515
4.82,6.19,-5.51,-0.1707230242308524,-0.2465959820881758,0.2244454483002442,-122.9958904624243,-5.617235753841245,-36.10640826375515
5.56,7.23,-5.49,-0.0352533123614763,0.1510728606612636,-0.8377163125025522,-121.15010938852664,-5.674601147870103,-37.89480115121914
5.56,7.23,-5.49,-0.0352533123614763,0.1510728606612636,-0.8377163125025522,-121.15010938852664,-5.674601147870103,-37.89480115121914
5.83,7.06,-5.19,-0.037074855194527,-0.0245022694777401,-0.7179224423324069,-118.9708445669936,-5.904077101832591,-40.32696746513329
5.83,7.06,-5.19,-0.037074855194527,-0.0245022694777401,-0.7179224423324069,-118.9708445669936,-5.904077101832591,-40.32696746513329
6.78,7.59,-5.48,0.2251431883097024,-0.175536007029267,-1.7486690200441473,-118.18551847027427,-5.915551513947968,-41.29285086382844
6.78,7.59,-5.48,0.2251431883097024,-0.175536007029267,-1.7486690200441473,-118.18551847027427,-5.915551513947968,-41.29285086382844
4.96,6.8,-4.67,-0.3748294044261143,0.3926865616982429,0.1964574846630036,-118.74553859011928,-5.674601147870103,-40.53456083395825
4.96,6.8,-4.67,-0.3748294044261143,0.3926865616982429,0.1964574846630036,-118.74553859011928,-5.674601147870103,-40.53456083395825
5.53,6.73,-5.02,-0.0779949874694231,-0.0204285563422068,-0.2465932307198955,-119.24220793672814,-5.468092286497271,-40.02193352838936
5.53,6.73,-5.02,-0.0779949874694231,-0.0204285563422068,-0.2465932307198955,-119.24220793672814,-5.468092286497271,-40.02193352838936
5.71,6.59,-5.1,0.111569886239278,-0.1889050301773118,-0.2925612093003717,-119.74257704437856,-5.341901218009245,-39.53449246452549
5.71,6.59,-5.1,0.111569886239278,-0.1889050301773118,-0.2925612093003717,-119.74257704437856,-5.341901218009245,-39.53449246452549
5.58,6.75,-5.24,-0.031004620625089,-0.0841932601888255,-0.3986648020253956,-120.17776326239716,-5.181303758795194,-39.07211278567739
5.58,6.75,-5.24,-0.031004620625089,-0.0841932601888255,-0.3986648020253956,-120.17776326239716,-5.181303758795194,-39.07211278567739
4.67,6.68,-4.49,-0.1570766199903612,0.5895980532034901,0.5212258809243924,-120.5695899160874,-5.0321866714644,-38.23421144458892
4.67,6.68,-4.49,-0.1570766199903612,0.5895980532034901,0.5212258809243924,-120.5695899160874,-5.0321866714644,-38.23421144458892
5.39,6.29,-5.16,0.0795834277472473,-0.286842226080688,0.0520004411811356,-120.8011763350936,-5.101008867683621,-38.23421144458892
5.39,6.29,-5.16,0.0795834277472473,-0.286842226080688,0.0520004411811356,-120.8011763350936,-5.101008867683621,-38.23421144458892
5.69,7.04,-5.43,0.0435658683590123,0.038989110235629,-0.7488784976355962,-121.03358960360973,-4.871608567013157,-38.08870741479733
5.69,7.04,-5.43,0.0435658683590123,0.038989110235629,-0.7488784976355962,-121.03358960360973,-4.871608567013157,-38.08870741479733
5.47,6.82,-5.4,0.0206215804374363,0.0146485975846819,-0.4691789285589554,-121.6183055994286,-4.71104003397371,-37.49522418973963
5.47,6.82,-5.4,0.0206215804374363,0.0146485975846819,-0.4691789285589554,-121.6183055994286,-4.71104003397371,-37.49522418973963
5.81,7.11,-6.31,0.0750992779759926,-0.2560080997209857,-1.3312636264977709,-123.62341692773376,-3.908329853329541,-35.287783624982225
5.81,7.11,-6.31,0.0750992779759926,-0.2560080997209857,-1.3312636264977709,-123.62341692773376,-3.908329853329541,-35.287783624982225
5.28,6.98,-6.46,0.312823336525233,0.0140161646400582,-1.06681978233048,-127.4552625013064,-2.509755787270372,-30.828988678188
5.28,6.98,-6.46,0.312823336525233,0.0140161646400582,-1.06681978233048,-127.4552625013064,-2.509755787270372,-30.828988678188
4.82,6.97,-7.66,-0.0691891636220696,-0.3623029998053831,-1.6105672352096951,-130.40615307468192,-1.5699534720315549,-27.466273808985672
4.82,6.97,-7.66,-0.0691891636220696,-0.3623029998053831,-1.6105672352096951,-130.40615307468192,-1.5699534720315549,-27.466273808985672
3.23,6.27,-5.35,0.456579963165533,1.3072975236785491,1.06303473388612,-136.06616582647524,0.1489690686936551,-20.94924459772563
3.23,6.27,-5.35,0.456579963165533,1.3072975236785491,1.06303473388612,-136.06616582647524,0.1489690686936551,-20.94924459772563
3.62,6.53,-8.15,0.3020807448158789,0.0003798068815514,-1.242175597291249,-138.23069557304194,0.5271230305187238,-18.402183827223173
3.62,6.53,-8.15,0.3020807448158789,0.0003798068815514,-1.242175597291249,-138.23069557304194,0.5271230305187238,-18.402183827223173
3.08,6.37,-8.63,0.4770964901695114,0.1040015570425092,-1.342420033648578,-142.06390845011202,0.8938232239278141,-14.003539375629764
3.08,6.37,-8.63,0.4770964901695114,0.1040015570425092,-1.342420033648578,-142.06390845011202,0.8938232239278141,-14.003539375629764
1.12,3.39,-4.74,0.1251112703012084,0.2333234666162995,3.878411869663992,-145.49229376528544,1.100095864564908,-9.844059122531188
1.12,3.39,-4.74,0.1251112703012084,0.2333234666162995,3.878411869663992,-145.49229376528544,1.100095864564908,-9.844059122531188
1.71,5.7,-8.97,0.5438119287251805,0.0836641118336016,-0.9438043579593564,-147.43869005154224,1.6272548279067642,-6.030298919379606
1.71,5.7,-8.97,0.5438119287251805,0.0836641118336016,-0.9438043579593564,-147.43869005154224,1.6272548279067642,-6.030298919379606
0.19,2.86,-6.64,-0.3284245175537339,-0.9178645763712676,2.640412357016591,-149.11579237958978,1.7877008349543104,-3.896864048753203
0.19,2.86,-6.64,-0.3284245175537339,-0.9178645763712676,2.640412357016591,-149.11579237958978,1.7877008349543104,-3.896864048753203
0.54,4.17,-8.26,-0.0710127687556903,-0.6635366478901061,0.5620420416504199,-148.85861645005238,1.7303983035632713,-3.5070491615651807
0.54,4.17,-8.26,-0.0710127687556903,-0.6635366478901061,0.5620420416504199,-148.85861645005238,1.7303983035632713,-3.5070491615651807
0.76,4.96,-7.79,0.1412739871497324,0.2420346332073824,0.544643689438395,-148.73080219796103,1.856464464018338,-3.438262641755622
0.76,4.96,-7.79,0.1412739871497324,0.2420346332073824,0.544643689438395,-148.73080219796103,1.856464464018338,-3.438262641755622
1.18,4.44,-8.53,0.4673444792219894,-0.5905156669039608,0.1474688553645151,-148.6458749656724,1.79916139442209,-3.942727502383202
1.18,4.44,-8.53,0.4673444792219894,-0.5905156669039608,0.1474688553645151,-148.6458749656724,1.79916139442209,-3.942727502383202
1.03,6.27,-8.77,0.1648078574890802,0.7232426537836685,-0.9978147453660496,-147.93284627196644,1.9825328715837247,-4.160587661476331
1.03,6.27,-8.77,0.1648078574890802,0.7232426537836685,-0.9978147453660496,-147.93284627196644,1.9825328715837247,-4.160587661476331
0.79,5.46,-8.12,-0.0417466630063124,0.3973507026738643,-0.0020435743355982,-148.01592812505623,1.7877008349543104,-4.527544452628878
0.79,5.46,-8.12,-0.0417466630063124,0.3973507026738643,-0.0020435743355982,-148.01592812505623,1.7877008349543104,-4.527544452628878
1.05,5.32,-8.62,0.1705717585897776,0.0585232152549917,-0.3755295460720358,-148.26644461114088,1.638715147453804,-4.68810243496922
1.05,5.32,-8.62,0.1705717585897776,0.0585232152549917,-0.3755295460720358,-148.26644461114088,1.638715147453804,-4.68810243496922
1.38,4.03,-9.25,0.5382080594531575,-1.3035771617596046,-0.2789247812446707,-148.6458749656724,1.638715147453804,-4.573417240623146
1.38,4.03,-9.25,0.5382080594531575,-1.3035771617596046,-0.2789247812446707,-148.6458749656724,1.638715147453804,-4.573417240623146
1.01,4.95,-9.34,0.2522048689378983,-0.6368384173155368,-0.7900018077322457,-148.26644461114088,2.2575997541901875,-3.701951248377608
1.01,4.95,-9.34,0.2522048689378983,-0.6368384173155368,-0.7900018077322457,-148.26644461114088,2.2575997541901875,-3.701951248377608
1.02,3.86,-9.21,0.6946468646357802,-1.4796071751014717,-0.0975071241999163,-148.26644461114088,3.564372225995784,-1.432431792389882
1.02,3.86,-9.21,0.6946468646357802,-1.4796071751014717,-0.0975071241999163,-148.26644461114088,3.564372225995784,-1.432431792389882
0.5,4.87,-9.32,0.4983499435007503,-0.7334282558330196,-0.6834896714895322,-147.72605283657722,5.204245622111723,1.0771765184626354
0.5,4.87,-9.32,0.4983499435007503,-0.7334282558330196,-0.6834896714895322,-147.72605283657722,5.204245622111723,1.0771765184626354
-0.27,5.44,-7.66,0.0088304719299321,0.4998673388923871,0.4209079054038493,-146.71084020226166,7.281463046960031,4.332593112917143
-0.27,5.44,-7.66,0.0088304719299321,0.4998673388923871,0.4209079054038493,-146.71084020226166,7.281463046960031,4.332593112917143
-0.75,4.2,-8.56,-0.0058651114110212,-0.9803669067510136,0.292715675620018,-146.71084020226166,8.533497036933403,6.04177399090254
-0.75,4.2,-8.56,-0.0058651114110212,-0.9803669067510136,0.292715675620018,-146.71084020226166,8.533497036933403,6.04177399090254
-1.07,4.5,-8.11,-0.1684962597161925,-0.5136866087768452,0.485988270357355,-146.1159090950019,10.097117916179354,7.982025743589274
-1.07,4.5,-8.11,-0.1684962597161925,-0.5136866087768452,0.485988270357355,-146.1159090950019,10.097117916179354,7.982025743589274
-0.23,5.45,-10.3,1.174343941928755,-0.5413824451857714,-1.7766665092774705,-145.6083860120317,11.30560069930953,9.568049817899787
-0.23,5.45,-10.3,1.174343941928755,-0.5413824451857714,-1.7766665092774705,-145.6083860120317,11.30560069930953,9.568049817899787
-1.64,5.12,-6.86,-0.5637648876372098,0.5682313593546304,1.1277743658113533,-144.3141111196786,13.230321745568984,12.411600904099071
-1.64,5.12,-6.86,-0.5637648876372098,0.5682313593546304,1.1277743658113533,-144.3141111196786,13.230321745568984,12.411600904099071
-0.97,6.11,-9.64,0.7692989381285535,0.220539178872916,-1.6197291996579752,-143.35423456188457,14.38461134345722,13.322613734970494
-0.97,6.11,-9.64,0.7692989381285535,0.220539178872916,-1.6197291996579752,-143.35423456188457,14.38461134345722,13.322613734970494
-1.6,5.61,-7.32,-0.1297866378026863,0.7951490831682806,0.4811262418304612,-142.31146828862353,15.656031584502133,15.632898017228824
-1.6,5.61,-7.32,-0.1297866378026863,0.7951490831682806,0.4811262418304612,-142.31146828862353,15.656031584502133,15.632898017228824
-1.75,6.18,-7.09,-0.326342376482738,1.3260477442860648,0.3378539818578066,-141.46907086921098,16.524012627926176,16.825133117850115
-1.75,6.18,-7.09,-0.326342376482738,1.3260477442860648,0.3378539818578066,-141.46907086921098,16.524012627926176,16.825133117850115
-1.95,5.77,-6.5,-0.5233165793519045,1.1244641792150705,0.9858155685282473,-140.30512782111506,17.462507245696994,17.93799404290059
-1.95,5.77,-6.5,-0.5233165793519045,1.1244641792150705,0.9858155685282473,-140.30512782111506,17.462507245696994,17.93799404290059
-1.9,5.25,-6.9,-0.1208491031410196,0.5858798716863425,0.950881243408464,-139.8686617976523,17.90319186690899,18.843446306043923
-1.9,5.25,-6.9,-0.1208491031410196,0.5858798716863425,0.950881243408464,-139.8686617976523,17.90319186690899,18.843446306043923
-2.11,5.58,-7.27,-0.1845274807573342,0.6301793185071807,0.4252735745829295,-139.80191665328087,17.833592505981915,19.157145947707967
-2.11,5.58,-7.27,-0.1845274807573342,0.6301793185071807,0.4252735745829295,-139.80191665328087,17.833592505981915,19.157145947707967
-2.18,5.19,-6.91,-0.3220050734594652,0.4647944191945883,0.9118830620441808,-140.06953899210683,17.59004678708234,19.017706136871343
-2.18,5.19,-6.91,-0.3220050734594652,0.4647944191945883,0.9118830620441808,-140.06953899210683,17.59004678708234,19.017706136871343
-2.07,5.47,-7.43,-0.1156505298372547,0.4138271144853034,0.3606946711692967,-139.76858389100772,17.706010881893693,18.69245669557365
-2.07,5.47,-7.43,-0.1156505298372547,0.4138271144853034,0.3606946711692967,-139.76858389100772,17.706010881893693,18.69245669557365
-2.06,5.97,-8.07,0.006456911935074,0.5128144172773745,-0.427917879579514,-139.9355135446495,17.32339805412093,18.344143604670897
-2.06,5.97,-8.07,0.006456911935074,0.5128144172773745,-0.427917879579514,-139.9355135446495,17.32339805412093,18.344143604670897
-1.78,3.84,-7.88,0.5668729292221576,-0.9860317639692532,0.9345140428271872,-140.50813431460048,16.906223928806188,18.05401336431272
-1.78,3.84,-7.88,0.5668729292221576,-0.9860317639692532,0.9345140428271872,-140.50813431460048,16.906223928806188,18.05401336431272
-2.24,5.73,-7.31,-0.421777546024274,0.5804854053396079,0.2792295518483883,-140.1367137765361,16.96415115593626,18.042410594385764
-2.24,5.73,-7.31,-0.421777546024274,0.5804854053396079,0.2792295518483883,-140.1367137765361,16.96415115593626,18.042410594385764
-2.08,5.44,-7.56,-0.2026989206926084,0.2708085898262524,0.2693979924652101,-140.47423039692836,16.651395613206027,17.450913825320047
-2.08,5.44,-7.56,-0.2026989206926084,0.2708085898262524,0.2693979924652101,-140.47423039692836,16.651395613206027,17.450913825320047
-1.73,6.37,-7.85,-0.0866074036135009,0.9824004023422584,-0.402154465123088,-141.26122730722247,15.598198868035936,16.223006993376618
-1.73,6.37,-7.85,-0.0866074036135009,0.9824004023422584,-0.402154465123088,-141.26122730722247,15.598198868035936,16.223006993376618
-1.5,4.86,-4.66,-0.764756809205555,1.3641240755648258,3.088055464739062,-142.56060519917662,14.303764676023915,14.858287755594214
-1.5,4.86,-4.66,-0.764756809205555,1.3641240755648258,3.088055464739062,-142.56060519917662,14.303764676023915,14.858287755594214
-1.64,6.16,-6.0,-1.2175188964029642,1.683232322601978,1.302558238674182,-144.61452078820068,11.685663847129462,9.499056247386587
-1.64,6.16,-6.0,-1.2175188964029642,1.683232322601978,1.302558238674182,-144.61452078820068,11.685663847129462,9.499056247386587
1.13,6.17,-6.95,0.8335739101954505,1.5217830823510234,0.6067787625036996,-145.91984007134727,8.22327089407658,1.9023072532875973
1.13,6.17,-6.95,0.8335739101954505,1.5217830823510234,0.6067787625036996,-145.91984007134727,8.22327089407658,1.9023072532875973
4.33,5.72,-11.58,1.834202835716872,-1.9449465918261883,-3.5506170375489603,-143.75733722307018,1.9825328715837247,-10.6148933492606
4.33,5.72,-11.58,1.834202835716872,-1.9449465918261883,-3.5506170375489603,-143.75733722307018,1.9825328715837247,-10.6148933492606
1.18,7.64,-4.83,-0.4320077986793806,3.3575472041868606,1.34313146256315,-141.85294621850556,-0.7333909844413455,-13.772662665221276
1.18,7.64,-4.83,-0.4320077986793806,3.3575472041868606,1.34313146256315,-141.85294621850556,-0.7333909844413455,-13.772662665221276
2.3,6.07,-6.08,-0.0808398311631459,1.115413033362016,0.9833502381929886,-138.585728177911,-5.984399237389443,-20.11076285425295
2.3,6.07,-6.08,-0.0808398311631459,1.115413033362016,0.9833502381929886,-138.585728177911,-5.984399237389443,-20.11076285425295
5.54,4.01,-9.02,0.7677097007731469,-2.9911576880369504,-1.0835151732485802,-134.91636984441135,-9.91307033213892,-26.09985097880343
5.54,4.01,-9.02,0.7677097007731469,-2.9911576880369504,-1.0835151732485802,-134.91636984441135,-9.91307033213892,-26.09985097880343
5.82,4.06,-9.14,0.1125975770067142,-3.628965066755072,-1.1803211171880117,-130.10645331555745,-12.261764386292771,-30.06892651053725
5.82,4.06,-9.14,0.1125975770067142,-3.628965066755072,-1.1803211171880117,-130.10645331555745,-12.261764386292771,-30.06892651053725
4.37,7.64,-6.54,0.324537165981057,0.3757755848779682,-1.1474162923731974,-127.5070627749377,-12.377021364647929,-29.760539648089328
4.37,7.64,-6.54,0.324537165981057,0.3757755848779682,-1.1474162923731974,-127.5070627749377,-12.377021364647929,-29.760539648089328
5.12,5.53,-7.73,0.3347449558603467,-2.0412246924545814,-0.7890825168880973,-128.05386288415187,-12.273289521851868,-29.55902139879445
5.12,5.53,-7.73,0.3347449558603467,-2.0412246924545814,-0.7890825168880973,-128.05386288415187,-12.273289521851868,-29.55902139879445
4.26,6.76,-6.82,0.1384920996710648,-0.3545003930096722,-0.6915760125072907,-127.97542141388575,-12.111948910357556,-29.2983716924918
4.26,6.76,-6.82,0.1384920996710648,-0.3545003930096722,-0.6915760125072907,-127.97542141388575,-12.111948910357556,-29.2983716924918
4.71,5.98,-7.12,0.2538806532892694,-1.259093744817176,-0.536904880003668,-127.6108060653337,-12.50381856554563,-29.95028992789253
4.71,5.98,-7.12,0.2538806532892694,-1.259093744817176,-0.536904880003668,-127.6108060653337,-12.50381856554563,-29.95028992789253
4.44,7.09,-6.86,0.0809932137261327,-0.2966977005460412,-1.0075402412441858,-126.88855686312144,-12.273289521851868,-30.34191613696452
4.44,7.09,-6.86,0.0809932137261327,-0.2966977005460412,-1.0075402412441858,-126.88855686312144,-12.273289521851868,-30.34191613696452
3.79,6.59,-6.0,0.0855171796885455,0.0985112012493241,0.1228913105650662,-127.5070627749377,-11.858462221253813,-29.653841828798463
3.79,6.59,-6.0,0.0855171796885455,0.0985112012493241,0.1228913105650662,-127.5070627749377,-11.858462221253813,-29.653841828798463
3.96,6.72,-6.65,0.0186185210252701,-0.1279600260104692,-0.44253433742014,-128.55324310023371,-11.294085603048902,-28.777535311725245
3.96,6.72,-6.65,0.0186185210252701,-0.1279600260104692,-0.44253433742014,-128.55324310023371,-11.294085603048902,-28.777535311725245
3.19,6.42,-5.95,-0.0784646616636098,0.4354931664078667,0.5007814753064519,-130.24247093533856,-10.22366575133618,-27.11251495381608
3.19,6.42,-5.95,-0.0784646616636098,0.4354931664078667,0.5007814753064519,-130.24247093533856,-10.22366575133618,-27.11251495381608
3.32,6.84,-6.18,-0.0441961300113313,0.607823415327001,0.0276420033843827,-130.54294242265092,-10.062607019364435,-26.87682214392707
3.32,6.84,-6.18,-0.0441961300113313,0.607823415327001,0.0276420033843827,-130.54294242265092,-10.062607019364435,-26.87682214392707
3.25,6.19,-5.88,0.0486706666136126,0.3311003272802959,0.6775205924668661,-130.65262969629032,-10.189151472083807,-26.87682214392707
3.25,6.19,-5.88,0.0486706666136126,0.3311003272802959,0.6775205924668661,-130.65262969629032,-10.189151472083807,-26.87682214392707
4.01,6.62,-6.78,0.2162626242567413,-0.1775697338670117,-0.4790001723014097,-130.0792914251156,-10.200656128703407,-27.195035005738163
4.01,6.62,-6.78,0.2162626242567413,-0.1775697338670117,-0.4790001723014097,-130.0792914251156,-10.200656128703407,-27.195035005738163
3.33,6.61,-6.41,-0.1482226398507773,0.2166819785582125,0.0188934148981925,-130.24247093533856,-9.798053639345571,-26.6883513110376
3.33,6.61,-6.41,-0.1482226398507773,0.2166819785582125,0.0188934148981925,-130.24247093533856,-9.798053639345571,-26.6883513110376
3.54,6.2,-6.47,0.0698302551748888,-0.0809580458811911,0.1722808182492166,-130.9830718545965,-9.76355056625781,-26.405782688920823
3.54,6.2,-6.47,0.0698302551748888,-0.0809580458811911,0.1722808182492166,-130.9830718545965,-9.76355056625781,-26.405782688920823
3.69,5.8,-6.51,0.1551742579308933,-0.3816742440752981,0.3479796007797606,-131.20453254720215,-9.74054901066208,-26.641245110498453
3.69,5.8,-6.51,0.1551742579308933,-0.3816742440752981,0.3479796007797606,-131.20453254720215,-9.74054901066208,-26.641245110498453
4.13,5.56,-6.82,0.3110157367725319,-0.8413422857017157,0.1278942757464936,-131.1767984012427,-8.993207204284674,-26.97108530932781
4.13,5.56,-6.82,0.3110157367725319,-0.8413422857017157,0.1278942757464936,-131.1767984012427,-8.993207204284674,-26.97108530932781
3.63,4.54,-6.29,0.1721179364929722,-1.2023704343354729,1.3286030105941649,-131.2600452849924,-7.568544455864769,-26.38224270571989
3.63,4.54,-6.29,0.1721179364929722,-1.2023704343354729,1.3286030105941649,-131.2600452849924,-7.568544455864769,-26.38224270571989
3.69,4.0,-6.91,-0.0460453401705289,-2.047379856003092,1.2526850975771886,-130.95545525843715,-4.080321683767285,-25.923438140144057
3.69,4.0,-6.91,-0.0460453401705289,-2.047379856003092,1.2526850975771886,-130.95545525843715,-4.080321683767285,-25.923438140144057
2.8,3.48,-5.61,-0.3233838537644413,-1.4917087949024128,2.800029719555562,-130.10645331555745,-0.1718874029970642,-25.970475433904987
2.8,3.48,-5.61,-0.3233838537644413,-1.4917087949024128,2.800029719555562,-130.10645331555745,-0.1718874029970642,-25.970475433904987
3.47,4.06,-4.91,-0.0037271724042645,-0.699600396660705,2.5856289230900265,-127.30014547607834,6.78778903124712,-27.796689641349
3.47,4.06,-4.91,-0.0037271724042645,-0.699600396660705,2.5856289230900265,-127.30014547607834,6.78778903124712,-27.796689641349
7.9,9.59,-6.4,0.6436886247362419,2.1001174062243133,-3.996004521303464,-124.47843555677235,12.607573156584117,-29.464221664430085
7.9,9.59,-6.4,0.6436886247362419,2.1001174062243133,-3.996004521303464,-124.47843555677235,12.607573156584117,-29.464221664430085
6.21,6.02,-6.87,0.2264453757073233,-0.3862668302688013,-1.2296954289748891,-123.7205290097115,17.868391355752113,-28.45823232032684
6.21,6.02,-6.87,0.2264453757073233,-0.3862668302688013,-1.2296954289748891,-123.7205290097115,17.868391355752113,-28.45823232032684
5.5,4.79,-7.11,0.2465008619577891,-1.0116718832248026,-0.3255737108024057,-123.86648635871312,22.769918267605057,-26.076325639174165
5.5,4.79,-7.11,0.2465008619577891,-1.0116718832248026,-0.3255737108024057,-123.86648635871312,22.769918267605057,-26.076325639174165
6.48,10.25,-5.09,-1.627940161267888,4.525792024482273,-2.433775539272064,-122.63671936413527,28.801196435314267,-22.88682192770989
6.48,10.25,-5.09,-1.627940161267888,4.525792024482273,-2.433775539272064,-122.63671936413527,28.801196435314267,-22.88682192770989
6.09,4.42,-7.19,0.9473900561513228,-0.6143558110943743,-0.5396352763144048,-122.61284780254854,29.44052495534397,-23.31957649574687
6.09,4.42,-7.19,0.9473900561513228,-0.6143558110943743,-0.5396352763144048,-122.61284780254854,29.44052495534397,-23.31957649574687
5.19,6.96,-5.41,-1.0532834711381582,1.8598689173798373,-0.1972133307133621,-121.80654521371449,29.653841828798463,-23.95177191669858
5.19,6.96,-5.41,-1.0532834711381582,1.8598689173798373,-0.1972133307133621,-121.80654521371449,29.653841828798463,-23.95177191669858
5.79,5.07,-7.04,0.1272630116001387,-0.384027068474285,-0.6157742542969604,-121.73589034408552,28.943189564308163,-24.97187636961762
5.79,5.07,-7.04,0.1272630116001387,-0.384027068474285,-0.6157742542969604,-121.73589034408552,28.943189564308163,-24.97187636961762
5.12,5.18,-5.97,-0.2236326118258584,0.2194157575568472,0.3944480695129737,-121.5243930799012,28.81302746748213,-24.924931536010146
5.12,5.18,-5.97,-0.2236326118258584,0.2194157575568472,0.3944480695129737,-121.5243930799012,28.81302746748213,-24.924931536010146
5.59,5.82,-6.22,-0.2877858065014688,0.5590245260707425,-0.3625963294399401,-121.54785831198568,28.76570522000204,-24.983613243143303
5.59,5.82,-6.22,-0.2877858065014688,0.5590245260707425,-0.3625963294399401,-121.54785831198568,28.76570522000204,-24.983613243143303
5.8,5.33,-7.08,-0.0004778815199593,-0.4175605173608989,-0.7763997960640143,-121.40719542947475,28.17459680285253,-25.265378432632104
5.8,5.33,-7.08,-0.0004778815199593,-0.4175605173608989,-0.7763997960640143,-121.40719542947475,28.17459680285253,-25.265378432632104
5.35,5.47,-5.92,-0.1218483906540137,0.3155055975377636,0.1383818413473179,-121.29021101561548,27.70226118700864,-25.07751783117069
5.35,5.47,-5.92,-0.1218483906540137,0.3155055975377636,0.1383818413473179,-121.29021101561548,27.70226118700864,-25.07751783117069
6.04,6.37,-6.72,-0.2571709578039062,0.3799633637796593,-1.2390003176882924,-121.2201221874496,27.230405140191408,-25.34758912480893
6.04,6.37,-6.72,-0.2571709578039062,0.3799633637796593,-1.2390003176882924,-121.2201221874496,27.230405140191408,-25.34758912480893
6.11,6.14,-7.04,-0.0440728203864243,-0.1270751217825627,-1.3546765116619142,-121.40719542947475,25.876405289927124,-25.523799625853453
6.11,6.14,-7.04,-0.0440728203864243,-0.1270751217825627,-1.3546765116619142,-121.40719542947475,25.876405289927124,-25.523799625853453
5.39,7.67,-5.75,-0.9687894187405426,1.5625255353890783,-1.0360185374677702,-121.94809034282368,24.54952511022461,-25.042301608577382
5.39,7.67,-5.75,-0.9687894187405426,1.5625255353890783,-1.0360185374677702,-121.94809034282368,24.54952511022461,-25.042301608577382
5.81,9.52,-4.92,-0.9370430402420642,3.628381652016186,-1.7929058935696442,-124.84860239500853,19.505871262305693,-26.26455976697084
5.81,9.52,-4.92,-0.9370430402420642,3.628381652016186,-1.7929058935696442,-124.84860239500853,19.505871262305693,-26.26455976697084
7.13,2.57,-6.97,2.7871090308100235,-2.4451868502038216,0.2006214492425346,-128.3424298098244,14.107452479907948,-27.17145638329649
7.13,2.57,-6.97,2.7871090308100235,-2.4451868502038216,0.2006214492425346,-128.3424298098244,14.107452479907948,-27.17145638329649
6.29,7.12,-8.16,0.7454810012478175,-0.0636632414456164,-2.6947221274293423,-130.87269286132403,9.798053639345571,-24.819321185763364
6.29,7.12,-8.16,0.7454810012478175,-0.0636632414456164,-2.6947221274293423,-130.87269286132403,9.798053639345571,-24.819321185763364
3.88,6.22,-6.27,0.0748819988313416,0.8437582903879209,0.1973750724285814,-134.73735728971755,6.076199569788739,-22.79329707445838
3.88,6.22,-6.27,0.0748819988313416,0.8437582903879209,0.1973750724285814,-134.73735728971755,6.076199569788739,-22.79329707445838
3.75,2.41,-6.21,1.07641336895185,-1.8903796409643647,2.478451103124372,-138.7806141249359,0.7333909844413455,-21.275624852029367
3.75,2.41,-6.21,1.07641336895185,-1.8903796409643647,2.478451103124372,-138.7806141249359,0.7333909844413455,-21.275624852029367
2.77,3.31,-7.77,-0.2819558034142277,-2.0013214241377613,1.1511827403884052,-139.2059212883253,-1.5011923619341792,-20.18059415638896
2.77,3.31,-7.77,-0.2819558034142277,-2.0013214241377613,1.1511827403884052,-139.2059212883253,-1.5011923619341792,-20.18059415638896
2.28,4.07,-6.93,-0.380585526147233,-0.9225811014818368,1.5125437329887197,-139.1730548258568,-2.6129139620146145,-19.40123466474733
2.28,4.07,-6.93,-0.380585526147233,-0.9225811014818368,1.5125437329887197,-139.1730548258568,-2.6129139620146145,-19.40123466474733
2.86,5.38,-7.48,-0.0823300437023676,-0.2526171004527082,0.1628018902223029,-139.1730548258568,-3.163128706652845,-19.494244164289388
2.86,5.38,-7.48,-0.0823300437023676,-0.2526171004527082,0.1628018902223029,-139.1730548258568,-3.163128706652845,-19.494244164289388
3.69,4.22,-8.04,0.5977677540712814,-1.4663504027926504,0.1340810440078819,-140.17034192327273,-3.805139007503523,-19.494244164289388
3.69,4.22,-8.04,0.5977677540712814,-1.4663504027926504,0.1340810440078819,-140.17034192327273,-3.805139007503523,-19.494244164289388
2.88,5.35,-7.46,0.0352460643569665,-0.1783079855607443,0.187114461460073,-139.8686617976523,-3.3121572228147254,-19.017706136871343
2.88,5.35,-7.46,0.0352460643569665,-0.1783079855607443,0.187114461460073,-139.8686617976523,-3.3121572228147254,-19.017706136871343
2.7,5.68,-6.99,-0.0019225096142385,0.2273810936221796,0.4066077584874677,-139.14021367291954,-2.6129139620146145,-18.72729753587516
2.7,5.68,-6.99,-0.0019225096142385,0.2273810936221796,0.4066077584874677,-139.14021367291954,-2.6129139620146145,-18.72729753587516
3.01,6.27,-7.85,-0.0565385223233426,0.1023589287860802,-0.6805720366115686,-138.74807199122864,-2.337829975144579,-18.83183055191492
3.01,6.27,-7.85,-0.0565385223233426,0.1023589287860802,-0.6805720366115686,-138.74807199122864,-2.337829975144579,-18.83183055191492
2.82,6.23,-7.36,-0.0627361407402258,0.4342534884404237,-0.2304007662571053,-139.04184146178912,-2.2346770389286066,-18.72729753587516
2.82,6.23,-7.36,-0.0627361407402258,0.4342534884404237,-0.2304007662571053,-139.04184146178912,-2.2346770389286066,-18.72729753587516
3.18,5.13,-7.55,0.2794616705653272,-0.5662772756682601,0.1612868019785516,-139.2717303873644,-2.314906939637541,-18.820214993044136
3.18,5.13,-7.55,0.2794616705653272,-0.5662772756682601,0.1612868019785516,-139.2717303873644,-2.314906939637541,-18.820214993044136
2.82,6.01,-7.63,-0.1659432338826034,0.0183141481295256,-0.3057941869958878,-138.585728177911,-1.9825328715837247,-18.796984460560505
2.82,6.01,-7.63,-0.1659432338826034,0.0183141481295256,-0.3057941869958878,-138.585728177911,-1.9825328715837247,-18.796984460560505
2.94,6.13,-7.59,-0.0444255917688873,0.1423310177091727,-0.3818910264764544,-138.68306126823978,-1.925228761643688,-18.76214012304259
2.94,6.13,-7.59,-0.0444255917688873,0.1423310177091727,-0.3818910264764544,-138.68306126823978,-1.925228761643688,-18.76214012304259
2.88,5.67,-7.34,0.038966629817644,0.030131491870212,0.0949831144978876,-139.3046731473042,-2.016915574628728,-18.657617598655087
2.88,5.67,-7.34,0.038966629817644,0.030131491870212,0.0949831144978876,-139.3046731473042,-2.016915574628728,-18.657617598655087
3.0,4.99,-7.51,0.1364741221528362,-0.6081670226840998,0.324471574843562,-139.40365501423122,-2.1086036789736795,-18.738911537329376
3.0,4.99,-7.51,0.1364741221528362,-0.6081670226840998,0.324471574843562,-139.40365501423122,-2.1086036789736795,-18.738911537329376
3.09,5.94,-7.63,0.0807477397863094,-0.0228611746490594,-0.3442887333986508,-138.7806141249359,-1.856464464018338,-18.855062255560348
3.09,5.94,-7.63,0.0807477397863094,-0.0228611746490594,-0.3442887333986508,-138.7806141249359,-1.856464464018338,-18.855062255560348
2.86,6.4,-7.48,-0.1342689851154696,0.3687083884288005,-0.4371786770102855,-138.3272359651665,-1.5928739664684124,-18.785369486689323
2.86,6.4,-7.48,-0.1342689851154696,0.3687083884288005,-0.4371786770102855,-138.3272359651665,-1.5928739664684124,-18.785369486689323
2.73,6.35,-7.05,-0.0922503362115847,0.6143079901111945,-0.0468780772297208,-138.48861330559183,-1.4668120111410634,-18.576333132780547
2.73,6.35,-7.05,-0.0922503362115847,0.6143079901111945,-0.0468780772297208,-138.48861330559183,-1.4668120111410634,-18.576333132780547
2.89,5.95,-7.16,0.0667656829152951,0.2645119551149451,0.0626376965807296,-138.7806141249359,-1.581413711340907,-18.576333132780547
2.89,5.95,-7.16,0.0667656829152951,0.2645119551149451,0.0626376965807296,-138.7806141249359,-1.581413711340907,-18.576333132780547
2.94,5.26,-7.49,0.049330205772334,-0.4548570582889866,0.204464228660063,-138.94369485234358,-1.7189378496716434,-18.715683728517146
2.94,5.26,-7.49,0.049330205772334,-0.4548570582889866,0.204464228660063,-138.94369485234358,-1.7189378496716434,-18.715683728517146
2.6,6.32,-7.48,-0.35194459711993,0.373591485844222,-0.3121129877501723,-138.5209607780903,-1.7877008349543104,-18.738911537329376
2.6,6.32,-7.48,-0.35194459711993,0.373591485844222,-0.3121129877501723,-138.5209607780903,-1.7877008349543104,-18.738911537329376
2.81,6.01,-7.86,-0.2643128335168225,-0.0895167666815055,-0.4752722655358159,-138.6505925631453,-1.8450038134157023,-18.855062255560348
2.81,6.01,-7.86,-0.2643128335168225,-0.0895167666815055,-0.4752722655358159,-138.6505925631453,-1.8450038134157023,-18.855062255560348
