TIME,ELAPSED_SECONDS,PSTATE,acc_x,acc_y,acc_z,mag_x,mag_y,mag_z,gyr_x,gyr_y,gyr_z,lin_x,lin_y,lin_z,eul_x,eul_y,eul_z,qua_w,qua_x,qua_y,qua_z
1873541.0,72.147806,1.0,-3.51,1.29,-9.26,5.88,-23.56,40.0,0.06,1.5,-0.12,-0.27763862989753574,-0.24269560217317662,-0.17312031979565923,-149.85607839466778,21.975603150496877,19.878046180611584,-0.0394,-0.9656,0.1906,0.1726
1873577.0,72.176825,1.0,-3.53,1.44,-9.13,5.88,-22.87,41.56,0.88,2.56,-1.12,-0.37988663016911417,-0.11023238750024822,-0.07944806591886788,-149.63651807466178,22.139049946746336,19.95948754584176,-0.0392,-0.9651,0.192,0.1733
1873610.0,72.213204,1.0,-3.5,1.39,-9.27,5.88,-22.87,41.56,5.0,3.19,-1.69,-0.3002265903473871,-0.12274293636834549,-0.1938398963010819,-149.76806738505078,22.09234622296079,19.912948378447748,-0.038,-0.9654,0.1916,0.1729
1873645.0,72.250955,1.0,-3.57,1.17,-9.08,6.25,-24.0,39.56,0.19,-2.25,1.5,-0.3401340080303614,-0.3319117232275455,-0.008356034871569662,-149.72415559222358,22.080670872919914,19.98275837630303,-0.0371,-0.9653,0.1915,0.1735
1873682.0,72.290984,1.0,-3.64,1.4,-8.68,7.38,-23.56,41.56,-1.0,-1.63,4.06,-0.5978719423698597,-0.15245520958561254,0.31079266379295944,-149.50552295905456,22.2091125181558,20.122400879873982,-0.0375,-0.9648,0.1926,0.1747
1873717.0,72.319425,1.0,-3.51,1.79,-9.22,7.38,-23.56,41.56,-3.31,3.0,1.94,-0.4370608777516072,0.23748090095605312,-0.20759887901334828,-149.46197984083236,22.290862814695284,20.09912503821932,-0.0382,-0.9647,0.1933,0.1745
1873750.0,72.351201,1.0,-3.48,1.43,-9.48,7.06,-23.19,39.88,5.25,-1.19,-1.37,-0.20852225565431048,-0.0686563338601221,-0.3902860484764137,-149.59279181341398,22.267504416511226,20.017666183400287,-0.0373,-0.965,0.1931,0.1738
1873786.0,72.398915,1.0,-3.51,1.35,-9.14,7.06,-23.56,40.0,0.75,-1.56,0.5,-0.3146293075557227,-0.13990821570324719,-0.07078054088490227,-149.54912686270868,22.244146955349763,20.087487431641748,-0.0368,-0.9649,0.1929,0.1744
1873821.0,72.416857,1.0,-3.57,1.62,-9.18,5.88,-22.5,42.0,-3.38,-5.63,3.38,-0.418314666233617,0.08017519171496584,-0.1663277287752596,-149.20198320614298,22.547867348348838,20.27371434520358,-0.0368,-0.9641,0.1955,0.176
1873856.0,72.4652,1.0,-3.62,1.56,-9.16,5.88,-22.5,42.0,2.63,-6.38,-0.63,-0.3980237510519511,0.02040266767683424,-0.15752386564235898,-148.98694437514695,22.547867348348838,20.56480245757989,-0.0365,-0.9636,0.1955,0.1785
1873893.0,72.495995,1.0,-3.67,1.3,-9.12,6.25,-23.19,40.38,6.56,-14.44,-0.31,-0.3245602550499771,-0.1875267171095295,-0.10257773838668172,-148.85861645005238,22.582922295565638,20.832722001771078,-0.0342,-0.9633,0.1958,0.1808
1873928.0,72.535984,1.0,-3.93,1.18,-8.27,6.69,-23.19,41.19,4.94,-12.31,0.25,-0.7475528619207568,-0.35177701688347673,0.6116721507049476,-148.47668973247264,22.699787605080818,21.287284503296153,-0.0317,-0.9624,0.1968,0.1847
1873963.0,72.574866,1.0,-4.08,0.88,-7.66,6.69,-23.19,41.19,12.5,9.5,6.56,-1.0224867334399157,-0.6798790438052391,1.1701758718772357,-148.47668973247264,22.886821927709892,21.08910064572278,-0.03,-0.9624,0.1984,0.183
1873997.0,72.598792,1.0,-5.38,-3.45,-2.99,7.06,-22.06,41.19,4.31,78.69,51.5,-2.2949949595978847,-5.409266373847021,5.900266066975979,-148.98694437514695,24.608164621444825,18.100426311736804,-0.0366,-0.9636,0.2131,0.1573
1874032.0,72.635251,1.0,3.16,0.33,0.49,6.25,-22.87,40.75,-206.75,514.81,213.75,2.5138341757250875,1.8961043055198974,10.454744282913737,-148.4345315385202,28.529168952703607,7.384806987935719,-0.0958,-0.9623,0.2464,0.0644
1874069.0,72.682269,1.0,7.47,12.87,-8.85,-9.38,-27.0,35.5,-359.5,599.0,174.19,-1.4371623010884744,8.029842595954499,-5.464777320474171,-134.64810211296725,31.43565821002521,-12.169567773976446,-0.2529,-0.9227,0.2709,-0.106
1874104.0,72.714428,1.0,9.29,2.26,-12.14,-9.38,-27.0,35.5,119.31,498.75,59.88,2.13453949881466,-3.068586981636258,-5.187309285796816,-126.7349719522371,29.03787686998247,-28.15096848573949,-0.2811,-0.8939,0.2507,-0.2432
1874143.0,72.742285,1.0,8.6,5.99,-8.56,-29.19,-30.5,20.0,-111.62,146.5,39.94,-1.5090597401992758,0.4402455566302146,-3.633685656164884,-119.74257704437856,27.761276718209416,-38.20995633245823,-0.2955,-0.8649,0.2399,-0.3273
1874178.0,72.780363,1.0,7.96,5.63,-5.91,-36.0,-27.87,13.56,14.0,47.06,24.75,-0.8978365172733875,1.4022730251229123,-1.4722737053569563,-117.07896160834981,28.576466242295997,-39.58320288872563,-0.3112,-0.853,0.2468,-0.3386
1874212.0,72.820977,1.0,8.04,4.17,-6.3,-36.0,-27.87,13.56,-15.19,45.19,8.63,-0.42797984499246544,0.02401709274362951,-1.2177210220373258,-115.77371350268422,28.45823232032684,-41.525607308184725,-0.3107,-0.847,0.2458,-0.3545
1874247.0,72.850996,1.0,7.88,3.99,-6.5,-36.38,-27.87,10.75,4.75,26.87,6.94,-0.6905104394728707,-0.41340193443029605,-1.1302962910626135,-114.74633713830113,28.36366745712689,-42.65520072513622,-0.3137,-0.8422,0.245,-0.3637
1874284.0,72.894485,1.0,7.54,4.6,-5.78,-37.19,-28.69,9.06,19.44,18.5,-3.5,-0.9969347857205646,0.44518475474461017,-0.6922990696527958,-114.74633713830113,28.032845198788674,-43.012165312362484,-0.3123,-0.8422,0.2422,-0.3666
1874319.0,72.927848,1.0,7.79,3.73,-5.63,-37.19,-28.69,9.06,32.06,34.69,-10.69,-0.3617411638105503,-0.041115581502523924,-0.49681314786260167,-114.72508670230464,26.88860402502931,-44.295958202894106,-0.3077,-0.8421,0.2325,-0.377
1874354.0,72.9649,1.0,8.19,4.07,-6.58,-37.06,-27.19,9.06,21.44,-15.81,-12.44,-0.770746242051632,-0.3644540656754023,-1.4276957069994012,-115.1512723286105,26.394012555578172,-44.30833052387342,-0.3052,-0.8441,0.2283,-0.3771
1874388.0,73.000985,1.0,9.83,4.46,-9.53,-36.69,-27.56,9.06,23.5,-119.56,-11.63,-0.7160529547633159,-1.161751746322409,-4.527888745487823,-118.70056715200869,26.8414782366778,-40.74229316618827,-0.2913,-0.8603,0.2321,-0.3481
1874425.0,73.032937,1.0,7.89,5.51,-8.84,-35.88,-28.25,10.69,92.12,-323.75,-31.69,-0.9142744924871837,1.0154846223447282,-3.189145209765682,-125.696251455902,27.950176987884003,-33.309024075692264,-0.2603,-0.8898,0.2415,-0.2866
1874458.0,73.058533,1.0,5.73,5.29,-7.41,-35.88,-28.25,10.69,136.75,-335.94,-64.69,-0.016653679227772944,3.0044170169221047,-0.5228369690317649,-137.37123052660468,27.690458980540107,-21.893896745024186,-0.1971,-0.9316,0.2393,-0.1899
1874495.0,73.11231,1.0,3.82,3.14,-8.7,-31.75,-27.87,20.75,156.5,-278.94,-74.44,0.25507818224697076,1.2898214033656856,-0.11369756792126573,-145.33809060162469,26.170433719349266,-14.812064314477514,-0.1444,-0.9546,0.2264,-0.1289
1874532.0,73.139793,1.0,1.01,0.35,-7.15,-24.37,-26.37,32.69,163.13,-217.06,-92.5,0.31595275346054613,-0.5665643087721312,2.606352871297167,-153.91350924378722,23.577049581358693,-5.754915093896803,-0.0811,-0.9742,0.2043,-0.0502
1874569.0,73.169831,1.0,-0.22,-1.94,-6.54,-24.37,-26.37,32.69,75.56,-172.31,-53.88,0.5214749708740305,-2.4585232443269915,3.460995793233306,-157.62647223808008,21.800531789289547,-0.9282017781870658,-0.0439,-0.981,0.1891,-0.0081
1874604.0,73.217803,1.0,-0.72,0.56,-9.24,-14.56,-23.75,38.0,29.37,-87.87,-19.31,-0.3097766366320363,-0.11876861345982137,0.5276666261678322,-158.5921035424659,20.9608980601766,2.991179359701173,-0.0259,-0.9826,0.1819,0.0261
1874638.0,73.238911,1.0,-1.11,-0.44,-9.16,-6.75,-21.5,41.25,35.13,-75.62,-19.87,0.06958296956035137,-0.8279978764431352,0.6066022975718859,-158.84031180775503,20.27371434520358,5.846705927689754,-0.0108,-0.983,0.176,0.051
1874675.0,73.277722,1.0,-1.73,-0.12,-8.52,-3.75,-20.69,42.06,18.81,-54.13,-4.06,-0.4416177548442025,-0.5649912240233625,1.1415788130227735,-158.46906001766973,20.087487431641748,7.648935698119245,-0.0034,-0.9824,0.1744,0.0667
1874708.0,73.336483,1.0,-1.46,0.33,-10.08,-3.75,-20.69,42.06,14.38,-44.38,1.44,0.10974523730258212,0.180495455137755,-0.38169026589041977,-157.80436691060555,20.122400879873982,9.22311622194562,0.0044,-0.9813,0.1747,0.0804
1874745.0,73.356891,1.0,-1.43,-0.02,-11.54,-0.75,-19.56,43.69,18.0,-62.19,1.0,0.7284975582768118,0.12393748363078316,-1.7981262067062698,-157.1587733939545,20.157316215575328,10.580368342525214,0.0114,-0.9802,0.175,0.0922
1874782.0,73.389794,1.0,-2.32,-0.14,-9.43,0.37,-19.25,43.25,5.25,-74.25,8.25,0.021260593468761302,-0.17591212388778815,0.0960628441255107,-155.42929332621986,20.36684806544824,13.39183842112712,0.0194,-0.9771,0.1768,0.1166
1874817.0,73.415987,1.0,-3.22,1.08,-9.03,0.37,-19.25,43.25,12.56,-75.69,-5.56,-0.9925081301017094,0.7933824129231826,0.2431165547431604,-154.11739099299157,20.40177671287519,15.470980940849387,0.0251,-0.9746,0.1771,0.1346
1874849.0,73.454194,1.0,-3.12,-0.48,-9.83,3.25,-18.19,43.25,19.25,-59.19,-6.63,0.20030959202315946,-0.2614269227748257,-0.5125181850521248,-152.72165046658662,20.157316215575328,17.682816604505923,0.0359,-0.9718,0.175,0.1537
1874886.0,73.482196,1.0,-3.38,-3.84,-7.41,6.25,-18.56,43.0,5.19,-45.69,35.06,0.6900315506623076,-3.684151399334819,1.6195268834303054,-151.30008546167105,20.588095276846204,19.180388694494322,0.0405,-0.9688,0.1787,0.1666
1874923.0,73.520793,1.0,-2.58,-7.77,-6.87,7.75,-17.37,43.25,-86.81,5.31,236.25,3.5067706754678563,-7.2503410685346585,2.78088927111103,-146.67085725236174,26.04103972629063,20.285355318851703,0.0208,-0.958,0.2253,0.1761
1874956.0,73.563272,1.0,-0.95,-2.11,-4.92,7.75,-17.37,43.25,-192.44,19.5,362.5,2.2011240688613682,-2.059899886386473,5.28195495043653,-139.14021367291954,34.39903434859307,20.984205642908503,-0.0342,-0.9371,0.2957,0.1821
1874993.0,73.600878,1.0,0.19,11.55,-5.48,4.75,-20.37,43.0,-249.06,87.94,382.75,-5.174536145595049,7.019812100469003,0.45702895142057365,-125.09665734949911,47.31894588531801,20.914285524438075,-0.1362,-0.8874,0.4013,0.1815
1875030.0,73.646394,1.0,0.62,12.28,-11.02,-3.38,-26.75,38.75,-102.0,97.0,177.75,-2.92826399310149,4.821803401117345,-5.711039323725959,-118.07406258134459,52.38648161463617,19.552381683513467,-0.2026,-0.8575,0.4414,0.1698
1875064.0,73.668824,1.0,0.34,9.48,-6.05,-3.38,-26.75,38.75,-29.69,64.94,53.88,-3.762970787038169,3.3090329931232096,-0.267021203008337,-115.40818530642285,54.81293529494486,17.253853117357277,-0.2258,-0.8453,0.4603,0.15
1875099.0,73.710895,1.0,-0.34,10.44,-4.14,-13.19,-30.75,33.5,36.5,130.56,-21.12,-5.984660626234682,3.4747229126956416,0.9545916027240207,-116.96926663704076,53.71845771367623,13.034229810442687,-0.2371,-0.8525,0.4518,0.1135
1875136.0,73.761635,1.0,2.14,8.22,-9.27,-15.5,-30.56,31.75,151.25,253.25,-139.69,-1.7367806533199057,2.7069463652359285,-2.3480583197413534,-122.66060001927256,49.13941280029733,6.11062569758793,-0.2336,-0.8774,0.4158,0.0533
1875173.0,73.783361,1.0,2.77,5.49,-12.3,-20.0,-28.19,31.87,243.44,52.25,-201.13,0.14904035254872916,1.4052820817629321,-3.8720184017117756,-133.32867360141205,41.0847460230468,0.057295781900406746,-0.1838,-0.9182,0.3509,0.0005
1875208.0,73.832203,1.0,2.02,0.88,-8.47,-20.0,-28.19,31.87,277.63,52.13,-214.63,1.4516152022710072,-0.30254627280786706,1.1812816567148392,-142.20517991761645,34.63902408126335,-2.452446574526375,-0.1259,-0.9461,0.2977,-0.0214
1875245.0,73.849879,1.0,2.39,-5.67,-10.99,-18.06,-27.06,34.75,63.69,33.81,-94.31,4.20686760677407,-5.687369595247423,-0.6143476502314851,-149.72415559222358,28.375486985220764,-5.513981585080581,-0.0763,-0.9653,0.2451,-0.0481
1875279.0,73.89164,1.0,1.89,-0.59,-13.64,-15.06,-22.19,39.69,-11.81,-42.88,-15.0,1.4463512582605178,-1.9004120851237305,-3.7678224370578732,-150.79583135983617,27.466273808985672,-4.298191253728037,-0.0757,-0.9677,0.2374,-0.0375
1875314.0,73.912172,1.0,1.23,-5.5,-10.38,-15.06,-22.19,39.69,-14.44,-144.5,90.25,3.8571558643052946,-5.484035744167126,0.08271043852839277,-149.85607839466778,29.19178700040293,-1.3178319771025526,-0.063,-0.9656,0.252,-0.0115
1875349.0,73.967154,1.0,0.98,-2.05,-7.96,-14.0,-21.87,40.06,-165.13,-103.69,205.5,2.991260933567446,-2.2952669865593105,2.437212607110081,-141.29579335128196,36.72162758785172,3.954193464226631,-0.0967,-0.9435,0.315,0.0345
1875386.0,73.998862,1.0,1.27,4.45,-5.94,-11.69,-22.25,40.0,-328.13,-39.06,308.44,-0.72774026301673,2.4035993173918424,2.707910363204057,-130.3242488651211,45.16334612512468,7.201088530206642,-0.1584,-0.9075,0.384,0.0628
1875423.0,74.023835,1.0,0.27,7.92,-2.37,-15.5,-26.37,36.0,-197.31,72.12,239.31,-4.8757331634356325,3.068743191138674,3.871480133364841,-116.90353178561006,54.28434190943171,8.671395302011163,-0.2448,-0.8522,0.4562,0.0756
1875458.0,74.088186,1.0,1.65,8.06,-0.93,-15.5,-26.37,36.0,-63.31,226.25,178.56,-5.208915098514995,3.5876663442345476,4.463724425101048,-109.55133021451356,58.615446647778434,1.79916139442209,-0.3047,-0.8169,0.4895,0.0157
1875496.0,74.103146,1.0,6.14,6.44,-6.8,-22.19,-28.25,29.0,63.5,415.94,133.31,-0.8344673294651268,2.0819831348690365,-1.1652327236794804,-106.08848885002472,58.444682614751024,-9.119652615329128,-0.3417,-0.7991,0.4882,-0.0795
1875533.0,74.138482,1.0,7.3,3.78,-8.76,-32.69,-25.0,21.06,35.56,318.75,110.87,0.7058578075509878,-1.4640768550135614,-2.0960490098100415,-100.76167247514275,56.70567847737765,-22.2091125181558,-0.3795,-0.7703,0.4749,-0.1926
1875568.0,74.165853,1.0,8.16,10.83,-2.76,-32.69,-25.0,21.06,5.56,150.31,85.81,-6.117878685880477,4.504577265581604,-1.75935380612313,-96.76581595045094,56.99233821526014,-27.112514953816074,-0.3981,-0.7476,0.4771,-0.2344
1875601.0,74.206468,1.0,11.38,8.36,-7.42,-40.88,-20.5,11.69,188.38,192.88,-26.12,-3.3757920358724967,1.1521556761635678,-5.74092104593589,-97.47570497846188,52.11845382754711,-35.03535067049245,-0.389,-0.7517,0.4393,-0.301
1875638.0,74.250853,1.0,10.75,7.34,-8.86,-43.19,-15.38,7.25,199.06,89.87,-171.31,-2.9707034162164887,-0.6477684894438425,-5.643043110122392,-101.5375625187884,45.200580565791434,-38.707543665525726,-0.3775,-0.7746,0.3843,-0.3314
1875675.0,74.280746,1.0,7.65,1.47,-3.13,-41.38,-21.0,6.88,336.0,-84.25,-150.81,2.2343134568280156,0.9401352517386454,1.768970665448542,-113.08603923231148,35.55242705989692,-39.59538165871141,-0.3098,-0.8343,0.3053,-0.3387
1875709.0,74.328162,1.0,7.23,2.38,-5.32,-41.38,-21.0,6.88,209.56,-44.5,-117.56,0.862067679018315,0.4899808978191029,0.5732076280260241,-121.87727845049913,28.69473124115228,-38.97485427752673,-0.2513,-0.8741,0.2478,-0.3336
1875746.0,74.352315,1.0,7.48,0.96,-10.04,-37.88,-25.5,13.38,97.37,-69.56,-97.56,-0.18415376138536965,-2.991488597341691,-2.3872289301904352,-126.17530318519165,24.678540676695548,-38.16145144122449,-0.2286,-0.8917,0.2137,-0.3269
1875783.0,74.395892,1.0,6.74,0.71,-8.13,-34.88,-27.75,17.0,118.75,-117.56,-34.13,0.9591723267251604,-1.6124524823833328,-0.6100954341411526,-132.49673400768697,22.302542365509357,-34.27909787153104,-0.1949,-0.9153,0.1934,-0.2947
1875818.0,74.417578,1.0,6.04,1.17,-9.97,-34.88,-27.75,17.0,72.19,-114.37,-26.56,-0.17321801457270203,-1.640933664600567,-1.7920021728952698,-136.34269592729157,21.57884859507936,-31.507090202315183,-0.1719,-0.9283,0.1872,-0.2715
1875853.0,74.456803,1.0,4.91,0.44,-7.2,-31.87,-27.75,23.5,34.0,-151.94,-10.13,1.1823915331411072,-0.8369260176856927,1.201813853781001,-141.85294621850556,21.08910064572278,-26.299861682128068,-0.1469,-0.9451,0.183,-0.2275
1875888.0,74.501256,1.0,4.04,2.35,-8.05,-28.87,-26.25,28.06,21.44,-92.62,15.06,-0.27572977592609593,0.6612119893465696,0.5258433650241319,-144.1648201843402,21.590514086807826,-23.588755762396122,-0.1334,-0.9515,0.1873,-0.2044
1875924.0,74.525392,1.0,3.78,2.39,-8.36,-25.19,-24.75,31.0,12.0,-60.44,-2.5,-0.2592665343441649,0.8248592976224456,0.36512003906173085,-146.19464572787078,21.96393011530327,-21.05413366331596,-0.1218,-0.9568,0.1905,-0.1827
1875959.0,74.574429,1.0,3.01,1.2,-7.77,-25.19,-24.75,31.0,5.88,-39.0,-2.5,-0.054499049415332346,-0.18344645616389688,1.3902150509652422,-147.35703857325035,22.022297601396424,-19.540753773579446,-0.1169,-0.9597,0.191,-0.1697
1875996.0,74.612255,1.0,2.64,2.03,-7.54,-23.0,-25.06,32.5,-16.44,10.25,17.87,-0.6507539502304354,0.483764176083224,1.6039314556271655,-146.992038514199,22.47776386307514,-19.494244164289388,-0.1188,-0.9588,0.1949,-0.1693
1876033.0,74.645805,1.0,3.46,2.47,-9.45,-23.0,-24.75,32.06,-14.69,30.44,11.63,-0.7979931279130263,0.4360697940007996,-0.5155614928228296,-145.8027223342799,22.94528280418134,-20.343563363128435,-0.1251,-0.9558,0.1989,-0.1766
1876068.0,74.669709,1.0,3.65,2.17,-9.41,-23.0,-24.75,32.06,-0.81,2.0,1.63,-0.5203658758184209,0.2220486821618698,-0.5015706872977788,-145.64716796815563,22.98036223475966,-20.49492914898236,-0.126,-0.9554,0.1992,-0.1779
1876101.0,74.709044,1.0,3.61,2.04,-9.19,-24.06,-25.06,32.5,4.38,-1.69,4.56,-0.4339870097523846,0.1761892973789319,-0.2646166833350865,-145.60838601203167,23.132398374270103,-20.448351223683986,-0.1255,-0.9553,0.2005,-0.1775
1876137.0,74.737461,1.0,3.27,2.12,-8.48,-24.75,-25.5,31.25,-4.88,13.06,0.94,-0.5755199658401029,0.3177017600415655,0.497217022606268,-145.22287322309495,23.40148673707778,-20.56480245757989,-0.1274,-0.9543,0.2028,-0.1785
1876172.0,74.776826,1.0,3.5,2.48,-9.29,-24.75,-25.5,31.25,-14.06,20.06,1.19,-0.8579552298543056,0.3330672853245454,-0.38439896499924586,-144.5768347492103,23.41318918903326,-21.182355652510953,-0.1325,-0.9526,0.2029,-0.1838
