TIME,ELAPSED_SECONDS,PSTATE,acc_x,acc_y,acc_z,mag_x,mag_y,mag_z,gyr_x,gyr_y,gyr_z,lin_x,lin_y,lin_z,eul_x,eul_y,eul_z,qua_w,qua_x,qua_y,qua_z
2089775.0,288.757336,1.0,-4.04,2.26,-9.04,7.38,-23.06,40.38,0.0,-3.88,0.81,0.12806734587051527,0.4724075005494067,-0.33786723387300377,-133.3865649159552,36.21489761998581,28.22185710635222,-0.0222,-0.9184,0.3108,0.2438
2089809.0,288.782047,1.0,-4.2,1.86,-8.12,6.69,-23.5,38.69,-1.44,1.25,-0.37,-0.18112552437137275,-0.03746765016881845,0.4792822191299848,-133.35761077861147,36.226954064419544,28.245489095128868,-0.0218,-0.9183,0.3109,0.244
2089844.0,288.822363,1.0,-4.1,2.01,-8.58,6.69,-23.5,38.69,-9.06,5.0,2.88,0.0167336326133789,0.13579357044832255,0.08822522580102188,-133.41553604515124,36.226954064419544,28.139154785319608,-0.0247,-0.9185,0.3109,0.2431
2089879.0,288.867833,1.0,-4.17,1.94,-8.47,7.0,-24.19,39.5,-9.88,9.81,3.13,-0.043931962442621764,-0.030271657920065975,0.16867544050863792,-133.444524198005,36.226954064419544,28.021034543913196,-0.0276,-0.9186,0.3109,0.2421
2089916.0,288.905424,1.0,-3.84,1.68,-9.61,7.0,-24.19,39.0,-9.13,0.37,13.06,0.8626406495419663,-0.050495133537591275,-0.6419576273945182,-133.41553604515124,36.38372566673131,27.855717200127586,-0.0329,-0.9185,0.3122,0.2407
2089949.0,288.939874,1.0,-4.11,1.68,-8.73,7.0,-24.19,39.0,-0.81,-3.19,20.12,0.31015292754871093,-0.33011150518721616,0.022876108720826238,-132.86795984370113,36.87862290728264,27.997414145218112,-0.0346,-0.9166,0.3163,0.2419
2089984.0,288.968669,1.0,-4.09,2.19,-8.61,6.25,-24.19,38.69,-7.63,-2.06,25.94,0.01337796718423201,-0.003631577171200495,0.026255946504956995,-132.07176372350168,37.79789028318413,28.056467420340038,-0.0372,-0.9138,0.3239,0.2424
2090018.0,289.012444,1.0,-4.13,3.44,-8.01,5.5,-23.87,39.88,-1.88,3.31,11.38,-1.0044255080350246,0.8378578777459614,0.24946822002387492,-131.48269259246572,38.45258771550741,28.056467420340038,-0.0388,-0.9117,0.3293,0.2424
2090055.0,289.048028,1.0,-3.8,2.93,-8.53,5.5,-25.37,39.0,8.25,1.94,-2.81,-0.31437661429904273,0.70122621382227,0.04984472668279771,-131.6782993972313,38.51327351873995,27.70226118700864,-0.037,-0.9124,0.3298,0.2394
2090090.0,289.067196,1.0,-3.97,2.99,-8.4,5.5,-25.37,39.0,-1.88,-3.56,-7.5,-0.5157686909472066,0.6576231685046704,0.08232408887975673,-131.76235907719015,38.379779541740355,27.784885032921764,-0.0361,-0.9127,0.3287,0.2401
2090127.0,289.112334,1.0,-4.14,2.71,-8.01,5.5,-25.37,39.5,1.44,-0.94,-12.5,-0.6148880267453765,0.3058537755557736,0.41664647590356374,-131.9590360744759,38.015979325491685,27.950176987884003,-0.0372,-0.9134,0.3257,0.2415
2090162.0,289.146827,1.0,-3.91,1.92,-8.36,6.0,-24.19,39.06,13.81,11.38,-18.94,0.09577428481214656,-0.10041399354093411,0.38089568979914823,-132.49673400768697,37.57994324822506,27.666855466190324,-0.0349,-0.9153,0.3221,0.2391
2090194.0,289.199718,1.0,-4.1,1.95,-7.89,6.0,-24.19,39.06,12.19,12.06,-20.31,-0.37609012712741374,-0.15951104233208085,0.7128217388301543,-133.3865649159552,36.97527104810168,27.15966751179376,-0.0305,-0.9184,0.3171,0.2348
2090229.0,289.221844,1.0,-4.64,0.98,-5.93,5.56,-23.87,39.88,21.5,28.94,-17.62,-1.2697991262836652,-1.400150241633305,2.4525974111383038,-134.55901301769768,36.54056778374004,25.899921160166517,-0.0258,-0.9224,0.3135,0.2241
2090266.0,289.256295,1.0,-3.68,0.71,-2.06,6.0,-23.87,39.5,4.44,194.75,6.56,-2.3251880827685687,-1.507420233300187,6.549153320034195,-136.8073201749142,36.52850049317351,21.893896745024186,-0.0338,-0.9298,0.3134,0.1899
2090303.0,289.283168,1.0,0.09,-0.46,-3.15,6.0,-23.87,39.5,-39.88,400.38,52.69,0.975187164182379,-0.6503265157484068,6.845520921805591,-140.33889297208822,37.20491981438743,8.981712713320505,-0.0849,-0.9407,0.319,0.0783
2090338.0,289.31188,1.0,5.23,5.06,-6.84,2.25,-23.5,39.5,-184.5,511.38,88.56,1.4190103310667899,4.605917050225959,1.0594197065434745,-137.30822333899698,37.71311628724267,-3.1287382797377283,-0.165,-0.9314,0.3232,-0.0273
2090373.0,289.365401,1.0,7.59,7.12,-6.87,-13.19,-25.37,35.75,-79.87,569.13,49.5,-0.27921960391627776,4.145184517381237,-1.9508532098507967,-126.70941436503277,35.9015751355927,-22.045646214809633,-0.2637,-0.8938,0.3082,-0.1912
2090409.0,289.386862,1.0,9.54,1.79,-10.09,-29.25,-28.0,21.87,39.81,417.0,28.37,1.5094203535037867,-2.7744778259153247,-3.833281194472084,-119.01599598775483,32.436861947325646,-35.29980864400201,-0.2958,-0.8617,0.2793,-0.3032
2090444.0,289.426815,1.0,9.52,4.45,-7.04,-29.25,-28.0,21.87,-43.5,145.19,44.81,-0.6646425217938292,-0.1892567824774647,-2.8233512742877345,-112.15639729539849,31.364238746739595,-43.56694626623634,-0.3174,-0.8298,0.2703,-0.3711
2090479.0,289.472848,1.0,9.71,2.32,-4.81,-36.38,-26.5,11.38,11.31,127.5,43.88,1.2535636763639255,-0.2959263005268471,-1.1998755977514293,-109.11541872598389,31.173847836723343,-47.30643546064212,-0.321,-0.8147,0.2687,-0.4012
2090516.0,289.496858,1.0,10.65,4.97,-5.48,-37.88,-26.87,6.5,-26.87,97.37,22.19,-1.1858962854626673,0.39573074986617907,-3.10035767698448,-104.85830744622821,31.29283177814012,-51.125583264636,-0.336,-0.7926,0.2697,-0.4315
2090551.0,289.539447,1.0,11.49,4.05,-6.13,-37.88,-26.87,6.5,14.94,42.94,9.69,-0.801313509872446,-0.7971688611602581,-3.7845941838741286,-103.49686622301574,30.900315264438852,-52.91066611549383,-0.3374,-0.7853,0.2664,-0.4455
2090586.0,289.564956,1.0,11.54,4.56,-7.03,-39.25,-25.0,1.75,45.44,-68.94,-12.06,-1.5084509523320495,-0.8950766756521167,-4.346424346908238,-104.68932827217478,30.615082217040026,-52.463117579437494,-0.3289,-0.7917,0.264,-0.442
2090620.0,289.617743,1.0,11.37,3.38,-8.56,-39.25,-25.0,1.5,58.06,-223.88,-23.75,-0.2634884321829656,-1.3391738056280653,-4.75741836582503,-111.58357510903524,31.364238746739595,-46.18291852714496,-0.2986,-0.827,0.2703,-0.3922
2090657.0,289.678802,1.0,9.48,3.18,-8.34,-38.5,-25.0,8.69,70.69,-410.13,-18.87,0.6086752271792113,0.11504241171267937,-3.199297859011498,-120.17776326239712,33.15356371555689,-36.86654380200173,-0.2593,-0.8668,0.2853,-0.3162
2090692.0,289.701999,1.0,6.43,2.74,-6.31,-38.5,-25.0,8.69,64.69,-411.19,-17.69,1.4968718564838066,2.024269176350645,0.7330449310682798,-130.87269286132403,35.70889932534102,-22.68809999960854,-0.2003,-0.9095,0.3066,-0.1967
2090729.0,289.707085,1.0,2.69,1.71,-5.67,-33.69,-25.37,20.69,53.0,-301.31,-8.44,0.3001401549794094,0.6180075077778635,3.338490864071204,-135.8217429117077,36.98735398071332,-13.96890425008599,-0.1615,-0.9266,0.3172,-0.1216
2090766.0,289.749885,1.0,1.19,2.53,-6.51,-26.87,-23.5,31.69,7.44,-220.19,10.81,-0.6976038494388846,0.8616112358240513,2.8089307324421924,-138.1664535645985,38.52541202617238,-5.468092286497271,-0.1274,-0.9341,0.3299,-0.0477
2090801.0,289.784414,1.0,-0.4,2.39,-5.93,-26.87,-23.5,31.69,28.37,-150.81,-5.19,-1.454820417542543,0.31367008178915917,3.575910988254142,-138.74807199122864,39.14507588885785,-0.7677691897415189,-0.1087,-0.9359,0.335,-0.0067
2090835.0,289.82527,1.0,-0.28,1.24,-7.47,-17.87,-23.19,36.06,24.5,-58.5,-2.44,-0.2967134891655164,-0.39656416361059404,2.2454597517991894,-139.30467314730421,39.24238573337944,2.039837477354927,-0.0892,-0.9376,0.3358,0.0178
2090870.0,289.858819,1.0,-0.39,1.45,-7.29,-13.75,-22.75,39.0,5.75,-8.0,6.63,-0.4932812555719708,-0.19685727220793647,2.3825931025025,-139.14021367291954,39.49796452956165,2.544141615361497,-0.0846,-0.9371,0.3379,0.0222
2090907.0,289.886855,1.0,0.34,-0.55,-6.74,-12.69,-21.69,38.56,-2.38,92.81,29.62,1.1138395033052229,-1.2903711756164964,3.2537877406498987,-138.74807199122864,39.851243758997164,0.8365258107465946,-0.0894,-0.9359,0.3408,0.0073
2090942.0,289.934111,1.0,1.28,-3.71,-4.63,-12.69,-21.69,38.56,-58.69,174.38,107.62,3.546375162116111,-2.9413793172110805,5.855585469799459,-134.58869098980696,42.69210790112656,-4.412865642375664,-0.1221,-0.9225,0.364,-0.0385
2090979.0,289.975435,1.0,3.82,2.04,-5.25,-15.25,-21.25,37.75,-271.88,286.88,194.19,1.0678883262281127,1.6278133359443205,3.2854278548781553,-125.97311846044451,47.218879224143166,-9.579549083642284,-0.1975,-0.8909,0.4005,-0.0835
2091018.0,290.003474,1.0,5.29,3.82,-5.63,-24.69,-23.06,32.75,-76.62,344.31,176.31,-0.44343527419905415,1.6587606569113509,1.3612205709727814,-114.17471692174006,51.354338954685694,-19.95948754584176,-0.2781,-0.8395,0.4333,-0.1733
2091053.0,290.037881,1.0,8.65,2.25,-6.77,-24.69,-23.06,32.75,-103.75,309.63,190.38,1.4171087654682406,0.7320666984175992,-1.2917183979178244,-105.25385814101203,53.70561320811986,-28.517345406099263,-0.322,-0.7947,0.4517,-0.2463
2091087.0,290.066862,1.0,10.97,5.15,-7.48,-35.06,-22.06,20.06,-66.87,120.44,167.0,-1.8135332829522701,0.6748643714382356,-4.302547536068014,-95.1566161753118,57.71070049009757,-35.745018073663594,-0.3577,-0.7382,0.4826,-0.3069
2091122.0,290.117824,1.0,12.09,7.77,-5.96,-42.56,-16.06,9.0,-36.19,98.5,105.69,-4.845524293382308,2.0791549860105727,-4.830993555790981,-89.38473348979856,60.46365910623083,-39.44926711740337,-0.3714,-0.7033,0.5035,-0.3375
2091159.0,290.140896,1.0,13.06,5.75,-8.28,-44.5,-9.75,4.06,-8.81,61.63,-0.44,-3.1591161475596845,-0.5835186756640856,-6.375562182559557,-87.6407824219454,59.986768547514195,-41.40308164369669,-0.3816,-0.6924,0.4999,-0.3535
2091194.0,290.183195,1.0,11.23,4.04,-6.67,-44.5,-9.75,4.06,10.31,-33.38,-35.56,-1.5391339073556711,-0.1708442400477539,-3.777358210424145,-88.82192034919495,59.220841629210256,-40.58342649226998,-0.3819,-0.6998,0.4941,-0.3468
2091229.0,290.214747,1.0,10.04,6.13,-5.85,-45.0,-7.25,1.56,29.94,-84.12,-66.75,-3.4004675577489683,1.0113772129239689,-2.8430510447628716,-91.27000879817415,58.69430899208944,-38.56183024539064,-0.3737,-0.7149,0.4901,-0.3302
2091266.0,290.253376,1.0,10.32,5.96,-7.77,-45.0,-11.0,3.25,118.69,-144.25,-149.44,-2.4874769985020286,0.7884771111154096,-4.178615890470963,-98.29569898571506,55.48517197824964,-35.02333444123644,-0.3474,-0.7564,0.4655,-0.3009
2091302.0,290.308789,1.0,10.03,5.47,-8.26,-45.0,-11.0,3.25,143.94,-272.13,-162.63,-1.2028644265735622,1.8889322938638602,-4.112202393803239,-106.68140684210502,52.514222253767834,-30.080791981197944,-0.3056,-0.8022,0.4424,-0.2595
2091337.0,290.318824,1.0,7.28,4.62,-6.21,-43.06,-15.56,8.19,252.38,-282.63,-197.69,-0.1445800849156358,3.898933421681155,-0.07688756366330018,-120.77798064644898,47.38150698980534,-21.718849470413215,-0.2171,-0.8694,0.4018,-0.1884
2091372.0,290.36222,1.0,4.15,-2.08,-4.02,-37.75,-19.75,20.5,177.06,-234.56,-150.06,3.8053495126316137,-0.2909808436910495,4.99583455609455,-132.3546807037213,41.80760523510253,-15.112560354905924,-0.1361,-0.9148,0.3568,-0.1315
2091409.0,290.391958,1.0,1.56,-0.24,-5.53,-29.19,-20.87,31.19,39.75,-139.38,-67.25,0.7486825544341276,-0.7172830552641529,4.150053898870194,-136.49704595560382,39.81467938235784,-11.075320376717382,-0.1099,-0.9288,0.3405,-0.0965
2091444.0,290.460368,1.0,1.78,-0.02,-8.33,-29.19,-20.87,31.19,38.63,-83.87,-44.13,0.7587829566423984,-0.7147878167929744,1.3525961320811675,-139.5028685781741,38.17357699786608,-8.188805090876484,-0.0883,-0.9382,0.327,-0.0714
2091481.0,290.467382,1.0,1.53,-0.68,-8.7,-22.5,-22.25,35.25,27.06,-63.19,-30.62,1.0896797772967652,-1.1918499874890038,1.0954278360167553,-141.0200903214725,37.27747262341141,-6.672999532212699,-0.0758,-0.9427,0.3196,-0.0582
2091517.0,290.503289,1.0,1.09,-0.78,-7.65,-19.56,-20.75,36.0,3.0,-14.38,1.44,0.9842754335742983,-1.189964100015523,2.1951989352202776,-141.78287468010964,36.90278239165085,-5.4336758888612415,-0.0684,-0.9449,0.3165,-0.0474
2091554.0,290.528827,1.0,1.48,-0.27,-8.31,-19.56,-20.75,36.0,-11.31,21.75,17.44,0.93706208565499,-0.7091911649174585,1.4437340887145726,-141.29579335128196,37.28956626386321,-5.674601147870104,-0.0712,-0.9435,0.3197,-0.0495
2091587.0,290.57017,1.0,2.79,-2.38,-11.22,-18.37,-20.0,36.88,-8.94,-6.81,44.75,3.0051625628042022,-2.108540346792863,-1.412082351610266,-140.0359922172176,38.41618161401926,-6.512305468988995,-0.0736,-0.9398,0.329,-0.0568
2091624.0,290.656969,1.0,2.26,-2.31,-12.24,-18.75,-19.87,37.25,-47.25,-79.31,83.5,3.1564487433640274,-2.232760374543033,-2.247930558459352,-137.088392741319,41.7585431287547,-3.701951248377608,-0.0765,-0.9307,0.3564,-0.0323
2091661.0,290.668937,1.0,3.49,-1.56,-11.8,-19.5,-19.19,38.06,-94.37,-125.0,163.81,4.2615450944845,-0.3748559977945465,-1.8360479858017715,-132.75344370342964,46.158005222618215,-0.25210163321982526,-0.0833,-0.9162,0.392,-0.0022
2091696.0,290.690879,1.0,3.11,1.71,-11.84,-19.5,-19.19,38.06,-129.56,-187.69,202.44,2.791222752436779,2.1441346151057257,-2.0421289370291102,-123.86648635871317,54.245713551086965,7.143680335170353,-0.0974,-0.8824,0.4559,0.0623
2091730.0,290.714897,1.0,0.0,6.66,-6.17,-17.69,-19.87,37.75,-84.81,-176.44,160.0,-3.7024119453339766,2.866172000942597,2.028365880217472,-117.32089688772969,59.69589905850732,12.999629346780692,-0.1002,-0.8541,0.4977,0.1132
2091769.0,290.754226,1.0,-0.88,9.15,-5.1,-14.25,-20.25,38.56,-7.69,-95.5,56.63,-6.2997822416195515,3.111759485722099,1.9876605121445872,-112.21802358107666,63.72735158205304,17.578451378167774,-0.0946,-0.8301,0.5279,0.1528
2091804.0,290.794462,1.0,-0.74,6.18,-7.29,-14.25,-20.25,38.56,32.81,-41.19,7.31,-3.0049070568223564,2.1520431725212354,0.9622538214322454,-111.3393661020306,64.62001799600061,18.42540124877966,-0.0821,-0.8258,0.5345,0.1601
2091839.0,290.821142,1.0,-1.25,4.32,-7.59,-12.38,-21.37,38.88,5.31,-9.69,-4.63,-1.5395936804878196,1.084251206193223,1.1876564032469243,-111.19726220866139,64.79636344196815,18.86667840059343,-0.0725,-0.8251,0.5358,0.1639
2091874.0,290.870741,1.0,-1.61,4.07,-7.24,-11.25,-19.56,40.19,-11.88,-6.38,-4.31,-1.5358089826600683,0.6480489815658002,1.5123192080510712,-111.0756633938936,64.80993560444891,19.192010366536692,-0.0731,-0.8245,0.5359,0.1667
2091911.0,290.929827,1.0,-1.18,3.08,-8.72,-10.88,-19.25,39.75,12.31,25.56,-15.19,-0.051761840425550654,0.6631124856352887,0.5074671034617033,-111.42068428698192,64.57934727558172,18.72729753587516,-0.0743,-0.8262,0.5342,0.1627
2091945.0,290.942823,1.0,-1.41,2.83,-9.73,-10.88,-19.25,39.75,7.31,5.13,-10.31,0.3590952512974174,0.3950220894131361,-0.410243272877592,-111.97181334084304,64.17313980035841,18.3441436046709,-0.0732,-0.8289,0.5312,0.1594
2091980.0,290.98026,1.0,-1.73,3.44,-8.83,-11.69,-21.19,39.69,-13.63,-0.31,-9.69,-0.5493766642508108,0.3311864181113451,0.19499557231507403,-112.15639729539849,63.8758274546073,18.56472183693924,-0.0745,-0.8298,0.529,0.1613
