TIME,ELAPSED_SECONDS,PSTATE,acc_x,acc_y,acc_z,mag_x,mag_y,mag_z,gyr_x,gyr_y,gyr_z,lin_x,lin_y,lin_z,eul_x,eul_y,eul_z,qua_w,qua_x,qua_y,qua_z
2006288.0,205.121898,1.0,0.67,7.19,-7.06,-20.75,-34.69,21.37,-2.63,-4.5,-5.81,-0.5813160402085318,-0.31088439085918573,-0.27075157763480107,-107.39452579488423,54.387383527876935,14.315313760812993,-0.3551,-0.8059,0.457,0.1246
2006323.0,205.166824,1.0,0.68,6.67,-6.8,-20.5,-35.5,21.37,0.81,-2.75,-0.81,-0.3758726829566349,-0.3292281088609996,0.27031797041217054,-107.58829882460174,54.245713551086965,14.338412369029564,-0.3542,-0.8069,0.4559,0.1248
2006360.0,205.194964,1.0,0.83,7.15,-7.03,-20.5,-34.69,21.37,1.81,7.06,-1.37,-0.4941330724032884,-0.1614757811452896,-0.2413377626747124,-107.62710715031899,54.21996501757772,14.2344732300193,-0.3545,-0.8071,0.4557,0.1239
2006392.0,205.2298,1.0,1.05,6.78,-7.68,-20.5,-34.69,21.37,4.44,2.25,-6.06,0.19705506087585656,-0.40462241944520183,-0.48172936706581027,-107.80196748253583,54.02694525714765,14.107452479907948,-0.3546,-0.808,0.4542,0.1228
2006429.0,205.270851,1.0,0.73,7.07,-7.13,-20.5,-34.38,21.75,-0.37,-1.5,-2.06,-0.4303736070249342,-0.28432992185807016,-0.24763441282185816,-107.84087503637959,54.00122182339204,14.32686299177392,-0.3538,-0.8082,0.454,0.1247
2006466.0,205.303504,1.0,0.89,6.53,-7.03,-19.69,-34.38,22.19,5.63,-0.44,-5.5,-0.04751841044638072,-0.2643840163304344,0.1743219796002773,-107.99668693087186,53.89835748467391,14.349961892702815,-0.3528,-0.809,0.4532,0.1249
2006499.0,205.346169,1.0,0.67,7.15,-7.04,-19.69,-34.38,22.19,-4.06,1.06,-2.06,-0.5449134006701843,-0.23436224093602476,-0.2323312095547596,-107.99668693087186,53.84694292088121,14.45391421483677,-0.3531,-0.809,0.4528,0.1258
2006534.0,205.372252,1.0,0.8,6.42,-7.44,-19.69,-35.06,21.37,8.13,0.37,0.31,0.18694750793394221,-0.5409562147446116,-0.03623661943266221,-108.15279095507611,53.80838968539715,14.38461134345722,-0.352,-0.8098,0.4525,0.1252
2006571.0,205.413481,1.0,0.63,6.79,-7.01,-19.25,-34.38,22.56,6.38,0.81,-1.37,-0.3795865972893815,-0.34428822999823916,0.04045935933345035,-108.13326191007236,53.89835748467391,14.407711711634986,-0.3511,-0.8097,0.4532,0.1254
2006605.0,205.437314,1.0,0.69,6.41,-6.73,-19.25,-34.38,22.56,7.06,4.06,-3.0,-0.27399376486176186,-0.2816984108532471,0.4952229653216076,-108.36791454974384,53.79554006963272,14.25756979612918,-0.35,-0.8109,0.4524,0.1241
2006640.0,205.477754,1.0,0.8,7.1,-7.24,-20.5,-35.06,21.75,-2.88,8.13,5.0,-0.42084915410148516,-0.22304195706713603,-0.35409496653073624,-108.3091890496438,53.82124003233572,14.01508470303339,-0.351,-0.8106,0.4526,0.122
2006675.0,205.54156,1.0,0.85,6.42,-7.14,-20.75,-35.06,22.56,2.31,3.94,4.5,-0.028499503652391178,-0.39370404741936005,0.1753113131228119,-108.25050517877196,53.89835748467391,13.830376539145913,-0.3514,-0.8103,0.4532,0.1204
2006710.0,205.544554,1.0,0.68,7.32,-6.86,-20.5,-34.69,23.0,-7.81,-4.31,4.88,-0.8261166821814948,-0.15544970110159928,-0.21321859284336497,-107.76307803686579,54.20709186156805,13.93427040697098,-0.3538,-0.8078,0.4556,0.1213
2006745.0,205.586913,1.0,0.75,6.97,-7.35,-20.5,-34.69,23.0,6.0,2.75,-4.38,-0.3240411358257973,-0.4188471942750709,-0.3365972300610238,-107.95770664544783,54.117000476338426,13.86500655480513,-0.3527,-0.8088,0.4549,0.1207
2006781.0,205.618824,1.0,0.87,7.4,-7.43,-20.75,-35.06,22.19,8.19,-8.0,-8.25,-0.5071651835323148,-0.15727632416400794,-0.7023864750756363,-108.2309531214748,54.00122182339204,13.911181889055525,-0.3505,-0.8102,0.454,0.1211
2006816.0,205.64786,1.0,0.85,7.66,-7.39,-20.5,-35.06,22.19,8.56,-14.38,-13.0,-0.688330764368001,0.07767441669788677,-0.8484129957694382,-108.70148376565115,53.82124003233572,14.338412369029564,-0.3455,-0.8126,0.4526,0.1248
2006851.0,205.694786,1.0,0.41,8.21,-6.9,-20.5,-35.06,22.19,13.13,-12.13,-26.62,-1.5070919305373451,0.28151958034423874,-0.8155729612634328,-109.29346359122702,53.42321798982236,14.777398324484167,-0.3409,-0.8156,0.4495,0.1286
2006886.0,205.733209,1.0,0.07,9.11,-6.94,-19.69,-35.5,22.56,29.25,-7.75,-48.75,-2.253888816932628,0.7027954201166406,-1.3998955782934832,-111.2987386824523,52.04193081398262,15.112560354905924,-0.3297,-0.8256,0.4387,0.1315
2006923.0,205.759826,1.0,-0.06,7.52,-6.55,-17.75,-35.5,23.5,71.12,-6.94,-81.25,-1.5920525559636602,0.5848079482773441,-0.020855701991791875,-114.15363047105913,50.27600944578726,15.135679738336451,-0.3126,-0.8394,0.4248,0.1317
2006958.0,205.809319,1.0,-0.17,8.15,-6.63,-15.19,-35.5,24.56,23.31,1.75,-85.25,-1.942829051537096,1.2837257832210707,-0.43960606697377536,-117.69645604638976,47.26890777482772,15.424724640986323,-0.298,-0.8558,0.4009,0.1342
2006992.0,205.823141,1.0,-0.33,8.59,-6.91,-15.19,-35.5,24.56,35.69,11.44,-119.25,-2.030696665231698,1.709554586412839,-0.8984326325578493,-120.68528037991203,44.39495201253493,15.748572284340511,-0.2888,-0.869,0.3778,0.137
2007029.0,205.872773,1.0,-0.18,4.3,-6.98,-13.25,-35.56,26.69,48.81,30.94,-123.06,0.4930730115318004,-0.12854510788804957,1.622326255148689,-126.2513038466384,39.65628250180669,15.274409087771584,-0.2675,-0.892,0.3392,0.1329
2007066.0,205.901851,1.0,-1.28,4.65,-3.9,-9.56,-36.0,26.69,33.56,80.12,-102.06,-1.792477233618146,0.7667473182011835,3.918524329042227,-129.78141812262746,36.1305141127441,14.269118297459285,-0.2619,-0.9055,0.3101,0.1242
2007099.0,205.934282,1.0,-0.11,1.89,-4.63,-9.56,-36.0,26.69,31.44,181.44,-63.31,0.37876409379819165,-0.7377755775778234,4.873767986574285,-134.49971207203987,31.75720133787431,9.188627520029689,-0.2611,-0.9222,0.2736,0.0801
2007136.0,205.980478,1.0,1.17,2.34,-9.76,-7.25,-36.25,28.0,-37.19,72.75,-18.87,2.287629004500247,-2.4475940072190907,0.2736474764718366,-135.5180089054747,29.487919662093987,5.984399237389445,-0.2753,-0.9256,0.2545,0.0522
2007173.0,206.007018,1.0,1.11,3.55,-7.49,-9.25,-36.25,27.37,-5.0,111.69,3.31,0.9006079459691068,-0.7811018220064199,1.5293626864343075,-135.57859793518082,28.41094741939909,3.5299782811888885,-0.2856,-0.9258,0.2454,0.0308
2007207.0,206.07271,1.0,1.63,3.03,-7.25,-9.25,-36.25,27.37,-9.56,127.37,18.37,1.1462703669771401,-1.0798698875113995,1.93770818601788,-135.30656135192416,27.714063693203617,0.14896906869365514,-0.2954,-0.9249,0.2395,0.0013
2007242.0,206.080659,1.0,3.12,3.42,-10.41,-10.38,-37.06,26.56,-47.88,82.44,43.0,2.112697936650311,-2.5059935517634546,-1.1046012457093362,-133.444524198005,27.525259478424015,-3.805139007503523,-0.3137,-0.9186,0.2379,-0.0332
2007277.0,206.113569,1.0,3.07,3.85,-8.37,-13.75,-36.75,23.69,-49.44,50.19,57.75,1.3789587746088938,-1.4761183878321593,0.30802656273115936,-130.4881841928668,28.80119643531427,-6.064724315991071,-0.3326,-0.9081,0.2487,-0.0529
2007314.0,206.152761,1.0,3.44,5.03,-7.28,-17.56,-37.88,22.0,-39.69,79.37,79.06,0.6884655667403332,-0.22603899705725303,0.3405092058208723,-127.89708982203929,30.151991743632966,-8.372631359788455,-0.3461,-0.8984,0.2601,-0.073
2007347.0,206.188794,1.0,4.11,4.62,-7.95,-17.56,-37.88,22.0,-62.31,108.37,85.62,0.8808861825328946,-1.3299765508682584,-0.13790639571535657,-123.502242338284,31.92402832569447,-12.446181578242713,-0.3696,-0.8809,0.275,-0.1084
2007384.0,206.225667,1.0,5.34,4.31,-8.97,-21.25,-36.75,20.0,-57.25,42.88,84.62,1.7405040363255402,-2.19445272452249,-1.1344478854669955,-120.20074735368749,33.6081640231361,-14.4770163518288,-0.386,-0.8669,0.2891,-0.126
2007420.0,206.247261,1.0,5.7,5.17,-8.41,-26.06,-36.06,15.88,-76.44,-1.0,119.62,1.1685682853331203,-1.5910047579157554,-1.4205558867201233,-115.40818530642285,37.616257937648726,-15.667598608855753,-0.4038,-0.8453,0.3224,-0.1363
2007455.0,206.297811,1.0,6.06,7.52,-8.14,-26.06,-36.06,15.88,-50.81,-17.87,103.94,-0.43049906232141044,-0.4011910249525015,-2.810295601802286,-112.17693391272267,40.962397583514125,-16.03782888845279,-0.4116,-0.8299,0.3499,-0.1395
2007490.0,206.330034,1.0,6.15,8.27,-9.33,-28.69,-33.75,13.0,-62.81,-38.5,70.37,-0.9861454870016191,-1.307670313136712,-3.9984872840188466,-108.6425203865957,44.6673653156106,-15.656031584502133,-0.4211,-0.8123,0.38,-0.1362
2007527.0,206.362194,1.0,5.55,8.49,-7.51,-31.69,-32.25,11.38,-47.56,-76.69,64.06,-1.7383301186362723,-0.11876246553913716,-2.6932221543630632,-106.22201600575642,48.34685890896744,-13.78420515869276,-0.4221,-0.7998,0.4095,-0.12
2007564.0,206.40325,1.0,4.66,10.96,-7.18,-33.19,-29.37,12.69,-35.63,-100.5,36.0,-4.160757818914911,0.40396237232415166,-3.456626698240326,-104.74561874233257,51.16369401723819,-11.674144907935558,-0.4195,-0.792,0.4318,-0.1017
2007599.0,206.447573,1.0,3.23,9.37,-4.19,-33.19,-29.37,12.69,-10.69,-101.44,-13.88,-4.195830515464535,1.624939122373763,0.03216898390120093,-104.98995994505609,52.85947382737936,-8.188805090876484,-0.4092,-0.7933,0.4451,-0.0714
2007635.0,206.485428,1.0,2.7,8.51,-4.11,-32.88,-28.56,13.5,7.44,-44.31,-43.25,-3.6638582805669717,1.3095733631065434,0.7809444815065749,-105.82205287348602,52.69317728708804,-6.271288310584378,-0.4047,-0.7977,0.4438,-0.0547
2007672.0,206.513443,1.0,2.87,7.7,-4.21,-30.69,-29.06,15.5,10.38,-17.12,-49.75,-2.721645596899835,1.408079589411433,1.0968304200799501,-107.56890139317554,51.51968798135092,-4.906017344265485,-0.3979,-0.8068,0.4346,-0.0428
2007705.0,206.548501,1.0,2.95,6.04,-4.97,-30.69,-29.06,15.5,22.87,8.56,-56.19,-1.1220067713379511,0.5712026815567179,1.5422789833010153,-109.07590597018144,50.04827088645171,-4.504608331312204,-0.395,-0.8145,0.423,-0.0393
2007740.0,206.576979,1.0,2.93,4.6,-5.09,-29.56,-31.25,16.75,28.87,24.37,-49.38,0.005313314971744587,0.10941787523628774,2.3473605232962855,-111.2987386824523,47.85746338279603,-4.607822312445006,-0.3903,-0.8256,0.4056,-0.0402
2007775.0,206.619024,1.0,4.1,3.92,-8.15,-27.69,-32.69,15.88,23.44,34.88,-39.31,1.9866731705629288,-1.5268436478438168,0.19827978500492982,-112.69214234363413,46.09573205363145,-5.307486603594609,-0.3895,-0.8324,0.3915,-0.0463
2007812.0,206.654242,1.0,4.04,3.26,-8.27,-27.0,-33.38,17.56,-0.19,5.38,-15.75,2.444183770585132,-1.9404060638973475,0.5544670141961276,-113.5447060570436,44.940044922743645,-5.4336758888612415,-0.3897,-0.8365,0.3822,-0.0474
2007846.0,206.687016,1.0,3.87,2.88,-7.89,-27.0,-33.38,17.56,-1.31,-3.69,5.06,2.5038016391915066,-1.9322054606076293,1.116370406708425,-113.46110408162377,45.03926762413593,-5.387788121139308,-0.3899,-0.8361,0.383,-0.047
2007883.0,206.756802,1.0,4.53,3.74,-9.31,-26.25,-33.5,16.75,-27.56,-9.38,33.75,2.7038832122686207,-2.2187131569299896,-0.63130609789952,-112.50626800349723,45.821900740364754,-5.376316314590642,-0.3935,-0.8315,0.3893,-0.0469
2007920.0,206.759762,1.0,4.62,4.59,-8.99,-27.25,-33.38,17.19,-26.5,-40.31,46.81,2.177932614861636,-1.5587907556537597,-0.9664359508875346,-110.63139954579823,48.02049166769566,-4.49314033842009,-0.3958,-0.8223,0.4069,-0.0392
2007955.0,206.791733,1.0,3.9,6.56,-6.89,-27.25,-33.38,17.19,-23.81,-62.63,56.0,-0.2294062642336463,0.17712370015484746,-0.47107834632117473,-109.13518228345343,50.23803829703601,-3.369477361207863,-0.3937,-0.8148,0.4245,-0.0294
2007988.0,206.822084,1.0,3.55,8.19,-6.37,-28.06,-32.38,16.75,-19.87,-63.13,48.38,-1.7991566622529098,0.8518736007608105,-0.977266110254094,-107.23982794355227,53.064311346688015,-1.7877008349543104,-0.39,-0.8051,0.4467,-0.0156
2008025.0,206.866185,1.0,2.98,8.95,-5.8,-28.5,-31.25,18.37,-19.0,-53.56,28.56,-2.8918018496974613,1.0748258115018174,-0.828439634648868,-106.26020470831196,54.69679474885505,-0.6417160846123932,-0.3858,-0.8,0.4594,-0.0056
2008061.0,206.896858,1.0,2.68,9.82,-5.7,-29.19,-30.87,19.56,11.5,-35.94,-4.63,-3.6925565035017813,1.245661642028795,-1.189629077125355,-105.72709561294404,55.84800465854667,0.6990128451499703,-0.381,-0.7972,0.4683,0.0061
2008096.0,206.936852,1.0,1.87,9.41,-4.93,-29.19,-30.87,19.56,41.06,-25.62,-39.56,-4.103913388205097,1.2616872628297957,-0.08859836236685936,-106.87355122081517,55.498119861295145,1.3178319771025526,-0.3713,-0.8032,0.4656,0.0115
2008133.0,206.973846,1.0,1.71,5.15,-3.76,-28.5,-30.06,20.0,41.81,18.12,-33.0,-1.5262230374259131,0.8455349388738226,3.4395538088643516,-109.57120014176904,54.00122182339204,0.8823637238721431,-0.3555,-0.817,0.454,0.0077
2008168.0,207.004779,1.0,1.75,4.66,-3.99,-25.75,-31.0,20.87,7.06,73.31,-7.88,-1.0978849086577016,0.5115928026269967,3.5431748039413504,-110.1295559906411,52.885068549726356,-0.3552344019497601,-0.36,-0.8198,0.4453,-0.0031
2008203.0,207.052003,1.0,2.11,2.75,-3.3,-25.75,-31.0,20.87,-47.75,154.25,34.56,0.186992503562726,0.1788858937571397,5.027776320917651,-109.01667267342908,51.57058775662223,-4.137654318321577,-0.3828,-0.8142,0.435,-0.0361
2008238.0,207.096386,1.0,4.62,4.04,-9.24,-27.69,-32.25,20.0,-37.75,143.5,50.81,2.0350502891716116,-2.7334679144355625,-0.7494062465957843,-105.93613916476912,50.668725019229704,-8.717364176475897,-0.417,-0.7983,0.4279,-0.076
2008274.0,207.12132,1.0,4.09,4.96,-4.22,-30.25,-30.5,15.19,-63.75,39.06,61.25,-0.25600897748093576,0.5417215335669403,2.1398972856156977,-103.38588087785587,51.69788502797173,-9.76355056625781,-0.4323,-0.7847,0.436,-0.0851
2008311.0,207.15887,1.0,5.23,5.96,-5.32,-30.25,-30.5,15.19,-44.63,93.44,62.63,-0.31220489186210587,-0.038707015160935276,0.2631742247661837,-99.84957636364356,52.47589269472505,-12.538402281482076,-0.4551,-0.7652,0.4421,-0.1092
2008344.0,207.194711,1.0,6.91,6.58,-6.07,-33.69,-29.75,12.69,-24.37,142.06,58.13,0.04231375385911518,-0.29095134049842286,-1.4983469864523418,-97.42359233173359,52.08018919976155,-15.875832638109523,-0.4728,-0.7514,0.439,-0.1381
2008381.0,207.220977,1.0,9.63,8.35,-11.22,-35.56,-27.56,9.38,-20.31,84.12,38.25,0.6272845075597129,-4.273528930036045,-6.615629519930254,-94.3106729905219,51.17639894970855,-20.168955080859906,-0.4951,-0.7332,0.4319,-0.1751
2008418.0,207.257914,1.0,8.07,8.15,-6.33,-36.25,-26.06,4.5,-8.44,-25.62,12.0,-1.0006821111742665,-0.8101490347389414,-3.230166860487355,-93.63873819335463,51.76155935207183,-20.285355318851703,-0.4967,-0.7292,0.4365,-0.1761
2008451.0,207.303431,1.0,6.97,7.17,-5.8,-36.25,-26.06,4.5,-8.56,1.63,0.5,-0.8976586744142407,-0.9203644424107096,-1.6814716131008538,-93.62199370524858,52.11845382754711,-19.92458285893286,-0.4955,-0.7291,0.4393,-0.173
2008487.0,207.325941,1.0,6.51,6.1,-6.1,-38.19,-26.0,3.56,2.88,1.37,-4.38,-0.21536213004780613,-1.5365749237914217,-0.888800278343437,-93.62199370524858,52.067435711307084,-19.889680039418103,-0.496,-0.7291,0.4389,-0.1727
2008522.0,207.369793,1.0,5.8,5.63,-4.47,-37.75,-26.0,3.56,5.69,-20.19,-4.56,-0.4945713851160187,-0.44625076995618557,0.5939381627971247,-93.8063267588112,52.18224209821447,-19.494244164289388,-0.4948,-0.7302,0.4398,-0.1693
2008557.0,207.426905,1.0,5.38,5.83,-3.46,-37.75,-26.0,3.56,4.38,-11.5,-2.5,-1.0718656027826081,0.3298379544899222,1.2248546719028912,-94.07501482571973,52.360941896715254,-19.157145947707967,-0.4921,-0.7318,0.4412,-0.1664
2008592.0,207.469788,1.0,5.3,5.34,-3.5,-37.5,-26.0,4.38,-0.5,5.19,0.56,-0.7132172659641478,0.21535875560471612,1.5422358200405402,-94.26013087807388,52.271574905386615,-19.180388694494322,-0.491,-0.7329,0.4405,-0.1666
2008627.0,207.47278,1.0,5.98,5.27,-4.38,-37.5,-26.0,3.56,9.38,7.44,4.81,-0.14497881402391632,-0.25427152187655533,0.7164339884496247,-94.2264494742641,52.18224209821447,-19.505871262305693,-0.491,-0.7327,0.4398,-0.1694
2008664.0,207.494492,1.0,6.21,6.71,-4.34,-37.5,-25.56,5.19,3.31,6.25,3.69,-1.2355401123969236,0.05174190102825543,-0.23797858478780043,-93.9237947609836,52.47589269472505,-19.63378275290543,-0.4912,-0.7309,0.4421,-0.1705
2008696.0,207.558829,1.0,6.84,6.33,-5.45,-37.5,-25.56,5.19,4.31,5.94,-6.88,-0.38192850788687993,-0.6589267599575604,-0.9626093125003319,-94.12546914110418,52.22052340718582,-19.81987998842397,-0.4907,-0.7321,0.4401,-0.1721
2008733.0,207.578658,1.0,6.97,6.15,-5.97,-38.19,-26.0,3.88,1.94,-6.44,-4.31,-0.053579623660395814,-1.0542802379597098,-1.1901641933823743,-94.32752570299763,52.04193081398262,-19.784982749875187,-0.4902,-0.7333,0.4387,-0.1718
2008768.0,207.620745,1.0,6.42,6.28,-4.9,-36.69,-26.37,4.38,-3.5,-17.31,-5.81,-0.6217401183303939,-0.2905207571791703,-0.400888239698471,-94.59753382343494,52.14396705080251,-19.377984308584086,-0.4883,-0.7349,0.4395,-0.1683
2008803.0,207.638797,1.0,6.4,5.9,-5.24,-36.69,-26.37,4.38,-2.5,-8.88,-10.75,-0.19417983549738516,-0.5784316712621149,-0.33511074422815135,-94.93601676687223,52.054682916137764,-18.88991127772655,-0.4874,-0.7369,0.4388,-0.1641
2008838.0,207.68113,1.0,6.32,5.84,-5.6,-37.06,-26.0,4.75,5.31,-10.25,-11.81,-0.044916704740526114,-0.8581227423914319,-0.42416657780188594,-95.34364080956617,51.91444784867411,-18.35575126897081,-0.4863,-0.7393,0.4377,-0.1595
