TIME,ELAPSED_SECONDS,PSTATE,acc_x,acc_y,acc_z,mag_x,mag_y,mag_z,gyr_x,gyr_y,gyr_z,lin_x,lin_y,lin_z,eul_x,eul_y,eul_z,qua_w,qua_x,qua_y,qua_z
1821440.0,19.958235,1.0,6.53,5.88,-4.44,-31.37,-36.56,0.5,2.5,0.81,0.0,0.023857632554018515,0.30794026635369,-0.03375159778689785,-112.71282300150172,24.702001461626935,-33.309024075692264,-0.423,-0.8325,0.2139,-0.2866
1821474.0,19.983315,1.0,6.47,5.76,-4.76,-31.37,-36.56,0.5,2.75,0.31,-2.25,-0.04328931394448787,-0.02674661303172632,-0.07735276477043307,-112.77489865498625,24.631622257728544,-33.344908493651104,-0.4227,-0.8328,0.2133,-0.2869
1821507.0,20.018223,1.0,6.25,5.52,-4.67,-30.19,-37.0,1.69,1.06,0.75,1.69,-0.03716856381783584,-0.0956126384474324,0.24991014159468428,-112.85774497558256,24.596436196111345,-33.356870714029654,-0.4219,-0.8332,0.213,-0.287
1821542.0,20.051136,1.0,6.36,5.71,-4.68,-30.56,-35.88,0.88,0.56,2.0,1.69,-0.08381597278219344,0.012698659016879943,0.0624766832549728,-112.77489865498625,24.725463298356363,-33.368833308546726,-0.4221,-0.8328,0.2141,-0.2871
1821577.0,20.10287,1.0,6.43,5.7,-4.79,-31.0,-37.0,2.5,2.19,0.31,1.25,-0.06995985561575191,-0.06487989743171008,-0.030519116036966665,-112.79560178360884,24.737194611496925,-33.42865189900328,-0.4214,-0.8329,0.2142,-0.2876
1821612.0,20.128796,1.0,6.38,5.76,-4.74,-31.0,-37.0,2.5,-1.5,0.31,2.63,-0.137769770931488,0.008732052450385885,-0.008162440463522103,-112.77489865498625,24.807588026066753,-33.452581959950805,-0.4212,-0.8328,0.2148,-0.2878
1821646.0,20.169001,1.0,6.35,5.7,-4.76,-31.0,-36.56,1.25,1.94,-0.56,1.44,-0.1353350204479007,-0.03530957121859368,0.03677089806528144,-112.77489865498625,24.889725700371912,-33.44061674182814,-0.4209,-0.8328,0.2155,-0.2877
1821683.0,20.212055,1.0,6.27,5.69,-4.6,-31.37,-36.56,1.25,-1.94,0.19,2.25,-0.14675790770620578,0.08470282599987489,0.17232140129664408,-112.73350926918677,25.007087789331905,-33.41668743131049,-0.421,-0.8326,0.2165,-0.2875
1821716.0,20.22733,1.0,6.39,5.72,-4.69,-31.37,-36.56,1.25,0.75,0.88,2.25,-0.11559192408418717,0.04125371624054608,0.03262643557255984,-112.69214234363413,25.054040082214634,-33.476513522752754,-0.4209,-0.8324,0.2169,-0.288
1821753.0,20.261247,1.0,6.47,5.88,-4.99,-31.37,-36.56,1.69,-1.81,0.88,0.69,-0.25008149224768816,-0.11267595917484541,-0.2561609082631193,-112.60947570576612,25.124476539770274,-33.48847986776374,-0.4211,-0.832,0.2175,-0.2881
1821788.0,20.299803,1.0,6.35,5.79,-4.6,-31.0,-36.56,1.69,1.37,0.56,1.12,-0.16372481658987414,0.14906630802841858,0.06203233586132839,-112.65079783642123,25.136216886638973,-33.452581959950805,-0.4211,-0.8322,0.2176,-0.2878
1821822.0,20.340984,1.0,6.64,5.9,-5.2,-31.0,-36.56,1.69,2.81,-3.63,1.25,-0.19505153393871622,-0.23879265932035043,-0.4814272239016031,-112.69214234363413,25.171439536835727,-33.44061674182814,-0.4206,-0.8324,0.2179,-0.2877
1821857.0,20.362925,1.0,10.15,6.95,-12.16,-31.37,-36.56,1.25,33.75,-167.13,-15.81,0.8150210289607074,-3.812722604321429,-7.045337629500805,-116.40158899740273,26.80613693045263,-28.76570522000204,-0.4029,-0.8499,0.2318,-0.2484
1821892.0,20.420723,1.0,10.02,8.46,-10.64,-30.56,-37.0,2.5,105.87,-565.19,-42.75,2.6642691869167976,1.4262441725195187,-6.808075314009853,-124.60157138168795,31.007328165964708,-16.327188391573927,-0.3529,-0.8854,0.2673,-0.142
1821931.0,20.443233,1.0,1.07,3.32,-0.21,-26.06,-36.56,14.75,271.69,-335.94,-92.25,-0.8607531526877552,2.847411966255274,7.972869995592612,-135.7912803367973,33.33294664724561,-1.1230152546764245,-0.2436,-0.9265,0.2868,-0.0098
1821966.0,20.481693,1.0,0.3,0.57,-7.21,-26.06,-36.56,14.75,60.13,-183.63,-21.75,1.3689859897186851,-1.7565838323243415,2.9190313549260223,-139.0746070515941,33.763809904650955,5.341901218009245,-0.189,-0.9369,0.2904,0.0466
1822003.0,20.510938,1.0,-0.36,3.68,-9.22,-14.56,-31.75,27.5,5.88,-136.56,6.13,0.12524435383747623,-0.05199897746129428,-0.12622521104412243,-138.23069557304194,34.66303165808797,9.188627520029689,-0.1784,-0.9343,0.2979,0.0801
1822040.0,20.54992,1.0,-0.97,3.37,-7.82,-10.25,-31.75,30.25,-6.31,-124.94,24.06,-0.016737433465818907,0.08132678733691373,1.2367430103073769,-136.25033456727624,36.20284159032565,13.714952301602874,-0.1675,-0.928,0.3107,0.1194
1822074.0,20.591385,1.0,-1.43,3.41,-8.48,-10.25,-31.75,30.25,19.56,-60.75,-0.5,0.0742795054775961,-0.12477190374215336,0.5566600255674583,-135.4574981156968,36.73370161256758,15.73700413286234,-0.1604,-0.9254,0.3151,0.1369
1822107.0,20.641255,1.0,-1.87,3.01,-8.5,-6.06,-31.75,29.19,2.88,-67.94,0.63,0.2568623535680241,-0.4563634569997236,0.6124804275788591,-134.52935339042855,37.20491981438743,18.05401336431272,-0.1516,-0.9223,0.319,0.1569
1822144.0,20.688127,1.0,-2.04,2.45,-8.3,-3.25,-31.06,30.19,-19.12,-62.25,26.94,0.601659758649848,-0.8606608859980327,0.9776427866076283,-133.21309386328863,37.93114997769715,19.773350749034485,-0.1501,-0.9178,0.325,0.1717
1822181.0,20.711067,1.0,-3.02,5.86,-6.52,-2.06,-32.0,31.69,-51.44,-42.38,26.06,-2.3711559224438945,1.1574827916350823,0.9179913172443204,-130.43348264858346,39.412748927463014,22.11569761985897,-0.1591,-0.9079,0.3372,0.1918
1822216.0,20.748995,1.0,-2.29,3.51,-8.5,-2.06,-32.0,31.69,20.75,-1.88,-6.56,0.32849945129382574,-0.2948720770134521,0.33990089755213404,-130.4608263468181,39.49796452956165,22.23246857581403,-0.1554,-0.908,0.3379,0.1928
1822253.0,20.764937,1.0,-2.56,3.62,-8.25,-1.37,-32.75,30.56,-3.5,-14.31,6.56,-0.010769396537693154,-0.31977608825770154,0.4461944943380658,-130.29697555501406,39.64410140012822,22.47776386307514,-0.1535,-0.9074,0.3391,0.1949
1822287.0,20.803437,1.0,-2.73,3.2,-7.09,-1.0,-31.37,31.5,-4.88,-2.31,14.25,-0.3905279930230656,-0.6130836866817323,1.5949135039968478,-129.7004663573504,40.13171155486349,22.653038617520366,-0.1556,-0.9052,0.3431,0.1964
1822322.0,20.855868,1.0,-3.05,1.87,-4.79,-1.0,-31.37,31.5,-15.0,47.19,50.81,-0.9743072627183618,-1.5783583804830177,4.123076284407555,-129.0838339340417,41.03580078188174,21.75385480831424,-0.1626,-0.9029,0.3505,0.1887
1822357.0,20.870295,1.0,-1.34,-0.33,-3.24,-1.25,-32.0,31.06,-43.88,163.5,136.19,0.6151738925545762,-1.992581449155067,6.968819798877608,-126.70941436503277,44.023904316328505,16.59349169701811,-0.1998,-0.8938,0.3748,0.1443
1822394.0,20.907922,1.0,3.03,4.66,-2.89,-5.75,-32.38,29.5,-228.38,333.75,207.0,0.11522810484384305,3.5315085515894857,4.633278774782885,-121.36037614755794,46.53194812307301,9.878564278366849,-0.2761,-0.8719,0.395,0.0861
1822431.0,20.940961,1.0,5.87,9.48,-4.41,-17.37,-35.38,22.5,-151.44,510.06,183.0,-1.4646085432436378,4.1293117309884275,-1.354851083787029,-111.19726220866139,47.20637357843252,-4.435801047006329,-0.3968,-0.8251,0.4004,-0.0387
1822466.0,20.984968,1.0,8.8,5.04,-11.37,-17.37,-35.38,22.5,20.87,347.25,107.5,3.513680043535979,-3.3792432996626296,-4.627797245161215,-106.31751960155214,44.65497713304196,-16.03782888845279,-0.4424,-0.8003,0.3799,-0.1395
1822502.0,21.013363,1.0,8.01,8.75,-7.09,-30.75,-33.56,8.19,-83.69,52.06,73.06,-0.9917955239655161,-0.6395455013197526,-3.9628098002384835,-100.65391350970894,45.212993165037865,-21.05413366331596,-0.4758,-0.7697,0.3844,-0.1827
1822539.0,21.05789,1.0,6.88,7.32,-4.01,-35.25,-31.69,2.19,-33.75,12.5,47.19,-1.138479677294077,0.8826572171894694,-0.9135029961718271,-98.12066633896303,46.856456748886444,-21.882225322200526,-0.4851,-0.7554,0.3976,-0.1898
1822572.0,21.074304,1.0,6.37,5.96,-3.46,-35.25,-31.69,2.19,-23.81,37.44,24.44,-0.5441679690378205,0.6696684783726111,0.4618372490377123,-96.86939197442554,47.181364075723614,-22.699787605080818,-0.4912,-0.7482,0.4002,-0.1968
1822607.0,21.122801,1.0,7.21,6.27,-4.47,-37.75,-29.75,0.19,-17.56,54.88,27.06,-0.3528610166251034,-0.23378687316629765,-0.7336883627320727,-95.02080781947747,47.11885074218369,-24.338476796753636,-0.5021,-0.7374,0.3997,-0.2108
1822644.0,21.152106,1.0,7.91,7.04,-4.83,-37.69,-29.0,-0.5,-9.31,29.81,20.44,-0.662878215285239,-0.4021381035718692,-1.806165223594828,-93.9573807356997,47.15635695640367,-25.382826336621633,-0.5072,-0.7311,0.4,-0.2197
1822681.0,21.192279,1.0,7.78,6.08,-4.39,-38.38,-28.25,-3.0,-0.44,13.56,1.94,-0.05629403767593244,-0.30769559716071004,-0.9946950273940462,-93.58851254585272,46.99386864678159,-25.94695623100749,-0.5092,-0.7289,0.3987,-0.2245
1822713.0,21.238385,1.0,7.2,5.83,-4.07,-38.38,-28.25,-3.0,-0.75,9.75,-0.5,-0.21493979183444978,-0.3005601335048935,-0.3055834077113584,-93.48813148907243,46.84396830154976,-26.099850978803428,-0.5106,-0.7283,0.3975,-0.2258
1822750.0,21.256183,1.0,7.31,5.64,-4.12,-38.69,-28.25,-3.25,4.25,6.5,1.5,-0.020326058361399113,-0.3703153595732923,-0.2969411133524993,-93.48813148907243,46.63175471031061,-26.44109479130183,-0.5106,-0.7283,0.3958,-0.2287
1822785.0,21.304836,1.0,7.29,6.16,-4.04,-38.25,-28.75,-2.38,6.0,2.81,-3.13,-0.4574267127285445,-0.214607443969681,-0.544968445802338,-93.55504179839461,46.53194812307301,-26.48818157203767,-0.5103,-0.7287,0.395,-0.2291
1822820.0,21.333666,1.0,7.17,6.58,-4.16,-38.25,-28.75,-2.38,18.87,3.69,-11.19,-0.8390892985148852,-0.23591653089575693,-0.7409171384242885,-94.20961276881575,45.971228872033386,-26.65302123047702,-0.5076,-0.7326,0.3905,-0.2305
1822855.0,21.37079,1.0,8.96,7.44,-6.09,-38.69,-29.0,-3.69,65.87,-9.38,-40.94,-0.30425060849661545,-1.0587197095804093,-3.2895266994713186,-95.76994903311295,44.85325420187506,-26.747240522777687,-0.5007,-0.7418,0.3815,-0.2313
1822892.0,21.410266,1.0,7.34,5.5,-4.33,-37.88,-29.0,-2.38,83.87,-95.44,-53.44,0.4364291384985295,0.3711335940192255,-0.3198641812204954,-100.38504889165011,43.85091508076586,-24.854522251558684,-0.4734,-0.7682,0.3734,-0.2152
1822926.0,21.436223,1.0,6.07,5.43,-3.65,-37.88,-29.0,-2.38,51.63,-66.75,-39.94,-0.14538053921181948,0.9467372270521957,0.9333837962995837,-103.256569705886,43.48057685802525,-23.132398374270103,-0.4559,-0.784,0.3704,-0.2005
1822961.0,21.494869,1.0,5.92,5.72,-4.79,-36.0,-30.5,2.88,42.44,-42.88,-32.56,-0.23503598987388497,0.401757829566868,0.29390861121802025,-105.72709561294404,42.99984891491944,-21.462206102543455,-0.4421,-0.7972,0.3665,-0.1862
1822996.0,21.514286,1.0,6.43,7.96,-6.92,-33.69,-31.56,4.88,46.5,-100.75,-48.38,-1.1080101091704724,0.41224518974484975,-2.4894984824114044,-109.15495063272715,42.74132469735877,-18.51827857520288,-0.421,-0.8149,0.3644,-0.1609
1823033.0,21.539861,1.0,3.89,8.14,-4.74,-33.38,-32.25,8.19,146.0,-155.88,-88.37,-2.735220374421362,2.053429704622931,0.2065825027621564,-114.21690781898718,42.053036389733045,-15.274409087771584,-0.3853,-0.8397,0.3588,-0.1329
1823068.0,21.579951,1.0,3.56,5.35,-5.06,-33.38,-32.25,8.19,218.06,-110.56,-106.94,-0.7540323840246779,1.7531390328852754,1.8531829135517173,-123.55068352590973,39.108592274648124,-12.561458728935325,-0.3157,-0.8811,0.3347,-0.1094
1823105.0,21.624207,1.0,3.15,3.29,-7.88,-28.5,-33.19,16.0,139.69,-123.81,-106.25,0.5116988930521535,-0.522367720917997,0.7343682469352206,-129.67350949211158,36.67333570940443,-10.269686237501054,-0.2715,-0.9051,0.3146,-0.0895
1823141.0,21.654988,1.0,1.88,2.83,-6.61,-23.69,-33.56,22.56,96.81,-79.12,-80.62,0.057943409572661864,-0.02077081769604336,2.3748526982418756,-136.15815825603804,33.57225481905068,-7.1781250358345785,-0.2282,-0.9277,0.2888,-0.0626
1823176.0,21.686912,1.0,1.73,1.68,-8.37,-23.69,-33.56,22.56,89.56,-60.31,-76.06,0.7257661288217689,-1.2949552705719232,1.223611238962448,-139.66874405322235,31.709549187482548,-5.663127955663873,-0.2043,-0.9387,0.2732,-0.0494
1823211.0,21.734874,1.0,1.21,0.34,-7.95,-18.06,-31.75,28.25,25.81,-43.69,-34.06,1.0365129691993704,-2.0137931214127263,2.083148324669547,-143.46374555627924,29.49976914452507,-4.321125783265932,-0.1791,-0.9496,0.2546,-0.0377
1823248.0,21.764277,1.0,1.33,-0.66,-7.77,-14.69,-30.56,30.0,11.56,14.25,1.94,1.580342166903495,-2.6808214849165903,2.533884721131421,-144.1275913572786,28.90768703373302,-4.539012581284228,-0.1761,-0.9514,0.2496,-0.0396
1823283.0,21.843734,1.0,3.45,-2.51,-10.28,-15.06,-30.56,30.75,-78.25,30.94,95.75,4.351014001200957,-4.252676956210889,0.4865418532312056,-141.67799864882883,30.62696303514804,-5.468092286497271,-0.1891,-0.9446,0.2641,-0.0477
1823318.0,21.868639,1.0,5.06,0.39,-13.61,-15.06,-30.56,30.75,-185.94,-49.63,178.63,5.02753538935401,-3.003212868456054,-3.485919366963371,-133.01147504963205,37.337945134050294,-3.6904861286986015,-0.2357,-0.9171,0.3201,-0.0322
1823354.0,21.880608,1.0,2.91,4.99,-6.47,-17.69,-31.56,27.06,-220.25,-133.69,208.56,0.15235004453460088,1.6525112773005999,1.2934193592664442,-124.45383854948406,44.27121519182588,0.48128596289769454,-0.2741,-0.8848,0.3768,0.0042
1823393.0,21.905962,1.0,2.62,9.5,-5.88,-20.56,-31.87,23.5,-153.06,-78.87,146.81,-3.0241639138737955,2.9883473543472525,-0.8522905060629409,-114.34362489902878,51.62149845664169,4.814261580058959,-0.3202,-0.8403,0.4354,0.042
1823428.0,21.940955,1.0,2.43,9.86,-6.0,-20.56,-31.87,23.5,-54.38,-36.94,68.87,-3.289833839038419,2.437848414708376,-1.254922601507511,-110.45037134177934,54.63229852978135,6.351624225020216,-0.3342,-0.8214,0.4589,0.0554
1823463.0,21.983092,1.0,1.78,8.94,-5.57,-22.5,-32.69,21.75,-18.37,0.63,2.88,-3.147150663208091,1.6554640264459963,-0.26667028480243005,-109.15495063272715,55.614685483247094,6.799268354310191,-0.3387,-0.8149,0.4665,0.0593
1823498.0,22.005947,1.0,2.05,6.86,-6.45,-24.25,-33.0,21.37,23.19,22.81,-21.12,-1.181839230517128,0.767613795796758,0.27362188225518835,-110.08954448644468,54.774215005307816,6.168003805570945,-0.3374,-0.8196,0.46,0.0538
1823535.0,22.045512,1.0,1.86,6.12,-6.73,-23.56,-33.0,21.06,8.56,27.44,-14.56,-0.6972738655377406,0.23281876083568137,0.5510298381177599,-110.85321906669195,54.065535928953075,5.605762844556932,-0.3363,-0.8234,0.4545,0.0489
1823569.0,22.080885,1.0,2.27,5.96,-8.25,-23.56,-33.0,21.06,12.0,26.69,-13.19,0.1696192555247953,-0.32641440900423674,-0.6145631223648618,-111.60396041024362,53.218059503427035,4.825730880475589,-0.337,-0.8271,0.4479,0.0421
1823606.0,22.127781,1.0,1.8,5.32,-7.6,-24.0,-34.06,20.69,12.81,2.88,-25.44,0.10766955570156111,-0.526420837150638,0.3719434137309481,-112.32084385114358,52.616465356248085,4.837200229263812,-0.3347,-0.8306,0.4432,0.0422
1823641.0,22.152224,1.0,2.12,4.01,-7.77,-22.75,-33.0,20.25,-13.06,-3.75,3.81,1.2986724247513075,-0.8653220586576665,0.9459464349330009,-112.77489865498625,52.09294338177223,4.802792327898412,-0.3344,-0.8328,0.4391,0.0419
1823676.0,22.190709,1.0,1.81,6.63,-7.3,-22.75,-33.0,20.25,-28.44,-0.31,15.06,-0.8109161516486226,0.049663400017643244,-0.18649507758664008,-111.88991732477224,52.47589269472505,5.181303758795193,-0.3408,-0.8285,0.4421,0.0452
1823711.0,22.232253,1.0,2.13,6.3,-8.42,-23.56,-33.69,20.25,-8.5,-2.0,2.06,0.08770832671418338,-0.47959718145767594,-0.9118197505270267,-111.46137512854487,52.616465356248085,5.341901218009245,-0.3441,-0.8264,0.4432,0.0466
1823746.0,22.265949,1.0,1.95,6.07,-7.12,-24.0,-33.69,20.69,-4.19,-3.88,0.63,-0.3195459630198194,-0.00791188774083218,0.2547063349886667,-111.50208718714256,52.50144503161559,5.536926565771378,-0.3446,-0.8266,0.4423,0.0483
1823782.0,22.298469,1.0,2.25,6.16,-7.34,-23.87,-34.88,19.87,5.31,8.94,-1.06,-0.14270547655870347,0.11716721217827611,-0.034569791842399056,-111.88991732477224,52.04193081398262,5.146891353190199,-0.3452,-0.8285,0.4387,0.0449
1823817.0,22.335951,1.0,2.23,6.5,-8.0,-23.87,-34.88,19.87,3.13,19.37,-10.63,-0.15340445943687375,-0.17675375665877746,-0.7369796018653805,-112.07430548769132,51.634227840640925,4.802792327898412,-0.3474,-0.8294,0.4355,0.0419
1823854.0,22.407706,1.0,1.93,5.73,-7.55,-23.06,-34.88,20.25,18.94,11.56,-12.94,-0.05877609394312078,-0.40489915946731414,0.14264968742532425,-113.23167638730345,50.668725019229704,4.11472114096103,-0.3441,-0.835,0.4279,0.0359
1823889.0,22.410697,1.0,2.25,5.35,-7.29,-23.56,-34.38,21.06,34.13,20.19,-14.63,0.21167638640914221,-0.13066802815666106,0.49175767781750146,-114.28023924222178,49.909201333575915,3.380941489627292,-0.3398,-0.84,0.4219,0.0295
1823924.0,22.444633,1.0,2.26,4.68,-7.43,-23.56,-34.38,21.06,-32.69,12.5,15.31,0.6712092874538543,-0.5345123950525507,0.78009613975129,-114.13255001123673,49.98504770101026,2.910938660030132,-0.3412,-0.8393,0.4225,0.0254
