TIME,ELAPSED_SECONDS,PSTATE,acc_x,acc_y,acc_z,mag_x,mag_y,mag_z,gyr_x,gyr_y,gyr_z,lin_x,lin_y,lin_z,eul_x,eul_y,eul_z,qua_w,qua_x,qua_y,qua_z
1236367.0,218.480167,1.0,-2.91,5.8,-7.97,3.0,-33.38,31.75,-18.37,37.94,25.06,-1.122820953625151,1.3508443282152776,-0.3197260895509384,-137.46590815068691,29.487919662093987,22.2091125181558,-0.1724,-0.9319,0.2545,0.1926
1236404.0,218.515891,1.0,-1.9,5.12,-10.5,0.37,-35.19,31.37,6.94,15.13,0.44,0.8217069622773528,0.6839410222714686,-1.980267423406307,-138.07026684249539,29.61828173729524,20.80942010008858,-0.1735,-0.9338,0.2556,0.1806
1236436.0,218.553625,1.0,-2.53,4.85,-8.96,0.37,-35.19,31.37,20.44,-20.75,-20.19,-0.18759184043592314,0.6058929107215067,-0.6720284988441776,-138.3272359651665,29.381288812129686,21.182355652510953,-0.1686,-0.9346,0.2536,0.1838
1236471.0,218.582201,1.0,-2.77,3.3,-8.21,-1.37,-34.88,31.75,17.62,-4.06,-12.25,-0.07729654865619562,-0.46842327357357844,0.5469737162230963,-138.91102916961097,29.06155185997118,21.32226479540238,-0.1611,-0.9364,0.2509,0.185
1236506.0,218.637878,1.0,-2.41,4.49,-9.22,0.37,-34.5,31.75,-12.69,22.12,14.44,0.08954859960520034,0.39145186029677076,-0.7202368374927914,-138.91102916961097,29.132584441928433,20.82107094211026,-0.1648,-0.9364,0.2515,0.1807
1236543.0,218.65468,1.0,-2.52,4.83,-9.08,-0.69,-34.06,31.75,6.81,0.19,-0.88,-0.2191959458507451,0.5667354859028091,-0.7648429894665849,-138.74807199122864,29.286527670932475,20.623036118505983,-0.1678,-0.9359,0.2528,0.179
1236578.0,218.699048,1.0,-2.61,4.33,-8.43,-0.69,-34.06,31.75,1.31,-6.25,-3.19,-0.3427567178761781,0.29135073744049805,-0.012898491664147471,-138.7806141249359,29.23915478171118,20.762818905741057,-0.1663,-0.936,0.2524,0.1802
1236615.0,218.723559,1.0,-2.62,4.34,-8.62,-0.69,-35.19,32.56,2.25,-7.44,0.88,-0.2501614720823069,0.27584786973958814,-0.1866341043695794,-138.74807199122864,29.262840587223423,20.949244597725627,-0.1654,-0.9359,0.2526,0.1818
1236649.0,218.766564,1.0,-2.73,4.72,-8.4,-0.25,-34.5,32.19,-2.81,-8.06,-1.37,-0.5369923502629219,0.5697644896642454,-0.17725242550861253,-138.5209607780903,29.286527670932475,21.24064723466595,-0.1662,-0.9352,0.2528,0.1843
1236682.0,218.790196,1.0,-2.6,4.27,-8.7,-0.25,-34.5,32.19,8.5,-8.56,-4.38,-0.08399670833946482,0.2450504420424876,-0.224092486667816,-138.48861330559183,29.215470253177052,21.485532797029645,-0.1648,-0.9351,0.2522,0.1864
1236717.0,218.830161,1.0,-2.81,4.46,-8.35,-0.37,-34.5,33.06,-2.94,-11.25,-1.06,-0.44237526708990904,0.3974070810724289,-0.05015332232416014,-138.39171512082905,29.23915478171118,21.777192841624235,-0.1635,-0.9348,0.2524,0.1889
1236754.0,218.87125,1.0,-3.0,3.26,-7.59,0.5,-34.5,33.0,-0.69,1.37,0.5,-0.40476414958842755,-0.5293661620641443,1.0435662134743104,-138.3272359651665,29.19178700040293,21.95225731085251,-0.1641,-0.9346,0.252,0.1904
1236789.0,218.907361,1.0,-3.17,3.87,-7.16,0.5,-34.5,33.0,-13.81,11.88,18.06,-1.002944943733334,-0.09515107242510679,1.1304499266236299,-138.07026684249539,29.464221664430085,21.718849470413215,-0.1668,-0.9338,0.2543,0.1884
1236824.0,218.948127,1.0,-3.22,2.38,-6.03,1.19,-35.19,31.37,-23.44,55.0,40.56,-1.0497133483696865,-1.2810543220389174,2.7603245952063835,-137.87852272532075,29.95028992789253,20.343563363128435,-0.1769,-0.9332,0.2584,0.1766
1236858.0,218.979497,1.0,-2.51,4.06,-5.42,-0.25,-34.06,31.37,-52.63,129.06,50.81,-1.8234815653407983,0.09592724497697713,2.819103009493716,-137.5291383748013,30.54380438300529,16.072546557241566,-0.2058,-0.9321,0.2634,0.1398
1236897.0,219.015634,1.0,-0.78,1.98,-4.18,-4.38,-36.69,29.25,-46.38,227.44,79.75,-0.3483211903233425,-0.5242206405800721,5.158525101897375,-137.37123052660468,30.912204221086636,10.269686237501054,-0.2302,-0.9316,0.2665,0.0895
1236930.0,219.044727,1.0,1.84,5.04,-5.55,-4.38,-36.69,29.25,-125.06,282.38,106.06,-0.0006804332386635137,1.4268476012165694,2.2202275585647024,-132.98273895587263,31.73337455864903,0.6990128451499703,-0.2905,-0.917,0.2734,0.0061
1236967.0,219.099145,1.0,4.54,8.76,-10.6,-11.88,-36.5,27.25,-63.0,197.63,82.12,0.1430492912161423,1.1305421301211886,-4.629783472028452,-128.89754271482937,32.19825231317595,-5.605762844556932,-0.3268,-0.9022,0.2773,-0.0489
1237004.0,219.125206,1.0,4.94,6.28,-7.7,-21.25,-37.56,19.5,-6.75,125.06,58.0,0.6420817625971602,0.8640876206611343,-1.237492501523617,-126.17530318519165,32.62785371061371,-11.178940913568928,-0.3413,-0.8917,0.2809,-0.0974
1237039.0,219.15313,1.0,6.38,8.12,-8.66,-21.25,-37.56,19.5,-38.81,141.44,54.69,0.07434415952348772,1.2542696643123523,-3.6118327963198045,-123.42965193046733,32.890619725136126,-15.089441590206313,-0.3566,-0.8806,0.2831,-0.1313
1237073.0,219.195495,1.0,6.93,7.49,-9.8,-25.37,-36.5,17.19,3.63,45.94,14.5,0.23185988394332568,-0.24923898104141162,-4.337222204051734,-121.47748834883794,32.74727085632419,-18.274501601194086,-0.3663,-0.8724,0.2819,-0.1588
1237108.0,219.2202,1.0,6.56,7.37,-8.64,-29.5,-35.69,13.5,-8.5,0.37,5.44,-0.0015431726959631575,0.3064600027361509,-3.3046497023689874,-120.94052444578816,33.08183396795116,-18.64600495316554,-0.3684,-0.8701,0.2847,-0.162
1237145.0,219.275862,1.0,5.93,7.3,-7.66,-30.06,-35.69,12.75,14.63,-19.37,-10.63,-0.2954749584788616,0.9138410990634352,-2.285003691475554,-121.5009364289817,33.285102998046874,-17.93799404290059,-0.3638,-0.8725,0.2864,-0.1559
1237180.0,219.294577,1.0,5.83,7.67,-8.96,-30.06,-35.69,12.75,38.06,-46.13,-39.13,-0.3851297754694669,0.5776811725395818,-3.3317425774403695,-123.7205290097115,32.42492804195051,-16.53559204728263,-0.3518,-0.8818,0.2792,-0.1438
1237217.0,219.334679,1.0,4.82,5.45,-8.49,-30.06,-35.75,13.19,118.12,-70.12,-75.06,0.4326636297646176,-0.17432552402949486,-1.36462623842284,-127.61080606533372,30.87653837372019,-14.800508833176536,-0.3278,-0.8973,0.2662,-0.1288
1237254.0,219.372122,1.0,4.1,2.98,-7.71,-26.75,-36.88,17.75,65.25,-105.94,-36.94,1.6490030670052285,-0.8494725628978057,0.7681940892876415,-131.98719464152975,29.96215210560615,-11.570479767497385,-0.2976,-0.9135,0.2585,-0.1008
1237288.0,219.405661,1.0,2.87,5.16,-8.06,-26.75,-36.88,17.75,2.5,-104.56,-13.06,-0.14660534229543654,0.21333196745914082,-0.18129755419102445,-132.89662989290295,30.54380438300529,-8.579461739762628,-0.291,-0.9167,0.2634,-0.0748
1237323.0,219.449203,1.0,2.16,5.44,-7.74,-23.06,-35.38,20.56,38.13,-109.56,-29.5,-0.4162490293623158,0.8207179023621353,0.14642438822998827,-135.06606324188033,30.757674330799205,-4.745446786894517,-0.2719,-0.9241,0.2652,-0.0414
1237358.0,219.47939,1.0,1.71,3.45,-7.78,-21.56,-35.38,22.19,56.81,-104.0,-26.19,0.4963110790995362,-0.35709438521891923,1.1474838211575946,-137.11973135242658,30.710138215163173,-2.165909426065293,-0.2511,-0.9308,0.2648,-0.0189
1237395.0,219.516975,1.0,0.85,2.58,-6.37,-18.19,-34.69,26.69,-1.25,-83.0,16.56,0.3316662610412107,-0.4036571623779065,2.9013724250905053,-137.91042216197232,31.60235240767247,0.93966131468631,-0.234,-0.9333,0.2723,0.0082
1237430.0,219.546908,1.0,1.02,3.38,-7.68,-18.19,-34.69,26.69,-42.88,-54.25,42.25,0.5408305719411461,-0.2941387853509188,1.3764551821202797,-135.7912803367973,33.59619391104007,3.186055816055173,-0.2393,-0.9265,0.289,0.0278
1237467.0,219.587246,1.0,0.87,5.95,-7.77,-16.0,-35.06,27.56,-20.37,-88.44,33.31,-0.6646180554746605,1.4340617073228847,0.10953445670944362,-134.05726525899885,35.27575900730598,5.410731896463338,-0.2416,-0.9207,0.303,0.0472
1237504.0,219.623436,1.0,0.49,5.13,-7.14,-15.56,-35.38,27.56,29.56,-78.75,13.31,-0.5024415553835293,1.2050894870757827,1.098497968049525,-133.5025517023973,36.75785092937251,7.8556734445593195,-0.2273,-0.9188,0.3153,0.0685
1237538.0,219.646985,1.0,0.09,2.09,-5.4,-15.56,-35.38,27.56,-27.69,-8.38,61.25,0.4080542784095211,-0.48303110788106973,4.050229875070714,-132.41145409892673,38.100830311382886,8.384121213370948,-0.2256,-0.915,0.3264,0.0731
1237573.0,219.70358,1.0,0.53,6.32,-7.46,-14.69,-34.25,28.87,-105.44,41.19,91.12,-1.0854146048295101,1.1462042010153422,0.14316247917204628,-127.84492955883974,40.73006975326216,7.68339023950128,-0.2601,-0.8982,0.348,0.067
1237608.0,219.724239,1.0,0.64,7.59,-6.02,-16.19,-35.06,29.19,-24.12,69.87,42.94,-2.326847931137611,2.1673001868260933,0.6334995812210611,-125.77163105081794,41.78307317970489,6.328670789467022,-0.2781,-0.8901,0.3566,0.0552
1237645.0,219.796568,1.0,1.84,3.69,-5.24,-18.87,-35.38,26.69,-114.31,165.31,79.69,0.35019588377593713,0.4485913294001917,3.1631999428253863,-123.26060567533969,42.49532318150223,1.8220825674649566,-0.3068,-0.8799,0.3624,0.0159
1237680.0,219.801557,1.0,3.47,9.38,-6.07,-18.87,-35.38,26.69,-63.31,247.19,62.63,-2.4732782733496745,2.6289113599956107,-1.3217784444777951,-118.97084456699362,41.69722676024061,-5.640181741583799,-0.3588,-0.8615,0.3559,-0.0492
1237719.0,219.834466,1.0,6.0,6.58,-10.72,-24.5,-35.0,20.56,-2.56,178.13,32.69,1.067027919572924,-1.4299964434340315,-4.014759537041364,-117.3429325945059,40.13171155486349,-11.443790822449783,-0.3776,-0.8542,0.3431,-0.0997
1237753.0,219.874569,1.0,5.22,6.98,-6.78,-30.5,-34.25,14.06,-0.37,51.56,11.13,-0.4509738472631799,0.7593944716503648,-1.2004905290162213,-115.8815757150145,39.912193788917286,-13.98044914927855,-0.3879,-0.8475,0.3413,-0.1217
1237788.0,219.899527,1.0,4.97,6.81,-6.17,-30.5,-34.25,14.06,-6.31,77.62,8.56,-0.7497927843657788,0.7734979071397932,-0.5849529450784647,-115.17264708179559,39.40057712393039,-15.771709071970362,-0.3936,-0.8442,0.3371,-0.1372
1237823.0,219.938264,1.0,5.54,5.39,-6.68,-32.38,-34.69,12.38,17.44,88.87,1.06,0.33123167212312454,-0.37697592896340215,-0.396990268471086,-114.38591221182236,38.13720165916782,-18.68084346973021,-0.4007,-0.8405,0.3267,-0.1623
1237858.0,219.978253,1.0,6.29,6.43,-8.2,-31.19,-34.25,10.0,-13.56,49.13,7.81,-0.06549672990713518,-1.0794564024716624,-2.316859560087556,-113.48199585621887,37.53152975160733,-20.36684806544824,-0.4075,-0.8362,0.3217,-0.1768
1237895.0,220.018094,1.0,5.45,5.99,-5.24,-33.5,-34.69,9.19,-5.81,-19.44,-2.38,-0.25546433339780084,0.7312413825024493,0.1920660768716811,-113.29417835148298,37.73733524113148,-20.09912503821932,-0.4088,-0.8353,0.3234,-0.1745
1237929.0,220.040224,1.0,5.49,6.17,-5.69,-33.5,-34.69,9.19,-7.06,5.63,0.63,-0.3456657461063406,0.44085570957018105,-0.20690388637361323,-113.16922611259193,37.74944537405314,-20.040939097265657,-0.4105,-0.8347,0.3235,-0.174
1237966.0,220.08358,1.0,5.61,6.08,-5.75,-31.87,-33.19,8.38,12.0,8.25,-1.56,-0.2412643101176548,0.40910490434827396,-0.2569191834409157,-113.29417835148298,37.57994324822506,-20.37849073526576,-0.4089,-0.8353,0.3221,-0.1769
1238001.0,220.115904,1.0,5.66,5.74,-6.1,-32.69,-33.56,8.69,0.0,-4.25,-2.31,0.015572357880724752,0.0028703313390412433,-0.3024028370796472,-113.35673215233233,37.53152975160733,-20.39013361769746,-0.4084,-0.8356,0.3217,-0.177
1238034.0,220.150817,1.0,5.41,5.89,-5.55,-32.69,-33.56,8.69,-0.37,-17.25,0.31,-0.19251123887792998,0.47710289525471117,0.08564119174119611,-113.5447060570436,37.810002605741936,-19.784982749875187,-0.4072,-0.8365,0.324,-0.1718
1238071.0,220.191221,1.0,5.54,6.05,-5.87,-32.25,-33.56,9.19,-2.81,3.31,2.94,-0.20889195000931382,0.3424550645822395,-0.2725408743689979,-113.4193379377267,37.94326713356112,-19.691932497848978,-0.4078,-0.8359,0.3251,-0.171
1238106.0,220.224713,1.0,5.37,6.26,-5.77,-31.87,-33.19,8.38,-2.88,-4.25,-1.5,-0.4756894759507855,0.44771643297742736,-0.23778475353947393,-113.35673215233233,38.05234138049009,-19.645412292934687,-0.408,-0.8356,0.326,-0.1706
1238140.0,220.267983,1.0,5.13,5.77,-5.42,-31.87,-33.19,8.38,-4.75,-8.25,-1.19,-0.28213122833388615,0.41794414047958334,0.3868875472925204,-113.39846355737873,38.07658496090942,-19.436111711406607,-0.408,-0.8358,0.3262,-0.1688
1238175.0,220.2892,1.0,5.12,6.43,-5.47,-32.69,-33.19,8.25,0.44,0.94,2.13,-0.7381944821199635,0.6739207306276674,-0.01582930796486437,-113.25250462483363,38.3312497043692,-19.273367657733324,-0.4084,-0.8351,0.3283,-0.1674
1238210.0,220.334575,1.0,5.59,6.08,-6.01,-32.69,-33.88,8.25,-3.81,4.25,0.63,-0.18500454590769744,0.27956443769034345,-0.4022783004227417,-113.25250462483363,38.30698746477587,-19.424485827358055,-0.408,-0.8351,0.3281,-0.1687
1238245.0,220.359482,1.0,5.44,6.17,-5.88,-31.5,-33.88,10.0,-2.56,-7.31,-1.5,-0.33181142324709256,0.357527347849419,-0.29280421173553073,-113.19003713661382,38.36764641216122,-19.26174458805701,-0.4087,-0.8348,0.3286,-0.1673
1238280.0,220.400193,1.0,4.88,5.84,-5.25,-31.5,-33.88,10.0,-1.56,-3.5,-0.12,-0.48840237813089304,0.5000134996565535,0.5874336766242827,-113.29417835148298,38.40404714248387,-19.08742247639564,-0.4081,-0.8353,0.3289,-0.1658
