,TIME,ELAPSED_SECONDS,PSTATE,acc_x,acc_y,acc_z,mag_x,mag_y,mag_z,gyr_x,gyr_y,gyr_z,lin_x,lin_y,lin_z,eul_x,eul_y,eul_z,qua_w,qua_x,qua_y,qua_z
0,2171531.0,2142.7857010000002,1.0,0.28,1.54,-9.7,-2.38,-21.19,32.88,-0.88,0.25,0.63,-0.049416673351905714,0.05841678553193419,-0.01852915722471593,-170.8302288961765,2.544141615361497,-1.7189378496716434,-0.0759,-0.9968,0.0222,-0.015
1,2171531.0,2142.7857010000002,1.0,0.28,1.54,-9.7,-2.38,-21.19,32.88,-0.88,0.25,0.63,-0.049416673351905714,0.05841678553193419,-0.01852915722471593,-170.8302288961765,2.544141615361497,-1.7189378496716434,-0.0759,-0.9968,0.0222,-0.015
2,2171564.0,2142.798503,1.0,0.34,1.47,-9.85,-2.38,-21.19,32.88,-0.81,-1.12,-0.37,0.013647807944339159,-0.032849462130669305,-0.1581748680132833,-170.8302288961765,2.555603608821701,-1.6960169933572922,-0.076,-0.9968,0.0223,-0.0148
3,2171564.0,2142.798503,1.0,0.34,1.47,-9.85,-2.38,-21.19,32.88,-0.81,-1.12,-0.37,0.013647807944339159,-0.032849462130669305,-0.1581748680132833,-170.8302288961765,2.555603608821701,-1.6960169933572922,-0.076,-0.9968,0.0223,-0.0148
4,2171600.0,2142.8068989999997,1.0,0.33,1.65,-9.96,-2.38,-22.0,33.88,-5.44,-1.37,0.12,0.005064685685730229,0.09749173776208596,-0.2940167953173791,-170.54785856879653,2.555603608821701,-1.6272548279067642,-0.0775,-0.9966,0.0223,-0.0142
5,2171600.0,2142.8068989999997,1.0,0.33,1.65,-9.96,-2.38,-22.0,33.88,-5.44,-1.37,0.12,0.005064685685730229,0.09749173776208596,-0.2940167953173791,-170.54785856879653,2.555603608821701,-1.6272548279067642,-0.0775,-0.9966,0.0223,-0.0142
6,2171635.0,2142.8478,1.0,0.27,1.49,-9.74,-2.0,-21.87,32.88,-4.25,-3.13,-0.19,-0.027911760777518432,-0.04619409934259477,-0.05020989749252003,-170.54785856879653,2.5670656278548973,-1.5470330404085568,-0.0784,-0.9966,0.0224,-0.0135
7,2171635.0,2142.8478,1.0,0.27,1.49,-9.74,-2.0,-21.87,32.88,-4.25,-3.13,-0.19,-0.027911760777518432,-0.04619409934259477,-0.05020989749252003,-170.54785856879653,2.5670656278548973,-1.5470330404085568,-0.0784,-0.9966,0.0224,-0.0135
8,2171670.0,2142.9046559999997,1.0,0.11,1.72,-9.75,-2.0,-21.87,32.88,-7.44,-4.0,-2.0,-0.16949615166648385,0.12333771793249006,-0.09229231026252194,-170.27366439531403,2.532679647359437,-1.3865917007687605,-0.0809,-0.9964,0.0221,-0.0121
9,2171670.0,2142.9046559999997,1.0,0.11,1.72,-9.75,-2.0,-21.87,32.88,-7.44,-4.0,-2.0,-0.16949615166648385,0.12333771793249006,-0.09229231026252194,-170.27366439531403,2.532679647359437,-1.3865917007687605,-0.0809,-0.9964,0.0221,-0.0121
10,2171705.0,2142.9166579999996,1.0,-0.11,1.93,-9.89,-1.56,-21.87,33.75,-8.88,-1.25,-5.75,-0.3846660245033321,0.2569801069288742,-0.2598833295149632,-170.13941942315122,2.4180613422720283,-1.306372069959298,-0.083,-0.9963,0.0211,-0.0114
11,2171705.0,2142.9166579999996,1.0,-0.11,1.93,-9.89,-1.56,-21.87,33.75,-8.88,-1.25,-5.75,-0.3846660245033321,0.2569801069288742,-0.2598833295149632,-170.13941942315122,2.4180613422720283,-1.306372069959298,-0.083,-0.9963,0.0211,-0.0114
12,2171742.0,2142.92583,1.0,-0.61,2.57,-9.92,-1.19,-21.5,33.38,-20.31,-3.94,-10.63,-0.8796443051330347,0.7604438032294977,-0.3929260264129084,-169.4938307856925,2.1086036789736795,-1.1803139285143014,-0.0882,-0.9958,0.0184,-0.0103
13,2171742.0,2142.92583,1.0,-0.61,2.57,-9.92,-1.19,-21.5,33.38,-20.31,-3.94,-10.63,-0.8796443051330347,0.7604438032294977,-0.3929260264129084,-169.4938307856925,2.1086036789736795,-1.1803139285143014,-0.0882,-0.9958,0.0184,-0.0103
14,2171777.0,2142.967111,1.0,-1.0,3.18,-9.87,-1.19,-21.5,33.38,-21.25,-3.69,-21.06,-1.2375780384498958,1.246074268922176,-0.4619915613301338,-169.00454610436458,1.638715147453804,-0.9854995558041141,-0.094,-0.9954,0.0143,-0.0086
15,2171777.0,2142.967111,1.0,-1.0,3.18,-9.87,-1.19,-21.5,33.38,-21.25,-3.69,-21.06,-1.2375780384498958,1.246074268922176,-0.4619915613301338,-169.00454610436458,1.638715147453804,-0.9854995558041141,-0.094,-0.9954,0.0143,-0.0086
16,2171811.0,2143.000031,1.0,-0.98,3.61,-10.18,-1.56,-22.69,32.19,-23.5,-3.06,-34.25,-1.1419133662005958,1.469256643444866,-0.8780221418949309,-168.30883818145554,0.5271230305187238,-0.7563097804494618,-0.1016,-0.9948,0.0046,-0.0066
17,2171811.0,2143.000031,1.0,-0.98,3.61,-10.18,-1.56,-22.69,32.19,-23.5,-3.06,-34.25,-1.1419133662005958,1.469256643444866,-0.8780221418949309,-168.30883818145554,0.5271230305187238,-0.7563097804494618,-0.1016,-0.9948,0.0046,-0.0066
18,2171846.0,2143.0409329999998,1.0,-1.07,3.77,-10.04,-0.88,-23.37,32.56,-4.69,-5.88,-49.75,-1.075334745194822,1.6139203446676458,-0.7951572189058709,-167.86710278173726,-1.2490727279396536,-0.3552344019497601,-0.105,-0.9944,-0.0109,-0.0031
19,2171846.0,2143.0409329999998,1.0,-1.07,3.77,-10.04,-0.88,-23.37,32.56,-4.69,-5.88,-49.75,-1.075334745194822,1.6139203446676458,-0.7951572189058709,-167.86710278173726,-1.2490727279396536,-0.3552344019497601,-0.105,-0.9944,-0.0109,-0.0031
20,2171883.0,2143.102401,1.0,-0.87,3.85,-9.26,0.25,-24.19,32.06,0.56,-3.81,-65.94,-0.7235814492578303,1.858604062624264,-0.059910739421138,-167.44083871780597,-3.0370318442136965,-0.03437746822351143,-0.1057,-0.9940000000000001,-0.0265,-0.0003
21,2171883.0,2143.102401,1.0,-0.87,3.85,-9.26,0.25,-24.19,32.06,0.56,-3.81,-65.94,-0.7235814492578303,1.858604062624264,-0.059910739421138,-167.44083871780597,-3.0370318442136965,-0.03437746822351143,-0.1057,-0.9940000000000001,-0.0265,-0.0003
22,2171916.0,2143.1198329999997,1.0,-0.7,3.15,-8.95,0.25,-24.19,32.06,14.06,-0.19,-77.12,-0.4152974420545459,1.326573296850346,0.394810045840849,-166.92746455946425,-5.92702598542953,0.32085678452705746,-0.1018,-0.9935,-0.0517,0.0028
23,2171916.0,2143.1198329999997,1.0,-0.7,3.15,-8.95,0.25,-24.19,32.06,14.06,-0.19,-77.12,-0.4152974420545459,1.326573296850346,0.394810045840849,-166.92746455946425,-5.92702598542953,0.32085678452705746,-0.1018,-0.9935,-0.0517,0.0028
24,2171953.0,2143.199425,1.0,-0.36,2.4,-8.38,0.88,-23.75,32.06,20.5,8.31,-83.87,-0.05927277330880275,0.7605961161555272,1.115736337649338,-166.05072408085044,-8.292204739238791,0.4698267083113723,-0.0971,-0.9926,-0.0723,0.0041
25,2171953.0,2143.199425,1.0,-0.36,2.4,-8.38,0.88,-23.75,32.06,20.5,8.31,-83.87,-0.05927277330880275,0.7605961161555272,1.115736337649338,-166.05072408085044,-8.292204739238791,0.4698267083113723,-0.0971,-0.9926,-0.0723,0.0041
26,2171990.0,2143.209791,1.0,-0.2,2.58,-7.7,3.5,-24.5,31.37,18.31,25.31,-90.06,0.1880154577173012,1.156127234919293,1.7683404759559558,-164.27566318431926,-11.858462221253813,-0.011459155921715059,-0.0897,-0.9906,-0.1033,-0.0001
27,2171990.0,2143.209791,1.0,-0.2,2.58,-7.7,3.5,-24.5,31.37,18.31,25.31,-90.06,0.1880154577173012,1.156127234919293,1.7683404759559558,-164.27566318431926,-11.858462221253813,-0.011459155921715059,-0.0897,-0.9906,-0.1033,-0.0001
28,2172024.0,2143.251842,1.0,1.06,1.73,-8.26,3.5,-24.5,31.37,21.56,50.19,-93.12,1.1337689383816854,0.050780497087287164,1.3771725941653763,-162.45372607444324,-14.7196246947995,-1.0657168616283692,-0.0826,-0.9883,-0.1281,-0.0093
29,2172024.0,2143.251842,1.0,1.06,1.73,-8.26,3.5,-24.5,31.37,21.56,50.19,-93.12,1.1337689383816854,0.050780497087287164,1.3771725941653763,-162.45372607444324,-14.7196246947995,-1.0657168616283692,-0.0826,-0.9883,-0.1281,-0.0093
30,2172057.0,2143.345381,1.0,1.83,1.29,-8.62,4.69,-22.25,32.88,22.25,64.44,-92.31,1.4893566963224405,-0.5432810551898022,1.042857309264365,-159.40959116439532,-18.541499822002773,-3.0026424356334624,-0.073,-0.9839,-0.1611,-0.0262
31,2172057.0,2143.345381,1.0,1.83,1.29,-8.62,4.69,-22.25,32.88,22.25,64.44,-92.31,1.4893566963224405,-0.5432810551898022,1.042857309264365,-159.40959116439532,-18.541499822002773,-3.0026424356334624,-0.073,-0.9839,-0.1611,-0.0262
32,2172094.0,2143.3513190000003,1.0,2.34,0.89,-7.96,4.25,-21.87,33.0,19.25,68.12,-85.94,1.663279500380152,-0.9453149186365328,1.6845085946673883,-156.98580474112185,-21.21732993545333,-4.6536963885673295,-0.066,-0.9799,-0.1841,-0.0406
33,2172094.0,2143.3513190000003,1.0,2.34,0.89,-7.96,4.25,-21.87,33.0,19.25,68.12,-85.94,1.663279500380152,-0.9453149186365328,1.6845085946673883,-156.98580474112185,-21.21732993545333,-4.6536963885673295,-0.066,-0.9799,-0.1841,-0.0406
34,2172131.0,2143.4421199999997,1.0,2.71,-0.65,-7.6,5.38,-20.5,34.19,21.94,93.37,-81.87,1.0036366240737522,-2.327115736125652,2.118747433142495,-153.2614432071201,-24.78412249918103,-7.660420468145224,-0.0546,-0.9729,-0.2146,-0.0668
35,2172131.0,2143.4421199999997,1.0,2.71,-0.65,-7.6,5.38,-20.5,34.19,21.94,93.37,-81.87,1.0036366240737522,-2.327115736125652,2.118747433142495,-153.2614432071201,-24.78412249918103,-7.660420468145224,-0.0546,-0.9729,-0.2146,-0.0668
36,2172166.0,2143.458469,1.0,3.77,-1.31,-7.94,5.38,-20.5,34.19,1.37,136.0,-66.81,1.052796313821673,-3.26676889242192,1.6095504565573346,-150.21066214535367,-27.006438787370872,-11.075320376717384,-0.0474,-0.9664,-0.2335,-0.0965
37,2172166.0,2143.458469,1.0,3.77,-1.31,-7.94,5.38,-20.5,34.19,1.37,136.0,-66.81,1.052796313821673,-3.26676889242192,1.6095504565573346,-150.21066214535367,-27.006438787370872,-11.075320376717384,-0.0474,-0.9664,-0.2335,-0.0965
38,2172203.0,2143.505166,1.0,5.49,-0.73,-10.19,2.75,-20.56,35.38,-18.87,101.62,-28.62,1.3241514129189624,-3.487826515627896,-1.1747337576394583,-146.39227073603638,-28.93135507220408,-15.933684759016295,-0.0443,-0.9573,-0.2498,-0.1386
39,2172203.0,2143.505166,1.0,5.49,-0.73,-10.19,2.75,-20.56,35.38,-18.87,101.62,-28.62,1.3241514129189624,-3.487826515627896,-1.1747337576394583,-146.39227073603638,-28.93135507220408,-15.933684759016295,-0.0443,-0.9573,-0.2498,-0.1386
40,2172237.0,2143.523206,1.0,5.49,-1.07,-9.19,-0.19,-20.87,35.38,-15.38,83.5,-5.44,1.0181729726220543,-3.64681667792184,-0.2633625082073809,-144.87941908090357,-29.262840587223426,-18.35575126897081,-0.0422,-0.9534,-0.2526,-0.1595
41,2172237.0,2143.523206,1.0,5.49,-1.07,-9.19,-0.19,-20.87,35.38,-15.38,83.5,-5.44,1.0181729726220543,-3.64681667792184,-0.2633625082073809,-144.87941908090357,-29.262840587223426,-18.35575126897081,-0.0422,-0.9534,-0.2526,-0.1595
42,2172272.0,2143.526215,1.0,5.63,0.09,-9.66,-0.19,-20.87,35.38,-45.13,81.44,22.87,0.8586817550905691,-2.6299534780196288,-1.0269371412439892,-143.1724151146164,-28.682903338517608,-21.928912393640328,-0.0475,-0.9488,-0.2477,-0.1902
43,2172272.0,2143.526215,1.0,5.63,0.09,-9.66,-0.19,-20.87,35.38,-45.13,81.44,22.87,0.8586817550905691,-2.6299534780196288,-1.0269371412439892,-143.1724151146164,-28.682903338517608,-21.928912393640328,-0.0475,-0.9488,-0.2477,-0.1902
44,2172307.0,2143.5290579999996,1.0,6.42,-0.24,-10.77,-2.06,-21.5,34.19,-41.38,74.69,43.38,0.3013203993249016,-3.1545122077688963,-2.3269874903813506,-142.2760067690691,-26.923951406436,-25.21840683143225,-0.0521,-0.9463,-0.2328,-0.2183
45,2172307.0,2143.5290579999996,1.0,6.42,-0.24,-10.77,-2.06,-21.5,34.19,-41.38,74.69,43.38,0.3013203993249016,-3.1545122077688963,-2.3269874903813506,-142.2760067690691,-26.923951406436,-25.21840683143225,-0.0521,-0.9463,-0.2328,-0.2183
46,2172344.0,2143.568199,1.0,5.99,0.38,-9.75,-5.5,-22.69,33.88,-50.31,29.62,78.69,0.4386153072289105,-2.3307093470457927,-1.3943504263841469,-142.73954322436268,-24.537797991913113,-26.74724052277769,-0.0574,-0.9476,-0.2125,-0.2313
47,2172344.0,2143.568199,1.0,5.99,0.38,-9.75,-5.5,-22.69,33.88,-50.31,29.62,78.69,0.4386153072289105,-2.3307093470457927,-1.3943504263841469,-142.73954322436268,-24.537797991913113,-26.74724052277769,-0.0574,-0.9476,-0.2125,-0.2313
48,2172381.0,2143.587469,1.0,5.78,0.99,-9.19,-8.38,-23.75,32.88,-65.44,16.56,95.81,0.5554392953929734,-1.6344471650784471,-0.9573952272229144,-144.0161283848301,-20.4250635419962,-28.16278249153404,-0.0688,-0.9511,-0.1773,-0.2433
49,2172381.0,2143.587469,1.0,5.78,0.99,-9.19,-8.38,-23.75,32.88,-65.44,16.56,95.81,0.5554392953929734,-1.6344471650784471,-0.9573952272229144,-144.0161283848301,-20.4250635419962,-28.16278249153404,-0.0688,-0.9511,-0.1773,-0.2433
50,2172416.0,2143.6314780000002,1.0,5.57,2.63,-8.98,-8.38,-23.75,32.88,-79.62,2.56,117.87,0.754907053490078,0.0011761902524611845,-1.0566972722346255,-144.99354106549774,-16.720885966499374,-29.037876869982465,-0.08,-0.9537,-0.1454,-0.2507
51,2172416.0,2143.6314780000002,1.0,5.57,2.63,-8.98,-8.38,-23.75,32.88,-79.62,2.56,117.87,0.754907053490078,0.0011761902524611845,-1.0566972722346255,-144.99354106549774,-16.720885966499374,-29.037876869982465,-0.08,-0.9537,-0.1454,-0.2507
52,2172452.0,2143.6830170000003,1.0,4.86,3.04,-8.1,-11.75,-24.5,32.5,-68.75,-5.31,121.25,0.4503183219602123,0.7287822270024724,-0.07956716707216137,-146.35265556905202,-11.351662230904264,-29.59457663056109,-0.0938,-0.9572,-0.0989,-0.2554
53,2172452.0,2143.6830170000003,1.0,4.86,3.04,-8.1,-11.75,-24.5,32.5,-68.75,-5.31,121.25,0.4503183219602123,0.7287822270024724,-0.07956716707216137,-146.35265556905202,-11.351662230904264,-29.59457663056109,-0.0938,-0.9572,-0.0989,-0.2554
54,2172487.0,2143.6904640000002,1.0,4.85,3.45,-7.84,-14.69,-25.69,29.69,-75.37,4.69,117.94,0.3790297719987531,1.2078073143439652,0.04508568256830259,-146.71084020226166,-7.1207175606295605,-30.116390374671145,-0.1036,-0.9581,-0.0621,-0.2598
55,2172487.0,2143.6904640000002,1.0,4.85,3.45,-7.84,-14.69,-25.69,29.69,-75.37,4.69,117.94,0.3790297719987531,1.2078073143439652,0.04508568256830259,-146.71084020226166,-7.1207175606295605,-30.116390374671145,-0.1036,-0.9581,-0.0621,-0.2598
56,2172522.0,2143.708762,1.0,4.55,4.47,-7.76,-14.69,-25.69,29.69,-79.75,7.88,98.06,-0.20946594779744585,2.1846238291866253,0.004377674581608204,-145.91984007134727,-2.3263684457528235,-30.94787313807167,-0.1194,-0.9561,-0.0203,-0.2668
57,2172522.0,2143.708762,1.0,4.55,4.47,-7.76,-14.69,-25.69,29.69,-79.75,7.88,98.06,-0.20946594779744585,2.1846238291866253,0.004377674581608204,-145.91984007134727,-2.3263684457528235,-30.94787313807167,-0.1194,-0.9561,-0.0203,-0.2668
58,2172557.0,2143.794204,1.0,3.89,4.79,-7.29,-16.19,-25.69,28.56,-68.0,16.69,85.06,-0.9835913849283526,2.4999284286998504,0.6413237189081453,-144.20208645663692,1.5355728478655368,-32.031310917714855,-0.1348,-0.9516,0.0134,-0.2759
59,2172557.0,2143.794204,1.0,3.89,4.79,-7.29,-16.19,-25.69,28.56,-68.0,16.69,85.06,-0.9835913849283526,2.4999284286998504,0.6413237189081453,-144.20208645663692,1.5355728478655368,-32.031310917714855,-0.1348,-0.9516,0.0134,-0.2759
60,2172594.0,2143.84621,1.0,3.82,4.97,-7.07,-19.5,-25.25,27.0,-49.81,47.81,55.75,-1.3137316622970947,2.6004540411039705,0.8183271364406277,-142.31146828862353,3.7822081305683333,-33.356870714029654,-0.1448,-0.9464,0.033,-0.287
61,2172594.0,2143.84621,1.0,3.82,4.97,-7.07,-19.5,-25.25,27.0,-49.81,47.81,55.75,-1.3137316622970947,2.6004540411039705,0.8183271364406277,-142.31146828862353,3.7822081305683333,-33.356870714029654,-0.1448,-0.9464,0.033,-0.287
62,2172628.0,2143.861132,1.0,4.13,4.85,-7.44,-19.5,-25.25,27.0,-47.81,59.19,31.06,-1.7271344775363455,2.1415985764377234,0.4064605320209029,-139.30467314730421,5.468092286497271,-35.67278424373711,-0.1576,-0.9376,0.0477,-0.3063
63,2172628.0,2143.861132,1.0,4.13,4.85,-7.44,-19.5,-25.25,27.0,-47.81,59.19,31.06,-1.7271344775363455,2.1415985764377234,0.4064605320209029,-139.30467314730421,5.468092286497271,-35.67278424373711,-0.1576,-0.9376,0.0477,-0.3063
64,2172663.0,2143.865255,1.0,4.01,4.1,-6.24,-21.69,-25.37,25.75,-30.62,81.69,24.5,-1.3421917417093463,1.6836986709701767,1.6096151633129845,-136.90081703525604,6.099150260471113,-37.74944537405314,-0.1655,-0.9301,0.0532,-0.3235
65,2172663.0,2143.865255,1.0,4.01,4.1,-6.24,-21.69,-25.37,25.75,-30.62,81.69,24.5,-1.3421917417093463,1.6836986709701767,1.6096151633129845,-136.90081703525604,6.099150260471113,-37.74944537405314,-0.1655,-0.9301,0.0532,-0.3235
66,2172700.0,2143.9226710000003,1.0,6.11,4.21,-7.67,-24.0,-26.06,23.25,-32.13,100.37,7.13,-1.2928946621838444,1.021333013531766,-0.7370875853141694,-132.72485553305756,6.684478178549483,-41.66044293714295,-0.1758,-0.9161,0.0583,-0.3556
67,2172700.0,2143.9226710000003,1.0,6.11,4.21,-7.67,-24.0,-26.06,23.25,-32.13,100.37,7.13,-1.2928946621838444,1.021333013531766,-0.7370875853141694,-132.72485553305756,6.684478178549483,-41.66044293714295,-0.1758,-0.9161,0.0583,-0.3556
68,2172735.0,2143.9263,1.0,5.85,4.31,-6.75,-26.19,-25.0,21.25,-31.12,73.12,-16.06,-1.28417095268518,1.2232769673546016,0.04880195724900993,-130.26971625278716,6.569694717687418,-43.78915870024722,-0.1855,-0.9073,0.0573,-0.3729
69,2172735.0,2143.9263,1.0,5.85,4.31,-6.75,-26.19,-25.0,21.25,-31.12,73.12,-16.06,-1.28417095268518,1.2232769673546016,0.04880195724900993,-130.26971625278716,6.569694717687418,-43.78915870024722,-0.1855,-0.9073,0.0573,-0.3729
70,2172770.0,2143.966336,1.0,5.38,4.78,-5.79,-26.19,-25.0,21.25,-21.81,100.06,-32.5,-1.5259756405658256,1.7039152082537792,0.8576293101434143,-126.76054091134182,5.181303758795194,-47.03135704516996,-0.1984,-0.894,0.0452,-0.39899999999999997
71,2172770.0,2143.966336,1.0,5.38,4.78,-5.79,-26.19,-25.0,21.25,-21.81,100.06,-32.5,-1.5259756405658256,1.7039152082537792,0.8576293101434143,-126.76054091134182,5.181303758795194,-47.03135704516996,-0.1984,-0.894,0.0452,-0.39899999999999997
72,2172807.0,2144.025847,1.0,6.69,5.41,-6.37,-27.69,-26.5,17.56,1.37,115.0,-42.31,-1.6311817471755448,1.6897364045814514,-0.6377330354269173,-123.81779521129648,3.851001219583861,-49.9724050156561,-0.2053,-0.8822,0.0336,-0.4224
73,2172807.0,2144.025847,1.0,6.69,5.41,-6.37,-27.69,-26.5,17.56,1.37,115.0,-42.31,-1.6311817471755448,1.6897364045814514,-0.6377330354269173,-123.81779521129648,3.851001219583861,-49.9724050156561,-0.2053,-0.8822,0.0336,-0.4224
74,2172844.0,2144.041675,1.0,6.72,5.37,-5.65,-28.87,-27.56,16.0,20.75,53.44,-58.81,-1.339916495449585,1.6474959104072735,-0.26351290883188305,-121.3603761475579,1.3178319771025526,-52.45034316588912,-0.2104,-0.8719,0.0115,-0.4419
75,2172844.0,2144.041675,1.0,6.72,5.37,-5.65,-28.87,-27.56,16.0,20.75,53.44,-58.81,-1.339916495449585,1.6474959104072735,-0.26351290883188305,-121.3603761475579,1.3178319771025526,-52.45034316588912,-0.2104,-0.8719,0.0115,-0.4419
76,2172878.0,2144.081566,1.0,6.76,5.41,-4.6,-28.87,-27.56,16.0,34.06,76.69,-74.69,-0.5746747116605518,1.8604621117368945,0.1975850243340833,-120.04002661398823,-1.1803139285143014,-53.79554006963272,-0.2119,-0.8662,-0.0103,-0.4524
77,2172878.0,2144.081566,1.0,6.76,5.41,-4.6,-28.87,-27.56,16.0,34.06,76.69,-74.69,-0.5746747116605518,1.8604621117368945,0.1975850243340833,-120.04002661398823,-1.1803139285143014,-53.79554006963272,-0.2119,-0.8662,-0.0103,-0.4524
78,2172911.0,2144.1452050000003,1.0,7.94,4.94,-5.5,-28.87,-29.5,14.0,39.63,87.37,-93.44,-0.7624948652063092,0.4567224126835039,-1.0057135814879352,-117.32089688772969,-5.5598717686300585,-56.28940782045202,-0.2134,-0.8541,-0.0485,-0.4717
79,2172911.0,2144.1452050000003,1.0,7.94,4.94,-5.5,-28.87,-29.5,14.0,39.63,87.37,-93.44,-0.7624948652063092,0.4567224126835039,-1.0057135814879352,-117.32089688772969,-5.5598717686300585,-56.28940782045202,-0.2134,-0.8541,-0.0485,-0.4717
80,2172948.0,2144.164342,1.0,8.04,4.88,-5.01,-27.69,-31.0,13.25,51.88,63.19,-83.12,-0.4147620831187693,0.1858102345444568,-0.8399244242524073,-115.30102772408483,-9.821056182581472,-57.88085702604191,-0.2116,-0.8448,-0.0856,-0.4839
81,2172948.0,2144.164342,1.0,8.04,4.88,-5.01,-27.69,-31.0,13.25,51.88,63.19,-83.12,-0.4147620831187693,0.1858102345444568,-0.8399244242524073,-115.30102772408483,-9.821056182581472,-57.88085702604191,-0.2116,-0.8448,-0.0856,-0.4839
82,2172985.0,2144.202151,1.0,8.6,4.79,-4.91,-25.37,-32.5,12.5,60.0,60.94,-76.5,-0.11938536754786246,-0.2819130055600469,-1.1896435660754126,-113.94309450479722,-12.930431986971733,-58.87843997243265,-0.2073,-0.8384,-0.1126,-0.4915
83,2172985.0,2144.202151,1.0,8.6,4.79,-4.91,-25.37,-32.5,12.5,60.0,60.94,-76.5,-0.11938536754786246,-0.2819130055600469,-1.1896435660754126,-113.94309450479722,-12.930431986971733,-58.87843997243265,-0.2073,-0.8384,-0.1126,-0.4915
84,2173018.0,2144.2632989999997,1.0,8.66,4.46,-4.57,-25.37,-32.5,12.5,70.0,49.19,-67.94,0.14853947642027293,-0.7328577574726804,-0.9270798052101624,-112.48564315719341,-16.906223928806188,-59.76196847937517,-0.1975,-0.8314,-0.147,-0.4982
85,2173018.0,2144.2632989999997,1.0,8.66,4.46,-4.57,-25.37,-32.5,12.5,70.0,49.19,-67.94,0.14853947642027293,-0.7328577574726804,-0.9270798052101624,-112.48564315719341,-16.906223928806188,-59.76196847937517,-0.1975,-0.8314,-0.147,-0.4982
86,2173054.0,2144.270427,1.0,9.84,3.49,-5.61,-23.87,-32.88,14.06,66.0,25.75,-46.44,-0.34821370782383804,-2.3559370030079467,-1.8039532595874004,-111.74680725300392,-19.494244164289388,-60.11912281043993,-0.1877,-0.8278,-0.1693,-0.5009
87,2173054.0,2144.270427,1.0,9.84,3.49,-5.61,-23.87,-32.88,14.06,66.0,25.75,-46.44,-0.34821370782383804,-2.3559370030079467,-1.8039532595874004,-111.74680725300392,-19.494244164289388,-60.11912281043993,-0.1877,-0.8278,-0.1693,-0.5009
88,2173091.0,2144.335741,1.0,9.17,4.59,-5.19,-21.56,-34.38,15.25,49.38,-31.5,-35.75,0.10929770201998497,-1.1146451606671317,-1.631825430674077,-112.30026879409438,-21.882225322200526,-58.970568079244025,-0.179,-0.8305,-0.1898,-0.4922
89,2173091.0,2144.335741,1.0,9.17,4.59,-5.19,-21.56,-34.38,15.25,49.38,-31.5,-35.75,0.10929770201998497,-1.1146451606671317,-1.631825430674077,-112.30026879409438,-21.882225322200526,-58.970568079244025,-0.179,-0.8305,-0.1898,-0.4922
90,2173126.0,2144.388816,1.0,7.82,4.02,-4.06,-21.56,-34.38,15.25,58.81,-24.44,-33.94,0.6965688003414041,-0.8788005436112116,0.1869357884997669,-113.23167638730342,-23.41318918903326,-57.553756403368006,-0.1727,-0.835,-0.2029,-0.4814
91,2173126.0,2144.388816,1.0,7.82,4.02,-4.06,-21.56,-34.38,15.25,58.81,-24.44,-33.94,0.6965688003414041,-0.8788005436112116,0.1869357884997669,-113.23167638730342,-23.41318918903326,-57.553756403368006,-0.1727,-0.835,-0.2029,-0.4814
92,2173161.0,2144.451662,1.0,8.14,3.21,-4.91,-20.5,-33.56,16.75,52.44,-17.0,-19.75,0.19839356352572507,-1.806920416397185,-0.060846065505096185,-114.04828796434656,-25.265378432632104,-56.27641242483391,-0.1614,-0.8389,-0.2187,-0.4716
93,2173161.0,2144.451662,1.0,8.14,3.21,-4.91,-20.5,-33.56,16.75,52.44,-17.0,-19.75,0.19839356352572507,-1.806920416397185,-0.060846065505096185,-114.04828796434656,-25.265378432632104,-56.27641242483391,-0.1614,-0.8389,-0.2187,-0.4716
94,2173196.0,2144.469375,1.0,7.37,3.81,-4.47,-19.37,-34.38,18.0,41.5,-30.37,-8.44,0.5662351371163185,-0.8488442049040585,0.4379392410270402,-115.0018244008949,-26.00575632582789,-55.135868994465206,-0.1549,-0.8434,-0.225,-0.4628
95,2173196.0,2144.469375,1.0,7.37,3.81,-4.47,-19.37,-34.38,18.0,41.5,-30.37,-8.44,0.5662351371163185,-0.8488442049040585,0.4379392410270402,-115.0018244008949,-26.00575632582789,-55.135868994465206,-0.1549,-0.8434,-0.225,-0.4628
96,2173233.0,2144.47377,1.0,7.08,3.61,-4.28,-18.25,-32.88,19.25,20.31,-14.31,-1.37,0.7403133547147394,-0.8327874347898547,0.8492340095880788,-115.94637091735842,-26.547046453502677,-54.026945257147645,-0.1489,-0.8478,-0.2296,-0.4542
97,2173233.0,2144.47377,1.0,7.08,3.61,-4.28,-18.25,-32.88,19.25,20.31,-14.31,-1.37,0.7403133547147394,-0.8327874347898547,0.8492340095880788,-115.94637091735842,-26.547046453502677,-54.026945257147645,-0.1489,-0.8478,-0.2296,-0.4542
98,2173267.0,2144.517034,1.0,7.1,4.02,-4.9,-18.25,-32.88,19.25,11.19,-12.75,-0.56,0.4424398426879119,-0.5088438259646157,0.3131930455297276,-116.4886280777146,-26.688351311037593,-53.436046525616895,-0.1466,-0.8503,-0.2308,-0.4496
99,2173267.0,2144.517034,1.0,7.1,4.02,-4.9,-18.25,-32.88,19.25,11.19,-12.75,-0.56,0.4424398426879119,-0.5088438259646157,0.3131930455297276,-116.4886280777146,-26.688351311037593,-53.436046525616895,-0.1466,-0.8503,-0.2308,-0.4496
100,2173304.0,2144.5354350000002,1.0,6.69,4.43,-5.05,-18.25,-33.56,20.5,0.25,-7.31,2.13,0.2685400465204064,0.04574695851775479,0.3298734668532361,-116.77224597329428,-26.629469277048536,-53.153985232120654,-0.1467,-0.8516,-0.2303,-0.4474
101,2173304.0,2144.5354350000002,1.0,6.69,4.43,-5.05,-18.25,-33.56,20.5,0.25,-7.31,2.13,0.2685400465204064,0.04574695851775479,0.3298734668532361,-116.77224597329428,-26.629469277048536,-53.153985232120654,-0.1467,-0.8516,-0.2303,-0.4474
102,2173339.0,2144.539055,1.0,6.67,4.38,-5.1,-17.56,-32.88,20.5,-0.44,-6.44,2.44,0.2381846206658509,0.015777666664356094,0.3395322151769502,-117.03506304367224,-26.499953978465857,-52.936266526907346,-0.1468,-0.8528,-0.2292,-0.4457
103,2173339.0,2144.539055,1.0,6.67,4.38,-5.1,-17.56,-32.88,20.5,-0.44,-6.44,2.44,0.2381846206658509,0.015777666664356094,0.3395322151769502,-117.03506304367224,-26.499953978465857,-52.936266526907346,-0.1468,-0.8528,-0.2292,-0.4457
104,2173374.0,2144.5965149999997,1.0,6.85,4.31,-5.41,-17.56,-32.88,20.5,-5.38,-1.75,5.38,0.05342064407816827,-0.14150553825390988,0.07300615930859244,-117.12288767556585,-26.32339770363258,-52.92346596535568,-0.147,-0.8532,-0.2277,-0.4456
105,2173374.0,2144.5965149999997,1.0,6.85,4.31,-5.41,-17.56,-32.88,20.5,-5.38,-1.75,5.38,0.05342064407816827,-0.14150553825390988,0.07300615930859244,-117.12288767556585,-26.32339770363258,-52.92346596535568,-0.147,-0.8532,-0.2277,-0.4456
106,2173409.0,2144.602284,1.0,7.05,4.73,-5.78,-17.87,-32.5,20.06,-8.44,-6.19,6.25,-0.050267866995150456,0.08649040185569756,-0.4633934542378935,-117.32089688772969,-25.86464777060069,-52.846677531793524,-0.1495,-0.8541,-0.2238,-0.445
107,2173409.0,2144.602284,1.0,7.05,4.73,-5.78,-17.87,-32.5,20.06,-8.44,-6.19,6.25,-0.050267866995150456,0.08649040185569756,-0.4633934542378935,-117.32089688772969,-25.86464777060069,-52.846677531793524,-0.1495,-0.8541,-0.2238,-0.445
108,2173444.0,2144.6426079999997,1.0,6.89,4.74,-5.89,-16.75,-33.56,21.69,-2.38,-21.37,4.75,-0.16335999064868933,0.1558142078820799,-0.4198271767249988,-117.69645604638977,-25.700071520307283,-52.47589269472505,-0.1506,-0.8558,-0.2224,-0.4421
109,2173444.0,2144.6426079999997,1.0,6.89,4.74,-5.89,-16.75,-33.56,21.69,-2.38,-21.37,4.75,-0.16335999064868933,0.1558142078820799,-0.4198271767249988,-117.69645604638977,-25.700071520307283,-52.47589269472505,-0.1506,-0.8558,-0.2224,-0.4421
110,2173480.0,2144.710478,1.0,6.23,4.66,-5.42,-16.75,-33.56,21.69,-5.63,-25.87,3.88,-0.03821901788970822,0.4356838339766744,0.33492265471165794,-118.36422556879907,-25.429813082479118,-51.79977218612414,-0.1521,-0.8588,-0.2201,-0.4368
111,2173480.0,2144.710478,1.0,6.23,4.66,-5.42,-16.75,-33.56,21.69,-5.63,-25.87,3.88,-0.03821901788970822,0.4356838339766744,0.33492265471165794,-118.36422556879907,-25.429813082479118,-51.79977218612414,-0.1521,-0.8588,-0.2201,-0.4368
112,2173515.0,2144.728431,1.0,6.35,4.72,-5.68,-17.19,-33.25,19.69,-7.63,-12.06,5.75,-0.10688164110422103,0.3749722742476811,0.07467835452443873,-118.9708445669936,-24.97187636961762,-51.23993373594613,-0.1553,-0.8615,-0.2162,-0.4324
113,2173515.0,2144.728431,1.0,6.35,4.72,-5.68,-17.19,-33.25,19.69,-7.63,-12.06,5.75,-0.10688164110422103,0.3749722742476811,0.07467835452443873,-118.9708445669936,-24.97187636961762,-51.23993373594613,-0.1553,-0.8615,-0.2162,-0.4324
114,2173550.0,2144.771592,1.0,6.6,4.74,-6.07,-17.87,-32.06,20.75,-7.19,-9.63,2.94,-0.2571639660654863,0.2111919929372124,-0.33049775647847923,-119.26487102928002,-24.666810678302642,-50.973200800075034,-0.1575,-0.8628,-0.2136,-0.4303
115,2173550.0,2144.771592,1.0,6.6,4.74,-6.07,-17.87,-32.06,20.75,-7.19,-9.63,2.94,-0.2571639660654863,0.2111919929372124,-0.33049775647847923,-119.26487102928002,-24.666810678302642,-50.973200800075034,-0.1575,-0.8628,-0.2136,-0.4303
116,2173585.0,2144.810531,1.0,6.35,4.77,-5.83,-16.37,-32.5,21.0,-5.13,-17.5,3.25,-0.1364201266994049,0.3632483251793004,-0.03782765009834144,-119.62852711601612,-24.50261820231894,-50.57999179913578,-0.1589,-0.8644,-0.2122,-0.4272
117,2173585.0,2144.810531,1.0,6.35,4.77,-5.83,-16.37,-32.5,21.0,-5.13,-17.5,3.25,-0.1364201266994049,0.3632483251793004,-0.03782765009834144,-119.62852711601612,-24.50261820231894,-50.57999179913578,-0.1589,-0.8644,-0.2122,-0.4272
118,2173620.0,2144.835795,1.0,6.29,4.67,-5.78,-16.37,-32.5,21.0,-1.75,-11.0,3.25,-0.08805774669989508,0.2869231739908891,0.07570344144398433,-120.08590691104773,-24.291588578811197,-50.111510359679706,-0.1607,-0.8664,-0.2104,-0.4235
119,2173620.0,2144.835795,1.0,6.29,4.67,-5.78,-16.37,-32.5,21.0,-1.75,-11.0,3.25,-0.08805774669989508,0.2869231739908891,0.07570344144398433,-120.08590691104773,-24.291588578811197,-50.111510359679706,-0.1607,-0.8664,-0.2104,-0.4235
120,2173657.0,2144.902832,1.0,6.48,4.69,-6.07,-16.75,-32.88,20.06,-3.63,-8.5,1.75,-0.1865552845871729,0.16592642154676662,-0.23172962763041305,-120.26974778474064,-24.127512270969643,-49.90920133357593,-0.1619,-0.8672,-0.209,-0.4219
121,2173657.0,2144.902832,1.0,6.48,4.69,-6.07,-16.75,-32.88,20.06,-3.63,-8.5,1.75,-0.1865552845871729,0.16592642154676662,-0.23172962763041305,-120.26974778474064,-24.127512270969643,-49.90920133357593,-0.1619,-0.8672,-0.209,-0.4219
122,2173691.0,2144.921605,1.0,6.48,4.57,-5.98,-16.75,-32.5,21.0,-1.19,-5.44,0.19,-0.10728558074663593,0.0562874854861386,-0.12416172528920374,-120.47718468766024,-24.05720924110893,-49.66917497940315,-0.1628,-0.8681,-0.2084,-0.42
123,2173691.0,2144.921605,1.0,6.48,4.57,-5.98,-16.75,-32.5,21.0,-1.19,-5.44,0.19,-0.10728558074663593,0.0562874854861386,-0.12416172528920374,-120.47718468766024,-24.05720924110893,-49.66917497940315,-0.1628,-0.8681,-0.2084,-0.42
124,2173726.0,2144.9248,1.0,6.37,4.65,-5.89,-16.75,-32.5,21.0,-1.75,-4.44,1.5,-0.0614011578655107,0.1789810686503981,-0.03487913295883871,-120.61584152012749,-23.975200651636385,-49.53031871016275,-0.1636,-0.8687,-0.2077,-0.4189
125,2173726.0,2144.9248,1.0,6.37,4.65,-5.89,-16.75,-32.5,21.0,-1.75,-4.44,1.5,-0.0614011578655107,0.1789810686503981,-0.03487913295883871,-120.61584152012749,-23.975200651636385,-49.53031871016275,-0.1636,-0.8687,-0.2077,-0.4189
126,2173761.0,2144.97957,1.0,6.56,4.59,-6.13,-17.19,-32.88,21.25,-1.5,-4.69,2.31,-0.13868679016732482,0.005049400765927636,-0.2759756737907786,-120.777980646449,-23.858067126010045,-49.39154002007115,-0.16399999999999998,-0.8694,-0.2067,-0.4178
127,2173761.0,2144.97957,1.0,6.56,4.59,-6.13,-17.19,-32.88,21.25,-1.5,-4.69,2.31,-0.13868679016732482,0.005049400765927636,-0.2759756737907786,-120.777980646449,-23.858067126010045,-49.39154002007115,-0.16399999999999998,-0.8694,-0.2067,-0.4178
128,2173796.0,2145.020489,1.0,6.45,4.58,-5.96,-16.06,-32.88,20.87,-2.06,-5.88,1.56,-0.04644648953359204,0.06539254142921846,-0.0975948747562505,-120.94052444578816,-23.76437852052494,-49.24023317275956,-0.1645,-0.8701,-0.2059,-0.4166
129,2173796.0,2145.020489,1.0,6.45,4.58,-5.96,-16.06,-32.88,20.87,-2.06,-5.88,1.56,-0.04644648953359204,0.06539254142921846,-0.0975948747562505,-120.94052444578816,-23.76437852052494,-49.24023317275956,-0.1645,-0.8701,-0.2059,-0.4166
130,2173831.0,2145.038343,1.0,6.2,4.41,-5.89,-16.06,-32.88,20.87,-1.31,-6.56,1.56,-0.14586622858288684,0.044398381657440485,0.1859976402550956,-121.10347629286508,-23.68241421184977,-49.063824131557034,-0.165,-0.8708,-0.2052,-0.4152
131,2173831.0,2145.038343,1.0,6.2,4.41,-5.89,-16.06,-32.88,20.87,-1.31,-6.56,1.56,-0.14586622858288684,0.044398381657440485,0.1859976402550956,-121.10347629286508,-23.68241421184977,-49.063824131557034,-0.165,-0.8708,-0.2052,-0.4152
132,2173863.0,2145.087634,1.0,6.47,4.63,-6.17,-17.19,-33.56,22.06,-5.63,-5.0,3.13,-0.14768568123745499,0.052474412685475265,-0.26023310131644983,-121.2668396082864,-23.530227351542678,-48.91271498969397,-0.1663,-0.8715,-0.2039,-0.414
133,2173863.0,2145.087634,1.0,6.47,4.63,-6.17,-17.19,-33.56,22.06,-5.63,-5.0,3.13,-0.14768568123745499,0.052474412685475265,-0.26023310131644983,-121.2668396082864,-23.530227351542678,-48.91271498969397,-0.1663,-0.8715,-0.2039,-0.414
134,2173898.0,2145.107564,1.0,6.34,4.59,-6.16,-16.06,-33.25,22.06,-5.13,-10.94,2.69,-0.2004127931184816,0.06999023582558284,-0.15147412451479347,-121.40719542947477,-23.436594836002673,-48.73653543441946,-0.1672,-0.8721,-0.2031,-0.4126
135,2173898.0,2145.107564,1.0,6.34,4.59,-6.16,-16.06,-33.25,22.06,-5.13,-10.94,2.69,-0.2004127931184816,0.06999023582558284,-0.15147412451479347,-121.40719542947477,-23.436594836002673,-48.73653543441946,-0.1672,-0.8721,-0.2031,-0.4126
136,2173933.0,2145.151879,1.0,6.11,4.57,-6.08,-17.56,-33.56,21.69,-9.44,-21.31,3.31,-0.19756033307201287,0.13195042378906896,0.05334497039806685,-121.97171183603344,-23.08561363949995,-48.133417932241116,-0.1704,-0.8745,-0.2001,-0.4078
137,2173933.0,2145.151879,1.0,6.11,4.57,-6.08,-17.56,-33.56,21.69,-9.44,-21.31,3.31,-0.19756033307201287,0.13195042378906896,0.05334497039806685,-121.97171183603344,-23.08561363949995,-48.133417932241116,-0.1704,-0.8745,-0.2001,-0.4078
