,TIME,ELAPSED_SECONDS,PSTATE,acc_x,acc_y,acc_z,mag_x,mag_y,mag_z,gyr_x,gyr_y,gyr_z,lin_x,lin_y,lin_z,eul_x,eul_y,eul_z,qua_w,qua_x,qua_y,qua_z
0,1652258.0,133.145759,1.0,6.85,1.22,-6.9,-28.5,-23.37,19.69,-16.06,-9.5,9.13,0.8247764253282377,-0.87642094126164,0.08180911791144753,-130.87269286132405,19.633782752905432,-38.06446294953504,-0.1934,-0.9095,0.1705,-0.3261
1,1652258.0,133.145759,1.0,6.85,1.22,-6.9,-28.5,-23.37,19.69,-16.06,-9.5,9.13,0.8247764253282377,-0.87642094126164,0.08180911791144753,-130.87269286132405,19.633782752905432,-38.06446294953504,-0.1934,-0.9095,0.1705,-0.3261
2,1652293.0,133.22056899999998,1.0,7.21,0.66,-7.11,-29.19,-22.69,21.0,-16.19,-7.0,21.5,1.253020348024656,-1.3578395951576447,-0.17122610873467892,-130.51555621027464,20.57644875978384,-37.79789028318413,-0.1957,-0.9082,0.1786,-0.3239
3,1652293.0,133.22056899999998,1.0,7.21,0.66,-7.11,-29.19,-22.69,21.0,-16.19,-7.0,21.5,1.253020348024656,-1.3578395951576447,-0.17122610873467892,-130.51555621027464,20.57644875978384,-37.79789028318413,-0.1957,-0.9082,0.1786,-0.3239
4,1652330.0,133.242391,1.0,7.19,-0.28,-6.94,-28.87,-23.06,20.06,-34.19,-18.69,21.56,1.8318491635205127,-2.060043639338096,0.1973498774035658,-130.18802216268048,21.555518290408003,-37.33794513405029,-0.1995,-0.907,0.187,-0.3201
5,1652330.0,133.242391,1.0,7.19,-0.28,-6.94,-28.87,-23.06,20.06,-34.19,-18.69,21.56,1.8318491635205127,-2.060043639338096,0.1973498774035658,-130.18802216268048,21.555518290408003,-37.33794513405029,-0.1995,-0.907,0.187,-0.3201
6,1652365.0,133.318108,1.0,5.88,-0.19,-6.89,-30.0,-22.69,20.5,-52.5,-27.62,7.44,1.0915669606753793,-2.3030363405650327,1.1125655062537625,-129.83545382657294,22.79329707445838,-36.10640826375515,-0.2112,-0.9057,0.1976,-0.3099
7,1652365.0,133.318108,1.0,5.88,-0.19,-6.89,-30.0,-22.69,20.5,-52.5,-27.62,7.44,1.0915669606753793,-2.3030363405650327,1.1125655062537625,-129.83545382657294,22.79329707445838,-36.10640826375515,-0.2112,-0.9057,0.1976,-0.3099
8,1652400.0,133.364775,1.0,3.92,-2.0,-6.2,-30.0,-22.69,20.5,-66.81,-14.81,13.31,1.0445251069174644,-3.975135239837276,3.4102707800019454,-129.2975202216285,23.600462193143148,-35.31183406453793,-0.2223,-0.9037,0.2045,-0.3033
9,1652400.0,133.364775,1.0,3.92,-2.0,-6.2,-30.0,-22.69,20.5,-66.81,-14.81,13.31,1.0445251069174644,-3.975135239837276,3.4102707800019454,-129.2975202216285,23.600462193143148,-35.31183406453793,-0.2223,-0.9037,0.2045,-0.3033
10,1652436.0,133.372972,1.0,6.0,1.21,-5.64,-29.19,-24.19,19.69,-118.31,0.0,39.69,1.2769402225532165,-0.8247458463533142,1.623562687930752,-126.30202625936262,26.32339770363258,-34.73506381234489,-0.2512,-0.8922,0.2277,-0.2985
11,1652436.0,133.372972,1.0,6.0,1.21,-5.64,-29.19,-24.19,19.69,-118.31,0.0,39.69,1.2769402225532165,-0.8247458463533142,1.623562687930752,-126.30202625936262,26.32339770363258,-34.73506381234489,-0.2512,-0.8922,0.2277,-0.2985
12,1652471.0,133.43776100000002,1.0,6.56,2.91,-5.37,-28.87,-24.56,18.06,-69.56,-6.81,-13.0,0.9218444525319868,0.5632650439909246,0.9088112008559132,-124.84860239500851,27.312945744821853,-34.05132504616154,-0.2696,-0.8864,0.2361,-0.2928
13,1652471.0,133.43776100000002,1.0,6.56,2.91,-5.37,-28.87,-24.56,18.06,-69.56,-6.81,-13.0,0.9218444525319868,0.5632650439909246,0.9088112008559132,-124.84860239500851,27.312945744821853,-34.05132504616154,-0.2696,-0.8864,0.2361,-0.2928
14,1652506.0,133.446077,1.0,4.59,-2.14,-5.84,-28.87,-24.56,18.06,-79.87,-1.81,-4.25,2.404589062144028,-4.134725796593781,3.734146889321568,-124.52765968867384,26.923951406436,-33.11769717298479,-0.2849,-0.8851,0.2328,-0.285
15,1652506.0,133.446077,1.0,4.59,-2.14,-5.84,-28.87,-24.56,18.06,-79.87,-1.81,-4.25,2.404589062144028,-4.134725796593781,3.734146889321568,-124.52765968867384,26.923951406436,-33.11769717298479,-0.2849,-0.8851,0.2328,-0.285
16,1652541.0,133.465725,1.0,7.37,7.44,-3.54,-31.5,-24.87,15.56,-190.5,-70.0,75.44,-0.413809601952811,4.555011520563365,-0.25728221662719264,-121.03358960360973,30.61508221704001,-30.769559206882434,-0.3196,-0.8705,0.264,-0.2653
17,1652541.0,133.465725,1.0,7.37,7.44,-3.54,-31.5,-24.87,15.56,-190.5,-70.0,75.44,-0.413809601952811,4.555011520563365,-0.25728221662719264,-121.03358960360973,30.61508221704001,-30.769559206882434,-0.3196,-0.8705,0.264,-0.2653
18,1652578.0,133.46905700000002,1.0,6.85,3.68,-4.38,-30.69,-25.37,16.0,-4.69,-35.0,-17.62,1.3639351835471805,1.4072191414881072,1.0998299660891335,-119.49192425354241,33.309024075692264,-29.037876869982465,-0.3299,-0.8638,0.2866,-0.2507
19,1652578.0,133.46905700000002,1.0,6.85,3.68,-4.38,-30.69,-25.37,16.0,-4.69,-35.0,-17.62,1.3639351835471805,1.4072191414881072,1.0998299660891335,-119.49192425354241,33.309024075692264,-29.037876869982465,-0.3299,-0.8638,0.2866,-0.2507
20,1652613.0,133.520398,1.0,4.05,-0.63,-4.68,-30.69,-25.37,16.0,-71.37,-102.12,-89.06,2.4305547016568787,-2.374473856864335,4.595500631067896,-121.19677615362599,32.21017938044361,-26.229260388868166,-0.3354,-0.8712,0.2774,-0.2269
21,1652613.0,133.520398,1.0,4.05,-0.63,-4.68,-30.69,-25.37,16.0,-71.37,-102.12,-89.06,2.4305547016568787,-2.374473856864335,4.595500631067896,-121.19677615362599,32.21017938044361,-26.229260388868166,-0.3354,-0.8712,0.2774,-0.2269
22,1652647.0,133.54174799999998,1.0,4.36,10.0,-0.71,-31.87,-24.56,15.19,-219.5,-141.25,-26.19,-2.858379191389948,6.4188187831100265,1.4315599212114218,-118.72304914641389,34.015373611081245,-17.833592505981915,-0.3875,-0.8604,0.2925,-0.155
23,1652647.0,133.54174799999998,1.0,4.36,10.0,-0.71,-31.87,-24.56,15.19,-219.5,-141.25,-26.19,-2.858379191389948,6.4188187831100265,1.4315599212114218,-118.72304914641389,34.015373611081245,-17.833592505981915,-0.3875,-0.8604,0.2925,-0.155
24,1652684.0,133.596094,1.0,3.17,3.66,-4.75,-28.5,-26.37,15.5,31.56,15.81,18.0,0.06763967596020204,-0.4633208232257029,3.0399847438341934,-117.94055354353924,35.07140174532199,-16.929394296591493,-0.3915,-0.8569,0.3013,-0.1472
25,1652684.0,133.596094,1.0,3.17,3.66,-4.75,-28.5,-26.37,15.5,31.56,15.81,18.0,0.06763967596020204,-0.4633208232257029,3.0399847438341934,-117.94055354353924,35.07140174532199,-16.929394296591493,-0.3915,-0.8569,0.3013,-0.1472
26,1652721.0,133.601652,1.0,3.31,3.09,-4.45,-27.0,-27.56,15.0,-199.94,-10.13,-161.56,0.978395089102536,-0.8466082955583705,3.591129310346414,-116.77224597329428,32.222106806155665,-14.68496232374226,-0.4259,-0.8516,0.2775,-0.1278
27,1652721.0,133.601652,1.0,3.31,3.09,-4.45,-27.0,-27.56,15.0,-199.94,-10.13,-161.56,0.978395089102536,-0.8466082955583705,3.591129310346414,-116.77224597329428,32.222106806155665,-14.68496232374226,-0.4259,-0.8516,0.2775,-0.1278
28,1652754.0,133.6268,1.0,0.41,7.73,-1.66,-27.0,-27.56,15.0,-242.56,-45.63,-139.44,-3.191334194899098,1.7009870116321273,2.764020573235696,-112.05379617607242,29.037876869982465,-8.200293609338797,-0.4944,-0.8293,0.2507,-0.0715
29,1652754.0,133.6268,1.0,0.41,7.73,-1.66,-27.0,-27.56,15.0,-242.56,-45.63,-139.44,-3.191334194899098,1.7009870116321273,2.764020573235696,-112.05379617607242,29.037876869982465,-8.200293609338797,-0.4944,-0.8293,0.2507,-0.0715
30,1652791.0,133.741088,1.0,-0.91,10.04,0.18,-24.37,-31.69,13.06,-221.13,5.06,-62.63,-5.181782099481862,2.9180869046902247,1.6644142449899064,-107.53011997485687,27.59605210118816,-5.112479412053579,-0.539,-0.8066,0.2385,-0.0446
31,1652791.0,133.741088,1.0,-0.91,10.04,0.18,-24.37,-31.69,13.06,-221.13,5.06,-62.63,-5.181782099481862,2.9180869046902247,1.6644142449899064,-107.53011997485687,27.59605210118816,-5.112479412053579,-0.539,-0.8066,0.2385,-0.0446
32,1652830.0,133.755797,1.0,1.15,11.22,-0.31,-21.75,-36.38,7.25,-185.0,65.31,2.88,-3.3609640280730857,2.1413461164014898,-0.7491805031755323,-100.51042463462828,26.38224270571989,-4.424333322525307,-0.596,-0.7689,0.2282,-0.0386
33,1652830.0,133.755797,1.0,1.15,11.22,-0.31,-21.75,-36.38,7.25,-185.0,65.31,2.88,-3.3609640280730857,2.1413461164014898,-0.7491805031755323,-100.51042463462828,26.38224270571989,-4.424333322525307,-0.596,-0.7689,0.2282,-0.0386
34,1652865.0,133.759673,1.0,1.5,11.17,-0.02,-21.75,-36.38,7.25,-178.69,58.19,15.5,-2.9148509621093237,1.4627915502544182,-0.9814538532818524,-95.29260089270693,25.71182517460623,-4.791323123878448,-0.6346,-0.7390000000000001,0.2225,-0.0418
35,1652865.0,133.759673,1.0,1.5,11.17,-0.02,-21.75,-36.38,7.25,-178.69,58.19,15.5,-2.9148509621093237,1.4627915502544182,-0.9814538532818524,-95.29260089270693,25.71182517460623,-4.791323123878448,-0.6346,-0.7390000000000001,0.2225,-0.0418
36,1652899.0,133.810526,1.0,0.17,8.01,0.75,-21.75,-38.69,-0.19,-197.69,66.19,5.44,-2.908839192481274,0.560733319171054,2.324956829530074,-88.27776872555569,24.819321185763364,-5.146891353190199,-0.6832,-0.6964,0.2149,-0.0449
37,1652899.0,133.810526,1.0,0.17,8.01,0.75,-21.75,-38.69,-0.19,-197.69,66.19,5.44,-2.908839192481274,0.560733319171054,2.324956829530074,-88.27776872555569,24.819321185763364,-5.146891353190199,-0.6832,-0.6964,0.2149,-0.0449
38,1652934.0,133.831286,1.0,1.81,10.3,4.23,-22.69,-38.38,-6.75,-228.19,65.69,1.69,-2.751596209010601,2.6532870041475705,-0.8069161479156078,-79.79258672651936,23.483409106034056,-5.204245622111723,-0.7383,-0.6414,0.2035,-0.0454
39,1652934.0,133.831286,1.0,1.81,10.3,4.23,-22.69,-38.38,-6.75,-228.19,65.69,1.69,-2.751596209010601,2.6532870041475705,-0.8069161479156078,-79.79258672651936,23.483409106034056,-5.204245622111723,-0.7383,-0.6414,0.2035,-0.0454
40,1652971.0,133.878454,1.0,1.18,8.77,4.63,-21.56,-36.0,-15.38,-208.19,77.44,40.06,-2.8393078782598997,2.1313905709049727,0.4718921024051905,-73.51078365135078,22.851748300506443,-5.984399237389443,-0.7745,-0.5984,0.1981,-0.0522
41,1652971.0,133.878454,1.0,1.18,8.77,4.63,-21.56,-36.0,-15.38,-208.19,77.44,40.06,-2.8393078782598997,2.1313905709049727,0.4718921024051905,-73.51078365135078,22.851748300506443,-5.984399237389443,-0.7745,-0.5984,0.1981,-0.0522
42,1653006.0,133.941553,1.0,1.54,7.14,6.81,-21.56,-36.0,-15.38,-207.06,109.44,29.37,-2.277757662970171,3.3861159806588037,0.6921923313118796,-65.21757686713724,20.82107094211026,-7.729330710703709,-0.82,-0.5389,0.1807,-0.0674
43,1653006.0,133.941553,1.0,1.54,7.14,6.81,-21.56,-36.0,-15.38,-207.06,109.44,29.37,-2.277757662970171,3.3861159806588037,0.6921923313118796,-65.21757686713724,20.82107094211026,-7.729330710703709,-0.82,-0.5389,0.1807,-0.0674
44,1653043.0,133.94954199999998,1.0,2.46,6.73,9.26,-20.5,-32.56,-22.56,-218.5,140.38,76.75,-1.623785806611037,4.511389734996026,-0.8752403904328219,-58.05115338810375,19.05256341690962,-9.76355056625781,-0.8544,-0.4852,0.1655,-0.0851
45,1653043.0,133.94954199999998,1.0,2.46,6.73,9.26,-20.5,-32.56,-22.56,-218.5,140.38,76.75,-1.623785806611037,4.511389734996026,-0.8752403904328219,-58.05115338810375,19.05256341690962,-9.76355056625781,-0.8544,-0.4852,0.1655,-0.0851
46,1653080.0,134.022978,1.0,4.86,6.51,10.72,-17.5,-26.87,-33.19,-222.69,181.94,98.0,0.8128246178490663,3.527297757112558,-3.1477155449924386,-48.40966960291665,15.609765091037287,-15.239724647140953,-0.8921,-0.41,0.1358,-0.1326
47,1653080.0,134.022978,1.0,4.86,6.51,10.72,-17.5,-26.87,-33.19,-222.69,181.94,98.0,0.8128246178490663,3.527297757112558,-3.1477155449924386,-48.40966960291665,15.609765091037287,-15.239724647140953,-0.8921,-0.41,0.1358,-0.1326
48,1653114.0,134.046653,1.0,4.73,6.77,11.77,-17.5,-26.87,-33.19,-255.63,135.06,77.25,0.5725120783555016,2.0966301189412,-4.406550627039836,-40.38800996971994,13.622622983127284,-18.06561632088332,-0.9177,-0.3452,0.1186,-0.157
49,1653114.0,134.046653,1.0,4.73,6.77,11.77,-17.5,-26.87,-33.19,-255.63,135.06,77.25,0.5725120783555016,2.0966301189412,-4.406550627039836,-40.38800996971994,13.622622983127284,-18.06561632088332,-0.9177,-0.3452,0.1186,-0.157
50,1653149.0,134.052325,1.0,5.32,7.68,13.92,-13.06,-20.0,-38.25,-185.25,113.31,160.56,0.17827172352174991,-0.2505971854067024,-6.955110654634664,-30.48441543516209,12.123472436717575,-23.027138205337288,-0.938,-0.2629,0.1056,-0.1996
51,1653149.0,134.052325,1.0,5.32,7.68,13.92,-13.06,-20.0,-38.25,-185.25,113.31,160.56,0.17827172352174991,-0.2505971854067024,-6.955110654634664,-30.48441543516209,12.123472436717575,-23.027138205337288,-0.938,-0.2629,0.1056,-0.1996
52,1653186.0,134.10748,1.0,6.76,6.59,11.91,-8.25,-8.5,-44.38,-83.69,145.19,222.44,1.4780499270101335,-2.9094367587601857,-5.036676654090729,-24.58470803246293,9.982085146289721,-31.82869013670581,-0.9338,-0.2129,0.087,-0.2742
53,1653186.0,134.10748,1.0,6.76,6.59,11.91,-8.25,-8.5,-44.38,-83.69,145.19,222.44,1.4780499270101335,-2.9094367587601857,-5.036676654090729,-24.58470803246293,9.982085146289721,-31.82869013670581,-0.9338,-0.2129,0.087,-0.2742
54,1653223.0,134.124524,1.0,7.27,5.43,9.48,-1.75,-2.75,-44.0,-60.88,138.5,211.63,2.136079800940443,-4.522979272213494,-2.325457054718127,-21.100756747738608,7.6259663887868285,-38.74398218156732,-0.9229999999999999,-0.1831,0.0665,-0.3317
55,1653223.0,134.124524,1.0,7.27,5.43,9.48,-1.75,-2.75,-44.0,-60.88,138.5,211.63,2.136079800940443,-4.522979272213494,-2.325457054718127,-21.100756747738608,7.6259663887868285,-38.74398218156732,-0.9229999999999999,-0.1831,0.0665,-0.3317
56,1653256.0,134.138714,1.0,5.97,4.72,9.14,-1.75,-2.75,-44.0,-23.31,70.62,231.13,0.6778190546485899,-4.148252562066198,-1.3195111533568262,-18.216471799125177,6.569694717687418,-47.81985609667796,-0.8986,-0.1583,0.0573,-0.4053
57,1653256.0,134.138714,1.0,5.97,4.72,9.14,-1.75,-2.75,-44.0,-23.31,70.62,231.13,0.6778190546485899,-4.148252562066198,-1.3195111533568262,-18.216471799125177,6.569694717687418,-47.81985609667796,-0.8986,-0.1583,0.0573,-0.4053
58,1653293.0,134.183807,1.0,5.77,4.39,9.57,5.5,-0.56,-44.56,14.06,45.25,221.38,0.14335824009481524,-3.8499986379656486,-1.5646673776242659,-17.520477052231193,6.168003805570946,-54.72259849297357,-0.8733,-0.1523,0.0538,-0.4596
59,1653293.0,134.183807,1.0,5.77,4.39,9.57,5.5,-0.56,-44.56,14.06,45.25,221.38,0.14335824009481524,-3.8499986379656486,-1.5646673776242659,-17.520477052231193,6.168003805570946,-54.72259849297357,-0.8733,-0.1523,0.0538,-0.4596
60,1653329.0,134.252285,1.0,5.99,5.36,10.13,9.06,-2.69,-43.56,17.37,37.19,107.06,-1.168810285824522,-4.403069672286689,-2.295972028996028,-16.83671699887327,5.789336220308418,-60.90182687258211,-0.848,-0.1464,0.0505,-0.5068
61,1653329.0,134.252285,1.0,5.99,5.36,10.13,9.06,-2.69,-43.56,17.37,37.19,107.06,-1.168810285824522,-4.403069672286689,-2.295972028996028,-16.83671699887327,5.789336220308418,-60.90182687258211,-0.848,-0.1464,0.0505,-0.5068
62,1653364.0,134.272386,1.0,7.58,3.43,9.17,9.06,-2.69,-43.56,88.81,51.88,15.06,1.41096136826001,-5.281023321715659,-1.3032636222012606,-17.636430239406273,3.7592774051414257,-62.503584484279976,-0.8404,-0.1533,0.0328,-0.5188
63,1653364.0,134.272386,1.0,7.58,3.43,9.17,9.06,-2.69,-43.56,88.81,51.88,15.06,1.41096136826001,-5.281023321715659,-1.3032636222012606,-17.636430239406273,3.7592774051414257,-62.503584484279976,-0.8404,-0.1533,0.0328,-0.5188
64,1653399.0,134.317998,1.0,7.82,1.45,7.93,10.19,-4.38,-43.88,87.19,-30.31,-28.44,3.7561069103567584,-4.797128941680374,0.3716611396534901,-20.879328419459103,1.283452294756085,-61.88799370587642,-0.8383,-0.1812,0.0112,-0.5142
65,1653399.0,134.317998,1.0,7.82,1.45,7.93,10.19,-4.38,-43.88,87.19,-30.31,-28.44,3.7561069103567584,-4.797128941680374,0.3716611396534901,-20.879328419459103,1.283452294756085,-61.88799370587642,-0.8383,-0.1812,0.0112,-0.5142
66,1653434.0,134.32603,1.0,4.06,2.14,8.7,12.69,-7.38,-41.5,17.81,-123.19,-31.06,1.5155844914284489,-0.8989914090569586,0.12945939033526346,-24.022061174011174,3.8853982832056495,-59.84128068972836,-0.8406,-0.2081,0.0339,-0.4988
67,1653434.0,134.32603,1.0,4.06,2.14,8.7,12.69,-7.38,-41.5,17.81,-123.19,-31.06,1.5155844914284489,-0.8989914090569586,0.12945939033526346,-24.022061174011174,3.8853982832056495,-59.84128068972836,-0.8406,-0.2081,0.0339,-0.4988
68,1653471.0,134.349155,1.0,1.78,3.71,9.79,9.69,-8.69,-43.0,7.63,-135.69,-2.25,-1.084198555649174,1.3681938072787854,-0.6685186954269238,-26.26455976697084,7.1207175606295605,-58.61544664777843,-0.8396,-0.2272,0.0621,-0.4895
69,1653471.0,134.349155,1.0,1.78,3.71,9.79,9.69,-8.69,-43.0,7.63,-135.69,-2.25,-1.084198555649174,1.3681938072787854,-0.6685186954269238,-26.26455976697084,7.1207175606295605,-58.61544664777843,-0.8396,-0.2272,0.0621,-0.4895
70,1653506.0,134.417442,1.0,1.23,3.87,9.79,9.69,-8.69,-43.0,23.75,-106.87,-17.56,-1.727216827701048,2.4110743371761583,-0.36868009640065225,-29.1444243172648,10.235170717586842,-56.966262181573775,-0.8375,-0.2516,0.0892,-0.4769
71,1653506.0,134.417442,1.0,1.23,3.87,9.79,9.69,-8.69,-43.0,23.75,-106.87,-17.56,-1.727216827701048,2.4110743371761583,-0.36868009640065225,-29.1444243172648,10.235170717586842,-56.966262181573775,-0.8375,-0.2516,0.0892,-0.4769
72,1653542.0,134.46889099999999,1.0,1.53,2.79,9.22,3.0,-8.38,-43.75,38.25,-42.75,-48.81,-0.6417616745369668,2.6290667573374216,0.4359750009106147,-30.94787313807167,10.787532942523713,-55.39455832418957,-0.8391,-0.2668,0.094,-0.4648
73,1653542.0,134.46889099999999,1.0,1.53,2.79,9.22,3.0,-8.38,-43.75,38.25,-42.75,-48.81,-0.6417616745369668,2.6290667573374216,0.4359750009106147,-30.94787313807167,10.787532942523713,-55.39455832418957,-0.8391,-0.2668,0.094,-0.4648
74,1653577.0,134.489909,1.0,2.04,2.35,8.63,-0.75,-8.56,-46.0,25.31,-21.81,-33.69,0.0848580554232109,2.3314622590610963,0.9343288355581071,-32.52040941662392,10.72998370230972,-53.84694292088121,-0.8413,-0.28,0.0935,-0.4528
75,1653577.0,134.489909,1.0,2.04,2.35,8.63,-0.75,-8.56,-46.0,25.31,-21.81,-33.69,0.0848580554232109,2.3314622590610963,0.9343288355581071,-32.52040941662392,10.72998370230972,-53.84694292088121,-0.8413,-0.28,0.0935,-0.4528
76,1653612.0,134.541995,1.0,2.03,3.23,8.41,-0.75,-8.56,-46.0,8.88,-19.19,-2.44,-0.6609028375391265,1.9271248961048435,0.7993586716290988,-33.0459740960127,11.052294827398207,-53.461705766242936,-0.8411,-0.2844,0.0963,-0.4498
77,1653612.0,134.541995,1.0,2.03,3.23,8.41,-0.75,-8.56,-46.0,8.88,-19.19,-2.44,-0.6609028375391265,1.9271248961048435,0.7993586716290988,-33.0459740960127,11.052294827398207,-53.461705766242936,-0.8411,-0.2844,0.0963,-0.4498
78,1653647.0,134.550287,1.0,2.03,2.69,8.34,-1.88,-10.5,-43.38,29.06,-4.94,7.31,-0.14762825064044138,2.245048914805235,1.097427229296251,-33.991407904492696,10.925662281710132,-53.67992638338189,-0.8376,-0.2923,0.0952,-0.4515
79,1653647.0,134.550287,1.0,2.03,2.69,8.34,-1.88,-10.5,-43.38,29.06,-4.94,7.31,-0.14762825064044138,2.245048914805235,1.097427229296251,-33.991407904492696,10.925662281710132,-53.67992638338189,-0.8376,-0.2923,0.0952,-0.4515
80,1653682.0,134.570434,1.0,2.61,2.87,8.19,-3.0,-10.5,-44.56,3.63,10.44,3.25,0.07396866061076413,1.6824624796919894,0.902215787672068,-34.18317656247093,10.62640189942489,-53.89835748467391,-0.8364,-0.2939,0.0926,-0.4532
81,1653682.0,134.570434,1.0,2.61,2.87,8.19,-3.0,-10.5,-44.56,3.63,10.44,3.25,0.07396866061076413,1.6824624796919894,0.902215787672068,-34.18317656247093,10.62640189942489,-53.89835748467391,-0.8364,-0.2939,0.0926,-0.4532
82,1653719.0,134.618986,1.0,2.88,3.09,8.1,-1.88,-9.38,-44.19,1.06,13.69,12.19,0.05272361413675314,1.288876187266723,0.7629495187584237,-33.90753998612701,10.292697102933527,-54.438922188166046,-0.8353,-0.2916,0.0897,-0.4574
83,1653719.0,134.618986,1.0,2.88,3.09,8.1,-1.88,-9.38,-44.19,1.06,13.69,12.19,0.05272361413675314,1.288876187266723,0.7629495187584237,-33.90753998612701,10.292697102933527,-54.438922188166046,-0.8353,-0.2916,0.0897,-0.4574
84,1653753.0,134.68807900000002,1.0,2.22,2.75,8.23,-1.88,-9.38,-44.19,-0.37,25.5,11.88,0.0026344285726203065,1.9013262163311409,1.0540074459550777,-33.58422417640036,9.844059122531188,-55.04539979611062,-0.8340000000000001,-0.2889,0.0858,-0.4621
85,1653753.0,134.68807900000002,1.0,2.22,2.75,8.23,-1.88,-9.38,-44.19,-0.37,25.5,11.88,0.0026344285726203065,1.9013262163311409,1.0540074459550777,-33.58422417640036,9.844059122531188,-55.04539979611062,-0.8340000000000001,-0.2889,0.0858,-0.4621
86,1653790.0,134.70633700000002,1.0,2.81,2.51,9.43,-1.06,-11.25,-43.0,-16.75,64.62,2.63,0.7745909517100447,1.9458246945515816,-0.12989241250960148,-32.36526393220739,8.522006076442151,-55.58877661222697,-0.8362,-0.2787,0.0743,-0.4663
87,1653790.0,134.70633700000002,1.0,2.81,2.51,9.43,-1.06,-11.25,-43.0,-16.75,64.62,2.63,0.7745909517100447,1.9458246945515816,-0.12989241250960148,-32.36526393220739,8.522006076442151,-55.58877661222697,-0.8362,-0.2787,0.0743,-0.4663
88,1653825.0,134.762127,1.0,3.18,1.54,8.12,0.69,-12.0,-43.75,-27.12,70.37,34.06,1.617401780036522,1.0398938277684793,1.1625171742676432,-30.73390559555541,7.304427851725569,-56.91411976899951,-0.8359,-0.265,0.0637,-0.4765
89,1653825.0,134.762127,1.0,3.18,1.54,8.12,0.69,-12.0,-43.75,-27.12,70.37,34.06,1.617401780036522,1.0398938277684793,1.1625171742676432,-30.73390559555541,7.304427851725569,-56.91411976899951,-0.8359,-0.265,0.0637,-0.4765
90,1653860.0,134.780968,1.0,1.27,1.69,11.64,0.69,-12.0,-43.75,-103.06,94.87,15.5,0.7979949724568587,3.4437036588495054,-1.4832884025759938,-26.829697512461113,6.259812004164343,-58.40529575549325,-0.8397,-0.23199999999999998,0.0546,-0.4879
91,1653860.0,134.780968,1.0,1.27,1.69,11.64,0.69,-12.0,-43.75,-103.06,94.87,15.5,0.7979949724568587,3.4437036588495054,-1.4832884025759938,-26.829697512461113,6.259812004164343,-58.40529575549325,-0.8397,-0.23199999999999998,0.0546,-0.4879
92,1653895.0,134.785559,1.0,2.91,2.74,9.35,3.69,-10.06,-43.75,-103.0,155.06,42.19,0.17980995795588026,-0.4991231526612747,-0.3479915228454704,-20.401776712875193,3.8853982832056495,-60.861952842422134,-0.8431,-0.1771,0.0339,-0.5065
93,1653895.0,134.785559,1.0,2.91,2.74,9.35,3.69,-10.06,-43.75,-103.0,155.06,42.19,0.17980995795588026,-0.4991231526612747,-0.3479915228454704,-20.401776712875193,3.8853982832056495,-60.861952842422134,-0.8431,-0.1771,0.0339,-0.5065
94,1653932.0,134.834258,1.0,1.83,0.79,10.13,7.5,-7.06,-44.19,-66.56,131.13,71.94,1.4189673147829605,0.642913347638303,-0.3993822450502869,-16.477696648278283,1.5011923619341792,-63.713859708187826,-0.8370000000000001,-0.1433,0.0131,-0.5278
95,1653932.0,134.834258,1.0,1.83,0.79,10.13,7.5,-7.06,-44.19,-66.56,131.13,71.94,1.4189673147829605,0.642913347638303,-0.3993822450502869,-16.477696648278283,1.5011923619341792,-63.713859708187826,-0.8370000000000001,-0.1433,0.0131,-0.5278
96,1653968.0,134.85531799999998,1.0,0.92,2.36,11.08,13.88,-5.25,-41.75,-116.06,144.0,61.25,-0.6354283068336156,-0.14617812639227767,-1.5404757515830436,-10.200656128703407,-0.4583674584234223,-66.8438272739107,-0.8298,-0.0889,-0.004,-0.5508
97,1653968.0,134.85531799999998,1.0,0.92,2.36,11.08,13.88,-5.25,-41.75,-116.06,144.0,61.25,-0.6354283068336156,-0.14617812639227767,-1.5404757515830436,-10.200656128703407,-0.4583674584234223,-66.8438272739107,-0.8298,-0.0889,-0.004,-0.5508
98,1654003.0,134.90846100000002,1.0,2.1,2.8,8.82,13.88,-5.25,-41.75,-61.88,132.94,48.19,-1.041897206323602,-2.418700854570585,0.6903603826417051,-5.823757869537403,-2.280522559802512,-68.70739234130575,-0.8237,-0.0508,-0.0199,-0.5643
99,1654003.0,134.90846100000002,1.0,2.1,2.8,8.82,13.88,-5.25,-41.75,-61.88,132.94,48.19,-1.041897206323602,-2.418700854570585,0.6903603826417051,-5.823757869537403,-2.280522559802512,-68.70739234130575,-0.8237,-0.0508,-0.0199,-0.5643
100,1654040.0,134.930469,1.0,1.5,1.16,9.4,19.5,-1.88,-40.56,-13.5,71.62,25.31,0.35975592170112425,-1.8414234327322168,0.4026436506728306,-3.1287382797377283,-4.848669626539135,-70.22727904040842,-0.8165,-0.0273,-0.0423,-0.5752
101,1654040.0,134.930469,1.0,1.5,1.16,9.4,19.5,-1.88,-40.56,-13.5,71.62,25.31,0.35975592170112425,-1.8414234327322168,0.4026436506728306,-3.1287382797377283,-4.848669626539135,-70.22727904040842,-0.8165,-0.0273,-0.0423,-0.5752
102,1654075.0,134.99631000000002,1.0,-0.57,1.36,9.93,21.25,-2.19,-37.75,-45.88,57.63,10.13,-0.5502495201723625,-0.3008087578662242,-0.21263837576507072,-1.2261530793833222,-5.617235753841245,-70.74642327318205,-0.8138,-0.0107,-0.049,-0.5789
103,1654075.0,134.99631000000002,1.0,-0.57,1.36,9.93,21.25,-2.19,-37.75,-45.88,57.63,10.13,-0.5502495201723625,-0.3008087578662242,-0.21263837576507072,-1.2261530793833222,-5.617235753841245,-70.74642327318205,-0.8138,-0.0107,-0.049,-0.5789
104,1654110.0,135.00628500000002,1.0,-0.05,1.22,9.88,21.25,-2.19,-37.75,-15.56,51.5,19.37,-0.2989882227795458,-1.1368654488636003,-0.07886682987891724,0.7906880314747026,-6.810747745686069,-71.42240793741999,-0.8098,0.0069,-0.0594,-0.5837
105,1654110.0,135.00628500000002,1.0,-0.05,1.22,9.88,21.25,-2.19,-37.75,-15.56,51.5,19.37,-0.2989882227795458,-1.1368654488636003,-0.07886682987891724,0.7906880314747026,-6.810747745686069,-71.42240793741999,-0.8098,0.0069,-0.0594,-0.5837
106,1654145.0,135.055681,1.0,0.0,1.55,10.72,24.0,-0.25,-36.19,-29.06,94.0,20.56,-0.5288888750205838,-1.7590107146159322,-0.8679487214389391,2.5670656278548973,-8.142851840335263,-72.00208892273058,-0.8055,0.0224,-0.071,-0.5878
107,1654145.0,135.055681,1.0,0.0,1.55,10.72,24.0,-0.25,-36.19,-29.06,94.0,20.56,-0.5288888750205838,-1.7590107146159322,-0.8679487214389391,2.5670656278548973,-8.142851840335263,-72.00208892273058,-0.8055,0.0224,-0.071,-0.5878
108,1654181.0,135.078855,1.0,-1.31,1.78,8.84,26.37,-1.06,-35.25,-2.13,117.69,-6.81,-1.21652214739809,-1.097377164408472,0.8430604721420458,6.053249123067683,-11.397725602729444,-72.08709874052984,-0.8007,0.0528,-0.0993,-0.5884
109,1654181.0,135.078855,1.0,-1.31,1.78,8.84,26.37,-1.06,-35.25,-2.13,117.69,-6.81,-1.21652214739809,-1.097377164408472,0.8430604721420458,6.053249123067683,-11.397725602729444,-72.08709874052984,-0.8007,0.0528,-0.0993,-0.5884
110,1654216.0,135.128732,1.0,-2.66,0.66,9.85,26.37,-1.06,-35.25,28.94,46.19,-2.31,-0.21210251695555965,-0.009889311590310923,-0.41531726290088505,6.638563994932457,-13.44952940908047,-71.70491441526583,-0.7999,0.0579,-0.1171,-0.5857
111,1654216.0,135.128732,1.0,-2.66,0.66,9.85,26.37,-1.06,-35.25,28.94,46.19,-2.31,-0.21210251695555965,-0.009889311590310923,-0.41531726290088505,6.638563994932457,-13.44952940908047,-71.70491441526583,-0.7999,0.0579,-0.1171,-0.5857
112,1654251.0,135.138269,1.0,-2.49,0.93,9.55,27.87,-1.06,-32.38,24.19,37.0,0.88,-0.24698729386914325,-0.375538059802032,-0.09615104022631192,6.810747745686069,-15.089441590206313,-71.46475194075083,-0.7988,0.0594,-0.1313,-0.584
113,1654251.0,135.138269,1.0,-2.49,0.93,9.55,27.87,-1.06,-32.38,24.19,37.0,0.88,-0.24698729386914325,-0.375538059802032,-0.09615104022631192,6.810747745686069,-15.089441590206313,-71.46475194075083,-0.7988,0.0594,-0.1313,-0.584
114,1654286.0,135.22911000000002,1.0,-3.11,0.26,9.34,31.37,-0.69,-32.06,37.69,29.19,8.19,0.4713436834420695,0.3373335236625368,-0.023881075475662428,6.3631010384043885,-16.848301053200124,-71.40829576929687,-0.7968,0.0555,-0.1465,-0.5836
115,1654286.0,135.22911000000002,1.0,-3.11,0.26,9.34,31.37,-0.69,-32.06,37.69,29.19,8.19,0.4713436834420695,0.3373335236625368,-0.023881075475662428,6.3631010384043885,-16.848301053200124,-71.40829576929687,-0.7968,0.0555,-0.1465,-0.5836
116,1654323.0,135.23298300000002,1.0,-3.8,0.56,9.27,31.69,-0.56,-30.37,15.5,22.0,1.88,0.11834577236746475,0.8128150470781217,-0.19394128138962152,6.420486066048695,-17.636430239406273,-72.08709874052984,-0.7919,0.055999999999999994,-0.1533,-0.5884
117,1654323.0,135.23298300000002,1.0,-3.8,0.56,9.27,31.69,-0.56,-30.37,15.5,22.0,1.88,0.11834577236746475,0.8128150470781217,-0.19394128138962152,6.420486066048695,-17.636430239406273,-72.08709874052984,-0.7919,0.055999999999999994,-0.1533,-0.5884
118,1654355.0,135.285556,1.0,-3.46,0.02,8.7,31.69,-0.56,-30.37,30.62,17.25,0.94,0.8066467944846369,0.761194899745282,0.509774004615883,5.984399237389443,-18.80859962930239,-71.88881371666841,-0.7912,0.0522,-0.1634,-0.5870000000000001
119,1654355.0,135.285556,1.0,-3.46,0.02,8.7,31.69,-0.56,-30.37,30.62,17.25,0.94,0.8066467944846369,0.761194899745282,0.509774004615883,5.984399237389443,-18.80859962930239,-71.88881371666841,-0.7912,0.0522,-0.1634,-0.5870000000000001
120,1654392.0,135.35226200000002,1.0,-3.68,0.35,8.93,32.06,-2.06,-30.37,3.0,-13.5,-3.75,0.5305445175202945,0.8398131782838371,0.1929599519222105,5.720494487173099,-18.796984460560502,-72.52705031289004,-0.7879999999999999,0.0499,-0.1633,-0.5915
121,1654392.0,135.35226200000002,1.0,-3.68,0.35,8.93,32.06,-2.06,-30.37,3.0,-13.5,-3.75,0.5305445175202945,0.8398131782838371,0.1929599519222105,5.720494487173099,-18.796984460560502,-72.52705031289004,-0.7879999999999999,0.0499,-0.1633,-0.5915
122,1654427.0,135.35940300000001,1.0,-3.48,0.42,9.36,32.06,-2.88,-29.56,8.0,-17.12,0.12,0.5566728090817735,0.5248691537177634,-0.15884184712448499,5.92702598542953,-18.506668239532367,-73.11083313213125,-0.7853,0.0517,-0.1608,-0.5956
123,1654427.0,135.35940300000001,1.0,-3.48,0.42,9.36,32.06,-2.88,-29.56,8.0,-17.12,0.12,0.5566728090817735,0.5248691537177634,-0.15884184712448499,5.92702598542953,-18.506668239532367,-73.11083313213125,-0.7853,0.0517,-0.1608,-0.5956
124,1654462.0,135.378361,1.0,-2.98,0.77,9.49,32.06,-2.88,-29.56,7.44,-19.31,1.5,0.34053923972074523,0.07024071966121848,-0.1639316915319391,5.376316314590642,-17.90319186690899,-73.18217678230073,-0.7863,0.0469,-0.1556,-0.5961
125,1654462.0,135.378361,1.0,-2.98,0.77,9.49,32.06,-2.88,-29.56,7.44,-19.31,1.5,0.34053923972074523,0.07024071966121848,-0.1639316915319391,5.376316314590642,-17.90319186690899,-73.18217678230073,-0.7863,0.0469,-0.1556,-0.5961
126,1654497.0,135.381535,1.0,-4.23,0.71,9.48,32.06,-2.19,-29.56,1.5,-15.88,-4.5,0.10122750164880312,1.3602154118158485,-0.5087252731720149,4.940426564140192,-17.474100846214462,-73.72547201814446,-0.7843,0.0431,-0.1519,-0.5999
127,1654497.0,135.381535,1.0,-4.23,0.71,9.48,32.06,-2.19,-29.56,1.5,-15.88,-4.5,0.10122750164880312,1.3602154118158485,-0.5087252731720149,4.940426564140192,-17.474100846214462,-73.72547201814446,-0.7843,0.0431,-0.1519,-0.5999
128,1654532.0,135.425272,1.0,-2.37,1.26,9.19,31.69,-2.56,-31.25,-4.31,5.5,0.44,-0.06299699984834964,-0.4725193374359952,0.24457089272635454,5.215716631990905,-17.474100846214462,-74.2563321899432,-0.7814,0.0455,-0.1519,-0.6036
129,1654532.0,135.425272,1.0,-2.37,1.26,9.19,31.69,-2.56,-31.25,-4.31,5.5,0.44,-0.06299699984834964,-0.4725193374359952,0.24457089272635454,5.215716631990905,-17.474100846214462,-74.2563321899432,-0.7814,0.0455,-0.1519,-0.6036
130,1654568.0,135.49733500000002,1.0,-2.24,1.46,9.32,31.69,-2.56,-31.25,-0.31,-24.19,5.5,-0.2151134366975344,-0.6168086541752895,0.13272249905775624,4.986306217889054,-17.184314583414665,-74.42890280024764,-0.7811,0.0435,-0.1494,-0.6048
131,1654568.0,135.49733500000002,1.0,-2.24,1.46,9.32,31.69,-2.56,-31.25,-0.31,-24.19,5.5,-0.2151134366975344,-0.6168086541752895,0.13272249905775624,4.986306217889054,-17.184314583414665,-74.42890280024764,-0.7811,0.0435,-0.1494,-0.6048
132,1654601.0,135.521357,1.0,-3.32,1.33,10.54,32.06,-3.0,-31.56,7.06,-35.81,2.63,-0.14323925357177614,0.42916193274857983,-1.3144202071210618,3.942727502383202,-16.049401279911372,-75.28026949834307,-0.7787,0.0344,-0.1396,-0.6107
133,1654601.0,135.521357,1.0,-3.32,1.33,10.54,32.06,-3.0,-31.56,7.06,-35.81,2.63,-0.14323925357177614,0.42916193274857983,-1.3144202071210618,3.942727502383202,-16.049401279911372,-75.28026949834307,-0.7787,0.0344,-0.1396,-0.6107
134,1654636.0,135.52584299999998,1.0,-3.34,1.17,9.79,31.69,-2.5,-31.56,10.94,5.56,-5.63,-0.0668772131250649,0.6558374608936783,-0.5824791580792805,3.805139007503523,-16.2808838756779,-75.59897705351443,-0.7767,0.0332,-0.1416,-0.6129
135,1654636.0,135.52584299999998,1.0,-3.34,1.17,9.79,31.69,-2.5,-31.56,10.94,5.56,-5.63,-0.0668772131250649,0.6558374608936783,-0.5824791580792805,3.805139007503523,-16.2808838756779,-75.59897705351443,-0.7767,0.0332,-0.1416,-0.6129
136,1654673.0,135.57495600000001,1.0,-1.99,0.99,9.15,31.0,-2.88,-30.75,5.25,-0.12,0.63,0.3234404028777842,-0.4529556137441247,0.4070267353279551,3.7822081305683333,-16.605072138436235,-76.12198798415724,-0.7733,0.033,-0.1444,-0.6165
137,1654673.0,135.57495600000001,1.0,-1.99,0.99,9.15,31.0,-2.88,-30.75,5.25,-0.12,0.63,0.3234404028777842,-0.4529556137441247,0.4070267353279551,3.7822081305683333,-16.605072138436235,-76.12198798415724,-0.7733,0.033,-0.1444,-0.6165
138,1654708.0,135.657119,1.0,-2.31,1.21,9.25,31.0,-2.88,-30.75,4.56,-22.87,0.25,0.06236177079806651,-0.10242609419880601,0.19684667710258985,3.2089830530311807,-16.13041264048083,-76.12198798415724,-0.7743,0.027999999999999997,-0.1403,-0.6165
139,1654708.0,135.657119,1.0,-2.31,1.21,9.25,31.0,-2.88,-30.75,4.56,-22.87,0.25,0.06236177079806651,-0.10242609419880601,0.19684667710258985,3.2089830530311807,-16.13041264048083,-76.12198798415724,-0.7743,0.027999999999999997,-0.1403,-0.6165
140,1654743.0,135.681378,1.0,-3.43,0.7,9.67,30.56,-3.25,-31.25,8.19,-10.31,-1.5,0.43610776442694,1.0881253306464531,-0.41047255395872817,2.738999060214957,-15.864262703092981,-76.6176646234629,-0.7721,0.0239,-0.138,-0.6199
141,1654743.0,135.681378,1.0,-3.43,0.7,9.67,30.56,-3.25,-31.25,8.19,-10.31,-1.5,0.43610776442694,1.0881253306464531,-0.41047255395872817,2.738999060214957,-15.864262703092981,-76.6176646234629,-0.7721,0.0239,-0.138,-0.6199
142,1654779.0,135.685876,1.0,-2.85,0.89,9.47,29.87,-4.06,-32.06,-3.38,5.75,-0.56,0.3303727603681605,0.5065262165769812,-0.10444403805286306,2.9453273542124467,-15.922114008308865,-77.18832949283414,-0.7688,0.0257,-0.1385,-0.6238
143,1654779.0,135.685876,1.0,-2.85,0.89,9.47,29.87,-4.06,-32.06,-3.38,5.75,-0.56,0.3303727603681605,0.5065262165769812,-0.10444403805286306,2.9453273542124467,-15.922114008308865,-77.18832949283414,-0.7688,0.0257,-0.1385,-0.6238
144,1654814.0,135.739073,1.0,-2.41,1.17,9.5,29.87,-4.06,-32.06,-3.81,-1.5,3.38,0.13613512782557147,0.01864866544348276,-0.06290518016132117,3.0026424356334624,-15.875832638109523,-77.32034327545834,-0.7681,0.0262,-0.1381,-0.6247
145,1654814.0,135.739073,1.0,-2.41,1.17,9.5,29.87,-4.06,-32.06,-3.81,-1.5,3.38,0.13613512782557147,0.01864866544348276,-0.06290518016132117,3.0026424356334624,-15.875832638109523,-77.32034327545834,-0.7681,0.0262,-0.1381,-0.6247
146,1654847.0,135.748873,1.0,-2.77,1.07,9.45,29.5,-3.69,-31.25,4.44,-8.63,-2.63,0.15648602140248868,0.4278495793438066,-0.08843751161711211,2.9224015288032215,-15.713868313956251,-77.76127164487418,-0.7659,0.0255,-0.1367,-0.6277
147,1654847.0,135.748873,1.0,-2.77,1.07,9.45,29.5,-3.69,-31.25,4.44,-8.63,-2.63,0.15648602140248868,0.4278495793438066,-0.08843751161711211,2.9224015288032215,-15.713868313956251,-77.76127164487418,-0.7659,0.0255,-0.1367,-0.6277
148,1654884.0,135.811349,1.0,-2.64,1.08,9.47,29.87,-4.06,-32.88,-0.56,0.94,-3.31,0.17427610459892834,0.3018294406933557,-0.07744969739766283,2.956790311078442,-15.679165793853409,-78.17404253989811,-0.7637,0.0258,-0.1364,-0.6305
149,1654884.0,135.811349,1.0,-2.64,1.08,9.47,29.87,-4.06,-32.88,-0.56,0.94,-3.31,0.17427610459892834,0.3018294406933557,-0.07744969739766283,2.956790311078442,-15.679165793853409,-78.17404253989811,-0.7637,0.0258,-0.1364,-0.6305
150,1654921.0,135.8257,1.0,-2.54,1.0,9.68,29.87,-3.69,-32.88,-1.81,-1.94,0.12,0.2834415412055483,0.16971053473819406,-0.24545720332398346,3.1287382797377283,-15.586632804931574,-78.60283244211628,-0.7614,0.0273,-0.1356,-0.6334
151,1654921.0,135.8257,1.0,-2.54,1.0,9.68,29.87,-3.69,-32.88,-1.81,-1.94,0.12,0.2834415412055483,0.16971053473819406,-0.24545720332398346,3.1287382797377283,-15.586632804931574,-78.60283244211628,-0.7614,0.0273,-0.1356,-0.6334
152,1654953.0,135.888608,1.0,-2.36,1.46,9.54,29.87,-3.69,-32.88,-8.31,-2.38,3.13,-0.19947473425147344,-0.05917489715345825,-0.12660264764478768,3.2777655386010047,-15.39003407585724,-78.70653013539808,-0.7609999999999999,0.0286,-0.1339,-0.6341
153,1654953.0,135.888608,1.0,-2.36,1.46,9.54,29.87,-3.69,-32.88,-8.31,-2.38,3.13,-0.19947473425147344,-0.05917489715345825,-0.12660264764478768,3.2777655386010047,-15.39003407585724,-78.70653013539808,-0.7609999999999999,0.0286,-0.1339,-0.6341
154,1654990.0,135.91067900000002,1.0,-2.23,1.67,9.68,29.06,-3.19,-32.38,1.25,-4.06,0.75,-0.38889346528129415,-0.2273962926311753,-0.25621503927977685,3.335085177891311,-15.170359975770204,-79.18156133822953,-0.7587,0.0291,-0.132,-0.6373
155,1654990.0,135.91067900000002,1.0,-2.23,1.67,9.68,29.06,-3.19,-32.38,1.25,-4.06,0.75,-0.38889346528129415,-0.2273962926311753,-0.25621503927977685,3.335085177891311,-15.170359975770204,-79.18156133822953,-0.7587,0.0291,-0.132,-0.6373
156,1655025.0,135.965203,1.0,-2.56,1.12,9.68,29.5,-3.25,-32.88,6.69,3.56,-3.13,0.12651025510228475,0.18853374194294564,-0.2660284016716705,3.2777655386010047,-15.29753283007483,-79.46438269954628,-0.757,0.0286,-0.1331,-0.6392
157,1655025.0,135.965203,1.0,-2.56,1.12,9.68,29.5,-3.25,-32.88,6.69,3.56,-3.13,0.12651025510228475,0.18853374194294564,-0.2660284016716705,3.2777655386010047,-15.29753283007483,-79.46438269954628,-0.757,0.0286,-0.1331,-0.6392
158,1655060.0,135.974703,1.0,-2.34,1.1,9.39,29.5,-3.25,-32.88,2.0,-1.19,-0.5,0.14709055622991413,0.044767335121775886,0.0683719050812659,3.1975194185389717,-15.366907820940328,-79.38989987649909,-0.7573,0.0279,-0.1337,-0.6387
159,1655060.0,135.974703,1.0,-2.34,1.1,9.39,29.5,-3.25,-32.88,2.0,-1.19,-0.5,0.14709055622991413,0.044767335121775886,0.0683719050812659,3.1975194185389717,-15.366907820940328,-79.38989987649909,-0.7573,0.0279,-0.1337,-0.6387
160,1655095.0,135.998108,1.0,-2.61,1.17,9.45,30.56,-3.25,-33.25,3.94,-3.5,-0.31,0.056591189471006074,0.301099572314292,-0.06196877289959879,3.117274866889664,-15.29753283007483,-79.73285491812906,-0.7554,0.0272,-0.1331,-0.6409999999999999
161,1655095.0,135.998108,1.0,-2.61,1.17,9.45,30.56,-3.25,-33.25,3.94,-3.5,-0.31,0.056591189471006074,0.301099572314292,-0.06196877289959879,3.117274866889664,-15.29753283007483,-79.73285491812906,-0.7554,0.0272,-0.1331,-0.6409999999999999
162,1655132.0,136.056061,1.0,-2.56,1.05,9.52,29.5,-3.0,-32.38,0.88,-5.06,0.88,0.19417439677438386,0.2789412424809157,-0.10147737538635404,3.0599582684028324,-15.216602467156429,-80.00185346292129,-0.754,0.0267,-0.1324,-0.6428
163,1655132.0,136.056061,1.0,-2.56,1.05,9.52,29.5,-3.0,-32.38,0.88,-5.06,0.88,0.19417439677438386,0.2789412424809157,-0.10147737538635404,3.0599582684028324,-15.216602467156429,-80.00185346292129,-0.754,0.0267,-0.1324,-0.6428
164,1655164.0,136.078273,1.0,-2.49,1.18,9.55,29.5,-3.0,-32.38,3.44,-4.94,2.13,0.08302450450962567,0.20583334894204874,-0.13043908907001445,2.956790311078442,-15.135679738336453,-80.03177487860853,-0.754,0.0258,-0.1317,-0.643
165,1655164.0,136.078273,1.0,-2.49,1.18,9.55,29.5,-3.0,-32.38,3.44,-4.94,2.13,0.08302450450962567,0.20583334894204874,-0.13043908907001445,2.956790311078442,-15.135679738336453,-80.03177487860853,-0.754,0.0258,-0.1317,-0.643
166,1655199.0,136.139014,1.0,-2.4,1.02,9.59,29.06,-3.0,-32.88,3.06,-6.31,0.12,0.26712256078089697,0.17049220813523008,-0.1265306559876418,2.807774138332147,-15.043205913037665,-80.25639506580565,-0.7529,0.0245,-0.1309,-0.6445
167,1655199.0,136.139014,1.0,-2.4,1.02,9.59,29.06,-3.0,-32.88,3.06,-6.31,0.12,0.26712256078089697,0.17049220813523008,-0.1265306559876418,2.807774138332147,-15.043205913037665,-80.25639506580565,-0.7529,0.0245,-0.1309,-0.6445
168,1655234.0,136.161378,1.0,-2.39,1.26,9.63,29.5,-3.69,-32.88,-0.94,-0.94,-1.19,0.03240763873302141,0.12152983741723665,-0.19438895820674415,2.8421620551927376,-14.962299399917931,-80.58651122616075,-0.7512,0.0248,-0.1302,-0.6467
169,1655234.0,136.161378,1.0,-2.39,1.26,9.63,29.5,-3.69,-32.88,-0.94,-0.94,-1.19,0.03240763873302141,0.12152983741723665,-0.19438895820674415,2.8421620551927376,-14.962299399917931,-80.58651122616075,-0.7512,0.0248,-0.1302,-0.6467
170,1655269.0,136.16536499999998,1.0,-2.58,1.12,9.64,29.5,-3.69,-32.88,1.56,-2.5,-1.0,0.14927387541286688,0.32952585703571124,-0.22876379414243075,2.807774138332147,-14.962299399917931,-80.54144798375755,-0.7514,0.0245,-0.1302,-0.6464
171,1655269.0,136.16536499999998,1.0,-2.58,1.12,9.64,29.5,-3.69,-32.88,1.56,-2.5,-1.0,0.14927387541286688,0.32952585703571124,-0.22876379414243075,2.807774138332147,-14.962299399917931,-80.54144798375755,-0.7514,0.0245,-0.1302,-0.6464
172,1655302.0,136.216891,1.0,-2.27,1.31,9.36,29.87,-3.25,-33.69,-3.56,0.0,-0.88,-0.05774881836888654,0.04893757225123729,0.08693445951224632,2.9338644268256844,-14.916070477056891,-80.75187187324588,-0.7502,0.0256,-0.1298,-0.6478
173,1655302.0,136.216891,1.0,-2.27,1.31,9.36,29.87,-3.25,-33.69,-3.56,0.0,-0.88,-0.05774881836888654,0.04893757225123729,0.08693445951224632,2.9338644268256844,-14.916070477056891,-80.75187187324588,-0.7502,0.0256,-0.1298,-0.6478
174,1655336.0,136.238594,1.0,-2.4,1.38,9.6,29.5,-4.06,-32.38,-0.19,-4.13,0.25,-0.11463143376242753,0.13566635725850662,-0.1829873444636032,2.9338644268256844,-14.777398324484167,-81.14353390206055,-0.7482,0.0256,-0.1286,-0.6504
175,1655336.0,136.238594,1.0,-2.4,1.38,9.6,29.5,-4.06,-32.38,-0.19,-4.13,0.25,-0.11463143376242753,0.13566635725850662,-0.1829873444636032,2.9338644268256844,-14.777398324484167,-81.14353390206055,-0.7482,0.0256,-0.1286,-0.6504
176,1655373.0,136.28726,1.0,-2.5,1.22,9.71,29.87,-3.25,-33.25,2.06,-1.06,1.06,0.05994421975119155,0.2451037414604237,-0.2908165558465949,2.87655022805785,-14.777398324484167,-81.40024126031591,-0.7467,0.0251,-0.1286,-0.6521
177,1655373.0,136.28726,1.0,-2.5,1.22,9.71,29.87,-3.25,-33.25,2.06,-1.06,1.06,0.05994421975119155,0.2451037414604237,-0.2908165558465949,2.87655022805785,-14.777398324484167,-81.40024126031591,-0.7467,0.0251,-0.1286,-0.6521
178,1655408.0,136.296377,1.0,-2.36,0.98,9.71,29.87,-3.25,-33.25,4.19,0.37,-1.0,0.3280820717442484,0.13734067594993132,-0.2276710877931141,2.8421620551927376,-14.881400387429185,-81.33979509600317,-0.7469,0.0248,-0.1295,-0.6517
179,1655408.0,136.296377,1.0,-2.36,0.98,9.71,29.87,-3.25,-33.25,4.19,0.37,-1.0,0.3280820717442484,0.13734067594993132,-0.2276710877931141,2.8421620551927376,-14.881400387429185,-81.33979509600317,-0.7469,0.0248,-0.1295,-0.6517
180,1655443.0,136.32214299999998,1.0,-2.14,1.26,9.42,28.69,-2.56,-33.25,-3.19,-2.5,0.31,0.023490962860442968,-0.05346180414528423,0.06497714518900287,2.865087475133015,-14.823619947246295,-81.38512714905085,-0.7467,0.025,-0.129,-0.652
181,1655443.0,136.32214299999998,1.0,-2.14,1.26,9.42,28.69,-2.56,-33.25,-3.19,-2.5,0.31,0.023490962860442968,-0.05346180414528423,0.06497714518900287,2.865087475133015,-14.823619947246295,-81.38512714905085,-0.7467,0.025,-0.129,-0.652
182,1655480.0,136.37390200000002,1.0,-2.32,1.48,9.48,29.5,-3.25,-32.88,-0.37,-4.75,-2.19,-0.2177365286772168,0.10108569584245952,-0.06176286561196065,2.8306993879474716,-14.661854827129085,-81.55147683065383,-0.746,0.0247,-0.1276,-0.6531
183,1655480.0,136.37390200000002,1.0,-2.32,1.48,9.48,29.5,-3.25,-32.88,-0.37,-4.75,-2.19,-0.2177365286772168,0.10108569584245952,-0.06176286561196065,2.8306993879474716,-14.661854827129085,-81.55147683065383,-0.746,0.0247,-0.1276,-0.6531
184,1655515.0,136.449408,1.0,-2.33,1.08,9.61,29.5,-3.25,-32.88,4.69,-2.38,-1.25,0.21096125851417707,0.15431358689127594,-0.13714618980130133,2.704611892754087,-14.696516297153034,-81.47583755660962,-0.7465,0.0236,-0.1279,-0.6526
185,1655515.0,136.449408,1.0,-2.33,1.08,9.61,29.5,-3.25,-32.88,4.69,-2.38,-1.25,0.21096125851417707,0.15431358689127594,-0.13714618980130133,2.704611892754087,-14.696516297153034,-81.47583755660962,-0.7465,0.0236,-0.1279,-0.6526
186,1655547.0,136.470668,1.0,-2.55,1.08,9.57,27.56,-3.25,-32.38,-2.5,-4.19,0.06,0.17514721607762207,0.39811150257619854,-0.14647165525051695,2.6473004867786654,-14.58098330322708,-81.67258932855316,-0.7455,0.0231,-0.1269,-0.6539
187,1655547.0,136.470668,1.0,-2.55,1.08,9.57,27.56,-3.25,-32.38,-2.5,-4.19,0.06,0.17514721607762207,0.39811150257619854,-0.14647165525051695,2.6473004867786654,-14.58098330322708,-81.67258932855316,-0.7455,0.0231,-0.1269,-0.6539
188,1655584.0,136.51748899999998,1.0,-2.2,1.26,9.69,29.06,-3.69,-33.69,-1.06,-2.06,2.19,0.04378163213887185,0.013039655883243515,-0.20941774817651293,2.7160742546883188,-14.500119080393965,-81.96067611888428,-0.7439,0.0237,-0.1262,-0.6558
189,1655584.0,136.51748899999998,1.0,-2.2,1.26,9.69,29.06,-3.69,-33.69,-1.06,-2.06,2.19,0.04378163213887185,0.013039655883243515,-0.20941774817651293,2.7160742546883188,-14.500119080393965,-81.96067611888428,-0.7439,0.0237,-0.1262,-0.6558
190,1655617.0,136.52613,1.0,-2.01,1.36,9.64,29.06,-3.69,-33.69,-2.19,-6.0,-0.31,-0.05163436572946509,-0.15275784194002304,-0.13283182422009074,2.658762714530565,-14.373061379793723,-81.99103761990294,-0.7440000000000001,0.0232,-0.1251,-0.6559999999999999
191,1655617.0,136.52613,1.0,-2.01,1.36,9.64,29.06,-3.69,-33.69,-2.19,-6.0,-0.31,-0.05163436572946509,-0.15275784194002304,-0.13283182422009074,2.658762714530565,-14.373061379793723,-81.99103761990294,-0.7440000000000001,0.0232,-0.1251,-0.6559999999999999
192,1655652.0,136.554876,1.0,-2.28,1.22,9.57,28.0,-3.69,-32.38,2.94,-3.75,-0.94,0.050046924912769485,0.18456124960061404,-0.1047138037584272,2.4868320276357756,-14.222925164993965,-82.21897227441269,-0.7429,0.0217,-0.1238,-0.6575
193,1655652.0,136.554876,1.0,-2.28,1.22,9.57,28.0,-3.69,-32.38,2.94,-3.75,-0.94,0.050046924912769485,0.18456124960061404,-0.1047138037584272,2.4868320276357756,-14.222925164993965,-82.21897227441269,-0.7429,0.0217,-0.1238,-0.6575
194,1655687.0,136.609247,1.0,-2.29,1.2,9.55,29.06,-3.69,-33.69,0.06,-1.94,-1.75,0.06715380428714057,0.21278616312163,-0.08459928486557368,2.452446574526375,-14.176734355559056,-82.40160521651524,-0.7419,0.0214,-0.1234,-0.6587
195,1655687.0,136.609247,1.0,-2.29,1.2,9.55,29.06,-3.69,-33.69,0.06,-1.94,-1.75,0.06715380428714057,0.21278616312163,-0.08459928486557368,2.452446574526375,-14.176734355559056,-82.40160521651524,-0.7419,0.0214,-0.1234,-0.6587
196,1655721.0,136.630469,1.0,-2.16,1.19,9.65,28.37,-4.06,-33.25,-3.19,-3.0,1.06,0.09592261577849756,0.07041588672423592,-0.15276968463419394,2.509755787270372,-14.118999098561428,-82.64551302019812,-0.7406,0.0219,-0.1229,-0.6603
197,1655721.0,136.630469,1.0,-2.16,1.19,9.65,28.37,-4.06,-33.25,-3.19,-3.0,1.06,0.09592261577849756,0.07041588672423592,-0.15276968463419394,2.509755787270372,-14.118999098561428,-82.64551302019812,-0.7406,0.0219,-0.1229,-0.6603
