,TIME,ELAPSED_SECONDS,PSTATE,acc_x,acc_y,acc_z,mag_x,mag_y,mag_z,gyr_x,gyr_y,gyr_z,lin_x,lin_y,lin_z,eul_x,eul_y,eul_z,qua_w,qua_x,qua_y,qua_z
0,2233419.0,715.366008,1.0,8.34,4.01,-2.45,-36.56,-25.69,-3.69,0.12,-3.63,-0.94,0.04421159704496303,-0.057800987028637126,0.2341422627043439,-97.56261947404964,28.505522169511824,-51.965432739188564,-0.4262,-0.7522,0.2462,-0.4381
1,2233419.0,715.366008,1.0,8.34,4.01,-2.45,-36.56,-25.69,-3.69,0.12,-3.63,-0.94,0.04421159704496303,-0.057800987028637126,0.2341422627043439,-97.56261947404964,28.505522169511824,-51.965432739188564,-0.4262,-0.7522,0.2462,-0.4381
2,2233454.0,715.417426,1.0,8.6,4.46,-2.81,-36.56,-25.69,-3.69,-0.31,-5.19,1.31,-0.31508748666861264,-0.12134349476838313,-0.2747038590817379,-97.6148043083262,28.588291341239625,-51.863473998811436,-0.4261,-0.7525,0.2469,-0.4373
3,2233454.0,715.417426,1.0,8.6,4.46,-2.81,-36.56,-25.69,-3.69,-0.31,-5.19,1.31,-0.31508748666861264,-0.12134349476838313,-0.2747038590817379,-97.6148043083262,28.588291341239625,-51.863473998811436,-0.4261,-0.7525,0.2469,-0.4373
4,2233491.0,715.430662,1.0,8.25,4.29,-2.78,-35.75,-25.69,-3.25,10.06,-27.19,-3.31,-0.2738385620839804,-0.08094843678741093,0.10544080771384046,-98.26066774517868,28.753875441458412,-51.278062716299324,-0.4235,-0.7562,0.2483,-0.4327
5,2233491.0,715.430662,1.0,8.25,4.29,-2.78,-35.75,-25.69,-3.25,10.06,-27.19,-3.31,-0.2738385620839804,-0.08094843678741093,0.10544080771384046,-98.26066774517868,28.753875441458412,-51.278062716299324,-0.4235,-0.7562,0.2483,-0.4327
6,2233526.0,715.448582,1.0,8.78,4.42,-3.4,-35.75,-26.0,-2.06,18.87,-32.25,-5.88,-0.2696060018154651,-0.3765065378642665,-0.5842284725224527,-99.24627980878144,28.87218733809866,-50.52930167815198,-0.4188,-0.7618,0.2493,-0.4268
7,2233526.0,715.448582,1.0,8.78,4.42,-3.4,-35.75,-26.0,-2.06,18.87,-32.25,-5.88,-0.2696060018154651,-0.3765065378642665,-0.5842284725224527,-99.24627980878144,28.87218733809866,-50.52930167815198,-0.4188,-0.7618,0.2493,-0.4268
8,2233561.0,715.495379,1.0,7.52,3.67,-3.14,-35.75,-26.0,-2.06,35.88,-61.63,5.75,-0.09205200125025527,-0.24067372081117225,0.8728656624878877,-101.42891378684288,29.10890564472929,-49.24023317275956,-0.4053,-0.774,0.2513,-0.4166
9,2233561.0,715.495379,1.0,7.52,3.67,-3.14,-35.75,-26.0,-2.06,35.88,-61.63,5.75,-0.09205200125025527,-0.24067372081117225,0.8728656624878877,-101.42891378684288,29.10890564472929,-49.24023317275956,-0.4053,-0.774,0.2513,-0.4166
10,2233595.0,715.566174,1.0,7.31,3.25,-3.38,-35.75,-26.0,-1.25,37.13,-35.69,16.5,0.04944136730891025,-0.3599451467936157,1.1296116203166218,-103.12744256593236,29.630134776789287,-48.45992930219389,-0.3906,-0.7833,0.2557,-0.4104
11,2233595.0,715.566174,1.0,7.31,3.25,-3.38,-35.75,-26.0,-1.25,37.13,-35.69,16.5,0.04944136730891025,-0.3599451467936157,1.1296116203166218,-103.12744256593236,29.630134776789287,-48.45992930219389,-0.3906,-0.7833,0.2557,-0.4104
12,2233632.0,715.584751,1.0,8.79,3.56,-4.57,-36.19,-25.25,1.69,24.69,-70.56,13.38,0.16825581747643492,-0.7223226883505853,-0.694423274374353,-104.48323564898183,30.28255562108873,-47.544236088592434,-0.3799,-0.7906,0.2612,-0.4031
13,2233632.0,715.584751,1.0,8.79,3.56,-4.57,-36.19,-25.25,1.69,24.69,-70.56,13.38,0.16825581747643492,-0.7223226883505853,-0.694423274374353,-104.48323564898183,30.28255562108873,-47.544236088592434,-0.3799,-0.7906,0.2612,-0.4031
14,2233667.0,715.5878650000001,1.0,8.46,3.06,-4.15,-36.19,-25.25,1.69,19.25,-76.06,14.25,0.7474755572987882,-0.2220701639470417,-0.07007340067926471,-106.6622162163593,31.507090202315183,-45.424093194951936,-0.3659,-0.8021,0.2715,-0.3861
15,2233667.0,715.5878650000001,1.0,8.46,3.06,-4.15,-36.19,-25.25,1.69,19.25,-76.06,14.25,0.7474755572987882,-0.2220701639470417,-0.07007340067926471,-106.6622162163593,31.507090202315183,-45.424093194951936,-0.3659,-0.8021,0.2715,-0.3861
16,2233702.0,715.634678,1.0,8.56,3.11,-4.67,-36.19,-25.69,3.25,-3.0,-58.75,11.25,0.6919966794601733,-0.32387635386903924,-0.3997619406880979,-107.64651805195676,32.508472977193804,-43.986826321433156,-0.3604,-0.8072,0.2799,-0.3745
17,2233702.0,715.634678,1.0,8.56,3.11,-4.67,-36.19,-25.69,3.25,-3.0,-58.75,11.25,0.6919966794601733,-0.32387635386903924,-0.3997619406880979,-107.64651805195676,32.508472977193804,-43.986826321433156,-0.3604,-0.8072,0.2799,-0.3745
18,2233737.0,715.704717,1.0,8.84,2.86,-5.86,-35.75,-24.5,6.56,-4.81,-61.06,11.63,0.7886338247832121,-1.0131085744601016,-1.1028168846265471,-108.7801674720705,33.823690775726206,-41.99165970563765,-0.3548,-0.813,0.2909,-0.3583
19,2233737.0,715.704717,1.0,8.84,2.86,-5.86,-35.75,-24.5,6.56,-4.81,-61.06,11.63,0.7886338247832121,-1.0131085744601016,-1.1028168846265471,-108.7801674720705,33.823690775726206,-41.99165970563765,-0.3548,-0.813,0.2909,-0.3583
20,2233774.0,715.718098,1.0,7.96,1.69,-6.18,-36.19,-24.19,6.56,6.5,-95.06,21.06,1.241790753701399,-1.7474297928625862,-0.18407293895881693,-110.04955295767435,35.27575900730597,-39.93657709614047,-0.3466,-0.8194,0.303,-0.3415
21,2233774.0,715.718098,1.0,7.96,1.69,-6.18,-36.19,-24.19,6.56,6.5,-95.06,21.06,1.241790753701399,-1.7474297928625862,-0.18407293895881693,-110.04955295767435,35.27575900730597,-39.93657709614047,-0.3466,-0.8194,0.303,-0.3415
22,2233806.0,715.770561,1.0,7.31,-1.39,-7.55,-36.19,-24.19,6.56,34.88,-93.06,39.13,2.8669288440419973,-4.085548374706328,0.4546601860013499,-112.03329231056664,37.42262477199783,-37.555735630625364,-0.3254,-0.8292,0.3208,-0.3219
23,2233806.0,715.770561,1.0,7.31,-1.39,-7.55,-36.19,-24.19,6.56,34.88,-93.06,39.13,2.8669288440419973,-4.085548374706328,0.4546601860013499,-112.03329231056664,37.42262477199783,-37.555735630625364,-0.3254,-0.8292,0.3208,-0.3219
24,2233843.0,715.786003,1.0,5.47,-1.1,-5.42,-36.19,-23.75,9.5,-60.69,-123.81,77.62,2.51020518113669,-2.4716584936233894,2.871444578421351,-112.21802358107666,40.705624379147494,-34.843138613311,-0.3168,-0.8301,0.3478,-0.2994
25,2233843.0,715.786003,1.0,5.47,-1.1,-5.42,-36.19,-23.75,9.5,-60.69,-123.81,77.62,2.51020518113669,-2.4716584936233894,2.871444578421351,-112.21802358107666,40.705624379147494,-34.843138613311,-0.3168,-0.8301,0.3478,-0.2994
26,2233880.0,715.8277519999999,1.0,6.03,1.0,-5.79,-36.19,-20.75,12.69,-103.19,-121.56,105.56,1.422350790381283,-0.8679346046905405,1.5538560639391683,-109.96962968750276,46.68167205165904,-30.73390559555541,-0.3192,-0.8190000000000001,0.3962,-0.265
27,2233880.0,715.8277519999999,1.0,6.03,1.0,-5.79,-36.19,-20.75,12.69,-103.19,-121.56,105.56,1.422350790381283,-0.8679346046905405,1.5538560639391683,-109.96962968750276,46.68167205165904,-30.73390559555541,-0.3192,-0.8190000000000001,0.3962,-0.265
28,2233915.0,715.834201,1.0,4.94,3.04,-3.62,-36.19,-20.75,12.69,-90.81,-127.25,125.0,-0.4918978473472169,1.3898534854995992,3.1301281662440568,-107.56890139317555,51.88895954474002,-27.466273808985672,-0.3183,-0.8068,0.4375,-0.2374
29,2233915.0,715.834201,1.0,4.94,3.04,-3.62,-36.19,-20.75,12.69,-90.81,-127.25,125.0,-0.4918978473472169,1.3898534854995992,3.1301281662440568,-107.56890139317555,51.88895954474002,-27.466273808985672,-0.3183,-0.8068,0.4375,-0.2374
30,2233950.0,715.894432,1.0,6.03,4.8,-3.49,-35.75,-18.87,15.19,-80.12,-51.94,106.81,-1.7669699805382124,2.8625433032936423,2.043618187322334,-103.64505914352164,57.89395177277983,-24.842788298368426,-0.3187,-0.7861,0.484,-0.2151
31,2233950.0,715.894432,1.0,6.03,4.8,-3.49,-35.75,-18.87,15.19,-80.12,-51.94,106.81,-1.7669699805382124,2.8625433032936423,2.043618187322334,-103.64505914352164,57.89395177277983,-24.842788298368426,-0.3187,-0.7861,0.484,-0.2151
32,2233985.0,715.912757,1.0,10.97,7.88,-5.92,-36.88,-16.25,16.5,-75.44,-18.06,72.62,-2.8482709888287787,4.912866272410168,-3.8033756195060517,-99.7072857164662,61.99490997256027,-23.483409106034056,-0.3303,-0.7644,0.515,-0.2035
33,2233985.0,715.912757,1.0,10.97,7.88,-5.92,-36.88,-16.25,16.5,-75.44,-18.06,72.62,-2.8482709888287787,4.912866272410168,-3.8033756195060517,-99.7072857164662,61.99490997256027,-23.483409106034056,-0.3303,-0.7644,0.515,-0.2035
34,2234021.0,715.974854,1.0,12.41,11.37,-6.94,-36.56,-12.88,18.56,-65.37,-32.25,-0.63,-5.403609667222304,5.762543337457935,-6.595871051601206,-98.17314373529331,63.552034095396465,-21.928912393640328,-0.3396,-0.7557,0.5266,-0.1902
35,2234021.0,715.974854,1.0,12.41,11.37,-6.94,-36.56,-12.88,18.56,-65.37,-32.25,-0.63,-5.403609667222304,5.762543337457935,-6.595871051601206,-98.17314373529331,63.552034095396465,-21.928912393640328,-0.3396,-0.7557,0.5266,-0.1902
36,2234056.0,715.977875,1.0,14.44,16.67,-7.94,-36.56,-12.88,18.56,-80.62,-48.38,-75.81,-8.11013589641122,7.6612490898052945,-10.808321698396773,-98.99894740813559,62.74501384121864,-18.054013364312716,-0.3553,-0.7604,0.5206,-0.1569
37,2234056.0,715.977875,1.0,14.44,16.67,-7.94,-36.56,-12.88,18.56,-80.62,-48.38,-75.81,-8.11013589641122,7.6612490898052945,-10.808321698396773,-98.99894740813559,62.74501384121864,-18.054013364312716,-0.3553,-0.7604,0.5206,-0.1569
38,2234093.0,716.033846,1.0,11.4,16.17,-6.44,-35.88,-14.0,19.25,-26.87,-4.25,-255.25,-7.093929124991676,7.279363588361923,-8.347950940753991,-103.16431731106186,57.920143749681635,-14.650301303680088,-0.368,-0.7835,0.4842,-0.1275
39,2234093.0,716.033846,1.0,11.4,16.17,-6.44,-35.88,-14.0,19.25,-26.87,-4.25,-255.25,-7.093929124991676,7.279363588361923,-8.347950940753991,-103.16431731106186,57.920143749681635,-14.650301303680088,-0.368,-0.7835,0.4842,-0.1275
40,2234130.0,716.084392,1.0,8.66,13.66,-2.63,-33.69,-19.69,18.5,34.31,47.13,-401.88,-3.3815792308078896,8.736578067005157,-3.6375020961678017,-113.39846355737878,45.12611671542185,-10.499813733449363,-0.382,-0.8358,0.3837,-0.0915
41,2234130.0,716.084392,1.0,8.66,13.66,-2.63,-33.69,-19.69,18.5,34.31,47.13,-401.88,-3.3815792308078896,8.736578067005157,-3.6375020961678017,-113.39846355737878,45.12611671542185,-10.499813733449363,-0.382,-0.8358,0.3837,-0.0915
42,2234167.0,716.10543,1.0,5.52,9.66,0.34,-33.69,-19.69,18.5,93.19,106.81,-459.25,-0.6683390134888921,7.9596477809618245,2.0543000229879897,-122.82802018843607,32.21017938044361,-8.453062112264227,-0.38299999999999995,-0.8781,0.2774,-0.0737
43,2234167.0,716.10543,1.0,5.52,9.66,0.34,-33.69,-19.69,18.5,93.19,106.81,-459.25,-0.6683390134888921,7.9596477809618245,2.0543000229879897,-122.82802018843607,32.21017938044361,-8.453062112264227,-0.38299999999999995,-0.8781,0.2774,-0.0737
44,2234202.0,716.15975,1.0,4.46,7.42,1.85,-26.19,-29.75,17.19,90.0,201.13,-525.0,2.6231888011674234,7.1366422810518495,5.272588083160653,-133.91067619883825,11.939110700430106,-7.5340922105741654,-0.3716,-0.9202,0.10400000000000001,-0.0657
45,2234202.0,716.15975,1.0,4.46,7.42,1.85,-26.19,-29.75,17.19,90.0,201.13,-525.0,2.6231888011674234,7.1366422810518495,5.272588083160653,-133.91067619883825,11.939110700430106,-7.5340922105741654,-0.3716,-0.9202,0.10400000000000001,-0.0657
46,2234236.0,716.171625,1.0,7.57,6.13,-1.13,-13.88,-36.88,16.5,43.88,307.13,-610.44,7.957771788267747,1.4578258870594225,4.265232144534725,-133.3865649159552,-13.530302549412001,-9.246109154854068,-0.369,-0.9184,-0.1178,-0.0806
47,2234236.0,716.171625,1.0,7.57,6.13,-1.13,-13.88,-36.88,16.5,43.88,307.13,-610.44,7.957771788267747,1.4578258870594225,4.265232144534725,-133.3865649159552,-13.530302549412001,-9.246109154854068,-0.369,-0.9184,-0.1178,-0.0806
48,2234273.0,716.1899540000001,1.0,9.17,2.92,-6.14,1.37,-40.0,16.87,50.94,270.56,-540.31,6.634978249505617,-6.914031845409794,3.6027699826844986,-125.37071718924679,-32.067078184397204,-10.68394626499923,-0.3542,-0.8885,-0.2762,-0.0931
49,2234273.0,716.1899540000001,1.0,9.17,2.92,-6.14,1.37,-40.0,16.87,50.94,270.56,-540.31,6.634978249505617,-6.914031845409794,3.6027699826844986,-125.37071718924679,-32.067078184397204,-10.68394626499923,-0.3542,-0.8885,-0.2762,-0.0931
50,2234308.0,716.236705,1.0,7.32,2.28,-7.61,1.37,-40.0,16.87,-31.37,193.19,-441.31,2.3325484273019232,-8.577064152582633,3.667750395284728,-111.25813232752796,-51.31619778683095,-11.605033754368794,-0.3478,-0.8254,-0.433,-0.1011
51,2234308.0,716.236705,1.0,7.32,2.28,-7.61,1.37,-40.0,16.87,-31.37,193.19,-441.31,2.3325484273019232,-8.577064152582633,3.667750395284728,-111.25813232752796,-51.31619778683095,-11.605033754368794,-0.3478,-0.8254,-0.433,-0.1011
52,2234345.0,716.307662,1.0,5.59,0.39,-9.65,15.06,-35.19,19.37,9.19,159.94,-263.38,-2.1715422393426143,-8.847688235872265,3.362620423441681,-102.88812004458934,-61.40760741658022,-12.492290914481535,-0.3404,-0.782,-0.5106,-0.1088
53,2234345.0,716.307662,1.0,5.59,0.39,-9.65,15.06,-35.19,19.37,9.19,159.94,-263.38,-2.1715422393426143,-8.847688235872265,3.362620423441681,-102.88812004458934,-61.40760741658022,-12.492290914481535,-0.3404,-0.782,-0.5106,-0.1088
54,2234382.0,716.312525,1.0,4.39,1.57,-6.96,22.5,-30.19,23.0,11.63,105.19,-96.75,-1.06554117877095,-6.212070859123919,4.288190283959042,-97.6844263573576,-68.4993168665412,-13.761120312162008,-0.3196,-0.7529,-0.5628,-0.1198
55,2234382.0,716.312525,1.0,4.39,1.57,-6.96,22.5,-30.19,23.0,11.63,105.19,-96.75,-1.06554117877095,-6.212070859123919,4.288190283959042,-97.6844263573576,-68.4993168665412,-13.761120312162008,-0.3196,-0.7529,-0.5628,-0.1198
56,2234417.0,716.388786,1.0,7.13,2.66,-11.03,22.5,-30.19,23.0,-23.5,110.94,-48.19,-2.129950996347601,-9.635370152320814,0.7404296860586328,-95.2755931282083,-71.4506360226007,-15.841123321226055,-0.3068,-0.7389,-0.5839,-0.1378
57,2234417.0,716.388786,1.0,7.13,2.66,-11.03,22.5,-30.19,23.0,-23.5,110.94,-48.19,-2.129950996347601,-9.635370152320814,0.7404296860586328,-95.2755931282083,-71.4506360226007,-15.841123321226055,-0.3068,-0.7389,-0.5839,-0.1378
58,2234451.0,716.4108200000001,1.0,6.8,6.21,-12.21,22.5,-26.87,24.06,-24.19,21.75,80.87,-0.6805674691263923,-8.792546976863525,-2.687994676004797,-95.03777424913531,-71.01366013662432,-18.715683728517142,-0.304,-0.7375,-0.5808,-0.1626
59,2234451.0,716.4108200000001,1.0,6.8,6.21,-12.21,22.5,-26.87,24.06,-24.19,21.75,80.87,-0.6805674691263923,-8.792546976863525,-2.687994676004797,-95.03777424913531,-71.01366013662432,-18.715683728517142,-0.304,-0.7375,-0.5808,-0.1626
60,2234486.0,716.455554,1.0,4.9,7.76,-8.81,22.87,-27.19,25.5,10.75,-54.75,126.62,2.309420244636806,-5.37471463269466,-1.4903726498294496,-99.54745870347031,-66.25445619743063,-18.785369486689323,-0.3028,-0.7635,-0.5465,-0.1632
61,2234486.0,716.455554,1.0,4.9,7.76,-8.81,22.87,-27.19,25.5,10.75,-54.75,126.62,2.309420244636806,-5.37471463269466,-1.4903726498294496,-99.54745870347031,-66.25445619743063,-18.785369486689323,-0.3028,-0.7635,-0.5465,-0.1632
62,2234523.0,716.463916,1.0,4.04,5.97,-7.83,20.19,-29.75,24.87,41.13,-95.81,135.94,1.6478565722019545,-4.491196989133688,0.29954116911732953,-103.42286086216532,-62.423176652141294,-17.54366623938741,-0.3036,-0.7849,-0.5182,-0.1525
63,2234523.0,716.463916,1.0,4.04,5.97,-7.83,20.19,-29.75,24.87,41.13,-95.81,135.94,1.6478565722019545,-4.491196989133688,0.29954116911732953,-103.42286086216532,-62.423176652141294,-17.54366623938741,-0.3036,-0.7849,-0.5182,-0.1525
64,2234558.0,716.5286480000001,1.0,4.2,4.54,-7.52,20.19,-29.75,24.87,82.25,-104.06,220.38,1.710650332669237,-4.372439723304398,1.2768524463995394,-112.05379617607242,-54.42603640579737,-15.332219618835126,-0.2921,-0.8293,-0.4573,-0.1334
65,2234558.0,716.5286480000001,1.0,4.2,4.54,-7.52,20.19,-29.75,24.87,82.25,-104.06,220.38,1.710650332669237,-4.372439723304398,1.2768524463995394,-112.05379617607242,-54.42603640579737,-15.332219618835126,-0.2921,-0.8293,-0.4573,-0.1334
66,2234595.0,716.5568480000001,1.0,4.37,3.9,-7.15,18.25,-31.25,24.06,54.19,-87.12,297.63,2.115789602535737,-3.9502365132938526,1.7228102040341169,-120.22373946495337,-46.182918527144956,-14.592535930080526,-0.2798,-0.867,-0.3922,-0.127
67,2234595.0,716.5568480000001,1.0,4.37,3.9,-7.15,18.25,-31.25,24.06,54.19,-87.12,297.63,2.115789602535737,-3.9502365132938526,1.7228102040341169,-120.22373946495337,-46.182918527144956,-14.592535930080526,-0.2798,-0.867,-0.3922,-0.127
68,2234632.0,716.602588,1.0,3.72,3.32,-6.55,15.25,-32.0,26.25,10.75,-60.69,340.44,1.8794724899985251,-2.5640923445800285,2.2134745372700086,-131.1213744286973,-33.548317235556404,-15.39003407585724,-0.2645,-0.9104,-0.2886,-0.1339
69,2234632.0,716.602588,1.0,3.72,3.32,-6.55,15.25,-32.0,26.25,10.75,-60.69,340.44,1.8794724899985251,-2.5640923445800285,2.2134745372700086,-131.1213744286973,-33.548317235556404,-15.39003407585724,-0.2645,-0.9104,-0.2886,-0.1339
70,2234667.0,716.619785,1.0,3.77,2.2,-7.01,15.25,-32.0,26.25,-8.5,-83.31,379.13,1.4156384397308153,-2.9164422262890763,2.211695586135852,-138.5209607780903,-22.945282804181343,-16.2114321173387,-0.257,-0.9352,-0.1989,-0.141
71,2234667.0,716.619785,1.0,3.77,2.2,-7.01,15.25,-32.0,26.25,-8.5,-83.31,379.13,1.4156384397308153,-2.9164422262890763,2.211695586135852,-138.5209607780903,-22.945282804181343,-16.2114321173387,-0.257,-0.9352,-0.1989,-0.141
72,2234701.0,716.623869,1.0,4.38,2.87,-5.51,5.38,-34.25,24.87,-54.44,-129.13,432.88,2.650086458421841,-0.8305934824805044,2.7307361911870305,-145.95896619488119,-6.0647243159910715,-16.095692494623034,-0.2516,-0.9562,-0.0529,-0.14
73,2234701.0,716.623869,1.0,4.38,2.87,-5.51,5.38,-34.25,24.87,-54.44,-129.13,432.88,2.650086458421841,-0.8305934824805044,2.7307361911870305,-145.95896619488119,-6.0647243159910715,-16.095692494623034,-0.2516,-0.9562,-0.0529,-0.14
74,2234738.0,716.666288,1.0,3.39,4.73,-3.78,-2.0,-34.69,24.56,-123.25,-85.69,400.94,1.1554146235605292,2.284352855470169,3.3568322444841296,-142.99145809873448,10.534336497867196,-16.581911426258042,-0.2675,-0.9483,0.0918,-0.1442
75,2234738.0,716.666288,1.0,3.39,4.73,-3.78,-2.0,-34.69,24.56,-123.25,-85.69,400.94,1.1554146235605292,2.284352855470169,3.3568322444841296,-142.99145809873448,10.534336497867196,-16.581911426258042,-0.2675,-0.9483,0.0918,-0.1442
76,2234773.0,716.728668,1.0,3.28,9.75,-5.24,-12.56,-33.75,23.75,-178.5,-22.25,285.69,-2.088452498269588,5.063134525248714,-0.35610233102263505,-135.73041492290912,20.308637900960072,-17.636430239406273,-0.2955,-0.9263,0.1763,-0.1533
77,2234773.0,716.728668,1.0,3.28,9.75,-5.24,-12.56,-33.75,23.75,-178.5,-22.25,285.69,-2.088452498269588,5.063134525248714,-0.35610233102263505,-135.73041492290912,20.308637900960072,-17.636430239406273,-0.2955,-0.9263,0.1763,-0.1533
78,2234808.0,716.7330450000001,1.0,3.14,9.22,-5.16,-12.56,-33.75,23.75,-88.62,23.69,237.5,-3.4970027697600914,3.827325275974872,0.07956652856961988,-127.24853393391231,29.618281737295238,-20.20387293870638,-0.3184,-0.8959,0.2556,-0.1754
79,2234808.0,716.7330450000001,1.0,3.14,9.22,-5.16,-12.56,-33.75,23.75,-88.62,23.69,237.5,-3.4970027697600914,3.827325275974872,0.07956652856961988,-127.24853393391231,29.618281737295238,-20.20387293870638,-0.3184,-0.8959,0.2556,-0.1754
80,2234845.0,716.7941450000001,1.0,5.43,9.37,-3.58,-20.75,-32.69,20.5,-94.69,124.56,189.06,-2.761927703857862,5.1186840312830535,-0.005028202354084854,-120.63897960324066,34.747070547477996,-24.05720924110893,-0.3353,-0.8688,0.2986,-0.2084
81,2234845.0,716.7941450000001,1.0,5.43,9.37,-3.58,-20.75,-32.69,20.5,-94.69,124.56,189.06,-2.761927703857862,5.1186840312830535,-0.005028202354084854,-120.63897960324066,34.747070547477996,-24.05720924110893,-0.3353,-0.8688,0.2986,-0.2084
82,2234882.0,716.8119389999999,1.0,9.38,7.96,-4.58,-27.5,-29.25,17.56,-44.25,226.06,105.31,-0.7731146640755608,3.753621531004304,-2.748628536064908,-112.38260211278737,37.180738981785375,-31.85252256097231,-0.3641,-0.8309,0.3188,-0.2744
83,2234882.0,716.8119389999999,1.0,9.38,7.96,-4.58,-27.5,-29.25,17.56,-44.25,226.06,105.31,-0.7731146640755608,3.753621531004304,-2.748628536064908,-112.38260211278737,37.180738981785375,-31.85252256097231,-0.3641,-0.8309,0.3188,-0.2744
84,2234918.0,716.868062,1.0,10.79,7.28,-5.99,-27.5,-29.25,17.56,-66.19,124.62,67.5,-0.6611299336853531,1.7073106969521143,-4.404282319691701,-107.41388301314085,37.71311628724267,-36.4923011370016,-0.3844,-0.8059999999999999,0.3232,-0.3131
85,2234918.0,716.868062,1.0,10.79,7.28,-5.99,-27.5,-29.25,17.56,-66.19,124.62,67.5,-0.6611299336853531,1.7073106969521143,-4.404282319691701,-107.41388301314085,37.71311628724267,-36.4923011370016,-0.3844,-0.8059999999999999,0.3232,-0.3131
86,2234953.0,716.870954,1.0,8.63,7.61,-3.77,-34.25,-26.25,10.56,-42.88,21.25,36.06,-2.061816963351564,2.6832800549188667,-1.818788441474384,-104.25895173526337,39.79030547860814,-37.41052638436744,-0.3978,-0.7894,0.3403,-0.3207
87,2234953.0,716.870954,1.0,8.63,7.61,-3.77,-34.25,-26.25,10.56,-42.88,21.25,36.06,-2.061816963351564,2.6832800549188667,-1.818788441474384,-104.25895173526337,39.79030547860814,-37.41052638436744,-0.3978,-0.7894,0.3403,-0.3207
88,2234988.0,716.907274,1.0,8.93,6.51,-4.98,-36.5,-24.06,6.88,-1.88,32.63,8.5,-1.4977532942713834,1.0234223128045254,-2.1781212468429345,-103.01690791684817,39.92438520696097,-38.47686069075838,-0.4027,-0.7827,0.3414,-0.3295
89,2234988.0,716.907274,1.0,8.93,6.51,-4.98,-36.5,-24.06,6.88,-1.88,32.63,8.5,-1.4977532942713834,1.0234223128045254,-2.1781212468429345,-103.01690791684817,39.92438520696097,-38.47686069075838,-0.4027,-0.7827,0.3414,-0.3295
90,2235025.0,716.9711900000001,1.0,8.52,4.62,-4.39,-37.56,-23.69,6.06,-9.19,37.13,2.44,-0.16964325390840718,0.4364413749940734,-0.8229144356952229,-102.41134549904314,39.5953816587114,-39.37623490539532,-0.4054,-0.7794,0.3387,-0.3369
91,2235025.0,716.9711900000001,1.0,8.52,4.62,-4.39,-37.56,-23.69,6.06,-9.19,37.13,2.44,-0.16964325390840718,0.4364413749940734,-0.8229144356952229,-102.41134549904314,39.5953816587114,-39.37623490539532,-0.4054,-0.7794,0.3387,-0.3369
92,2235058.0,716.990384,1.0,7.86,4.7,-4.32,-37.56,-23.69,6.06,-10.44,36.06,-3.19,-0.6598091461849269,0.12544062867675665,-0.2968601098226191,-101.39272551986973,39.10859227464813,-40.37580051258581,-0.4125,-0.7738,0.3347,-0.3451
93,2235058.0,716.990384,1.0,7.86,4.7,-4.32,-37.56,-23.69,6.06,-10.44,36.06,-3.19,-0.6598091461849269,0.12544062867675665,-0.2968601098226191,-101.39272551986973,39.10859227464813,-40.37580051258581,-0.4125,-0.7738,0.3347,-0.3451
94,2235095.0,717.038559,1.0,8.01,4.07,-3.84,-38.69,-23.25,4.5,1.56,25.31,7.88,-0.04988208034357422,0.20256532539258745,0.03797152914176394,-100.79761933768772,38.974854277526724,-41.17041905633896,-0.4141,-0.7705,0.3336,-0.3516
95,2235095.0,717.038559,1.0,8.01,4.07,-3.84,-38.69,-23.25,4.5,1.56,25.31,7.88,-0.04988208034357422,0.20256532539258745,0.03797152914176394,-100.79761933768772,38.974854277526724,-41.17041905633896,-0.4141,-0.7705,0.3336,-0.3516
96,2235131.0,717.0945469999999,1.0,8.04,4.37,-4.24,-38.25,-23.06,4.5,-4.56,14.44,-3.13,-0.4211819680526672,-0.11007433916679643,-0.2693903626446588,-100.33136679814685,38.80472209856705,-41.586888761097505,-0.4171,-0.7679,0.3322,-0.355
97,2235131.0,717.0945469999999,1.0,8.04,4.37,-4.24,-38.25,-23.06,4.5,-4.56,14.44,-3.13,-0.4211819680526672,-0.11007433916679643,-0.2693903626446588,-100.33136679814685,38.80472209856705,-41.586888761097505,-0.4171,-0.7679,0.3322,-0.355
98,2235164.0,717.11409,1.0,7.96,3.74,-4.22,-38.25,-23.06,4.5,4.44,6.44,3.75,0.028637661518898124,-0.407085166098758,0.060314198690612386,-100.29559547862137,38.598252513901095,-41.84440708007335,-0.41700000000000004,-0.7677,0.3305,-0.3571
99,2235164.0,717.11409,1.0,7.96,3.74,-4.22,-38.25,-23.06,4.5,4.44,6.44,3.75,0.028637661518898124,-0.407085166098758,0.060314198690612386,-100.29559547862137,38.598252513901095,-41.84440708007335,-0.41700000000000004,-0.7677,0.3305,-0.3571
100,2235199.0,717.13174,1.0,7.7,4.33,-3.91,-38.25,-23.06,3.19,-0.81,9.0,9.06,-0.5692550692262688,0.0354264767398198,0.16291142873491005,-99.92080048347364,38.768276788891846,-42.22495842729175,-0.4172,-0.7656,0.3319,-0.3602
101,2235199.0,717.13174,1.0,7.7,4.33,-3.91,-38.25,-23.06,3.19,-0.81,9.0,9.06,-0.5692550692262688,0.0354264767398198,0.16291142873491005,-99.92080048347364,38.768276788891846,-42.22495842729175,-0.4172,-0.7656,0.3319,-0.3602
102,2235234.0,717.176787,1.0,7.54,3.99,-3.79,-38.69,-23.06,3.19,11.5,26.5,-9.31,-0.3737358257346355,-0.11354138494705235,0.4801699626833091,-99.7250605850298,38.343381493661,-42.71671526594671,-0.4186,-0.7645,0.3284,-0.3642
103,2235234.0,717.176787,1.0,7.54,3.99,-3.79,-38.69,-23.06,3.19,11.5,26.5,-9.31,-0.3737358257346355,-0.11354138494705235,0.4801699626833091,-99.7250605850298,38.343381493661,-42.71671526594671,-0.4186,-0.7645,0.3284,-0.3642
104,2235271.0,717.194288,1.0,7.57,3.21,-3.36,-39.0,-23.75,4.0,16.87,34.38,-4.5,0.31385180551308545,-0.1970773085066575,0.9318960553180436,-99.47650902646944,37.362137156703376,-43.887975339090566,-0.4189,-0.7631,0.3203,-0.3737
105,2235271.0,717.194288,1.0,7.57,3.21,-3.36,-39.0,-23.75,4.0,16.87,34.38,-4.5,0.31385180551308545,-0.1970773085066575,0.9318960553180436,-99.47650902646944,37.362137156703376,-43.887975339090566,-0.4189,-0.7631,0.3203,-0.3737
106,2235305.0,717.237005,1.0,9.22,3.84,-4.37,-39.0,-23.75,4.0,-2.94,33.13,8.0,0.21028775440204472,-0.6611221228415014,-1.0731292532311103,-98.78744465249004,36.999437339480345,-44.96484726352389,-0.4203,-0.7592,0.3173,-0.3824
107,2235305.0,717.237005,1.0,9.22,3.84,-4.37,-39.0,-23.75,4.0,-2.94,33.13,8.0,0.21028775440204472,-0.6611221228415014,-1.0731292532311103,-98.78744465249004,36.999437339480345,-44.96484726352389,-0.4203,-0.7592,0.3173,-0.3824
108,2235342.0,717.304188,1.0,8.33,4.28,-3.75,-39.0,-23.37,1.5,8.5,10.13,-1.5,-0.4362353547028208,-0.14460103145574574,-0.27097815631779376,-98.3657986482455,36.914862771096224,-45.29989704883653,-0.4229,-0.7568,0.3166,-0.3851
109,2235342.0,717.304188,1.0,8.33,4.28,-3.75,-39.0,-23.37,1.5,8.5,10.13,-1.5,-0.4362353547028208,-0.14460103145574574,-0.27097815631779376,-98.3657986482455,36.914862771096224,-45.29989704883653,-0.4229,-0.7568,0.3166,-0.3851
110,2235377.0,717.319291,1.0,6.9,2.99,-2.33,-39.38,-23.75,2.38,10.63,35.56,-0.63,0.2862511061576225,0.26423516750812626,1.9436200445390932,-98.1906423635664,36.43197725116238,-45.98367660557063,-0.4225,-0.7558,0.3126,-0.3906
111,2235377.0,717.319291,1.0,6.9,2.99,-2.33,-39.38,-23.75,2.38,10.63,35.56,-0.63,0.2862511061576225,0.26423516750812626,1.9436200445390932,-98.1906423635664,36.43197725116238,-45.98367660557063,-0.4225,-0.7558,0.3126,-0.3906
112,2235412.0,717.373467,1.0,7.53,3.23,-1.86,-39.38,-23.75,2.38,-29.31,137.31,1.63,0.34735870326243834,0.4341996061931699,1.4230819867225062,-95.73577991639958,35.17957649356332,-48.64849167574625,-0.4348,-0.7416,0.3022,-0.4119
113,2235412.0,717.373467,1.0,7.53,3.23,-1.86,-39.38,-23.75,2.38,-29.31,137.31,1.63,0.34735870326243834,0.4341996061931699,1.4230819867225062,-95.73577991639958,35.17957649356332,-48.64849167574625,-0.4348,-0.7416,0.3022,-0.4119
114,2235447.0,717.391046,1.0,9.8,4.73,-1.69,-40.19,-23.75,-0.06,-47.94,292.63,-12.44,-0.24889962141759514,0.18451604925454299,-1.201210955064143,-90.37223725523552,32.162473260424385,-54.026945257147645,-0.4623,-0.7094,0.27699999999999997,-0.4542
115,2235447.0,717.391046,1.0,9.8,4.73,-1.69,-40.19,-23.75,-0.06,-47.94,292.63,-12.44,-0.24889962141759514,0.18451604925454299,-1.201210955064143,-90.37223725523552,32.162473260424385,-54.026945257147645,-0.4623,-0.7094,0.27699999999999997,-0.4542
116,2235484.0,717.4394440000001,1.0,10.6,3.72,-1.27,-39.75,-23.06,-5.88,-17.44,134.94,9.06,0.4212208167436784,-1.2802460121780506,-1.4180924545886118,-84.56707943682893,28.517345406099267,-59.99999999999999,-0.4865,-0.6728,0.2463,-0.5
117,2235484.0,717.4394440000001,1.0,10.6,3.72,-1.27,-39.75,-23.06,-5.88,-17.44,134.94,9.06,0.4212208167436784,-1.2802460121780506,-1.4180924545886118,-84.56707943682893,28.517345406099267,-59.99999999999999,-0.4865,-0.6728,0.2463,-0.5
118,2235518.0,717.461266,1.0,9.56,4.66,0.03,-39.75,-23.06,-5.88,-43.75,79.0,-7.31,-0.4176207181868217,-0.03867722848967325,-0.8204002496100724,-82.03659298623278,27.82029976108695,-61.74108139765568,-0.4984,-0.6563,0.2404,-0.5131
119,2235518.0,717.461266,1.0,9.56,4.66,0.03,-39.75,-23.06,-5.88,-43.75,79.0,-7.31,-0.4176207181868217,-0.03867722848967325,-0.8204002496100724,-82.03659298623278,27.82029976108695,-61.74108139765568,-0.4984,-0.6563,0.2404,-0.5131
120,2235553.0,717.507129,1.0,8.31,3.91,0.64,-37.5,-23.06,-11.56,-8.63,125.75,-3.31,-0.18250804316575972,-0.12981504971404598,0.6031920157938709,-78.92899912643803,25.98223545272544,-64.15961512656168,-0.5132,-0.6356,0.2248,-0.5311
121,2235553.0,717.507129,1.0,8.31,3.91,0.64,-37.5,-23.06,-11.56,-8.63,125.75,-3.31,-0.18250804316575972,-0.12981504971404598,0.6031920157938709,-78.92899912643803,25.98223545272544,-64.15961512656168,-0.5132,-0.6356,0.2248,-0.5311
122,2235588.0,717.525224,1.0,9.38,3.87,0.7,-35.56,-23.75,-16.5,-8.0,77.19,2.88,-0.030610454907155967,-0.8838758601995977,-0.3259274837307249,-76.34046104575957,24.38536915234885,-66.69286830197329,-0.5208,-0.618,0.2112,-0.5497
123,2235588.0,717.525224,1.0,9.38,3.87,0.7,-35.56,-23.75,-16.5,-8.0,77.19,2.88,-0.030610454907155967,-0.8838758601995977,-0.3259274837307249,-76.34046104575957,24.38536915234885,-66.69286830197329,-0.5208,-0.618,0.2112,-0.5497
124,2235625.0,717.570283,1.0,8.12,4.44,1.48,-34.5,-23.75,-20.06,-12.19,10.44,-5.13,-0.5744020053167989,0.2938995638386785,0.4566721720763685,-75.70052817172606,24.25642512530879,-66.93996042635567,-0.5247,-0.6136,0.2101,-0.5515
125,2235625.0,717.570283,1.0,8.12,4.44,1.48,-34.5,-23.75,-20.06,-12.19,10.44,-5.13,-0.5744020053167989,0.2938995638386785,0.4566721720763685,-75.70052817172606,24.25642512530879,-66.93996042635567,-0.5247,-0.6136,0.2101,-0.5515
126,2235658.0,717.587893,1.0,8.37,3.79,1.5,-34.5,-23.75,-20.06,-1.0,10.38,5.19,0.015218852099450062,-0.050456298264785586,0.4970730736028504,-75.35264288775507,24.174386077512,-67.22868060325891,-0.5254,-0.6112,0.2094,-0.5536
127,2235658.0,717.587893,1.0,8.37,3.79,1.5,-34.5,-23.75,-20.06,-1.0,10.38,5.19,0.015218852099450062,-0.050456298264785586,0.4970730736028504,-75.35264288775507,24.174386077512,-67.22868060325891,-0.5254,-0.6112,0.2094,-0.5536
128,2235695.0,717.6309660000001,1.0,9.12,4.47,1.43,-34.19,-23.75,-20.56,-6.0,5.88,5.56,-0.42009997903449015,-0.14706235126825407,-0.4404026822328113,-74.97668509466439,24.279867169785643,-67.47654041370244,-0.5262,-0.6086,0.2103,-0.5554
129,2235695.0,717.6309660000001,1.0,9.12,4.47,1.43,-34.19,-23.75,-20.56,-6.0,5.88,5.56,-0.42009997903449015,-0.14706235126825407,-0.4404026822328113,-74.97668509466439,24.279867169785643,-67.47654041370244,-0.5262,-0.6086,0.2103,-0.5554
130,2235731.0,717.694383,1.0,8.86,4.11,1.53,-34.5,-23.06,-19.69,4.81,0.37,-3.44,-0.14134147894237015,-0.10180323432876248,-0.07779528983850348,-75.04891103546538,24.174386077512,-67.53166897221763,-0.5256,-0.6091,0.2094,-0.5558
131,2235731.0,717.694383,1.0,8.86,4.11,1.53,-34.5,-23.06,-19.69,4.81,0.37,-3.44,-0.14134147894237015,-0.10180323432876248,-0.07779528983850348,-75.04891103546538,24.174386077512,-67.53166897221763,-0.5256,-0.6091,0.2094,-0.5558
132,2235766.0,717.6984719999999,1.0,8.84,3.83,1.58,-34.5,-23.06,-19.69,-6.44,-3.31,3.63,0.11230809958750654,-0.1342324433486375,0.045488770826512585,-75.13562834382228,24.20954412674289,-67.51788517086389,-0.5249,-0.6097,0.2097,-0.5557
133,2235766.0,717.6984719999999,1.0,8.84,3.83,1.58,-34.5,-23.06,-19.69,-6.44,-3.31,3.63,0.11230809958750654,-0.1342324433486375,0.045488770826512585,-75.13562834382228,24.20954412674289,-67.51788517086389,-0.5249,-0.6097,0.2097,-0.5557
134,2235799.0,717.762234,1.0,8.43,4.46,1.48,-34.75,-22.69,-19.69,-14.94,-12.38,-2.44,-0.5797945716753601,0.16262865994407427,0.17418976527177146,-75.09226338481456,24.70200146162693,-67.03614692743177,-0.5272,-0.6094,0.2139,-0.5522
135,2235799.0,717.762234,1.0,8.43,4.46,1.48,-34.75,-22.69,-19.69,-14.94,-12.38,-2.44,-0.5797945716753601,0.16262865994407427,0.17418976527177146,-75.09226338481456,24.70200146162693,-67.03614692743177,-0.5272,-0.6094,0.2139,-0.5522
136,2235836.0,717.78295,1.0,8.48,3.74,1.5,-33.25,-23.06,-19.69,5.44,-2.69,1.31,0.06517316063918388,-0.06063918857354689,0.4183554079059988,-75.29474135486807,24.70200146162693,-66.98117667091634,-0.526,-0.6108,0.2139,-0.5518
137,2235836.0,717.78295,1.0,8.48,3.74,1.5,-33.25,-23.06,-19.69,5.44,-2.69,1.31,0.06517316063918388,-0.06063918857354689,0.4183554079059988,-75.29474135486807,24.70200146162693,-66.98117667091634,-0.526,-0.6108,0.2139,-0.5518
138,2235873.0,717.830723,1.0,8.62,3.74,1.69,-34.06,-22.69,-20.06,-6.13,0.19,1.75,0.18442942033261867,0.07559408085742114,0.2615794751764611,-75.29474135486807,24.807588026066757,-66.95369808518734,-0.5257,-0.6108,0.2148,-0.5516
139,2235873.0,717.830723,1.0,8.62,3.74,1.69,-34.06,-22.69,-20.06,-6.13,0.19,1.75,0.18442942033261867,0.07559408085742114,0.2615794751764611,-75.29474135486807,24.807588026066757,-66.95369808518734,-0.5257,-0.6108,0.2148,-0.5516
140,2235908.0,717.851811,1.0,8.75,3.97,1.49,-34.06,-22.69,-20.06,1.81,5.13,0.19,-0.06592506500172822,-0.07541760861145685,0.08381779584694016,-75.20793134376436,24.78412249918103,-66.99491759872723,-0.5262,-0.6102,0.2146,-0.5519
141,2235908.0,717.851811,1.0,8.75,3.97,1.49,-34.06,-22.69,-20.06,1.81,5.13,0.19,-0.06592506500172822,-0.07541760861145685,0.08381779584694016,-75.20793134376436,24.78412249918103,-66.99491759872723,-0.5262,-0.6102,0.2146,-0.5519
142,2235944.0,717.896373,1.0,9.01,3.84,1.13,-33.69,-22.69,-20.56,3.75,-0.81,-4.56,-0.03036489450280988,-0.5408689312526394,-0.037593941125569685,-75.22239615974651,24.596436196111345,-67.07738608365682,-0.5263,-0.6103,0.213,-0.5525
143,2235944.0,717.896373,1.0,9.01,3.84,1.13,-33.69,-22.69,-20.56,3.75,-0.81,-4.56,-0.03036489450280988,-0.5408689312526394,-0.037593941125569685,-75.22239615974651,24.596436196111345,-67.07738608365682,-0.5263,-0.6103,0.213,-0.5525
144,2235979.0,717.918763,1.0,8.77,3.7,1.24,-34.38,-22.25,-20.06,-3.56,-8.75,4.13,0.07204472207955748,-0.390777512887964,0.2158939039749548,-75.3236892986672,24.713732248446583,-66.95369808518734,-0.5259,-0.611,0.214,-0.5516
145,2235979.0,717.918763,1.0,8.77,3.7,1.24,-34.38,-22.25,-20.06,-3.56,-8.75,4.13,0.07204472207955748,-0.390777512887964,0.2158939039749548,-75.3236892986672,24.713732248446583,-66.95369808518734,-0.5259,-0.611,0.214,-0.5516
146,2236012.0,717.968935,1.0,7.94,4.45,1.64,-34.38,-22.25,-20.06,-8.81,-7.19,-4.94,-0.6275745782609466,0.5272810995387407,0.5944936405589694,-75.36712180089249,25.19492264637575,-66.50092772303125,-0.5273,-0.6113,0.2181,-0.5483
147,2236012.0,717.968935,1.0,7.94,4.45,1.64,-34.38,-22.25,-20.06,-8.81,-7.19,-4.94,-0.6275745782609466,0.5272810995387407,0.5944936405589694,-75.36712180089249,25.19492264637575,-66.50092772303125,-0.5273,-0.6113,0.2181,-0.5483
148,2236047.0,717.990182,1.0,8.44,3.81,1.43,-34.75,-22.69,-20.06,11.0,8.19,-4.75,0.001003067218716458,-0.06621912250600226,0.4370067825839463,-75.45402498067408,24.807588026066757,-66.61058219226842,-0.5271,-0.6119,0.2148,-0.5491
149,2236047.0,717.990182,1.0,8.44,3.81,1.43,-34.75,-22.69,-20.06,11.0,8.19,-4.75,0.001003067218716458,-0.06621912250600226,0.4370067825839463,-75.45402498067408,24.807588026066757,-66.61058219226842,-0.5271,-0.6119,0.2148,-0.5491
150,2236084.0,718.0819240000001,1.0,9.24,3.75,1.19,-34.06,-22.69,-19.69,-4.44,-5.75,2.75,0.17259327987602813,-0.5525190761620564,-0.2193728520694425,-75.43953757831886,24.772390131710253,-66.76146977168455,-0.5264,-0.6118,0.2145,-0.5502
151,2236084.0,718.0819240000001,1.0,9.24,3.75,1.19,-34.06,-22.69,-19.69,-4.44,-5.75,2.75,0.17259327987602813,-0.5525190761620564,-0.2193728520694425,-75.43953757831886,24.772390131710253,-66.76146977168455,-0.5264,-0.6118,0.2145,-0.5502
152,2236119.0,718.08855,1.0,8.54,4.5,1.41,-34.06,-22.69,-19.69,-12.63,-15.25,-1.06,-0.5692750061741961,0.16709002968603492,0.06921158482504985,-75.49749569312627,25.183180957237052,-66.39134200709483,-0.5272,-0.6122,0.218,-0.5475
153,2236119.0,718.08855,1.0,8.54,4.5,1.41,-34.06,-22.69,-19.69,-12.63,-15.25,-1.06,-0.5692750061741961,0.16709002968603492,0.06921158482504985,-75.49749569312627,25.183180957237052,-66.39134200709483,-0.5272,-0.6122,0.218,-0.5475
154,2236153.0,718.101305,1.0,8.19,4.2,1.45,-34.38,-22.25,-20.06,6.5,-0.81,-6.06,-0.3594404385602419,0.23128051220424184,0.4988085802183893,-75.74407148943448,25.265378432632104,-65.99466654035382,-0.528,-0.6139,0.2187,-0.5446
155,2236153.0,718.101305,1.0,8.19,4.2,1.45,-34.38,-22.25,-20.06,6.5,-0.81,-6.06,-0.3594404385602419,0.23128051220424184,0.4988085802183893,-75.74407148943448,25.265378432632104,-65.99466654035382,-0.528,-0.6139,0.2187,-0.5446
156,2236188.0,718.147666,1.0,8.72,3.54,1.14,-34.38,-21.87,-19.25,5.94,1.75,0.75,0.2403092253249444,-0.4346558400237233,0.3397114358728928,-75.84572265044491,25.112736460930662,-66.02199478441803,-0.5273,-0.6146,0.2174,-0.5448
157,2236188.0,718.147666,1.0,8.72,3.54,1.14,-34.38,-21.87,-19.25,5.94,1.75,0.75,0.2403092253249444,-0.4346558400237233,0.3397114358728928,-75.84572265044491,25.112736460930662,-66.02199478441803,-0.5273,-0.6146,0.2174,-0.5448
158,2236225.0,718.1706059999999,1.0,8.06,4.44,1.56,-33.69,-22.69,-19.25,-10.38,-8.25,-0.69,-0.5478264112989327,0.4705133696267276,0.5013126395339214,-75.80214927173115,25.441560447887092,-65.78983934086463,-0.5284,-0.6143,0.2202,-0.5431
159,2236225.0,718.1706059999999,1.0,8.06,4.44,1.56,-33.69,-22.69,-19.25,-10.38,-8.25,-0.69,-0.5478264112989327,0.4705133696267276,0.5013126395339214,-75.80214927173115,25.441560447887092,-65.78983934086463,-0.5284,-0.6143,0.2202,-0.5431
160,2236260.0,718.224771,1.0,8.8,4.06,1.34,-33.69,-22.69,-19.25,7.5,8.5,-0.63,-0.0920310611648658,-0.1040188761558838,0.024016900614938663,-75.75858878812349,25.241892093139462,-65.9536821068983,-0.5282,-0.614,0.2185,-0.5443
161,2236260.0,718.224771,1.0,8.8,4.06,1.34,-33.69,-22.69,-19.25,7.5,8.5,-0.63,-0.0920310611648658,-0.1040188761558838,0.024016900614938663,-75.75858878812349,25.241892093139462,-65.9536821068983,-0.5282,-0.614,0.2185,-0.5443
162,2236297.0,718.243105,1.0,9.17,3.73,0.92,-33.69,-22.69,-20.06,4.25,0.88,-0.06,0.1205514222074886,-0.717209226135666,-0.1089578119573531,-75.80214927173115,25.03056340197877,-66.1040049398115,-0.5275,-0.6143,0.2167,-0.5454
163,2236297.0,718.243105,1.0,9.17,3.73,0.92,-33.69,-22.69,-20.06,4.25,0.88,-0.06,0.1205514222074886,-0.717209226135666,-0.1089578119573531,-75.80214927173115,25.03056340197877,-66.1040049398115,-0.5275,-0.6143,0.2167,-0.5454
164,2236332.0,718.294703,1.0,8.23,4.22,1.51,-34.38,-23.06,-19.25,-9.06,-13.25,0.19,-0.31654107216822336,0.3059837419156699,0.445689808902408,-75.91837365235722,25.371080328389592,-65.7761926206296,-0.528,-0.6151,0.2196,-0.5429999999999999
165,2236332.0,718.294703,1.0,8.23,4.22,1.51,-34.38,-23.06,-19.25,-9.06,-13.25,0.19,-0.31654107216822336,0.3059837419156699,0.445689808902408,-75.91837365235722,25.371080328389592,-65.7761926206296,-0.528,-0.6151,0.2196,-0.5429999999999999
166,2236366.0,718.313363,1.0,8.38,4.21,1.42,-34.38,-23.06,-19.25,3.88,2.69,-4.31,-0.2883088430017605,0.1798258904057657,0.3277555148721696,-75.94744411493038,25.394572616004382,-65.65341937322533,-0.5284,-0.6153,0.2198,-0.5421
167,2236366.0,718.313363,1.0,8.38,4.21,1.42,-34.38,-23.06,-19.25,3.88,2.69,-4.31,-0.2883088430017605,0.1798258904057657,0.3277555148721696,-75.94744411493038,25.394572616004382,-65.65341937322533,-0.5284,-0.6153,0.2198,-0.5421
168,2236401.0,718.3643599999999,1.0,8.77,3.57,1.02,-35.19,-23.06,-17.69,10.63,6.56,-3.0,0.2192626170708054,-0.5424176854825822,0.3010775838205841,-76.06378359355024,24.93666734562011,-65.88539584221961,-0.5273,-0.6161,0.2159,-0.5438
169,2236401.0,718.3643599999999,1.0,8.77,3.57,1.02,-35.19,-23.06,-17.69,10.63,6.56,-3.0,0.2192626170708054,-0.5424176854825822,0.3010775838205841,-76.06378359355024,24.93666734562011,-65.88539584221961,-0.5273,-0.6161,0.2159,-0.5438
170,2236436.0,718.379855,1.0,8.59,4.31,1.5,-34.38,-23.06,-19.69,-9.56,-4.63,2.5,-0.2647666941071046,0.207543658307682,0.08548627194831049,-75.97652033503749,25.17143953683573,-65.80348711235835,-0.5278,-0.6155,0.2179,-0.5432
171,2236436.0,718.379855,1.0,8.59,4.31,1.5,-34.38,-23.06,-19.69,-9.56,-4.63,2.5,-0.2647666941071046,0.207543658307682,0.08548627194831049,-75.97652033503749,25.17143953683573,-65.80348711235835,-0.5278,-0.6155,0.2179,-0.5432
172,2236473.0,718.429109,1.0,8.66,4.07,1.19,-34.38,-23.06,-18.5,7.75,2.44,-4.63,-0.16056240206703154,-0.17828358664134947,0.1671980094677199,-76.04923610928397,25.042301608577386,-65.80348711235835,-0.5278,-0.616,0.2168,-0.5432
173,2236473.0,718.429109,1.0,8.66,4.07,1.19,-34.38,-23.06,-18.5,7.75,2.44,-4.63,-0.16056240206703154,-0.17828358664134947,0.1671980094677199,-76.04923610928397,25.042301608577386,-65.80348711235835,-0.5278,-0.616,0.2168,-0.5432
174,2236508.0,718.448459,1.0,8.74,3.78,1.06,-34.38,-23.06,-18.5,-0.81,-0.31,-3.5,0.0740733163102465,-0.4284732230534314,0.2353113349575242,-76.12198798415724,24.901460713527147,-65.74890233219018,-0.5281,-0.6165,0.2156,-0.5428
175,2236508.0,718.448459,1.0,8.74,3.78,1.06,-34.38,-23.06,-18.5,-0.81,-0.31,-3.5,0.0740733163102465,-0.4284732230534314,0.2353113349575242,-76.12198798415724,24.901460713527147,-65.74890233219018,-0.5281,-0.6165,0.2156,-0.5428
176,2236545.0,718.496926,1.0,8.25,4.33,1.27,-34.06,-22.69,-20.56,-9.0,-9.13,1.88,-0.4625422257454235,0.122502767545158,0.415412181621301,-76.06378359355024,25.277122006902648,-65.50347830987022,-0.529,-0.6161,0.2188,-0.541
177,2236545.0,718.496926,1.0,8.25,4.33,1.27,-34.06,-22.69,-20.56,-9.0,-9.13,1.88,-0.4625422257454235,0.122502767545158,0.415412181621301,-76.06378359355024,25.277122006902648,-65.50347830987022,-0.529,-0.6161,0.2188,-0.541
