,TIME,ELAPSED_SECONDS,PSTATE,acc_x,acc_y,acc_z,mag_x,mag_y,mag_z,gyr_x,gyr_y,gyr_z,lin_x,lin_y,lin_z,eul_x,eul_y,eul_z,qua_w,qua_x,qua_y,qua_z
0,1321846.0,1220.200677,1.0,0.0,0.91,-9.77,-7.5,-17.69,33.88,-2.81,-4.75,0.69,-0.12562984202141667,-0.4489529437025375,0.0054430132491081204,-153.61058909469406,25.253635128091673,-0.12605074034902247,-0.0662,-0.9736,0.2186,-0.0011
1,1321846.0,1220.200677,1.0,0.0,0.91,-9.77,-7.5,-17.69,33.88,-2.81,-4.75,0.69,-0.12562984202141667,-0.4489529437025375,0.0054430132491081204,-153.61058909469406,25.253635128091673,-0.12605074034902247,-0.0662,-0.9736,0.2186,-0.0011
2,1321883.0,1220.278102,1.0,-0.24,1.05,-9.76,-6.69,-17.25,34.75,-3.94,-6.44,-1.88,-0.3560565696866341,-0.4341548812819481,0.003465147196189733,-153.56043390061225,25.230149327633608,0.12605074034902247,-0.0672,-0.9735,0.2184,0.0011
3,1321883.0,1220.278102,1.0,-0.24,1.05,-9.76,-6.69,-17.25,34.75,-3.94,-6.44,-1.88,-0.3560565696866341,-0.4341548812819481,0.003465147196189733,-153.56043390061225,25.230149327633608,0.12605074034902247,-0.0672,-0.9735,0.2184,0.0011
4,1321918.0,1220.2815480000002,1.0,-0.46,1.2,-9.67,-6.69,-17.25,34.75,-3.19,-1.94,-0.56,-0.5958459051747846,-0.3898135721366193,0.07764629785944878,-153.56043390061225,25.21840683143225,0.2635608181333149,-0.0679,-0.9735,0.2183,0.0023
5,1321918.0,1220.2815480000002,1.0,-0.46,1.2,-9.67,-6.69,-17.25,34.75,-3.19,-1.94,-0.56,-0.5958459051747846,-0.3898135721366193,0.07764629785944878,-153.56043390061225,25.21840683143225,0.2635608181333149,-0.0679,-0.9735,0.2183,0.0023
6,1321951.0,1220.306519,1.0,0.13,1.19,-9.96,-6.69,-18.37,34.38,1.06,4.63,1.63,-0.06636968411547697,-0.1962578816415686,-0.22289026408608592,-153.5103719816942,25.241892093139462,0.14896906869365514,-0.0682,-0.9734,0.2185,0.0013
7,1321951.0,1220.306519,1.0,0.13,1.19,-9.96,-6.69,-18.37,34.38,1.06,4.63,1.63,-0.06636968411547697,-0.1962578816415686,-0.22289026408608592,-153.5103719816942,25.241892093139462,0.14896906869365514,-0.0682,-0.9734,0.2185,0.0013
8,1321988.0,1220.3503269999999,1.0,0.33,0.83,-9.73,-8.19,-17.25,33.88,-6.38,-1.19,-0.19,0.26501625015628083,-0.4158232972034424,0.04818919039196068,-153.5103719816942,25.253635128091673,0.16042823504321638,-0.0689,-0.9734,0.2186,0.0014
9,1321988.0,1220.3503269999999,1.0,0.33,0.83,-9.73,-8.19,-17.25,33.88,-6.38,-1.19,-0.19,0.26501625015628083,-0.4158232972034424,0.04818919039196068,-153.5103719816942,25.253635128091673,0.16042823504321638,-0.0689,-0.9734,0.2186,0.0014
10,1322024.0,1220.366741,1.0,0.13,1.16,-9.72,-7.06,-18.75,34.75,-18.0,-9.63,-1.37,0.030126693464235545,-0.2773744113572581,0.02079000619949589,-153.36074062083046,25.230149327633608,0.5615008861828721,-0.0735,-0.9731,0.2184,0.0049
11,1322024.0,1220.366741,1.0,0.13,1.16,-9.72,-7.06,-18.75,34.75,-18.0,-9.63,-1.37,0.030126693464235545,-0.2773744113572581,0.02079000619949589,-153.36074062083046,25.230149327633608,0.5615008861828721,-0.0735,-0.9731,0.2184,0.0049
12,1322057.0,1220.420484,1.0,-0.14,0.95,-9.81,-7.06,-18.75,34.75,-10.56,-8.63,0.75,-0.05468388779004785,-0.6286436949284424,-0.03001695467742493,-153.21193002249612,25.253635128091673,0.8938232239278141,-0.076,-0.9728,0.2186,0.0078
13,1322057.0,1220.420484,1.0,-0.14,0.95,-9.81,-7.06,-18.75,34.75,-10.56,-8.63,0.75,-0.05468388779004785,-0.6286436949284424,-0.03001695467742493,-153.21193002249612,25.253635128091673,0.8938232239278141,-0.076,-0.9728,0.2186,0.0078
14,1322094.0,1220.438662,1.0,-0.81,1.6,-9.69,-7.06,-17.69,32.69,-32.0,-16.0,-3.81,-0.7860953623594352,-0.4114781960460083,-0.007876976653319545,-152.965699486827,25.230149327633608,1.6616358358374437,-0.0824,-0.9723,0.2184,0.0145
15,1322094.0,1220.438662,1.0,-0.81,1.6,-9.69,-7.06,-17.69,32.69,-32.0,-16.0,-3.81,-0.7860953623594352,-0.4114781960460083,-0.007876976653319545,-152.965699486827,25.230149327633608,1.6616358358374437,-0.0824,-0.9723,0.2184,0.0145
16,1322131.0,1220.4904179999999,1.0,-0.6,1.84,-9.67,-7.5,-18.75,34.25,-18.25,-22.44,1.19,-0.5727920254331885,-0.17485870060830622,-0.03691814018279338,-152.67309729035,25.241892093139462,2.2919839967771853,-0.0872,-0.9717,0.2185,0.02
17,1322131.0,1220.4904179999999,1.0,-0.6,1.84,-9.67,-7.5,-18.75,34.25,-18.25,-22.44,1.19,-0.5727920254331885,-0.17485870060830622,-0.03691814018279338,-152.67309729035,25.241892093139462,2.2919839967771853,-0.0872,-0.9717,0.2185,0.02
18,1322164.0,1220.514239,1.0,-0.27,1.97,-9.72,-7.5,-18.75,34.25,-12.94,-13.75,1.94,-0.18812494214160053,0.029915104446130106,-0.1128214623648276,-152.33556563307292,25.35933459116607,3.025568677774776,-0.0908,-0.971,0.2195,0.0264
19,1322164.0,1220.514239,1.0,-0.27,1.97,-9.72,-7.5,-18.75,34.25,-12.94,-13.75,1.94,-0.18812494214160053,0.029915104446130106,-0.1128214623648276,-152.33556563307292,25.35933459116607,3.025568677774776,-0.0908,-0.971,0.2195,0.0264
20,1322199.0,1220.572778,1.0,-0.48,2.39,-9.72,-6.0,-19.87,33.88,-7.06,-12.38,-0.44,-0.4566401917488017,0.29794867418023263,-0.19952840750572956,-152.1444912618588,25.394572616004382,3.564372225995784,-0.0925,-0.9706,0.2198,0.0311
21,1322199.0,1220.572778,1.0,-0.48,2.39,-9.72,-6.0,-19.87,33.88,-7.06,-12.38,-0.44,-0.4566401917488017,0.29794867418023263,-0.19952840750572956,-152.1444912618588,25.394572616004382,3.564372225995784,-0.0925,-0.9706,0.2198,0.0311
22,1322235.0,1220.594925,1.0,-1.74,1.44,-9.73,-5.19,-19.5,32.69,14.31,-14.5,-10.75,-1.1654510194665335,-1.006265222698243,-0.06265870035042198,-152.47972490837182,25.19492264637575,3.816604503074617,-0.0889,-0.9713,0.2181,0.0333
23,1322235.0,1220.594925,1.0,-1.74,1.44,-9.73,-5.19,-19.5,32.69,14.31,-14.5,-10.75,-1.1654510194665335,-1.006265222698243,-0.06265870035042198,-152.47972490837182,25.19492264637575,3.816604503074617,-0.0889,-0.9713,0.2181,0.0333
24,1322272.0,1220.6495710000002,1.0,-2.44,3.13,-8.73,-5.19,-19.5,32.69,-9.63,-31.87,-36.0,-2.3996809852988337,0.4654719202114055,0.5336641237954041,-153.36074062083046,24.05720924110893,5.020716482682318,-0.08800000000000001,-0.9731,0.2084,0.0438
25,1322272.0,1220.6495710000002,1.0,-2.44,3.13,-8.73,-5.19,-19.5,32.69,-9.63,-31.87,-36.0,-2.3996809852988337,0.4654719202114055,0.5336641237954041,-153.36074062083046,24.05720924110893,5.020716482682318,-0.08800000000000001,-0.9731,0.2084,0.0438
26,1322307.0,1220.67054,1.0,-1.71,2.05,-8.97,-5.19,-19.5,33.56,64.75,7.69,-61.44,-1.258280342544462,0.007558780159539812,0.5328064901919607,-155.32181611488016,22.302542365509357,5.273072468222583,-0.0779,-0.9769,0.1934,0.046
27,1322307.0,1220.67054,1.0,-1.71,2.05,-8.97,-5.19,-19.5,33.56,64.75,7.69,-61.44,-1.258280342544462,0.007558780159539812,0.5328064901919607,-155.32181611488016,22.302542365509357,5.273072468222583,-0.0779,-0.9769,0.1934,0.046
28,1322342.0,1220.720304,1.0,-1.75,0.69,-8.27,-3.38,-19.87,33.88,78.19,53.69,-87.56,-1.2809268622813632,-0.7374803450192504,1.4551920964842149,-159.60284227959588,19.145524872704485,3.1287382797377283,-0.0542,-0.9842,0.1663,0.0273
29,1322342.0,1220.720304,1.0,-1.75,0.69,-8.27,-3.38,-19.87,33.88,78.19,53.69,-87.56,-1.2809268622813632,-0.7374803450192504,1.4551920964842149,-159.60284227959588,19.145524872704485,3.1287382797377283,-0.0542,-0.9842,0.1663,0.0273
30,1322377.0,1220.728871,1.0,0.68,-1.84,-6.96,-2.56,-18.0,36.38,40.19,173.44,-67.31,1.1356814818705527,-2.1577890000048403,2.999023820251701,-162.60463181843892,16.63981448789728,-1.0657168616283692,-0.0419,-0.9885,0.1447,-0.0093
31,1322377.0,1220.728871,1.0,0.68,-1.84,-6.96,-2.56,-18.0,36.38,40.19,173.44,-67.31,1.1356814818705527,-2.1577890000048403,2.999023820251701,-162.60463181843892,16.63981448789728,-1.0657168616283692,-0.0419,-0.9885,0.1447,-0.0093
32,1322412.0,1220.795888,1.0,4.02,0.58,-10.57,-2.56,-18.0,36.38,-46.75,213.69,-33.94,2.2488918801924433,0.03714553204544041,-1.291223918938421,-161.36053358743402,14.765843296845908,-8.832292528579133,-0.0619,-0.9868,0.1285,-0.077
33,1322412.0,1220.795888,1.0,4.02,0.58,-10.57,-2.56,-18.0,36.38,-46.75,213.69,-33.94,2.2488918801924433,0.03714553204544041,-1.291223918938421,-161.36053358743402,14.765843296845908,-8.832292528579133,-0.0619,-0.9868,0.1285,-0.077
34,1322448.0,1220.816603,1.0,4.04,-0.23,-8.5,-6.0,-16.5,35.19,3.81,197.88,-19.75,1.9305146921971583,-0.777355843331806,0.625510042671781,-158.3467074683401,13.945814879054648,-14.257569796129179,-0.0714,-0.9822,0.1214,-0.1241
35,1322448.0,1220.816603,1.0,4.04,-0.23,-8.5,-6.0,-16.5,35.19,3.81,197.88,-19.75,1.9305146921971583,-0.777355843331806,0.625510042671781,-158.3467074683401,13.945814879054648,-14.257569796129179,-0.0714,-0.9822,0.1214,-0.1241
36,1322485.0,1220.87283,1.0,4.6,-0.08,-8.14,-12.38,-18.0,33.06,-50.81,258.56,-34.44,1.1423656278214078,-1.0394924993769648,0.5849117627634222,-151.86026450485573,12.146519858742266,-23.073918065630973,-0.0886,-0.97,0.1058,-0.2
37,1322485.0,1220.87283,1.0,4.6,-0.08,-8.14,-12.38,-18.0,33.06,-50.81,258.56,-34.44,1.1423656278214078,-1.0394924993769648,0.5849117627634222,-151.86026450485573,12.146519858742266,-23.073918065630973,-0.0886,-0.97,0.1058,-0.2
38,1322522.0,1220.887899,1.0,5.96,1.03,-8.33,-12.38,-18.0,33.06,-73.12,263.38,-16.19,0.7906926094112819,-0.5005588417655746,-0.4449667526567573,-144.80353687392875,11.178940913568928,-30.425034873037013,-0.1139,-0.9532,0.0974,-0.2624
39,1322522.0,1220.887899,1.0,5.96,1.03,-8.33,-12.38,-18.0,33.06,-73.12,263.38,-16.19,0.7906926094112819,-0.5005588417655746,-0.4449667526567573,-144.80353687392875,11.178940913568928,-30.425034873037013,-0.1139,-0.9532,0.0974,-0.2624
40,1322555.0,1220.936576,1.0,7.58,1.39,-7.48,-19.75,-19.5,30.19,-64.5,243.0,20.62,0.7891405201872469,-0.5321466309997844,-0.8906850514281909,-135.18615927411605,10.902639624835572,-39.86343282424955,-0.1415,-0.9245,0.095,-0.3409
41,1322555.0,1220.936576,1.0,7.58,1.39,-7.48,-19.75,-19.5,30.19,-64.5,243.0,20.62,0.7891405201872469,-0.5321466309997844,-0.8906850514281909,-135.18615927411605,10.902639624835572,-39.86343282424955,-0.1415,-0.9245,0.095,-0.3409
42,1322592.0,1220.9492599999999,1.0,9.4,2.5,-6.89,-26.19,-21.69,23.69,-58.63,199.06,30.0,0.6489777570043906,0.18646541762555732,-2.094028910001029,-127.01685959928787,11.570479767497385,-47.456600104689066,-0.1641,-0.895,0.1008,-0.4024
43,1322592.0,1220.9492599999999,1.0,9.4,2.5,-6.89,-26.19,-21.69,23.69,-58.63,199.06,30.0,0.6489777570043906,0.18646541762555732,-2.094028910001029,-127.01685959928787,11.570479767497385,-47.456600104689066,-0.1641,-0.895,0.1008,-0.4024
44,1322629.0,1221.015032,1.0,9.85,2.22,-6.52,-31.37,-21.56,17.75,-59.25,82.81,24.31,0.5899787708804538,-0.21699969243014205,-2.196105357974917,-123.2364939020704,12.353968967121856,-50.70676349859697,-0.1764,-0.8798,0.1076,-0.4282
45,1322629.0,1221.015032,1.0,9.85,2.22,-6.52,-31.37,-21.56,17.75,-59.25,82.81,24.31,0.5899787708804538,-0.21699969243014205,-2.196105357974917,-123.2364939020704,12.353968967121856,-50.70676349859697,-0.1764,-0.8798,0.1076,-0.4282
46,1322661.0,1221.033935,1.0,8.7,2.42,-5.65,-31.37,-21.56,17.75,-61.13,3.31,15.38,0.2830251810070423,0.05857341657747095,-0.8416064723895715,-121.5243930799012,13.85346307502466,-51.2272254279677,-0.1929,-0.8726,0.1206,-0.4323
47,1322661.0,1221.033935,1.0,8.7,2.42,-5.65,-31.37,-21.56,17.75,-61.13,3.31,15.38,0.2830251810070423,0.05857341657747095,-0.8416064723895715,-121.5243930799012,13.85346307502466,-51.2272254279677,-0.1929,-0.8726,0.1206,-0.4323
48,1322698.0,1221.092542,1.0,8.58,1.89,-6.29,-33.25,-22.0,15.5,-57.13,-38.13,12.19,0.0888339614222804,-0.7910879189766006,-0.9691974577059296,-121.40719542947477,15.02008899858815,-50.36463176877203,-0.2034,-0.8721,0.1307,-0.4255
49,1322698.0,1221.092542,1.0,8.58,1.89,-6.29,-33.25,-22.0,15.5,-57.13,-38.13,12.19,0.0888339614222804,-0.7910879189766006,-0.9691974577059296,-121.40719542947477,15.02008899858815,-50.36463176877203,-0.2034,-0.8721,0.1307,-0.4255
50,1322735.0,1221.154912,1.0,7.91,2.97,-5.56,-34.0,-22.0,13.75,-79.75,-62.69,24.56,0.04255826852152522,0.4122372454862189,-0.299330865171596,-121.8536919796764,17.381357078894993,-47.94523502960248,-0.2194,-0.8740000000000001,0.1511,-0.4063
51,1322735.0,1221.154912,1.0,7.91,2.97,-5.56,-34.0,-22.0,13.75,-79.75,-62.69,24.56,0.04255826852152522,0.4122372454862189,-0.299330865171596,-121.8536919796764,17.381357078894993,-47.94523502960248,-0.2194,-0.8740000000000001,0.1511,-0.4063
52,1322770.0,1221.158279,1.0,6.76,3.5,-5.48,-34.0,-22.0,13.75,-56.25,-61.19,22.37,-0.6679650309426588,0.7922106925896939,0.4844064430023405,-122.25585789752888,19.192010366536685,-46.045923884135675,-0.2288,-0.8757,0.1667,-0.3911
53,1322770.0,1221.158279,1.0,6.76,3.5,-5.48,-34.0,-22.0,13.75,-56.25,-61.19,22.37,-0.6679650309426588,0.7922106925896939,0.4844064430023405,-122.25585789752888,19.192010366536685,-46.045923884135675,-0.2288,-0.8757,0.1667,-0.3911
54,1322805.0,1221.202069,1.0,6.83,2.79,-6.46,-33.06,-23.06,15.56,-35.19,-46.31,17.06,-0.6363734705919188,-0.2817255828059793,0.025021326720718662,-122.80407555685306,20.832722001771078,-44.13516742855202,-0.235,-0.878,0.1808,-0.3757
55,1322805.0,1221.202069,1.0,6.83,2.79,-6.46,-33.06,-23.06,15.56,-35.19,-46.31,17.06,-0.6363734705919188,-0.2817255828059793,0.025021326720718662,-122.80407555685306,20.832722001771078,-44.13516742855202,-0.235,-0.878,0.1808,-0.3757
56,1322840.0,1221.2084710000001,1.0,6.46,3.22,-6.4,-32.38,-22.0,14.69,-41.69,-45.44,25.56,-0.8433855632656941,0.06247303023278339,0.19702992883336806,-123.04393663031479,22.66472550596455,-42.286383276048326,-0.2423,-0.879,0.1965,-0.3607
57,1322840.0,1221.2084710000001,1.0,6.46,3.22,-6.4,-32.38,-22.0,14.69,-41.69,-45.44,25.56,-0.8433855632656941,0.06247303023278339,0.19702992883336806,-123.04393663031479,22.66472550596455,-42.286383276048326,-0.2423,-0.879,0.1965,-0.3607
58,1322878.0,1221.226873,1.0,5.49,3.37,-6.44,-31.06,-22.69,14.75,-14.88,-18.5,7.25,-1.4766782292274199,-0.02047715042930265,0.8183463728612228,-123.18829850358513,23.37808257553645,-41.36633360366066,-0.24600000000000002,-0.8796,0.2026,-0.3532
59,1322878.0,1221.226873,1.0,5.49,3.37,-6.44,-31.06,-22.69,14.75,-14.88,-18.5,7.25,-1.4766782292274199,-0.02047715042930265,0.8183463728612228,-123.18829850358513,23.37808257553645,-41.36633360366066,-0.24600000000000002,-0.8796,0.2026,-0.3532
60,1322911.0,1221.275341,1.0,6.42,3.53,-7.22,-31.06,-22.69,14.75,-21.44,-4.19,8.81,-1.315201905135102,-0.21555968753291727,-0.3928342011662398,-122.89990924402274,23.998630403703213,-41.03580078188174,-0.2498,-0.8784,0.2079,-0.3505
61,1322911.0,1221.275341,1.0,6.42,3.53,-7.22,-31.06,-22.69,14.75,-21.44,-4.19,8.81,-1.315201905135102,-0.21555968753291727,-0.3928342011662398,-122.89990924402274,23.998630403703213,-41.03580078188174,-0.2498,-0.8784,0.2079,-0.3505
62,1322948.0,1221.334534,1.0,6.1,3.64,-6.48,-31.56,-23.06,16.37,-14.75,-25.12,4.31,-1.1267382268874393,0.25412600550239905,0.2611861065374121,-123.04393663031479,24.51434453810049,-40.33917501022326,-0.2516,-0.879,0.2123,-0.3448
63,1322948.0,1221.334534,1.0,6.1,3.64,-6.48,-31.56,-23.06,16.37,-14.75,-25.12,4.31,-1.1267382268874393,0.25412600550239905,0.2611861065374121,-123.04393663031479,24.51434453810049,-40.33917501022326,-0.2516,-0.879,0.2123,-0.3448
64,1322985.0,1221.350974,1.0,5.98,3.2,-6.39,-32.25,-22.69,15.56,-3.94,-7.63,3.06,-0.8656767224449271,-0.02812252381872193,0.5285945498600793,-123.26060567533968,24.842788298368426,-39.86343282424955,-0.2515,-0.8799,0.2151,-0.3409
65,1322985.0,1221.350974,1.0,5.98,3.2,-6.39,-32.25,-22.69,15.56,-3.94,-7.63,3.06,-0.8656767224449271,-0.02812252381872193,0.5285945498600793,-123.26060567533968,24.842788298368426,-39.86343282424955,-0.2515,-0.8799,0.2151,-0.3409
66,1323020.0,1221.393895,1.0,6.16,3.06,-6.67,-32.25,-22.69,15.56,6.75,9.25,-6.0,-0.8093900233851634,-0.2677777751333599,0.26352248051304805,-123.30885743015295,24.690270937756786,-39.93657709614047,-0.2512,-0.8801,0.2138,-0.3415
67,1323020.0,1221.393895,1.0,6.16,3.06,-6.67,-32.25,-22.69,15.56,6.75,9.25,-6.0,-0.8093900233851634,-0.2677777751333599,0.26352248051304805,-123.30885743015295,24.690270937756786,-39.93657709614047,-0.2512,-0.8801,0.2138,-0.3415
68,1323053.0,1221.407712,1.0,6.43,2.8,-7.02,-32.56,-22.0,16.37,8.06,5.25,-4.69,-0.6860642184237655,-0.6318309771150517,-0.07238869334240583,-123.33299743586115,24.33847679675364,-40.19271594298347,-0.2504,-0.8802,0.2108,-0.3436
69,1323053.0,1221.407712,1.0,6.43,2.8,-7.02,-32.56,-22.0,16.37,8.06,5.25,-4.69,-0.6860642184237655,-0.6318309771150517,-0.07238869334240583,-123.33299743586115,24.33847679675364,-40.19271594298347,-0.2504,-0.8802,0.2108,-0.3436
70,1323089.0,1221.459014,1.0,6.67,3.0,-6.62,-32.25,-22.69,15.56,6.38,8.5,-4.38,-0.4537072970483467,-0.20729863138030047,-0.04548058003358868,-123.30885743015295,24.11579445991055,-40.38800996971994,-0.2502,-0.8801,0.2089,-0.3452
71,1323089.0,1221.459014,1.0,6.67,3.0,-6.62,-32.25,-22.69,15.56,6.38,8.5,-4.38,-0.4537072970483467,-0.20729863138030047,-0.04548058003358868,-123.30885743015295,24.11579445991055,-40.38800996971994,-0.2502,-0.8801,0.2089,-0.3452
72,1323124.0,1221.466292,1.0,6.85,2.95,-6.49,-32.56,-22.69,15.56,5.44,11.25,-7.63,-0.2760475874308579,-0.1659681021018209,-0.07471388959329595,-123.11607559607694,23.98691540045918,-40.65673943236753,-0.2508,-0.8793,0.2078,-0.3474
73,1323124.0,1221.466292,1.0,6.85,2.95,-6.49,-32.56,-22.69,15.56,5.44,11.25,-7.63,-0.2760475874308579,-0.1659681021018209,-0.07471388959329595,-123.11607559607694,23.98691540045918,-40.65673943236753,-0.2508,-0.8793,0.2078,-0.3474
74,1323159.0,1221.532119,1.0,7.31,2.53,-6.56,-32.56,-22.69,15.56,11.31,10.5,0.37,0.17578776492709336,-0.4576463783437825,-0.3240093296828821,-123.09201996316364,23.705831329603118,-41.0113310955595,-0.2495,-0.8792,0.2054,-0.3503
75,1323159.0,1221.532119,1.0,7.31,2.53,-6.56,-32.56,-22.69,15.56,11.31,10.5,0.37,0.17578776492709336,-0.4576463783437825,-0.3240093296828821,-123.09201996316364,23.705831329603118,-41.0113310955595,-0.2495,-0.8792,0.2054,-0.3503
76,1323196.0,1221.550475,1.0,7.25,2.81,-6.46,-31.87,-23.06,16.0,0.81,-3.75,-2.75,0.03593263164151728,-0.17577152994935452,-0.3006747308693214,-123.09201996316364,23.76437852052494,-40.98686336329807,-0.249,-0.8792,0.2059,-0.3501
77,1323196.0,1221.550475,1.0,7.25,2.81,-6.46,-31.87,-23.06,16.0,0.81,-3.75,-2.75,0.03593263164151728,-0.17577152994935452,-0.3006747308693214,-123.09201996316364,23.76437852052494,-40.98686336329807,-0.249,-0.8792,0.2059,-0.3501
78,1323231.0,1221.598485,1.0,6.72,2.6,-6.58,-31.87,-23.5,15.56,4.63,-2.19,-6.5,-0.2443296577657908,-0.5016170651546463,0.06480811366856187,-123.26060567533968,23.647290415990852,-40.86455395752174,-0.2485,-0.8799,0.2049,-0.3491
79,1323231.0,1221.598485,1.0,6.72,2.6,-6.58,-31.87,-23.5,15.56,4.63,-2.19,-6.5,-0.2443296577657908,-0.5016170651546463,0.06480811366856187,-123.26060567533968,23.647290415990852,-40.86455395752174,-0.2485,-0.8799,0.2049,-0.3491
80,1323266.0,1221.6170960000002,1.0,6.57,2.91,-6.73,-31.87,-23.5,15.56,1.88,1.63,-1.94,-0.5734330167539898,-0.3841160393005845,-0.014222132537337728,-123.35714687658856,23.47170516617001,-40.84009791641019,-0.2489,-0.8803,0.2034,-0.3489
81,1323266.0,1221.6170960000002,1.0,6.57,2.91,-6.73,-31.87,-23.5,15.56,1.88,1.63,-1.94,-0.5734330167539898,-0.3841160393005845,-0.014222132537337728,-123.35714687658856,23.47170516617001,-40.84009791641019,-0.2489,-0.8803,0.2034,-0.3489
82,1323300.0,1221.662534,1.0,6.85,2.92,-6.71,-32.25,-23.06,15.56,2.19,1.69,1.0,-0.38251598609500026,-0.30217202640012,-0.20511176238942674,-123.30885743015295,23.63558298502357,-40.80341749737214,-0.2488,-0.8801,0.2048,-0.3486
83,1323300.0,1221.662534,1.0,6.85,2.92,-6.71,-32.25,-23.06,15.56,2.19,1.69,1.0,-0.38251598609500026,-0.30217202640012,-0.20511176238942674,-123.30885743015295,23.63558298502357,-40.80341749737214,-0.2488,-0.8801,0.2048,-0.3486
84,1323337.0,1221.728346,1.0,6.84,2.74,-6.4,-31.5,-22.69,16.75,5.0,0.44,-1.69,-0.12440298817068708,-0.24313556695685398,0.050697509719270784,-123.4780360314948,23.588755762396122,-40.742293166188276,-0.2476,-0.8808,0.2044,-0.3481
85,1323337.0,1221.728346,1.0,6.84,2.74,-6.4,-31.5,-22.69,16.75,5.0,0.44,-1.69,-0.12440298817068708,-0.24313556695685398,0.050697509719270784,-123.4780360314948,23.588755762396122,-40.742293166188276,-0.2476,-0.8808,0.2044,-0.3481
86,1323370.0,1221.732551,1.0,6.63,2.71,-6.49,-31.5,-22.69,16.75,2.94,-0.94,-2.19,-0.2828487133609197,-0.3392307261600709,0.15128780483719773,-123.6476805433651,23.518522416981746,-40.668959944372276,-0.2466,-0.8815,0.2038,-0.3475
87,1323370.0,1221.732551,1.0,6.63,2.71,-6.49,-31.5,-22.69,16.75,2.94,-0.94,-2.19,-0.2828487133609197,-0.3392307261600709,0.15128780483719773,-123.6476805433651,23.518522416981746,-40.668959944372276,-0.2466,-0.8815,0.2038,-0.3475
88,1323405.0,1221.750935,1.0,6.63,2.71,-6.7,-31.87,-24.19,15.56,1.88,-0.5,-1.75,-0.3649382235507349,-0.4322855460232677,0.015278834545645381,-123.84213593724544,23.506817731301986,-40.497916639737895,-0.2455,-0.8823,0.2037,-0.3461
89,1323405.0,1221.750935,1.0,6.63,2.71,-6.7,-31.87,-24.19,15.56,1.88,-0.5,-1.75,-0.3649382235507349,-0.4322855460232677,0.015278834545645381,-123.84213593724544,23.506817731301986,-40.497916639737895,-0.2455,-0.8823,0.2037,-0.3461
90,1323440.0,1221.79906,1.0,6.39,2.83,-6.73,-31.87,-23.5,14.69,1.56,-1.81,-4.56,-0.5797794573892494,-0.3951045415933354,0.12978851592357546,-123.8908464883956,23.63558298502357,-40.302553807332,-0.24600000000000002,-0.8825,0.2048,-0.3445
91,1323440.0,1221.79906,1.0,6.39,2.83,-6.73,-31.87,-23.5,14.69,1.56,-1.81,-4.56,-0.5797794573892494,-0.3951045415933354,0.12978851592357546,-123.8908464883956,23.63558298502357,-40.302553807332,-0.24600000000000002,-0.8825,0.2048,-0.3445
92,1323476.0,1221.8182689999999,1.0,6.41,2.91,-6.65,-31.87,-22.69,15.56,1.63,1.94,-3.38,-0.5175175199374749,-0.2672513685638702,0.14024154998308092,-124.1105266335135,23.705831329603118,-39.97315559242056,-0.2462,-0.8834,0.2054,-0.3418
93,1323476.0,1221.8182689999999,1.0,6.41,2.91,-6.65,-31.87,-22.69,15.56,1.63,1.94,-3.38,-0.5175175199374749,-0.2672513685638702,0.14024154998308092,-124.1105266335135,23.705831329603118,-39.97315559242056,-0.2462,-0.8834,0.2054,-0.3418
94,1323509.0,1221.86763,1.0,7.0,2.78,-6.56,-31.87,-22.69,15.56,4.88,8.44,-0.19,-0.021062102302881917,-0.20781118749818092,-0.1792586165554937,-124.06164029835844,23.588755762396122,-40.11951210127083,-0.2457,-0.8832,0.2044,-0.34299999999999997
95,1323509.0,1221.86763,1.0,7.0,2.78,-6.56,-31.87,-22.69,15.56,4.88,8.44,-0.19,-0.021062102302881917,-0.20781118749818092,-0.1792586165554937,-124.06164029835844,23.588755762396122,-40.11951210127083,-0.2457,-0.8832,0.2044,-0.34299999999999997
96,1323546.0,1221.887363,1.0,6.99,2.78,-6.48,-31.5,-23.06,16.37,3.44,0.88,-1.5,-0.009710183270284443,-0.16728494159676965,-0.12062663866862346,-123.98838434414272,23.600462193143148,-40.253732215798784,-0.2456,-0.8829,0.2045,-0.3441
97,1323546.0,1221.887363,1.0,6.99,2.78,-6.48,-31.5,-23.06,16.37,3.44,0.88,-1.5,-0.009710183270284443,-0.16728494159676965,-0.12062663866862346,-123.98838434414272,23.600462193143148,-40.253732215798784,-0.2456,-0.8829,0.2045,-0.3441
98,1323583.0,1221.936657,1.0,6.83,2.56,-6.36,-31.5,-23.75,16.37,2.19,0.0,-1.5,0.06321870211567371,-0.2927159114895705,0.13388303336301632,-124.06164029835844,23.55363796786013,-40.22932427895751,-0.2449,-0.8832,0.2041,-0.3439
99,1323583.0,1221.936657,1.0,6.83,2.56,-6.36,-31.5,-23.75,16.37,2.19,0.0,-1.5,0.06321870211567371,-0.2927159114895705,0.13388303336301632,-124.06164029835844,23.55363796786013,-40.22932427895751,-0.2449,-0.8832,0.2041,-0.3439
100,1323616.0,1222.0075279999999,1.0,6.73,2.63,-6.77,-31.5,-23.75,16.37,-1.75,-0.63,-1.5,-0.2464617225592029,-0.4892150369526926,-0.07983700332593102,-124.1105266335135,23.530227351542678,-40.21712102458852,-0.2448,-0.8834,0.2039,-0.3438
101,1323616.0,1222.0075279999999,1.0,6.73,2.63,-6.77,-31.5,-23.75,16.37,-1.75,-0.63,-1.5,-0.2464617225592029,-0.4892150369526926,-0.07983700332593102,-124.1105266335135,23.530227351542678,-40.21712102458852,-0.2448,-0.8834,0.2039,-0.3438
102,1323651.0,1222.027881,1.0,6.62,2.88,-6.82,-31.06,-23.5,16.0,-3.0,-0.75,-0.56,-0.4606947558589878,-0.3447862280510794,-0.10798982194362594,-124.1105266335135,23.600462193143148,-40.09511461656773,-0.2455,-0.8834,0.2045,-0.3428
103,1323651.0,1222.027881,1.0,6.62,2.88,-6.82,-31.06,-23.5,16.0,-3.0,-0.75,-0.56,-0.4606947558589878,-0.3447862280510794,-0.10798982194362594,-124.1105266335135,23.600462193143148,-40.09511461656773,-0.2455,-0.8834,0.2045,-0.3428
104,1323687.0,1222.041973,1.0,6.82,2.89,-6.47,-31.87,-23.06,16.37,1.63,2.13,0.0,-0.1571060820435634,-0.09764760908087956,-0.026517476628564296,-124.0372118533993,23.740958889771715,-40.08291658507028,-0.2459,-0.8831,0.2057,-0.3427
105,1323687.0,1222.041973,1.0,6.82,2.89,-6.47,-31.87,-23.06,16.37,1.63,2.13,0.0,-0.1571060820435634,-0.09764760908087956,-0.026517476628564296,-124.0372118533993,23.740958889771715,-40.08291658507028,-0.2459,-0.8831,0.2057,-0.3427
106,1323722.0,1222.0846080000001,1.0,7.03,2.81,-6.41,-31.87,-23.06,16.37,3.38,1.81,1.75,0.045310061257849484,-0.0800000937927281,-0.11285840431833095,-124.0127932062898,23.740958889771715,-40.15611188549902,-0.2454,-0.883,0.2057,-0.3433
107,1323722.0,1222.0846080000001,1.0,7.03,2.81,-6.41,-31.87,-23.06,16.37,3.38,1.81,1.75,0.045310061257849484,-0.0800000937927281,-0.11285840431833095,-124.0127932062898,23.740958889771715,-40.15611188549902,-0.2454,-0.883,0.2057,-0.3433
108,1323755.0,1222.104491,1.0,6.98,2.62,-6.56,-32.25,-23.06,15.56,-0.63,-4.88,-0.31,0.042993507666960695,-0.3079960908420412,-0.11915928520816088,-123.96398525409832,24.01034566150753,-40.0341291935956,-0.2454,-0.8828,0.20800000000000002,-0.3423
109,1323755.0,1222.104491,1.0,6.98,2.62,-6.56,-32.25,-23.06,15.56,-0.63,-4.88,-0.31,0.042993507666960695,-0.3079960908420412,-0.11915928520816088,-123.96398525409832,24.01034566150753,-40.0341291935956,-0.2454,-0.8828,0.20800000000000002,-0.3423
110,1323790.0,1222.155343,1.0,6.56,2.72,-6.59,-31.5,-23.5,16.0,-0.56,-2.81,0.31,-0.2919527482728584,-0.3180469194521267,0.12813204786482224,-124.0372118533993,24.11579445991055,-39.88781236546699,-0.2454,-0.8831,0.2089,-0.3411
111,1323790.0,1222.155343,1.0,6.56,2.72,-6.59,-31.5,-23.5,16.0,-0.56,-2.81,0.31,-0.2919527482728584,-0.3180469194521267,0.12813204786482224,-124.0372118533993,24.11579445991055,-39.88781236546699,-0.2454,-0.8831,0.2089,-0.3411
112,1323827.0,1222.17447,1.0,6.55,2.95,-6.79,-31.87,-23.06,16.0,1.56,-2.94,-1.69,-0.4991141123179993,-0.2435117111360601,-0.06252864613994014,-124.06164029835844,24.31503217113493,-39.69282860908111,-0.2458,-0.8832,0.2106,-0.3395
113,1323827.0,1222.17447,1.0,6.55,2.95,-6.79,-31.87,-23.06,16.0,1.56,-2.94,-1.69,-0.4991141123179993,-0.2435117111360601,-0.06252864613994014,-124.06164029835844,24.31503217113493,-39.69282860908111,-0.2458,-0.8832,0.2106,-0.3395
114,1323862.0,1222.225398,1.0,6.25,2.94,-6.69,-31.87,-23.06,16.0,-0.56,-1.37,-1.06,-0.5983826479110588,-0.2322080104187472,0.2123695347135932,-124.35555059912924,24.25642512530879,-39.38840578330453,-0.2452,-0.8844,0.2101,-0.337
115,1323862.0,1222.225398,1.0,6.25,2.94,-6.69,-31.87,-23.06,16.0,-0.56,-1.37,-1.06,-0.5983826479110588,-0.2322080104187472,0.2123695347135932,-124.35555059912924,24.25642512530879,-39.38840578330453,-0.2452,-0.8844,0.2101,-0.337
116,1323898.0,1222.245507,1.0,7.07,2.96,-6.67,-30.75,-22.69,16.0,1.19,5.69,2.06,-0.04997430480971965,-0.03351487015071375,-0.35365409595783603,-124.25742213626366,24.350199497398,-39.42492119409256,-0.2452,-0.884,0.2109,-0.3373
117,1323898.0,1222.245507,1.0,7.07,2.96,-6.67,-30.75,-22.69,16.0,1.19,5.69,2.06,-0.04997430480971965,-0.03351487015071375,-0.35365409595783603,-124.25742213626366,24.350199497398,-39.42492119409256,-0.2452,-0.884,0.2109,-0.3373
118,1323933.0,1222.295987,1.0,6.99,2.68,-6.42,-31.87,-23.5,15.56,3.94,-1.69,-0.63,0.16832642783309731,-0.1141777737238734,-0.05324501210232846,-124.23291484122736,24.52607113458515,-39.37623490539532,-0.2451,-0.8839,0.2124,-0.3369
119,1323933.0,1222.295987,1.0,6.99,2.68,-6.42,-31.87,-23.5,15.56,3.94,-1.69,-0.63,0.16832642783309731,-0.1141777737238734,-0.05324501210232846,-124.23291484122736,24.52607113458515,-39.37623490539532,-0.2451,-0.8839,0.2124,-0.3369
120,1323970.0,1222.364998,1.0,6.61,2.57,-6.56,-31.87,-23.5,15.56,-0.12,-5.44,0.5,-0.08112813244539037,-0.341714733804706,0.1522598449033694,-124.38010760157816,24.537797991913113,-39.242385733379436,-0.2444,-0.8845,0.2125,-0.3358
121,1323970.0,1222.364998,1.0,6.61,2.57,-6.56,-31.87,-23.5,15.56,-0.12,-5.44,0.5,-0.08112813244539037,-0.341714733804706,0.1522598449033694,-124.38010760157816,24.537797991913113,-39.242385733379436,-0.2444,-0.8845,0.2125,-0.3358
122,1324003.0,1222.375199,1.0,6.43,2.86,-6.77,-31.87,-23.06,15.56,-2.25,-4.88,-0.37,-0.4346056618429933,-0.2628474083709802,0.05475638088136847,-124.38010760157816,24.831054609816945,-38.987009992065246,-0.2452,-0.8845,0.215,-0.3337
123,1324003.0,1222.375199,1.0,6.43,2.86,-6.77,-31.87,-23.06,15.56,-2.25,-4.88,-0.37,-0.4346056618429933,-0.2628474083709802,0.05475638088136847,-124.38010760157816,24.831054609816945,-38.987009992065246,-0.2452,-0.8845,0.215,-0.3337
124,1324040.0,1222.435018,1.0,6.39,2.79,-6.8,-31.06,-23.06,16.75,0.63,-3.38,-0.31,-0.41246368323099697,-0.3251512788176893,0.08140705414519189,-124.52765968867384,24.88972570037191,-38.80472209856705,-0.2448,-0.8851,0.2155,-0.3322
125,1324040.0,1222.435018,1.0,6.39,2.79,-6.8,-31.06,-23.06,16.75,0.63,-3.38,-0.31,-0.41246368323099697,-0.3251512788176893,0.08140705414519189,-124.52765968867384,24.88972570037191,-38.80472209856705,-0.2448,-0.8851,0.2155,-0.3322
126,1324072.0,1222.443065,1.0,6.37,2.81,-6.61,-31.06,-23.06,16.75,-0.12,0.94,0.56,-0.3211414031723019,-0.18317329460650145,0.21350579471925532,-124.67557399344672,24.901460713527147,-38.634678836735524,-0.2441,-0.8857,0.2156,-0.3308
127,1324072.0,1222.443065,1.0,6.37,2.81,-6.61,-31.06,-23.06,16.75,-0.12,0.94,0.56,-0.3211414031723019,-0.18317329460650145,0.21350579471925532,-124.67557399344672,24.901460713527147,-38.634678836735524,-0.2441,-0.8857,0.2156,-0.3308
128,1324107.0,1222.461395,1.0,6.91,2.84,-6.67,-32.25,-22.69,16.37,-1.12,2.44,1.37,-0.016104059775902124,-0.0850967064997663,-0.2080940910789959,-124.40467458524144,25.19492264637575,-38.683253582612885,-0.2452,-0.8846,0.2181,-0.3312
129,1324107.0,1222.461395,1.0,6.91,2.84,-6.67,-32.25,-22.69,16.37,-1.12,2.44,1.37,-0.016104059775902124,-0.0850967064997663,-0.2080940910789959,-124.40467458524144,25.19492264637575,-38.683253582612885,-0.2452,-0.8846,0.2181,-0.3312
130,1324142.0,1222.514899,1.0,6.79,2.7,-6.39,-31.06,-22.25,16.75,0.5,-2.81,-0.94,0.1253953954546555,-0.05373550922129433,0.10059063021209802,-124.40467458524144,25.34758912480893,-38.56183024539064,-0.2456,-0.8846,0.2194,-0.3302
131,1324142.0,1222.514899,1.0,6.79,2.7,-6.39,-31.06,-22.25,16.75,0.5,-2.81,-0.94,0.1253953954546555,-0.05373550922129433,0.10059063021209802,-124.40467458524144,25.34758912480893,-38.56183024539064,-0.2456,-0.8846,0.2194,-0.3302
132,1324179.0,1222.533904,1.0,6.57,2.73,-6.65,-31.06,-22.69,16.37,-1.0,-1.5,0.37,-0.15522265615055236,-0.2256414161097051,0.07190337369515197,-124.38010760157816,25.512050354420897,-38.452587715507434,-0.24600000000000002,-0.8845,0.2208,-0.3293
133,1324179.0,1222.533904,1.0,6.57,2.73,-6.65,-31.06,-22.69,16.37,-1.0,-1.5,0.37,-0.15522265615055236,-0.2256414161097051,0.07190337369515197,-124.38010760157816,25.512050354420897,-38.452587715507434,-0.24600000000000002,-0.8845,0.2208,-0.3293
134,1324214.0,1222.58491,1.0,6.28,2.75,-6.89,-31.06,-22.69,16.37,-1.0,-2.88,-2.13,-0.4579547790819108,-0.41931730478429663,0.10678142263131107,-124.42925156343009,25.512050354420897,-38.3312497043692,-0.2465,-0.8847,0.2208,-0.3283
135,1324214.0,1222.58491,1.0,6.28,2.75,-6.89,-31.06,-22.69,16.37,-1.0,-2.88,-2.13,-0.4579547790819108,-0.41931730478429663,0.10678142263131107,-124.42925156343009,25.512050354420897,-38.3312497043692,-0.2465,-0.8847,0.2208,-0.3283
136,1324251.0,1222.6032810000002,1.0,6.48,2.98,-6.88,-32.56,-23.06,16.0,-1.56,3.63,1.56,-0.4405957884975813,-0.19761281079323625,-0.0914318610561402,-124.25742213626366,25.8058643261674,-38.24633966792924,-0.2478,-0.884,0.2233,-0.3276
137,1324251.0,1222.6032810000002,1.0,6.48,2.98,-6.88,-32.56,-23.06,16.0,-1.56,3.63,1.56,-0.4405957884975813,-0.19761281079323625,-0.0914318610561402,-124.25742213626366,25.8058643261674,-38.24633966792924,-0.2478,-0.884,0.2233,-0.3276
