,TIME,ELAPSED_SECONDS,PSTATE,acc_x,acc_y,acc_z,mag_x,mag_y,mag_z,gyr_x,gyr_y,gyr_z,lin_x,lin_y,lin_z,eul_x,eul_y,eul_z,qua_w,qua_x,qua_y,qua_z
0,1342083.0,1302.8515929999999,1.0,-1.04,0.49,-9.84,21.5,-4.75,28.0,-1.25,0.0,0.25,0.11068512047060874,-0.17921764527005765,-0.09804231423825273,-117.43114513306999,-61.98154216378515,4.779853967883568,-0.0532,-0.8546,-0.5149,0.0417
1,1342083.0,1302.8515929999999,1.0,-1.04,0.49,-9.84,21.5,-4.75,28.0,-1.25,0.0,0.25,0.11068512047060874,-0.17921764527005765,-0.09804231423825273,-117.43114513306999,-61.98154216378515,4.779853967883568,-0.0532,-0.8546,-0.5149,0.0417
2,1342117.0,1302.869347,1.0,-1.16,0.46,-9.68,20.75,-4.38,28.0,1.12,-0.25,-0.69,0.029061790067832268,-0.06868942263008758,0.04683252344969269,-117.40908152683936,-61.99490997256027,4.802792327898413,-0.0532,-0.8545,-0.515,0.0419
3,1342117.0,1302.869347,1.0,-1.16,0.46,-9.68,20.75,-4.38,28.0,1.12,-0.25,-0.69,0.029061790067832268,-0.06868942263008758,0.04683252344969269,-117.40908152683936,-61.99490997256027,4.802792327898413,-0.0532,-0.8545,-0.515,0.0419
4,1342154.0,1302.914842,1.0,-1.22,0.25,-9.68,20.75,-4.38,28.0,-1.44,-0.88,-0.12,-0.18133045639395826,-0.11557642851049985,0.04923941343776583,-117.40908152683936,-61.99490997256027,4.825730880475589,-0.0532,-0.8545,-0.515,0.0421
5,1342154.0,1302.914842,1.0,-1.22,0.25,-9.68,20.75,-4.38,28.0,-1.44,-0.88,-0.12,-0.18133045639395826,-0.11557642851049985,0.04923941343776583,-117.40908152683936,-61.99490997256027,4.825730880475589,-0.0532,-0.8545,-0.515,0.0421
6,1342189.0,1302.9738630000002,1.0,-1.25,0.46,-9.69,20.75,-5.19,26.69,-1.06,-0.44,1.0,-0.01525807610883906,0.0011072897270797133,0.025547507692552433,-117.43114513306999,-61.98154216378515,4.814261580058959,-0.0536,-0.8546,-0.5149,0.042
7,1342189.0,1302.9738630000002,1.0,-1.25,0.46,-9.69,20.75,-5.19,26.69,-1.06,-0.44,1.0,-0.01525807610883906,0.0011072897270797133,0.025547507692552433,-117.43114513306999,-61.98154216378515,4.814261580058959,-0.0536,-0.8546,-0.5149,0.042
8,1342226.0,1302.981074,1.0,-1.29,0.46,-9.62,20.0,-4.75,28.0,-0.12,0.63,-0.12,-0.037842780521390174,0.0448186762093383,0.08982648558824557,-117.43114513306999,-61.96817529160685,4.802792327898413,-0.0537,-0.8546,-0.5148,0.0419
9,1342226.0,1302.981074,1.0,-1.29,0.46,-9.62,20.0,-4.75,28.0,-0.12,0.63,-0.12,-0.037842780521390174,0.0448186762093383,0.08982648558824557,-117.43114513306999,-61.96817529160685,4.802792327898413,-0.0537,-0.8546,-0.5148,0.0419
10,1342261.0,1302.997684,1.0,-1.17,0.46,-9.7,20.0,-4.75,28.0,1.0,1.63,0.94,0.016266734061252064,-0.06463061220344968,0.025747266748373576,-117.45321573278471,-61.95480935564663,4.768384859798278,-0.0535,-0.8547,-0.5147,0.0416
11,1342261.0,1302.997684,1.0,-1.17,0.46,-9.7,20.0,-4.75,28.0,1.0,1.63,0.94,0.016266734061252064,-0.06463061220344968,0.025747266748373576,-117.45321573278471,-61.95480935564663,4.768384859798278,-0.0535,-0.8547,-0.5147,0.0416
12,1342296.0,1303.049104,1.0,-1.12,0.4,-9.82,20.0,-4.38,28.0,-0.81,1.5,0.75,-0.013694676790034777,-0.14423209062292824,-0.0840430778314083,-117.47529333345742,-61.94144435552603,4.733977821845079,-0.0532,-0.8548,-0.5146,0.0413
13,1342296.0,1303.049104,1.0,-1.12,0.4,-9.82,20.0,-4.38,28.0,-0.81,1.5,0.75,-0.013694676790034777,-0.14423209062292824,-0.0840430778314083,-117.47529333345742,-61.94144435552603,4.733977821845079,-0.0532,-0.8548,-0.5146,0.0413
14,1342330.0,1303.083059,1.0,-1.03,0.65,-9.85,20.0,-4.38,27.19,-0.25,-0.31,0.63,0.24143927555054714,-0.11282156016439206,-0.11478529796892545,-117.4973779425748,-61.914717161290675,4.699571210920838,-0.0535,-0.8549,-0.5144,0.040999999999999995
15,1342330.0,1303.083059,1.0,-1.03,0.65,-9.85,20.0,-4.38,27.19,-0.25,-0.31,0.63,0.24143927555054714,-0.11282156016439206,-0.11478529796892545,-117.4973779425748,-61.914717161290675,4.699571210920838,-0.0535,-0.8549,-0.5144,0.040999999999999995
16,1342367.0,1303.136517,1.0,-1.21,0.51,-9.68,20.75,-4.38,28.0,0.81,-0.31,-0.69,0.03277066817827856,0.001384315007067427,0.03805111546291862,-117.4973779425748,-61.92808029086676,4.71104003397371,-0.0535,-0.8549,-0.5145,0.0411
17,1342367.0,1303.136517,1.0,-1.21,0.51,-9.68,20.75,-4.38,28.0,0.81,-0.31,-0.69,0.03277066817827856,0.001384315007067427,0.03805111546291862,-117.4973779425748,-61.92808029086676,4.71104003397371,-0.0535,-0.8549,-0.5145,0.0411
18,1342402.0,1303.191657,1.0,-1.23,0.29,-9.82,20.75,-4.38,28.0,1.25,-0.56,-0.31,-0.16087098544861095,-0.10021589529746322,-0.09251548504824747,-117.4973779425748,-61.914717161290675,4.745446786894516,-0.0532,-0.8549,-0.5144,0.0414
19,1342402.0,1303.191657,1.0,-1.23,0.29,-9.82,20.75,-4.38,28.0,1.25,-0.56,-0.31,-0.16087098544861095,-0.10021589529746322,-0.09251548504824747,-117.4973779425748,-61.914717161290675,4.745446786894516,-0.0532,-0.8549,-0.5144,0.0414
20,1342439.0,1303.198566,1.0,-1.14,0.59,-9.8,20.37,-4.75,27.19,0.19,-0.44,0.63,0.14103058458576853,-0.040818719237458334,-0.07596828699111667,-117.51946956763666,-61.88799370587642,4.733977821845079,-0.0535,-0.855,-0.5142,0.0413
21,1342439.0,1303.198566,1.0,-1.14,0.59,-9.8,20.37,-4.75,27.19,0.19,-0.44,0.63,0.14103058458576853,-0.040818719237458334,-0.07596828699111667,-117.51946956763666,-61.88799370587642,4.733977821845079,-0.0535,-0.855,-0.5142,0.0413
22,1342476.0,1303.216193,1.0,-1.17,0.35,-9.62,21.19,-4.38,27.19,-0.19,-0.5,0.31,-0.07827025938319708,-0.10119284774574602,0.1102881165892331,-117.51946956763666,-61.88799370587642,4.779853967883568,-0.0532,-0.855,-0.5142,0.0417
23,1342476.0,1303.216193,1.0,-1.17,0.35,-9.62,21.19,-4.38,27.19,-0.19,-0.5,0.31,-0.07827025938319708,-0.10119284774574602,0.1102881165892331,-117.51946956763666,-61.88799370587642,4.779853967883568,-0.0532,-0.855,-0.5142,0.0417
24,1342511.0,1303.2600400000001,1.0,-1.2,0.38,-9.69,21.19,-4.38,27.19,0.69,-1.19,0.5,-0.062382111430459915,-0.07412518943634605,0.03571790892166326,-117.51946956763666,-61.87463337928294,4.802792327898413,-0.0533,-0.855,-0.5141,0.0419
25,1342511.0,1303.2600400000001,1.0,-1.2,0.38,-9.69,21.19,-4.38,27.19,0.69,-1.19,0.5,-0.062382111430459915,-0.07412518943634605,0.03571790892166326,-117.51946956763666,-61.87463337928294,4.802792327898413,-0.0533,-0.855,-0.5141,0.0419
26,1342543.0,1303.2778640000001,1.0,-1.35,0.37,-9.68,20.0,-5.19,28.0,0.0,-0.37,1.06,-0.13942632876726635,0.05006603374478083,0.02708693761773695,-117.54156821615564,-61.86127398626197,4.825730880475589,-0.0534,-0.8551,-0.514,0.0421
27,1342543.0,1303.2778640000001,1.0,-1.35,0.37,-9.68,20.0,-5.19,28.0,0.0,-0.37,1.06,-0.13942632876726635,0.05006603374478083,0.02708693761773695,-117.54156821615564,-61.86127398626197,4.825730880475589,-0.0534,-0.8551,-0.514,0.0421
28,1342578.0,1303.365917,1.0,-1.24,0.48,-9.63,19.69,-4.0,28.0,-1.06,0.88,1.19,0.002587726357072773,0.010487485005189869,0.08529292825684998,-117.58578661368068,-61.821201404862826,4.802792327898413,-0.0536,-0.8553,-0.5137,0.0419
29,1342578.0,1303.365917,1.0,-1.24,0.48,-9.63,19.69,-4.0,28.0,-1.06,0.88,1.19,0.002587726357072773,0.010487485005189869,0.08529292825684998,-117.58578661368068,-61.821201404862826,4.802792327898413,-0.0536,-0.8553,-0.5137,0.0419
30,1342615.0,1303.3774970000002,1.0,-1.3,0.47,-9.54,20.37,-4.75,28.0,0.06,1.19,1.44,-0.041446129490734514,0.07322117932119487,0.16738545973298535,-117.63003319551184,-61.7677843434822,4.768384859798278,-0.0536,-0.8555,-0.5133,0.0416
31,1342615.0,1303.3774970000002,1.0,-1.3,0.47,-9.54,20.37,-4.75,28.0,0.06,1.19,1.44,-0.041446129490734514,0.07322117932119487,0.16738545973298535,-117.63003319551184,-61.7677843434822,4.768384859798278,-0.0536,-0.8555,-0.5133,0.0416
32,1342650.0,1303.4227859999999,1.0,-1.21,0.49,-9.66,20.37,-4.75,28.0,0.19,3.63,0.94,0.010366570429444166,-0.001813531004082547,0.05884567054596701,-117.6743080222204,-61.74108139765568,4.6881024349692195,-0.0534,-0.8557,-0.5131,0.0409
33,1342650.0,1303.4227859999999,1.0,-1.21,0.49,-9.66,20.37,-4.75,28.0,0.19,3.63,0.94,0.010366570429444166,-0.001813531004082547,0.05884567054596701,-117.6743080222204,-61.74108139765568,4.6881024349692195,-0.0534,-0.8557,-0.5131,0.0409
34,1342687.0,1303.4389119999998,1.0,-1.11,0.52,-9.82,20.0,-5.19,28.0,0.0,2.0,2.19,0.0807946258786853,-0.07740691896970509,-0.08892377807496032,-117.76294265360838,-61.67434029817293,4.6078223124450055,-0.0527,-0.8561,-0.5126,0.0402
35,1342687.0,1303.4389119999998,1.0,-1.11,0.52,-9.82,20.0,-5.19,28.0,0.0,2.0,2.19,0.0807946258786853,-0.07740691896970509,-0.08892377807496032,-117.76294265360838,-61.67434029817293,4.6078223124450055,-0.0527,-0.8561,-0.5126,0.0402
36,1342720.0,1303.481804,1.0,-1.2,0.45,-9.63,21.5,-5.19,28.0,1.25,-0.12,0.44,-0.02363565475359441,-0.0017143731716526278,0.09177283058869357,-117.80730258048688,-61.63430677668394,4.6078223124450055,-0.0524,-0.8563,-0.5123,0.0402
37,1342720.0,1303.481804,1.0,-1.2,0.45,-9.63,21.5,-5.19,28.0,1.25,-0.12,0.44,-0.02363565475359441,-0.0017143731716526278,0.09177283058869357,-117.80730258048688,-61.63430677668394,4.6078223124450055,-0.0524,-0.8563,-0.5123,0.0402
38,1342756.0,1303.536349,1.0,-1.13,0.41,-9.76,21.5,-5.19,28.0,1.75,1.0,1.63,-0.021874951975341644,-0.0910412671070922,-0.026652241574781854,-117.82949322355816,-61.59428159649024,4.596353909147252,-0.052000000000000005,-0.8564,-0.512,0.0401
39,1342756.0,1303.536349,1.0,-1.13,0.41,-9.76,21.5,-5.19,28.0,1.75,1.0,1.63,-0.021874951975341644,-0.0910412671070922,-0.026652241574781854,-117.82949322355816,-61.59428159649024,4.596353909147252,-0.052000000000000005,-0.8564,-0.512,0.0401
40,1342791.0,1303.549057,1.0,-1.08,0.35,-9.93,19.25,-4.75,28.0,0.94,0.94,1.44,-0.043299941204004766,-0.17924629618079818,-0.18633733514644213,-117.9183271731557,-61.52759147164257,4.6078223124450055,-0.0516,-0.8568,-0.5115,0.0402
41,1342791.0,1303.549057,1.0,-1.08,0.35,-9.93,19.25,-4.75,28.0,0.94,0.94,1.44,-0.043299941204004766,-0.17924629618079818,-0.18633733514644213,-117.9183271731557,-61.52759147164257,4.6078223124450055,-0.0516,-0.8568,-0.5115,0.0402
42,1342826.0,1303.556218,1.0,-1.08,0.27,-9.74,19.69,-4.75,28.37,2.75,-0.06,2.44,-0.11027583088487457,-0.19222342788263347,0.005742419837039492,-117.98502779819529,-61.460924442401364,4.642227799866185,-0.0514,-0.8571,-0.511,0.0405
43,1342826.0,1303.556218,1.0,-1.08,0.27,-9.74,19.69,-4.75,28.37,2.75,-0.06,2.44,-0.11027583088487457,-0.19222342788263347,0.005742419837039492,-117.98502779819529,-61.460924442401364,4.642227799866185,-0.0514,-0.8571,-0.511,0.0405
44,1342861.0,1303.607132,1.0,-1.09,0.16,-9.75,19.69,-4.75,28.37,1.5,-0.88,3.31,-0.2011745851890102,-0.23008098726587,-0.0006325760030385652,-118.07406258134459,-61.38095442802087,4.6766337060034,-0.0508,-0.8575,-0.5104,0.0408
45,1342861.0,1303.607132,1.0,-1.09,0.16,-9.75,19.69,-4.75,28.37,1.5,-0.88,3.31,-0.2011745851890102,-0.23008098726587,-0.0006325760030385652,-118.07406258134459,-61.38095442802087,4.6766337060034,-0.0508,-0.8575,-0.5104,0.0408
46,1342896.0,1303.652902,1.0,-0.93,0.03,-9.85,19.69,-5.19,28.37,-0.81,-1.19,5.94,-0.2210202895279685,-0.4276473757978765,-0.07548376521438094,-118.27481372474286,-61.19448635278197,4.71104003397371,-0.0496,-0.8584,-0.509,0.0411
47,1342896.0,1303.652902,1.0,-0.93,0.03,-9.85,19.69,-5.19,28.37,-0.81,-1.19,5.94,-0.2210202895279685,-0.4276473757978765,-0.07548376521438094,-118.27481372474286,-61.19448635278197,4.71104003397371,-0.0496,-0.8584,-0.509,0.0411
48,1342930.0,1303.711006,1.0,-0.93,-0.03,-9.55,20.37,-5.5,28.75,0.81,-1.31,7.31,-0.27022742762431456,-0.4097877072880434,0.22399112198940865,-118.47615510912563,-61.008197532736816,4.733977821845079,-0.0489,-0.8593,-0.5076,0.0413
49,1342930.0,1303.711006,1.0,-0.93,-0.03,-9.55,20.37,-5.5,28.75,0.81,-1.31,7.31,-0.27022742762431456,-0.4097877072880434,0.22399112198940865,-118.47615510912563,-61.008197532736816,4.733977821845079,-0.0489,-0.8593,-0.5076,0.0413
50,1342965.0,1303.718344,1.0,-0.92,0.0,-9.53,19.69,-5.88,28.37,-5.13,-2.56,10.31,-0.23855516284938716,-0.3962153520543829,0.24352264389549735,-118.81305169988,-60.64942873214444,4.7225089042433,-0.0485,-0.8608,-0.5049,0.0412
51,1342965.0,1303.718344,1.0,-0.92,0.0,-9.53,19.69,-5.88,28.37,-5.13,-2.56,10.31,-0.23855516284938716,-0.3962153520543829,0.24352264389549735,-118.81305169988,-60.64942873214444,4.7225089042433,-0.0485,-0.8608,-0.5049,0.0412
52,1343000.0,1303.735394,1.0,-1.1,0.0,-9.38,19.69,-5.88,28.37,-4.44,-0.69,12.63,-0.33693947144765585,-0.2296618932197649,0.3711782466967577,-119.12900695445512,-60.33107392327209,4.71104003397371,-0.0489,-0.8622,-0.5025,0.0411
53,1343000.0,1303.735394,1.0,-1.1,0.0,-9.38,19.69,-5.88,28.37,-4.44,-0.69,12.63,-0.33693947144765585,-0.2296618932197649,0.3711782466967577,-119.12900695445512,-60.33107392327209,4.71104003397371,-0.0489,-0.8622,-0.5025,0.0411
54,1343037.0,1303.775376,1.0,-1.22,0.36,-9.28,20.37,-5.5,27.19,-8.88,0.37,14.38,-0.13135779445045195,0.0392570381204079,0.4408823317949455,-119.65132148129857,-59.80162063871753,4.561948975165956,-0.051,-0.8645,-0.4985,0.0398
55,1343037.0,1303.775376,1.0,-1.22,0.36,-9.28,20.37,-5.5,27.19,-8.88,0.37,14.38,-0.13135779445045195,0.0392570381204079,0.4408823317949455,-119.65132148129857,-59.80162063871753,4.561948975165956,-0.051,-0.8645,-0.4985,0.0398
56,1343072.0,1303.829868,1.0,-1.3,0.69,-9.09,19.69,-6.69,28.37,-9.5,3.63,15.38,0.05553672749211819,0.2845567187112078,0.6028386619870485,-120.06296278033024,-59.39226049534915,4.332593112917143,-0.0529,-0.8663,-0.4954,0.0378
57,1343072.0,1303.829868,1.0,-1.3,0.69,-9.09,19.69,-6.69,28.37,-9.5,3.63,15.38,0.05553672749211819,0.2845567187112078,0.6028386619870485,-120.06296278033024,-59.39226049534915,4.332593112917143,-0.0529,-0.8663,-0.4954,0.0378
58,1343105.0,1303.882355,1.0,-1.35,1.04,-9.13,19.69,-6.69,28.37,-9.5,6.75,14.06,0.2441654023718968,0.4981391810713482,0.5355529444964713,-120.61584152012749,-58.838969295629816,3.919795697049856,-0.0551,-0.8687,-0.4912,0.0342
59,1343105.0,1303.882355,1.0,-1.35,1.04,-9.13,19.69,-6.69,28.37,-9.5,6.75,14.06,0.2441654023718968,0.4981391810713482,0.5355529444964713,-120.61584152012749,-58.838969295629816,3.919795697049856,-0.0551,-0.8687,-0.4912,0.0342
60,1343139.0,1303.898216,1.0,-1.26,0.96,-9.14,19.69,-7.0,28.0,-6.44,11.81,12.19,0.1610629781376709,0.40311979514394336,0.5405638171590166,-120.96377821929032,-58.4972102111192,3.5529075421905287,-0.0555,-0.8702,-0.4886,0.031
61,1343139.0,1303.898216,1.0,-1.26,0.96,-9.14,19.69,-7.0,28.0,-6.44,11.81,12.19,0.1610629781376709,0.40311979514394336,0.5405638171590166,-120.96377821929032,-58.4972102111192,3.5529075421905287,-0.0555,-0.8702,-0.4886,0.031
62,1343176.0,1303.9415099999999,1.0,-1.28,1.17,-8.99,19.37,-7.38,27.19,-11.69,14.75,10.81,0.21284351962531714,0.5585672049318621,0.6704527432783554,-121.3603761475579,-58.10358051110581,2.9224015288032215,-0.057999999999999996,-0.8719,-0.4856,0.0255
63,1343176.0,1303.9415099999999,1.0,-1.28,1.17,-8.99,19.37,-7.38,27.19,-11.69,14.75,10.81,0.21284351962531714,0.5585672049318621,0.6704527432783554,-121.3603761475579,-58.10358051110581,2.9224015288032215,-0.057999999999999996,-0.8719,-0.4856,0.0255
64,1343211.0,1303.998228,1.0,-0.81,1.23,-9.25,19.37,-7.38,27.19,-7.75,16.31,8.06,0.4219752960135669,0.2047186061489087,0.4518904017072263,-121.6183055994286,-57.867763106675405,2.349291527927613,-0.0582,-0.873,-0.4838,0.0205
65,1343211.0,1303.998228,1.0,-0.81,1.23,-9.25,19.37,-7.38,27.19,-7.75,16.31,8.06,0.4219752960135669,0.2047186061489087,0.4518904017072263,-121.6183055994286,-57.867763106675405,2.349291527927613,-0.0582,-0.873,-0.4838,0.0205
66,1343246.0,1304.005737,1.0,-0.88,0.78,-9.39,19.37,-7.5,27.56,-10.88,16.37,5.25,-0.1017168784619296,0.0707203179818231,0.3441158619764817,-121.80654521371449,-57.69761729678852,1.638715147453804,-0.057999999999999996,-0.8738,-0.4825,0.0143
67,1343246.0,1304.005737,1.0,-0.88,0.78,-9.39,19.37,-7.5,27.56,-10.88,16.37,5.25,-0.1017168784619296,0.0707203179818231,0.3441158619764817,-121.80654521371449,-57.69761729678852,1.638715147453804,-0.057999999999999996,-0.8738,-0.4825,0.0143
68,1343281.0,1304.024977,1.0,-1.05,1.43,-9.31,17.06,-7.38,28.75,-22.06,16.37,6.88,0.19271723365566,0.5881394383463129,0.3493537654034657,-121.99534211175566,-57.48839788302178,0.7104722177704716,-0.0612,-0.8746,-0.4809,0.0062
69,1343281.0,1304.024977,1.0,-1.05,1.43,-9.31,17.06,-7.38,28.75,-22.06,16.37,6.88,0.19271723365566,0.5881394383463129,0.3493537654034657,-121.99534211175566,-57.48839788302178,0.7104722177704716,-0.0612,-0.8746,-0.4809,0.0062
70,1343318.0,1304.070585,1.0,-0.97,1.7,-9.25,17.87,-8.56,27.19,-19.25,19.19,3.5,0.33608294532917765,0.6990596375608432,0.3837118235609669,-122.06628574219845,-57.39693028480898,-0.05729578190040675,-0.0632,-0.8749,-0.4802,-0.0005
71,1343318.0,1304.070585,1.0,-0.97,1.7,-9.25,17.87,-8.56,27.19,-19.25,19.19,3.5,0.33608294532917765,0.6990596375608432,0.3837118235609669,-122.06628574219845,-57.39693028480898,-0.05729578190040675,-0.0632,-0.8749,-0.4802,-0.0005
72,1343352.0,1304.126579,1.0,-1.05,2.02,-9.25,17.87,-8.56,27.19,-23.5,20.62,0.19,0.3741635712050891,0.9699381266334164,0.3375095082507133,-121.97171183603344,-57.423059802747964,-1.1688541705956874,-0.0664,-0.8745,-0.4804,-0.0102
73,1343352.0,1304.126579,1.0,-1.05,2.02,-9.25,17.87,-8.56,27.19,-23.5,20.62,0.19,0.3741635712050891,0.9699381266334164,0.3375095082507133,-121.97171183603344,-57.423059802747964,-1.1688541705956874,-0.0664,-0.8745,-0.4804,-0.0102
74,1343389.0,1304.142959,1.0,-0.69,2.15,-9.43,16.69,-8.56,26.75,-24.87,24.44,-2.38,0.5134783300110375,0.7577425084387609,0.15337768976685062,-121.80654521371449,-57.51453883608689,-2.085681528609333,-0.0682,-0.8738,-0.4811,-0.0182
75,1343389.0,1304.142959,1.0,-0.69,2.15,-9.43,16.69,-8.56,26.75,-24.87,24.44,-2.38,0.5134783300110375,0.7577425084387609,0.15337768976685062,-121.80654521371449,-57.51453883608689,-2.085681528609333,-0.0682,-0.8738,-0.4811,-0.0182
76,1343424.0,1304.182137,1.0,-0.77,2.58,-9.44,16.69,-9.25,28.0,-18.87,26.31,-9.06,0.636577524099906,1.1081497062754022,0.07373300229100899,-121.3603761475579,-57.867763106675405,-3.335085177891311,-0.0703,-0.8719,-0.4838,-0.0291
77,1343424.0,1304.182137,1.0,-0.77,2.58,-9.44,16.69,-9.25,28.0,-18.87,26.31,-9.06,0.636577524099906,1.1081497062754022,0.07373300229100899,-121.3603761475579,-57.867763106675405,-3.335085177891311,-0.0703,-0.8719,-0.4838,-0.0291
78,1343459.0,1304.1896199999999,1.0,-0.6,2.98,-9.96,16.69,-9.25,28.0,-23.0,27.44,-12.88,0.858734219542814,1.1807759654937744,-0.5040407459926488,-120.89404187117351,-58.24782388270019,-4.275256896440698,-0.071,-0.8699,-0.4867,-0.0373
79,1343459.0,1304.1896199999999,1.0,-0.6,2.98,-9.96,16.69,-9.25,28.0,-23.0,27.44,-12.88,0.858734219542814,1.1807759654937744,-0.5040407459926488,-120.89404187117351,-58.24782388270019,-4.275256896440698,-0.071,-0.8699,-0.4867,-0.0373
80,1343494.0,1304.253342,1.0,0.29,2.83,-10.63,15.88,-10.38,28.87,-5.38,31.0,-17.31,0.9469804754089864,0.4009791643900715,-1.1492773313088005,-120.108859015364,-58.970568079244025,-5.422203865470181,-0.0693,-0.8665,-0.4922,-0.0473
81,1343494.0,1304.253342,1.0,0.29,2.83,-10.63,15.88,-10.38,28.87,-5.38,31.0,-17.31,0.9469804754089864,0.4009791643900715,-1.1492773313088005,-120.108859015364,-58.970568079244025,-5.422203865470181,-0.0693,-0.8665,-0.4922,-0.0473
82,1343528.0,1304.317403,1.0,0.75,2.4,-10.56,15.75,-9.69,28.5,-1.56,21.81,-24.12,0.7599441171591307,-0.13003718896242833,-1.0211695066357669,-119.37830144711691,-59.669477410983546,-6.00734895779625,-0.067,-0.8633,-0.4975,-0.0524
83,1343528.0,1304.317403,1.0,0.75,2.4,-10.56,15.75,-9.69,28.5,-1.56,21.81,-24.12,0.7599441171591307,-0.13003718896242833,-1.0211695066357669,-119.37830144711691,-59.669477410983546,-6.00734895779625,-0.067,-0.8633,-0.4975,-0.0524
84,1343565.0,1304.324232,1.0,1.12,0.96,-10.89,14.75,-9.69,30.75,15.88,14.75,-25.69,-0.3428338863239633,-1.0531464896693987,-1.1268511500289815,-118.34186164954453,-60.76894511127794,-6.351624225020216,-0.0612,-0.8587,-0.5058,-0.0554
85,1343565.0,1304.324232,1.0,1.12,0.96,-10.89,14.75,-9.69,30.75,15.88,14.75,-25.69,-0.3428338863239633,-1.0531464896693987,-1.1268511500289815,-118.34186164954453,-60.76894511127794,-6.351624225020216,-0.0612,-0.8587,-0.5058,-0.0554
86,1343600.0,1304.343406,1.0,0.85,0.19,-10.58,14.75,-9.69,30.75,5.5,9.31,-20.56,-1.0807169820619893,-1.1085872398171484,-0.6956395187857698,-117.6743080222204,-61.460924442401364,-6.4319632645356775,-0.0583,-0.8557,-0.511,-0.0561
87,1343600.0,1304.343406,1.0,0.85,0.19,-10.58,14.75,-9.69,30.75,5.5,9.31,-20.56,-1.0807169820619893,-1.1085872398171484,-0.6956395187857698,-117.6743080222204,-61.460924442401364,-6.4319632645356775,-0.0583,-0.8557,-0.511,-0.0561
88,1343637.0,1304.381883,1.0,1.08,0.54,-10.77,16.0,-9.0,29.56,-1.06,5.88,-8.81,-0.7232657986633093,-1.1080167415260398,-0.9497474213015202,-117.166841303543,-61.99490997256027,-6.638563994932457,-0.0568,-0.8534,-0.515,-0.0579
89,1343637.0,1304.381883,1.0,1.08,0.54,-10.77,16.0,-9.0,29.56,-1.06,5.88,-8.81,-0.7232657986633093,-1.1080167415260398,-0.9497474213015202,-117.166841303543,-61.99490997256027,-6.638563994932457,-0.0568,-0.8534,-0.515,-0.0579
90,1343672.0,1304.435143,1.0,1.0,1.02,-10.36,14.69,-8.56,30.37,-2.81,1.0,-5.25,-0.2743644343757325,-0.7651903708043448,-0.6197207901444788,-116.99119192350858,-62.16877688957837,-6.718914520918895,-0.0552,-0.8526,-0.5163,-0.0586
91,1343672.0,1304.435143,1.0,1.0,1.02,-10.36,14.69,-8.56,30.37,-2.81,1.0,-5.25,-0.2743644343757325,-0.7651903708043448,-0.6197207901444788,-116.99119192350858,-62.16877688957837,-6.718914520918895,-0.0552,-0.8526,-0.5163,-0.0586
92,1343707.0,1304.497087,1.0,0.66,1.17,-10.18,14.69,-8.56,30.37,0.06,-2.69,-0.12,-0.26899277029245816,-0.4005275876840997,-0.4502559926000256,-116.90353178561007,-62.249076797667115,-6.6729995322127,-0.0556,-0.8522,-0.5169,-0.0582
93,1343707.0,1304.497087,1.0,0.66,1.17,-10.18,14.69,-8.56,30.37,0.06,-2.69,-0.12,-0.26899277029245816,-0.4005275876840997,-0.4502559926000256,-116.90353178561007,-62.249076797667115,-6.6729995322127,-0.0556,-0.8522,-0.5169,-0.0582
94,1343741.0,1304.512958,1.0,0.88,1.37,-10.53,15.06,-8.69,29.75,4.88,-1.0,2.94,-0.03430933481005191,-0.5179556645103358,-0.8358471129498799,-116.99119192350858,-62.182157850572864,-6.604129057804274,-0.0554,-0.8526,-0.5164,-0.0576
95,1343741.0,1304.512958,1.0,0.88,1.37,-10.53,15.06,-8.69,29.75,4.88,-1.0,2.94,-0.03430933481005191,-0.5179556645103358,-0.8358471129498799,-116.99119192350858,-62.182157850572864,-6.604129057804274,-0.0554,-0.8526,-0.5164,-0.0576
96,1343778.0,1304.553846,1.0,0.81,0.94,-10.3,15.5,-9.5,30.25,9.75,-6.81,5.5,-0.3331413546533111,-0.641778616829491,-0.5425933078365794,-117.23282354978821,-62.00827871831106,-6.271288310584378,-0.0535,-0.8537,-0.5151,-0.0547
97,1343778.0,1304.553846,1.0,0.81,0.94,-10.3,15.5,-9.5,30.25,9.75,-6.81,5.5,-0.3331413546533111,-0.641778616829491,-0.5425933078365794,-117.23282354978821,-62.00827871831106,-6.271288310584378,-0.0535,-0.8537,-0.5151,-0.0547
98,1343813.0,1304.570099,1.0,0.95,0.1,-10.42,15.5,-9.5,30.25,13.5,-9.38,12.44,-0.9321478041332844,-1.1594945105469574,-0.5507421887346222,-117.56367389565743,-61.75443240547686,-5.881128455236522,-0.0514,-0.8552,-0.5132,-0.0513
99,1343813.0,1304.570099,1.0,0.95,0.1,-10.42,15.5,-9.5,30.25,13.5,-9.38,12.44,-0.9321478041332844,-1.1594945105469574,-0.5507421887346222,-117.56367389565743,-61.75443240547686,-5.881128455236522,-0.0514,-0.8552,-0.5132,-0.0513
100,1343846.0,1304.609515,1.0,0.8,0.14,-10.32,15.06,-8.38,30.25,-5.13,-15.19,23.81,-0.8778785290402219,-1.0696232286614666,-0.4523575268983997,-118.36422556879907,-60.98159941844144,-5.3992599817249625,-0.0524,-0.8588,-0.5074,-0.0471
101,1343846.0,1304.609515,1.0,0.8,0.14,-10.32,15.06,-8.38,30.25,-5.13,-15.19,23.81,-0.8778785290402219,-1.0696232286614666,-0.4523575268983997,-118.36422556879907,-60.98159941844144,-5.3992599817249625,-0.0524,-0.8588,-0.5074,-0.0471
102,1343881.0,1304.66828,1.0,0.81,0.56,-10.13,15.5,-8.69,29.5,-5.31,-16.12,28.0,-0.4618391731282729,-0.9710038935388512,-0.3141432503779864,-119.42372742198721,-59.89417305003661,-5.0551272004985615,-0.0567,-0.8635,-0.4992,-0.0441
103,1343881.0,1304.66828,1.0,0.81,0.56,-10.13,15.5,-8.69,29.5,-5.31,-16.12,28.0,-0.4618391731282729,-0.9710038935388512,-0.3141432503779864,-119.42372742198721,-59.89417305003661,-5.0551272004985615,-0.0567,-0.8635,-0.4992,-0.0441
104,1343918.0,1304.674593,1.0,0.28,1.18,-9.9,15.5,-9.06,29.75,-21.19,-20.06,31.5,-0.1912870499454164,-0.30679064777785403,-0.16080146780054427,-120.26974778474064,-58.95740435856217,-4.837200229263812,-0.0627,-0.8672,-0.4921,-0.0422
105,1343918.0,1304.674593,1.0,0.28,1.18,-9.9,15.5,-9.06,29.75,-21.19,-20.06,31.5,-0.1912870499454164,-0.30679064777785403,-0.16080146780054427,-120.26974778474064,-58.95740435856217,-4.837200229263812,-0.0627,-0.8672,-0.4921,-0.0422
106,1343952.0,1304.6904769999999,1.0,0.07,1.9,-9.99,15.5,-9.06,29.75,-12.5,-22.87,29.56,0.263813443988452,0.0836408482024249,-0.3588999937427353,-121.40719542947477,-57.69761729678852,-4.481672390551605,-0.0706,-0.8721,-0.4825,-0.0391
107,1343952.0,1304.6904769999999,1.0,0.07,1.9,-9.99,15.5,-9.06,29.75,-12.5,-22.87,29.56,0.263813443988452,0.0836408482024249,-0.3588999937427353,-121.40719542947477,-57.69761729678852,-4.481672390551605,-0.0706,-0.8721,-0.4825,-0.0391
108,1343989.0,1304.733341,1.0,-0.16,1.88,-10.17,15.5,-10.19,29.37,-3.06,-22.0,28.12,0.1352924968739953,0.1718611606451088,-0.5345810525271286,-122.25585789752888,-56.835930249050065,-4.011523869819651,-0.0735,-0.8757,-0.4759,-0.035
109,1343989.0,1304.733341,1.0,-0.16,1.88,-10.17,15.5,-10.19,29.37,-3.06,-22.0,28.12,0.1352924968739953,0.1718611606451088,-0.5345810525271286,-122.25585789752888,-56.835930249050065,-4.011523869819651,-0.0735,-0.8757,-0.4759,-0.035
110,1344026.0,1304.79423,1.0,-0.31,2.59,-9.92,15.88,-11.0,28.56,-2.94,-22.62,26.37,0.7009130620048045,0.5961712278671853,-0.40921514919683055,-123.35714687658856,-55.67947118427708,-3.40386984812725,-0.0781,-0.8803,-0.467,-0.0297
111,1344026.0,1304.79423,1.0,-0.31,2.59,-9.92,15.88,-11.0,28.56,-2.94,-22.62,26.37,0.7009130620048045,0.5961712278671853,-0.40921514919683055,-123.35714687658856,-55.67947118427708,-3.40386984812725,-0.0781,-0.8803,-0.467,-0.0297
112,1344061.0,1304.811281,1.0,-0.36,2.95,-9.83,15.88,-11.0,28.56,2.63,-22.19,21.12,1.021888121552348,0.7841642391083372,-0.38166836532083614,-124.06164029835844,-54.954967799820345,-2.87655022805785,-0.0803,-0.8832,-0.4614,-0.0251
113,1344061.0,1304.811281,1.0,-0.36,2.95,-9.83,15.88,-11.0,28.56,2.63,-22.19,21.12,1.021888121552348,0.7841642391083372,-0.38166836532083614,-124.06164029835844,-54.954967799820345,-2.87655022805785,-0.0803,-0.8832,-0.4614,-0.0251
114,1344094.0,1304.854215,1.0,-0.49,2.78,-9.69,16.69,-12.5,28.56,8.63,-24.37,14.56,0.9122822749326354,0.7131580642673399,-0.21950313199505267,-124.72495975966049,-54.27146504851861,-2.0398374773549266,-0.0831,-0.8859,-0.4561,-0.0178
115,1344094.0,1304.854215,1.0,-0.49,2.78,-9.69,16.69,-12.5,28.56,8.63,-24.37,14.56,0.9122822749326354,0.7131580642673399,-0.21950313199505267,-124.72495975966049,-54.27146504851861,-2.0398374773549266,-0.0831,-0.8859,-0.4561,-0.0178
116,1344131.0,1304.9144939999999,1.0,-0.61,2.06,-9.28,16.0,-11.69,28.06,15.13,-23.56,9.44,0.4230890093187884,0.4087151425787425,0.2993871119538074,-125.07180537967443,-53.93692610492359,-1.237612897472461,-0.0825,-0.8873,-0.4535,-0.0108
117,1344131.0,1304.9144939999999,1.0,-0.61,2.06,-9.28,16.0,-11.69,28.06,15.13,-23.56,9.44,0.4230890093187884,0.4087151425787425,0.2993871119538074,-125.07180537967443,-53.93692610492359,-1.237612897472461,-0.0825,-0.8873,-0.4535,-0.0108
118,1344167.0,1304.926741,1.0,-1.04,2.4,-8.56,17.87,-12.56,26.37,2.19,-24.44,4.25,0.6092626684097334,0.9581667546514228,0.9282540034720784,-125.37071718924679,-53.60288337963247,-0.32085678452705746,-0.0846,-0.8885,-0.4509,-0.0028
119,1344167.0,1304.926741,1.0,-1.04,2.4,-8.56,17.87,-12.56,26.37,2.19,-24.44,4.25,0.6092626684097334,0.9581667546514228,0.9282540034720784,-125.37071718924679,-53.60288337963247,-0.32085678452705746,-0.0846,-0.8885,-0.4509,-0.0028
120,1344202.0,1304.9746910000001,1.0,-1.36,2.25,-8.06,17.87,-12.56,26.37,5.88,-18.44,-1.19,0.42519731439037867,1.1336386586511296,1.4155969888787556,-125.42068267085124,-53.538700860812206,0.43544897228424,-0.0859,-0.8887,-0.4504,0.0038
121,1344202.0,1304.9746910000001,1.0,-1.36,2.25,-8.06,17.87,-12.56,26.37,5.88,-18.44,-1.19,0.42519731439037867,1.1336386586511296,1.4155969888787556,-125.42068267085124,-53.538700860812206,0.43544897228424,-0.0859,-0.8887,-0.4504,0.0038
122,1344239.0,1304.9874710000001,1.0,-1.55,1.93,-7.92,18.37,-12.19,26.75,2.94,-9.56,-6.44,0.11598403550522653,1.0973628378946945,1.58253044192476,-125.27091255577452,-53.667084063629616,0.8021474641450599,-0.0859,-0.8881,-0.4514,0.006999999999999999
123,1344239.0,1304.9874710000001,1.0,-1.55,1.93,-7.92,18.37,-12.19,26.75,2.94,-9.56,-6.44,0.11598403550522653,1.0973628378946945,1.58253044192476,-125.27091255577452,-53.667084063629616,0.8021474641450599,-0.0859,-0.8881,-0.4514,0.006999999999999999
124,1344274.0,1305.037312,1.0,-1.69,2.01,-7.64,18.5,-11.06,25.87,-0.37,-1.12,-9.31,0.1420253720487727,1.2864807402208869,1.83227879602817,-124.94770072590693,-54.00122182339204,0.93966131468631,-0.0861,-0.8868,-0.45399999999999996,0.0082
125,1344274.0,1305.037312,1.0,-1.69,2.01,-7.64,18.5,-11.06,25.87,-0.37,-1.12,-9.31,0.1420253720487727,1.2864807402208869,1.83227879602817,-124.94770072590693,-54.00122182339204,0.93966131468631,-0.0861,-0.8868,-0.45399999999999996,0.0082
126,1344309.0,1305.0450119999998,1.0,-1.32,1.9,-8.0,18.5,-11.06,25.87,-0.19,10.88,-13.75,0.23466540480184464,0.8584265720525367,1.5265270559741513,-124.55228684017095,-54.38738352787694,0.8136069048374162,-0.0871,-0.8852,-0.457,0.0071
127,1344309.0,1305.0450119999998,1.0,-1.32,1.9,-8.0,18.5,-11.06,25.87,-0.19,10.88,-13.75,0.23466540480184464,0.8584265720525367,1.5265270559741513,-124.55228684017095,-54.38738352787694,0.8136069048374162,-0.0871,-0.8852,-0.457,0.0071
128,1344344.0,1305.107614,1.0,-1.03,1.57,-8.39,18.87,-11.75,25.87,1.69,18.25,-16.19,0.08208893917716995,0.4549227691182794,1.2215345855048303,-123.96398525409832,-55.05832168724145,0.3093975852894872,-0.0838,-0.8828,-0.4622,0.0027
129,1344344.0,1305.107614,1.0,-1.03,1.57,-8.39,18.87,-11.75,25.87,1.69,18.25,-16.19,0.08208893917716995,0.4549227691182794,1.2215345855048303,-123.96398525409832,-55.05832168724145,0.3093975852894872,-0.0838,-0.8828,-0.4622,0.0027
130,1344378.0,1305.183099,1.0,-0.35,0.8,-9.09,19.0,-11.56,27.5,9.06,27.87,-15.06,-0.2375465253343825,-0.5171812004998577,0.6925567782828157,-123.5506835259097,-55.57582333465725,-0.20626491763025406,-0.0788,-0.8811,-0.4662,-0.0018
131,1344378.0,1305.183099,1.0,-0.35,0.8,-9.09,19.0,-11.56,27.5,9.06,27.87,-15.06,-0.2375465253343825,-0.5171812004998577,0.6925567782828157,-123.5506835259097,-55.57582333465725,-0.20626491763025406,-0.0788,-0.8811,-0.4662,-0.0018
132,1344415.0,1305.187325,1.0,-0.05,0.18,-9.55,17.69,-11.06,27.19,9.69,30.94,-12.94,-0.672373479652205,-0.9783453365960132,0.3288784103159976,-123.09201996316364,-56.18546670575561,-1.0313379546174166,-0.0714,-0.8792,-0.4709,-0.009000000000000001
133,1344415.0,1305.187325,1.0,-0.05,0.18,-9.55,17.69,-11.06,27.19,9.69,30.94,-12.94,-0.672373479652205,-0.9783453365960132,0.3288784103159976,-123.09201996316364,-56.18546670575561,-1.0313379546174166,-0.0714,-0.8792,-0.4709,-0.009000000000000001
134,1344450.0,1305.1903810000001,1.0,0.63,0.13,-10.06,17.69,-11.06,27.19,-9.63,25.69,-0.63,-0.4739620745240543,-1.5231392839612066,-0.1468823716541472,-122.97188128580086,-56.35439663135928,-1.7877008349543104,-0.0689,-0.8787,-0.4722,-0.0156
135,1344450.0,1305.1903810000001,1.0,0.63,0.13,-10.06,17.69,-11.06,27.19,-9.63,25.69,-0.63,-0.4739620745240543,-1.5231392839612066,-0.1468823716541472,-122.97188128580086,-56.35439663135928,-1.7877008349543104,-0.0689,-0.8787,-0.4722,-0.0156
136,1344487.0,1305.240055,1.0,0.46,0.41,-9.53,18.06,-11.06,28.37,-21.5,21.62,4.5,-0.4689772026585925,-1.1209363795218859,0.33436611402767724,-122.92389068833596,-56.28940782045202,-2.8994758203914888,-0.071,-0.8785,-0.4717,-0.0253
137,1344487.0,1305.240055,1.0,0.46,0.41,-9.53,18.06,-11.06,28.37,-21.5,21.62,4.5,-0.4689772026585925,-1.1209363795218859,0.33436611402767724,-122.92389068833596,-56.28940782045202,-2.8994758203914888,-0.071,-0.8785,-0.4717,-0.0253
138,1344522.0,1305.281153,1.0,0.44,0.24,-9.89,17.37,-10.38,27.87,-22.94,24.94,12.5,-0.8155737697835832,-1.1940502349108129,0.010100430761328385,-123.06797364519969,-56.04262977353804,-3.816604503074617,-0.073,-0.8791,-0.4698,-0.0333
139,1344522.0,1305.281153,1.0,0.44,0.24,-9.89,17.37,-10.38,27.87,-22.94,24.94,12.5,-0.8155737697835832,-1.1940502349108129,0.010100430761328385,-123.06797364519969,-56.04262977353804,-3.816604503074617,-0.073,-0.8791,-0.4698,-0.0333
140,1344557.0,1305.339383,1.0,0.76,0.43,-10.14,17.37,-10.38,27.87,-21.81,19.06,21.56,-0.7279540791591417,-1.3341453252040856,-0.2567609083288307,-123.5506835259097,-55.368675619160264,-5.0551272004985615,-0.0762,-0.8811,-0.4646,-0.0441
141,1344557.0,1305.339383,1.0,0.76,0.43,-10.14,17.37,-10.38,27.87,-21.81,19.06,21.56,-0.7279540791591417,-1.3341453252040856,-0.2567609083288307,-123.5506835259097,-55.368675619160264,-5.0551272004985615,-0.0762,-0.8811,-0.4646,-0.0441
142,1344591.0,1305.355305,1.0,0.83,0.52,-10.3,15.5,-12.25,27.87,-22.81,14.69,29.12,-0.8012770336255545,-1.3025764341828243,-0.42616729283269095,-124.45383854948406,-54.31009785710634,-6.0647243159910715,-0.0779,-0.8848,-0.4564,-0.0529
143,1344591.0,1305.355305,1.0,0.83,0.52,-10.3,15.5,-12.25,27.87,-22.81,14.69,29.12,-0.8012770336255545,-1.3025764341828243,-0.42616729283269095,-124.45383854948406,-54.31009785710634,-6.0647243159910715,-0.0779,-0.8848,-0.4564,-0.0529
144,1344628.0,1305.3638859999999,1.0,0.61,1.49,-10.24,15.5,-13.0,29.19,-35.0,11.06,37.81,-0.3231116981632651,-0.587769011959787,-0.5374268761204508,-125.27091255577452,-53.24369423684897,-6.868145731332586,-0.0834,-0.8881,-0.4481,-0.0599
145,1344628.0,1305.3638859999999,1.0,0.61,1.49,-10.24,15.5,-13.0,29.19,-35.0,11.06,37.81,-0.3231116981632651,-0.587769011959787,-0.5374268761204508,-125.27091255577452,-53.24369423684897,-6.868145731332586,-0.0834,-0.8881,-0.4481,-0.0599
146,1344665.0,1305.403932,1.0,0.57,2.93,-10.37,15.5,-13.0,29.19,-41.38,7.0,41.81,0.53239562962703,0.2395780631803397,-0.9685927928653566,-126.17530318519164,-52.00367866289412,-7.717845476549469,-0.0906,-0.8917,-0.4384,-0.0673
147,1344665.0,1305.403932,1.0,0.57,2.93,-10.37,15.5,-13.0,29.19,-41.38,7.0,41.81,0.53239562962703,0.2395780631803397,-0.9685927928653566,-126.17530318519164,-52.00367866289412,-7.717845476549469,-0.0906,-0.8917,-0.4384,-0.0673
148,1344698.0,1305.461849,1.0,0.35,4.02,-10.07,14.0,-14.5,28.37,-32.13,3.94,38.06,1.0147370666465574,1.0534722135200485,-0.9426897462781288,-127.3259688536123,-50.37729473020999,-8.61393617408195,-0.0998,-0.8962,-0.4256,-0.0751
149,1344698.0,1305.461849,1.0,0.35,4.02,-10.07,14.0,-14.5,28.37,-32.13,3.94,38.06,1.0147370666465574,1.0534722135200485,-0.9426897462781288,-127.3259688536123,-50.37729473020999,-8.61393617408195,-0.0998,-0.8962,-0.4256,-0.0751
150,1344735.0,1305.525169,1.0,0.32,4.53,-10.36,14.0,-15.69,27.56,-24.31,3.56,30.5,1.0896767486551382,1.3321465472319218,-1.3732824756520101,-128.2635811405088,-49.089017824092124,-9.280599254023052,-0.1064,-0.8998,-0.4154,-0.0809
151,1344735.0,1305.525169,1.0,0.32,4.53,-10.36,14.0,-15.69,27.56,-24.31,3.56,30.5,1.0896767486551382,1.3321465472319218,-1.3732824756520101,-128.2635811405088,-49.089017824092124,-9.280599254023052,-0.1064,-0.8998,-0.4154,-0.0809
152,1344770.0,1305.54139,1.0,-0.04,4.67,-9.53,12.5,-18.69,26.37,-10.94,-3.38,16.94,1.0708189428255217,1.7704244880621798,-0.6024971275871476,-128.73836728652063,-48.44736344772761,-9.441564242690683,-0.1099,-0.9016,-0.4103,-0.0823
153,1344770.0,1305.54139,1.0,-0.04,4.67,-9.53,12.5,-18.69,26.37,-10.94,-3.38,16.94,1.0708189428255217,1.7704244880621798,-0.6024971275871476,-128.73836728652063,-48.44736344772761,-9.441564242690683,-0.1099,-0.9016,-0.4103,-0.0823
154,1344804.0,1305.544324,1.0,0.1,3.85,-9.76,12.5,-18.69,26.37,4.19,0.31,8.38,0.5066789257942,1.1339165902546122,-0.6119684128463732,-129.1104989092044,-48.070674990989744,-9.453062452606881,-0.1093,-0.903,-0.4073,-0.0824
155,1344804.0,1305.544324,1.0,0.1,3.85,-9.76,12.5,-18.69,26.37,4.19,0.31,8.38,0.5066789257942,1.1339165902546122,-0.6119684128463732,-129.1104989092044,-48.070674990989744,-9.453062452606881,-0.1093,-0.903,-0.4073,-0.0824
156,1344841.0,1305.599484,1.0,0.06,3.14,-9.54,13.0,-18.69,26.37,6.25,-1.56,0.0,0.05141127767669845,0.7520001697480294,-0.2086708947704992,-129.21728949054742,-48.03303658033746,-9.3380846266553,-0.10800000000000001,-0.9034,-0.40700000000000003,-0.0814
157,1344841.0,1305.599484,1.0,0.06,3.14,-9.54,13.0,-18.69,26.37,6.25,-1.56,0.0,0.05141127767669845,0.7520001697480294,-0.2086708947704992,-129.21728949054742,-48.03303658033746,-9.3380846266553,-0.10800000000000001,-0.9034,-0.40700000000000003,-0.0814
158,1344876.0,1305.640604,1.0,0.19,2.76,-9.36,12.69,-17.87,27.5,8.88,-0.94,-2.5,-0.04963727406508362,0.4586955741913232,0.057268762647513675,-129.21728949054742,-48.120868117186305,-9.17713147157167,-0.1058,-0.9034,-0.4077,-0.08
159,1344876.0,1305.640604,1.0,0.19,2.76,-9.36,12.69,-17.87,27.5,8.88,-0.94,-2.5,-0.04963727406508362,0.4586955741913232,0.057268762647513675,-129.21728949054742,-48.120868117186305,-9.17713147157167,-0.1058,-0.9034,-0.4077,-0.08
160,1344911.0,1305.656675,1.0,0.4,2.4,-9.49,12.69,-17.87,27.5,4.88,-0.75,-4.13,-0.16896324191828588,0.0708484539388956,0.011419940452904951,-129.19057220176188,-48.23383857270471,-9.06217605835773,-0.1042,-0.9033,-0.4086,-0.079
161,1344911.0,1305.656675,1.0,0.4,2.4,-9.49,12.69,-17.87,27.5,4.88,-0.75,-4.13,-0.16896324191828588,0.0708484539388956,0.011419940452904951,-129.19057220176188,-48.23383857270471,-9.06217605835773,-0.1042,-0.9033,-0.4086,-0.079
162,1344946.0,1305.695942,1.0,0.43,2.54,-9.53,13.88,-18.25,27.5,-0.69,-1.81,-3.06,-0.044877570273283866,0.12197918740144442,-0.06454582834457234,-129.0838339340417,-48.359419810815105,-8.981712713320505,-0.1044,-0.9029,-0.4096,-0.0783
163,1344946.0,1305.695942,1.0,0.43,2.54,-9.53,13.88,-18.25,27.5,-0.69,-1.81,-3.06,-0.044877570273283866,0.12197918740144442,-0.06454582834457234,-129.0838339340417,-48.359419810815105,-8.981712713320505,-0.1044,-0.9029,-0.4096,-0.0783
164,1344980.0,1305.7515210000001,1.0,0.49,2.75,-9.4,12.69,-17.87,27.87,-2.69,-2.06,-3.88,0.17685548836755238,0.2062886891952651,0.0041621977660977185,-128.97730409708814,-48.45992930219389,-8.935735653853007,-0.1053,-0.9025,-0.4104,-0.0779
165,1344980.0,1305.7515210000001,1.0,0.49,2.75,-9.4,12.69,-17.87,27.87,-2.69,-2.06,-3.88,0.17685548836755238,0.2062886891952651,0.0041621977660977185,-128.97730409708814,-48.45992930219389,-8.935735653853007,-0.1053,-0.9025,-0.4104,-0.0779
166,1345015.0,1305.770774,1.0,0.46,2.83,-9.25,13.88,-17.56,26.69,-0.31,-0.63,-4.31,0.2427234764970301,0.2716190346605287,0.12934105515550345,-128.76486449761614,-48.61076799855758,-8.92424161449454,-0.1066,-0.9017,-0.4116,-0.0778
167,1345015.0,1305.770774,1.0,0.46,2.83,-9.25,13.88,-17.56,26.69,-0.31,-0.63,-4.31,0.2427234764970301,0.2716190346605287,0.12934105515550345,-128.76486449761614,-48.61076799855758,-8.92424161449454,-0.1066,-0.9017,-0.4116,-0.0778
168,1345050.0,1305.8160679999999,1.0,0.62,2.58,-9.56,13.88,-17.56,26.69,2.69,-0.12,-5.38,0.09851091081175983,-0.046954630601089516,-0.11416099825595084,-128.63250588646886,-48.76169642019097,-8.92424161449454,-0.1063,-0.9012,-0.4128,-0.0778
169,1345050.0,1305.8160679999999,1.0,0.62,2.58,-9.56,13.88,-17.56,26.69,2.69,-0.12,-5.38,0.09851091081175983,-0.046954630601089516,-0.11416099825595084,-128.63250588646886,-48.76169642019097,-8.92424161449454,-0.1063,-0.9012,-0.4128,-0.0778
170,1345087.0,1305.832762,1.0,0.47,2.52,-9.32,12.38,-17.87,25.37,3.88,2.0,-3.5,0.028332150829124162,0.06727486968131657,0.1408147344298918,-128.5268474503853,-48.93789354543228,-8.878266355561609,-0.1055,-0.9008,-0.4142,-0.0774
171,1345087.0,1305.832762,1.0,0.47,2.52,-9.32,12.38,-17.87,25.37,3.88,2.0,-3.5,0.028332150829124162,0.06727486968131657,0.1408147344298918,-128.5268474503853,-48.93789354543228,-8.878266355561609,-0.1055,-0.9008,-0.4142,-0.0774
172,1345122.0,1305.874991,1.0,0.79,2.41,-9.66,14.0,-18.0,26.25,3.31,2.44,-2.44,0.08515623632350099,-0.2663343754451539,-0.17681705387819946,-128.44773606463812,-49.03863296676083,-8.901253805563371,-0.1042,-0.9005,-0.415,-0.0776
173,1345122.0,1305.874991,1.0,0.79,2.41,-9.66,14.0,-18.0,26.25,3.31,2.44,-2.44,0.08515623632350099,-0.2663343754451539,-0.17681705387819946,-128.44773606463812,-49.03863296676083,-8.901253805563371,-0.1042,-0.9005,-0.415,-0.0776
174,1345155.0,1305.930386,1.0,0.7,2.34,-9.68,14.0,-18.0,26.25,4.06,0.69,-2.06,-0.011530222491562048,-0.22503125220394796,-0.17419305003845054,-128.39505791682004,-49.12681310673511,-8.866772764864926,-0.1029,-0.9003,-0.4157,-0.0773
175,1345155.0,1305.930386,1.0,0.7,2.34,-9.68,14.0,-18.0,26.25,4.06,0.69,-2.06,-0.011530222491562048,-0.22503125220394796,-0.17419305003845054,-128.39505791682004,-49.12681310673511,-8.866772764864926,-0.1029,-0.9003,-0.4157,-0.0773
176,1345191.0,1305.950642,1.0,0.63,2.39,-9.71,12.5,-16.87,27.87,0.37,-0.31,-0.88,-0.01829715211678562,-0.13658673343238004,-0.2120380018530721,-128.39505791682004,-49.164614087930325,-8.843785851491393,-0.1024,-0.9003,-0.41600000000000004,-0.0771
177,1345191.0,1305.950642,1.0,0.63,2.39,-9.71,12.5,-16.87,27.87,0.37,-0.31,-0.88,-0.01829715211678562,-0.13658673343238004,-0.2120380018530721,-128.39505791682004,-49.164614087930325,-8.843785851491393,-0.1024,-0.9003,-0.41600000000000004,-0.0771
178,1345228.0,1305.99266,1.0,0.52,2.49,-9.4,13.56,-17.69,26.69,2.88,0.0,-0.06,0.06418310072322493,0.05603493878907506,0.0689274420701178,-128.39505791682004,-49.17721568249704,-8.809306149715164,-0.1018,-0.9003,-0.4161,-0.0768
179,1345228.0,1305.99266,1.0,0.52,2.49,-9.4,13.56,-17.69,26.69,2.88,0.0,-0.06,0.06418310072322493,0.05603493878907506,0.0689274420701178,-128.39505791682004,-49.17721568249704,-8.809306149715164,-0.1018,-0.9003,-0.4161,-0.0768
180,1345261.0,1306.010333,1.0,0.42,2.39,-9.34,13.56,-17.69,26.69,0.81,-0.63,-0.5,-0.04867260005524804,0.08192114365282421,0.15703757751242264,-128.4213907260083,-49.189817911228005,-8.76333445653462,-0.1013,-0.9004,-0.4162,-0.0764
181,1345261.0,1306.010333,1.0,0.42,2.39,-9.34,13.56,-17.69,26.69,0.81,-0.63,-0.5,-0.04867260005524804,0.08192114365282421,0.15703757751242264,-128.4213907260083,-49.189817911228005,-8.76333445653462,-0.1013,-0.9004,-0.4162,-0.0764
182,1345296.0,1306.051102,1.0,0.43,2.44,-9.54,13.56,-18.0,27.5,1.94,-0.25,-0.19,-0.042135434802017764,0.0895904574646329,-0.04932778787398106,-128.44773606463812,-49.189817911228005,-8.740349140335567,-0.1008,-0.9005,-0.4162,-0.0762
183,1345296.0,1306.051102,1.0,0.43,2.44,-9.54,13.56,-18.0,27.5,1.94,-0.25,-0.19,-0.042135434802017764,0.0895904574646329,-0.04932778787398106,-128.44773606463812,-49.189817911228005,-8.740349140335567,-0.1008,-0.9005,-0.4162,-0.0762
184,1345331.0,1306.114981,1.0,0.35,2.46,-9.3,14.0,-17.69,27.5,1.81,0.37,-0.12,-0.018716567899770283,0.19270953667226046,0.18237793793932333,-128.44773606463812,-49.202420774371426,-8.705871826379285,-0.1006,-0.9005,-0.4163,-0.0759
185,1345331.0,1306.114981,1.0,0.35,2.46,-9.3,14.0,-17.69,27.5,1.81,0.37,-0.12,-0.018716567899770283,0.19270953667226046,0.18237793793932333,-128.44773606463812,-49.202420774371426,-8.705871826379285,-0.1006,-0.9005,-0.4163,-0.0759
186,1345368.0,1306.133369,1.0,0.54,2.52,-9.52,12.75,-17.25,27.5,0.31,0.94,0.06,0.10040642451534047,0.07152037393152844,-0.0552566810647086,-128.44773606463812,-49.21502427217554,-8.72885661442212,-0.1,-0.9005,-0.4164,-0.0761
187,1345368.0,1306.133369,1.0,0.54,2.52,-9.52,12.75,-17.25,27.5,0.31,0.94,0.06,0.10040642451534047,0.07152037393152844,-0.0552566810647086,-128.44773606463812,-49.21502427217554,-8.72885661442212,-0.1,-0.9005,-0.4164,-0.0761
188,1345402.0,1306.142258,1.0,0.52,2.54,-9.45,12.75,-17.25,27.5,2.5,1.0,-1.69,0.11525835142557644,0.10595660941987406,0.008691605041033057,-128.39505791682004,-49.24023317275956,-8.740349140335567,-0.1001,-0.9003,-0.4166,-0.0762
189,1345402.0,1306.142258,1.0,0.52,2.54,-9.45,12.75,-17.25,27.5,2.5,1.0,-1.69,0.11525835142557644,0.10595660941987406,0.008691605041033057,-128.39505791682004,-49.24023317275956,-8.740349140335567,-0.1001,-0.9003,-0.4166,-0.0762
190,1345437.0,1306.1908349999999,1.0,0.53,2.33,-9.54,13.56,-17.25,27.87,0.12,-1.06,-2.0,-0.04146302812356895,-0.038164197247094515,-0.02789240477650701,-128.3424298098244,-49.31587513221956,-8.705871826379285,-0.0995,-0.9001,-0.4172,-0.0759
191,1345437.0,1306.1908349999999,1.0,0.53,2.33,-9.54,13.56,-17.25,27.87,0.12,-1.06,-2.0,-0.04146302812356895,-0.038164197247094515,-0.02789240477650701,-128.3424298098244,-49.31587513221956,-8.705871826379285,-0.0995,-0.9001,-0.4172,-0.0759
192,1345472.0,1306.21005,1.0,0.48,2.4,-9.47,13.56,-17.69,28.25,0.19,1.63,-1.06,-0.007872372766523972,0.0526774018545324,0.02562433205081049,-128.31613447366578,-49.353704706731605,-8.717364176475899,-0.0995,-0.9,-0.4175,-0.076
193,1345472.0,1306.21005,1.0,0.48,2.4,-9.47,13.56,-17.69,28.25,0.19,1.63,-1.06,-0.007872372766523972,0.0526774018545324,0.02562433205081049,-128.31613447366578,-49.353704706731605,-8.717364176475899,-0.0995,-0.9,-0.4175,-0.076
194,1345507.0,1306.254144,1.0,0.54,2.53,-9.64,13.56,-17.69,28.25,1.12,-0.25,-1.31,0.08941914424894581,0.06804234803367004,-0.17380462168512345,-128.2635811405088,-49.40415306764388,-8.717364176475899,-0.0995,-0.8998,-0.4179,-0.076
195,1345507.0,1306.254144,1.0,0.54,2.53,-9.64,13.56,-17.69,28.25,1.12,-0.25,-1.31,0.08941914424894581,0.06804234803367004,-0.17380462168512345,-128.2635811405088,-49.40415306764388,-8.717364176475899,-0.0995,-0.8998,-0.4179,-0.076
196,1345542.0,1306.317114,1.0,0.57,2.41,-9.79,13.56,-17.69,27.5,2.0,0.81,-1.37,-0.00553158464350184,-0.038608591106241485,-0.29164583535084176,-128.23732310544656,-49.441996043237744,-8.705871826379285,-0.0989,-0.8997,-0.4182,-0.0759
197,1345542.0,1306.317114,1.0,0.57,2.41,-9.79,13.56,-17.69,27.5,2.0,0.81,-1.37,-0.00553158464350184,-0.038608591106241485,-0.29164583535084176,-128.23732310544656,-49.441996043237744,-8.705871826379285,-0.0989,-0.8997,-0.4182,-0.0759
198,1345576.0,1306.382392,1.0,0.6,2.42,-9.64,13.56,-17.69,27.5,1.75,-0.69,-1.25,0.063369474320292,-0.03413567589583644,-0.15029828074121987,-128.23732310544656,-49.492462296741046,-8.671395302011161,-0.0985,-0.8997,-0.4186,-0.0756
199,1345576.0,1306.382392,1.0,0.6,2.42,-9.64,13.56,-17.69,27.5,1.75,-0.69,-1.25,0.063369474320292,-0.03413567589583644,-0.15029828074121987,-128.23732310544656,-49.492462296741046,-8.671395302011161,-0.0985,-0.8997,-0.4186,-0.0756
200,1345611.0,1306.389555,1.0,0.72,2.4,-9.7,13.56,-17.69,27.5,1.06,-1.63,-1.12,0.11934117313508052,-0.1451998493849913,-0.20998989010952407,-128.2110774660985,-49.517699264874096,-8.636919564056372,-0.0983,-0.8996,-0.4188,-0.0753
201,1345611.0,1306.389555,1.0,0.72,2.4,-9.7,13.56,-17.69,27.5,1.06,-1.63,-1.12,0.11934117313508052,-0.1451998493849913,-0.20998989010952407,-128.2110774660985,-49.517699264874096,-8.636919564056372,-0.0983,-0.8996,-0.4188,-0.0753
202,1345644.0,1306.454111,1.0,0.52,2.35,-9.55,13.19,-16.5,28.25,0.88,-2.75,-1.37,0.0050172863478737395,-0.01677081014032411,-0.041958712237731184,-128.18484420355122,-49.56818089392642,-8.522006076442151,-0.0984,-0.8995,-0.4192,-0.0743
203,1345644.0,1306.454111,1.0,0.52,2.35,-9.55,13.19,-16.5,28.25,0.88,-2.75,-1.37,0.0050172863478737395,-0.01677081014032411,-0.041958712237731184,-128.18484420355122,-49.56818089392642,-8.522006076442151,-0.0984,-0.8995,-0.4192,-0.0743
204,1345681.0,1306.4723470000001,1.0,0.34,2.23,-9.26,13.56,-17.25,28.69,1.37,-1.56,-0.88,-0.12524396579095853,0.07414744549816255,0.27696395557235404,-128.1586232989387,-49.59342555885964,-8.453062112264227,-0.0984,-0.8994,-0.4194,-0.0737
205,1345681.0,1306.4723470000001,1.0,0.34,2.23,-9.26,13.56,-17.25,28.69,1.37,-1.56,-0.88,-0.12524396579095853,0.07414744549816255,0.27696395557235404,-128.1586232989387,-49.59342555885964,-8.453062112264227,-0.0984,-0.8994,-0.4194,-0.0737
206,1345718.0,1306.476117,1.0,0.33,2.33,-9.31,13.56,-17.69,27.06,-1.44,-0.06,0.5,-0.06735015535511152,0.1321611038178241,0.2049888208492128,-128.1586232989387,-49.59342555885964,-8.430081473298436,-0.0987,-0.8994,-0.4194,-0.0735
207,1345718.0,1306.476117,1.0,0.33,2.33,-9.31,13.56,-17.69,27.06,-1.44,-0.06,0.5,-0.06735015535511152,0.1321611038178241,0.2049888208492128,-128.1586232989387,-49.59342555885964,-8.430081473298436,-0.0987,-0.8994,-0.4194,-0.0735
208,1345751.0,1306.514105,1.0,0.51,2.43,-9.54,13.56,-17.69,27.06,0.12,2.38,0.5,0.06545757892747894,0.03519600256029532,-0.050889071531225134,-128.1586232989387,-49.58080290531658,-8.476043091817116,-0.0986,-0.8994,-0.4193,-0.0739
209,1345751.0,1306.514105,1.0,0.51,2.43,-9.54,13.56,-17.69,27.06,0.12,2.38,0.5,0.06545757892747894,0.03519600256029532,-0.050889071531225134,-128.1586232989387,-49.58080290531658,-8.476043091817116,-0.0986,-0.8994,-0.4193,-0.0739
210,1345787.0,1306.571042,1.0,0.53,2.53,-9.53,14.0,-17.25,27.5,0.5,0.69,-0.19,0.1472376293694455,0.08716251991424229,-0.06621299791604862,-128.1586232989387,-49.58080290531658,-8.522006076442151,-0.0986,-0.8994,-0.4193,-0.0743
211,1345787.0,1306.571042,1.0,0.53,2.53,-9.53,14.0,-17.25,27.5,0.5,0.69,-0.19,0.1472376293694455,0.08716251991424229,-0.06621299791604862,-128.1586232989387,-49.58080290531658,-8.522006076442151,-0.0986,-0.8994,-0.4193,-0.0743
212,1345822.0,1306.59342,1.0,0.53,2.45,-9.58,13.19,-16.87,27.5,-0.19,0.12,-0.5,0.0773347459244012,0.03532384118214171,-0.09549984552935342,-128.1586232989387,-49.59342555885964,-8.533497036933403,-0.0984,-0.8994,-0.4194,-0.0744
213,1345822.0,1306.59342,1.0,0.53,2.45,-9.58,13.19,-16.87,27.5,-0.19,0.12,-0.5,0.0773347459244012,0.03532384118214171,-0.09549984552935342,-128.1586232989387,-49.59342555885964,-8.533497036933403,-0.0984,-0.8994,-0.4194,-0.0744
214,1345859.0,1306.597211,1.0,0.59,2.42,-9.7,13.19,-16.87,27.5,1.12,-1.63,-0.31,0.06775629267861466,-0.04839900600681668,-0.2077180090667685,-128.1324147334415,-49.618672793409424,-8.522006076442151,-0.0986,-0.8993,-0.4196,-0.0743
215,1345859.0,1306.597211,1.0,0.59,2.42,-9.7,13.19,-16.87,27.5,1.12,-1.63,-0.31,0.06775629267861466,-0.04839900600681668,-0.2077180090667685,-128.1324147334415,-49.618672793409424,-8.522006076442151,-0.0986,-0.8993,-0.4196,-0.0743
216,1345892.0,1306.647704,1.0,0.43,2.28,-9.58,14.25,-16.5,27.06,0.69,-1.94,-1.31,-0.09905400474717196,-0.009803429774725814,-0.04980941486638635,-128.1324147334415,-49.631297374918816,-8.430081473298436,-0.0988,-0.8993,-0.4197,-0.0735
217,1345892.0,1306.647704,1.0,0.43,2.28,-9.58,14.25,-16.5,27.06,0.69,-1.94,-1.31,-0.09905400474717196,-0.009803429774725814,-0.04980941486638635,-128.1324147334415,-49.631297374918816,-8.430081473298436,-0.0988,-0.8993,-0.4197,-0.0735
