,TIME,ELAPSED_SECONDS,PSTATE,acc_x,acc_y,acc_z,mag_x,mag_y,mag_z,gyr_x,gyr_y,gyr_z,lin_x,lin_y,lin_z,eul_x,eul_y,eul_z,qua_w,qua_x,qua_y,qua_z
0,1150455.0,1110.857175,1.0,2.2,1.72,-9.41,-11.5,-16.0,32.88,-2.81,1.06,0.25,-0.04171813663505716,-0.019576897614314914,-0.008867120465714251,-149.24516700325162,-25.570799441600013,-15.170359975770204,-0.0624,-0.9642,-0.2213,-0.132
1,1150455.0,1110.857175,1.0,2.2,1.72,-9.41,-11.5,-16.0,32.88,-2.81,1.06,0.25,-0.04171813663505716,-0.019576897614314914,-0.008867120465714251,-149.24516700325162,-25.570799441600013,-15.170359975770204,-0.0624,-0.9642,-0.2213,-0.132
2,1150490.0,1110.867254,1.0,2.36,1.73,-9.66,-11.06,-15.19,32.06,-1.12,1.94,0.06,0.013409725269839941,-0.09942305339492784,-0.2863195945109158,-149.20198320614296,-25.570799441600013,-15.262847451308847,-0.0627,-0.9641,-0.2213,-0.1328
3,1150490.0,1110.867254,1.0,2.36,1.73,-9.66,-11.06,-15.19,32.06,-1.12,1.94,0.06,0.013409725269839941,-0.09942305339492784,-0.2863195945109158,-149.20198320614296,-25.570799441600013,-15.262847451308847,-0.0627,-0.9641,-0.2213,-0.1328
4,1150525.0,1110.936976,1.0,2.4,1.87,-9.67,-10.75,-16.5,33.56,-2.31,0.56,1.12,0.09162830151652232,-0.001361399191377788,-0.3302825932923845,-149.20198320614296,-25.523799625853453,-15.309094936163461,-0.0633,-0.9641,-0.2209,-0.1332
5,1150525.0,1110.936976,1.0,2.4,1.87,-9.67,-10.75,-16.5,33.56,-2.31,0.56,1.12,0.09162830151652232,-0.001361399191377788,-0.3302825932923845,-149.20198320614296,-25.523799625853453,-15.309094936163461,-0.0633,-0.9641,-0.2209,-0.1332
6,1150562.0,1110.954635,1.0,2.25,1.87,-9.42,-11.5,-15.56,33.69,-1.5,-0.94,-0.12,0.03703681034395337,0.074118553187552,-0.05686533251471815,-149.20198320614296,-25.512050354420897,-15.274409087771584,-0.0636,-0.9641,-0.2208,-0.1329
7,1150562.0,1110.954635,1.0,2.25,1.87,-9.42,-11.5,-15.56,33.69,-1.5,-0.94,-0.12,0.03703681034395337,0.074118553187552,-0.05686533251471815,-149.20198320614296,-25.512050354420897,-15.274409087771584,-0.0636,-0.9641,-0.2208,-0.1329
8,1150597.0,1110.994547,1.0,2.24,1.83,-9.47,-11.5,-15.56,33.69,-0.37,-0.63,0.25,-0.0011749030121807336,0.03531577785570872,-0.09517566072728913,-149.20198320614296,-25.512050354420897,-15.262847451308847,-0.0638,-0.9641,-0.2208,-0.1328
9,1150597.0,1110.994547,1.0,2.24,1.83,-9.47,-11.5,-15.56,33.69,-0.37,-0.63,0.25,-0.0011749030121807336,0.03531577785570872,-0.09517566072728913,-149.20198320614296,-25.512050354420897,-15.262847451308847,-0.0638,-0.9641,-0.2208,-0.1328
10,1150633.0,1111.047256,1.0,2.23,1.75,-9.54,-11.06,-15.88,32.06,0.37,-0.56,-0.44,-0.062450648795412574,-0.03631140089692453,-0.14532374386759273,-149.20198320614296,-25.512050354420897,-15.262847451308847,-0.0638,-0.9641,-0.2208,-0.1328
11,1150633.0,1111.047256,1.0,2.23,1.75,-9.54,-11.06,-15.88,32.06,0.37,-0.56,-0.44,-0.062450648795412574,-0.03631140089692453,-0.14532374386759273,-149.20198320614296,-25.512050354420897,-15.262847451308847,-0.0638,-0.9641,-0.2208,-0.1328
12,1150668.0,1111.065315,1.0,2.21,1.77,-9.4,-12.19,-15.5,33.25,0.31,-0.69,-0.25,-0.027776356124366908,-0.001301054583744965,-0.010489439841803616,-149.24516700325162,-25.512050354420897,-15.239724647140953,-0.0638,-0.9642,-0.2208,-0.1326
13,1150668.0,1111.065315,1.0,2.21,1.77,-9.4,-12.19,-15.5,33.25,0.31,-0.69,-0.25,-0.027776356124366908,-0.001301054583744965,-0.010489439841803616,-149.24516700325162,-25.512050354420897,-15.239724647140953,-0.0638,-0.9642,-0.2208,-0.1326
14,1150703.0,1111.104237,1.0,2.22,1.77,-9.36,-12.19,-15.5,33.25,-0.19,0.88,0.0,-0.007748744539827657,-0.00314896732833847,0.02550333711007013,-149.24516700325162,-25.512050354420897,-15.239724647140953,-0.0638,-0.9642,-0.2208,-0.1326
15,1150703.0,1111.104237,1.0,2.22,1.77,-9.36,-12.19,-15.5,33.25,-0.19,0.88,0.0,-0.007748744539827657,-0.00314896732833847,0.02550333711007013,-149.24516700325162,-25.512050354420897,-15.239724647140953,-0.0638,-0.9642,-0.2208,-0.1326
16,1150738.0,1111.168355,1.0,2.23,1.75,-9.5,-10.69,-15.88,32.06,-0.25,1.56,0.0,-0.05637956590140284,-0.030507807509839505,-0.10704207804184662,-149.20198320614296,-25.512050354420897,-15.29753283007483,-0.0637,-0.9641,-0.2208,-0.1331
17,1150738.0,1111.168355,1.0,2.23,1.75,-9.5,-10.69,-15.88,32.06,-0.25,1.56,0.0,-0.05637956590140284,-0.030507807509839505,-0.10704207804184662,-149.20198320614296,-25.512050354420897,-15.29753283007483,-0.0637,-0.9641,-0.2208,-0.1331
18,1150773.0,1111.187016,1.0,2.2,1.76,-9.22,-11.5,-15.06,33.25,-1.12,2.19,0.12,-0.005878113219575931,0.011097203546980516,0.16580759386875954,-149.20198320614296,-25.523799625853453,-15.343782195666375,-0.0637,-0.9641,-0.2209,-0.1335
19,1150773.0,1111.187016,1.0,2.2,1.76,-9.22,-11.5,-15.06,33.25,-1.12,2.19,0.12,-0.005878113219575931,0.011097203546980516,0.16580759386875954,-149.20198320614296,-25.523799625853453,-15.343782195666375,-0.0637,-0.9641,-0.2209,-0.1335
20,1150810.0,1111.190411,1.0,2.29,1.84,-9.4,-11.5,-15.5,32.0,-1.25,2.19,-0.19,0.030606174367907107,0.030396067967349838,-0.04159041852871859,-149.11579237958978,-25.512050354420897,-15.470980940849387,-0.064,-0.9639,-0.2208,-0.1346
21,1150810.0,1111.190411,1.0,2.29,1.84,-9.4,-11.5,-15.5,32.0,-1.25,2.19,-0.19,0.030606174367907107,0.030396067967349838,-0.04159041852871859,-149.11579237958978,-25.512050354420897,-15.470980940849387,-0.064,-0.9639,-0.2208,-0.1346
22,1150844.0,1111.301827,1.0,2.32,1.66,-9.39,-11.5,-15.5,32.0,0.44,2.31,-0.06,-0.02325028156054221,-0.1395515772445144,-0.0061011321594151005,-149.07278485727542,-25.523799625853453,-15.52880488350912,-0.0639,-0.9638,-0.2209,-0.1351
23,1150844.0,1111.301827,1.0,2.32,1.66,-9.39,-11.5,-15.5,32.0,0.44,2.31,-0.06,-0.02325028156054221,-0.1395515772445144,-0.0061011321594151005,-149.07278485727542,-25.523799625853453,-15.52880488350912,-0.0639,-0.9638,-0.2209,-0.1351
24,1150881.0,1111.308665,1.0,2.28,1.78,-9.47,-11.06,-16.37,33.19,-2.38,3.13,-0.56,-0.059613777955763725,-0.02344390015850728,-0.0950466516361832,-148.98694437514695,-25.512050354420897,-15.679165793853409,-0.0644,-0.9636,-0.2208,-0.1364
25,1150881.0,1111.308665,1.0,2.28,1.78,-9.47,-11.06,-16.37,33.19,-2.38,3.13,-0.56,-0.059613777955763725,-0.02344390015850728,-0.0950466516361832,-148.98694437514695,-25.512050354420897,-15.679165793853409,-0.0644,-0.9636,-0.2208,-0.1364
26,1150916.0,1111.408567,1.0,2.3,1.63,-9.33,-11.06,-16.25,33.56,0.31,4.44,0.88,-0.07905786507424206,-0.14997479825716464,0.06154572072942521,-148.94411093259438,-25.512050354420897,-15.7832777083714,-0.0642,-0.9635,-0.2208,-0.1373
27,1150916.0,1111.408567,1.0,2.3,1.63,-9.33,-11.06,-16.25,33.56,0.31,4.44,0.88,-0.07905786507424206,-0.14997479825716464,0.06154572072942521,-148.94411093259438,-25.512050354420897,-15.7832777083714,-0.0642,-0.9635,-0.2208,-0.1373
28,1150951.0,1111.451143,1.0,2.35,1.78,-9.4,-11.06,-16.25,33.56,-5.19,6.75,1.56,-0.040815331506068135,-0.04353197661467911,-0.04461078609870661,-148.8159549371668,-25.46505599443148,-16.03782888845279,-0.0648,-0.9632,-0.2204,-0.1395
29,1150951.0,1111.451143,1.0,2.35,1.78,-9.4,-11.06,-16.25,33.56,-5.19,6.75,1.56,-0.040815331506068135,-0.04353197661467911,-0.04461078609870661,-148.8159549371668,-25.46505599443148,-16.03782888845279,-0.0648,-0.9632,-0.2204,-0.1395
30,1150986.0,1111.458366,1.0,2.55,1.88,-9.62,-11.38,-15.5,32.75,-2.44,3.31,1.06,0.07031468036075794,-0.05974746945849953,-0.32117237628697204,-148.73080219796103,-25.418065988790868,-16.234582036054892,-0.0654,-0.963,-0.22,-0.1412
31,1150986.0,1111.458366,1.0,2.55,1.88,-9.62,-11.38,-15.5,32.75,-2.44,3.31,1.06,0.07031468036075794,-0.05974746945849953,-0.32117237628697204,-148.73080219796103,-25.418065988790868,-16.234582036054892,-0.0654,-0.963,-0.22,-0.1412
32,1151023.0,1111.470209,1.0,2.38,1.75,-9.41,-11.38,-15.88,33.19,-0.63,1.75,0.81,-0.07369451308832553,-0.08546838435209325,-0.05551326543101531,-148.73080219796103,-25.40631916668005,-16.2808838756779,-0.0654,-0.963,-0.2199,-0.1416
33,1151023.0,1111.470209,1.0,2.38,1.75,-9.41,-11.38,-15.88,33.19,-0.63,1.75,0.81,-0.07369451308832553,-0.08546838435209325,-0.05551326543101531,-148.73080219796103,-25.40631916668005,-16.2808838756779,-0.0654,-0.963,-0.2199,-0.1416
34,1151055.0,1111.472988,1.0,2.44,1.85,-9.42,-11.38,-15.88,33.19,-2.88,3.19,0.81,-0.0002958844579181996,-0.026736131574234046,-0.09848932722406722,-148.68831050830863,-25.35933459116607,-16.361918539628213,-0.0658,-0.9629,-0.2195,-0.1423
35,1151055.0,1111.472988,1.0,2.44,1.85,-9.42,-11.38,-15.88,33.19,-2.88,3.19,0.81,-0.0002958844579181996,-0.026736131574234046,-0.09848932722406722,-148.68831050830863,-25.35933459116607,-16.361918539628213,-0.0658,-0.9629,-0.2195,-0.1423
36,1151090.0,1111.511424,1.0,2.42,1.76,-9.43,-11.38,-15.88,33.56,-0.81,-0.06,1.12,-0.07432383129566845,-0.10310223506914228,-0.08591012856253677,-148.6458749656724,-25.34758912480893,-16.454539675361616,-0.0662,-0.9628,-0.2194,-0.1431
37,1151090.0,1111.511424,1.0,2.42,1.76,-9.43,-11.38,-15.88,33.56,-0.81,-0.06,1.12,-0.07432383129566845,-0.10310223506914228,-0.08591012856253677,-148.6458749656724,-25.34758912480893,-16.454539675361616,-0.0662,-0.9628,-0.2194,-0.1431
38,1151125.0,1111.527305,1.0,2.16,1.49,-9.03,-11.69,-15.0,32.0,-0.44,0.19,0.75,-0.28822994512059497,-0.20485633718041407,0.4097591642047451,-148.6458749656724,-25.312354349514575,-16.466118077182387,-0.0663,-0.9628,-0.2191,-0.1432
39,1151125.0,1111.527305,1.0,2.16,1.49,-9.03,-11.69,-15.0,32.0,-0.44,0.19,0.75,-0.28822994512059497,-0.20485633718041407,0.4097591642047451,-148.6458749656724,-25.312354349514575,-16.466118077182387,-0.0663,-0.9628,-0.2191,-0.1432
40,1151162.0,1111.570666,1.0,2.14,1.27,-8.79,-10.88,-15.75,32.0,-2.38,4.06,3.0,-0.3333249195147345,-0.37327234984813706,0.6849088147399556,-148.68831050830863,-25.241892093139462,-16.5471716366683,-0.0663,-0.9629,-0.2185,-0.1439
41,1151162.0,1111.570666,1.0,2.14,1.27,-8.79,-10.88,-15.75,32.0,-2.38,4.06,3.0,-0.3333249195147345,-0.37327234984813706,0.6849088147399556,-148.68831050830863,-25.241892093139462,-16.5471716366683,-0.0663,-0.9629,-0.2185,-0.1439
42,1151197.0,1111.58778,1.0,1.91,0.9,-8.53,-10.88,-15.75,32.0,-3.0,6.81,3.94,-0.6412201633953544,-0.5811748252207011,1.0619331649855628,-148.6458749656724,-25.0892571067724,-16.813549410004512,-0.0666,-0.9628,-0.2172,-0.1462
43,1151197.0,1111.58778,1.0,1.91,0.9,-8.53,-10.88,-15.75,32.0,-3.0,6.81,3.94,-0.6412201633953544,-0.5811748252207011,1.0619331649855628,-148.6458749656724,-25.0892571067724,-16.813549410004512,-0.0666,-0.9628,-0.2172,-0.1462
44,1151234.0,1111.675941,1.0,1.36,0.05,-7.6,-12.06,-16.25,32.25,-2.56,9.38,6.63,-1.199334469534248,-1.0391269802114302,2.2505986536165117,-148.6458749656724,-24.924931536010146,-17.080018727926856,-0.0669,-0.9628,-0.2158,-0.1485
45,1151234.0,1111.675941,1.0,1.36,0.05,-7.6,-12.06,-16.25,32.25,-2.56,9.38,6.63,-1.199334469534248,-1.0391269802114302,2.2505986536165117,-148.6458749656724,-24.924931536010146,-17.080018727926856,-0.0669,-0.9628,-0.2158,-0.1485
46,1151268.0,1111.68205,1.0,1.25,-0.24,-7.05,-12.5,-16.25,33.19,-5.38,21.12,13.44,-1.3214031436455171,-1.1878657796992167,2.8665153744049547,-148.56117141184754,-24.467440757791284,-17.868391355752113,-0.0663,-0.9626,-0.2119,-0.1553
47,1151268.0,1111.68205,1.0,1.25,-0.24,-7.05,-12.5,-16.25,33.19,-5.38,21.12,13.44,-1.3214031436455171,-1.1878657796992167,2.8665153744049547,-148.56117141184754,-24.467440757791284,-17.868391355752113,-0.0663,-0.9626,-0.2119,-0.1553
48,1151303.0,1111.696005,1.0,2.34,-0.27,-7.64,-12.5,-16.25,33.19,-19.69,39.19,28.25,-0.7254321525515391,-1.6813751529171428,2.0243093631994435,-148.39242814751884,-23.76437852052494,-19.017706136871343,-0.0665,-0.9622,-0.2059,-0.1652
49,1151303.0,1111.696005,1.0,2.34,-0.27,-7.64,-12.5,-16.25,33.19,-19.69,39.19,28.25,-0.7254321525515391,-1.6813751529171428,2.0243093631994435,-148.39242814751884,-23.76437852052494,-19.017706136871343,-0.0665,-0.9622,-0.2059,-0.1652
50,1151338.0,1111.737794,1.0,2.68,0.12,-7.74,-13.88,-17.0,31.56,-27.44,42.63,33.75,-0.5728555255116663,-1.4652549946804492,1.7674171791734548,-148.0575479662478,-22.44271531767953,-20.92593832998922,-0.0706,-0.9614,-0.1946,-0.1816
51,1151338.0,1111.737794,1.0,2.68,0.12,-7.74,-13.88,-17.0,31.56,-27.44,42.63,33.75,-0.5728555255116663,-1.4652549946804492,1.7674171791734548,-148.0575479662478,-22.44271531767953,-20.92593832998922,-0.0706,-0.9614,-0.1946,-0.1816
52,1151375.0,1111.754387,1.0,3.19,0.08,-7.65,-14.0,-18.25,33.56,-33.0,47.38,41.06,-0.3198490467529174,-1.6843323638314385,1.6970432847861687,-147.6436957459843,-21.275624852029367,-22.501130743263236,-0.0739,-0.9604,-0.1846,-0.1951
53,1151375.0,1111.754387,1.0,3.19,0.08,-7.65,-14.0,-18.25,33.56,-33.0,47.38,41.06,-0.3198490467529174,-1.6843323638314385,1.6970432847861687,-147.6436957459843,-21.275624852029367,-22.501130743263236,-0.0739,-0.9604,-0.1846,-0.1951
54,1151412.0,1111.808537,1.0,3.64,0.23,-7.58,-15.88,-18.25,32.5,-33.19,53.19,52.06,-0.15462462632004054,-1.6729911785940763,1.564314667020529,-147.0728095954594,-19.30823806837105,-24.79585513058625,-0.0784,-0.9590000000000001,-0.1677,-0.2147
55,1151412.0,1111.808537,1.0,3.64,0.23,-7.58,-15.88,-18.25,32.5,-33.19,53.19,52.06,-0.15462462632004054,-1.6729911785940763,1.564314667020529,-147.0728095954594,-19.30823806837105,-24.79585513058625,-0.0784,-0.9590000000000001,-0.1677,-0.2147
56,1151447.0,1111.893871,1.0,4.3,0.55,-7.73,-15.88,-18.25,32.5,-39.38,54.06,56.25,0.08730109354587745,-1.5696809604692703,1.0846158220455244,-146.19464572787078,-17.068431181009654,-27.277569433768978,-0.0837,-0.9568,-0.1484,-0.2358
57,1151447.0,1111.893871,1.0,4.3,0.55,-7.73,-15.88,-18.25,32.5,-39.38,54.06,56.25,0.08730109354587745,-1.5696809604692703,1.0846158220455244,-146.19464572787078,-17.068431181009654,-27.277569433768978,-0.0837,-0.9568,-0.1484,-0.2358
58,1151483.0,1111.9049890000001,1.0,4.95,0.75,-8.14,-16.19,-20.19,31.69,-38.06,49.13,55.63,0.22706894292402216,-1.5910191945930159,0.3863688143030455,-145.41510886588998,-15.35534492966006,-29.002366759572602,-0.0879,-0.9548,-0.1336,-0.2504
59,1151483.0,1111.9049890000001,1.0,4.95,0.75,-8.14,-16.19,-20.19,31.69,-38.06,49.13,55.63,0.22706894292402216,-1.5910191945930159,0.3863688143030455,-145.41510886588998,-15.35534492966006,-29.002366759572602,-0.0879,-0.9548,-0.1336,-0.2504
60,1151520.0,1111.908307,1.0,5.35,0.85,-7.7,-17.5,-21.5,33.0,-43.94,17.0,51.0,0.587452313821362,-1.5506462315801448,0.5392125956539521,-144.87941908090357,-13.091899903813275,-30.48441543516209,-0.095,-0.9534,-0.114,-0.2629
61,1151520.0,1111.908307,1.0,5.35,0.85,-7.7,-17.5,-21.5,33.0,-43.94,17.0,51.0,0.587452313821362,-1.5506462315801448,0.5392125956539521,-144.87941908090357,-13.091899903813275,-30.48441543516209,-0.095,-0.9534,-0.114,-0.2629
62,1151555.0,1111.9669900000001,1.0,4.54,0.98,-5.63,-17.5,-21.5,33.0,-55.44,34.5,41.13,0.8830593918133531,-0.9931375220029112,2.630105986833204,-144.1648201843402,-11.547444362906596,-31.518996754873605,-0.10400000000000001,-0.9515,-0.1006,-0.2716
63,1151555.0,1111.9669900000001,1.0,4.54,0.98,-5.63,-17.5,-21.5,33.0,-55.44,34.5,41.13,0.8830593918133531,-0.9931375220029112,2.630105986833204,-144.1648201843402,-11.547444362906596,-31.518996754873605,-0.10400000000000001,-0.9515,-0.1006,-0.2716
64,1151588.0,1112.00696,1.0,5.6,1.0,-6.07,-15.25,-23.5,32.0,-64.5,65.31,42.63,1.1201907056258156,-1.3637192867189585,1.6770533008973736,-141.5733981273395,-9.476059158737444,-34.411030131340006,-0.1181,-0.9443,-0.0826,-0.2958
65,1151588.0,1112.00696,1.0,5.6,1.0,-6.07,-15.25,-23.5,32.0,-64.5,65.31,42.63,1.1201907056258156,-1.3637192867189585,1.6770533008973736,-141.5733981273395,-9.476059158737444,-34.411030131340006,-0.1181,-0.9443,-0.0826,-0.2958
66,1151625.0,1112.024723,1.0,7.45,2.2,-6.65,-14.88,-25.19,31.0,-72.12,73.31,62.44,1.9081886547834417,-0.7420687298494688,-0.2119901301741205,-139.2059212883253,-7.442222882076424,-36.999437339480345,-0.129,-0.9373,-0.0649,-0.3173
67,1151625.0,1112.024723,1.0,7.45,2.2,-6.65,-14.88,-25.19,31.0,-72.12,73.31,62.44,1.9081886547834417,-0.7420687298494688,-0.2119901301741205,-139.2059212883253,-7.442222882076424,-36.999437339480345,-0.129,-0.9373,-0.0649,-0.3173
68,1151662.0,1112.059639,1.0,7.97,2.91,-6.09,-15.06,-29.56,29.25,-77.25,73.25,63.38,2.0252266129612777,-0.05447706080564752,-0.43896317911228333,-135.91325060474233,-4.516076369343336,-40.265936898659355,-0.1441,-0.9269,-0.0394,-0.3442
69,1151662.0,1112.059639,1.0,7.97,2.91,-6.09,-15.06,-29.56,29.25,-77.25,73.25,63.38,2.0252266129612777,-0.05447706080564752,-0.43896317911228333,-135.91325060474233,-4.516076369343336,-40.265936898659355,-0.1441,-0.9269,-0.0394,-0.3442
70,1151696.0,1112.120434,1.0,8.97,3.71,-5.75,-15.06,-29.56,29.25,-88.0,75.69,64.69,2.2005459962503267,0.5646732979747875,-1.2444242185970733,-132.12822120462246,-1.5011923619341792,-43.628654629122934,-0.1624,-0.914,-0.0131,-0.3716
71,1151696.0,1112.120434,1.0,8.97,3.71,-5.75,-15.06,-29.56,29.25,-88.0,75.69,64.69,2.2005459962503267,0.5646732979747875,-1.2444242185970733,-132.12822120462246,-1.5011923619341792,-43.628654629122934,-0.1624,-0.914,-0.0131,-0.3716
72,1151733.0,1112.1369029999998,1.0,8.98,3.74,-5.65,-14.25,-30.69,24.06,-89.37,66.25,60.38,1.7023090522805835,0.545964409549824,-1.2998601068710391,-129.21728949054742,0.7906880314747026,-45.98367660557063,-0.1766,-0.9034,0.0069,-0.3906
73,1151733.0,1112.1369029999998,1.0,8.98,3.74,-5.65,-14.25,-30.69,24.06,-89.37,66.25,60.38,1.7023090522805835,0.545964409549824,-1.2998601068710391,-129.21728949054742,0.7906880314747026,-45.98367660557063,-0.1766,-0.9034,0.0069,-0.3906
74,1151770.0,1112.173655,1.0,8.14,3.9,-4.18,-14.5,-35.0,17.0,-110.75,55.56,52.25,1.4997156280131043,1.1001513253215809,0.03513424774915564,-125.37071718924679,3.896864048753203,-48.49763058758104,-0.2018,-0.8885,0.034,-0.4107
75,1151770.0,1112.173655,1.0,8.14,3.9,-4.18,-14.5,-35.0,17.0,-110.75,55.56,52.25,1.4997156280131043,1.1001513253215809,0.03513424774915564,-125.37071718924679,3.896864048753203,-48.49763058758104,-0.2018,-0.8885,0.034,-0.4107
76,1151803.0,1112.181963,1.0,8.02,4.18,-3.16,-14.5,-35.0,17.0,-118.75,60.13,55.44,1.5976846074356492,1.6119344374498898,0.4992620063400022,-122.18470178965723,6.328670789467022,-50.33930781936822,-0.2229,-0.8754,0.0552,-0.4253
77,1151803.0,1112.181963,1.0,8.02,4.18,-3.16,-14.5,-35.0,17.0,-118.75,60.13,55.44,1.5976846074356492,1.6119344374498898,0.4992620063400022,-122.18470178965723,6.328670789467022,-50.33930781936822,-0.2229,-0.8754,0.0552,-0.4253
78,1151838.0,1112.306808,1.0,8.17,4.47,-2.97,-11.06,-33.0,8.56,-107.75,64.25,63.06,1.0207384857367676,1.7504491939026992,0.2439767041427583,-117.69645604638977,9.683046840720888,-53.01308485730727,-0.2476,-0.8558,0.0844,-0.4463
79,1151838.0,1112.306808,1.0,8.17,4.47,-2.97,-11.06,-33.0,8.56,-107.75,64.25,63.06,1.0207384857367676,1.7504491939026992,0.2439767041427583,-117.69645604638977,9.683046840720888,-53.01308485730727,-0.2476,-0.8558,0.0844,-0.4463
80,1151875.0,1112.403293,1.0,9.2,5.09,-2.6,-11.0,-31.19,1.37,-98.37,76.0,66.31,1.0085589857582888,2.2636273641673883,-0.7369214977629266,-114.15363047105913,12.134996086138985,-55.291045895672944,-0.2626,-0.8394,0.1057,-0.46399999999999997
81,1151875.0,1112.403293,1.0,9.2,5.09,-2.6,-11.0,-31.19,1.37,-98.37,76.0,66.31,1.0085589857582888,2.2636273641673883,-0.7369214977629266,-114.15363047105913,12.134996086138985,-55.291045895672944,-0.2626,-0.8394,0.1057,-0.46399999999999997
82,1151911.0,1112.449807,1.0,10.06,4.97,-2.82,-12.0,-27.0,-4.06,-91.5,75.37,53.69,0.4970499265960209,1.726492434176457,-1.6226572950727132,-109.45205367310278,14.916070477056891,-58.2740608132382,-0.282,-0.8164,0.1298,-0.4869
83,1151911.0,1112.449807,1.0,10.06,4.97,-2.82,-12.0,-27.0,-4.06,-91.5,75.37,53.69,0.4970499265960209,1.726492434176457,-1.6226572950727132,-109.45205367310278,14.916070477056891,-58.2740608132382,-0.282,-0.8164,0.1298,-0.4869
84,1151946.0,1112.4664189999999,1.0,10.53,4.71,-2.59,-12.0,-27.0,-4.06,-108.19,67.5,50.0,0.4064019399665056,1.3680710556650828,-1.9294617517618635,-105.93613916476913,16.97573712493423,-60.19857784037951,-0.2989,-0.7983,0.1476,-0.5015
85,1151946.0,1112.4664189999999,1.0,10.53,4.71,-2.59,-12.0,-27.0,-4.06,-108.19,67.5,50.0,0.4064019399665056,1.3680710556650828,-1.9294617517618635,-105.93613916476913,16.97573712493423,-60.19857784037951,-0.2989,-0.7983,0.1476,-0.5015
86,1151983.0,1112.469703,1.0,10.78,6.2,-2.22,-17.19,-25.25,-9.0,-118.12,59.38,43.63,-0.8942518140737216,2.2737114002845993,-2.587193236108874,-101.21199312357183,20.05257586733213,-62.182157850572864,-0.3254,-0.7728,0.1741,-0.5164
87,1151983.0,1112.469703,1.0,10.78,6.2,-2.22,-17.19,-25.25,-9.0,-118.12,59.38,43.63,-0.8942518140737216,2.2737114002845993,-2.587193236108874,-101.21199312357183,20.05257586733213,-62.182157850572864,-0.3254,-0.7728,0.1741,-0.5164
88,1152020.0,1112.512679,1.0,10.69,5.58,-2.3,-20.19,-22.75,-13.06,-89.75,50.5,28.87,-1.2358530487729804,1.3215484191978093,-2.3353711257250875,-97.28475700134165,22.279183498407725,-63.673390007198286,-0.3478,-0.7506,0.1932,-0.5275
89,1152020.0,1112.512679,1.0,10.69,5.58,-2.3,-20.19,-22.75,-13.06,-89.75,50.5,28.87,-1.2358530487729804,1.3215484191978093,-2.3353711257250875,-97.28475700134165,22.279183498407725,-63.673390007198286,-0.3478,-0.7506,0.1932,-0.5275
90,1152055.0,1112.528128,1.0,10.04,4.63,-1.55,-20.19,-22.75,-13.06,-96.19,43.88,18.56,-0.6972838160657016,0.9697248878179304,-1.2935494991891634,-94.66514358648428,23.729249451725817,-64.4302992386677,-0.3646,-0.7353,0.2056,-0.5331
91,1152055.0,1112.528128,1.0,10.04,4.63,-1.55,-20.19,-22.75,-13.06,-96.19,43.88,18.56,-0.6972838160657016,0.9697248878179304,-1.2935494991891634,-94.66514358648428,23.729249451725817,-64.4302992386677,-0.3646,-0.7353,0.2056,-0.5331
92,1152088.0,1112.532083,1.0,10.2,4.44,-1.61,-21.06,-22.0,-16.87,-94.81,42.31,16.62,-0.9478208973182488,0.35357004558554594,-1.3880953642086702,-91.15534914020606,25.58255007875368,-65.21757686713724,-0.3879,-0.7142,0.2214,-0.5389
93,1152088.0,1112.532083,1.0,10.2,4.44,-1.61,-21.06,-22.0,-16.87,-94.81,42.31,16.62,-0.9478208973182488,0.35357004558554594,-1.3880953642086702,-91.15534914020606,25.58255007875368,-65.21757686713724,-0.3879,-0.7142,0.2214,-0.5389
94,1152124.0,1112.5356,1.0,10.29,4.71,-1.08,-22.69,-19.75,-19.75,-80.0,30.81,27.06,-1.1053054318788966,0.6810685663401603,-1.4871113535173652,-88.82192034919494,27.041794884833607,-65.72161624355178,-0.4014,-0.6998,0.2338,-0.5426
95,1152124.0,1112.5356,1.0,10.29,4.71,-1.08,-22.69,-19.75,-19.75,-80.0,30.81,27.06,-1.1053054318788966,0.6810685663401603,-1.4871113535173652,-88.82192034919494,27.041794884833607,-65.72161624355178,-0.4014,-0.6998,0.2338,-0.5426
96,1152161.0,1112.574349,1.0,10.39,5.08,-0.86,-24.06,-18.06,-20.0,-65.94,28.06,22.75,-1.6154061425933777,0.7763665537021258,-1.6513523550688929,-86.0943036593405,28.860354735501215,-66.29551072464068,-0.41600000000000004,-0.6826,0.2492,-0.5468
97,1152161.0,1112.574349,1.0,10.39,5.08,-0.86,-24.06,-18.06,-20.0,-65.94,28.06,22.75,-1.6154061425933777,0.7763665537021258,-1.6513523550688929,-86.0943036593405,28.860354735501215,-66.29551072464068,-0.41600000000000004,-0.6826,0.2492,-0.5468
98,1152196.0,1112.634065,1.0,11.23,5.18,-1.42,-24.06,-18.06,-20.0,-64.12,22.69,15.0,-1.9906065448747896,0.04153623048509658,-2.481452389102184,-84.33495776110861,29.950289927892534,-66.59687161580996,-0.4258,-0.6713,0.2584,-0.5489999999999999
99,1152196.0,1112.634065,1.0,11.23,5.18,-1.42,-24.06,-18.06,-20.0,-64.12,22.69,15.0,-1.9906065448747896,0.04153623048509658,-2.481452389102184,-84.33495776110861,29.950289927892534,-66.59687161580996,-0.4258,-0.6713,0.2584,-0.5489999999999999
100,1152233.0,1112.640823,1.0,10.49,5.18,-0.96,-24.69,-17.0,-21.56,-50.88,8.44,1.31,-2.099936923886556,0.29276494756439586,-1.7388536096818044,-82.67603357506403,31.138159380012002,-66.39134200709483,-0.4382,-0.6605,0.2684,-0.5475
101,1152233.0,1112.640823,1.0,10.49,5.18,-0.96,-24.69,-17.0,-21.56,-50.88,8.44,1.31,-2.099936923886556,0.29276494756439586,-1.7388536096818044,-82.67603357506403,31.138159380012002,-66.39134200709483,-0.4382,-0.6605,0.2684,-0.5475
102,1152270.0,1112.657633,1.0,10.47,5.08,-0.99,-27.69,-15.38,-23.0,-39.31,3.63,-4.63,-2.0681801224251224,0.04124073552676322,-1.6880587906975195,-81.65744421958767,31.864439303449732,-65.91270718206279,-0.4486,-0.6538,0.2745,-0.544
103,1152270.0,1112.657633,1.0,10.47,5.08,-0.99,-27.69,-15.38,-23.0,-39.31,3.63,-4.63,-2.0681801224251224,0.04124073552676322,-1.6880587906975195,-81.65744421958767,31.864439303449732,-65.91270718206279,-0.4486,-0.6538,0.2745,-0.544
104,1152303.0,1112.698682,1.0,9.77,4.72,-0.43,-27.69,-15.38,-23.0,-30.25,-4.81,-15.44,-1.5817197866885646,0.3727210134083157,-0.9299901431063038,-81.50608810294752,32.055155405875595,-65.05440942764349,-0.4566,-0.6528,0.2761,-0.5377
105,1152303.0,1112.698682,1.0,9.77,4.72,-0.43,-27.69,-15.38,-23.0,-30.25,-4.81,-15.44,-1.5817197866885646,0.3727210134083157,-0.9299901431063038,-81.50608810294752,32.055155405875595,-65.05440942764349,-0.4566,-0.6528,0.2761,-0.5377
106,1152337.0,1112.753659,1.0,9.38,4.33,-0.21,-27.5,-13.38,-22.25,-19.62,-7.31,-17.12,-1.1588309894977462,0.3839552608098291,-0.4542997170328302,-81.43047462829705,32.222106806155665,-64.22724850843996,-0.4637,-0.6523,0.2775,-0.5316
107,1152337.0,1112.753659,1.0,9.38,4.33,-0.21,-27.5,-13.38,-22.25,-19.62,-7.31,-17.12,-1.1588309894977462,0.3839552608098291,-0.4542997170328302,-81.43047462829705,32.222106806155665,-64.22724850843996,-0.4637,-0.6523,0.2775,-0.5316
108,1152374.0,1112.803794,1.0,8.93,3.93,0.33,-27.69,-14.0,-22.19,1.44,-7.88,-9.5,-0.6442719378017021,0.7629178056843424,0.09575044888059914,-81.62715918884508,32.18632560419117,-63.79482577106735,-0.4655,-0.6536,0.2772,-0.5284
109,1152374.0,1112.803794,1.0,8.93,3.93,0.33,-27.69,-14.0,-22.19,1.44,-7.88,-9.5,-0.6442719378017021,0.7629178056843424,0.09575044888059914,-81.62715918884508,32.18632560419117,-63.79482577106735,-0.4655,-0.6536,0.2772,-0.5284
110,1152411.0,1112.817568,1.0,9.01,3.16,0.08,-27.69,-14.0,-22.19,15.0,-4.69,-6.5,-0.00621103496817077,0.2418858172146925,0.2613080640358927,-82.15815106961863,31.85252256097231,-63.64641513634406,-0.4636,-0.6571,0.2744,-0.5273
111,1152411.0,1112.817568,1.0,9.01,3.16,0.08,-27.69,-14.0,-22.19,15.0,-4.69,-6.5,-0.00621103496817077,0.2418858172146925,0.2613080640358927,-82.15815106961863,31.85252256097231,-63.64641513634406,-0.4636,-0.6571,0.2744,-0.5273
112,1152444.0,1112.8711210000001,1.0,9.05,3.0,0.07,-26.69,-13.69,-22.5,9.31,-1.81,-6.44,0.18097213673495927,0.17023875010436915,0.2753506209180205,-82.46253949499255,31.602352407672466,-63.552034095396465,-0.4628,-0.6591,0.2723,-0.5266
113,1152444.0,1112.8711210000001,1.0,9.05,3.0,0.07,-26.69,-13.69,-22.5,9.31,-1.81,-6.44,0.18097213673495927,0.17023875010436915,0.2753506209180205,-82.46253949499255,31.602352407672466,-63.552034095396465,-0.4628,-0.6591,0.2723,-0.5266
114,1152481.0,1112.875059,1.0,9.01,2.75,0.04,-27.19,-13.25,-21.87,11.44,-0.06,-2.94,0.4032332664886622,0.05208153783215419,0.3950140929850043,-82.81346469014701,31.24523405697452,-63.59247721166836,-0.4609,-0.6614,0.2693,-0.5269
115,1152481.0,1112.875059,1.0,9.01,2.75,0.04,-27.19,-13.25,-21.87,11.44,-0.06,-2.94,0.4032332664886622,0.05208153783215419,0.3950140929850043,-82.81346469014701,31.24523405697452,-63.59247721166836,-0.4609,-0.6614,0.2693,-0.5269
116,1152516.0,1112.949272,1.0,9.04,2.64,0.09,-27.5,-12.19,-21.5,7.19,3.63,1.88,0.5256632843680049,0.045212337749729985,0.4034093907215883,-82.90516622575332,31.06679175207397,-63.74084444335865,-0.4595,-0.662,0.2678,-0.528
117,1152516.0,1112.949272,1.0,9.04,2.64,0.09,-27.5,-12.19,-21.5,7.19,3.63,1.88,0.5256632843680049,0.045212337749729985,0.4034093907215883,-82.90516622575332,31.06679175207397,-63.74084444335865,-0.4595,-0.662,0.2678,-0.528
118,1152550.0,1112.970959,1.0,9.14,2.88,0.0,-27.5,-12.19,-21.5,7.63,6.63,4.75,0.2679323308714312,0.04567233356876455,0.2274993954829068,-82.79818739316053,30.94787313807167,-64.14609145323304,-0.4577,-0.6613,0.2668,-0.531
119,1152550.0,1112.970959,1.0,9.14,2.88,0.0,-27.5,-12.19,-21.5,7.63,6.63,4.75,0.2679323308714312,0.04567233356876455,0.2274993954829068,-82.79818739316053,30.94787313807167,-64.14609145323304,-0.4577,-0.6613,0.2668,-0.531
120,1152585.0,1113.0253,1.0,9.52,2.89,-0.46,-27.25,-14.56,-20.75,3.63,5.69,3.69,0.1295420115613648,-0.4201595411472021,-0.1432638100399437,-82.72182782084748,30.84087559172584,-64.41675547774169,-0.4566,-0.6608,0.2659,-0.5329999999999999
121,1152585.0,1113.0253,1.0,9.52,2.89,-0.46,-27.25,-14.56,-20.75,3.63,5.69,3.69,0.1295420115613648,-0.4201595411472021,-0.1432638100399437,-82.72182782084748,30.84087559172584,-64.41675547774169,-0.4566,-0.6608,0.2659,-0.5329999999999999
122,1152622.0,1113.045948,1.0,9.45,3.13,-0.08,-26.25,-14.06,-20.69,1.81,3.0,2.75,0.05869978680226251,0.027014460424914063,-0.14832988716990236,-82.63025542276526,30.84087559172584,-64.57934727558172,-0.4561,-0.6602,0.2659,-0.5342
123,1152622.0,1113.045948,1.0,9.45,3.13,-0.08,-26.25,-14.06,-20.69,1.81,3.0,2.75,0.05869978680226251,0.027014460424914063,-0.14832988716990236,-82.63025542276526,30.84087559172584,-64.57934727558172,-0.4561,-0.6602,0.2659,-0.5342
124,1152657.0,1113.050127,1.0,9.64,3.31,-0.39,-26.25,-14.06,-20.69,1.12,4.75,1.69,-0.20180415176276176,-0.20478992725983255,-0.3891891596780415,-82.53874730166079,30.817102104618424,-64.7285179210035,-0.4559,-0.6596,0.2657,-0.5353
125,1152657.0,1113.050127,1.0,9.64,3.31,-0.39,-26.25,-14.06,-20.69,1.12,4.75,1.69,-0.20180415176276176,-0.20478992725983255,-0.3891891596780415,-82.53874730166079,30.817102104618424,-64.7285179210035,-0.4559,-0.6596,0.2657,-0.5353
126,1152690.0,1113.092355,1.0,9.72,3.04,-0.65,-26.69,-13.75,-19.5,-3.63,-3.5,-2.94,-0.06812363726043125,-0.5675382372139688,-0.3823518902415781,-82.55399419971695,30.781444422149058,-64.71495187215974,-0.4559,-0.6597,0.2654,-0.5352
127,1152690.0,1113.092355,1.0,9.72,3.04,-0.65,-26.69,-13.75,-19.5,-3.63,-3.5,-2.94,-0.06812363726043125,-0.5675382372139688,-0.3823518902415781,-82.55399419971695,30.781444422149058,-64.71495187215974,-0.4559,-0.6597,0.2654,-0.5352
128,1152727.0,1113.165046,1.0,9.32,3.32,-0.16,-27.06,-13.25,-20.69,-7.0,-3.44,-2.56,-0.17410470094502628,0.04402287714635599,-0.0866886447344779,-82.53874730166079,30.888426648702456,-64.52513383249247,-0.4572,-0.6596,0.2663,-0.5338
129,1152727.0,1113.165046,1.0,9.32,3.32,-0.16,-27.06,-13.25,-20.69,-7.0,-3.44,-2.56,-0.17410470094502628,0.04402287714635599,-0.0866886447344779,-82.53874730166079,30.888426648702456,-64.52513383249247,-0.4572,-0.6596,0.2663,-0.5338
130,1152763.0,1113.264363,1.0,9.17,3.17,0.04,-26.69,-14.38,-20.25,-5.75,-1.56,-2.69,0.02118480084433183,0.17211393094530392,0.1056537625516114,-82.53874730166079,30.95976345993856,-64.32197736057384,-0.4586,-0.6596,0.2669,-0.5323
131,1152763.0,1113.264363,1.0,9.17,3.17,0.04,-26.69,-14.38,-20.25,-5.75,-1.56,-2.69,0.02118480084433183,0.17211393094530392,0.1056537625516114,-82.53874730166079,30.95976345993856,-64.32197736057384,-0.4586,-0.6596,0.2669,-0.5323
132,1152796.0,1113.39153,1.0,9.25,3.46,-0.13,-26.69,-14.38,-20.25,-7.06,0.25,-2.13,-0.2715637057778641,0.12196644404836655,-0.0656535478165079,-82.43206880803427,31.04300528938303,-64.20019215099853,-0.4601,-0.6589,0.2676,-0.5314
133,1152796.0,1113.39153,1.0,9.25,3.46,-0.13,-26.69,-14.38,-20.25,-7.06,0.25,-2.13,-0.2715637057778641,0.12196644404836655,-0.0656535478165079,-82.43206880803427,31.04300528938303,-64.20019215099853,-0.4601,-0.6589,0.2676,-0.5314
134,1152833.0,1113.466128,1.0,9.36,3.24,-0.24,-27.06,-13.25,-21.0,-2.38,-0.69,-1.75,-0.08868361315828421,-0.10045528548518944,-0.1002588999735572,-82.41683612578922,31.031112572318907,-64.10552643195383,-0.4613,-0.6588,0.2675,-0.5307
135,1152833.0,1113.466128,1.0,9.36,3.24,-0.24,-27.06,-13.25,-21.0,-2.38,-0.69,-1.75,-0.08868361315828421,-0.10045528548518944,-0.1002588999735572,-82.41683612578922,31.031112572318907,-64.10552643195383,-0.4613,-0.6588,0.2675,-0.5307
136,1152868.0,1113.469919,1.0,9.44,3.51,-0.17,-26.37,-14.0,-21.06,-4.06,-1.37,-1.12,-0.2547535323104901,0.061206155745339164,-0.2628065118617098,-82.37114871332962,31.09057958723377,-64.0109096555285,-0.4622,-0.6585,0.268,-0.53
137,1152868.0,1113.469919,1.0,9.44,3.51,-0.17,-26.37,-14.0,-21.06,-4.06,-1.37,-1.12,-0.2547535323104901,0.061206155745339164,-0.2628065118617098,-82.37114871332962,31.09057958723377,-64.0109096555285,-0.4622,-0.6585,0.268,-0.53
138,1152903.0,1113.515999,1.0,9.34,3.29,-0.07,-26.37,-14.0,-21.06,1.81,-1.31,-1.19,-0.03685765052987078,0.07532384324198782,-0.09575212434521596,-82.46253949499255,31.054898349248795,-63.929848409462785,-0.4622,-0.6591,0.2677,-0.5294
139,1152903.0,1113.515999,1.0,9.34,3.29,-0.07,-26.37,-14.0,-21.06,1.81,-1.31,-1.19,-0.03685765052987078,0.07532384324198782,-0.09575212434521596,-82.46253949499255,31.054898349248795,-63.929848409462785,-0.4622,-0.6591,0.2677,-0.5294
140,1152937.0,1113.5336,1.0,9.34,3.23,-0.24,-27.5,-14.0,-21.5,3.13,-1.88,-0.81,-0.05397551250992638,-0.09576263863576416,-0.07839001818357794,-82.53874730166079,31.019220197898697,-63.9028359466197,-0.4619,-0.6596,0.2674,-0.5292
141,1152937.0,1113.5336,1.0,9.34,3.23,-0.24,-27.5,-14.0,-21.5,3.13,-1.88,-0.81,-0.05397551250992638,-0.09576263863576416,-0.07839001818357794,-82.53874730166079,31.019220197898697,-63.9028359466197,-0.4619,-0.6596,0.2674,-0.5292
142,1152972.0,1113.536412,1.0,9.17,2.77,-0.23,-27.06,-13.69,-20.19,4.06,-1.19,-1.63,0.305062664482324,-0.24641092284866686,0.23267911912513384,-82.73709614997145,30.91220422108664,-63.8758274546073,-0.4609,-0.6609,0.2665,-0.529
143,1152972.0,1113.536412,1.0,9.17,2.77,-0.23,-27.06,-13.69,-20.19,4.06,-1.19,-1.63,0.305062664482324,-0.24641092284866686,0.23267911912513384,-82.73709614997145,30.91220422108664,-63.8758274546073,-0.4609,-0.6609,0.2665,-0.529
144,1153007.0,1113.575599,1.0,9.01,3.04,0.01,-27.06,-13.69,-20.19,-3.13,-0.94,0.25,0.1427319601350503,0.10872929402096854,0.29930517990550065,-82.73709614997145,30.94787313807167,-63.82182237007654,-0.4611,-0.6609,0.2668,-0.5286
145,1153007.0,1113.575599,1.0,9.01,3.04,0.01,-27.06,-13.69,-20.19,-3.13,-0.94,0.25,0.1427319601350503,0.10872929402096854,0.29930517990550065,-82.73709614997145,30.94787313807167,-63.82182237007654,-0.4611,-0.6609,0.2668,-0.5286
146,1153042.0,1113.583358,1.0,9.04,3.15,-0.14,-27.06,-14.75,-21.37,0.0,2.69,2.88,-0.028855040289907482,0.014448676294180453,0.23258823800978054,-82.64551302019812,30.99543647635929,-63.929848409462785,-0.461,-0.6603,0.2672,-0.5294
147,1153042.0,1113.583358,1.0,9.04,3.15,-0.14,-27.06,-14.75,-21.37,0.0,2.69,2.88,-0.028855040289907482,0.014448676294180453,0.23258823800978054,-82.64551302019812,30.99543647635929,-63.929848409462785,-0.461,-0.6603,0.2672,-0.5294
148,1153077.0,1113.601926,1.0,9.41,3.18,-0.34,-27.5,-12.88,-19.75,-0.19,3.56,3.38,-0.05605882963835862,-0.2084143681934314,-0.1296229863239038,-82.53874730166079,31.00732816596471,-64.05145371860036,-0.4608,-0.6596,0.2673,-0.5303
149,1153077.0,1113.601926,1.0,9.41,3.18,-0.34,-27.5,-12.88,-19.75,-0.19,3.56,3.38,-0.05605882963835862,-0.2084143681934314,-0.1296229863239038,-82.53874730166079,31.00732816596471,-64.05145371860036,-0.4608,-0.6596,0.2673,-0.5303
150,1153114.0,1113.605499,1.0,9.39,3.5,-0.47,-27.87,-14.38,-21.37,-9.31,-1.69,1.19,-0.411754052713968,-0.1902798632430132,-0.21518876210936888,-82.35592311764404,31.185744677827834,-64.05145371860036,-0.4616,-0.6584,0.2688,-0.5303
151,1153114.0,1113.605499,1.0,9.39,3.5,-0.47,-27.87,-14.38,-21.37,-9.31,-1.69,1.19,-0.411754052713968,-0.1902798632430132,-0.21518876210936888,-82.35592311764404,31.185744677827834,-64.05145371860036,-0.4616,-0.6584,0.2688,-0.5303
152,1153146.0,1113.649151,1.0,9.3,3.66,-0.18,-27.87,-14.38,-21.37,-4.06,0.0,0.75,-0.4487774832421028,0.14085635942037444,-0.1781764009218385,-82.23418197710798,31.304732073341746,-63.98388526065868,-0.4626,-0.6576,0.2698,-0.5298
153,1153146.0,1113.649151,1.0,9.3,3.66,-0.18,-27.87,-14.38,-21.37,-4.06,0.0,0.75,-0.4487774832421028,0.14085635942037444,-0.1781764009218385,-82.23418197710798,31.304732073341746,-63.98388526065868,-0.4626,-0.6576,0.2698,-0.5298
154,1153185.0,1113.657704,1.0,9.3,3.56,-0.18,-26.69,-13.69,-21.0,2.88,0.88,1.37,-0.3533011677581419,0.09202898989865772,-0.14637511550528434,-82.26460667045434,31.24523405697452,-63.95686484639014,-0.4629,-0.6578,0.2693,-0.5296
155,1153185.0,1113.657704,1.0,9.3,3.56,-0.18,-26.69,-13.69,-21.0,2.88,0.88,1.37,-0.3533011677581419,0.09202898989865772,-0.14637511550528434,-82.26460667045434,31.24523405697452,-63.95686484639014,-0.4629,-0.6578,0.2693,-0.5296
156,1153220.0,1113.677525,1.0,9.32,3.14,-0.05,-27.5,-13.69,-21.37,7.38,0.81,1.12,0.06695940131647138,0.03212015362871079,-0.02793106552110558,-82.35592311764404,31.138159380012002,-64.03793803426306,-0.4619,-0.6584,0.2684,-0.5302
157,1153220.0,1113.677525,1.0,9.32,3.14,-0.05,-27.5,-13.69,-21.37,7.38,0.81,1.12,0.06695940131647138,0.03212015362871079,-0.02793106552110558,-82.35592311764404,31.138159380012002,-64.03793803426306,-0.4619,-0.6584,0.2684,-0.5302
158,1153253.0,1113.680856,1.0,9.39,2.97,-0.24,-27.5,-13.69,-21.37,6.44,-0.25,2.44,0.13657356445862168,-0.2039844037771219,-0.0417172770925216,-82.47777750148487,31.031112572318907,-64.18666547503379,-0.46,-0.6592,0.2675,-0.5313
159,1153253.0,1113.680856,1.0,9.39,2.97,-0.24,-27.5,-13.69,-21.37,6.44,-0.25,2.44,0.13657356445862168,-0.2039844037771219,-0.0417172770925216,-82.47777750148487,31.031112572318907,-64.18666547503379,-0.46,-0.6592,0.2675,-0.5313
160,1153288.0,1113.724544,1.0,9.53,3.03,-0.54,-26.69,-13.69,-20.56,4.81,-0.12,2.75,-0.021192708465164856,-0.4388169434945528,-0.19836826880940706,-82.58449333969773,31.019220197898697,-64.28137325688984,-0.4582,-0.6599,0.2674,-0.532
161,1153288.0,1113.724544,1.0,9.53,3.03,-0.54,-26.69,-13.69,-20.56,4.81,-0.12,2.75,-0.021192708465164856,-0.4388169434945528,-0.19836826880940706,-82.58449333969773,31.019220197898697,-64.28137325688984,-0.4582,-0.6599,0.2674,-0.532
162,1153325.0,1113.732988,1.0,9.51,3.09,-0.14,-27.06,-14.38,-21.75,-0.31,-3.25,-0.5,0.1088676944900422,-0.03492144396405816,-0.19308641241847369,-82.67603357506403,31.06679175207397,-64.24077819073915,-0.4576,-0.6605,0.2678,-0.5317
163,1153325.0,1113.732988,1.0,9.51,3.09,-0.14,-27.06,-14.38,-21.75,-0.31,-3.25,-0.5,0.1088676944900422,-0.03492144396405816,-0.19308641241847369,-82.67603357506403,31.06679175207397,-64.24077819073915,-0.4576,-0.6605,0.2678,-0.5317
164,1153359.0,1113.789927,1.0,9.6,3.29,-0.17,-27.06,-14.38,-21.75,0.5,-2.63,0.75,-0.04157601289822832,0.02648627435168338,-0.34276229394207114,-82.72182782084748,31.114368796125287,-64.17313980035841,-0.4574,-0.6608,0.2682,-0.5312
165,1153359.0,1113.789927,1.0,9.6,3.29,-0.17,-27.06,-14.38,-21.75,0.5,-2.63,0.75,-0.04157601289822832,0.02648627435168338,-0.34276229394207114,-82.72182782084748,31.114368796125287,-64.17313980035841,-0.4574,-0.6608,0.2682,-0.5312
166,1153392.0,1113.807407,1.0,9.5,3.09,-0.25,-27.06,-14.0,-20.56,-1.19,-6.38,-2.5,0.07882739303795905,-0.0914605406396174,-0.1856480946133079,-82.88987813746495,31.16195134015795,-64.03793803426306,-0.4568,-0.6619,0.2686,-0.5302
167,1153392.0,1113.807407,1.0,9.5,3.09,-0.25,-27.06,-14.0,-20.56,-1.19,-6.38,-2.5,0.07882739303795905,-0.0914605406396174,-0.1856480946133079,-82.88987813746495,31.16195134015795,-64.03793803426306,-0.4568,-0.6619,0.2686,-0.5302
168,1153429.0,1113.811205,1.0,9.09,3.15,0.12,-27.5,-14.0,-20.56,-4.5,-3.75,-3.13,0.10362532970574524,0.3235630445867657,0.19158012260331425,-82.95104130462066,31.24523405697452,-63.781328955958536,-0.4579,-0.6623,0.2693,-0.5283
169,1153429.0,1113.811205,1.0,9.09,3.15,0.12,-27.5,-14.0,-20.56,-4.5,-3.75,-3.13,0.10362532970574524,0.3235630445867657,0.19158012260331425,-82.95104130462066,31.24523405697452,-63.781328955958536,-0.4579,-0.6623,0.2693,-0.5283
170,1153464.0,1113.854673,1.0,9.3,3.21,-0.28,-27.87,-13.69,-21.0,-0.75,-0.44,-1.81,-0.053647869255383895,-0.03597775279376858,-0.035520873716240686,-82.96633660527758,31.26903222594612,-63.6868789211639,-0.4586,-0.6624,0.2695,-0.5276
171,1153464.0,1113.854673,1.0,9.3,3.21,-0.28,-27.87,-13.69,-21.0,-0.75,-0.44,-1.81,-0.053647869255383895,-0.03597775279376858,-0.035520873716240686,-82.96633660527758,31.26903222594612,-63.6868789211639,-0.4586,-0.6624,0.2695,-0.5276
172,1153499.0,1113.921035,1.0,9.31,3.14,-0.44,-27.87,-13.69,-21.0,-1.25,-2.69,-1.69,-0.050175655230738865,-0.2043506272764644,-0.026204276595064968,-83.0275358707213,31.26903222594612,-63.59247721166836,-0.4587,-0.6628,0.2695,-0.5269
173,1153499.0,1113.921035,1.0,9.31,3.14,-0.44,-27.87,-13.69,-21.0,-1.25,-2.69,-1.69,-0.050175655230738865,-0.2043506272764644,-0.026204276595064968,-83.0275358707213,31.26903222594612,-63.59247721166836,-0.4587,-0.6628,0.2695,-0.5269
174,1153536.0,1113.938915,1.0,9.36,3.28,-0.44,-27.06,-14.0,-19.75,4.44,1.63,1.37,-0.15091750354164768,-0.1493137287691666,-0.11889932069383312,-83.05814635391897,31.24523405697452,-63.605960216714145,-0.4586,-0.6629999999999999,0.2693,-0.527
175,1153536.0,1113.938915,1.0,9.36,3.28,-0.44,-27.06,-14.0,-19.75,4.44,1.63,1.37,-0.15091750354164768,-0.1493137287691666,-0.11889932069383312,-83.05814635391897,31.24523405697452,-63.605960216714145,-0.4586,-0.6629999999999999,0.2693,-0.527
176,1153570.0,1113.983173,1.0,9.48,2.69,-0.63,-26.37,-14.0,-20.56,12.25,-0.63,1.0,0.29218533156644866,-0.5660238123544711,-0.047163717331232036,-83.28795636892652,31.06679175207397,-63.75433829250864,-0.456,-0.6645,0.2678,-0.5281
177,1153570.0,1113.983173,1.0,9.48,2.69,-0.63,-26.37,-14.0,-20.56,12.25,-0.63,1.0,0.29218533156644866,-0.5660238123544711,-0.047163717331232036,-83.28795636892652,31.06679175207397,-63.75433829250864,-0.456,-0.6645,0.2678,-0.5281
178,1153605.0,1114.0004199999998,1.0,9.06,2.53,-0.44,-26.37,-14.0,-20.56,3.25,-2.69,4.19,0.38379832947765297,-0.3900912920075916,0.4056592210347336,-83.41068938154757,31.078685498016352,-63.781328955958536,-0.4545,-0.6653,0.2679,-0.5283
179,1153605.0,1114.0004199999998,1.0,9.06,2.53,-0.44,-26.37,-14.0,-20.56,3.25,-2.69,4.19,0.38379832947765297,-0.3900912920075916,0.4056592210347336,-83.41068938154757,31.078685498016352,-63.781328955958536,-0.4545,-0.6653,0.2679,-0.5283
180,1153640.0,1114.063778,1.0,8.9,2.57,-0.32,-26.69,-14.0,-20.19,0.31,-4.56,7.25,0.32675639391365485,-0.20355257007879546,0.5454893486425849,-83.41068938154757,31.340435037267948,-63.82182237007654,-0.4527,-0.6653,0.2701,-0.5286
181,1153640.0,1114.063778,1.0,8.9,2.57,-0.32,-26.69,-14.0,-20.19,0.31,-4.56,7.25,0.32675639391365485,-0.20355257007879546,0.5454893486425849,-83.41068938154757,31.340435037267948,-63.82182237007654,-0.4527,-0.6653,0.2701,-0.5286
182,1153675.0,1114.066686,1.0,8.74,3.35,0.09,-26.69,-13.69,-21.0,-11.13,1.5,8.75,-0.2263404399606113,0.5345372107985962,0.4642070659751898,-83.1806607941667,31.6738137680446,-63.83532215478704,-0.4531,-0.6638,0.2729,-0.5287
183,1153675.0,1114.066686,1.0,8.74,3.35,0.09,-26.69,-13.69,-21.0,-11.13,1.5,8.75,-0.2263404399606113,0.5345372107985962,0.4642070659751898,-83.1806607941667,31.6738137680446,-63.83532215478704,-0.4531,-0.6638,0.2729,-0.5287
184,1153712.0,1114.123128,1.0,8.82,3.61,0.29,-27.5,-14.0,-20.56,-7.69,4.63,7.94,-0.3990379878319208,0.8003995139512083,0.31408821182428603,-82.75236627086224,31.99554685526558,-64.0244233467086,-0.45399999999999996,-0.6609999999999999,0.2756,-0.5301
185,1153712.0,1114.123128,1.0,8.82,3.61,0.29,-27.5,-14.0,-20.56,-7.69,4.63,7.94,-0.3990379878319208,0.8003995139512083,0.31408821182428603,-82.75236627086224,31.99554685526558,-64.0244233467086,-0.45399999999999996,-0.6609999999999999,0.2756,-0.5301
186,1153746.0,1114.163765,1.0,9.28,3.88,-0.02,-27.5,-14.0,-20.56,-6.44,8.31,4.13,-0.6846320577351103,0.5542831525002071,-0.21319276984303848,-82.40160521651524,32.114772865183184,-64.22724850843996,-0.455,-0.6587,0.2766,-0.5316
187,1153746.0,1114.163765,1.0,9.28,3.88,-0.02,-27.5,-14.0,-20.56,-6.44,8.31,4.13,-0.6846320577351103,0.5542831525002071,-0.21319276984303848,-82.40160521651524,32.114772865183184,-64.22724850843996,-0.455,-0.6587,0.2766,-0.5316
188,1153781.0,1114.1719699999999,1.0,9.63,3.75,-0.46,-27.5,-13.25,-21.37,8.88,7.13,3.56,-0.7166768160116994,0.032068271856465325,-0.5130566802953016,-82.17335373167707,32.031310917714855,-64.55223852912117,-0.4548,-0.6572,0.2759,-0.534
189,1153781.0,1114.1719699999999,1.0,9.63,3.75,-0.46,-27.5,-13.25,-21.37,8.88,7.13,3.56,-0.7166768160116994,0.032068271856465325,-0.5130566802953016,-82.17335373167707,32.031310917714855,-64.55223852912117,-0.4548,-0.6572,0.2759,-0.534
