,TIME,ELAPSED_SECONDS,PSTATE,acc_x,acc_y,acc_z,mag_x,mag_y,mag_z,gyr_x,gyr_y,gyr_z,lin_x,lin_y,lin_z,eul_x,eul_y,eul_z,qua_w,qua_x,qua_y,qua_z
0,727709.0,687.361147,1.0,0.67,0.37,-9.92,12.19,-14.38,27.87,-0.19,0.63,0.88,0.024086754547331942,0.10613347007288833,-0.14223714956530387,-134.47008902668762,-45.2750645639147,-4.49314033842009,0.0012,-0.9221,-0.3849,-0.0392
1,727709.0,687.361147,1.0,0.67,0.37,-9.92,12.19,-14.38,27.87,-0.19,0.63,0.88,0.024086754547331942,0.10613347007288833,-0.14223714956530387,-134.47008902668762,-45.2750645639147,-4.49314033842009,0.0012,-0.9221,-0.3849,-0.0392
2,727746.0,687.363921,1.0,0.6,0.36,-9.66,12.56,-13.69,29.19,0.31,1.31,0.19,-0.018564669024297858,0.13827767555135514,0.12234648154767315,-134.47008902668762,-45.2750645639147,-4.516076369343336,0.001,-0.9221,-0.3849,-0.0394
3,727746.0,687.363921,1.0,0.6,0.36,-9.66,12.56,-13.69,29.19,0.31,1.31,0.19,-0.018564669024297858,0.13827767555135514,0.12234648154767315,-134.47008902668762,-45.2750645639147,-4.516076369343336,0.001,-0.9221,-0.3849,-0.0394
4,727779.0,687.422545,1.0,0.81,0.41,-9.89,12.56,-13.69,29.19,-0.75,1.81,0.56,0.1399592254464765,0.03951128313438701,-0.12386611315935347,-134.49971207203987,-45.25023432294885,-4.573417240623146,0.0012,-0.9222,-0.3847,-0.0399
5,727779.0,687.422545,1.0,0.81,0.41,-9.89,12.56,-13.69,29.19,-0.75,1.81,0.56,0.1399592254464765,0.03951128313438701,-0.12386611315935347,-134.49971207203987,-45.25023432294885,-4.573417240623146,0.0012,-0.9222,-0.3847,-0.0399
6,727814.0,687.438033,1.0,0.63,0.33,-9.84,12.88,-14.75,29.5,0.12,-0.12,0.12,-0.0419065978163812,0.1081782177006,-0.058335621392188834,-134.49971207203987,-45.25023432294885,-4.584885551911774,0.0011,-0.9222,-0.3847,-0.04
7,727814.0,687.438033,1.0,0.63,0.33,-9.84,12.88,-14.75,29.5,0.12,-0.12,0.12,-0.0419065978163812,0.1081782177006,-0.058335621392188834,-134.49971207203987,-45.25023432294885,-4.584885551911774,0.0011,-0.9222,-0.3847,-0.04
8,727848.0,687.494945,1.0,0.7,0.28,-9.8,13.25,-14.0,28.75,-0.12,0.19,0.63,-0.02722829333197555,0.022909413220577542,-0.02224280533815559,-134.49971207203987,-45.225406324165256,-4.596353909147252,0.0011,-0.9222,-0.3845,-0.0401
9,727848.0,687.494945,1.0,0.7,0.28,-9.8,13.25,-14.0,28.75,-0.12,0.19,0.63,-0.02722829333197555,0.022909413220577542,-0.02224280533815559,-134.49971207203987,-45.225406324165256,-4.596353909147252,0.0011,-0.9222,-0.3845,-0.0401
10,727883.0,687.53676,1.0,0.49,0.34,-9.55,11.75,-14.38,27.19,-2.31,-0.37,1.0,-0.11974871869457382,0.19610402800435245,0.2408043262202089,-134.5590130176977,-45.200580565791434,-4.6078223124450055,0.0005,-0.9224,-0.3843,-0.0402
11,727883.0,687.53676,1.0,0.49,0.34,-9.55,11.75,-14.38,27.19,-2.31,-0.37,1.0,-0.11974871869457382,0.19610402800435245,0.2408043262202089,-134.5590130176977,-45.200580565791434,-4.6078223124450055,0.0005,-0.9224,-0.3843,-0.0402
12,727918.0,687.54266,1.0,0.81,0.51,-9.93,11.75,-14.38,27.19,-1.12,2.81,0.56,0.17936936303806314,0.10017087892012794,-0.16726058846126254,-134.5590130176977,-45.175757046056106,-4.699571210920838,0.0001,-0.9224,-0.3841,-0.040999999999999995
13,727918.0,687.54266,1.0,0.81,0.51,-9.93,11.75,-14.38,27.19,-1.12,2.81,0.56,0.17936936303806314,0.10017087892012794,-0.16726058846126254,-134.5590130176977,-45.175757046056106,-4.699571210920838,0.0001,-0.9224,-0.3841,-0.040999999999999995
14,727953.0,687.558933,1.0,0.72,0.42,-9.87,13.25,-13.69,28.25,1.31,0.94,0.56,0.05226934615842657,0.10270407314438944,-0.09781463918225697,-134.5590130176977,-45.175757046056106,-4.733977821845079,0.0002,-0.9224,-0.3841,-0.0413
15,727953.0,687.558933,1.0,0.72,0.42,-9.87,13.25,-13.69,28.25,1.31,0.94,0.56,0.05226934615842657,0.10270407314438944,-0.09781463918225697,-134.5590130176977,-45.175757046056106,-4.733977821845079,0.0002,-0.9224,-0.3841,-0.0413
16,727988.0,687.600775,1.0,0.65,0.33,-9.76,12.88,-14.0,27.87,0.06,0.69,-0.37,-0.052545893522574015,0.0896883468074578,0.02001651705394103,-134.5590130176977,-45.175757046056106,-4.745446786894516,0.0004,-0.9224,-0.3841,-0.0414
17,727988.0,687.600775,1.0,0.65,0.33,-9.76,12.88,-14.0,27.87,0.06,0.69,-0.37,-0.052545893522574015,0.0896883468074578,0.02001651705394103,-134.5590130176977,-45.175757046056106,-4.745446786894516,0.0004,-0.9224,-0.3841,-0.0414
18,728025.0,687.6580849999999,1.0,0.63,0.33,-9.86,12.88,-14.0,27.87,0.25,1.75,0.94,-0.07967223260976973,0.10945794971186533,-0.07803873018244545,-134.5590130176977,-45.16334612512468,-4.779853967883568,0.0004,-0.9224,-0.384,-0.0417
19,728025.0,687.6580849999999,1.0,0.63,0.33,-9.86,12.88,-14.0,27.87,0.25,1.75,0.94,-0.07967223260976973,0.10945794971186533,-0.07803873018244545,-134.5590130176977,-45.16334612512468,-4.779853967883568,0.0004,-0.9224,-0.384,-0.0417
20,728059.0,687.674284,1.0,0.72,0.47,-9.92,12.88,-14.38,28.25,-1.69,-0.12,0.37,0.07282434512009132,0.14433858420778292,-0.149230824310159,-134.5590130176977,-45.1509357631892,-4.802792327898413,0.0002,-0.9224,-0.3839,-0.0419
21,728059.0,687.674284,1.0,0.72,0.47,-9.92,12.88,-14.38,28.25,-1.69,-0.12,0.37,0.07282434512009132,0.14433858420778292,-0.149230824310159,-134.5590130176977,-45.1509357631892,-4.802792327898413,0.0002,-0.9224,-0.3839,-0.0419
22,728094.0,687.709516,1.0,0.81,0.46,-9.88,11.75,-14.0,28.75,0.06,0.12,-0.19,0.12603345645027605,0.06827892250212778,-0.1161295277632366,-134.5590130176977,-45.1509357631892,-4.825730880475589,-0.0001,-0.9224,-0.3839,-0.0421
23,728094.0,687.709516,1.0,0.81,0.46,-9.88,11.75,-14.0,28.75,0.06,0.12,-0.19,0.12603345645027605,0.06827892250212778,-0.1161295277632366,-134.5590130176977,-45.1509357631892,-4.825730880475589,-0.0001,-0.9224,-0.3839,-0.0421
24,728129.0,687.765446,1.0,0.68,0.4,-9.8,11.75,-14.0,28.75,-0.5,-2.19,-0.19,0.005038778830607743,0.11063247701186832,-0.02443005591136327,-134.5590130176977,-45.1509357631892,-4.779853967883568,-0.0002,-0.9224,-0.3839,-0.0417
25,728129.0,687.765446,1.0,0.68,0.4,-9.8,11.75,-14.0,28.75,-0.5,-2.19,-0.19,0.005038778830607743,0.11063247701186832,-0.02443005591136327,-134.5590130176977,-45.1509357631892,-4.779853967883568,-0.0002,-0.9224,-0.3839,-0.0417
26,728164.0,687.819435,1.0,0.59,0.35,-9.79,12.88,-13.25,27.87,0.44,0.75,-0.75,-0.09391712652485323,0.13067319684840134,-0.0060358753845104465,-134.5590130176977,-45.175757046056106,-4.768384859798278,-0.0006,-0.9224,-0.3841,-0.0416
27,728164.0,687.819435,1.0,0.59,0.35,-9.79,12.88,-13.25,27.87,0.44,0.75,-0.75,-0.09391712652485323,0.13067319684840134,-0.0060358753845104465,-134.5590130176977,-45.175757046056106,-4.768384859798278,-0.0006,-0.9224,-0.3841,-0.0416
28,728199.0,687.8257990000001,1.0,0.76,0.34,-9.78,11.38,-14.0,28.69,-0.12,0.88,0.5,0.017968282192275878,0.0054214049601411796,-0.008707749425301614,-134.5590130176977,-45.175757046056106,-4.779853967883568,-0.0005,-0.9224,-0.3841,-0.0417
29,728199.0,687.8257990000001,1.0,0.76,0.34,-9.78,11.38,-14.0,28.69,-0.12,0.88,0.5,0.017968282192275878,0.0054214049601411796,-0.008707749425301614,-134.5590130176977,-45.175757046056106,-4.779853967883568,-0.0005,-0.9224,-0.3841,-0.0417
30,728236.0,687.841329,1.0,0.68,0.36,-9.61,13.25,-14.38,27.5,0.12,-1.0,-0.63,-0.009815606000539727,0.06847668082241043,0.16614614397347086,-134.5590130176977,-45.16334612512468,-4.768384859798278,-0.0006,-0.9224,-0.384,-0.0416
31,728236.0,687.841329,1.0,0.68,0.36,-9.61,13.25,-14.38,27.5,0.12,-1.0,-0.63,-0.009815606000539727,0.06847668082241043,0.16614614397347086,-134.5590130176977,-45.16334612512468,-4.768384859798278,-0.0006,-0.9224,-0.384,-0.0416
32,728270.0,687.882213,1.0,0.46,0.16,-9.27,13.25,-14.38,27.5,-0.63,1.56,-0.5,-0.2864825386121391,0.07565191188991473,0.5285950021409249,-134.52935339042858,-45.18816852620461,-4.814261580058959,-0.0006,-0.9223,-0.3842,-0.042
33,728270.0,687.882213,1.0,0.46,0.16,-9.27,13.25,-14.38,27.5,-0.63,1.56,-0.5,-0.2864825386121391,0.07565191188991473,0.5285950021409249,-134.52935339042858,-45.18816852620461,-4.814261580058959,-0.0006,-0.9223,-0.3842,-0.042
34,728307.0,687.94261,1.0,0.48,0.0,-9.14,12.19,-14.75,28.37,-2.81,5.69,-0.12,-0.3993964380774185,-0.045467454320066936,0.6628862674963703,-134.49971207203987,-45.175757046056106,-4.974836229757033,-0.0006,-0.9222,-0.3841,-0.0434
35,728307.0,687.94261,1.0,0.48,0.0,-9.14,12.19,-14.75,28.37,-2.81,5.69,-0.12,-0.3993964380774185,-0.045467454320066936,0.6628862674963703,-134.49971207203987,-45.175757046056106,-4.974836229757033,-0.0006,-0.9222,-0.3841,-0.0434
36,728342.0,688.040979,1.0,0.47,-0.4,-8.64,12.56,-15.19,28.25,-5.0,8.44,-0.31,-0.6842864354449402,-0.325729362861824,1.1778521430308313,-134.49971207203987,-45.175757046056106,-5.215716631990905,-0.0008,-0.9222,-0.3841,-0.0455
37,728342.0,688.040979,1.0,0.47,-0.4,-8.64,12.56,-15.19,28.25,-5.0,8.44,-0.31,-0.6842864354449402,-0.325729362861824,1.1778521430308313,-134.49971207203987,-45.175757046056106,-5.215716631990905,-0.0008,-0.9222,-0.3841,-0.0455
38,728375.0,688.1345,1.0,0.32,-0.87,-7.73,12.56,-15.19,28.25,-11.38,8.81,2.25,-1.1105523598511315,-0.5826572189102623,2.1229409983992165,-134.47008902668762,-45.1509357631892,-5.663127955663872,-0.0025,-0.9221,-0.3839,-0.0494
39,728375.0,688.1345,1.0,0.32,-0.87,-7.73,12.56,-15.19,28.25,-11.38,8.81,2.25,-1.1105523598511315,-0.5826572189102623,2.1229409983992165,-134.47008902668762,-45.1509357631892,-5.663127955663872,-0.0025,-0.9221,-0.3839,-0.0494
40,728410.0,688.1883330000001,1.0,-0.33,-1.45,-6.33,12.88,-14.38,28.75,-18.94,19.37,5.63,-1.9473974266219924,-0.5827734226132287,3.6302175021350953,-134.5590130176977,-44.91524480207666,-6.558216736441544,-0.0056,-0.9224,-0.382,-0.0572
41,728410.0,688.1883330000001,1.0,-0.33,-1.45,-6.33,12.88,-14.38,28.75,-18.94,19.37,5.63,-1.9473974266219924,-0.5827734226132287,3.6302175021350953,-134.5590130176977,-44.91524480207666,-6.558216736441544,-0.0056,-0.9224,-0.382,-0.0572
42,728446.0,688.1966219999999,1.0,-0.23,-0.88,-5.42,12.19,-14.38,28.75,-38.75,40.88,15.06,-1.5043269049401595,-0.2819443535488713,4.528278286623318,-134.7075870499225,-44.506361779453115,-7.890132207309978,-0.0098,-0.9229,-0.3787,-0.0688
43,728446.0,688.1966219999999,1.0,-0.23,-0.88,-5.42,12.19,-14.38,28.75,-38.75,40.88,15.06,-1.5043269049401595,-0.2819443535488713,4.528278286623318,-134.7075870499225,-44.506361779453115,-7.890132207309978,-0.0098,-0.9229,-0.3787,-0.0688
44,728483.0,688.247893,1.0,0.46,0.02,-5.11,12.19,-14.38,28.75,-49.38,62.31,21.5,-0.6063820309622047,-0.10896373380205636,4.713072893757073,-134.9462708023221,-43.579286875788114,-10.706964767003905,-0.017,-0.9237,-0.3712,-0.0933
45,728483.0,688.247893,1.0,0.46,0.02,-5.11,12.19,-14.38,28.75,-49.38,62.31,21.5,-0.6063820309622047,-0.10896373380205636,4.713072893757073,-134.9462708023221,-43.579286875788114,-10.706964767003905,-0.017,-0.9237,-0.3712,-0.0933
46,728516.0,688.264731,1.0,1.31,1.05,-5.14,11.06,-15.5,29.19,-62.5,86.12,23.5,0.4187873203582783,0.10435051842410653,4.4166659416180325,-134.85662424793804,-42.74132469735878,-13.564921674838883,-0.0231,-0.9234,-0.3644,-0.1181
47,728516.0,688.264731,1.0,1.31,1.05,-5.14,11.06,-15.5,29.19,-62.5,86.12,23.5,0.4187873203582783,0.10435051842410653,4.4166659416180325,-134.85662424793804,-42.74132469735878,-13.564921674838883,-0.0231,-0.9234,-0.3644,-0.1181
48,728553.0,688.26761,1.0,1.92,0.61,-5.24,9.19,-18.19,29.19,-52.94,104.75,21.81,0.12099532631575192,-0.4963277083343272,4.2160222233590465,-134.1160248878201,-41.69722676024061,-18.03080801097451,-0.027000000000000003,-0.9209,-0.3559,-0.1567
49,728553.0,688.26761,1.0,1.92,0.61,-5.24,9.19,-18.19,29.19,-52.94,104.75,21.81,0.12099532631575192,-0.4963277083343272,4.2160222233590465,-134.1160248878201,-41.69722676024061,-18.03080801097451,-0.027000000000000003,-0.9209,-0.3559,-0.1567
50,728588.0,688.3024,1.0,3.93,0.41,-5.96,6.56,-20.0,29.19,-66.69,124.44,24.81,0.7426471479592653,-1.7820205711806767,2.921341154529313,-133.06899702903365,-40.77896631080099,-21.952257310852513,-0.0298,-0.9173,-0.3484,-0.1904
51,728588.0,688.3024,1.0,3.93,0.41,-5.96,6.56,-20.0,29.19,-66.69,124.44,24.81,0.7426471479592653,-1.7820205711806767,2.921341154529313,-133.06899702903365,-40.77896631080099,-21.952257310852513,-0.0298,-0.9173,-0.3484,-0.1904
52,728623.0,688.308853,1.0,4.86,1.17,-6.29,6.56,-20.0,29.19,-86.0,129.19,34.88,0.998484064893167,-1.563470848515695,1.9892854518932648,-131.23228149999522,-38.987009992065246,-27.77308072525798,-0.0379,-0.9108,-0.3337,-0.24
53,728623.0,688.308853,1.0,4.86,1.17,-6.29,6.56,-20.0,29.19,-86.0,129.19,34.88,0.998484064893167,-1.563470848515695,1.9892854518932648,-131.23228149999522,-38.987009992065246,-27.77308072525798,-0.0379,-0.9108,-0.3337,-0.24
54,728659.0,688.324392,1.0,6.78,1.43,-7.2,3.19,-22.06,26.69,-73.62,136.88,50.44,1.3282153572781623,-2.2073500006069993,0.15176781845522844,-129.64656611878056,-37.24119428419274,-32.28174931703743,-0.0417,-0.905,-0.3193,-0.278
55,728659.0,688.324392,1.0,6.78,1.43,-7.2,3.19,-22.06,26.69,-73.62,136.88,50.44,1.3282153572781623,-2.2073500006069993,0.15176781845522844,-129.64656611878056,-37.24119428419274,-32.28174931703743,-0.0417,-0.905,-0.3193,-0.278
56,728696.0,688.327043,1.0,7.54,1.5,-7.38,-1.0,-24.69,26.37,-78.75,126.81,57.69,0.8362160199183959,-2.165063766499628,-0.5942750384291422,-127.3259688536123,-34.48301299993159,-38.149326328386564,-0.0451,-0.8962,-0.2964,-0.3268
57,728696.0,688.327043,1.0,7.54,1.5,-7.38,-1.0,-24.69,26.37,-78.75,126.81,57.69,0.8362160199183959,-2.165063766499628,-0.5942750384291422,-127.3259688536123,-34.48301299993159,-38.149326328386564,-0.0451,-0.8962,-0.2964,-0.3268
58,728731.0,688.366223,1.0,9.14,0.88,-7.72,-1.0,-24.69,26.37,-79.19,128.0,60.38,0.5611339973676946,-3.2048734337842584,-1.7400514731663534,-125.37071718924679,-32.25789123557385,-42.45844069063149,-0.0485,-0.8885,-0.2778,-0.3621
59,728731.0,688.366223,1.0,9.14,0.88,-7.72,-1.0,-24.69,26.37,-79.19,128.0,60.38,0.5611339973676946,-3.2048734337842584,-1.7400514731663534,-125.37071718924679,-32.25789123557385,-42.45844069063149,-0.0485,-0.8885,-0.2778,-0.3621
60,728766.0,688.385845,1.0,10.01,2.14,-7.86,-4.56,-27.37,26.5,-122.69,104.69,61.31,0.4204505932703264,-2.244801968411778,-2.8954516143484383,-122.54128756505699,-28.62376850418663,-48.120868117186305,-0.0616,-0.8769,-0.2472,-0.4077
61,728766.0,688.385845,1.0,10.01,2.14,-7.86,-4.56,-27.37,26.5,-122.69,104.69,61.31,0.4204505932703264,-2.244801968411778,-2.8954516143484383,-122.54128756505699,-28.62376850418663,-48.120868117186305,-0.0616,-0.8769,-0.2472,-0.4077
62,728801.0,688.4254139999999,1.0,9.12,3.34,-5.76,-7.5,-30.69,22.87,-131.13,83.31,62.0,1.022723212726471,-0.8033823810462066,-1.4101326929104319,-119.99417813762396,-24.537797991913113,-52.821087070408176,-0.0844,-0.866,-0.2125,-0.4448
63,728801.0,688.4254139999999,1.0,9.12,3.34,-5.76,-7.5,-30.69,22.87,-131.13,83.31,62.0,1.022723212726471,-0.8033823810462066,-1.4101326929104319,-119.99417813762396,-24.537797991913113,-52.821087070408176,-0.0844,-0.866,-0.2125,-0.4448
64,728838.0,688.445176,1.0,9.17,3.97,-4.29,-8.5,-34.88,17.87,-131.0,77.19,62.19,1.7625563677104503,-0.18903563422723613,-0.9223555727283356,-117.98502779819529,-21.415555412105128,-56.00369069764568,-0.1021,-0.8571,-0.1858,-0.4695
65,728838.0,688.445176,1.0,9.17,3.97,-4.29,-8.5,-34.88,17.87,-131.0,77.19,62.19,1.7625563677104503,-0.18903563422723613,-0.9223555727283356,-117.98502779819529,-21.415555412105128,-56.00369069764568,-0.1021,-0.8571,-0.1858,-0.4695
66,728872.0,688.482763,1.0,9.45,4.51,-3.45,-8.5,-34.88,17.87,-139.13,76.5,56.5,1.7849420128623283,0.3435734585527861,-1.0672195637430324,-114.810125415467,-17.195903895593172,-60.19857784037951,-0.1278,-0.8425,-0.1495,-0.5015
67,728872.0,688.482763,1.0,9.45,4.51,-3.45,-8.5,-34.88,17.87,-139.13,76.5,56.5,1.7849420128623283,0.3435734585527861,-1.0672195637430324,-114.810125415467,-17.195903895593172,-60.19857784037951,-0.1278,-0.8425,-0.1495,-0.5015
68,728907.0,688.5353690000001,1.0,9.53,5.52,-2.61,-8.0,-37.38,12.69,-157.31,73.56,44.13,1.87738547379078,1.324911970365766,-1.2759233497947535,-111.97181334084304,-14.003539375629765,-63.22880649321045,-0.1524,-0.8289,-0.1219,-0.5242
69,728907.0,688.5353690000001,1.0,9.53,5.52,-2.61,-8.0,-37.38,12.69,-157.31,73.56,44.13,1.87738547379078,1.324911970365766,-1.2759233497947535,-111.97181334084304,-14.003539375629765,-63.22880649321045,-0.1524,-0.8289,-0.1219,-0.5242
70,728944.0,688.553893,1.0,10.48,5.66,-3.25,-5.69,-38.5,4.5,-142.69,50.88,41.88,0.6400381946829466,0.931628029811006,-2.4876950546752408,-108.2309531214748,-9.936074868420336,-66.67915125155818,-0.1845,-0.8102,-0.0866,-0.5496
71,728944.0,688.553893,1.0,10.48,5.66,-3.25,-5.69,-38.5,4.5,-142.69,50.88,41.88,0.6400381946829466,0.931628029811006,-2.4876950546752408,-108.2309531214748,-9.936074868420336,-66.67915125155818,-0.1845,-0.8102,-0.0866,-0.5496
72,728979.0,688.592696,1.0,12.23,6.74,-4.64,-5.69,-38.5,4.5,-125.62,-43.81,69.06,-0.4960155717330629,1.0649064516290951,-4.8613438233514765,-107.35582470459705,-6.454917855397503,-67.2562029587362,-0.2026,-0.8057,-0.0563,-0.5538
73,728979.0,688.592696,1.0,12.23,6.74,-4.64,-5.69,-38.5,4.5,-125.62,-43.81,69.06,-0.4960155717330629,1.0649064516290951,-4.8613438233514765,-107.35582470459705,-6.454917855397503,-67.2562029587362,-0.2026,-0.8057,-0.0563,-0.5538
74,729014.0,688.643738,1.0,7.47,6.77,1.37,-4.25,-35.5,-0.06,-82.37,-105.19,74.31,2.992774205461984,4.736225699852749,1.3141728186838382,-109.65072872045309,-1.4668120111410634,-64.6200179960006,-0.2146,-0.8174,-0.0128,-0.5345
75,729014.0,688.643738,1.0,7.47,6.77,1.37,-4.25,-35.5,-0.06,-82.37,-105.19,74.31,2.992774205461984,4.736225699852749,1.3141728186838382,-109.65072872045309,-1.4668120111410634,-64.6200179960006,-0.2146,-0.8174,-0.0128,-0.5345
76,729049.0,688.699823,1.0,9.07,4.74,-0.44,-6.0,-32.19,-3.19,-56.5,19.37,68.0,2.326652099262636,2.14776359380689,0.06499195046271744,-109.43221295455638,0.8365258107465946,-64.78279229947678,-0.21600000000000003,-0.8163,0.0073,-0.5357
77,729049.0,688.699823,1.0,9.07,4.74,-0.44,-6.0,-32.19,-3.19,-56.5,19.37,68.0,2.326652099262636,2.14776359380689,0.06499195046271744,-109.43221295455638,0.8365258107465946,-64.78279229947678,-0.21600000000000003,-0.8163,0.0073,-0.5357
78,729085.0,688.7196150000001,1.0,10.01,6.28,-1.35,-9.19,-30.0,-2.69,-88.75,80.69,72.06,0.601378661820049,3.1474928168665324,-1.6472852483275862,-105.78405748823394,4.424333322525307,-67.77996741979399,-0.2271,-0.7975,0.0386,-0.5576
79,729085.0,688.7196150000001,1.0,10.01,6.28,-1.35,-9.19,-30.0,-2.69,-88.75,80.69,72.06,0.601378661820049,3.1474928168665324,-1.6472852483275862,-105.78405748823394,4.424333322525307,-67.77996741979399,-0.2271,-0.7975,0.0386,-0.5576
80,729120.0,688.7649769999999,1.0,10.46,5.45,-2.15,-9.19,-30.0,-2.69,-62.19,90.12,50.94,-0.6438709509984788,1.9505767199834758,-2.0050933369472954,-101.46511602909901,6.776309776380446,-71.52122812984334,-0.2356,-0.7742,0.0591,-0.5844
81,729120.0,688.7649769999999,1.0,10.46,5.45,-2.15,-9.19,-30.0,-2.69,-62.19,90.12,50.94,-0.6438709509984788,1.9505767199834758,-2.0050933369472954,-101.46511602909901,6.776309776380446,-71.52122812984334,-0.2356,-0.7742,0.0591,-0.5844
82,729157.0,688.8229660000001,1.0,10.35,4.31,-1.83,-13.19,-27.25,-4.88,-55.25,79.69,35.19,-0.5641618510409496,1.029490302604798,-1.4924371809484125,-98.59396637382844,7.982025743589274,-74.01219332198103,-0.2413,-0.7581,0.0696,-0.6019
83,729157.0,688.8229660000001,1.0,10.35,4.31,-1.83,-13.19,-27.25,-4.88,-55.25,79.69,35.19,-0.5641618510409496,1.029490302604798,-1.4924371809484125,-98.59396637382844,7.982025743589274,-74.01219332198103,-0.2413,-0.7581,0.0696,-0.6019
84,729192.0,688.8346730000001,1.0,10.63,3.79,-1.75,-16.75,-27.56,-6.75,-59.56,72.87,27.37,-0.9065538228952544,0.39103591043183705,-1.570904705776929,-94.96992497557171,9.53355259965066,-76.82225926226535,-0.2524,-0.7371,0.0831,-0.6213
85,729192.0,688.8346730000001,1.0,10.63,3.79,-1.75,-16.75,-27.56,-6.75,-59.56,72.87,27.37,-0.9065538228952544,0.39103591043183705,-1.570904705776929,-94.96992497557171,9.53355259965066,-76.82225926226535,-0.2524,-0.7371,0.0831,-0.6213
86,729227.0,688.850219,1.0,11.37,3.53,-2.17,-16.75,-27.56,-6.75,-107.37,60.25,3.94,-1.4667060674553238,-0.4612137540600476,-2.196797637439646,-92.19155360917374,10.891128461986716,-78.3956670621913,-0.2692,-0.7205,0.0949,-0.632
87,729227.0,688.850219,1.0,11.37,3.53,-2.17,-16.75,-27.56,-6.75,-107.37,60.25,3.94,-1.4667060674553238,-0.4612137540600476,-2.196797637439646,-92.19155360917374,10.891128461986716,-78.3956670621913,-0.2692,-0.7205,0.0949,-0.632
88,729262.0,688.89253,1.0,10.48,3.35,-1.52,-18.56,-26.06,-9.56,-130.94,37.44,-0.25,-1.4092556653683281,-0.498504715089721,-1.199202602986313,-88.77380536718846,13.749578099392743,-79.09236926487023,-0.3016,-0.6995,0.1197,-0.6367
89,729262.0,688.89253,1.0,10.48,3.35,-1.52,-18.56,-26.06,-9.56,-130.94,37.44,-0.25,-1.4092556653683281,-0.498504715089721,-1.199202602986313,-88.77380536718846,13.749578099392743,-79.09236926487023,-0.3016,-0.6995,0.1197,-0.6367
90,729298.0,688.947449,1.0,9.29,6.17,1.95,-19.37,-25.0,-12.5,-95.94,20.12,41.19,-0.8109973272827458,3.984235268832696,-0.7595060019587958,-86.89663713906471,16.30403579859025,-79.44948291717178,-0.314,-0.6877,0.1418,-0.6391
91,729298.0,688.947449,1.0,9.29,6.17,1.95,-19.37,-25.0,-12.5,-95.94,20.12,41.19,-0.8109973272827458,3.984235268832696,-0.7595060019587958,-86.89663713906471,16.30403579859025,-79.44948291717178,-0.314,-0.6877,0.1418,-0.6391
92,729335.0,689.002309,1.0,10.82,4.76,-0.4,-20.06,-24.25,-16.56,-63.38,40.75,24.0,-2.111251978573664,0.9641657522223964,-1.7908928210121378,-84.2113335545649,17.93799404290059,-80.8271028985237,-0.3253,-0.6705,0.1559,-0.6483
93,729335.0,689.002309,1.0,10.82,4.76,-0.4,-20.06,-24.25,-16.56,-63.38,40.75,24.0,-2.111251978573664,0.9641657522223964,-1.7908928210121378,-84.2113335545649,17.93799404290059,-80.8271028985237,-0.3253,-0.6705,0.1559,-0.6483
94,729368.0,689.008505,1.0,10.14,5.74,0.76,-20.06,-24.25,-16.56,-41.31,16.19,25.62,-2.202822830356639,2.5503890105131277,-1.3731481857059222,-82.95104130462066,19.250121718432275,-81.30958228614423,-0.3301,-0.6623,0.1672,-0.6515
95,729368.0,689.008505,1.0,10.14,5.74,0.76,-20.06,-24.25,-16.56,-41.31,16.19,25.62,-2.202822830356639,2.5503890105131277,-1.3731481857059222,-82.95104130462066,19.250121718432275,-81.30958228614423,-0.3301,-0.6623,0.1672,-0.6515
96,729407.0,689.103526,1.0,10.02,4.99,0.48,-21.5,-23.87,-18.06,-17.06,18.12,9.44,-2.1530574652584304,1.8072705973583028,-1.0390411508312418,-81.86963350668476,19.95948754584176,-81.96067611888428,-0.3327,-0.6552,0.1733,-0.6558
97,729407.0,689.103526,1.0,10.02,4.99,0.48,-21.5,-23.87,-18.06,-17.06,18.12,9.44,-2.1530574652584304,1.8072705973583028,-1.0390411508312418,-81.86963350668476,19.95948754584176,-81.96067611888428,-0.3327,-0.6552,0.1733,-0.6558
98,729442.0,689.114855,1.0,11.51,4.18,-1.44,-21.75,-22.75,-19.25,-67.62,55.19,-46.94,-3.050138181099157,-0.6559498747494779,-2.121991449805474,-80.55646739590921,20.064212846329454,-82.32547723365738,-0.3441,-0.6465,0.1742,-0.6582
99,729442.0,689.114855,1.0,11.51,4.18,-1.44,-21.75,-22.75,-19.25,-67.62,55.19,-46.94,-3.050138181099157,-0.6559498747494779,-2.121991449805474,-80.55646739590921,20.064212846329454,-82.32547723365738,-0.3441,-0.6465,0.1742,-0.6582
100,729477.0,689.121483,1.0,11.11,2.73,-2.0,-21.75,-22.75,-19.25,-124.56,-13.63,-39.88,-2.3442323334918904,-2.61248796276587,-1.2642344005804065,-78.4400339000036,21.07744476440248,-80.96262485016383,-0.3811,-0.6323,0.1829,-0.6492
101,729477.0,689.121483,1.0,11.11,2.73,-2.0,-21.75,-22.75,-19.25,-124.56,-13.63,-39.88,-2.3442323334918904,-2.61248796276587,-1.2642344005804065,-78.4400339000036,21.07744476440248,-80.96262485016383,-0.3811,-0.6323,0.1829,-0.6492
102,729511.0,689.130187,1.0,9.72,3.97,-0.34,-21.75,-22.37,-20.75,-59.38,-16.12,-1.75,-2.2170762775193884,-0.3832630856847383,-0.454567383274373,-77.74655203029216,22.699787605080815,-79.59855330327525,-0.397,-0.6276,0.1968,-0.6401
103,729511.0,689.130187,1.0,9.72,3.97,-0.34,-21.75,-22.37,-20.75,-59.38,-16.12,-1.75,-2.2170762775193884,-0.3832630856847383,-0.454567383274373,-77.74655203029216,22.699787605080815,-79.59855330327525,-0.397,-0.6276,0.1968,-0.6401
104,729548.0,689.176929,1.0,8.25,3.19,2.56,-21.06,-20.87,-23.56,-22.56,-14.0,-15.31,0.1511124340767478,1.7083858733003543,0.7595077583761167,-77.90855177137034,23.272776070440536,-78.48441476201302,-0.4048,-0.6287,0.2017,-0.6326
105,729548.0,689.176929,1.0,8.25,3.19,2.56,-21.06,-20.87,-23.56,-22.56,-14.0,-15.31,0.1511124340767478,1.7083858733003543,0.7595077583761167,-77.90855177137034,23.272776070440536,-78.48441476201302,-0.4048,-0.6287,0.2017,-0.6326
106,729585.0,689.2282849999999,1.0,9.33,3.98,1.5,-20.75,-21.69,-21.75,3.06,8.0,7.75,-1.0400346674273524,1.0780107649879636,-0.3370929325234471,-77.68768880531772,23.31957649574687,-78.72135037210387,-0.4044,-0.6272,0.2021,-0.6342
107,729585.0,689.2282849999999,1.0,9.33,3.98,1.5,-20.75,-21.69,-21.75,3.06,8.0,7.75,-1.0400346674273524,1.0780107649879636,-0.3370929325234471,-77.68768880531772,23.31957649574687,-78.72135037210387,-0.4044,-0.6272,0.2021,-0.6342
108,729618.0,689.333135,1.0,9.41,2.7,1.19,-20.75,-21.69,-21.75,21.75,15.25,2.0,-0.26731582944359433,0.038495046436482605,-0.051405608421404736,-77.68768880531772,22.79329707445838,-79.25593194400129,-0.401,-0.6272,0.1976,-0.6378
109,729618.0,689.333135,1.0,9.41,2.7,1.19,-20.75,-21.69,-21.75,21.75,15.25,2.0,-0.26731582944359433,0.038495046436482605,-0.051405608421404736,-77.68768880531772,22.79329707445838,-79.25593194400129,-0.401,-0.6272,0.1976,-0.6378
110,729655.0,689.383172,1.0,9.52,3.01,1.15,-20.75,-21.25,-23.0,5.69,1.12,6.63,-0.5464284190005515,0.17475655996605344,-0.2274855446125699,-77.67297680383594,22.57123707542117,-79.64330592338119,-0.3978,-0.6271,0.1957,-0.6404
111,729655.0,689.383172,1.0,9.52,3.01,1.15,-20.75,-21.25,-23.0,5.69,1.12,6.63,-0.5464284190005515,0.17475655996605344,-0.2274855446125699,-77.67297680383594,22.57123707542117,-79.64330592338119,-0.3978,-0.6271,0.1957,-0.6404
112,729690.0,689.400383,1.0,9.31,2.77,1.1,-20.37,-21.56,-23.37,35.44,-2.25,4.94,-0.40795997498774095,0.1085044981963328,0.04034079781521704,-78.08549020583642,22.267504416511226,-79.91212851792643,-0.3918,-0.6299,0.1931,-0.6422
113,729690.0,689.400383,1.0,9.31,2.77,1.1,-20.37,-21.56,-23.37,35.44,-2.25,4.94,-0.40795997498774095,0.1085044981963328,0.04034079781521704,-78.08549020583642,22.267504416511226,-79.91212851792643,-0.3918,-0.6299,0.1931,-0.6422
114,729722.0,689.4035719999999,1.0,9.34,1.82,0.96,-20.37,-21.56,-23.37,24.06,-3.0,-0.56,0.2568636092809776,-0.5635882424430316,0.26275198193593674,-78.69171147031696,21.637178319468852,-80.09163739911392,-0.3859,-0.634,0.1877,-0.6434
115,729722.0,689.4035719999999,1.0,9.34,1.82,0.96,-20.37,-21.56,-23.37,24.06,-3.0,-0.56,0.2568636092809776,-0.5635882424430316,0.26275198193593674,-78.69171147031696,21.637178319468852,-80.09163739911392,-0.3859,-0.634,0.1877,-0.6434
116,729759.0,689.406575,1.0,9.38,2.4,1.1,-20.06,-21.25,-22.87,1.06,-6.88,2.81,-0.05170946663388476,-0.07510624486292494,0.06262181946588008,-78.88447691741733,21.683846183764324,-79.97193860180572,-0.3849,-0.6353,0.1881,-0.6426
117,729759.0,689.406575,1.0,9.38,2.4,1.1,-20.06,-21.25,-22.87,1.06,-6.88,2.81,-0.05170946663388476,-0.07510624486292494,0.06262181946588008,-78.88447691741733,21.683846183764324,-79.97193860180572,-0.3849,-0.6353,0.1881,-0.6426
118,729796.0,689.457086,1.0,9.35,2.31,1.18,-20.5,-22.0,-22.87,2.0,-2.81,-1.19,0.0863172948847788,-0.04124825431911927,0.10397779559571953,-79.04779472022426,21.753854808314237,-79.80752374562414,-0.3845,-0.6364,0.1887,-0.6415
119,729796.0,689.457086,1.0,9.35,2.31,1.18,-20.5,-22.0,-22.87,2.0,-2.81,-1.19,0.0863172948847788,-0.04124825431911927,0.10397779559571953,-79.04779472022426,21.753854808314237,-79.80752374562414,-0.3845,-0.6364,0.1887,-0.6415
120,729829.0,689.479156,1.0,9.55,2.54,0.96,-20.5,-22.0,-22.87,-7.25,0.44,-0.37,-0.21473564446406,-0.11037522416403632,-0.1189434791269477,-78.97353558155666,21.858883165817787,-79.76271757028876,-0.3854,-0.6359,0.1896,-0.6412
121,729829.0,689.479156,1.0,9.55,2.54,0.96,-20.5,-22.0,-22.87,-7.25,0.44,-0.37,-0.21473564446406,-0.11037522416403632,-0.1189434791269477,-78.97353558155666,21.858883165817787,-79.76271757028876,-0.3854,-0.6359,0.1896,-0.6412
122,729864.0,689.52716,1.0,9.53,2.94,0.89,-20.5,-21.56,-22.5,-4.88,-4.44,0.37,-0.5532704738388341,0.10375247784374997,-0.19033590606785997,-78.92899912643803,22.162403204703928,-79.50909171234422,-0.3874,-0.6356,0.1922,-0.6395
123,729864.0,689.52716,1.0,9.53,2.94,0.89,-20.5,-21.56,-22.5,-4.88,-4.44,0.37,-0.5532704738388341,0.10375247784374997,-0.19033590606785997,-78.92899912643803,22.162403204703928,-79.50909171234422,-0.3874,-0.6356,0.1922,-0.6395
124,729899.0,689.534942,1.0,9.31,2.83,1.11,-21.56,-21.56,-22.5,-2.13,-0.81,-0.19,-0.34464889277869826,0.2588075257607163,0.022410846886661062,-78.92899912643803,22.325902171258928,-79.36011799864445,-0.3885,-0.6356,0.1936,-0.6385
125,729899.0,689.534942,1.0,9.31,2.83,1.11,-21.56,-21.56,-22.5,-2.13,-0.81,-0.19,-0.34464889277869826,0.2588075257607163,0.022410846886661062,-78.92899912643803,22.325902171258928,-79.36011799864445,-0.3885,-0.6356,0.1936,-0.6385
126,729935.0,689.598069,1.0,9.41,2.76,0.93,-21.19,-21.56,-21.69,-0.81,-2.0,-0.19,-0.3772491041876094,0.05613864438694338,-0.036374513125830184,-79.01808630319101,22.337582426465424,-79.19643226469245,-0.3893,-0.6362,0.1937,-0.6374
127,729935.0,689.598069,1.0,9.41,2.76,0.93,-21.19,-21.56,-21.69,-0.81,-2.0,-0.19,-0.3772491041876094,0.05613864438694338,-0.036374513125830184,-79.01808630319101,22.337582426465424,-79.19643226469245,-0.3893,-0.6362,0.1937,-0.6374
128,729968.0,689.601992,1.0,9.28,2.76,0.96,-21.19,-21.56,-21.69,-0.94,0.37,0.69,-0.35761287824985144,0.1064767032936662,0.08459385220052695,-79.06265131180031,22.314222150985408,-79.10723062788524,-0.3898,-0.6365,0.1935,-0.6368
129,729968.0,689.601992,1.0,9.28,2.76,0.96,-21.19,-21.56,-21.69,-0.94,0.37,0.69,-0.35761287824985144,0.1064767032936662,0.08459385220052695,-79.06265131180031,22.314222150985408,-79.10723062788524,-0.3898,-0.6365,0.1935,-0.6368
130,730005.0,689.621296,1.0,9.44,2.78,0.94,-20.37,-21.56,-21.25,-0.12,-0.37,-0.12,-0.3506401694679221,0.059138748312364875,-0.0725784152156077,-79.12209358290184,22.279183498407725,-79.01808630319101,-0.3903,-0.6369,0.1932,-0.6362
131,730005.0,689.621296,1.0,9.44,2.78,0.94,-20.37,-21.56,-21.25,-0.12,-0.37,-0.12,-0.3506401694679221,0.059138748312364875,-0.0725784152156077,-79.12209358290184,22.279183498407725,-79.01808630319101,-0.3903,-0.6369,0.1932,-0.6362
132,730040.0,689.6619910000001,1.0,9.38,2.69,1.11,-20.06,-22.75,-21.25,-1.5,0.06,0.44,-0.17036279469389748,0.14679784595091006,-0.01180338689390048,-79.16669200758267,22.267504416511226,-78.97353558155666,-0.3903,-0.6372,0.1931,-0.6359
133,730040.0,689.6619910000001,1.0,9.38,2.69,1.11,-20.06,-22.75,-21.25,-1.5,0.06,0.44,-0.17036279469389748,0.14679784595091006,-0.01180338689390048,-79.16669200758267,22.267504416511226,-78.97353558155666,-0.3903,-0.6372,0.1931,-0.6359
134,730073.0,689.677715,1.0,9.5,2.82,0.89,-20.06,-22.75,-21.25,-4.25,-0.37,0.69,-0.395071183155132,0.029720034954415775,-0.13505686953516793,-79.13695813068195,22.325902171258928,-78.89931607211645,-0.3911,-0.637,0.1936,-0.6354
135,730073.0,689.677715,1.0,9.5,2.82,0.89,-20.06,-22.75,-21.25,-4.25,-0.37,0.69,-0.395071183155132,0.029720034954415775,-0.13505686953516793,-79.13695813068195,22.325902171258928,-78.89931607211645,-0.3911,-0.637,0.1936,-0.6354
136,730109.0,689.714863,1.0,9.33,2.75,0.95,-21.25,-22.0,-20.87,-0.37,-2.38,0.37,-0.3053924800757393,0.07852523890216513,0.038616972825668235,-79.22617890812475,22.325902171258928,-78.7806470501436,-0.3913,-0.6376,0.1936,-0.6346
137,730109.0,689.714863,1.0,9.33,2.75,0.95,-21.25,-22.0,-20.87,-0.37,-2.38,0.37,-0.3053924800757393,0.07852523890216513,0.038616972825668235,-79.22617890812475,22.325902171258928,-78.7806470501436,-0.3913,-0.6376,0.1936,-0.6346
138,730144.0,689.7716730000001,1.0,9.39,2.81,1.03,-21.19,-22.37,-22.87,-1.81,-0.5,0.5,-0.2793517910008455,0.15704906884061098,-0.04354787450185782,-79.24105462662456,22.38430579933233,-78.66207885203869,-0.3923,-0.6377,0.1941,-0.6338
139,730144.0,689.7716730000001,1.0,9.39,2.81,1.03,-21.19,-22.37,-22.87,-1.81,-0.5,0.5,-0.2793517910008455,0.15704906884061098,-0.04354787450185782,-79.24105462662456,22.38430579933233,-78.66207885203869,-0.3923,-0.6377,0.1941,-0.6338
140,730179.0,689.788297,1.0,9.45,2.72,0.94,-21.19,-22.37,-22.87,0.56,-0.5,-0.06,-0.2538541588800354,0.016078846264748092,-0.06856136668588242,-79.27081086102143,22.36094364221954,-78.60283244211628,-0.3926,-0.6379,0.1939,-0.6334
141,730179.0,689.788297,1.0,9.45,2.72,0.94,-21.19,-22.37,-22.87,0.56,-0.5,-0.06,-0.2538541588800354,0.016078846264748092,-0.06856136668588242,-79.27081086102143,22.36094364221954,-78.60283244211628,-0.3926,-0.6379,0.1939,-0.6334
142,730214.0,689.832521,1.0,9.37,2.69,0.95,-21.19,-21.25,-22.06,0.44,-0.56,-0.31,-0.22390954241021652,0.025195965934882825,0.014575159593691822,-79.30057349706065,22.44271531767953,-78.48441476201302,-0.3936,-0.6381,0.1946,-0.6326
143,730214.0,689.832521,1.0,9.37,2.69,0.95,-21.19,-21.25,-22.06,0.44,-0.56,-0.31,-0.22390954241021652,0.025195965934882825,0.014575159593691822,-79.30057349706065,22.44271531767953,-78.48441476201302,-0.3936,-0.6381,0.1946,-0.6326
144,730249.0,689.891353,1.0,9.34,2.73,1.13,-20.87,-22.37,-20.87,-2.19,-1.69,-0.81,-0.13196432173918504,0.19529101169098784,0.013292718733239894,-79.3303425408847,22.466080778094224,-78.41045445111573,-0.3938,-0.6383,0.1948,-0.6321
145,730249.0,689.891353,1.0,9.34,2.73,1.13,-20.87,-22.37,-20.87,-2.19,-1.69,-0.81,-0.13196432173918504,0.19529101169098784,0.013292718733239894,-79.3303425408847,22.466080778094224,-78.41045445111573,-0.3938,-0.6383,0.1948,-0.6321
146,730284.0,689.908051,1.0,9.38,2.68,1.01,-20.87,-22.37,-20.87,-1.63,-0.5,-0.5,-0.16559866907281062,0.0641587484514532,0.0007660145656167572,-79.3303425408847,22.477763863075143,-78.38088122929612,-0.39399999999999996,-0.6383,0.1949,-0.6319
147,730284.0,689.908051,1.0,9.38,2.68,1.01,-20.87,-22.37,-20.87,-1.63,-0.5,-0.5,-0.16559866907281062,0.0641587484514532,0.0007660145656167572,-79.3303425408847,22.477763863075143,-78.38088122929612,-0.39399999999999996,-0.6383,0.1949,-0.6319
148,730316.0,689.9558519999999,1.0,9.37,2.75,0.88,-21.19,-21.25,-21.25,-3.5,-1.19,-0.37,-0.2981315312693327,0.009417355875372957,0.006403630470746435,-79.31545721761533,22.559552093060894,-78.27742390598648,-0.395,-0.6382,0.1956,-0.6312
149,730316.0,689.9558519999999,1.0,9.37,2.75,0.88,-21.19,-21.25,-21.25,-3.5,-1.19,-0.37,-0.2981315312693327,0.009417355875372957,0.006403630470746435,-79.31545721761533,22.559552093060894,-78.27742390598648,-0.395,-0.6382,0.1956,-0.6312
