acc_x,acc_y,acc_z,lin_x,lin_y,lin_z,eul_x,eul_y,eul_z
-1.02,0.88,-9.7,-0.0891246874892384,-0.1108161419000342,0.0145829775182608,-122.06628574219845,-57.17496080016431,2.6243761106355543
-1.02,0.88,-9.7,-0.0891246874892384,-0.1108161419000342,0.0145829775182608,-122.06628574219845,-57.17496080016431,2.6243761106355543
-1.09,1.04,-9.68,0.0010693320621927,0.030520654885417,0.0101624995662703,-122.04262905399636,-57.18801133423565,2.6014518395409367
-1.09,1.04,-9.68,0.0010693320621927,0.030520654885417,0.0101624995662703,-122.04262905399636,-57.18801133423565,2.6014518395409367
-1.13,0.9,-9.58,-0.1383385902013808,0.005999202543715,0.1193321852470479,-121.99534211175566,-57.21411483330135,2.578527672575933
-1.13,0.9,-9.58,-0.1383385902013808,0.005999202543715,0.1193321852470479,-121.99534211175566,-57.21411483330135,2.578527672575933
-1.05,1.04,-9.65,0.009336631832765,0.0028496706282254,0.0441449574054839,-121.99534211175566,-57.22716779893635,2.521217704700676
-1.05,1.04,-9.65,0.009336631832765,0.0028496706282254,0.0441449574054839,-121.99534211175566,-57.22716779893635,2.521217704700676
-1.01,1.11,-9.77,0.0684885506999788,-0.0104511449350021,-0.0776962146968838,-121.99534211175566,-57.22716779893635,2.4295230620087382
-1.01,1.11,-9.77,0.0684885506999788,-0.0104511449350021,-0.0776962146968838,-121.99534211175566,-57.22716779893635,2.4295230620087382
-1.01,1.12,-9.85,0.0671461508522622,-0.0175819448852336,-0.1578962651161255,-121.99534211175566,-57.22716779893635,2.3951379752687134
-1.01,1.12,-9.85,0.0671461508522622,-0.0175819448852336,-0.1578962651161255,-121.99534211175566,-57.22716779893635,2.3951379752687134
-1.05,1.09,-9.73,0.024481435052155,0.0131470284114479,-0.0403154114849897,-121.97171183603344,-57.25327616401329,2.4065996467302937
-1.05,1.09,-9.73,0.024481435052155,0.0131470284114479,-0.0403154114849897,-121.97171183603344,-57.25327616401329,2.4065996467302937
-1.09,0.93,-9.63,-0.1225680720510429,-0.0220250366376293,0.0714359825541173,-121.92447762133864,-57.29244480095832,2.4295230620087382
-1.09,0.93,-9.63,-0.1225680720510429,-0.0220250366376293,0.0714359825541173,-121.92447762133864,-57.29244480095832,2.4295230620087382
-0.95,0.98,-9.87,-0.0108457025839051,-0.1444510569369933,-0.156221888310382,-121.92447762133864,-57.30550263837881,2.4295230620087382
-0.95,0.98,-9.87,-0.0108457025839051,-0.1444510569369933,-0.156221888310382,-121.92447762133864,-57.30550263837881,2.4295230620087382
-1.11,0.92,-9.53,-0.1329358811743524,0.0056977302790921,0.1691349889939974,-121.90087366081208,-57.31856128888758,2.452446574526375
-1.11,0.92,-9.53,-0.1329358811743524,0.0056977302790921,0.1691349889939974,-121.90087366081208,-57.31856128888758,2.452446574526375
-1.1,0.95,-9.59,-0.1033104326909687,0.0060513005669433,0.1076866359977071,-121.90087366081208,-57.31856128888758,2.452446574526375
-1.1,0.95,-9.59,-0.1033104326909687,0.0060513005669433,0.1076866359977071,-121.90087366081208,-57.31856128888758,2.452446574526375
-1.0,1.0,-9.86,-0.0222279855904683,-0.0852236198323553,-0.1538641860889527,-121.92447762133864,-57.30550263837881,2.4065996467302937
-1.0,1.0,-9.86,-0.0222279855904683,-0.0852236198323553,-0.1538641860889527,-121.92447762133864,-57.30550263837881,2.4065996467302937
-1.01,1.04,-9.7,0.0022568290556012,-0.0362299006200446,-0.0010195652445226,-121.92447762133864,-57.29244480095832,2.372214704126748
-1.01,1.04,-9.7,0.0022568290556012,-0.0362299006200446,-0.0010195652445226,-121.92447762133864,-57.29244480095832,2.372214704126748
-1.08,1.12,-9.63,0.0339985456028777,0.0705923079829953,0.0520838474255818,-121.92447762133864,-57.29244480095832,2.383676327772471
-1.08,1.12,-9.63,0.0339985456028777,0.0705923079829953,0.0520838474255818,-121.92447762133864,-57.29244480095832,2.383676327772471
-1.13,0.99,-9.73,-0.1030630061579575,0.0294815917320115,-0.0380647674531715,-121.92447762133864,-57.29244480095832,2.3951379752687134
-1.13,0.99,-9.73,-0.1030630061579575,0.0294815917320115,-0.0380647674531715,-121.92447762133864,-57.29244480095832,2.3951379752687134
-0.94,0.9,-9.89,-0.0815920841706746,-0.1961489497853052,-0.1663419443113376,-121.92447762133864,-57.2793877763047,2.383676327772471
-0.94,0.9,-9.89,-0.0815920841706746,-0.1961489497853052,-0.1663419443113376,-121.92447762133864,-57.2793877763047,2.383676327772471
-1.13,0.97,-9.46,-0.1137367063173498,0.0537291099629793,0.2309736716992834,-121.92447762133864,-57.2793877763047,2.3951379752687134
-1.13,0.97,-9.46,-0.1137367063173498,0.0537291099629793,0.2309736716992834,-121.92447762133864,-57.2793877763047,2.3951379752687134
-1.06,0.9,-9.43,-0.1356685461469989,-0.0363774581556801,0.2757124424391257,-121.94809034282368,-57.26633156409672,2.383676327772471
-1.06,0.9,-9.43,-0.1356685461469989,-0.0363774581556801,0.2757124424391257,-121.94809034282368,-57.26633156409672,2.383676327772471
-1.33,0.59,-9.21,-0.5381352191760063,0.0591438689398523,0.4981585814806007,-121.97171183603344,-57.25327616401329,2.360753104216733
-1.33,0.59,-9.21,-0.5381352191760063,0.0591438689398523,0.4981585814806007,-121.97171183603344,-57.25327616401329,2.360753104216733
-1.35,0.35,-8.93,-0.7644952049336209,0.0002799781616097,0.8007937384751838,-121.99534211175566,-57.21411483330135,2.200293133435064
-1.35,0.35,-8.93,-0.7644952049336209,0.0002799781616097,0.8007937384751838,-121.99534211175566,-57.21411483330135,2.200293133435064
-1.4,0.25,-8.57,-0.9303804334799222,0.0518505649231054,1.1695727300020715,-122.11362560713808,-57.09667459203971,1.7762402933693409
-1.4,0.25,-8.57,-0.9303804334799222,0.0518505649231054,1.1695727300020715,-122.11362560713808,-57.09667459203971,1.7762402933693409
-1.25,-0.12,-8.12,-1.2151494177352011,-0.1872858136596245,1.6826340031804676,-122.23213029596668,-56.966262181573775,1.2490727279396536
-1.25,-0.12,-8.12,-1.2151494177352011,-0.1872858136596245,1.6826340031804676,-122.23213029596668,-56.966262181573775,1.2490727279396536
-1.23,0.53,-7.3,-0.7774632561497294,0.2762312838604009,2.4308078675276725,-122.541287565057,-56.58852015944324,0.1145915781247664
-1.23,0.53,-7.3,-0.7774632561497294,0.2762312838604009,2.4308078675276725,-122.541287565057,-56.58852015944324,0.1145915781247664
-1.19,0.81,-6.56,-0.6186213918336855,0.5251701320310694,3.1397688771669072,-122.7322966604894,-56.28940782045202,-1.1115555540621913
-1.19,0.81,-6.56,-0.6186213918336855,0.5251701320310694,3.1397688771669072,-122.7322966604894,-56.28940782045202,-1.1115555540621913
-1.12,1.11,-6.0,-0.5202607302975149,0.7835391323111958,3.6746115786716302,-122.97188128580086,-55.88691564523484,-3.40386984812725
-1.12,1.11,-6.0,-0.5202607302975149,0.7835391323111958,3.6746115786716302,-122.97188128580086,-55.88691564523484,-3.40386984812725
0.03,0.88,-6.88,-0.4835715291786469,-0.2052865935649452,2.890457695655772,-123.52645816564733,-55.05832168724145,-6.351624225020216
0.03,0.88,-6.88,-0.4835715291786469,-0.2052865935649452,2.890457695655772,-123.52645816564733,-55.05832168724145,-6.351624225020216
1.15,0.47,-7.05,-0.4669774162067881,-1.1900824496116789,2.763104312217526,-123.86648635871312,-54.36161866399844,-8.935735653853007
1.15,0.47,-7.05,-0.4669774162067881,-1.1900824496116789,2.763104312217526,-123.86648635871312,-54.36161866399844,-8.935735653853007
1.52,0.91,-6.78,-0.2687200191182507,-1.0013242488312324,2.8761349181299902,-124.33100356461244,-52.93626652690735,-12.907367253850758
1.52,0.91,-6.78,-0.2687200191182507,-1.0013242488312324,2.8761349181299902,-124.33100356461244,-52.93626652690735,-12.907367253850758
2.54,1.36,-6.66,0.3363378445217345,-1.3548606762111617,2.685692943367856,-124.38010760157816,-51.78703388751428,-16.2808838756779
2.54,1.36,-6.66,0.3363378445217345,-1.3548606762111617,2.685692943367856,-124.38010760157816,-51.78703388751428,-16.2808838756779
3.55,2.33,-6.14,1.2406960199559696,-1.2696457255314109,2.5554657437763857,-124.35555059912924,-49.555559524438046,-21.403893300909647
3.55,2.33,-6.14,1.2406960199559696,-1.2696457255314109,2.5554657437763857,-124.35555059912924,-49.555559524438046,-21.403893300909647
5.53,2.46,-7.46,1.3457220907097975,-2.419337525169169,0.6077403910363389,-123.74483108000663,-47.85746338279603,-25.71182517460623
5.53,2.46,-7.46,1.3457220907097975,-2.419337525169169,0.6077403910363389,-123.74483108000663,-47.85746338279603,-25.71182517460623
5.89,2.33,-7.18,0.8029544021780202,-2.4189688396368134,0.5774976022502987,-122.27959441275604,-45.78458156617274,-31.257132968636736
5.89,2.33,-7.18,0.8029544021780202,-2.4189688396368134,0.5774976022502987,-122.27959441275604,-45.78458156617274,-31.257132968636736
6.75,2.71,-7.19,0.9131759122984642,-2.4748129865056585,-0.0748534501345421,-121.33697927503368,-43.70272222782621,-35.299808644002006
6.75,2.71,-7.19,0.9131759122984642,-2.4748129865056585,-0.0748534501345421,-121.33697927503368,-43.70272222782621,-35.299808644002006
7.11,3.16,-6.46,1.0407283067122008,-2.001651655150896,-0.0513201380679628,-120.06296278033024,-40.36359153375482,-40.57120935574602
7.11,3.16,-6.46,1.0407283067122008,-2.001651655150896,-0.0513201380679628,-120.06296278033024,-40.36359153375482,-40.57120935574602
7.41,3.28,-5.81,1.1063190836866437,-1.8458719678282327,0.0705617319399447,-118.81305169988,-37.640469908070976,-44.51874337646561
7.41,3.28,-5.81,1.1063190836866437,-1.8458719678282327,0.0705617319399447,-118.81305169988,-37.640469908070976,-44.51874337646561
7.72,3.8,-5.45,0.9121912481795038,-1.2750645224726254,-0.2572964222677747,-116.83785829536993,-33.548317235556404,-49.77021027536523
7.72,3.8,-5.45,0.9121912481795038,-1.2750645224726254,-0.2572964222677747,-116.83785829536993,-33.548317235556404,-49.77021027536523
8.16,5.06,-4.48,1.6460958137601946,-0.2309043584307471,-0.6574147813925021,-115.10854164041076,-30.080791981197944,-53.70561320811986
8.16,5.06,-4.48,1.6460958137601946,-0.2309043584307471,-0.6574147813925021,-115.10854164041076,-30.080791981197944,-53.70561320811986
10.27,5.02,-4.77,1.296817498582456,-0.8769574817582066,-2.4805551317847936,-112.4856431571934,-25.512050354420897,-58.81265977015818
10.27,5.02,-4.77,1.296817498582456,-0.8769574817582066,-2.4805551317847936,-112.4856431571934,-25.512050354420897,-58.81265977015818
10.34,5.12,-4.35,0.6980914778920999,-0.4116002015659523,-2.497648174319627,-109.71042658552564,-20.94924459772563,-63.30956065668752
10.34,5.12,-4.35,0.6980914778920999,-0.4116002015659523,-2.497648174319627,-109.71042658552564,-20.94924459772563,-63.30956065668752
9.1,5.38,-1.96,1.7458608233208364,0.6752073202429089,-0.7807040160081478,-107.41388301314085,-17.54366623938741,-66.18605330414924
9.1,5.38,-1.96,1.7458608233208364,0.6752073202429089,-0.7807040160081478,-107.41388301314085,-17.54366623938741,-66.18605330414924
9.2,6.55,-0.96,1.625424828207841,1.894243364194576,-1.2492957399650066,-103.55241005030376,-12.757459245108164,-69.96133375784342
9.2,6.55,-0.96,1.625424828207841,1.894243364194576,-1.2492957399650066,-103.55241005030376,-12.757459245108164,-69.96133375784342
8.84,6.5,0.11,1.7140146579075797,2.2442363149757765,-0.7968049612389017,-100.52834892064112,-9.51055493545105,-72.4986290240276
8.84,6.5,0.11,1.7140146579075797,2.2442363149757765,-0.7968049612389017,-100.52834892064112,-9.51055493545105,-72.4986290240276
8.63,6.59,0.53,1.0072692720235097,2.510830450117677,-0.7226918153462538,-96.40412626430498,-5.628708719478254,-75.61348008001588
8.63,6.59,0.53,1.0072692720235097,2.510830450117677,-0.7226918153462538,-96.40412626430498,-5.628708719478254,-75.61348008001588
9.96,6.65,1.14,1.0904285558010267,2.2432855910081115,-1.962051513840392,-93.28764914604751,-3.0599582684028324,-77.96750667649074
9.96,6.65,1.14,1.0904285558010267,2.2432855910081115,-1.962051513840392,-93.28764914604751,-3.0599582684028324,-77.96750667649074
10.41,7.45,0.47,-0.8283664775674644,2.5068275779008866,-2.7281465469535298,-89.11102718958544,0.3666936147093117,-81.2189848647937
10.41,7.45,0.47,-0.8283664775674644,2.5068275779008866,-2.7281465469535298,-89.11102718958544,0.3666936147093117,-81.2189848647937
9.47,5.21,0.82,-0.3032920234648482,1.1195859472823075,-0.970731001669682,-86.72313671594557,1.94815034703792,-83.073454311338
9.47,5.21,0.82,-0.3032920234648482,1.1195859472823075,-0.970731001669682,-86.72313671594557,1.94815034703792,-83.073454311338
9.98,3.95,1.35,0.1887964189921844,0.0477136010471337,-1.0094250424750122,-83.73342264736426,3.5070491615651807,-85.28160489303416
9.98,3.95,1.35,0.1887964189921844,0.0477136010471337,-1.0094250424750122,-83.73342264736426,3.5070491615651807,-85.28160489303416
10.86,4.63,0.22,-1.5948269703600575,-0.3344592010954828,-1.888202028880684,-81.0982837378557,5.273072468222583,-87.00717615200406
10.86,4.63,0.22,-1.5948269703600575,-0.3344592010954828,-1.888202028880684,-81.0982837378557,5.273072468222583,-87.00717615200406
10.09,4.41,2.11,-0.5084510436804195,0.5694043107394364,-1.3793035251623351,-77.92328819790765,7.855673444559319,-88.32568102255905
10.09,4.41,2.11,-0.5084510436804195,0.5694043107394364,-1.3793035251623351,-77.92328819790765,7.855673444559319,-88.32568102255905
9.35,4.06,3.12,-0.0159569457010685,1.012773363708821,-0.8053495990221275,-75.07781120147467,10.304202691653051,-88.99851159744894
9.35,4.06,3.12,-0.0159569457010685,1.012773363708821,-0.8053495990221275,-75.07781120147467,10.304202691653051,-88.99851159744894
9.66,3.43,3.23,0.0788148315367792,0.3852517011266803,-0.9338699757324987,-72.81154842528053,11.916067673936476,-89.56218264522055
9.66,3.43,3.23,0.0788148315367792,0.3852517011266803,-0.9338699757324987,-72.81154842528053,11.916067673936476,-89.56218264522055
9.91,3.89,3.61,-0.5241377229973772,0.5658413654926321,-1.408402527582231,-69.27745617086707,14.303764676023915,-89.9664945721467
9.91,3.89,3.61,-0.5241377229973772,0.5658413654926321,-1.408402527582231,-69.27745617086707,14.303764676023915,-89.9664945721467
9.81,4.73,4.09,-1.26674542254624,1.2004548853112176,-1.6951482986483732,-66.52833488574433,16.269308165184984,-89.90170904203455
9.81,4.73,4.09,-1.26674542254624,1.2004548853112176,-1.6951482986483732,-66.52833488574433,16.269308165184984,-89.90170904203455
9.55,5.11,4.44,-1.8967589968698333,1.4515444196470142,-1.652997643168835,-63.296099194215,18.669230437467,-89.49762416816229
9.55,5.11,4.44,-1.8967589968698333,1.4515444196470142,-1.652997643168835,-63.296099194215,18.669230437467,-89.49762416816229
9.05,5.54,4.5,-2.4937309241821515,1.7332292347291816,-1.3118626027566158,-61.48758848560482,19.92458285893285,-89.09494687724344
9.05,5.54,4.5,-2.4937309241821515,1.7332292347291816,-1.3118626027566158,-61.48758848560482,19.92458285893285,-89.09494687724344
8.99,5.22,4.72,-2.3081907446649206,1.5246473747693263,-1.270109718837105,-60.01323233461206,20.681275164117206,-88.59755263252764
8.99,5.22,4.72,-2.3081907446649206,1.5246473747693263,-1.270109718837105,-60.01323233461206,20.681275164117206,-88.59755263252764
8.71,4.71,4.49,-2.014351026369708,1.1441581734432151,-0.8160423148845108,-59.56382572725951,20.57644875978384,-88.54952961516125
8.71,4.71,4.49,-2.014351026369708,1.1441581734432151,-0.8160423148845108,-59.56382572725951,20.57644875978384,-88.54952961516125
8.23,3.73,4.53,-1.023960433356616,0.8783222096241625,-0.2106727524624094,-59.90739833750701,19.52912606682039,-88.78984149659982
8.23,3.73,4.53,-1.023960433356616,0.8783222096241625,-0.2106727524624094,-59.90739833750701,19.52912606682039,-88.78984149659982
8.51,2.54,4.16,-0.1201096890815295,-0.188669435611511,0.0021980771919345,-60.26481476661726,18.437010245615284,-88.9824468050114
8.51,2.54,4.16,-0.1201096890815295,-0.188669435611511,0.0021980771919345,-60.26481476661726,18.437010245615284,-88.9824468050114
8.34,2.44,4.08,0.0326631596229645,-0.3162023572862869,0.2121438018025099,-60.45039656824655,17.578451378167774,-88.77380536718846
8.34,2.44,4.08,0.0326631596229645,-0.3162023572862869,0.2121438018025099,-60.45039656824655,17.578451378167774,-88.77380536718846
7.96,2.57,4.53,0.2674209647620539,0.1809000025770786,0.2996440982098161,-60.56979164506137,17.033669594732867,-88.46953482425532
7.96,2.57,4.53,0.2674209647620539,0.1809000025770786,0.2996440982098161,-60.56979164506137,17.033669594732867,-88.46953482425532
7.79,2.47,4.82,0.5687674315692444,0.3824097624898361,0.3436871245397643,-60.7025381110459,16.63981448789728,-88.37361278323944
7.79,2.47,4.82,0.5687674315692444,0.3824097624898361,0.3436871245397643,-60.7025381110459,16.63981448789728,-88.37361278323944
7.7,2.42,4.84,0.6515712727667602,0.3660628714470964,0.4251014684060284,-60.7290982054201,16.1419863535435,-88.59755263252764
7.7,2.42,4.84,0.6515712727667602,0.3660628714470964,0.4251014684060284,-60.7290982054201,16.1419863535435,-88.59755263252764
7.72,2.46,4.82,0.5691460267371059,0.3089803603978538,0.4011726629831411,-60.45039656824655,15.806415466969176,-89.17537067204425
7.72,2.46,4.82,0.5691460267371059,0.3089803603978538,0.4011726629831411,-60.45039656824655,15.806415466969176,-89.17537067204425
7.79,2.39,4.9,0.628413659705645,0.2536663594720365,0.3226134305656725,-60.17208928443668,15.621331474060083,-89.62677723650367
7.79,2.39,4.9,0.628413659705645,0.2536663594720365,0.3226134305656725,-60.17208928443668,15.621331474060083,-89.62677723650367
7.86,2.51,4.79,0.4047779827003264,0.1650948282212487,0.2760310021376018,-59.90739833750701,15.216602467156427,-90.5512225500058
7.86,2.51,4.79,0.4047779827003264,0.1650948282212487,0.2760310021376018,-59.90739833750701,15.216602467156427,-90.5512225500058
8.06,2.46,4.4,0.1556331926415789,-0.25621291640004,0.3047905371991533,-59.65626789743028,14.985414779298193,-91.17172192038392
8.06,2.46,4.4,0.1556331926415789,-0.25621291640004,0.3047905371991533,-59.65626789743028,14.985414779298193,-91.17172192038392
8.3,2.66,4.37,-0.0720605758223458,-0.3142085215192156,0.0619806737264347,-59.471426215105645,14.985414779298193,-91.40119221425032
8.3,2.66,4.37,-0.0720605758223458,-0.3142085215192156,0.0619806737264347,-59.471426215105645,14.985414779298193,-91.40119221425032
8.49,2.53,3.99,-0.2272991704520026,-0.7566203137635175,0.1227994854622895,-59.31312595403664,14.84673166768115,-91.66402199436024
8.49,2.53,3.99,-0.2272991704520026,-0.7566203137635175,0.1227994854622895,-59.31312595403664,14.84673166768115,-91.66402199436024
8.26,2.71,4.27,-0.2092944301919402,-0.3441513240842122,0.1297519583948432,-59.22084162921026,15.089441590206311,-91.53252970720744
8.26,2.71,4.27,-0.2092944301919402,-0.3441513240842122,0.1297519583948432,-59.22084162921026,15.089441590206311,-91.53252970720744
8.04,2.78,4.74,0.0168388869708353,0.1398518761110931,0.0692089652807759,-59.19448243873018,15.39003407585724,-91.2372369350846
8.04,2.78,4.74,0.0168388869708353,0.1398518761110931,0.0692089652807759,-59.19448243873018,15.39003407585724,-91.2372369350846
8.13,2.77,4.67,-0.0280494410869062,0.0355330155508852,0.0303188561781713,-59.14177438587889,15.424724640986325,-91.2372369350846
8.13,2.77,4.67,-0.0280494410869062,0.0355330155508852,0.0303188561781713,-59.14177438587889,15.424724640986325,-91.2372369350846
8.08,2.79,4.6,-0.0834989107177722,0.0337089787125846,0.0998280877228836,-59.16812669186737,15.424724640986325,-91.28639832349864
8.08,2.79,4.6,-0.0834989107177722,0.0337089787125846,0.0998280877228836,-59.16812669186737,15.424724640986325,-91.28639832349864
7.99,2.65,4.61,0.0446539758495325,0.0216412716259404,0.209137943336394,-59.18130413501813,15.459416628401115,-91.2208545945492
7.99,2.65,4.61,0.0446539758495325,0.0216412716259404,0.209137943336394,-59.18130413501813,15.459416628401115,-91.2208545945492
7.99,2.65,4.66,0.071156576668646,0.0577976710633774,0.1853301232462687,-59.18130413501813,15.470980940849389,-91.2372369350846
7.99,2.65,4.66,0.071156576668646,0.0577976710633774,0.1853301232462687,-59.18130413501813,15.470980940849389,-91.2372369350846
7.96,2.78,4.7,-0.0199118327605084,0.1702809730126722,0.1551937415307129,-59.154950108935175,15.470980940849389,-91.33558129123824
7.96,2.78,4.7,-0.0199118327605084,0.1702809730126722,0.1551937415307129,-59.154950108935175,15.470980940849389,-91.33558129123824
8.02,2.9,4.51,-0.2430995490927225,0.0705994127459646,0.1626664697283502,-59.06273808576779,15.598198868035936,-91.25362166916472
8.02,2.9,4.51,-0.2430995490927225,0.0705994127459646,0.1626664697283502,-59.06273808576779,15.598198868035936,-91.25362166916472
7.99,2.79,4.66,-0.062117731225272,0.126613629985046,0.1464268982197136,-59.07590865675504,15.52880488350912,-91.30279024652516
7.99,2.79,4.66,-0.062117731225272,0.126613629985046,0.1464268982197136,-59.07590865675504,15.52880488350912,-91.30279024652516
8.02,2.7,4.73,0.0491753783359537,0.1110154017385305,0.1129119509942206,-59.089080085565726,15.470980940849389,-91.38478587581724
8.02,2.7,4.73,0.0491753783359537,0.1110154017385305,0.1129119509942206,-59.089080085565726,15.470980940849389,-91.38478587581724
8.06,2.67,4.57,-0.0262372445027477,-0.0293754963353525,0.1642515075492774,-59.07590865675504,15.482545411826456,-91.41760096012828
8.06,2.67,4.57,-0.0262372445027477,-0.0293754963353525,0.1642515075492774,-59.07590865675504,15.482545411826456,-91.41760096012828
7.99,2.68,4.75,0.0696155561101614,0.1364696795383757,0.1339290952641381,-59.07590865675504,15.470980940849389,-91.48326004604112
7.99,2.68,4.75,0.0696155561101614,0.1364696795383757,0.1339290952641381,-59.07590865675504,15.470980940849389,-91.48326004604112
8.01,2.75,4.65,-0.0610656910895987,0.1009589511678821,0.1458437048944585,-58.98373265502141,15.690733139619653,-91.33558129123824
8.01,2.75,4.65,-0.0610656910895987,0.1009589511678821,0.1458437048944585,-58.98373265502141,15.690733139619653,-91.33558129123824
7.98,2.84,4.58,-0.1793263178205651,0.1221643218976134,0.1798479375188009,-58.98373265502141,15.690733139619653,-91.41760096012828
7.98,2.84,4.58,-0.1793263178205651,0.1221643218976134,0.1798479375188009,-58.98373265502141,15.690733139619653,-91.41760096012828
8.08,2.69,4.62,-0.0433830878191333,0.021030555600725,0.1182767813723018,-58.99689808623479,15.644464720667994,-91.5161040700392
8.08,2.69,4.62,-0.0433830878191333,0.021030555600725,0.1182767813723018,-58.99689808623479,15.644464720667994,-91.5161040700392
7.95,2.58,4.78,0.1478680026525622,0.1489330149701642,0.1804745387462692,-59.02323151633205,15.690733139619653,-91.48326004604112
7.95,2.58,4.78,0.1478680026525622,0.1489330149701642,0.1804745387462692,-59.02323151633205,15.690733139619653,-91.48326004604112
7.98,2.6,4.71,0.0804337325848691,0.0931053468772786,0.1832741989078812,-58.95740435856217,15.725436142775802,-91.48326004604112
7.98,2.6,4.71,0.0804337325848691,0.0931053468772786,0.1832741989078812,-58.95740435856217,15.725436142775802,-91.48326004604112
7.95,2.78,4.73,-0.0642161925827059,0.2158246273122313,0.149885738050985,-58.891598569681705,15.817984589415364,-91.4504256798068
7.95,2.78,4.73,-0.0642161925827059,0.2158246273122313,0.149885738050985,-58.891598569681705,15.817984589415364,-91.4504256798068
8.18,2.74,4.6,-0.1323182212958132,-0.0253618203925651,0.0310759162758405,-58.77320186377301,15.933684759016296,-91.35198041570484
8.18,2.74,4.6,-0.1323182212958132,-0.0253618203925651,0.0310759162758405,-58.77320186377301,15.933684759016296,-91.35198041570484
8.1,2.59,4.75,0.0833708074910198,0.0439347705563055,0.0664385523775994,-58.78635364877629,15.933684759016296,-91.33558129123824
8.1,2.59,4.75,0.0833708074910198,0.0439347705563055,0.0664385523775994,-58.78635364877629,15.933684759016296,-91.33558129123824
8.1,2.62,4.51,-0.0808036467256426,-0.0967949024035517,0.1734469232687434,-58.77320186377301,16.003112701402525,-91.28639832349864
8.1,2.62,4.51,-0.0808036467256426,-0.0967949024035517,0.1734469232687434,-58.77320186377301,16.003112701402525,-91.28639832349864
8.02,2.71,4.73,-0.0298888309858426,0.1389945758733146,0.1104039652884161,-58.73375160745704,16.072546557241562,-91.2372369350846
8.02,2.71,4.73,-0.0298888309858426,0.1389945758733146,0.1104039652884161,-58.73375160745704,16.072546557241562,-91.2372369350846
8.09,2.63,4.74,0.0372128821679367,0.0681909140262577,0.0687567370480479,-58.720603220456965,16.118839093056636,-91.17172192038392
8.09,2.63,4.74,0.0372128821679367,0.0681909140262577,0.0687567370480479,-58.720603220456965,16.118839093056636,-91.17172192038392
8.05,2.77,4.74,-0.0780599450419693,0.1608368988802293,0.0644203713709004,-58.70745568211353,16.15356023236983,-91.15534914020606
8.05,2.77,4.74,-0.0780599450419693,0.1608368988802293,0.0644203713709004,-58.70745568211353,16.15356023236983,-91.15534914020606
8.05,2.65,4.75,0.0278946586709316,0.1060010547971392,0.0919453897506716,-58.66801815565057,16.257732621833743,-90.97540577406772
8.05,2.65,4.75,0.0278946586709316,0.1060010547971392,0.0919453897506716,-58.66801815565057,16.257732621833743,-90.97540577406772
8.08,2.67,4.72,-0.0089969613561542,0.0778633144522868,0.0758968760661229,-58.65487400856189,16.269308165184984,-90.97540577406772
8.08,2.67,4.72,-0.0089969613561542,0.0778633144522868,0.0758968760661229,-58.65487400856189,16.269308165184984,-90.97540577406772
8.04,2.6,4.68,0.0281021039788458,0.0374229161834884,0.1473638049907499,-58.64173070844467,16.269308165184984,-90.95906154292842
8.04,2.6,4.68,0.0281021039788458,0.0374229161834884,0.1473638049907499,-58.64173070844467,16.269308165184984,-90.95906154292842
8.06,2.71,4.56,-0.1321612101263156,-0.0008437078837839,0.1586536949273753,-58.62858825496232,16.30403579859025,-90.926380189859
8.06,2.71,4.56,-0.1321612101263156,-0.0008437078837839,0.1586536949273753,-58.62858825496232,16.30403579859025,-90.926380189859
8.05,2.75,4.69,-0.0925287028049647,0.1108410360224481,0.0937589420352953,-58.61544664777843,16.315612011260463,-90.91004306520378
8.05,2.75,4.69,-0.0925287028049647,0.1108410360224481,0.0937589420352953,-58.61544664777843,16.315612011260463,-90.91004306520378
8.03,2.68,4.68,-0.0382582192065352,0.0790310365144488,0.1341120494964922,-58.61544664777843,16.30403579859025,-90.91004306520378
8.03,2.68,4.68,-0.0382582192065352,0.0790310365144488,0.1341120494964922,-58.61544664777843,16.30403579859025,-90.91004306520378
8.06,2.74,4.59,-0.1408120482538651,0.0320119676017225,0.1361563620828132,-58.60230588655673,16.327188391573927,-90.87737591284896
8.06,2.74,4.59,-0.1408120482538651,0.0320119676017225,0.1361563620828132,-58.60230588655673,16.327188391573927,-90.87737591284896
