,TIME,ELAPSED_SECONDS,PSTATE,acc_x,acc_y,acc_z,mag_x,mag_y,mag_z,gyr_x,gyr_y,gyr_z,lin_x,lin_y,lin_z,eul_x,eul_y,eul_z,qua_w,qua_x,qua_y,qua_z
0,1302413.0,1263.106413,1.0,-0.68,1.48,-9.7,20.06,-11.19,27.06,-1.75,-0.94,-0.06,0.02370381646865688,-0.09616157159810036,-0.02864313651772044,-123.40547411170807,-55.56287082864312,-0.14896906869365514,-0.0867,-0.8805,-0.4661,-0.0013
1,1302413.0,1263.106413,1.0,-0.68,1.48,-9.7,20.06,-11.19,27.06,-1.75,-0.94,-0.06,0.02370381646865688,-0.09616157159810036,-0.02864313651772044,-123.40547411170807,-55.56287082864312,-0.14896906869365514,-0.0867,-0.8805,-0.4661,-0.0013
2,1302448.0,1263.125055,1.0,-0.9,1.54,-9.5,19.69,-11.88,25.87,-1.06,-0.56,0.06,-0.03865359018507887,0.1409654076923227,0.14175296724274666,-123.40547411170807,-55.549919093881286,-0.14896906869365514,-0.0871,-0.8805,-0.466,-0.0013
3,1302448.0,1263.125055,1.0,-0.9,1.54,-9.5,19.69,-11.88,25.87,-1.06,-0.56,0.06,-0.03865359018507887,0.1409654076923227,0.14175296724274666,-123.40547411170807,-55.549919093881286,-0.14896906869365514,-0.0871,-0.8805,-0.466,-0.0013
4,1302484.0,1263.17061,1.0,-0.78,1.41,-9.52,20.06,-11.5,26.25,0.94,0.25,0.56,-0.0764881920939949,-0.031347185387329835,0.1515960431109704,-123.40547411170807,-55.549919093881286,-0.13750990383378794,-0.087,-0.8805,-0.466,-0.0012
5,1302484.0,1263.17061,1.0,-0.78,1.41,-9.52,20.06,-11.5,26.25,0.94,0.25,0.56,-0.0764881920939949,-0.031347185387329835,0.1515960431109704,-123.40547411170807,-55.549919093881286,-0.13750990383378794,-0.087,-0.8805,-0.466,-0.0012
6,1302519.0,1263.188884,1.0,-0.72,1.49,-9.68,20.06,-11.5,26.25,0.0,1.06,0.94,0.00518536303321146,-0.0562330693340164,-0.013620411446089165,-123.42965193046732,-55.52401793690186,-0.1718874029970642,-0.0869,-0.8806,-0.4658,-0.0015
7,1302519.0,1263.188884,1.0,-0.72,1.49,-9.68,20.06,-11.5,26.25,0.0,1.06,0.94,0.00518536303321146,-0.0562330693340164,-0.013620411446089165,-123.42965193046732,-55.52401793690186,-0.1718874029970642,-0.0869,-0.8806,-0.4658,-0.0015
8,1302554.0,1263.25629,1.0,-0.72,1.33,-9.73,19.69,-11.5,26.25,1.44,1.25,1.06,-0.12937546776690134,-0.14133917754634884,-0.038322586311789315,-123.45383923298037,-55.49811986129514,-0.19480574417599014,-0.0864,-0.8807,-0.4656,-0.0017
9,1302554.0,1263.25629,1.0,-0.72,1.33,-9.73,19.69,-11.5,26.25,1.44,1.25,1.06,-0.12937546776690134,-0.14133917754634884,-0.038322586311789315,-123.45383923298037,-55.49811986129514,-0.19480574417599014,-0.0864,-0.8807,-0.4656,-0.0017
10,1302589.0,1263.35876,1.0,-0.66,1.36,-9.83,19.69,-11.5,27.06,-0.06,1.37,2.06,-0.08304838824644402,-0.18235286715342086,-0.1368881226729659,-123.52645816564731,-55.446332944514495,-0.2291832708413497,-0.0862,-0.8809999999999999,-0.4652,-0.002
11,1302589.0,1263.35876,1.0,-0.66,1.36,-9.83,19.69,-11.5,27.06,-0.06,1.37,2.06,-0.08304838824644402,-0.18235286715342086,-0.1368881226729659,-123.52645816564731,-55.446332944514495,-0.2291832708413497,-0.0862,-0.8809999999999999,-0.4652,-0.002
12,1302624.0,1263.493755,1.0,-0.75,1.47,-9.67,19.69,-11.5,27.06,-1.88,-2.75,1.94,-0.032805593371409564,-0.033774211962164014,-0.003043323221163518,-123.5991628945627,-55.35573541687352,-0.20626491763025406,-0.0867,-0.8813,-0.4645,-0.0018
13,1302624.0,1263.493755,1.0,-0.75,1.47,-9.67,19.69,-11.5,27.06,-1.88,-2.75,1.94,-0.032805593371409564,-0.033774211962164014,-0.003043323221163518,-123.5991628945627,-55.35573541687352,-0.20626491763025406,-0.0867,-0.8813,-0.4645,-0.0018
14,1302659.0,1263.498533,1.0,-0.78,1.57,-9.78,20.06,-11.88,27.5,0.12,0.19,1.63,0.02039975172354925,0.02638273022382209,-0.12917345866086727,-123.6476805433651,-55.316919407310365,-0.20626491763025406,-0.0869,-0.8815,-0.4642,-0.0018
15,1302659.0,1263.498533,1.0,-0.78,1.57,-9.78,20.06,-11.88,27.5,0.12,0.19,1.63,0.02039975172354925,0.02638273022382209,-0.12917345866086727,-123.6476805433651,-55.316919407310365,-0.20626491763025406,-0.0869,-0.8815,-0.4642,-0.0018
16,1302695.0,1263.503565,1.0,-0.82,1.65,-9.7,20.5,-11.19,26.69,-0.12,-1.63,0.5,0.07001783286859058,0.11331547920169073,-0.06589562436931473,-123.69623657185858,-55.278110287373416,-0.19480574417599014,-0.087,-0.8817,-0.4639,-0.0017
17,1302695.0,1263.503565,1.0,-0.82,1.65,-9.7,20.5,-11.19,26.69,-0.12,-1.63,0.5,0.07001783286859058,0.11331547920169073,-0.06589562436931473,-123.69623657185858,-55.278110287373416,-0.19480574417599014,-0.087,-0.8817,-0.4639,-0.0017
18,1302730.0,1263.551797,1.0,-0.74,1.53,-9.79,20.5,-11.19,26.69,1.81,-0.44,0.12,0.01796740651180869,-0.029856055434316575,-0.12971683039918425,-123.69623657185858,-55.278110287373416,-0.16042823504321638,-0.0867,-0.8817,-0.4639,-0.0014
19,1302730.0,1263.551797,1.0,-0.74,1.53,-9.79,20.5,-11.19,26.69,1.81,-0.44,0.12,0.01796740651180869,-0.029856055434316575,-0.12971683039918425,-123.69623657185858,-55.278110287373416,-0.16042823504321638,-0.0867,-0.8817,-0.4639,-0.0014
20,1302765.0,1263.5544949999999,1.0,-0.87,1.46,-9.63,19.37,-11.5,25.75,1.25,-1.5,-0.56,-0.08817896755564697,0.0555614323998701,0.028381370180580845,-123.69623657185858,-55.265175443686026,-0.08021409786913415,-0.0867,-0.8817,-0.4638,-0.0007
21,1302765.0,1263.5544949999999,1.0,-0.87,1.46,-9.63,19.37,-11.5,25.75,1.25,-1.5,-0.56,-0.08817896755564697,0.0555614323998701,0.028381370180580845,-123.69623657185858,-55.265175443686026,-0.08021409786913415,-0.0867,-0.8817,-0.4638,-0.0007
22,1302800.0,1263.557004,1.0,-0.85,1.48,-9.51,20.87,-11.88,25.37,-0.5,-1.44,-0.06,-0.045701650325133264,0.065866931455967,0.14504698049551654,-123.69623657185858,-55.25224136431043,-0.04583662483277591,-0.0867,-0.8817,-0.4637,-0.0004
23,1302800.0,1263.557004,1.0,-0.85,1.48,-9.51,20.87,-11.88,25.37,-0.5,-1.44,-0.06,-0.045701650325133264,0.065866931455967,0.14504698049551654,-123.69623657185858,-55.25224136431043,-0.04583662483277591,-0.0867,-0.8817,-0.4637,-0.0004
24,1302837.0,1263.589743,1.0,-0.78,1.52,-9.61,19.37,-11.5,25.87,0.19,-0.88,-0.37,0.02132599846355827,0.01203205298329568,0.04599938482630783,-123.69623657185858,-55.25224136431043,-0.02291831195802168,-0.0868,-0.8817,-0.4637,-0.0002
25,1302837.0,1263.589743,1.0,-0.78,1.52,-9.61,19.37,-11.5,25.87,0.19,-0.88,-0.37,0.02132599846355827,0.01203205298329568,0.04599938482630783,-123.69623657185858,-55.25224136431043,-0.02291831195802168,-0.0868,-0.8817,-0.4637,-0.0002
26,1302872.0,1263.596197,1.0,-0.9,1.4,-9.51,19.37,-11.5,25.87,0.69,-0.25,-1.06,-0.13128031771422155,0.05595787897882176,0.15316699157443558,-123.6476805433651,-55.30398226888506,0.011459155921715059,-0.0868,-0.8815,-0.4641,0.0001
27,1302872.0,1263.596197,1.0,-0.9,1.4,-9.51,19.37,-11.5,25.87,0.69,-0.25,-1.06,-0.13128031771422155,0.05595787897882176,0.15316699157443558,-123.6476805433651,-55.30398226888506,0.011459155921715059,-0.0868,-0.8815,-0.4641,0.0001
28,1302908.0,1263.6123539999999,1.0,-0.79,1.33,-9.76,20.06,-11.88,25.87,0.25,1.75,0.06,-0.14586296967295684,-0.10231024609628647,-0.07357553424879804,-123.6476805433651,-55.30398226888506,-0.011459155921715059,-0.0864,-0.8815,-0.4641,-0.0001
29,1302908.0,1263.6123539999999,1.0,-0.79,1.33,-9.76,20.06,-11.88,25.87,0.25,1.75,0.06,-0.14586296967295684,-0.10231024609628647,-0.07357553424879804,-123.6476805433651,-55.30398226888506,-0.011459155921715059,-0.0864,-0.8815,-0.4641,-0.0001
30,1302943.0,1263.65192,1.0,-0.74,1.59,-9.57,19.69,-12.25,26.25,-2.38,-0.63,0.0,0.1003220877965145,0.026530218965816758,0.07783549739066231,-123.6476805433651,-55.316919407310365,-0.05729578190040675,-0.0868,-0.8815,-0.4642,-0.0005
31,1302943.0,1263.65192,1.0,-0.74,1.59,-9.57,19.69,-12.25,26.25,-2.38,-0.63,0.0,0.1003220877965145,0.026530218965816758,0.07783549739066231,-123.6476805433651,-55.316919407310365,-0.05729578190040675,-0.0868,-0.8815,-0.4642,-0.0005
32,1302976.0,1263.659037,1.0,-0.71,1.52,-9.86,19.69,-12.25,26.25,0.94,0.0,-0.88,0.037328577119855134,-0.08373404868187673,-0.1946346768013552,-123.6476805433651,-55.316919407310365,-0.04583662483277591,-0.0869,-0.8815,-0.4642,-0.0004
33,1302976.0,1263.659037,1.0,-0.71,1.52,-9.86,19.69,-12.25,26.25,0.94,0.0,-0.88,0.037328577119855134,-0.08373404868187673,-0.1946346768013552,-123.6476805433651,-55.316919407310365,-0.04583662483277591,-0.0869,-0.8815,-0.4642,-0.0004
34,1303011.0,1263.720936,1.0,-0.77,1.51,-9.88,20.87,-11.88,26.69,0.19,-1.37,0.12,-0.0022571037198792147,-0.04795990667661798,-0.2175753941556149,-123.62341692773377,-55.316919407310365,-0.011459155921715059,-0.087,-0.8814,-0.4642,-0.0001
35,1303011.0,1263.720936,1.0,-0.77,1.51,-9.88,20.87,-11.88,26.69,0.19,-1.37,0.12,-0.0022571037198792147,-0.04795990667661798,-0.2175753941556149,-123.62341692773377,-55.316919407310365,-0.011459155921715059,-0.087,-0.8814,-0.4642,-0.0001
36,1303048.0,1263.738633,1.0,-0.73,1.53,-9.71,20.06,-11.5,26.25,0.31,-1.31,-0.44,0.06024294221899173,-0.04621602269572312,-0.0499282534893446,-123.6476805433651,-55.316919407310365,0.04583662483277591,-0.0869,-0.8815,-0.4642,0.0004
37,1303048.0,1263.738633,1.0,-0.73,1.53,-9.71,20.06,-11.5,26.25,0.31,-1.31,-0.44,0.06024294221899173,-0.04621602269572312,-0.0499282534893446,-123.6476805433651,-55.316919407310365,0.04583662483277591,-0.0869,-0.8815,-0.4642,0.0004
38,1303080.0,1263.783701,1.0,-0.69,1.64,-9.71,20.06,-11.5,26.25,0.63,-1.56,0.06,0.17467692525145168,-0.02331612763731572,-0.06344343066096236,-123.6476805433651,-55.316919407310365,0.06875493954099557,-0.0871,-0.8815,-0.4642,0.0006
39,1303080.0,1263.783701,1.0,-0.69,1.64,-9.71,20.06,-11.5,26.25,0.63,-1.56,0.06,0.17467692525145168,-0.02331612763731572,-0.06344343066096236,-123.6476805433651,-55.316919407310365,0.06875493954099557,-0.0871,-0.8815,-0.4642,0.0006
40,1303115.0,1263.800766,1.0,-0.71,1.55,-9.69,20.5,-11.5,25.75,1.88,-2.88,-1.44,0.10808191167306727,-0.06058676867131396,-0.03140608562134162,-123.5991628945627,-55.342795981003654,0.1718874029970642,-0.087,-0.8813,-0.4644,0.0015
41,1303115.0,1263.800766,1.0,-0.71,1.55,-9.69,20.5,-11.5,25.75,1.88,-2.88,-1.44,0.10808191167306727,-0.06058676867131396,-0.03140608562134162,-123.5991628945627,-55.342795981003654,0.1718874029970642,-0.087,-0.8813,-0.4644,0.0015
42,1303150.0,1263.844136,1.0,-0.89,1.3,-9.26,20.5,-11.5,27.06,1.63,-1.88,-1.31,-0.14988970389632156,0.011138166069876276,0.4147860200478615,-123.57491843142247,-55.38161658816516,0.2635608181333149,-0.0868,-0.8812,-0.4647,0.0023
43,1303150.0,1263.844136,1.0,-0.89,1.3,-9.26,20.5,-11.5,27.06,1.63,-1.88,-1.31,-0.14988970389632156,0.011138166069876276,0.4147860200478615,-123.57491843142247,-55.38161658816516,0.2635608181333149,-0.0868,-0.8812,-0.4647,0.0023
44,1303187.0,1263.8610820000001,1.0,-0.87,1.18,-9.16,21.19,-11.88,27.5,0.31,1.06,0.25,-0.2264551656642701,-0.05113971358866232,0.5329774379759318,-123.57491843142247,-55.39455832418957,0.2635608181333149,-0.0865,-0.8812,-0.4648,0.0023
45,1303187.0,1263.8610820000001,1.0,-0.87,1.18,-9.16,21.19,-11.88,27.5,0.31,1.06,0.25,-0.2264551656642701,-0.05113971358866232,0.5329774379759318,-123.57491843142247,-55.39455832418957,0.2635608181333149,-0.0865,-0.8812,-0.4648,0.0023
46,1303222.0,1263.899547,1.0,-0.89,0.99,-8.96,21.19,-11.88,27.5,-1.81,3.06,0.5,-0.3901854587483175,-0.10053681213016946,0.7572606472763521,-123.57491843142247,-55.39455832418957,0.1718874029970642,-0.0864,-0.8812,-0.4648,0.0015
47,1303222.0,1263.899547,1.0,-0.89,0.99,-8.96,21.19,-11.88,27.5,-1.81,3.06,0.5,-0.3901854587483175,-0.10053681213016946,0.7572606472763521,-123.57491843142247,-55.39455832418957,0.1718874029970642,-0.0864,-0.8812,-0.4648,0.0015
48,1303259.0,1263.987026,1.0,-0.83,1.04,-8.64,20.5,-11.5,25.37,-5.88,4.56,3.44,-0.3151135128198121,-0.06599128481549266,1.0707213931278723,-123.6476805433651,-55.316919407310365,0.011459155921715059,-0.0867,-0.8815,-0.4642,0.0001
49,1303259.0,1263.987026,1.0,-0.83,1.04,-8.64,20.5,-11.5,25.37,-5.88,4.56,3.44,-0.3151135128198121,-0.06599128481549266,1.0707213931278723,-123.6476805433651,-55.316919407310365,0.011459155921715059,-0.0867,-0.8815,-0.4642,0.0001
50,1303296.0,1264.097698,1.0,-0.62,1.02,-8.08,20.06,-10.75,27.06,-7.88,9.19,5.25,-0.231430741280588,-0.14998419734541535,1.6436147463374888,-123.76914279530571,-55.16172418420825,-0.4239897358038088,-0.0878,-0.882,-0.46299999999999997,-0.0037
51,1303296.0,1264.097698,1.0,-0.62,1.02,-8.08,20.06,-10.75,27.06,-7.88,9.19,5.25,-0.231430741280588,-0.14998419734541535,1.6436147463374888,-123.76914279530571,-55.16172418420825,-0.4239897358038088,-0.0878,-0.882,-0.46299999999999997,-0.0037
52,1303328.0,1264.1605880000002,1.0,-0.51,1.05,-7.91,20.06,-10.75,27.06,-15.44,17.0,8.69,-0.20797025065466246,-0.1726196937901482,1.8155517765917528,-123.91521633901593,-54.96788438262905,-0.9969591404369118,-0.0887,-0.8826,-0.4615,-0.0087
53,1303328.0,1264.1605880000002,1.0,-0.51,1.05,-7.91,20.06,-10.75,27.06,-15.44,17.0,8.69,-0.20797025065466246,-0.1726196937901482,1.8155517765917528,-123.91521633901593,-54.96788438262905,-0.9969591404369118,-0.0887,-0.8826,-0.4615,-0.0087
54,1303363.0,1264.21231,1.0,-0.55,1.6,-7.84,19.37,-12.25,27.5,-25.12,22.87,10.44,0.04398007712165808,0.2061207574013584,1.7889396044952672,-124.1105266335135,-54.658094766102636,-2.200293133435064,-0.0923,-0.8834,-0.4591,-0.0192
55,1303363.0,1264.21231,1.0,-0.55,1.6,-7.84,19.37,-12.25,27.5,-25.12,22.87,10.44,0.04398007712165808,0.2061207574013584,1.7889396044952672,-124.1105266335135,-54.658094766102636,-2.200293133435064,-0.0923,-0.8834,-0.4591,-0.0192
56,1303400.0,1264.225074,1.0,-0.41,1.66,-8.25,19.0,-11.88,25.87,-22.44,35.5,11.75,-0.04310640727494791,0.12115704998583833,1.3823006003792422,-124.23291484122736,-54.42603640579737,-3.369477361207863,-0.094,-0.8839,-0.4573,-0.0294
57,1303400.0,1264.225074,1.0,-0.41,1.66,-8.25,19.0,-11.88,25.87,-22.44,35.5,11.75,-0.04310640727494791,0.12115704998583833,1.3823006003792422,-124.23291484122736,-54.42603640579737,-3.369477361207863,-0.094,-0.8839,-0.4573,-0.0294
58,1303437.0,1264.228111,1.0,0.3,2.08,-8.82,18.25,-13.0,27.5,-29.69,41.44,14.69,0.344965196312803,-0.18089566409492572,0.7481139277615867,-124.42925156343009,-54.00122182339204,-5.273072468222583,-0.0955,-0.8847,-0.45399999999999996,-0.046
59,1303437.0,1264.228111,1.0,0.3,2.08,-8.82,18.25,-13.0,27.5,-29.69,41.44,14.69,0.344965196312803,-0.18089566409492572,0.7481139277615867,-124.42925156343009,-54.00122182339204,-5.273072468222583,-0.0955,-0.8847,-0.45399999999999996,-0.046
60,1303470.0,1264.2676490000001,1.0,0.44,2.53,-9.19,18.25,-13.0,27.5,-33.81,42.13,12.38,0.47458196033121397,-0.0035073055373180395,0.2764160227182213,-124.47843555677237,-53.67992638338189,-6.7992683543101915,-0.0977,-0.8849,-0.4515,-0.0593
61,1303470.0,1264.2676490000001,1.0,0.44,2.53,-9.19,18.25,-13.0,27.5,-33.81,42.13,12.38,0.47458196033121397,-0.0035073055373180395,0.2764160227182213,-124.47843555677237,-53.67992638338189,-6.7992683543101915,-0.0977,-0.8849,-0.4515,-0.0593
62,1303506.0,1264.285048,1.0,0.81,2.81,-10.19,17.19,-15.69,27.5,-32.0,43.44,12.38,0.3295496143086869,-0.1438757860617117,-0.788584627411236,-124.38010760157816,-53.320615694584525,-8.947229783297066,-0.1011,-0.8845,-0.4487,-0.078
63,1303506.0,1264.285048,1.0,0.81,2.81,-10.19,17.19,-15.69,27.5,-32.0,43.44,12.38,0.3295496143086869,-0.1438757860617117,-0.788584627411236,-124.38010760157816,-53.320615694584525,-8.947229783297066,-0.1011,-0.8845,-0.4487,-0.078
64,1303543.0,1264.28802,1.0,1.28,2.68,-10.59,16.0,-15.25,28.25,-26.0,40.69,13.88,0.14607714098808486,-0.5369607533572502,-1.1778497436494515,-124.38010760157816,-52.98747589558396,-10.419264327291232,-0.1024,-0.8845,-0.4461,-0.0908
65,1303543.0,1264.28802,1.0,1.28,2.68,-10.59,16.0,-15.25,28.25,-26.0,40.69,13.88,0.14607714098808486,-0.5369607533572502,-1.1778497436494515,-124.38010760157816,-52.98747589558396,-10.419264327291232,-0.1024,-0.8845,-0.4461,-0.0908
66,1303578.0,1264.325242,1.0,1.37,3.35,-11.29,16.0,-15.25,28.25,-31.5,31.62,15.25,0.17402647613459554,-0.17140185526985466,-2.0467814099173047,-124.38010760157816,-52.45034316588912,-12.215665087929844,-0.1051,-0.8845,-0.4419,-0.1064
67,1303578.0,1264.325242,1.0,1.37,3.35,-11.29,16.0,-15.25,28.25,-31.5,31.62,15.25,0.17402647613459554,-0.17140185526985466,-2.0467814099173047,-124.38010760157816,-52.45034316588912,-12.215665087929844,-0.1051,-0.8845,-0.4419,-0.1064
68,1303613.0,1264.331994,1.0,1.16,4.43,-11.46,14.88,-16.75,28.25,-37.44,21.31,10.81,0.481767680618972,0.620391712311569,-2.5094010726939686,-124.28193934639009,-51.97818068894303,-13.588001782657653,-0.1114,-0.8841,-0.4382,-0.1183
69,1303613.0,1264.331994,1.0,1.16,4.43,-11.46,14.88,-16.75,28.25,-37.44,21.31,10.81,0.481767680618972,0.620391712311569,-2.5094010726939686,-124.28193934639009,-51.97818068894303,-13.588001782657653,-0.1114,-0.8841,-0.4382,-0.1183
70,1303650.0,1264.3494970000002,1.0,1.49,3.62,-11.63,13.0,-17.87,26.69,-4.94,14.94,5.44,-0.07802355661865934,-0.08196374915041171,-2.4639895215749767,-124.25742213626366,-51.837991208733065,-14.095906005217,-0.1111,-0.884,-0.4371,-0.1227
71,1303650.0,1264.3494970000002,1.0,1.49,3.62,-11.63,13.0,-17.87,26.69,-4.94,14.94,5.44,-0.07802355661865934,-0.08196374915041171,-2.4639895215749767,-124.25742213626366,-51.837991208733065,-14.095906005217,-0.1111,-0.884,-0.4371,-0.1227
72,1303685.0,1264.35255,1.0,1.38,3.62,-11.37,13.38,-18.69,28.0,-3.0,3.94,3.63,-0.10748460235504632,0.0602053407300529,-2.204616476821009,-124.33100356461244,-51.71061852077841,-14.349961892702815,-0.1109,-0.8843,-0.4361,-0.1249
73,1303685.0,1264.35255,1.0,1.38,3.62,-11.37,13.38,-18.69,28.0,-3.0,3.94,3.63,-0.10748460235504632,0.0602053407300529,-2.204616476821009,-124.33100356461244,-51.71061852077841,-14.349961892702815,-0.1109,-0.8843,-0.4361,-0.1249
74,1303719.0,1264.392818,1.0,1.54,3.09,-11.02,13.38,-18.69,28.0,9.31,-4.94,2.19,-0.2568249582421927,-0.33896439617031104,-1.7336811945087955,-124.45383854948406,-51.659688661303676,-14.199829470388696,-0.1097,-0.8848,-0.4357,-0.1236
75,1303719.0,1264.392818,1.0,1.54,3.09,-11.02,13.38,-18.69,28.0,9.31,-4.94,2.19,-0.2568249582421927,-0.33896439617031104,-1.7336811945087955,-124.45383854948406,-51.659688661303676,-14.199829470388696,-0.1097,-0.8848,-0.4357,-0.1236
76,1303756.0,1264.452166,1.0,1.48,2.93,-10.61,12.25,-17.87,27.19,12.81,-14.75,2.38,-0.16688245935225732,-0.3611016182301547,-1.2924110353341192,-124.74966789127242,-51.583314406764714,-13.634163660769715,-0.10800000000000001,-0.8859999999999999,-0.4351,-0.1187
77,1303756.0,1264.452166,1.0,1.48,2.93,-10.61,12.25,-17.87,27.19,12.81,-14.75,2.38,-0.16688245935225732,-0.3611016182301547,-1.2924110353341192,-124.74966789127242,-51.583314406764714,-13.634163660769715,-0.10800000000000001,-0.8859999999999999,-0.4351,-0.1187
78,1303791.0,1264.471818,1.0,1.11,2.6,-10.14,12.88,-18.25,27.69,10.94,-18.56,2.94,-0.38338377171145605,-0.2519546578629923,-0.7100622112364317,-125.02213252137535,-51.48152030899618,-13.034229810442689,-0.1072,-0.8871,-0.4343,-0.1135
79,1303791.0,1264.471818,1.0,1.11,2.6,-10.14,12.88,-18.25,27.69,10.94,-18.56,2.94,-0.38338377171145605,-0.2519546578629923,-0.7100622112364317,-125.02213252137535,-51.48152030899618,-13.034229810442689,-0.1072,-0.8871,-0.4343,-0.1135
80,1303826.0,1264.511241,1.0,0.88,2.61,-9.97,12.88,-18.25,27.69,14.19,-19.31,4.63,-0.3160421190153028,-0.0932301957527839,-0.5315715835030446,-125.47069041747116,-51.303485419526396,-12.169567773976445,-0.1063,-0.8889,-0.4329,-0.106
81,1303826.0,1264.511241,1.0,0.88,2.61,-9.97,12.88,-18.25,27.69,14.19,-19.31,4.63,-0.3160421190153028,-0.0932301957527839,-0.5315715835030446,-125.47069041747116,-51.303485419526396,-12.169567773976445,-0.1063,-0.8889,-0.4329,-0.106
82,1303861.0,1264.530961,1.0,0.82,2.78,-10.05,12.88,-17.87,26.87,10.63,-22.19,5.44,-0.13195197513547158,0.009415443738074014,-0.6521166589171551,-125.821937957947,-51.11288102782698,-11.478340954533572,-0.1058,-0.8903,-0.4314,-0.1
83,1303861.0,1264.530961,1.0,0.82,2.78,-10.05,12.88,-17.87,26.87,10.63,-22.19,5.44,-0.13195197513547158,0.009415443738074014,-0.6521166589171551,-125.821937957947,-51.11288102782698,-11.478340954533572,-0.1058,-0.8903,-0.4314,-0.1
84,1303898.0,1264.577975,1.0,0.89,2.73,-10.18,13.69,-18.25,28.06,20.0,-24.31,5.06,0.029063100841392905,-0.13095139669529154,-0.7697107667227883,-126.37819315148278,-50.87166614791169,-10.419264327291232,-0.10400000000000001,-0.8925,-0.4295,-0.0908
85,1303898.0,1264.577975,1.0,0.89,2.73,-10.18,13.69,-18.25,28.06,20.0,-24.31,5.06,0.029063100841392905,-0.13095139669529154,-0.7697107667227883,-126.37819315148278,-50.87166614791169,-10.419264327291232,-0.10400000000000001,-0.8925,-0.4295,-0.0908
86,1303932.0,1264.650905,1.0,0.88,2.36,-10.14,13.69,-18.25,28.06,21.94,-26.12,8.63,-0.06949376850439631,-0.3654631612061494,-0.6348636495596391,-126.86293079671191,-50.630692516856975,-9.48755765518811,-0.1016,-0.8944,-0.4276,-0.0827
87,1303932.0,1264.650905,1.0,0.88,2.36,-10.14,13.69,-18.25,28.06,21.94,-26.12,8.63,-0.06949376850439631,-0.3654631612061494,-0.6348636495596391,-126.86293079671191,-50.630692516856975,-9.48755765518811,-0.1016,-0.8944,-0.4276,-0.0827
88,1303967.0,1264.654045,1.0,0.88,2.29,-10.28,15.19,-17.5,27.25,21.37,-30.75,8.88,0.08287552451356589,-0.4694359946953151,-0.7512693733576601,-127.58485235552216,-50.22538255847991,-8.188805090876484,-0.0992,-0.8972,-0.4244,-0.0714
89,1303967.0,1264.654045,1.0,0.88,2.29,-10.28,15.19,-17.5,27.25,21.37,-30.75,8.88,0.08287552451356589,-0.4694359946953151,-0.7512693733576601,-127.58485235552216,-50.22538255847991,-8.188805090876484,-0.0992,-0.8972,-0.4244,-0.0714
90,1304002.0,1264.693783,1.0,0.69,1.77,-9.98,15.56,-17.5,27.25,17.5,-31.56,15.63,-0.1249900662902652,-0.6713218574954201,-0.3295773281027809,-128.44773606463812,-49.618672793409424,-6.810747745686069,-0.0975,-0.9005,-0.4196,-0.0594
91,1304002.0,1264.693783,1.0,0.69,1.77,-9.98,15.56,-17.5,27.25,17.5,-31.56,15.63,-0.1249900662902652,-0.6713218574954201,-0.3295773281027809,-128.44773606463812,-49.618672793409424,-6.810747745686069,-0.0975,-0.9005,-0.4196,-0.0594
92,1304039.0,1264.710714,1.0,0.21,1.79,-9.52,15.19,-16.0,26.87,20.25,-35.38,14.94,-0.1687810608710571,-0.29837038748127265,0.12361906617739216,-129.0838339340417,-49.12681310673511,-5.743441500733661,-0.0973,-0.9029,-0.4157,-0.0501
93,1304039.0,1264.710714,1.0,0.21,1.79,-9.52,15.19,-16.0,26.87,20.25,-35.38,14.94,-0.1687810608710571,-0.29837038748127265,0.12361906617739216,-129.0838339340417,-49.12681310673511,-5.743441500733661,-0.0973,-0.9029,-0.4157,-0.0501
94,1304074.0,1264.759079,1.0,-0.21,2.12,-9.16,15.19,-16.0,26.87,10.13,-34.0,17.44,0.0468076125988956,0.18839320161302808,0.4041813321985064,-129.97078188553854,-48.359419810815105,-4.401398006442045,-0.0979,-0.9062,-0.4096,-0.0384
95,1304074.0,1264.759079,1.0,-0.21,2.12,-9.16,15.19,-16.0,26.87,10.13,-34.0,17.44,0.0468076125988956,0.18839320161302808,0.4041813321985064,-129.97078188553854,-48.359419810815105,-4.401398006442045,-0.0979,-0.9062,-0.4096,-0.0384
96,1304111.0,1264.862604,1.0,-0.22,2.29,-9.51,16.25,-16.37,28.06,11.63,-31.5,17.75,0.24851411446900595,0.20554123625416,0.027662652881241808,-130.65262969629032,-47.75718944121001,-3.4726557451993814,-0.0976,-0.9087,-0.4048,-0.0303
97,1304111.0,1264.862604,1.0,-0.22,2.29,-9.51,16.25,-16.37,28.06,11.63,-31.5,17.75,0.24851411446900595,0.20554123625416,0.027662652881241808,-130.65262969629032,-47.75718944121001,-3.4726557451993814,-0.0976,-0.9087,-0.4048,-0.0303
98,1304145.0,1265.031523,1.0,-0.63,2.83,-9.1,16.25,-16.37,26.06,13.81,-30.44,12.5,0.5785153615482774,0.8446486869220777,0.31098316864300024,-131.37124925693712,-47.0813498800656,-2.2575997541901875,-0.0984,-0.9113,-0.3994,-0.0197
99,1304145.0,1265.031523,1.0,-0.63,2.83,-9.1,16.25,-16.37,26.06,13.81,-30.44,12.5,0.5785153615482774,0.8446486869220777,0.31098316864300024,-131.37124925693712,-47.0813498800656,-2.2575997541901875,-0.0984,-0.9113,-0.3994,-0.0197
100,1304182.0,1265.0546689999999,1.0,-0.76,3.07,-8.84,16.25,-16.37,26.06,13.0,-28.44,7.5,0.8207976255184397,1.0970814291739497,0.5184422290839681,-131.76235907719015,-46.744081927482135,-1.3292918974264516,-0.098,-0.9127,-0.3967,-0.0116
101,1304182.0,1265.0546689999999,1.0,-0.76,3.07,-8.84,16.25,-16.37,26.06,13.0,-28.44,7.5,0.8207976255184397,1.0970814291739497,0.5184422290839681,-131.76235907719015,-46.744081927482135,-1.3292918974264516,-0.098,-0.9127,-0.3967,-0.0116
102,1304215.0,1265.057758,1.0,-0.75,3.1,-8.96,17.06,-16.37,26.87,22.31,-22.25,-1.75,1.0106765772965949,1.0559377101962946,0.4089040783287068,-131.98719464152978,-46.58184673902731,-0.2177240931471762,-0.0961,-0.9135,-0.3954,-0.0019
103,1304215.0,1265.057758,1.0,-0.75,3.1,-8.96,17.06,-16.37,26.87,22.31,-22.25,-1.75,1.0106765772965949,1.0559377101962946,0.4089040783287068,-131.98719464152978,-46.58184673902731,-0.2177240931471762,-0.0961,-0.9135,-0.3954,-0.0019
104,1304250.0,1265.094142,1.0,-1.03,2.53,-8.65,17.37,-16.0,27.25,19.56,-21.06,-7.56,0.5729499562528519,0.9248063376089816,0.8010538739488151,-131.9590360744759,-46.68167205165904,0.6187974261216272,-0.0933,-0.9134,-0.3962,0.0054
105,1304250.0,1265.094142,1.0,-1.03,2.53,-8.65,17.37,-16.0,27.25,19.56,-21.06,-7.56,0.5729499562528519,0.9248063376089816,0.8010538739488151,-131.9590360744759,-46.68167205165904,0.6187974261216272,-0.0933,-0.9134,-0.3962,0.0054
106,1304289.0,1265.110633,1.0,-1.25,2.45,-8.39,18.5,-15.25,26.06,21.56,-13.88,-13.38,0.5434859214600991,1.0704775376079672,1.0593189273440975,-131.67829939723129,-47.04385436374432,1.5470330404085568,-0.0899,-0.9124,-0.3991,0.0135
107,1304289.0,1265.110633,1.0,-1.25,2.45,-8.39,18.5,-15.25,26.06,21.56,-13.88,-13.38,0.5434859214600991,1.0704775376079672,1.0593189273440975,-131.67829939723129,-47.04385436374432,1.5470330404085568,-0.0899,-0.9124,-0.3991,0.0135
108,1304322.0,1265.1138019999999,1.0,-1.03,1.76,-8.52,18.5,-15.25,26.06,15.13,-10.31,-15.69,0.3206668201856536,0.4422014662729771,1.0630505893649254,-131.23228149999522,-47.58180340274293,2.269061145645111,-0.0861,-0.9108,-0.4034,0.0198
109,1304322.0,1265.1138019999999,1.0,-1.03,1.76,-8.52,18.5,-15.25,26.06,15.13,-10.31,-15.69,0.3206668201856536,0.4422014662729771,1.0630505893649254,-131.23228149999522,-47.58180340274293,2.269061145645111,-0.0861,-0.9108,-0.4034,0.0198
110,1304358.0,1265.155283,1.0,-1.22,1.48,-8.19,18.87,-14.75,25.56,15.56,-4.38,-19.19,0.07906666754265129,0.4696411647832046,1.4085498792331117,-130.76254599505174,-48.09577032776433,2.670224968889185,-0.0834,-0.9091,-0.4075,0.0233
111,1304358.0,1265.155283,1.0,-1.22,1.48,-8.19,18.87,-14.75,25.56,15.56,-4.38,-19.19,0.07906666754265129,0.4696411647832046,1.4085498792331117,-130.76254599505174,-48.09577032776433,2.670224968889185,-0.0834,-0.9091,-0.4075,0.0233
112,1304395.0,1265.172584,1.0,-1.14,1.11,-8.15,20.0,-13.69,25.56,11.63,1.88,-19.87,-0.07401406766989768,0.22489015352206174,1.506159271336074,-130.10645331555745,-48.849779603080556,2.888013009772368,-0.0793,-0.9067,-0.4135,0.0252
113,1304395.0,1265.172584,1.0,-1.14,1.11,-8.15,20.0,-13.69,25.56,11.63,1.88,-19.87,-0.07401406766989768,0.22489015352206174,1.506159271336074,-130.10645331555745,-48.849779603080556,2.888013009772368,-0.0793,-0.9067,-0.4135,0.0252
114,1304430.0,1265.175749,1.0,-0.91,0.45,-8.4,20.0,-13.69,25.56,8.69,11.63,-15.81,-0.4066653995758176,-0.35120928301612475,1.3626062239226204,-129.7004663573504,-49.366315839864654,2.8192367490322434,-0.0757,-0.9052,-0.4176,0.0246
115,1304430.0,1265.175749,1.0,-0.91,0.45,-8.4,20.0,-13.69,25.56,8.69,11.63,-15.81,-0.4066653995758176,-0.35120928301612475,1.3626062239226204,-129.7004663573504,-49.366315839864654,2.8192367490322434,-0.0757,-0.9052,-0.4176,0.0246
116,1304465.0,1265.212925,1.0,-0.7,0.35,-8.95,19.25,-13.69,25.19,-1.63,13.19,-13.75,-0.4001276584378417,-0.594848020757199,0.8511458997745809,-129.19057220176188,-49.934480858485706,2.3951379752687134,-0.0736,-0.9033,-0.4221,0.0209
117,1304465.0,1265.212925,1.0,-0.7,0.35,-8.95,19.25,-13.69,25.19,-1.63,13.19,-13.75,-0.4001276584378417,-0.594848020757199,0.8511458997745809,-129.19057220176188,-49.934480858485706,2.3951379752687134,-0.0736,-0.9033,-0.4221,0.0209
118,1304500.0,1265.220305,1.0,-0.69,-0.04,-9.11,20.0,-12.19,26.87,-7.88,17.06,-5.81,-0.7591470129060973,-0.8310404466176893,0.7400702926968545,-128.95070405160268,-50.21272747501065,1.9366895446536667,-0.0731,-0.9024,-0.4243,0.0169
119,1304500.0,1265.220305,1.0,-0.69,-0.04,-9.11,20.0,-12.19,26.87,-7.88,17.06,-5.81,-0.7591470129060973,-0.8310404466176893,0.7400702926968545,-128.95070405160268,-50.21272747501065,1.9366895446536667,-0.0731,-0.9024,-0.4243,0.0169
120,1304537.0,1265.238057,1.0,-0.65,0.6,-9.52,18.87,-12.19,26.87,-19.69,14.88,0.25,-0.4050196683682221,-0.5107473783925648,0.26788717751091085,-128.79137449285287,-50.33930781936822,1.100095864564908,-0.0761,-0.9018,-0.4253,0.0096
121,1304537.0,1265.238057,1.0,-0.65,0.6,-9.52,18.87,-12.19,26.87,-19.69,14.88,0.25,-0.4050196683682221,-0.5107473783925648,0.26788717751091085,-128.79137449285287,-50.33930781936822,1.100095864564908,-0.0761,-0.9018,-0.4253,0.0096
122,1304571.0,1265.282258,1.0,-0.56,0.83,-9.86,18.87,-12.19,26.87,-15.19,15.38,4.75,-0.2955063225044205,-0.4777157198964225,-0.08812456561410363,-128.81789729217328,-50.27600944578726,0.5156637559929028,-0.0781,-0.9019,-0.4248,0.0045
123,1304571.0,1265.282258,1.0,-0.56,0.83,-9.86,18.87,-12.19,26.87,-15.19,15.38,4.75,-0.2955063225044205,-0.4777157198964225,-0.08812456561410363,-128.81789729217328,-50.27600944578726,0.5156637559929028,-0.0781,-0.9019,-0.4248,0.0045
124,1304608.0,1265.2995640000001,1.0,-0.1,1.19,-10.71,19.25,-13.69,28.5,-14.81,14.25,10.13,0.05294813758701099,-0.716384581944675,-0.9457538998485386,-129.00391708769308,-50.035624947359274,-0.3323159869732291,-0.0811,-0.9026,-0.4229,-0.0029
125,1304608.0,1265.2995640000001,1.0,-0.1,1.19,-10.71,19.25,-13.69,28.5,-14.81,14.25,10.13,0.05294813758701099,-0.716384581944675,-0.9457538998485386,-129.00391708769308,-50.035624947359274,-0.3323159869732291,-0.0811,-0.9026,-0.4229,-0.0029
126,1304643.0,1265.340318,1.0,-0.02,1.4,-10.44,18.5,-13.69,27.25,-14.69,7.0,11.25,0.1895193222884636,-0.6110175227649854,-0.7073758708714166,-129.21728949054742,-49.73231720183757,-0.7792286067117273,-0.0833,-0.9034,-0.4205,-0.0068
127,1304643.0,1265.340318,1.0,-0.02,1.4,-10.44,18.5,-13.69,27.25,-14.69,7.0,11.25,0.1895193222884636,-0.6110175227649854,-0.7073758708714166,-129.21728949054742,-49.73231720183757,-0.7792286067117273,-0.0833,-0.9034,-0.4205,-0.0068
128,1304678.0,1265.3474310000001,1.0,-0.17,1.57,-10.45,18.5,-13.69,27.25,-13.0,2.81,12.81,0.1138398510782156,-0.4198617675181261,-0.7530401746444735,-129.56581673326838,-49.27805128980349,-1.2146932735575866,-0.0868,-0.9047,-0.4169,-0.0106
129,1304678.0,1265.3474310000001,1.0,-0.17,1.57,-10.45,18.5,-13.69,27.25,-13.0,2.81,12.81,0.1138398510782156,-0.4198617675181261,-0.7530401746444735,-129.56581673326838,-49.27805128980349,-1.2146932735575866,-0.0868,-0.9047,-0.4169,-0.0106
130,1304713.0,1265.409187,1.0,-0.29,1.77,-10.34,19.56,-14.38,27.25,-12.31,0.31,13.31,0.11512317386357793,-0.21442814522215248,-0.6849355439192859,-129.99788861220236,-48.76169642019097,-1.5126525087430307,-0.0898,-0.9063,-0.4128,-0.0132
131,1304713.0,1265.409187,1.0,-0.29,1.77,-10.34,19.56,-14.38,27.25,-12.31,0.31,13.31,0.11512317386357793,-0.21442814522215248,-0.6849355439192859,-129.99788861220236,-48.76169642019097,-1.5126525087430307,-0.0898,-0.9063,-0.4128,-0.0132
132,1304750.0,1265.482183,1.0,-0.57,1.87,-9.87,17.75,-14.06,27.69,-7.25,-7.13,13.0,0.022956546042672055,0.0962684199500894,-0.2546076444654357,-130.3242488651211,-48.34685890896744,-1.5355728478655368,-0.092,-0.9075,-0.4095,-0.0134
133,1304750.0,1265.482183,1.0,-0.57,1.87,-9.87,17.75,-14.06,27.69,-7.25,-7.13,13.0,0.022956546042672055,0.0962684199500894,-0.2546076444654357,-130.3242488651211,-48.34685890896744,-1.5355728478655368,-0.092,-0.9075,-0.4095,-0.0134
134,1304786.0,1265.485578,1.0,-0.62,1.99,-9.79,17.75,-14.06,27.69,-6.13,-4.56,13.75,0.0624546701863619,0.18082731042954106,-0.20094715905744745,-130.79006103529238,-47.81985609667796,-1.5011923619341792,-0.0945,-0.9092,-0.4053,-0.0131
135,1304786.0,1265.485578,1.0,-0.62,1.99,-9.79,17.75,-14.06,27.69,-6.13,-4.56,13.75,0.0624546701863619,0.18082731042954106,-0.20094715905744745,-130.79006103529238,-47.81985609667796,-1.5011923619341792,-0.0945,-0.9092,-0.4053,-0.0131
136,1304819.0,1265.527328,1.0,-0.82,2.19,-9.62,18.5,-15.19,26.87,-4.38,-3.38,11.31,0.06998019313394248,0.4577538849106775,-0.08266060051296265,-131.09368455172458,-47.46911772602086,-1.5011923619341792,-0.0963,-0.9103,-0.4025,-0.0131
137,1304819.0,1265.527328,1.0,-0.82,2.19,-9.62,18.5,-15.19,26.87,-4.38,-3.38,11.31,0.06998019313394248,0.4577538849106775,-0.08266060051296265,-131.09368455172458,-47.46911772602086,-1.5011923619341792,-0.0963,-0.9103,-0.4025,-0.0131
138,1304856.0,1265.549467,1.0,-0.76,2.52,-9.47,17.06,-15.56,25.56,-6.19,-4.5,7.69,0.3404481237993343,0.614437956385398,0.002800701242168913,-131.3990875860209,-47.06885078095891,-1.4782721132478738,-0.0988,-0.9114,-0.3993,-0.0129
139,1304856.0,1265.549467,1.0,-0.76,2.52,-9.47,17.06,-15.56,25.56,-6.19,-4.5,7.69,0.3404481237993343,0.614437956385398,0.002800701242168913,-131.3990875860209,-47.06885078095891,-1.4782721132478738,-0.0988,-0.9114,-0.3993,-0.0129
140,1304891.0,1265.588599,1.0,-0.76,2.44,-9.42,17.75,-15.69,25.56,-1.5,-2.13,5.81,0.2769130840519277,0.549456884374242,0.06555066388322572,-131.53850453910292,-46.868945786012894,-1.4553519237055776,-0.1,-0.9119,-0.3977,-0.0127
141,1304891.0,1265.588599,1.0,-0.76,2.44,-9.42,17.75,-15.69,25.56,-1.5,-2.13,5.81,0.2769130840519277,0.549456884374242,0.06555066388322572,-131.53850453910292,-46.868945786012894,-1.4553519237055776,-0.1,-0.9119,-0.3977,-0.0127
142,1304926.0,1265.605016,1.0,-0.62,2.49,-9.57,17.75,-15.69,25.56,-1.37,-1.56,1.75,0.3630812700511663,0.4015243479596513,-0.08659770686217172,-131.56643317341502,-46.769049990136345,-1.4782721132478738,-0.1031,-0.912,-0.3969,-0.0129
143,1304926.0,1265.605016,1.0,-0.62,2.49,-9.57,17.75,-15.69,25.56,-1.37,-1.56,1.75,0.3630812700511663,0.4015243479596513,-0.08659770686217172,-131.56643317341502,-46.769049990136345,-1.4782721132478738,-0.1031,-0.912,-0.3969,-0.0129
144,1304961.0,1265.648902,1.0,-0.7,2.23,-9.55,17.06,-16.37,25.19,0.81,-2.56,-2.19,0.11963810671654852,0.2660244758715373,-0.02087856529344201,-131.48269259246572,-46.80650649596007,-1.4438918508267422,-0.1043,-0.9117,-0.3972,-0.0126
145,1304961.0,1265.648902,1.0,-0.7,2.23,-9.55,17.06,-16.37,25.19,0.81,-2.56,-2.19,0.11963810671654852,0.2660244758715373,-0.02087856529344201,-131.48269259246572,-46.80650649596007,-1.4438918508267422,-0.1043,-0.9117,-0.3972,-0.0126
146,1304997.0,1265.705797,1.0,-0.78,1.93,-9.31,17.37,-16.75,26.87,0.81,0.75,-3.25,-0.11298844143605412,0.16500400388842273,0.2688616142785669,-131.37124925693712,-46.918907837056295,-1.3751317128217122,-0.1042,-0.9113,-0.3981,-0.012
147,1304997.0,1265.705797,1.0,-0.78,1.93,-9.31,17.37,-16.75,26.87,0.81,0.75,-3.25,-0.11298844143605412,0.16500400388842273,0.2688616142785669,-131.37124925693712,-46.918907837056295,-1.3751317128217122,-0.1042,-0.9113,-0.3981,-0.012
148,1305034.0,1265.720949,1.0,-0.57,1.81,-9.7,17.37,-16.75,26.87,-0.63,-0.19,-3.13,-0.09694897908746164,-0.13565214706589998,-0.07581929620579864,-131.2878239276356,-47.01886031964005,-1.3865917007687605,-0.1041,-0.9109999999999999,-0.3989,-0.0121
149,1305034.0,1265.720949,1.0,-0.57,1.81,-9.7,17.37,-16.75,26.87,-0.63,-0.19,-3.13,-0.09694897908746164,-0.13565214706589998,-0.07581929620579864,-131.2878239276356,-47.01886031964005,-1.3865917007687605,-0.1041,-0.9109999999999999,-0.3989,-0.0121
150,1305067.0,1265.767134,1.0,-0.6,1.65,-9.65,18.19,-17.19,26.5,-1.31,1.19,-1.63,-0.2256839577180796,-0.21354652887615744,0.0031575288837135678,-131.1767984012427,-47.131352218600796,-1.3751317128217122,-0.1042,-0.9106,-0.3998,-0.012
151,1305067.0,1265.767134,1.0,-0.6,1.65,-9.65,18.19,-17.19,26.5,-1.31,1.19,-1.63,-0.2256839577180796,-0.21354652887615744,0.0031575288837135678,-131.1767984012427,-47.131352218600796,-1.3751317128217122,-0.1042,-0.9106,-0.3998,-0.012
152,1305102.0,1265.784047,1.0,-0.56,1.87,-9.56,17.75,-14.88,26.87,-2.44,-2.94,-1.56,-0.03631160879466015,-0.09375381140663996,0.04990916661135003,-131.1213744286973,-47.15635695640368,-1.3865917007687605,-0.1049,-0.9104,-0.4,-0.0121
153,1305102.0,1265.784047,1.0,-0.56,1.87,-9.56,17.75,-14.88,26.87,-2.44,-2.94,-1.56,-0.03631160879466015,-0.09375381140663996,0.04990916661135003,-131.1213744286973,-47.15635695640368,-1.3865917007687605,-0.1049,-0.9104,-0.4,-0.0121
154,1305139.0,1265.828245,1.0,-0.57,1.85,-9.55,17.75,-16.0,25.56,-3.13,0.69,0.19,-0.05912480654804968,-0.10944315955883477,0.06322008789633493,-131.09368455172458,-47.18136407572362,-1.3751317128217122,-0.1055,-0.9103,-0.4002,-0.012
155,1305139.0,1265.828245,1.0,-0.57,1.85,-9.55,17.75,-16.0,25.56,-3.13,0.69,0.19,-0.05912480654804968,-0.10944315955883477,0.06322008789633493,-131.09368455172458,-47.18136407572362,-1.3751317128217122,-0.1055,-0.9103,-0.4002,-0.012
156,1305171.0,1265.8888539999998,1.0,-0.6,1.96,-9.63,17.75,-16.0,25.56,-0.88,-1.12,-0.5,-0.014326789660822875,-0.033774329973222265,-0.0390167645077657,-131.0660093808112,-47.168860218257045,-1.3980517025844337,-0.1058,-0.9102,-0.4001,-0.0122
157,1305171.0,1265.8888539999998,1.0,-0.6,1.96,-9.63,17.75,-16.0,25.56,-0.88,-1.12,-0.5,-0.014326789660822875,-0.033774329973222265,-0.0390167645077657,-131.0660093808112,-47.168860218257045,-1.3980517025844337,-0.1058,-0.9102,-0.4001,-0.0122
158,1305208.0,1265.906438,1.0,-0.55,2.06,-9.78,17.75,-16.0,26.5,-0.94,0.5,0.31,0.07562067913013891,-0.03827739185591561,-0.20271143588393947,-131.0660093808112,-47.168860218257045,-1.3865917007687605,-0.1061,-0.9102,-0.4001,-0.0121
159,1305208.0,1265.906438,1.0,-0.55,2.06,-9.78,17.75,-16.0,26.5,-0.94,0.5,0.31,0.07562067913013891,-0.03827739185591561,-0.20271143588393947,-131.0660093808112,-47.168860218257045,-1.3865917007687605,-0.1061,-0.9102,-0.4001,-0.0121
160,1305243.0,1265.951289,1.0,-0.5,2.01,-9.63,18.87,-16.75,26.06,0.88,-1.0,-0.12,0.08956546867264578,-0.08454138867742544,-0.04280840035998778,-131.0660093808112,-47.168860218257045,-1.3751317128217122,-0.1063,-0.9102,-0.4001,-0.012
161,1305243.0,1265.951289,1.0,-0.5,2.01,-9.63,18.87,-16.75,26.06,0.88,-1.0,-0.12,0.08956546867264578,-0.08454138867742544,-0.04280840035998778,-131.0660093808112,-47.168860218257045,-1.3751317128217122,-0.1063,-0.9102,-0.4001,-0.012
162,1305280.0,1265.97081,1.0,-0.49,1.98,-9.74,18.87,-16.75,26.06,2.0,-1.06,0.06,0.06967289841719186,-0.12592567345727246,-0.14359564581148554,-131.09368455172458,-47.168860218257045,-1.3522117780748235,-0.1059,-0.9103,-0.4001,-0.0118
163,1305280.0,1265.97081,1.0,-0.49,1.98,-9.74,18.87,-16.75,26.06,2.0,-1.06,0.06,0.06967289841719186,-0.12592567345727246,-0.14359564581148554,-131.09368455172458,-47.168860218257045,-1.3522117780748235,-0.1059,-0.9103,-0.4001,-0.0118
164,1305313.0,1265.9741960000001,1.0,-0.57,1.98,-9.64,17.37,-17.19,25.56,-0.44,-1.44,-0.69,0.03766271154852418,-0.052296726145914414,-0.0508723343694868,-131.0660093808112,-47.18136407572362,-1.283452294756085,-0.1058,-0.9102,-0.4002,-0.0112
165,1305313.0,1265.9741960000001,1.0,-0.57,1.98,-9.64,17.37,-17.19,25.56,-0.44,-1.44,-0.69,0.03766271154852418,-0.052296726145914414,-0.0508723343694868,-131.0660093808112,-47.18136407572362,-1.283452294756085,-0.1058,-0.9102,-0.4002,-0.0112
166,1305350.0,1266.01523,1.0,-0.65,1.93,-9.45,17.75,-15.69,26.0,2.25,-1.12,-0.63,-0.026982370648204215,0.007643541396473163,0.13974183203082902,-131.0660093808112,-47.18136407572362,-1.2490727279396536,-0.1057,-0.9102,-0.4002,-0.0109
167,1305350.0,1266.01523,1.0,-0.65,1.93,-9.45,17.75,-15.69,26.0,2.25,-1.12,-0.63,-0.026982370648204215,0.007643541396473163,0.13974183203082902,-131.0660093808112,-47.18136407572362,-1.2490727279396536,-0.1057,-0.9102,-0.4002,-0.0109
168,1305384.0,1266.0787990000001,1.0,-0.6,1.78,-9.6,17.75,-15.69,26.0,1.25,-0.5,-1.25,-0.10407566615032818,-0.1500802264049218,0.026310323825271098,-131.0660093808112,-47.2313854664036,-1.1917736982377245,-0.1052,-0.9102,-0.4006,-0.0104
169,1305384.0,1266.0787990000001,1.0,-0.6,1.78,-9.6,17.75,-15.69,26.0,1.25,-0.5,-1.25,-0.10407566615032818,-0.1500802264049218,0.026310323825271098,-131.0660093808112,-47.2313854664036,-1.1917736982377245,-0.1052,-0.9102,-0.4006,-0.0104
170,1305419.0,1266.097045,1.0,-0.74,1.79,-9.4,17.37,-17.19,24.75,0.88,-1.25,-0.31,-0.1634402566454678,-0.010110014056391892,0.21056303342224506,-131.0660093808112,-47.21887922414317,-1.1344749665222489,-0.1053,-0.9102,-0.4005,-0.0099
171,1305419.0,1266.097045,1.0,-0.74,1.79,-9.4,17.37,-17.19,24.75,0.88,-1.25,-0.31,-0.1634402566454678,-0.010110014056391892,0.21056303342224506,-131.0660093808112,-47.21887922414317,-1.1344749665222489,-0.1053,-0.9102,-0.4005,-0.0099
172,1305454.0,1266.1587710000001,1.0,-0.58,2.02,-9.55,17.75,-16.0,24.75,-1.06,0.94,0.88,0.09228424615148756,0.0006281288899236959,0.028573337211641462,-131.0660093808112,-47.20637357843252,-1.1688541705956874,-0.1052,-0.9102,-0.4004,-0.0102
173,1305454.0,1266.1587710000001,1.0,-0.58,2.02,-9.55,17.75,-16.0,24.75,-1.06,0.94,0.88,0.09228424615148756,0.0006281288899236959,0.028573337211641462,-131.0660093808112,-47.20637357843252,-1.1688541705956874,-0.1052,-0.9102,-0.4004,-0.0102
174,1305491.0,1266.162759,1.0,-0.52,2.01,-9.61,17.75,-16.75,26.0,1.19,0.0,-0.31,0.12099865780042825,-0.056971565692770176,-0.02415431935825829,-131.09368455172458,-47.1938685290374,-1.1688541705956874,-0.105,-0.9103,-0.4003,-0.0102
175,1305491.0,1266.162759,1.0,-0.52,2.01,-9.61,17.75,-16.75,26.0,1.19,0.0,-0.31,0.12099865780042825,-0.056971565692770176,-0.02415431935825829,-131.09368455172458,-47.1938685290374,-1.1688541705956874,-0.105,-0.9103,-0.4003,-0.0102
176,1305526.0,1266.202793,1.0,-0.66,2.0,-9.54,17.75,-16.75,26.0,-1.0,-0.56,-0.94,0.022882822524781143,0.04856035287159588,0.037089197765221016,-131.0660093808112,-47.21887922414317,-1.1803139285143014,-0.1052,-0.9102,-0.4005,-0.0103
177,1305526.0,1266.202793,1.0,-0.66,2.0,-9.54,17.75,-16.75,26.0,-1.0,-0.56,-0.94,0.022882822524781143,0.04856035287159588,0.037089197765221016,-131.0660093808112,-47.21887922414317,-1.1803139285143014,-0.1052,-0.9102,-0.4005,-0.0103
178,1305561.0,1266.263129,1.0,-0.62,1.91,-9.71,17.37,-16.37,24.75,1.25,1.06,-0.56,-0.030139342604839664,-0.06579777081433691,-0.10855863488929353,-131.03834889093932,-47.24389230544818,-1.1803139285143014,-0.1049,-0.9101,-0.4007,-0.0103
179,1305561.0,1266.263129,1.0,-0.62,1.91,-9.71,17.37,-16.37,24.75,1.25,1.06,-0.56,-0.030139342604839664,-0.06579777081433691,-0.10855863488929353,-131.03834889093932,-47.24389230544818,-1.1803139285143014,-0.1049,-0.9101,-0.4007,-0.0103
180,1305597.0,1266.322944,1.0,-0.56,1.9,-9.56,17.37,-16.37,25.19,0.63,-0.12,-0.37,0.022100710749563213,-0.08587697079382793,0.043999913856810124,-131.0660093808112,-47.24389230544818,-1.1688541705956874,-0.1047,-0.9102,-0.4007,-0.0102
181,1305597.0,1266.322944,1.0,-0.56,1.9,-9.56,17.37,-16.37,25.19,0.63,-0.12,-0.37,0.022100710749563213,-0.08587697079382793,0.043999913856810124,-131.0660093808112,-47.24389230544818,-1.1688541705956874,-0.1047,-0.9102,-0.4007,-0.0102
182,1305632.0,1266.333827,1.0,-0.58,1.86,-9.64,17.37,-16.37,25.19,-0.37,-0.06,-0.44,-0.02523474118189166,-0.1095458118787762,-0.027624905804563227,-131.03834889093932,-47.25639974151138,-1.1573944243672372,-0.1045,-0.9101,-0.4008,-0.0101
183,1305632.0,1266.333827,1.0,-0.58,1.86,-9.64,17.37,-16.37,25.19,-0.37,-0.06,-0.44,-0.02523474118189166,-0.1095458118787762,-0.027624905804563227,-131.03834889093932,-47.25639974151138,-1.1573944243672372,-0.1045,-0.9101,-0.4008,-0.0101
184,1305667.0,1266.3486380000002,1.0,-0.61,1.92,-9.63,18.19,-16.0,26.06,0.37,0.0,0.44,-0.003500579043616461,-0.047364520769342944,-0.031700692474766264,-131.03834889093932,-47.25639974151138,-1.1688541705956874,-0.1046,-0.9101,-0.4008,-0.0102
185,1305667.0,1266.3486380000002,1.0,-0.61,1.92,-9.63,18.19,-16.0,26.06,0.37,0.0,0.44,-0.003500579043616461,-0.047364520769342944,-0.031700692474766264,-131.03834889093932,-47.25639974151138,-1.1688541705956874,-0.1046,-0.9101,-0.4008,-0.0102
186,1305702.0,1266.3883039999998,1.0,-0.62,1.9,-9.53,18.19,-16.37,26.87,0.56,0.69,0.0,-0.014606814001648176,-0.03065335129678481,0.06939437980397932,-131.03834889093932,-47.26890777482772,-1.1803139285143014,-0.1044,-0.9101,-0.4009,-0.0103
187,1305702.0,1266.3883039999998,1.0,-0.62,1.9,-9.53,18.19,-16.37,26.87,0.56,0.69,0.0,-0.014606814001648176,-0.03065335129678481,0.06939437980397932,-131.03834889093932,-47.26890777482772,-1.1803139285143014,-0.1044,-0.9101,-0.4009,-0.0103
188,1305739.0,1266.405432,1.0,-0.6,1.86,-9.66,18.5,-15.69,26.06,0.69,0.63,0.56,-0.04465524272693168,-0.08802529478336507,-0.04857488108593522,-131.0660093808112,-47.26890777482772,-1.2032334798806037,-0.1041,-0.9102,-0.4009,-0.0105
189,1305739.0,1266.405432,1.0,-0.6,1.86,-9.66,18.5,-15.69,26.06,0.69,0.63,0.56,-0.04465524272693168,-0.08802529478336507,-0.04857488108593522,-131.0660093808112,-47.26890777482772,-1.2032334798806037,-0.1041,-0.9102,-0.4009,-0.0105
