acc_x,acc_y,acc_z,lin_x,lin_y,lin_z,eul_x,eul_y,eul_z
3.47,3.81,8.28,-0.0740329672115132,-0.0671757702193753,0.0544499130626299,-31.054898349248795,-3.965659465674837,-94.175947342697
3.47,3.81,8.28,-0.0740329672115132,-0.0671757702193753,0.0544499130626299,-31.054898349248795,-3.965659465674837,-94.175947342697
3.49,3.76,8.19,-0.0666572143449863,-0.1219707228144395,0.1436028636898445,-31.06679175207397,-3.977125506843028,-94.15911861877714
3.49,3.76,8.19,-0.0666572143449863,-0.1219707228144395,0.1436028636898445,-31.06679175207397,-3.977125506843028,-94.15911861877714
3.45,3.79,8.36,-0.0150732430935659,-0.0286168135251252,0.0007765623440612,-31.078685498016352,-3.977125506843028,-94.15911861877714
3.45,3.79,8.36,-0.0150732430935659,-0.0286168135251252,0.0007765623440612,-31.078685498016352,-3.977125506843028,-94.15911861877714
3.47,3.77,8.32,-0.0126687833175038,-0.0640292113774418,0.035675649300904,-31.09057958723377,-4.000057708800217,-94.175947342697
3.47,3.77,8.32,-0.0126687833175038,-0.0640292113774418,0.035675649300904,-31.09057958723377,-4.000057708800217,-94.175947342697
3.5,3.84,8.18,-0.1387062336145844,-0.1161073586968359,0.1177243804066226,-31.09057958723377,-4.000057708800217,-94.175947342697
3.5,3.84,8.18,-0.1387062336145844,-0.1161073586968359,0.1177243804066226,-31.09057958723377,-4.000057708800217,-94.175947342697
3.39,3.81,8.36,-0.0235704908550547,0.0324630871239601,0.0139899640375933,-31.10247401988412,-4.000057708800217,-94.175947342697
3.39,3.81,8.36,-0.0235704908550547,0.0324630871239601,0.0139899640375933,-31.10247401988412,-4.000057708800217,-94.175947342697
3.44,3.82,8.32,-0.0505527669003548,-0.027114602925935,0.02681824193448,-31.10247401988412,-4.034456312516312,-94.19277872550184
3.44,3.82,8.32,-0.0505527669003548,-0.027114602925935,0.02681824193448,-31.10247401988412,-4.034456312516312,-94.19277872550184
3.53,3.75,8.24,-0.0273565388781714,-0.1481264438361695,0.0907707203662173,-31.114368796125287,-4.045922594423996,-94.20961276881576
3.53,3.75,8.24,-0.0273565388781714,-0.1481264438361695,0.0907707203662173,-31.114368796125287,-4.045922594423996,-94.20961276881576
3.5,3.84,8.29,-0.080919814246016,-0.0862516959269665,0.0237203453100462,-31.12626391611525,-4.068855279934243,-94.243288843474
3.5,3.84,8.29,-0.080919814246016,-0.0862516959269665,0.0237203453100462,-31.12626391611525,-4.068855279934243,-94.243288843474
3.45,3.9,8.33,-0.1081960925929251,-0.01173934805726,-0.016259741683207,-31.16195134015795,-4.080321683767285,-94.26013087807388
3.45,3.9,8.33,-0.1081960925929251,-0.01173934805726,-0.016259741683207,-31.16195134015795,-4.080321683767285,-94.26013087807388
3.66,3.85,8.21,-0.1178290441116536,-0.2562225132330436,0.0320571010565178,-31.20953939428692,-4.160587661476331,-94.26013087807388
3.66,3.85,8.21,-0.1178290441116536,-0.2562225132330436,0.0320571010565178,-31.20953939428692,-4.160587661476331,-94.26013087807388
3.72,4.0,8.46,-0.1284382271285577,-0.20184771391964,-0.2607608450086349,-31.31663271482452,-4.1720543955147065,-94.14229255211988
3.72,4.0,8.46,-0.1284382271285577,-0.20184771391964,-0.2607608450086349,-31.31663271482452,-4.1720543955147065,-94.14229255211988
3.8,4.24,8.56,-0.272112784984014,-0.199150262888006,-0.4684409390155722,-31.459467480314125,-4.194987989089829,-93.75602271423008
3.8,4.24,8.56,-0.272112784984014,-0.199150262888006,-0.4684409390155722,-31.459467480314125,-4.194987989089829,-93.75602271423008
3.38,4.14,8.61,-0.0867462501819516,0.1911697694008878,-0.3250837710456356,-31.68572522309548,-4.275256896440698,-93.45469190215636
3.38,4.14,8.61,-0.0867462501819516,0.1911697694008878,-0.3250837710456356,-31.68572522309548,-4.275256896440698,-93.45469190215636
4.04,4.07,8.03,-0.2818201142412649,-0.6276156573842941,-0.0368288570817352,-31.79294414962257,-4.447268815934101,-93.17087251757091
4.04,4.07,8.03,-0.2818201142412649,-0.6276156573842941,-0.0368288570817352,-31.79294414962257,-4.447268815934101,-93.17087251757091
4.46,4.87,7.6,-1.1839954768207308,-0.9801579170727266,-0.1435231225375019,-31.924028325694472,-4.49314033842009,-92.98762003555102
4.46,4.87,7.6,-1.1839954768207308,-0.9801579170727266,-0.1435231225375019,-31.924028325694472,-4.49314033842009,-92.98762003555102
4.69,5.23,7.25,-1.5740035736647258,-1.1974374241182737,-0.092852834254435,-32.48460118565665,-4.573417240623146,-92.43970392561262
4.69,5.23,7.25,-1.5740035736647258,-1.1974374241182737,-0.092852834254435,-32.48460118565665,-4.573417240623146,-92.43970392561262
3.87,5.4,7.65,-1.3698881168885972,-0.2265050544830327,-0.2298584570034165,-33.32098517464778,-4.6536963885673295,-91.69691933728232
3.87,5.4,7.65,-1.3698881168885972,-0.2265050544830327,-0.2298584570034165,-33.32098517464778,-4.6536963885673295,-91.69691933728232
3.52,5.56,8.16,-1.0173810054197223,0.3699152639297618,-0.6201279580905511,-34.723057470664465,-4.986306217889054,-90.64896993931684
3.52,5.56,8.16,-1.0173810054197223,0.3699152639297618,-0.6201279580905511,-34.723057470664465,-4.986306217889054,-90.64896993931684
3.26,5.75,8.25,-0.9327510221614166,0.714414728243272,-0.6991668233948385,-35.793182116680164,-5.341901218009245,-89.61062519853644
3.26,5.75,8.25,-0.9327510221614166,0.714414728243272,-0.6991668233948385,-35.793182116680164,-5.341901218009245,-89.61062519853644
3.28,6.45,8.48,-1.094191892523394,0.8854892642095296,-1.251828777178433,-37.229102364563495,-6.133576755953128,-87.84742865430181
3.28,6.45,8.48,-1.094191892523394,0.8854892642095296,-1.251828777178433,-37.229102364563495,-6.133576755953128,-87.84742865430181
4.16,8.05,7.49,-2.5306934994327444,-0.0953612884143382,-1.6735371342152303,-38.62253627833281,-7.35035834348681,-86.04727130143922
4.16,8.05,7.49,-2.5306934994327444,-0.0953612884143382,-1.6735371342152303,-38.62253627833281,-7.35035834348681,-86.04727130143922
4.39,8.99,6.55,-3.4024008055664505,-0.5185944015007706,-1.6453991007073885,-40.1073131219034,-8.556479215940191,-84.75308505755767
4.39,8.99,6.55,-3.4024008055664505,-0.5185944015007706,-1.6453991007073885,-40.1073131219034,-8.556479215940191,-84.75308505755767
4.67,9.72,5.83,-3.890779764289584,-0.8290801929900731,-1.788636061990287,-42.163546289132256,-9.90156821424672,-83.70265109878629
4.67,9.72,5.83,-3.890779764289584,-0.8290801929900731,-1.788636061990287,-42.163546289132256,-9.90156821424672,-83.70265109878629
4.66,9.28,5.5,-2.9495496717904537,-0.6809314151239096,-1.547665881704992,-45.98367660557063,-11.823900394126868,-82.44730326413901
4.66,9.28,5.5,-2.9495496717904537,-0.6809314151239096,-1.547665881704992,-45.98367660557063,-11.823900394126868,-82.44730326413901
4.78,9.45,5.31,-2.2622606446995057,-0.5273249857894129,-1.810195748085233,-50.28866780725309,-13.807290567361374,-80.25639506580565
4.78,9.45,5.31,-2.2622606446995057,-0.5273249857894129,-1.810195748085233,-50.28866780725309,-13.807290567361374,-80.25639506580565
3.76,8.23,5.35,-0.7718618144382741,0.3522888867910847,-0.6706169088677694,-53.94978377937824,-15.586632804931574,-77.79071544905813
3.76,8.23,5.35,-0.7718618144382741,0.3522888867910847,-0.6706169088677694,-53.94978377937824,-15.586632804931574,-77.79071544905813
3.63,7.61,4.67,-0.0240006382749882,0.2866302304361494,0.1725871457124839,-58.64173070844467,-17.474100846214462,-74.04089516831135
3.63,7.61,4.67,-0.0240006382749882,0.2866302304361494,0.1725871457124839,-58.64173070844467,-17.474100846214462,-74.04089516831135
3.42,6.87,4.24,0.5407340742209272,0.2613903254943715,1.059640124693214,-61.59428159649024,-18.76214012304259,-71.60598002322817
3.42,6.87,4.24,0.5407340742209272,0.2613903254943715,1.059640124693214,-61.59428159649024,-18.76214012304259,-71.60598002322817
3.32,6.43,4.2,1.239764940898605,0.3656273332004858,1.5400545977479112,-64.7285179210035,-20.11076285425295,-68.8879335180276
3.32,6.43,4.2,1.239764940898605,0.3656273332004858,1.5400545977479112,-64.7285179210035,-20.11076285425295,-68.8879335180276
2.54,5.19,4.44,2.069423826493851,0.9830568374249912,2.8891082198058573,-66.73402593846353,-20.79776947557341,-67.31126086505994
2.54,5.19,4.44,2.069423826493851,0.9830568374249912,2.8891082198058573,-66.73402593846353,-20.79776947557341,-67.31126086505994
2.64,4.78,4.11,2.241338612806616,0.7826300412858114,3.397750606093189,-68.84625287494748,-21.35724709777197,-66.2407734880853
2.64,4.78,4.11,2.241338612806616,0.7826300412858114,3.397750606093189,-68.84625287494748,-21.35724709777197,-66.2407734880853
4.3,4.37,3.22,2.280714601013865,-1.1102656909029855,3.3629747285166607,-69.36104422677951,-21.46220610254345,-66.0083301332499
4.3,4.37,3.22,2.280714601013865,-1.1102656909029855,3.3629747285166607,-69.36104422677951,-21.46220610254345,-66.0083301332499
5.53,5.59,3.2,2.120046364870636,-1.9031081054174304,1.8096141147551883,-68.76292273675115,-20.21551264575777,-64.86423446267784
5.53,5.59,3.2,2.120046364870636,-1.9031081054174304,1.8096141147551883,-68.76292273675115,-20.21551264575777,-64.86423446267784
5.14,8.98,4.21,1.0517399238809833,-0.4296360603021796,-1.306106453202908,-67.94570061664109,-18.390575402245243,-63.86232469664676
5.14,8.98,4.21,1.0517399238809833,-0.4296360603021796,-1.306106453202908,-67.94570061664109,-18.390575402245243,-63.86232469664676
6.35,6.08,2.95,2.0002598446049853,-2.541614901326855,1.1158183799872088,-68.55477847008558,-17.6712197397126,-62.85241532591269
6.35,6.08,2.95,2.0002598446049853,-2.541614901326855,1.1158183799872088,-68.55477847008558,-17.6712197397126,-62.85241532591269
5.37,6.55,3.51,1.8264307371074344,-1.3145753342837323,0.9187063428292372,-68.63800520067792,-16.454539675361616,-61.43426408705058
5.37,6.55,3.51,1.8264307371074344,-1.3145753342837323,0.9187063428292372,-68.63800520067792,-16.454539675361616,-61.43426408705058
4.43,6.79,3.43,1.211173067255365,-0.4841632100746183,1.1007585587307318,-68.98522882076507,-14.419262116395176,-59.40545261479044
4.43,6.79,3.43,1.211173067255365,-0.4841632100746183,1.1007585587307318,-68.98522882076507,-14.419262116395176,-59.40545261479044
3.55,7.07,3.91,0.8639635179854215,0.6485069727998356,1.0483107883788687,-69.38891628677108,-11.800859775906506,-57.24022157573342
3.55,7.07,3.91,0.8639635179854215,0.6485069727998356,1.0483107883788687,-69.38891628677108,-11.800859775906506,-57.24022157573342
3.39,8.84,3.9,-0.2728307091200546,0.9955020063454684,-0.3807068289092133,-69.65393554150937,-9.798053639345571,-55.58877661222697
3.39,8.84,3.9,-0.2728307091200546,0.9955020063454684,-0.3807068289092133,-69.65393554150937,-9.798053639345571,-55.58877661222697
3.39,8.48,3.68,-0.2038074503470658,0.9927935235620806,0.0128905817400095,-70.9010852783508,-8.384121213370948,-54.026945257147645
3.39,8.48,3.68,-0.2038074503470658,0.9927935235620806,0.0128905817400095,-70.9010852783508,-8.384121213370948,-54.026945257147645
4.45,8.16,3.05,0.3578127161578068,0.2915924559546945,0.0353888787431326,-74.14139436333637,-6.00734895779625,-51.3034854195264
4.45,8.16,3.05,0.3578127161578068,0.2915924559546945,0.0353888787431326,-74.14139436333637,-6.00734895779625,-51.3034854195264
4.56,8.08,2.13,0.0757301715848726,0.2069648085784469,0.2899105105991371,-78.30697537947441,-2.440984806055245,-48.058128241744505
4.56,8.08,2.13,0.0757301715848726,0.2069648085784469,0.2899105105991371,-78.30697537947441,-2.440984806055245,-48.058128241744505
5.57,7.95,0.95,0.2851238408468136,-1.0019728702477462,0.1089876650520409,-80.22642428776203,-0.6417160846123932,-46.369842053756535
5.57,7.95,0.95,0.2851238408468136,-1.0019728702477462,0.1089876650520409,-80.22642428776203,-0.6417160846123932,-46.369842053756535
5.49,8.46,0.7,-0.0380088579267337,-0.7878496466384015,-0.2720179804927998,-81.99103761990294,1.4095117183833985,-44.24647435383947
5.49,8.46,0.7,-0.0380088579267337,-0.7878496466384015,-0.2720179804927998,-81.99103761990294,1.4095117183833985,-44.24647435383947
5.4,8.1,0.65,0.1950587686599076,-0.5867357090643077,0.0695974026028967,-83.51817693642106,3.0599582684028324,-42.12670509670736
5.4,8.1,0.65,0.1950587686599076,-0.5867357090643077,0.0695974026028967,-83.51817693642106,3.0599582684028324,-42.12670509670736
4.91,7.93,1.23,0.2733292924346589,0.3742107960885725,0.4103125551235163,-85.01706567993352,5.078067932263361,-39.58320288872564
4.91,7.93,1.23,0.2733292924346589,0.3742107960885725,0.4103125551235163,-85.01706567993352,5.078067932263361,-39.58320288872564
5.17,8.76,0.73,-0.0927399594210213,0.043381012834736,-0.3908456429337104,-85.59354940204219,6.11062569758793,-38.306987464775865
5.17,8.76,0.73,-0.0927399594210213,0.043381012834736,-0.3908456429337104,-85.59354940204219,6.11062569758793,-38.306987464775865
5.4,8.51,-0.03,0.0799339944573184,-0.4671529331551625,-0.2609405108210776,-87.35524570014307,7.465189762811248,-36.35960237870008
5.4,8.51,-0.03,0.0799339944573184,-0.4671529331551625,-0.2609405108210776,-87.35524570014307,7.465189762811248,-36.35960237870008
5.16,8.14,0.47,0.3318346925873789,0.2091120283283931,0.1654748695294472,-88.43755212986639,8.257737442475136,-35.10745640434998
5.16,8.14,0.47,0.3318346925873789,0.2091120283283931,0.1654748695294472,-88.43755212986639,8.257737442475136,-35.10745640434998
4.94,9.17,0.78,-0.1460146132040051,0.7476559785800907,-0.6106716457218209,-88.74173969605336,8.476043091817116,-34.07529458830543
4.94,9.17,0.78,-0.1460146132040051,0.7476559785800907,-0.6106716457218209,-88.74173969605336,8.476043091817116,-34.07529458830543
5.62,9.59,-0.28,0.0159052703305216,-0.4107107153102039,-1.3046939209982664,-88.88610446361312,8.108387763620353,-33.416687431310486
5.62,9.59,-0.28,0.0159052703305216,-0.4107107153102039,-1.3046939209982664,-88.88610446361312,8.108387763620353,-33.416687431310486
4.88,8.86,-0.3,0.0197674816322441,-0.2713014207247069,-0.3091794166016211,-89.75607508695732,7.683390239501281,-31.804859125621785
4.88,8.86,-0.3,0.0197674816322441,-0.2713014207247069,-0.3091794166016211,-89.75607508695732,7.683390239501281,-31.804859125621785
4.94,8.21,0.06,0.6416303405357011,-0.0276931724405891,0.2463757573694956,-90.19353290614056,7.051830951076286,-31.031112572318907
4.94,8.21,0.06,0.6416303405357011,-0.0276931724405891,0.2463757573694956,-90.19353290614056,7.051830951076286,-31.031112572318907
5.62,13.11,-0.72,-0.8911385986596961,-0.4417988545665503,-4.440650999490485,-89.75607508695732,7.051830951076286,-29.535319528051428
5.62,13.11,-0.72,-0.8911385986596961,-0.4417988545665503,-4.440650999490485,-89.75607508695732,7.051830951076286,-29.535319528051428
5.2,8.84,0.13,1.2324094789335742,0.3514967340117021,-0.3697991313136253,-92.95433457722172,5.307486603594608,-28.24548909512887
5.2,8.84,0.13,1.2324094789335742,0.3514967340117021,-0.3697991313136253,-92.95433457722172,5.307486603594608,-28.24548909512887
6.58,7.81,-2.82,2.052393209389491,-2.984952297521221,-0.149385450698972,-93.35443526255776,4.344060485976967,-28.18641141984425
6.58,7.81,-2.82,2.052393209389491,-2.984952297521221,-0.149385450698972,-93.35443526255776,4.344060485976967,-28.18641141984425
2.48,12.57,1.72,-1.663308509513458,2.396886208829633,-2.787080237864492,-90.5512225500058,4.240855681461491,-25.394572616004385
2.48,12.57,1.72,-1.663308509513458,2.396886208829633,-2.787080237864492,-90.5512225500058,4.240855681461491,-25.394572616004385
1.49,9.93,1.66,-1.1994880034775075,2.2809563587342296,-0.0391138921042308,-91.28639832349864,2.521217704700676,-23.31957649574687
1.49,9.93,1.66,-1.1994880034775075,2.2809563587342296,-0.0391138921042308,-91.28639832349864,2.521217704700676,-23.31957649574687
1.85,9.25,0.95,-0.4454473373542375,1.322440633273218,0.4290049096208629,-91.07352101138804,-0.8594447501191841,-23.518522416981742
1.85,9.25,0.95,-0.4454473373542375,1.322440633273218,0.4290049096208629,-91.07352101138804,-0.8594447501191841,-23.518522416981742
2.99,8.54,0.6,0.928006196186076,0.7867225502504,0.8204621470354443,-92.65522197363408,-1.1803139285143014,-21.823871652385925
2.99,8.54,0.6,0.928006196186076,0.7867225502504,0.8204621470354443,-92.65522197363408,-1.1803139285143014,-21.823871652385925
1.4,10.83,0.94,-0.6434784283125983,1.5091531234309932,-1.0303649193555504,-91.5161040700392,-3.2892294003721183,-21.170698001897183
1.4,10.83,0.94,-0.6434784283125983,1.5091531234309932,-1.0303649193555504,-91.5161040700392,-3.2892294003721183,-21.170698001897183
2.26,7.97,-1.41,0.1262445250868235,-1.1216474681282675,1.4794314201182974,-92.5059720581388,-5.101008867683621,-21.858883165817787
2.26,7.97,-1.41,0.1262445250868235,-1.1216474681282675,1.4794314201182974,-92.5059720581388,-5.101008867683621,-21.858883165817787
2.01,8.0,-1.32,0.0813553584015759,-0.9807489594288428,1.5112288060979908,-92.58886357052629,-6.581172764918962,-21.543853477197025
2.01,8.0,-1.32,0.0813553584015759,-0.9807489594288428,1.5112288060979908,-92.58886357052629,-6.581172764918962,-21.543853477197025
1.67,9.33,-0.83,-0.1055193317414748,-0.4358429792119161,0.3026715400022848,-91.84507796689996,-7.35035834348681,-20.57644875978384
1.67,9.33,-0.83,-0.1055193317414748,-0.4358429792119161,0.3026715400022848,-91.84507796689996,-7.35035834348681,-20.57644875978384
1.45,9.84,-1.07,-0.2272274963767586,-0.8246626456759145,-0.1603605440757487,-90.74680173049413,-7.5455762164051485,-18.634392500869453
1.45,9.84,-1.07,-0.2272274963767586,-0.8246626456759145,-0.1603605440757487,-90.74680173049413,-7.5455762164051485,-18.634392500869453
1.2,9.06,-0.68,-0.0743824349464169,-0.7184578373327799,0.670770973362961,-89.30416461407226,-7.8212153932673,-17.161136490218524
1.2,9.06,-0.68,-0.0743824349464169,-0.7184578373327799,0.670770973362961,-89.30416461407226,-7.8212153932673,-17.161136490218524
0.94,10.26,-0.5,-0.2193351334737919,-0.9661413325613156,-0.460757804540572,-86.67586147437744,-8.292204739238791,-15.667598608855752
0.94,10.26,-0.5,-0.2193351334737919,-0.9661413325613156,-0.460757804540572,-86.67586147437744,-8.292204739238791,-15.667598608855752
0.28,9.88,0.15,-0.4226136793382539,-0.4435981319766231,-0.0594494509148919,-85.2504534784823,-9.050681021579294,-14.430812668433536
0.28,9.88,0.15,-0.4226136793382539,-0.4435981319766231,-0.0594494509148919,-85.2504534784823,-9.050681021579294,-14.430812668433536
-0.26,10.09,0.3,-0.5681058643602571,-0.5082586371704094,-0.2623434394963855,-83.67188694987544,-10.396251161173767,-12.619102083523115
-0.26,10.09,0.3,-0.5681058643602571,-0.5082586371704094,-0.2623434394963855,-83.67188694987544,-10.396251161173767,-12.619102083523115
-0.48,9.66,0.64,-0.4230515379377547,-0.2549022938640748,0.1261721080345754,-82.88987813746495,-11.581997645669874,-11.570479767497384
-0.48,9.66,0.64,-0.4230515379377547,-0.2549022938640748,0.1261721080345754,-82.88987813746495,-11.581997645669874,-11.570479767497384
-0.89,9.83,1.43,-0.1979995030208046,0.3357077100453454,-0.1589907987755428,-81.70288473795871,-13.368762981498053,-9.821056182581472
-0.89,9.83,1.43,-0.1979995030208046,0.3357077100453454,-0.1589907987755428,-81.70288473795871,-13.368762981498053,-9.821056182581472
-1.1,9.58,0.88,-0.1547690683464769,-0.2693412541492268,0.1286180810457917,-80.87226170457619,-15.551935573755918,-8.430081473298436
-1.1,9.58,0.88,-0.1547690683464769,-0.2693412541492268,0.1286180810457917,-80.87226170457619,-15.551935573755918,-8.430081473298436
-1.23,10.0,1.01,0.0316532227578128,-0.2411819270853455,-0.3162858069453591,-80.57148847643886,-16.744050792597328,-7.614481849246592
-1.23,10.0,1.01,0.0316532227578128,-0.2411819270853455,-0.3162858069453591,-80.57148847643886,-16.744050792597328,-7.614481849246592
-1.3,10.03,1.33,0.2890785148719153,0.1062315666837383,-0.3896703395381493,-80.85720708472816,-17.613238149656624,-6.7418724197947295
-1.3,10.03,1.33,0.2890785148719153,0.1062315666837383,-0.3896703395381493,-80.85720708472816,-17.613238149656624,-6.7418724197947295
-0.38,9.13,-0.02,0.9382233171631178,-0.9796197873037232,0.7699591189609425,-82.98163371130366,-18.715683728517146,-5.720494487173099
-0.38,9.13,-0.02,0.9382233171631178,-0.9796197873037232,0.7699591189609425,-82.98163371130366,-18.715683728517146,-5.720494487173099
-1.07,8.76,-0.23,0.4907345593851182,-0.6463668670594247,1.0159282170408286,-85.18817401740314,-19.12228331882828,-3.701951248377608
-1.07,8.76,-0.23,0.4907345593851182,-0.6463668670594247,1.0159282170408286,-85.18817401740314,-19.12228331882828,-3.701951248377608
-1.98,10.15,-0.02,0.1630130595588569,-0.2570002587988949,-0.5302101426831065,-85.89062667972252,-18.83183055191492,-1.7533192633889718
-1.98,10.15,-0.02,0.1630130595588569,-0.2570002587988949,-0.5302101426831065,-85.89062667972252,-18.83183055191492,-1.7533192633889718
-2.16,9.4,-0.17,-0.0005495086556071,-0.1437861033567928,0.1612456406938687,-87.19690747668942,-18.55311073338957,-0.0343774682235114
-2.16,9.4,-0.17,-0.0005495086556071,-0.1437861033567928,0.1612456406938687,-87.19690747668942,-18.55311073338957,-0.0343774682235114
-2.48,7.79,-0.23,-0.542008211166243,0.045808866661797,1.646286733161718,-88.03849807642652,-18.796984460560505,0.9167422509706517
-2.48,7.79,-0.23,-0.542008211166243,0.045808866661797,1.646286733161718,-88.03849807642652,-18.796984460560505,0.9167422509706517
-2.28,8.72,0.27,0.0840956657959105,0.5192020703247398,0.8048136801614252,-88.51752516910072,-18.92476206303288,1.7189378496716434
-2.28,8.72,0.27,0.0840956657959105,0.5192020703247398,0.8048136801614252,-88.51752516910072,-18.92476206303288,1.7189378496716434
-1.84,8.85,-1.08,0.3164471360229123,-0.7983097464372797,0.7436999968914026,-89.23974978700055,-18.738911537329376,2.3034454566839293
-1.84,8.85,-1.08,0.3164471360229123,-0.7983097464372797,0.7436999968914026,-89.23974978700055,-18.738911537329376,2.3034454566839293
-1.83,8.52,-1.07,0.2715672195349131,-0.7042306665712204,1.0593926919328194,-89.83696005570141,-18.599556301853195,2.578527672575933
-1.83,8.52,-1.07,0.2715672195349131,-0.7042306665712204,1.0593926919328194,-89.83696005570141,-18.599556301853195,2.578527672575933
-2.07,9.83,-0.55,0.422625908121556,-0.2269223923222317,-0.2425387020618341,-89.4331017243669,-18.286108128329392,2.4639083675369537
-2.07,9.83,-0.55,0.422625908121556,-0.2269223923222317,-0.2425387020618341,-89.4331017243669,-18.286108128329392,2.4639083675369537
-2.79,11.2,-0.03,0.1172217286197741,0.3588224693594481,-1.7294891072499716,-89.33638544460486,-17.555261104447528,2.7733864743736323
-2.79,11.2,-0.03,0.1172217286197741,0.3588224693594481,-1.7294891072499716,-89.33638544460486,-17.555261104447528,2.7733864743736323
-3.37,9.5,0.65,-0.7055156741119191,1.318683378999031,-0.1829807128709272,-90.46983065734317,-17.253853117357277,3.300693295071686
-3.37,9.5,0.65,-0.7055156741119191,1.318683378999031,-0.1829807128709272,-90.46983065734317,-17.253853117357277,3.300693295071686
-3.65,9.78,0.7,-0.8775225400582893,1.6532612598540384,-0.48691990544852,-91.79566979807733,-17.230672895970507,3.32362118371626
-3.65,9.78,0.7,-0.8775225400582893,1.6532612598540384,-0.48691990544852,-91.79566979807733,-17.230672895970507,3.32362118371626
-4.84,8.69,2.18,-1.974479215925908,3.5643578688212485,0.4744002814782835,-93.10419946060928,-17.996001378555594,2.6243761106355543
-4.84,8.69,2.18,-1.974479215925908,3.5643578688212485,0.4744002814782835,-93.10419946060928,-17.996001378555594,2.6243761106355543
-1.17,10.77,-3.69,0.7485761877165842,-2.455957128084651,-1.3461885748290054,-93.95738073569972,-21.275624852029367,-1.0198783397289315
-1.17,10.77,-3.69,0.7485761877165842,-2.455957128084651,-1.3461885748290054,-93.95738073569972,-21.275624852029367,-1.0198783397289315
-1.15,9.36,-3.11,0.5378259711029517,-1.563795387734423,0.0153534969771396,-95.78703781823206,-23.63558298502357,-3.0599582684028324
-1.15,9.36,-3.11,0.5378259711029517,-1.563795387734423,0.0153534969771396,-95.78703781823206,-23.63558298502357,-3.0599582684028324
-0.88,11.43,-4.71,0.8452802832503241,-2.606736499322998,-2.280277900250153,-96.86939197442554,-25.124476539770274,-4.2867240536107065
-0.88,11.43,-4.71,0.8452802832503241,-2.606736499322998,-2.280277900250153,-96.86939197442554,-25.124476539770274,-4.2867240536107065
-1.97,10.47,-4.34,-0.1784241003952565,-1.5914492953390305,-1.5851388841376917,-98.29569898571506,-26.47640945025204,-4.940426564140192
-1.97,10.47,-4.34,-0.1784241003952565,-1.5914492953390305,-1.5851388841376917,-98.29569898571506,-26.47640945025204,-4.940426564140192
-1.77,10.12,-4.16,0.1723478585834005,-0.9033986603630364,-1.2390309240578734,-100.65391350970894,-29.10890564472929,-6.190955481383822
-1.77,10.12,-4.16,0.1723478585834005,-0.9033986603630364,-1.2390309240578734,-100.65391350970894,-29.10890564472929,-6.190955481383822
-1.29,9.61,-4.59,0.3851865236952898,-0.533470305380991,-0.900886634316981,-105.12180982139752,-30.817102104618424,-8.108387763620353
-1.29,9.61,-4.59,0.3851865236952898,-0.533470305380991,-0.900886634316981,-105.12180982139752,-30.817102104618424,-8.108387763620353
-1.74,11.66,-2.97,1.4536559076160134,2.6590397958875207,-1.9670703918786645,-109.29346359122704,-31.55471850803617,-10.028097037556812
-1.74,11.66,-2.97,1.4536559076160134,2.6590397958875207,-1.9670703918786645,-109.29346359122704,-31.55471850803617,-10.028097037556812
-1.25,8.76,-4.35,0.638648555246017,1.7217558754379887,0.1190143375549599,-114.70384241769943,-34.831128724414064,-12.653689634339962
-1.25,8.76,-4.35,0.638648555246017,1.7217558754379887,0.1190143375549599,-114.70384241769943,-34.831128724414064,-12.653689634339962
-2.96,5.02,-2.6,-1.2835985885315833,3.1091556074896807,4.383779351355022,-116.59757736800644,-38.58611130749907,-18.06561632088332
-2.96,5.02,-2.6,-1.2835985885315833,3.1091556074896807,4.383779351355022,-116.59757736800644,-38.58611130749907,-18.06561632088332
0.57,6.82,-5.8,-0.1627265143240481,0.6244010389342329,0.8589718976030554,-112.21802358107666,-44.38257587959071,-26.817917077101303
0.57,6.82,-5.8,-0.1627265143240481,0.6244010389342329,0.8589718976030554,-112.21802358107666,-44.38257587959071,-26.817917077101303
4.32,4.79,-9.62,-2.2724305394363857,-3.5458146020913333,-0.9828892974414192,-109.90973941260324,-47.09384957314965,-33.57225481905068
4.32,4.79,-9.62,-2.2724305394363857,-3.5458146020913333,-0.9828892974414192,-109.90973941260324,-47.09384957314965,-33.57225481905068
2.51,4.24,-5.6,-0.8943834387904043,-0.5507960742813621,2.4219088434682643,-108.36791454974384,-48.98825821247561,-38.58611130749907
2.51,4.24,-5.6,-0.8943834387904043,-0.5507960742813621,2.4219088434682643,-108.36791454974384,-48.98825821247561,-38.58611130749907
3.23,1.2,-5.12,-1.9837754312593407,-2.4203972200692827,4.487475972445278,-106.81586235047912,-50.21272747501065,-41.14593859433644
3.23,1.2,-5.12,-1.9837754312593407,-2.4203972200692827,4.487475972445278,-106.81586235047912,-50.21272747501065,-41.14593859433644
5.56,2.26,-4.43,-0.4884586326512875,-3.354472150168593,3.161725263185314,-104.98995994505609,-48.96307461903554,-46.19537604537457
5.56,2.26,-4.43,-0.4884586326512875,-3.354472150168593,3.161725263185314,-104.98995994505609,-48.96307461903554,-46.19537604537457
7.18,6.07,-4.74,1.4269405212715964,-2.745842780984556,-0.2575980181515884,-104.10974226118626,-48.007947366775134,-46.88143541316104
7.18,6.07,-4.74,1.4269405212715964,-2.745842780984556,-0.2575980181515884,-104.10974226118626,-48.007947366775134,-46.88143541316104
6.58,6.19,-7.46,-0.6536863330652429,-2.1850170813709098,-1.6851946966568896,-106.58549683521667,-45.95878171202678,-45.7223943424676
6.58,6.19,-7.46,-0.6536863330652429,-2.1850170813709098,-1.6851946966568896,-106.58549683521667,-45.95878171202678,-45.7223943424676
3.79,6.6,-6.72,-0.7395433404933608,0.2757826072269651,-0.3155789838297469,-110.1896107771162,-42.70441132531611,-43.33257535076985
3.79,6.6,-6.72,-0.7395433404933608,0.2757826072269651,-0.3155789838297469,-110.1896107771162,-42.70441132531611,-43.33257535076985
4.77,4.4,-6.98,-0.6952685023421242,-1.7472476814613769,0.4633621820379101,-115.64449198892322,-39.497964529561656,-39.54666937259589
4.77,4.4,-6.98,-0.6952685023421242,-1.7472476814613769,0.4633621820379101,-115.64449198892322,-39.497964529561656,-39.54666937259589
5.28,5.5,-7.27,0.3035983849403489,-1.3288105160981702,-0.6395641770580465,-120.31578829659291,-35.17957649356332,-36.69748080490138
5.28,5.5,-7.27,0.3035983849403489,-1.3288105160981702,-0.6395641770580465,-120.31578829659291,-35.17957649356332,-36.69748080490138
4.65,11.89,-6.83,2.7144280113583017,4.064579576856965,-3.82253095244724,-125.8974793863132,-29.49976914452507,-32.8547775548023
4.65,11.89,-6.83,2.7144280113583017,4.064579576856965,-3.82253095244724,-125.8974793863132,-29.49976914452507,-32.8547775548023
2.69,10.71,-5.64,2.338293035244094,4.762336350068095,-1.4005948965010602,-132.04355843852292,-25.735333308776628,-25.84113356281753
2.69,10.71,-5.64,2.338293035244094,4.762336350068095,-1.4005948965010602,-132.04355843852292,-25.735333308776628,-25.84113356281753
2.6,4.2,-7.4,0.0158753952487177,-0.6088673229680837,0.93033158779512,-135.18615927411605,-25.99399574998519,-22.65303861752037
2.6,4.2,-7.4,0.0158753952487177,-0.6088673229680837,0.93033158779512,-135.18615927411605,-25.99399574998519,-22.65303861752037
0.99,5.43,-6.15,-0.1145889492808696,1.5774962039453362,1.695800778171206,-136.37352437272858,-25.60605217391993,-20.83272200177108
0.99,5.43,-6.15,-0.1145889492808696,1.5774962039453362,1.695800778171206,-136.37352437272858,-25.60605217391993,-20.83272200177108
1.92,5.35,-6.35,0.4739474055746243,1.0330485543993184,1.360373628663185,-135.73041492290912,-26.335166138238048,-21.76552371074204
1.92,5.35,-6.35,0.4739474055746243,1.0330485543993184,1.360373628663185,-135.73041492290912,-26.335166138238048,-21.76552371074204
2.57,4.84,-8.08,-0.0044329226328,-0.1412499675009071,0.0446354130472688,-135.09605869286386,-27.70226118700864,-22.65303861752037
2.57,4.84,-8.08,-0.0044329226328,-0.1412499675009071,0.0446354130472688,-135.09605869286386,-27.70226118700864,-22.65303861752037
2.39,4.19,-7.7,-0.2509493284460626,-0.347871456797689,0.7306260972054552,-134.5590130176977,-28.61194247203445,-23.28447580744025
2.39,4.19,-7.7,-0.2509493284460626,-0.347871456797689,0.7306260972054552,-134.5590130176977,-28.61194247203445,-23.28447580744025
2.06,4.08,-6.91,-0.4106600311118885,0.0932564529547546,1.5325481410167858,-132.63918862221735,-30.15199174363297,-25.47680417585264
2.06,4.08,-6.91,-0.4106600311118885,0.0932564529547546,1.5325481410167858,-132.63918862221735,-30.15199174363297,-25.47680417585264
2.78,3.75,-7.05,-0.4709090012603384,-0.5376206689523724,1.3815322721075738,-130.0792914251156,-31.328533702747045,-28.54099280947513
2.78,3.75,-7.05,-0.4709090012603384,-0.5376206689523724,1.3815322721075738,-130.0792914251156,-31.328533702747045,-28.54099280947513
3.0,4.74,-7.29,-0.6391128805680564,0.081199671941202,0.6307772164895056,-126.70941436503276,-32.38912849332685,-32.424928041950515
3.0,4.74,-7.29,-0.6391128805680564,0.081199671941202,0.6307772164895056,-126.70941436503276,-32.38912849332685,-32.424928041950515
4.28,4.42,-7.82,-0.6156998200375496,-0.9275360124627376,-0.0811096389268311,-124.84860239500853,-32.890619725136126,-35.02333444123644
4.28,4.42,-7.82,-0.6156998200375496,-0.9275360124627376,-0.0811096389268311,-124.84860239500853,-32.890619725136126,-35.02333444123644
5.29,5.46,-8.24,-0.1176815329026225,-0.7569424958519013,-1.3784512116470005,-123.8908464883956,-32.78310312481338,-36.60091053338324
5.29,5.46,-8.24,-0.1176815329026225,-0.7569424958519013,-1.3784512116470005,-123.8908464883956,-32.78310312481338,-36.60091053338324
5.43,5.7,-8.72,-0.1188418890464468,-0.7608749643105766,-1.915988179782456,-124.57692406667049,-32.54428338361999,-35.877484931095594
5.43,5.7,-8.72,-0.1188418890464468,-0.7608749643105766,-1.915988179782456,-124.57692406667049,-32.54428338361999,-35.877484931095594
4.4,5.57,-7.65,0.1656168556336956,-0.0370643364760043,-0.6278407538457103,-126.02359896120804,-32.28174931703743,-34.15920009515199
4.4,5.57,-7.65,0.1656168556336956,-0.0370643364760043,-0.6278407538457103,-126.02359896120804,-32.28174931703743,-34.15920009515199
4.13,4.98,-7.51,0.0014210932069908,-0.2796155388084145,-0.1018924322122689,-126.76054091134182,-32.18632560419117,-33.32098517464778
4.13,4.98,-7.51,0.0014210932069908,-0.2796155388084145,-0.1018924322122689,-126.76054091134182,-32.18632560419117,-33.32098517464778
3.77,5.12,-7.33,-0.0338728478002663,0.0761082492727123,0.1035958331629114,-126.91419440082724,-32.24596273355917,-33.05792701658909
3.77,5.12,-7.33,-0.0338728478002663,0.0761082492727123,0.1035958331629114,-126.91419440082724,-32.24596273355917,-33.05792701658909
3.8,4.71,-7.21,-0.1572504381808805,-0.1678992935560375,0.3962683856915081,-126.658333240647,-32.3533321925502,-33.58422417640036
3.8,4.71,-7.21,-0.1572504381808805,-0.1678992935560375,0.3962683856915081,-126.658333240647,-32.3533321925502,-33.58422417640036
3.88,4.51,-6.97,-0.2587839438759283,-0.231785339843495,0.6494284548682234,-125.696251455902,-32.28174931703743,-35.16755548021839
3.88,4.51,-6.97,-0.2587839438759283,-0.231785339843495,0.6494284548682234,-125.696251455902,-32.28174931703743,-35.16755548021839
4.96,4.29,-8.61,-0.8815207499319686,-1.3013353944353636,-0.9016293836651954,-125.19616916396942,-31.924028325694472,-36.23901092380315
4.96,4.29,-8.61,-0.8815207499319686,-1.3013353944353636,-0.9016293836651954,-125.19616916396942,-31.924028325694472,-36.23901092380315
4.39,3.6,-7.72,-0.7884717005489703,-1.282977558892171,0.3428885405795174,-126.81171301116376,-30.19946487135094,-35.46820114810156
4.39,3.6,-7.72,-0.7884717005489703,-1.282977558892171,0.3428885405795174,-126.81171301116376,-30.19946487135094,-35.46820114810156
4.58,4.39,-8.28,-0.3465718639239216,-1.0455315522425324,-0.5660859802706639,-129.88954402446632,-27.312945744821853,-32.711441879621354
4.58,4.39,-8.28,-0.3465718639239216,-1.0455315522425324,-0.5660859802706639,-129.88954402446632,-27.312945744821853,-32.711441879621354
2.74,5.39,-4.97,0.798018728658054,1.6774000075938704,2.203354969341576,-132.7820481898819,-25.065778823031927,-30.555683180576786
2.74,5.39,-4.97,0.798018728658054,1.6774000075938704,2.203354969341576,-132.7820481898819,-25.065778823031927,-30.555683180576786
3.69,5.63,-5.76,1.0136788752964538,1.4084535530252842,1.1187668443200067,-134.29273249552642,-22.44271531767953,-30.793329976755963
3.69,5.63,-5.76,1.0136788752964538,1.4084535530252842,1.1187668443200067,-134.29273249552642,-22.44271531767953,-30.793329976755963
0.62,6.31,-10.16,-3.761786496708324,2.1381814248397,-1.3604106046377922,-133.88141126071122,-22.64135196781312,-30.94787313807167
0.62,6.31,-10.16,-3.761786496708324,2.1381814248397,-1.3604106046377922,-133.88141126071122,-22.64135196781312,-30.94787313807167
4.85,5.78,-8.01,0.7407026829100519,0.5560479680676651,-1.1584386997204756,-134.4108976122917,-23.34297818708293,-30.99543647635929
4.85,5.78,-8.01,0.7407026829100519,0.5560479680676651,-1.1584386997204756,-134.4108976122917,-23.34297818708293,-30.99543647635929
4.63,5.86,-6.87,0.9479804933912775,1.0256986316111028,-0.2443536962116735,-132.07176372350168,-24.93666734562011,-33.32098517464778
4.63,5.86,-6.87,0.9479804933912775,1.0256986316111028,-0.2443536962116735,-132.07176372350168,-24.93666734562011,-33.32098517464778
5.31,4.86,-6.76,0.4233777398060264,-0.1545820363864716,-0.0579410043682688,-125.74649376545209,-29.345750980318734,-38.93838987087892
5.31,4.86,-6.76,0.4233777398060264,-0.1545820363864716,-0.0579410043682688,-125.74649376545209,-29.345750980318734,-38.93838987087892
5.42,5.12,-6.22,0.2861131779314665,-0.0402497379446007,0.1012020861729734,-120.36186107562722,-32.52040941662392,-43.307915821839245
5.42,5.12,-6.22,0.2861131779314665,-0.0402497379446007,0.1012020861729734,-120.36186107562722,-32.52040941662392,-43.307915821839245
5.2,6.31,-4.77,0.8551502853972102,0.977511808527626,0.4299667562525577,-113.69123402259356,-35.55242705989692,-48.96307461903554
5.2,6.31,-4.77,0.8551502853972102,0.977511808527626,0.4299667562525577,-113.69123402259356,-35.55242705989692,-48.96307461903554
5.95,5.89,-3.13,1.6918225833962992,0.1347003896642817,1.031053601387848,-108.01618391845108,-37.9917401637673,-54.014083172384005
5.95,5.89,-3.13,1.6918225833962992,0.1347003896642817,1.031053601387848,-108.01618391845108,-37.9917401637673,-54.014083172384005
7.85,5.73,-4.88,-0.6025729846591317,-1.280421556614479,-0.9760781536499828,-99.84957636364356,-40.5101308906298,-61.50092189108089
7.85,5.73,-4.88,-0.6025729846591317,-1.280421556614479,-0.9760781536499828,-99.84957636364356,-40.5101308906298,-61.50092189108089
9.45,7.17,-7.87,-2.811848101449119,-1.3267331702794172,-4.0851313598277335,-97.63220528770944,-42.053036389733045,-62.71817306273571
9.45,7.17,-7.87,-2.811848101449119,-1.3267331702794172,-4.0851313598277335,-97.63220528770944,-42.053036389733045,-62.71817306273571
7.19,4.88,-5.14,-1.0671838836272434,-1.696506824673207,-0.0884539990675943,-98.94602892121196,-44.43208368482341,-59.669477410983546
7.19,4.88,-5.14,-1.0671838836272434,-1.696506824673207,-0.0884539990675943,-98.94602892121196,-44.43208368482341,-59.669477410983546
6.11,4.17,-5.24,-1.3475526906949873,-1.4938232521701722,0.9674648657765754,-100.3671515088305,-45.20058056579144,-57.35774212215939
6.11,4.17,-5.24,-1.3475526906949873,-1.4938232521701722,0.9674648657765754,-100.3671515088305,-45.20058056579144,-57.35774212215939
5.06,5.21,-4.57,-0.4449993033301645,-0.1323015673586431,1.2382737293574608,-101.41081790768304,-44.91524480207666,-56.31540097731903
5.06,5.21,-4.57,-0.4449993033301645,-0.1323015673586431,1.2382737293574608,-101.41081790768304,-44.91524480207666,-56.31540097731903
4.59,5.31,-4.41,-0.2619556386469034,0.3099745982865962,1.5273025020507696,-102.55778172371149,-44.38257587959071,-55.49811986129514
4.59,5.31,-4.41,-0.2619556386469034,0.3099745982865962,1.5273025020507696,-102.55778172371149,-44.38257587959071,-55.49811986129514
4.58,5.94,-4.41,-0.0131005513978474,0.7742026846980403,1.1401317499436685,-102.77787481244587,-43.949753171483536,-55.62764107730477
4.58,5.94,-4.41,-0.0131005513978474,0.7742026846980403,1.1401317499436685,-102.77787481244587,-43.949753171483536,-55.62764107730477
5.56,6.03,-5.19,-0.4088431498528348,0.2246903887775735,0.1116532744714433,-102.7962397901978,-43.59162801664085,-55.99071256936834
5.56,6.03,-5.19,-0.4088431498528348,0.2246903887775735,0.1116532744714433,-102.7962397901978,-43.59162801664085,-55.99071256936834
5.64,5.84,-4.65,0.0229481153644837,0.052397672446034,0.4506664670985305,-103.09058276649,-43.307915821839245,-55.97773522242152
5.64,5.84,-4.65,0.0229481153644837,0.052397672446034,0.4506664670985305,-103.09058276649,-43.307915821839245,-55.97773522242152
6.23,6.29,-5.28,-0.1859866737201532,0.0149374920833467,-0.4996871683895954,-103.33043920857978,-42.80285732809909,-56.1335150213454
6.23,6.29,-5.28,-0.1859866737201532,0.0149374920833467,-0.4996871683895954,-103.33043920857978,-42.80285732809909,-56.1335150213454
6.02,5.97,-4.55,0.2811990379244294,-0.0753182371898151,0.1890071357521812,-103.55241005030376,-42.64289936464318,-56.00369069764568
6.02,5.97,-4.55,0.2811990379244294,-0.0753182371898151,0.1890071357521812,-103.55241005030376,-42.64289936464318,-56.00369069764568
6.63,6.0,-5.14,-0.0983281515437121,-0.4190053624034764,-0.4982646566524807,-103.33043920857978,-42.50761837071936,-56.41940519214721
6.63,6.0,-5.14,-0.0983281515437121,-0.4190053624034764,-0.4982646566524807,-103.33043920857978,-42.50761837071936,-56.41940519214721
6.66,6.08,-5.0,0.0445408108031303,-0.3815364949167329,-0.4974485058965552,-103.33043920857978,-42.36010990852977,-56.53647049567268
6.66,6.08,-5.0,0.0445408108031303,-0.3815364949167329,-0.4974485058965552,-103.33043920857978,-42.36010990852977,-56.53647049567268
6.54,6.2,-5.04,0.005594177972917,-0.2082326583751461,-0.516615368339556,-103.38588087785588,-42.151265384526,-56.58852015944324
6.54,6.2,-5.04,0.005594177972917,-0.2082326583751461,-0.516615368339556,-103.38588087785588,-42.151265384526,-56.58852015944324
6.28,6.28,-4.97,0.0227522079896699,0.0034448099961097,-0.3706369896802908,-103.44135652414452,-42.0775906009399,-56.48443354177373
6.28,6.28,-4.97,0.0227522079896699,0.0034448099961097,-0.3706369896802908,-103.44135652414452,-42.0775906009399,-56.48443354177373
6.35,6.05,-5.22,-0.2129551184369105,-0.2324817838100581,-0.3950166450991244,-103.68214546357068,-42.12670509670736,-56.09455949870071
6.35,6.05,-5.22,-0.2129551184369105,-0.2324817838100581,-0.3950166450991244,-103.68214546357068,-42.12670509670736,-56.09455949870071
6.2,6.0,-5.41,-0.3439205580808734,-0.2350748532643396,-0.3685432887337381,-104.22162596433716,-42.08986846540722,-55.316919407310365
6.2,6.0,-5.41,-0.3439205580808734,-0.2350748532643396,-0.3685432887337381,-104.22162596433716,-42.08986846540722,-55.316919407310365
5.95,5.82,-5.21,-0.1786028065349639,-0.2653010572093106,-0.0074580280655904,-104.91470584503644,-42.18810962075827,-54.32297694444978
5.95,5.82,-5.21,-0.1786028065349639,-0.2653010572093106,-0.0074580280655904,-104.91470584503644,-42.18810962075827,-54.32297694444978
5.72,5.79,-5.21,-0.0749911888744543,-0.2283411912488118,0.1459648989333963,-105.99323879892164,-42.053036389733045,-52.89786697704349
5.72,5.79,-5.21,-0.0749911888744543,-0.2283411912488118,0.1459648989333963,-105.99323879892164,-42.053036389733045,-52.89786697704349
5.58,5.98,-5.36,-0.0492372236123493,-0.097910922270008,0.0283889507586181,-106.681406842105,-42.01620886419129,-51.9017033518216
5.58,5.98,-5.36,-0.0492372236123493,-0.097910922270008,0.0283889507586181,-106.681406842105,-42.01620886419129,-51.9017033518216
5.68,6.33,-5.61,0.1107278746442825,-0.0335869293879751,-0.3810882797140547,-107.87980072820756,-41.62366360590611,-50.5039605862624
5.68,6.33,-5.61,0.1107278746442825,-0.0335869293879751,-0.3810882797140547,-107.87980072820756,-41.62366360590611,-50.5039605862624
6.12,6.53,-6.2,0.0310849618929045,-0.2785359908077573,-1.0771338745065542,-108.8195376256316,-41.30509675325747,-49.53031871016275
6.12,6.53,-6.2,0.0310849618929045,-0.2785359908077573,-1.0771338745065542,-108.8195376256316,-41.30509675325747,-49.53031871016275
6.19,6.43,-6.85,-0.1991597724494538,-0.5672935276856164,-1.4282070724546347,-110.3098558920654,-41.04803635831072,-47.60685129535253
6.19,6.43,-6.85,-0.1991597724494538,-0.5672935276856164,-1.4282070724546347,-110.3098558920654,-41.04803635831072,-47.60685129535253
5.0,5.84,-6.01,0.0633274624639438,-0.2328215137915834,0.0512677022520708,-112.09482025042286,-40.827870624577365,-45.13852596002858
5.0,5.84,-6.01,0.0633274624639438,-0.2328215137915834,0.0512677022520708,-112.09482025042286,-40.827870624577365,-45.13852596002858
4.43,5.84,-5.76,0.1336410335856954,0.0880576921186646,0.4855724916321584,-112.8163105430652,-40.73006975326216,-43.93739653048951
4.43,5.84,-5.76,0.1336410335856954,0.0880576921186646,0.4855724916321584,-112.8163105430652,-40.73006975326216,-43.93739653048951
3.9,5.81,-5.56,0.1109908273483063,0.4155773902022979,0.8794625107065652,-113.2733386110762,-40.70562437914749,-43.17232602381402
3.9,5.81,-5.56,0.1109908273483063,0.4155773902022979,0.8794625107065652,-113.2733386110762,-40.70562437914749,-43.17232602381402
3.61,5.82,-5.65,-0.0388752793513201,0.5979444956796511,0.9484362357729365,-113.58654197734045,-40.68118093937297,-42.71671526594671
3.61,5.82,-5.65,-0.0388752793513201,0.5979444956796511,0.9484362357729365,-113.58654197734045,-40.68118093937297,-42.71671526594671
3.88,5.64,-5.78,-0.1177878815062757,0.2633775158104941,0.8518100628969503,-113.3150238515142,-40.766741444761,-42.96290285030923
3.88,5.64,-5.78,-0.1177878815062757,0.2633775158104941,0.8518100628969503,-113.3150238515142,-40.766741444761,-42.96290285030923
3.9,5.88,-5.36,0.195551615134808,0.4681640963242524,0.9603749678335748,-112.77489865498625,-40.65673943236753,-43.7274156925049
3.9,5.88,-5.36,0.195551615134808,0.4681640963242524,0.9603749678335748,-112.77489865498625,-40.65673943236753,-43.7274156925049
4.81,6.11,-5.86,0.171346697215185,-0.0223988761279416,0.0712538293399855,-112.15639729539848,-40.40021990535208,-44.86565121405429
4.81,6.11,-5.86,0.171346697215185,-0.0223988761279416,0.0712538293399855,-112.15639729539848,-40.40021990535208,-44.86565121405429
5.5,6.45,-6.22,0.1363014928081112,-0.2880937792113141,-0.7023615556810583,-111.38001462419376,-40.09511461656773,-46.04592388413568
5.5,6.45,-6.22,0.1363014928081112,-0.2880937792113141,-0.7023615556810583,-111.38001462419376,-40.09511461656773,-46.04592388413568
5.06,5.87,-5.5,0.2268676480298889,-0.3049626532826473,0.3110705626839074,-111.15670835013724,-40.0341291935956,-46.2701332926198
5.06,5.87,-5.5,0.2268676480298889,-0.3049626532826473,0.3110705626839074,-111.15670835013724,-40.0341291935956,-46.2701332926198
5.19,5.95,-5.77,-0.0388560220331843,-0.3903935003181322,0.0353868715983729,-110.49056420469132,-39.97315559242056,-46.9938686467816
5.19,5.95,-5.77,-0.0388560220331843,-0.3903935003181322,0.0353868715983729,-110.49056420469132,-39.97315559242056,-46.9938686467816
5.45,6.37,-6.09,-0.1626509965256604,-0.3455866973098919,-0.5481370324778592,-109.96962968750276,-39.69282860908111,-47.64442766376834
5.45,6.37,-6.09,-0.1626509965256604,-0.3455866973098919,-0.5481370324778592,-109.96962968750276,-39.69282860908111,-47.64442766376834
5.48,6.28,-5.91,-0.2040562946849373,-0.435566207589801,-0.3995022185104258,-109.37271990346242,-39.351894536966725,-48.397106226699925
5.48,6.28,-5.91,-0.2040562946849373,-0.435566207589801,-0.3995022185104258,-109.37271990346242,-39.351894536966725,-48.397106226699925
5.64,6.49,-5.74,-0.0277263053314127,-0.4049899922428324,-0.5235249432512461,-109.03641233282303,-39.03563741685095,-48.87495187277357
5.64,6.49,-5.74,-0.0277263053314127,-0.4049899922428324,-0.5235249432512461,-109.03641233282303,-39.03563741685095,-48.87495187277357
6.07,7.02,-6.22,-0.1794095026107974,-0.4249059243315117,-1.3558303330550563,-108.76048947633528,-38.54969038931157,-49.353704706731605
6.07,7.02,-6.22,-0.1794095026107974,-0.4249059243315117,-1.3558303330550563,-108.76048947633528,-38.54969038931157,-49.353704706731605
6.46,6.9,-6.77,-0.4241665405639717,-0.8641559600387065,-1.7798860320760068,-109.33308208171762,-38.18570299849585,-48.84977960308056
6.46,6.9,-6.77,-0.4241665405639717,-0.8641559600387065,-1.7798860320760068,-109.33308208171762,-38.18570299849585,-48.84977960308056
5.22,6.28,-5.58,0.1451428333262431,-0.3001391425082533,-0.0782905690205559,-111.15670835013724,-37.94326713356112,-46.70663424071843
5.22,6.28,-5.58,0.1451428333262431,-0.3001391425082533,-0.0782905690205559,-111.15670835013724,-37.94326713356112,-46.70663424071843
5.3,6.64,-6.18,0.0167716204277994,-0.2430022320984433,-0.696333796423918,-112.19747600626744,-37.6888990814094,-45.49863792387894
5.3,6.64,-6.18,0.0167716204277994,-0.2430022320984433,-0.696333796423918,-112.19747600626744,-37.6888990814094,-45.49863792387894
5.55,6.49,-6.85,-0.1990101760059264,-0.7543733579899525,-1.1128928378023684,-113.37759496408128,-37.30166033497223,-43.87562138331682
5.55,6.49,-6.85,-0.1990101760059264,-0.7543733579899525,-1.1128928378023684,-113.37759496408128,-37.30166033497223,-43.87562138331682
5.61,6.89,-7.95,-0.5642175373110675,-0.9183189423517976,-2.0670625150775184,-114.74633713830112,-36.842386864351504,-41.89348323735908
5.61,6.89,-7.95,-0.5642175373110675,-0.9183189423517976,-2.0670625150775184,-114.74633713830112,-36.842386864351504,-41.89348323735908
4.92,7.21,-7.66,0.0472956639295193,-0.5097508502330852,-1.7952471375745311,-117.69645604638976,-35.624636497255686,-37.676791133557344
4.92,7.21,-7.66,0.0472956639295193,-0.5097508502330852,-1.7952471375745311,-117.69645604638976,-35.624636497255686,-37.676791133557344
3.67,7.21,-7.51,-0.0999574365181859,0.2343468516479729,-1.2291186666587652,-120.31578829659291,-34.48301299993159,-34.351055102879386
3.67,7.21,-7.51,-0.0999574365181859,0.2343468516479729,-1.2291186666587652,-120.31578829659291,-34.48301299993159,-34.351055102879386
4.13,7.34,-8.91,-0.0428196871075833,-0.4378348107927996,-2.44598511057332,-123.26060567533968,-33.3927596206584,-30.99543647635929
4.13,7.34,-8.91,-0.0428196871075833,-0.4378348107927996,-2.44598511057332,-123.26060567533968,-33.3927596206584,-30.99543647635929
4.55,7.4,-9.33,0.5995832400796544,-0.6756838469734792,-2.909298697488316,-125.92268154117136,-32.556220911511176,-28.375486985220768
4.55,7.4,-9.33,0.5995832400796544,-0.6756838469734792,-2.909298697488316,-125.92268154117136,-32.556220911511176,-28.375486985220768
4.12,6.51,-9.39,0.7809268568701134,-0.7891970801649691,-2.288552404791668,-129.88954402446632,-31.47137263789784,-24.596436196111345
4.12,6.51,-9.39,0.7809268568701134,-0.7891970801649691,-2.288552404791668,-129.88954402446632,-31.47137263789784,-24.596436196111345
3.99,5.44,-9.51,0.7594144108053189,-1.3489659913118888,-1.7500528389132306,-132.32631788342704,-30.95976345993856,-22.150726459273766
3.99,5.44,-9.51,0.7594144108053189,-1.3489659913118888,-1.7500528389132306,-132.32631788342704,-30.95976345993856,-22.150726459273766
3.56,5.29,-9.52,1.0581332279535065,-0.912445062915416,-1.5659441666385838,-135.97435612355386,-29.68940484166728,-18.959614614971
3.56,5.29,-9.52,1.0581332279535065,-0.912445062915416,-1.5659441666385838,-135.97435612355386,-29.68940484166728,-18.959614614971
2.55,5.36,-8.83,1.2583482266992012,0.2461450854642755,-0.7554034148083506,-140.37268573421258,-27.631452438914533,-15.135679738336451
2.55,5.36,-8.83,1.2583482266992012,0.2461450854642755,-0.7554034148083506,-140.37268573421258,-27.631452438914533,-15.135679738336451
1.85,5.51,-8.83,1.299967136430658,0.9382753296609464,-0.6423320006520221,-143.68372432172094,-26.1233774379412,-11.789339646395064
1.85,5.51,-8.83,1.299967136430658,0.9382753296609464,-0.6423320006520221,-143.68372432172094,-26.1233774379412,-11.789339646395064
0.99,4.98,-8.13,1.308340803656176,1.4202372753262096,0.4179029897082493,-147.84997349806363,-24.51434453810049,-6.89110540785609
0.99,4.98,-8.13,1.308340803656176,1.4202372753262096,0.4179029897082493,-147.84997349806363,-24.51434453810049,-6.89110540785609
0.78,4.15,-8.28,1.4470004911835124,0.9957655400100064,0.679550758299861,-150.65977940351803,-23.448298031292182,-2.6358382855186164
0.78,4.15,-8.28,1.4470004911835124,0.9957655400100064,0.679550758299861,-150.65977940351803,-23.448298031292182,-2.6358382855186164
-0.46,3.17,-7.1,0.8156989622462899,1.2126879861568691,2.1558642200149727,-153.36074062083046,-22.104021805228783,3.117274866889664
-0.46,3.17,-7.1,0.8156989622462899,1.2126879861568691,2.1558642200149727,-153.36074062083046,-22.104021805228783,3.117274866889664
-1.1,2.07,-7.15,0.311736117332912,0.5893857194269397,2.31179542723571,-154.01525359440276,-21.602179804976902,6.868145731332586
-1.1,2.07,-7.15,0.311736117332912,0.5893857194269397,2.31179542723571,-154.01525359440276,-21.602179804976902,6.868145731332586
-2.27,1.34,-6.43,-0.531929205456019,0.6240358647869988,2.9058507303615566,-153.5103719816942,-21.28728450329616,11.443790822449785
-2.27,1.34,-6.43,-0.531929205456019,0.6240358647869988,2.9058507303615566,-153.5103719816942,-21.28728450329616,11.443790822449785
-3.33,0.71,-6.51,-1.3252883493413072,0.4645054566827837,2.595481892695047,-152.91671705681662,-20.786119068432164,14.54632631618216
-3.33,0.71,-6.51,-1.3252883493413072,0.4645054566827837,2.595481892695047,-152.91671705681662,-20.786119068432164,14.54632631618216
-3.56,0.18,-6.55,-1.2654911847532362,0.164359072753376,2.459540489688103,-151.8602645048557,-20.23879269230359,17.92639313237552
-3.56,0.18,-6.55,-1.2654911847532362,0.164359072753376,2.459540489688103,-151.8602645048557,-20.23879269230359,17.92639313237552
-3.13,-0.28,-7.8,-0.3182145425130236,-0.5456788932466553,1.4211700465090669,-150.65977940351803,-19.95948754584176,20.378490735265764
-3.13,-0.28,-7.8,-0.3182145425130236,-0.5456788932466553,1.4211700465090669,-150.65977940351803,-19.95948754584176,20.378490735265764
-3.85,-0.35,-7.47,-0.5563431600460446,-0.2929199112043478,1.419124726482785,-148.6458749656724,-19.37798430858409,23.869779338261072
-3.85,-0.35,-7.47,-0.5563431600460446,-0.2929199112043478,1.419124726482785,-148.6458749656724,-19.37798430858409,23.869779338261072
-4.18,-0.8,-7.85,-0.4795532420165149,-0.6420315586716194,0.9132409705141152,-147.03240000479886,-19.215254308568724,26.158669228245632
-4.18,-0.8,-7.85,-0.4795532420165149,-0.6420315586716194,0.9132409705141152,-147.03240000479886,-19.215254308568724,26.158669228245632
-5.2,-1.49,-7.24,-1.3103853921096436,-0.8878964908278199,0.9087721661723568,-144.3141111196786,-19.35473475782733,29.45237314889127
-5.2,-1.49,-7.24,-1.3103853921096436,-0.8878964908278199,0.9087721661723568,-144.3141111196786,-19.35473475782733,29.45237314889127
-6.21,-1.63,-6.62,-2.1696565401869905,-0.6439743187649261,0.8666674734849131,-142.6678687639012,-19.37798430858409,31.39994691440291
-6.21,-1.63,-6.62,-2.1696565401869905,-0.6439743187649261,0.8666674734849131,-142.6678687639012,-19.37798430858409,31.39994691440291
-6.42,-1.68,-7.02,-1.902738594208972,-0.7158092747130658,0.362794700158604,-141.39967008106163,-19.261744588057013,32.914516343671416
-6.42,-1.68,-7.02,-1.902738594208972,-0.7158092747130658,0.362794700158604,-141.39967008106163,-19.261744588057013,32.914516343671416
-5.56,-1.28,-7.57,-0.6448630454297619,-0.7734852961784163,0.3810056109285114,-140.50813431460048,-19.157145947707967,33.991407904492696
-5.56,-1.28,-7.57,-0.6448630454297619,-0.7734852961784163,0.3810056109285114,-140.50813431460048,-19.157145947707967,33.991407904492696
-6.17,-0.28,-7.25,-0.7263093681979941,0.2259749008768058,0.312904161510243,-139.14021367291954,-18.98285063278348,35.540393572715686
-6.17,-0.28,-7.25,-0.7263093681979941,0.2259749008768058,0.312904161510243,-139.14021367291954,-18.98285063278348,35.540393572715686
-6.38,-1.09,-6.65,-1.2147835557968911,-0.486768780543685,0.6195744551460471,-137.5291383748013,-18.843446306043923,37.362137156703376
-6.38,-1.09,-6.65,-1.2147835557968911,-0.486768780543685,0.6195744551460471,-137.5291383748013,-18.843446306043923,37.362137156703376
-6.6,-0.37,-7.19,-0.6499627359711554,0.0923008582918527,0.0618037214070188,-136.46613430112782,-18.971232525472264,38.41618161401926
-6.6,-0.37,-7.19,-0.6499627359711554,0.0923008582918527,0.0618037214070188,-136.46613430112782,-18.971232525472264,38.41618161401926
-6.75,-0.39,-7.23,-0.5567091200160129,0.1121962648196669,-0.0759097369229966,-135.54829362030736,-18.971232525472264,39.47361489538528
-6.75,-0.39,-7.23,-0.5567091200160129,0.1121962648196669,-0.0759097369229966,-135.54829362030736,-18.971232525472264,39.47361489538528
-6.62,-1.01,-7.31,-0.5191865839562898,-0.4851542295377478,-0.0815081027308348,-135.06606324188033,-19.05256341690962,40.02193352838936
-6.62,-1.01,-7.31,-0.5191865839562898,-0.4851542295377478,-0.0815081027308348,-135.06606324188033,-19.05256341690962,40.02193352838936
-6.63,-0.43,-7.49,-0.1325876588114292,0.0338653874421092,-0.2045024635410612,-134.4108976122917,-19.52912606682039,40.497916639737895
-6.63,-0.43,-7.49,-0.1325876588114292,0.0338653874421092,-0.2045024635410612,-134.4108976122917,-19.52912606682039,40.497916639737895
-6.14,-1.21,-7.42,-0.0245232482698034,-0.8072874838038291,0.1336057258953911,-133.85216386873807,-19.85477908376032,40.91347187505044
-6.14,-1.21,-7.42,-0.0245232482698034,-0.8072874838038291,0.1336057258953911,-133.85216386873807,-19.85477908376032,40.91347187505044
-6.14,-0.98,-7.29,0.1571748987568316,-0.6226007197351789,0.2467460049283936,-132.5821583872238,-20.25043303206116,42.065313242449655
-6.14,-0.98,-7.29,0.1571748987568316,-0.6226007197351789,0.2467460049283936,-132.5821583872238,-20.25043303206116,42.065313242449655
-6.71,-1.35,-6.34,-0.8193346280838525,-0.6497563876360504,0.5357974284212226,-131.62233589525562,-20.4017767128752,43.04911763533004
-6.71,-1.35,-6.34,-0.8193346280838525,-0.6497563876360504,0.5357974284212226,-131.62233589525562,-20.4017767128752,43.04911763533004
-7.29,-1.3,-6.0,-1.2876071068845023,-0.4257854365522731,0.3729405121940221,-130.70755912152916,-20.623036118505983,43.86326796394638
-7.29,-1.3,-6.0,-1.2876071068845023,-0.4257854365522731,0.3729405121940221,-130.70755912152916,-20.623036118505983,43.86326796394638
-7.43,-1.29,-5.89,-1.4722531636223222,-0.3828174408818597,0.3595858301554493,-130.76254599505174,-20.65797889865216,43.764459893907535
-7.43,-1.29,-5.89,-1.4722531636223222,-0.3828174408818597,0.3595858301554493,-130.76254599505174,-20.65797889865216,43.764459893907535
-6.95,-0.72,-6.81,-0.4272060893023419,-0.2554278768591566,0.0624593431529056,-131.01070305716067,-20.79776947557341,43.33257535076985
-6.95,-0.72,-6.81,-0.4272060893023419,-0.2554278768591566,0.0624593431529056,-131.01070305716067,-20.79776947557341,43.33257535076985
-6.75,-0.72,-7.16,-0.1272241624641561,-0.4374985395104349,-0.0492573169552255,-131.31561745343842,-20.64633108966224,43.03679967235915
-6.75,-0.72,-7.16,-0.1272241624641561,-0.4374985395104349,-0.0492573169552255,-131.31561745343842,-20.64633108966224,43.03679967235915
-6.8,-0.31,-7.03,-0.1176820287473861,-0.0516378534976223,0.0219433374476611,-131.45480922787246,-20.471639758994087,42.95058853731749
-6.8,-0.31,-7.03,-0.1176820287473861,-0.0516378534976223,0.0219433374476611,-131.45480922787246,-20.471639758994087,42.95058853731749
-6.69,-0.09,-7.18,0.0946347527305892,0.0569959792859281,-0.0068303062889416,-131.59437695002578,-20.448351223683986,42.75363018855425
-6.69,-0.09,-7.18,0.0946347527305892,0.0569959792859281,-0.0068303062889416,-131.59437695002578,-20.448351223683986,42.75363018855425
-7.07,-0.27,-6.82,-0.5066141329082894,0.0878360743100739,-0.0069032272662283,-131.76235907719015,-20.623036118505983,42.45844069063149
-7.07,-0.27,-6.82,-0.5066141329082894,0.0878360743100739,-0.0069032272662283,-131.76235907719015,-20.623036118505983,42.45844069063149
-6.84,-0.64,-7.04,-0.3983150133267436,-0.344742638391549,-0.0157375744868346,-131.98719464152978,-20.774468878532232,42.138984987119
-6.84,-0.64,-7.04,-0.3983150133267436,-0.344742638391549,-0.0157375744868346,-131.98719464152978,-20.774468878532232,42.138984987119
-6.82,-0.9,-6.96,-0.5517935114961858,-0.5600342542692662,0.052374755025836,-132.01536875371886,-20.94924459772563,42.01620886419129
-6.82,-0.9,-6.96,-0.5517935114961858,-0.5600342542692662,0.052374755025836,-132.01536875371886,-20.94924459772563,42.01620886419129
-6.78,-0.77,-6.9,-0.5292728561600583,-0.4425296078985625,0.1270147904548935,-132.01536875371886,-21.054133663315955,41.93029563540066
-6.78,-0.77,-6.9,-0.5292728561600583,-0.4425296078985625,0.1270147904548935,-132.01536875371886,-21.054133663315955,41.93029563540066
-6.41,-0.76,-7.27,-0.0750543757355981,-0.5948890480216122,0.1030901449145016,-132.24132459051677,-21.112413070583106,41.69722676024061
-6.41,-0.76,-7.27,-0.0750543757355981,-0.5948890480216122,0.1030901449145016,-132.24132459051677,-21.112413070583106,41.69722676024061
-6.22,-0.63,-7.25,0.0544889701000659,-0.5178028777655553,0.2475333498112846,-132.5251927099627,-20.92593832998922,41.47659109099214
-6.22,-0.63,-7.25,0.0544889701000659,-0.5178028777655553,0.2475333498112846,-132.5251927099627,-20.92593832998922,41.47659109099214
-6.08,-0.36,-7.56,0.3931550979159765,-0.4287726194572953,0.1158717490138379,-132.46829135766265,-21.38056975127936,41.20714343304567
-6.08,-0.36,-7.56,0.3931550979159765,-0.4287726194572953,0.1158717490138379,-132.46829135766265,-21.38056975127936,41.20714343304567
-6.23,0.34,-7.52,0.5532340847096059,0.1947033409144692,0.0529367247108254,-132.07176372350168,-21.75385480831424,41.34183738204944
-6.23,0.34,-7.52,0.5532340847096059,0.1947033409144692,0.0529367247108254,-132.07176372350168,-21.75385480831424,41.34183738204944
-6.62,-1.04,-7.1,-0.4545765071835598,-0.853570504159265,0.0916730266075198,-131.73432389141507,-21.78886220109525,41.69722676024061
-6.62,-1.04,-7.1,-0.4545765071835598,-0.853570504159265,0.0916730266075198,-131.73432389141507,-21.78886220109525,41.69722676024061
-6.73,-0.93,-7.13,-0.3986321671745881,-0.7617430423873591,-0.0043407722241859,-131.20453254720215,-21.987276416568136,42.12670509670736
-6.73,-0.93,-7.13,-0.3986321671745881,-0.7617430423873591,-0.0043407722241859,-131.20453254720215,-21.987276416568136,42.12670509670736
-6.29,-0.48,-7.67,0.6253087166998196,-0.7375717793000179,-0.0770930601568906,-129.9436888935972,-22.01062364188303,43.45590465390315
-6.29,-0.48,-7.67,0.6253087166998196,-0.7375717793000179,-0.0770930601568906,-129.9436888935972,-22.01062364188303,43.45590465390315
-7.6,-0.14,-6.03,-0.7231294810022528,0.2708418654860903,0.1348234694213275,-127.76677999527551,-21.43888030792546,46.12063959224854
-7.6,-0.14,-6.03,-0.7231294810022528,0.2708418654860903,0.1348234694213275,-127.76677999527551,-21.43888030792546,46.12063959224854
-8.15,-1.01,-5.4,-1.6422621220544122,-0.2323943780662434,0.1189481065936704,-127.01685959928788,-20.937591354374124,47.281416405631816
-8.15,-1.01,-5.4,-1.6422621220544122,-0.2323943780662434,0.1189481065936704,-127.01685959928788,-20.937591354374124,47.281416405631816
-7.93,-0.43,-5.73,-1.0632413500717508,0.1462203449694846,0.0726458166120256,-127.1197096819897,-20.716221183013424,47.26890777482772
-7.93,-0.43,-5.73,-1.0632413500717508,0.1462203449694846,0.0726458166120256,-127.1197096819897,-20.716221183013424,47.26890777482772
-7.02,-0.6,-6.77,0.0576007585535381,-0.5039060197562899,0.048778260944017,-127.7407542896587,-20.599742008899195,46.70663424071843
-7.02,-0.6,-6.77,0.0576007585535381,-0.5039060197562899,0.048778260944017,-127.7407542896587,-20.599742008899195,46.70663424071843
-7.19,-0.88,-6.46,-0.4095587067562696,-0.6271153217350489,0.1298174583588416,-128.0277034878583,-20.471639758994087,46.44464801216442
-7.19,-0.88,-6.46,-0.4095587067562696,-0.6271153217350489,0.1298174583588416,-128.0277034878583,-20.471639758994087,46.44464801216442
-7.35,-0.52,-6.35,-0.4645452218114332,-0.229751288787375,0.0934212843672472,-128.0800345447506,-20.49492914898236,46.369842053756535
-7.35,-0.52,-6.35,-0.4645452218114332,-0.229751288787375,0.0934212843672472,-128.0800345447506,-20.49492914898236,46.369842053756535
-7.11,-0.39,-6.75,-0.0338874781492604,-0.2773330364396192,-0.0009306407963745,-128.3424298098244,-20.378490735265764,46.13309422581874
-7.11,-0.39,-6.75,-0.0338874781492604,-0.2773330364396192,-0.0009306407963745,-128.3424298098244,-20.378490735265764,46.13309422581874
-7.28,-0.36,-6.48,-0.3094151412802338,-0.1351450081933094,0.0596300401811564,-128.39505791682004,-20.23879269230359,46.170461586302
-7.28,-0.36,-6.48,-0.3094151412802338,-0.1351450081933094,0.0596300401811564,-128.39505791682004,-20.23879269230359,46.170461586302
