acc_x,acc_y,acc_z,lin_x,lin_y,lin_z,eul_x,eul_y,eul_z
-0.83,0.6,-9.7,0.1697908858000011,0.0044073056063211,0.0542117597056002,-155.70003388404493,23.22597958095469,6.4778727055513645
-0.83,0.6,-9.7,0.1697908858000011,0.0044073056063211,0.0542117597056002,-155.70003388404493,23.22597958095469,6.4778727055513645
-0.91,0.63,-9.72,0.0853714860324189,0.0094080620105153,0.0242155791749958,-155.75453926974473,23.22597958095469,6.4778727055513645
-0.91,0.63,-9.72,0.0853714860324189,0.0094080620105153,0.0242155791749958,-155.75453926974473,23.22597958095469,6.4778727055513645
-1.02,0.47,-9.5,0.02044561841622,-0.1627383816941731,0.2419023192814347,-155.75453926974473,23.21428107252436,6.48935022815341
-1.02,0.47,-9.5,0.02044561841622,-0.1627383816941731,0.2419023192814347,-155.75453926974473,23.21428107252436,6.48935022815341
-0.82,0.6,-9.69,0.1702600634472596,0.0350078188608993,0.0650748725673988,-155.75453926974473,23.21428107252436,6.46639524800481
-0.82,0.6,-9.69,0.1702600634472596,0.0350078188608993,0.0650748725673988,-155.75453926974473,23.21428107252436,6.46639524800481
-0.89,0.45,-9.78,0.1756136345362295,-0.1122400358909684,-0.0218576194561777,-155.75453926974473,23.22597958095469,6.48935022815341
-0.89,0.45,-9.78,0.1756136345362295,-0.1122400358909684,-0.0218576194561777,-155.75453926974473,23.22597958095469,6.48935022815341
-1.29,0.7,-9.33,-0.3322296846150582,-0.0277807309642562,0.3678019946739433,-155.70003388404493,23.237678334824075,6.546738821065048
-1.29,0.7,-9.33,-0.3322296846150582,-0.0277807309642562,0.3678019946739433,-155.70003388404493,23.237678334824075,6.546738821065048
-1.04,0.78,-9.56,-0.1244948050178746,0.1455122906196648,0.1605664830070967,-155.75453926974473,23.21428107252436,6.454917855397503
-1.04,0.78,-9.56,-0.1244948050178746,0.1455122906196648,0.1605664830070967,-155.75453926974473,23.21428107252436,6.454917855397503
-0.77,0.2,-9.78,0.3569239901858375,-0.2653805615189771,0.0044319641268071,-155.80916562137492,23.17918701849416,6.374577915681861
-0.77,0.2,-9.78,0.3569239901858375,-0.2653805615189771,0.0044319641268071,-155.80916562137492,23.17918701849416,6.374577915681861
-0.82,0.06,-9.5,0.3342561911811814,-0.4037207635485967,0.2855533014186413,-155.80916562137492,23.21428107252436,6.386054856968827
-0.82,0.06,-9.5,0.3342561911811814,-0.4037207635485967,0.2855533014186413,-155.80916562137492,23.21428107252436,6.386054856968827
-0.77,-2.14,-9.18,1.1772229029832908,-2.355599693344512,0.7231376660288049,-155.48320588867858,23.62387580431868,6.168003805570946
-0.77,-2.14,-9.18,1.1772229029832908,-2.355599693344512,0.7231376660288049,-155.48320588867858,23.62387580431868,6.168003805570946
-0.06,-1.4,-10.17,1.6666580382164342,-1.4852179368719458,-0.2137730780762154,-154.3228637180319,24.79585513058625,6.04177399090254
-0.06,-1.4,-10.17,1.6666580382164342,-1.4852179368719458,-0.2137730780762154,-154.3228637180319,24.79585513058625,6.04177399090254
-0.85,0.05,-9.67,0.3635464353887276,-0.6417067289467266,0.1272932825656916,-153.01476916887475,26.029278313836883,6.2024314124588535
-0.85,0.05,-9.67,0.3635464353887276,-0.6417067289467266,0.1272932825656916,-153.01476916887475,26.029278313836883,6.2024314124588535
-0.7,-0.09,-9.96,0.6724371509499399,-0.877621182778178,-0.1169234157389773,-150.84131999821054,28.068278987313843,6.3057176080928565
-0.7,-0.09,-9.96,0.6724371509499399,-0.877621182778178,-0.1169234157389773,-150.84131999821054,28.068278987313843,6.3057176080928565
-0.68,1.93,-10.5,-0.1265600644067764,0.6881645156676327,-0.8679793682484984,-149.1588584140195,29.61828173729524,6.512305468988996
-0.68,1.93,-10.5,-0.1265600644067764,0.6881645156676327,-0.8679793682484984,-149.1588584140195,29.61828173729524,6.512305468988996
-1.2,2.26,-10.4,-0.6920420352746097,0.6551068205324702,-0.861035450701328,-147.0728095954594,31.602352407672463,6.971466463000762
-1.2,2.26,-10.4,-0.6920420352746097,0.6551068205324702,-0.861035450701328,-147.0728095954594,31.602352407672463,6.971466463000762
-1.15,2.21,-10.48,-0.5850477020637801,0.6610101178589227,-0.9291678454367424,-145.76376947074462,32.92646520492445,7.315910364212048
-1.15,2.21,-10.48,-0.5850477020637801,0.6610101178589227,-0.9291678454367424,-145.76376947074462,32.92646520492445,7.315910364212048
-1.38,2.18,-10.6,-0.6743209164716184,0.6004180464226018,-1.0654054391126486,-144.3515283507124,34.32706780881908,7.970538771598189
-1.38,2.18,-10.6,-0.6743209164716184,0.6004180464226018,-1.0654054391126486,-144.3515283507124,34.32706780881908,7.970538771598189
-1.48,2.25,-10.64,-0.7495227501134412,0.7444852029464427,-1.1179304235062606,-143.46374555627918,35.23968756061282,8.510515201802361
-1.48,2.25,-10.64,-0.7495227501134412,0.7444852029464427,-1.1179304235062606,-143.46374555627918,35.23968756061282,8.510515201802361
-1.5,2.21,-10.58,-0.6794999671226777,0.9403173693534396,-1.043445992182393,-142.5249164652642,36.09435595913239,9.384074619875276
-1.5,2.21,-10.58,-0.6794999671226777,0.9403173693534396,-1.043445992182393,-142.5249164652642,36.09435595913239,9.384074619875276
-1.95,1.86,-9.96,-0.8470253872620741,0.5849386102476225,-0.4599996392725458,-141.95828650840244,36.4923011370016,10.258180960550504
-1.95,1.86,-9.96,-0.8470253872620741,0.5849386102476225,-0.4599996392725458,-141.95828650840244,36.4923011370016,10.258180960550504
-2.04,1.58,-9.69,-0.7434311109728011,0.646744735139541,-0.1724848037195645,-141.46907086921098,36.73370161256758,11.236511835589646
-2.04,1.58,-9.69,-0.7434311109728011,0.646744735139541,-0.1724848037195645,-141.46907086921098,36.73370161256758,11.236511835589646
-2.18,1.41,-9.38,-0.7453150188543625,0.7610288137890173,0.1324450886259907,-141.33038910827102,36.46817032738551,12.250239375241623
-2.18,1.41,-9.38,-0.7453150188543625,0.7610288137890173,0.1324450886259907,-141.33038910827102,36.46817032738551,12.250239375241623
-2.42,1.16,-8.76,-0.8705745958456813,0.636539819342098,0.7084899150454564,-141.226690896529,36.20284159032565,12.988096123558291
-2.42,1.16,-8.76,-0.8705745958456813,0.636539819342098,0.7084899150454564,-141.226690896529,36.20284159032565,12.988096123558291
-1.87,1.0,-9.3,-0.2408668051169634,1.1830495514279598,0.3446588278915161,-141.29579335128196,35.70889932534101,13.507223821905177
-1.87,1.0,-9.3,-0.2408668051169634,1.1830495514279598,0.3446588278915161,-141.29579335128196,35.70889932534101,13.507223821905177
-1.91,1.07,-8.92,-0.3721395211791467,1.5251207707157275,0.7570688598859441,-141.78287468010964,34.50701040671306,14.211377245158012
-1.91,1.07,-8.92,-0.3721395211791467,1.5251207707157275,0.7570688598859441,-141.78287468010964,34.50701040671306,14.211377245158012
-2.42,0.24,-7.93,-0.559324070621553,0.7945398816867908,1.5692497450389418,-142.45363711540872,32.92646520492445,14.604088706058509
-2.42,0.24,-7.93,-0.559324070621553,0.7945398816867908,1.5692497450389418,-142.45363711540872,32.92646520492445,14.604088706058509
-2.18,-0.54,-8.04,-0.003143178210166,0.5543507232296441,1.4772871554550748,-143.13615512462272,31.56662645811723,14.523222401516824
-2.18,-0.54,-8.04,-0.003143178210166,0.5543507232296441,1.4772871554550748,-143.13615512462272,31.56662645811723,14.523222401516824
-2.25,-0.9,-7.74,-0.0672386200294968,0.4196867317997104,1.7073017536824098,-144.388983618951,29.44052495534397,14.188281840563285
-2.25,-0.9,-7.74,-0.0672386200294968,0.4196867317997104,1.7073017536824098,-144.388983618951,29.44052495534397,14.188281840563285
-1.97,-2.42,-7.71,0.7433461249573697,-0.5454696705561771,1.5403751813761826,-145.10802458844395,28.139154785319608,13.426452603767608
-1.97,-2.42,-7.71,0.7433461249573697,-0.5454696705561771,1.5403751813761826,-145.10802458844395,28.139154785319608,13.426452603767608
-1.6,-2.2,-7.81,0.6816370106725977,-0.0369920928626768,1.564677992601105,-146.4319313048688,26.45286606002896,11.962154211464537
-1.6,-2.2,-7.81,0.6816370106725977,-0.0369920928626768,1.564677992601105,-146.4319313048688,26.45286606002896,11.962154211464537
-1.92,-2.83,-7.15,0.3756574442684914,-0.8349644712037416,1.9339429804041883,-147.52054122823532,25.05404008221464,10.764512919793646
-1.92,-2.83,-7.15,0.3756574442684914,-0.8349644712037416,1.9339429804041883,-147.52054122823532,25.05404008221464,10.764512919793646
-1.49,-4.13,-7.55,0.9912692071115248,-1.5962060059518866,1.2773468780799178,-148.7733502639536,23.56534364989273,8.705871826379285
-1.49,-4.13,-7.55,0.9912692071115248,-1.5962060059518866,1.2773468780799178,-148.7733502639536,23.56534364989273,8.705871826379285
-1.04,-3.48,-8.15,0.946130635166052,-0.7678232521209569,0.9675445998646044,-150.03285782765786,22.66472550596455,7.315910364212048
-1.04,-3.48,-8.15,0.946130635166052,-0.7678232521209569,0.9675445998646044,-150.03285782765786,22.66472550596455,7.315910364212048
-0.68,-3.75,-8.43,1.0967364936553547,-0.933668839830295,0.6679831628177553,-151.34635737161238,21.963930115303267,5.410731896463338
-0.68,-3.75,-8.43,1.0967364936553547,-0.933668839830295,0.6679831628177553,-151.34635737161238,21.963930115303267,5.410731896463338
-0.51,-3.32,-8.83,0.9055666713721622,-0.5539836471367163,0.4191875568045482,-152.4315896826145,21.555518290408003,4.091788128472596
-0.51,-3.32,-8.83,0.9055666713721622,-0.5539836471367163,0.4191875568045482,-152.4315896826145,21.555518290408003,4.091788128472596
-0.24,-3.1,-8.66,0.8364059159365997,-0.5809929205871487,0.6619207874965571,-153.56043390061225,21.43888030792546,2.337829975144579
-0.24,-3.1,-8.66,0.8364059159365997,-0.5809929205871487,0.6619207874965571,-153.56043390061225,21.43888030792546,2.337829975144579
-0.15,-2.65,-8.79,0.5900092470192468,-0.334192417402217,0.6497234131706282,-154.21992611229572,21.555518290408003,1.0427975798203954
-0.15,-2.65,-8.79,0.5900092470192468,-0.334192417402217,0.6497234131706282,-154.21992611229572,21.555518290408003,1.0427975798203954
-0.13,-2.44,-8.82,0.3209296930491249,-0.4512143978606978,0.6712074984414347,-154.8964372754453,21.84721243198945,-0.687553479519944
-0.13,-2.44,-8.82,0.3209296930491249,-0.4512143978606978,0.6712074984414347,-154.8964372754453,21.84721243198945,-0.687553479519944
0.43,-2.57,-8.75,0.7183873764127969,-0.6577796030437509,0.7290101321031486,-155.16145880106285,22.290862814695288,-2.200293133435064
0.43,-2.57,-8.75,0.7183873764127969,-0.6577796030437509,0.7290101321031486,-155.16145880106285,22.290862814695288,-2.200293133435064
0.86,-1.16,-9.03,0.301532381802967,0.3313158133838664,0.6728989603380366,-155.05511767406654,23.21428107252436,-4.49314033842009
0.86,-1.16,-9.03,0.301532381802967,0.3313158133838664,0.6728989603380366,-155.05511767406654,23.21428107252436,-4.49314033842009
1.36,-0.99,-9.3,0.4315604152499014,0.3562919373759617,0.372323756788445,-154.73873772257048,23.68241421184977,-6.340147475413156
1.36,-0.99,-9.3,0.4315604152499014,0.3562919373759617,0.372323756788445,-154.73873772257048,23.68241421184977,-6.340147475413156
1.04,-1.03,-8.44,-0.0168747968365125,-0.2908357495304187,1.2456202834281171,-153.91350924378722,24.279867169785643,-8.820799294692952
1.04,-1.03,-8.44,-0.0168747968365125,-0.2908357495304187,1.2456202834281171,-153.91350924378722,24.279867169785643,-8.820799294692952
1.78,0.13,-8.62,-0.1380384112476216,0.6517526230612387,1.029072662525099,-152.72165046658662,24.772390131710253,-11.19045487105573
1.78,0.13,-8.62,-0.1380384112476216,0.6517526230612387,1.029072662525099,-152.72165046658662,24.772390131710253,-11.19045487105573
2.25,-0.31,-8.51,0.064929770521956,-0.0652657638526538,0.9992539884101532,-150.56941987552764,25.38282633662164,-14.569430825374988
2.25,-0.31,-8.51,0.064929770521956,-0.0652657638526538,0.9992539884101532,-150.56941987552764,25.38282633662164,-14.569430825374988
3.2,0.27,-8.21,0.350908950252277,0.4722804513548224,1.0105818963584117,-148.56117141184754,25.59430098947942,-17.439320584956548
3.2,0.27,-8.21,0.350908950252277,0.4722804513548224,1.0105818963584117,-148.56117141184754,25.59430098947942,-17.439320584956548
3.58,0.7,-7.94,0.0035363688113614,0.4198955321159226,1.0788968391799294,-144.9554604078314,26.00575632582789,-21.84721243198945
3.58,0.7,-7.94,0.0035363688113614,0.4198955321159226,1.0788968391799294,-144.9554604078314,26.00575632582789,-21.84721243198945
5.66,1.23,-9.44,0.4408225561675422,0.8149070420796121,-1.2298214463791783,-141.95828650840244,26.1233774379412,-25.230149327633608
5.66,1.23,-9.44,0.4408225561675422,0.8149070420796121,-1.2298214463791783,-141.95828650840244,26.1233774379412,-25.230149327633608
5.38,1.64,-8.42,-0.087188560410518,0.7216104999515452,-0.2929577370011333,-138.5533323833026,26.29986168212807,-28.61194247203445
5.38,1.64,-8.42,-0.087188560410518,0.7216104999515452,-0.2929577370011333,-138.5533323833026,26.29986168212807,-28.61194247203445
6.15,2.01,-8.76,-0.2074972777444833,0.6907949945118885,-1.0598097342136192,-135.79128033679729,26.39401255557817,-31.173847836723343
6.15,2.01,-8.76,-0.2074972777444833,0.6907949945118885,-1.0598097342136192,-135.79128033679729,26.39401255557817,-31.173847836723343
5.88,1.07,-7.62,0.0941505032821216,-0.3794680550242449,0.130347003609911,-132.46829135766265,25.89992116016652,-34.57901199780452
5.88,1.07,-7.62,0.0941505032821216,-0.3794680550242449,0.130347003609911,-132.46829135766265,25.89992116016652,-34.57901199780452
7.12,2.05,-7.73,-0.0260399638426711,0.2795747410333664,-0.8971325036040092,-129.3510733053071,25.700071520307283,-37.604152605861614
7.12,2.05,-7.73,-0.0260399638426711,0.2795747410333664,-0.8971325036040092,-129.3510733053071,25.700071520307283,-37.604152605861614
7.35,2.92,-7.85,-0.8593578510244194,0.3111972376423517,-1.2990269430398271,-125.64605206137207,25.46505599443148,-40.69340241756593
7.35,2.92,-7.85,-0.8593578510244194,0.3111972376423517,-1.2990269430398271,-125.64605206137207,25.46505599443148,-40.69340241756593
7.48,2.1,-7.02,-0.3261686458629278,-0.3842091986597795,-0.6521643355794016,-122.70838865597604,24.995350383000986,-43.5175891368055
7.48,2.1,-7.02,-0.3261686458629278,-0.3842091986597795,-0.6521643355794016,-122.70838865597604,24.995350383000986,-43.5175891368055
8.04,2.64,-6.9,-0.474593169035426,-0.0967820035351603,-1.1014476603483256,-120.66212588661212,24.8662564695287,-45.25023432294885
8.04,2.64,-6.9,-0.474593169035426,-0.0967820035351603,-1.1014476603483256,-120.66212588661212,24.8662564695287,-45.25023432294885
8.35,2.22,-6.96,-0.4395372682562398,-0.8088773930454107,-1.2497971849158631,-118.23015155570128,24.596436196111345,-47.40653562717492
8.35,2.22,-6.96,-0.4395372682562398,-0.8088773930454107,-1.2497971849158631,-118.23015155570128,24.596436196111345,-47.40653562717492
8.37,2.26,-6.58,-0.4220972130061889,-0.7396907355186235,-1.043953280857723,-116.88163381383896,24.631622257728548,-48.56047848444357
8.37,2.26,-6.58,-0.4220972130061889,-0.7396907355186235,-1.043953280857723,-116.88163381383896,24.631622257728548,-48.56047848444357
8.04,2.69,-6.14,-0.7665762510568921,-0.3842756548532906,-0.6260866051483642,-115.472556014324,24.772390131710253,-49.60604885480682
8.04,2.69,-6.14,-0.7665762510568921,-0.3842756548532906,-0.6260866051483642,-115.472556014324,24.772390131710253,-49.60604885480682
9.03,2.16,-7.12,-0.6384164287582677,-1.3613222618295424,-1.7968031999288403,-114.6401464115957,24.737194611496925,-50.36463176877203
9.03,2.16,-7.12,-0.6384164287582677,-1.3613222618295424,-1.7968031999288403,-114.6401464115957,24.737194611496925,-50.36463176877203
9.31,2.33,-7.45,-0.9049469767218998,-1.397742110826405,-2.228086721712881,-114.11147553645674,24.995350383000986,-50.88435563772038
9.31,2.33,-7.45,-0.9049469767218998,-1.397742110826405,-2.228086721712881,-114.11147553645674,24.995350383000986,-50.88435563772038
8.99,2.63,-7.21,-1.1140555457333092,-0.995383417720204,-1.918928539788496,-114.15363047105912,25.30060996520192,-50.808228717792346
8.99,2.63,-7.21,-1.1140555457333092,-0.995383417720204,-1.918928539788496,-114.15363047105912,25.30060996520192,-50.808228717792346
8.89,2.26,-7.16,-0.8301082502358927,-1.0420133908260667,-1.7532128186596374,-115.04449255970869,25.62955536451614,-50.12416021166318
8.89,2.26,-7.16,-0.8301082502358927,-1.0420133908260667,-1.7532128186596374,-115.04449255970869,25.62955536451614,-50.12416021166318
8.01,2.86,-6.6,-1.186010735508303,-0.1474633169481738,-0.8924776796481719,-116.1411089977447,26.06456338881546,-49.13941280029733
8.01,2.86,-6.6,-1.186010735508303,-0.1474633169481738,-0.8924776796481719,-116.1411089977447,26.06456338881546,-49.13941280029733
8.07,2.74,-7.26,-1.2861333039724152,-0.2344197183371843,-1.3122981750778795,-118.0295307899628,26.13514108768563,-47.85746338279603
8.07,2.74,-7.26,-1.2861333039724152,-0.2344197183371843,-1.3122981750778795,-118.0295307899628,26.13514108768563,-47.85746338279603
8.09,2.31,-7.02,-0.7202895724482217,-0.1133540700898994,-1.1264618071030608,-119.71975142044464,26.06456338881546,-46.75656566484064
8.09,2.31,-7.02,-0.7202895724482217,-0.1133540700898994,-1.1264618071030608,-119.71975142044464,26.06456338881546,-46.75656566484064
7.57,2.02,-6.61,-0.3787091407729693,0.2540495843570479,-0.4339280205700789,-122.20841159701892,26.288094094940124,-44.952445815509726
7.57,2.02,-6.61,-0.3787091407729693,0.2540495843570479,-0.4339280205700789,-122.20841159701892,26.288094094940124,-44.952445815509726
7.37,1.66,-6.95,-0.2479227076195839,0.2105402090239724,-0.4534283209208869,-124.72495975966048,26.31162955164407,-43.11071528826148
7.37,1.66,-6.95,-0.2479227076195839,0.2105402090239724,-0.4534283209208869,-124.72495975966048,26.31162955164407,-43.11071528826148
6.79,1.0,-6.54,0.1552059529889342,0.0090771683702609,0.3276453730799797,-126.60729740721462,26.29986168212807,-41.67270371214475
6.79,1.0,-6.54,0.1552059529889342,0.0090771683702609,0.3276453730799797,-126.60729740721462,26.29986168212807,-41.67270371214475
6.45,0.82,-6.63,0.1397901638575159,0.0210659662159532,0.5216182318714662,-128.2635811405088,26.39401255557817,-40.32696746513329
6.45,0.82,-6.63,0.1397901638575159,0.0210659662159532,0.5216182318714662,-128.2635811405088,26.39401255557817,-40.32696746513329
6.79,0.95,-7.41,0.0673194262066272,0.3238564385399183,-0.2832105095447908,-130.16081866157813,26.5117266696815,-38.74398218156732
6.79,0.95,-7.41,0.0673194262066272,0.3238564385399183,-0.2832105095447908,-130.16081866157813,26.5117266696815,-38.74398218156732
6.09,0.72,-6.79,0.281827865871831,0.4730388623915845,0.6738844118177774,-132.2130251212284,26.558820285317804,-36.87862290728264
6.09,0.72,-6.79,0.281827865871831,0.4730388623915845,0.6738844118177774,-132.2130251212284,26.558820285317804,-36.87862290728264
6.08,0.66,-7.13,0.2817354906824481,0.5571339421858464,0.4338634941761121,-133.58972143720712,26.535272907054928,-35.63667282414923
6.08,0.66,-7.13,0.2817354906824481,0.5571339421858464,0.4338634941761121,-133.58972143720712,26.535272907054928,-35.63667282414923
5.47,0.64,-6.79,0.2397351787939189,0.6939002865999544,1.0948402318573809,-135.24632190274465,26.59414349441812,-33.9794256257345
5.47,0.64,-6.79,0.2397351787939189,0.6939002865999544,1.0948402318573809,-135.24632190274465,26.59414349441812,-33.9794256257345
5.24,0.61,-7.18,0.0274433783672331,0.6193153900445354,0.9185796071285656,-136.311888173766,26.46463761296408,-32.950364032221074
5.24,0.61,-7.18,0.0274433783672331,0.6193153900445354,0.9185796071285656,-136.311888173766,26.46463761296408,-32.950364032221074
5.41,-0.13,-7.67,0.4132779753607712,0.1128518921175857,0.4295307320410409,-137.81479293008655,25.98223545272544,-31.769115255908964
5.41,-0.13,-7.67,0.4132779753607712,0.1128518921175857,0.4295307320410409,-137.81479293008655,25.98223545272544,-31.769115255908964
5.07,0.79,-7.85,-0.211030240362838,0.8753688476823624,0.4717319169014846,-138.68306126823978,25.93519704664329,-30.828988678188
5.07,0.79,-7.85,-0.211030240362838,0.8753688476823624,0.4717319169014846,-138.68306126823978,25.93519704664329,-30.828988678188
4.97,1.09,-8.37,-0.458703294754695,1.0856962808746469,0.0826202348729872,-140.0359922172176,25.42981308247912,-29.606429021936968
4.97,1.09,-8.37,-0.458703294754695,1.0856962808746469,0.0826202348729872,-140.0359922172176,25.42981308247912,-29.606429021936968
3.96,1.28,-7.9,-0.9473349274393236,1.0674865766434187,0.9922850799425352,-141.39967008106163,24.66681067830264,-28.61194247203445
3.96,1.28,-7.9,-0.9473349274393236,1.0674865766434187,0.9922850799425352,-141.39967008106163,24.66681067830264,-28.61194247203445
4.03,1.6,-8.02,-0.918916410902942,1.4887936247140492,0.8590030370949453,-143.02758111671002,23.40148673707778,-27.737669605365127
4.03,1.6,-8.02,-0.918916410902942,1.4887936247140492,0.8590030370949453,-143.02758111671002,23.40148673707778,-27.737669605365127
4.41,0.66,-8.48,-0.3401931305959072,0.7554932027593906,0.2616199500483649,-144.42647704464702,21.928912393640328,-27.301153346475186
4.41,0.66,-8.48,-0.3401931305959072,0.7554932027593906,0.2616199500483649,-144.42647704464702,21.928912393640328,-27.301153346475186
4.37,0.53,-8.24,-0.0834792897292399,0.7846090000772168,0.4979003565095202,-146.5113892939378,19.703563060929827,-26.617693729981983
4.37,0.53,-8.24,-0.0834792897292399,0.7846090000772168,0.4979003565095202,-146.5113892939378,19.703563060929827,-26.617693729981983
4.05,0.37,-7.99,-0.1023169298914506,0.6154615148140451,0.8629237983746201,-148.01592812505623,17.833592505981915,-26.205728877683853
4.05,0.37,-7.99,-0.1023169298914506,0.6154615148140451,0.8629237983746201,-148.01592812505623,17.833592505981915,-26.205728877683853
4.24,-0.47,-8.03,0.3478520247694715,-0.0506912684054043,0.7206261521240087,-149.94434113378782,15.031647378904806,-25.84113356281753
4.24,-0.47,-8.03,0.3478520247694715,-0.0506912684054043,0.7206261521240087,-149.94434113378782,15.031647378904806,-25.84113356281753
4.76,-1.2,-8.53,0.7627733813506455,-0.5923852554117572,0.0124804855453088,-151.3927025567389,12.469235993000286,-25.65305965168436
4.76,-1.2,-8.53,0.7627733813506455,-0.5923852554117572,0.0124804855453088,-151.3927025567389,12.469235993000286,-25.65305965168436
5.08,-0.3,-8.59,0.8754345833302125,0.3290151907183599,-0.1336650500668739,-152.3835367338065,10.591876570929834,-25.44156044788709
5.08,-0.3,-8.59,0.8754345833302125,0.3290151907183599,-0.1336650500668739,-152.3835367338065,10.591876570929834,-25.44156044788709
4.58,-1.29,-8.14,0.8177957547503323,-0.6771637535590677,0.4379382766957693,-153.36074062083046,8.579461739762628,-25.124476539770274
4.58,-1.29,-8.14,0.8177957547503323,-0.6771637535590677,0.4379382766957693,-153.36074062083046,8.579461739762628,-25.124476539770274
4.64,-3.96,-8.11,1.1153794655049554,-3.1271157020692413,0.2170527178508745,-154.0662728728033,6.225383461526625,-24.924931536010146
4.64,-3.96,-8.11,1.1153794655049554,-3.1271157020692413,0.2170527178508745,-154.0662728728033,6.225383461526625,-24.924931536010146
5.1,-3.05,-8.38,1.3353948094051995,-2.2484047393362845,-0.1280516478173012,-154.42620867150097,5.605762844556931,-24.78412249918103
5.1,-3.05,-8.38,1.3353948094051995,-2.2484047393362845,-0.1280516478173012,-154.42620867150097,5.605762844556931,-24.78412249918103
5.0,-3.14,-8.41,1.276209124366884,-2.3387282167743195,-0.117529593243276,-154.47803544959174,5.835231869336321,-24.631622257728548
5.0,-3.14,-8.41,1.276209124366884,-2.3387282167743195,-0.117529593243276,-154.47803544959174,5.835231869336321,-24.631622257728548
4.95,-3.26,-8.31,1.3336428618415117,-2.3358436315310427,-0.0397417881676371,-153.96433257658236,7.419256300710717,-24.713732248446583
4.95,-3.26,-8.31,1.3336428618415117,-2.3358436315310427,-0.0397417881676371,-153.96433257658236,7.419256300710717,-24.713732248446583
4.77,-2.17,-8.17,1.1740000261614376,-1.3406131622871365,0.26541421590602,-153.76161968319718,8.717364176475899,-24.57298013035922
4.77,-2.17,-8.17,1.1740000261614376,-1.3406131622871365,0.26541421590602,-153.76161968319718,8.717364176475899,-24.57298013035922
4.76,-2.23,-8.23,1.2063915652282895,-1.3851366311955249,0.2155387033740279,-152.7702885732456,11.2019689418816,-24.66681067830264
4.76,-2.23,-8.23,1.2063915652282895,-1.3851366311955249,0.2155387033740279,-152.7702885732456,11.2019689418816,-24.66681067830264
4.6,-0.93,-7.9,1.008736830713886,-0.1980019725026108,0.675486589719446,-151.8602645048557,13.634163660769715,-24.52607113458515
4.6,-0.93,-7.9,1.008736830713886,-0.1980019725026108,0.675486589719446,-151.8602645048557,13.634163660769715,-24.52607113458515
4.43,-0.39,-8.1,0.6495418992740791,0.1879598240348416,0.5909152802049356,-149.98856759602742,16.9525653616307,-24.54952511022461
4.43,-0.39,-8.1,0.6495418992740791,0.1879598240348416,0.5909152802049356,-149.98856759602742,16.9525653616307,-24.54952511022461
4.44,-0.43,-8.49,0.4784755166659839,0.07278406342285,0.2283221887344613,-148.14094650942238,19.61052428537218,-24.737194611496925
4.44,-0.43,-8.49,0.4784755166659839,0.07278406342285,0.2283221887344613,-148.14094650942238,19.61052428537218,-24.737194611496925
4.43,0.4,-8.74,0.0235275013224518,0.6642885273324092,0.0224450139453811,-145.4536804163923,23.190884791431422,-24.901460713527147
4.43,0.4,-8.74,0.0235275013224518,0.6642885273324092,0.0224450139453811,-145.4536804163923,23.190884791431422,-24.901460713527147
4.09,1.82,-9.07,-1.0494252858631197,1.6249711125431394,-0.1212689890324672,-143.35423456188457,25.8176204619052,-24.983613243143303
4.09,1.82,-9.07,-1.0494252858631197,1.6249711125431394,-0.1212689890324672,-143.35423456188457,25.8176204619052,-24.983613243143303
4.06,1.94,-9.01,-1.231667038116804,1.57509859963815,-0.063981221387749,-140.67807487589178,29.0733898303354,-25.0892571067724
4.06,1.94,-9.01,-1.231667038116804,1.57509859963815,-0.063981221387749,-140.67807487589178,29.0733898303354,-25.0892571067724
4.07,2.65,-9.24,-1.7542666920451018,1.9958530127619936,-0.2881070116684885,-138.87838831455554,31.114368796125287,-25.13621688663897
4.07,2.65,-9.24,-1.7542666920451018,1.9958530127619936,-0.2881070116684885,-138.87838831455554,31.114368796125287,-25.13621688663897
4.29,2.83,-9.53,-1.8579812901434256,2.0768399118126992,-0.6560715152740624,-137.40276743944383,32.8547775548023,-25.07751783117069
4.29,2.83,-9.53,-1.8579812901434256,2.0768399118126992,-0.6560715152740624,-137.40276743944383,32.8547775548023,-25.07751783117069
3.74,1.24,-9.09,-1.2498788666734804,0.6036139891581597,-0.0028735853091053,-136.4970459556038,34.00339056621902,-25.03056340197877
3.74,1.24,-9.09,-1.2498788666734804,0.6036139891581597,-0.0028735853091053,-136.4970459556038,34.00339056621902,-25.03056340197877
3.93,0.9,-8.88,-0.8539606150924652,0.4575673387665996,0.1024919531437458,-136.00493912570792,34.53100937438062,-25.065778823031927
3.93,0.9,-8.88,-0.8539606150924652,0.4575673387665996,0.1024919531437458,-136.00493912570792,34.53100937438062,-25.065778823031927
4.44,1.25,-9.26,-0.8267000757436964,0.8811870121612974,-0.4677734112851173,-135.57859793518082,34.9993031752255,-25.042301608577382
4.44,1.25,-9.26,-0.8267000757436964,0.8811870121612974,-0.4677734112851173,-135.57859793518082,34.9993031752255,-25.042301608577382
4.34,-0.2,-8.99,0.0569317630801315,-0.1949797693792747,-0.176057131028406,-135.397065246721,35.44414023991489,-24.854522251558684
4.34,-0.2,-8.99,0.0569317630801315,-0.1949797693792747,-0.176057131028406,-135.397065246721,35.44414023991489,-24.854522251558684
4.09,-0.03,-8.74,-0.1024713951744278,-0.1042511395524,0.1580629887805287,-134.7075870499225,36.48023552286196,-24.56125248965988
4.09,-0.03,-8.74,-0.1024713951744278,-0.1042511395524,0.1580629887805287,-134.7075870499225,36.48023552286196,-24.56125248965988
4.15,0.89,-8.54,-0.5326160492491024,0.6898807246924302,0.3099882323165719,-134.26323636741046,37.02360533619834,-24.40881688456287
4.15,0.89,-8.54,-0.5326160492491024,0.6898807246924302,0.3099882323165719,-134.26323636741046,37.02360533619834,-24.40881688456287
4.26,0.77,-8.72,-0.4170543862464321,0.6250583040724096,0.1002465592077968,-134.1748557862076,37.277472623411406,-24.197824520118107
4.26,0.77,-8.72,-0.4170543862464321,0.6250583040724096,0.1002465592077968,-134.1748557862076,37.277472623411406,-24.197824520118107
3.92,-0.24,-8.42,0.0596101907197557,-0.240731319888703,0.519083308084026,-134.1748557862076,37.35004092959612,-24.18610517042096
3.92,-0.24,-8.42,0.0596101907197557,-0.240731319888703,0.519083308084026,-134.1748557862076,37.35004092959612,-24.18610517042096
4.46,0.2,-8.76,0.0222280150330753,0.2941545147079273,-0.0209732649010625,-133.6770461216721,37.77366695276425,-24.350199497398
4.46,0.2,-8.76,0.0222280150330753,0.2941545147079273,-0.0209732649010625,-133.6770461216721,37.77366695276425,-24.350199497398
4.37,0.72,-8.7,-0.333757621321807,0.6354904258596339,0.0706314210915621,-133.56064768554154,37.89480115121914,-24.31503217113493
4.37,0.72,-8.7,-0.333757621321807,0.6354904258596339,0.0706314210915621,-133.56064768554154,37.89480115121914,-24.31503217113493
4.06,0.82,-8.6,-0.5719730854676447,0.5614706422033668,0.2948889902056315,-133.64792062272215,37.79789028318413,-24.2915885788112
4.06,0.82,-8.6,-0.5719730854676447,0.5614706422033668,0.2948889902056315,-133.64792062272215,37.79789028318413,-24.2915885788112
4.39,-0.06,-8.62,0.1681403353609084,0.0700832234714816,0.1346844722795595,-133.64792062272215,37.71311628724267,-24.479166312304468
4.39,-0.06,-8.62,0.1681403353609084,0.0700832234714816,0.1346844722795595,-133.64792062272215,37.71311628724267,-24.479166312304468
4.36,0.36,-8.77,-0.175819942423323,0.3110532210045874,0.0125480380256934,-133.6770461216721,37.56783922201158,-24.596436196111345
4.36,0.36,-8.77,-0.175819942423323,0.3110532210045874,0.0125480380256934,-133.6770461216721,37.56783922201158,-24.596436196111345
4.18,-0.04,-8.64,-0.0348932781169168,-0.0734818973761471,0.2088907370313624,-133.706188934986,37.42262477199783,-24.772390131710253
4.18,-0.04,-8.64,-0.0348932781169168,-0.0734818973761471,0.2088907370313624,-133.706188934986,37.42262477199783,-24.772390131710253
4.61,0.06,-8.96,0.0625702124718426,0.113310123068243,-0.2690904583743379,-133.64792062272215,37.28956626386321,-25.03056340197877
4.61,0.06,-8.96,0.0625702124718426,0.113310123068243,-0.2690904583743379,-133.64792062272215,37.28956626386321,-25.03056340197877
4.44,0.14,-8.75,-0.0218238057674396,0.1444384902581068,-0.0052999205832549,-133.6770461216721,37.30166033497223,-24.96013976228266
4.44,0.14,-8.75,-0.0218238057674396,0.1444384902581068,-0.0052999205832549,-133.6770461216721,37.30166033497223,-24.96013976228266
4.55,0.25,-8.96,-0.06954589860878,0.218596780368003,-0.2429260515356795,-133.73534909546763,37.2532866337568,-24.901460713527147
4.55,0.25,-8.96,-0.06954589860878,0.218596780368003,-0.2429260515356795,-133.73534909546763,37.2532866337568,-24.901460713527147
4.48,0.05,-8.82,0.0667620613013449,0.0472625663691183,-0.0857010389083452,-133.82293398949477,37.1323824635344,-24.8662564695287
4.48,0.05,-8.82,0.0667620613013449,0.0472625663691183,-0.0857010389083452,-133.82293398949477,37.1323824635344,-24.8662564695287
4.45,0.2,-8.63,0.0278412493595788,0.1899034193231976,0.0967292198822011,-133.88141126071122,37.05986053192884,-24.842788298368426
4.45,0.2,-8.63,0.0278412493595788,0.1899034193231976,0.0967292198822011,-133.88141126071122,37.05986053192884,-24.842788298368426
4.47,0.3,-8.72,-0.0423690708001024,0.2482417190031045,0.0063499581244474,-133.91067619883825,37.03568997450844,-24.80758802606676
4.47,0.3,-8.72,-0.0423690708001024,0.2482417190031045,0.0063499581244474,-133.91067619883825,37.03568997450844,-24.80758802606676
4.25,-0.01,-8.68,0.0219496879159108,-0.1157756570640194,0.1427421875034547,-134.0866361818657,36.842386864351504,-24.76065802803315
4.25,-0.01,-8.68,0.0219496879159108,-0.1157756570640194,0.1427421875034547,-134.0866361818657,36.842386864351504,-24.76065802803315
4.28,0.43,-8.64,-0.2052898880861247,0.233915758779215,0.1600941649029809,-134.1748557862076,36.685408046310336,-24.772390131710253
4.28,0.43,-8.64,-0.2052898880861247,0.233915758779215,0.1600941649029809,-134.1748557862076,36.685408046310336,-24.772390131710253
4.41,0.22,-8.78,-0.0346573207837978,0.0871100162219991,-0.0206645220446599,-134.14543141113884,36.69748080490138,-24.80758802606676
4.41,0.22,-8.78,-0.0346573207837978,0.0871100162219991,-0.0206645220446599,-134.14543141113884,36.69748080490138,-24.80758802606676
4.44,0.12,-8.74,0.068752214566942,0.0248137383630076,0.0030660935206654,-134.20429804752106,36.612980343917975,-24.79585513058625
4.44,0.12,-8.74,0.068752214566942,0.0248137383630076,0.0030660935206654,-134.20429804752106,36.612980343917975,-24.79585513058625
4.56,0.29,-8.95,-0.0329697838043328,0.1671526754956304,-0.2407960922380958,-134.14543141113884,36.66126379400549,-24.842788298368426
4.56,0.29,-8.95,-0.0329697838043328,0.1671526754956304,-0.2407960922380958,-134.14543141113884,36.66126379400549,-24.842788298368426
4.5,0.38,-8.9,-0.0951235073587284,0.2261940900680116,-0.1705333576398739,-133.99857662596108,36.92694357562125,-24.70200146162693
4.5,0.38,-8.9,-0.0951235073587284,0.2261940900680116,-0.1705333576398739,-133.99857662596108,36.92694357562125,-24.70200146162693
4.14,0.46,-8.61,-0.2824853764925583,0.1718294083087564,0.247676380070498,-134.05726525899885,36.90278239165085,-24.608164621444825
4.14,0.46,-8.61,-0.2824853764925583,0.1718294083087564,0.247676380070498,-134.05726525899885,36.90278239165085,-24.608164621444825
4.4,0.37,-8.8,-0.108496640952794,0.1829768232752712,-0.0367055234506299,-134.0866361818657,36.85446512108432,-24.631622257728548
4.4,0.37,-8.8,-0.108496640952794,0.1829768232752712,-0.0367055234506299,-134.0866361818657,36.85446512108432,-24.631622257728548
4.14,0.36,-8.57,-0.2030191517524392,0.0947598794541749,0.2848905097971777,-133.99857662596108,36.97527104810168,-24.596436196111345
4.14,0.36,-8.57,-0.2030191517524392,0.0947598794541749,0.2848905097971777,-133.99857662596108,36.97527104810168,-24.596436196111345
4.52,0.42,-8.94,-0.0686329719265613,0.2316407656757812,-0.2169238172989818,-134.14543141113884,36.83030903162442,-24.479166312304468
4.52,0.42,-8.94,-0.0686329719265613,0.2316407656757812,-0.2169238172989818,-134.14543141113884,36.83030903162442,-24.479166312304468
4.04,0.4,-8.48,-0.2113469075297766,0.1067630071104402,0.40793018584497,-134.3222466489682,36.79407807568971,-24.26814601866472
4.04,0.4,-8.48,-0.2113469075297766,0.1067630071104402,0.40793018584497,-134.3222466489682,36.79407807568971,-24.26814601866472
4.06,0.3,-8.57,-0.1844989099421035,0.0038737882262703,0.3206368677091245,-134.38132917213414,36.64919229993541,-24.40881688456287
4.06,0.3,-8.57,-0.1844989099421035,0.0038737882262703,0.3206368677091245,-134.38132917213414,36.64919229993541,-24.40881688456287
