Unnamed: 0.1,TIME,ELAPSED_SECONDS,PSTATE,acc_x,acc_y,acc_z,mag_x,mag_y,mag_z,gyr_x,gyr_y,gyr_z,lin_x,lin_y,lin_z,eul_x,eul_y,eul_z,qua_w,qua_x,qua_y,qua_z
0,1535692.0,726.601204,1.0,7.16,0.07,-6.82,-25.37,-19.0,32.25,1.88,0.12,-0.06,-0.0012909118271280384,0.03881466443011755,-0.08179738851210773,-131.03834889093932,-14.61564163128423,-46.02102324962843,0.0528,-0.9101,-0.1272,-0.3909
1,1535692.0,726.601204,1.0,7.16,0.07,-6.82,-25.37,-19.0,32.25,1.88,0.12,-0.06,-0.0012909118271280384,0.03881466443011755,-0.08179738851210773,-131.03834889093932,-14.61564163128423,-46.02102324962843,0.0528,-0.9101,-0.1272,-0.3909
2,1535729.0,726.64536,1.0,7.0,0.08,-6.76,-25.37,-18.25,31.0,-2.25,0.44,-0.31,-0.06302312209149896,0.0643383946130166,0.07546874297572792,-131.03834889093932,-14.604088706058507,-46.02102324962843,0.0526,-0.9101,-0.1271,-0.3909
3,1535729.0,726.64536,1.0,7.0,0.08,-6.76,-25.37,-18.25,31.0,-2.25,0.44,-0.31,-0.06302312209149896,0.0643383946130166,0.07546874297572792,-131.03834889093932,-14.604088706058507,-46.02102324962843,0.0526,-0.9101,-0.1271,-0.3909
4,1535762.0,726.6858269999999,1.0,7.19,0.1,-6.86,-25.37,-18.25,31.0,-0.37,0.37,0.63,-0.0038236652801622033,0.06436077289360798,-0.1312342351124407,-131.03834889093932,-14.592535930080526,-46.03347327955085,0.0524,-0.9101,-0.127,-0.391
5,1535762.0,726.6858269999999,1.0,7.19,0.1,-6.86,-25.37,-18.25,31.0,-0.37,0.37,0.63,-0.0038236652801622033,0.06436077289360798,-0.1312342351124407,-131.03834889093932,-14.592535930080526,-46.03347327955085,0.0524,-0.9101,-0.127,-0.391
6,1535799.0,726.702368,1.0,7.16,0.13,-6.78,-26.5,-18.56,33.19,0.12,0.06,-0.88,0.04000420517834469,0.08078883552047966,-0.05452502266455639,-131.03834889093932,-14.604088706058507,-46.03347327955085,0.0523,-0.9101,-0.1271,-0.391
7,1535799.0,726.702368,1.0,7.16,0.13,-6.78,-26.5,-18.56,33.19,0.12,0.06,-0.88,0.04000420517834469,0.08078883552047966,-0.05452502266455639,-131.03834889093932,-14.604088706058507,-46.03347327955085,0.0523,-0.9101,-0.1271,-0.391
8,1535834.0,726.75125,1.0,7.12,0.05,-6.79,-26.19,-18.25,31.0,1.31,0.0,-0.06,-0.012891443263622905,0.016966391421320115,-0.03207684610426398,-131.03834889093932,-14.627194705880914,-46.02102324962843,0.0526,-0.9101,-0.1273,-0.3909
9,1535834.0,726.75125,1.0,7.12,0.05,-6.79,-26.19,-18.25,31.0,1.31,0.0,-0.06,-0.012891443263622905,0.016966391421320115,-0.03207684610426398,-131.03834889093932,-14.627194705880914,-46.02102324962843,0.0526,-0.9101,-0.1273,-0.3909
10,1535868.0,726.806469,1.0,7.09,0.13,-6.79,-26.19,-18.25,31.0,-2.0,0.63,-0.56,-0.013572738616066005,0.09427741843629713,-0.01068301610674105,-131.03834889093932,-14.604088706058507,-46.03347327955085,0.0522,-0.9101,-0.1271,-0.391
11,1535868.0,726.806469,1.0,7.09,0.13,-6.79,-26.19,-18.25,31.0,-2.0,0.63,-0.56,-0.013572738616066005,0.09427741843629713,-0.01068301610674105,-131.03834889093932,-14.604088706058507,-46.03347327955085,0.0522,-0.9101,-0.1271,-0.391
12,1535903.0,726.823618,1.0,7.04,0.03,-6.93,-26.19,-18.56,32.69,2.63,0.37,-0.56,-0.17006567340859924,0.03860417495633278,-0.07044407591139645,-131.01070305716067,-14.627194705880914,-46.02102324962843,0.0525,-0.91,-0.1273,-0.3909
13,1535903.0,726.823618,1.0,7.04,0.03,-6.93,-26.19,-18.56,32.69,2.63,0.37,-0.56,-0.17006567340859924,0.03860417495633278,-0.07044407591139645,-131.01070305716067,-14.627194705880914,-46.02102324962843,0.0525,-0.91,-0.1273,-0.3909
14,1535940.0,726.866044,1.0,7.18,0.1,-6.88,-25.75,-18.56,31.87,0.12,1.25,-0.12,-0.031502660979890074,0.06984505010901215,-0.13774184924480615,-130.9830718545965,-14.638747929971785,-46.070826818198796,0.0525,-0.9099,-0.1274,-0.3913
15,1535940.0,726.866044,1.0,7.18,0.1,-6.88,-25.75,-18.56,31.87,0.12,1.25,-0.12,-0.031502660979890074,0.06984505010901215,-0.13774184924480615,-130.9830718545965,-14.638747929971785,-46.070826818198796,0.0525,-0.9099,-0.1274,-0.3913
16,1535973.0,726.8844889999997,1.0,7.19,0.19,-6.78,-25.75,-18.56,31.87,-0.94,1.69,-0.31,0.06774335456276459,0.13524859829374106,-0.07655386588135826,-130.9830718545965,-14.638747929971785,-46.08327914813054,0.0525,-0.9099,-0.1274,-0.3914
17,1535973.0,726.8844889999997,1.0,7.19,0.19,-6.78,-25.75,-18.56,31.87,-0.94,1.69,-0.31,0.06774335456276459,0.13524859829374106,-0.07655386588135826,-130.9830718545965,-14.638747929971785,-46.08327914813054,0.0525,-0.9099,-0.1274,-0.3914
18,1536008.0,726.934843,1.0,7.17,0.1,-6.89,-26.19,-18.56,30.69,2.75,0.44,-0.81,-0.051840445621598175,0.07599344744942887,-0.13731990965592722,-130.92785324394194,-14.673408500442047,-46.10818553492847,0.0527,-0.9097,-0.1277,-0.3916
19,1536008.0,726.934843,1.0,7.17,0.1,-6.89,-26.19,-18.56,30.69,2.75,0.44,-0.81,-0.051840445621598175,0.07599344744942887,-0.13731990965592722,-130.92785324394194,-14.673408500442047,-46.10818553492847,0.0527,-0.9097,-0.1277,-0.3916
20,1536043.0,726.951239,1.0,7.12,-0.03,-6.82,-25.75,-18.56,31.5,0.94,0.37,-0.88,-0.0717477693977977,-0.048937408131834566,-0.05236401701365878,-130.90026578643878,-14.7196246947995,-46.10818553492847,0.0531,-0.9096,-0.1281,-0.3916
21,1536043.0,726.951239,1.0,7.12,-0.03,-6.82,-25.75,-18.56,31.5,0.94,0.37,-0.88,-0.0717477693977977,-0.048937408131834566,-0.05236401701365878,-130.90026578643878,-14.7196246947995,-46.10818553492847,0.0531,-0.9096,-0.1281,-0.3916
22,1536077.0,727.0049769999997,1.0,7.18,0.07,-6.79,-25.0,-18.25,32.69,0.06,0.94,0.19,0.014510811757727725,0.03007415875521463,-0.07567184161785434,-130.90026578643878,-14.7196246947995,-46.12063959224854,0.0531,-0.9096,-0.1281,-0.3917
23,1536077.0,727.0049769999997,1.0,7.18,0.07,-6.79,-25.0,-18.25,32.69,0.06,0.94,0.19,0.014510811757727725,0.03007415875521463,-0.07567184161785434,-130.90026578643878,-14.7196246947995,-46.12063959224854,0.0531,-0.9096,-0.1281,-0.3917
24,1536112.0,727.025,1.0,7.16,0.09,-6.88,-25.0,-18.25,32.69,-1.0,0.75,-0.12,-0.058952467111990085,0.06940870739055023,-0.12309355348413753,-130.87269286132405,-14.7196246947995,-46.13309422581874,0.053,-0.9095,-0.1281,-0.3918
25,1536112.0,727.025,1.0,7.16,0.09,-6.88,-25.0,-18.25,32.69,-1.0,0.75,-0.12,-0.058952467111990085,0.06940870739055023,-0.12309355348413753,-130.87269286132405,-14.7196246947995,-46.13309422581874,0.053,-0.9095,-0.1281,-0.3918
26,1536149.0,727.08773,1.0,7.1,0.06,-6.77,-25.75,-17.5,32.25,-1.25,-0.88,0.63,-0.024840597048500168,0.029432948356664268,-0.003804456664548539,-130.92785324394194,-14.696516297153034,-46.10818553492847,0.0529,-0.9097,-0.1279,-0.3916
27,1536149.0,727.08773,1.0,7.1,0.06,-6.77,-25.75,-17.5,32.25,-1.25,-0.88,0.63,-0.024840597048500168,0.029432948356664268,-0.003804456664548539,-130.92785324394194,-14.696516297153034,-46.10818553492847,0.0529,-0.9097,-0.1279,-0.3916
28,1536184.0,727.127018,1.0,7.13,0.13,-6.76,-26.5,-18.56,31.87,-0.44,1.25,0.31,0.015954038337428592,0.08405685608420821,-0.019034704569243388,-130.90026578643878,-14.673408500442047,-46.13309422581874,0.0525,-0.9096,-0.1277,-0.3918
29,1536184.0,727.127018,1.0,7.13,0.13,-6.76,-26.5,-18.56,31.87,-0.44,1.25,0.31,0.015954038337428592,0.08405685608420821,-0.019034704569243388,-130.90026578643878,-14.673408500442047,-46.13309422581874,0.0525,-0.9096,-0.1277,-0.3918
30,1536221.0,727.141345,1.0,7.15,0.1,-6.81,-26.5,-18.56,31.87,-1.0,1.06,0.19,-0.016067711609833342,0.0651078620532281,-0.06776657997790281,-130.87269286132405,-14.673408500442047,-46.14554943586622,0.0527,-0.9095,-0.1277,-0.3919
31,1536221.0,727.141345,1.0,7.15,0.1,-6.81,-26.5,-18.56,31.87,-1.0,1.06,0.19,-0.016067711609833342,0.0651078620532281,-0.06776657997790281,-130.87269286132405,-14.673408500442047,-46.14554943586622,0.0527,-0.9095,-0.1277,-0.3919
32,1536256.0,727.184576,1.0,7.27,0.02,-7.02,-26.19,-19.37,31.0,-1.12,-1.0,0.31,-0.10155821503660124,-0.0027946203199433195,-0.2989612194689091,-130.92785324394194,-14.661854827129085,-46.12063959224854,0.0522,-0.9097,-0.1276,-0.3917
33,1536256.0,727.184576,1.0,7.27,0.02,-7.02,-26.19,-19.37,31.0,-1.12,-1.0,0.31,-0.10155821503660124,-0.0027946203199433195,-0.2989612194689091,-130.92785324394194,-14.661854827129085,-46.12063959224854,0.0522,-0.9097,-0.1276,-0.3917
34,1536290.0,727.203565,1.0,7.23,0.1,-6.84,-25.75,-18.25,31.06,-2.75,-4.31,-0.81,0.035497670343512144,0.02585046795207752,-0.1465691610908859,-131.0660093808112,-14.638747929971785,-46.02102324962843,0.0511,-0.9102,-0.1274,-0.3909
35,1536290.0,727.203565,1.0,7.23,0.1,-6.84,-25.75,-18.25,31.06,-2.75,-4.31,-0.81,0.035497670343512144,0.02585046795207752,-0.1465691610908859,-131.0660093808112,-14.638747929971785,-46.02102324962843,0.0511,-0.9102,-0.1274,-0.3909
36,1536325.0,727.248263,1.0,7.65,-0.06,-7.67,-25.75,-18.25,31.06,-6.0,-16.31,1.56,-0.2534725640892801,-0.07454757871922453,-1.0231789145194323,-131.37124925693712,-14.604088706058507,-45.709958605695505,0.0501,-0.9113,-0.1271,-0.3884
37,1536325.0,727.248263,1.0,7.65,-0.06,-7.67,-25.75,-18.25,31.06,-6.0,-16.31,1.56,-0.2534725640892801,-0.07454757871922453,-1.0231789145194323,-131.37124925693712,-14.604088706058507,-45.709958605695505,0.0501,-0.9113,-0.1271,-0.3884
38,1536360.0,727.261012,1.0,7.32,0.13,-7.82,-25.75,-18.25,31.75,-16.25,-56.44,6.0,-0.23660403649404405,0.07357134405386972,-0.9027059931140968,-133.0977829759083,-14.303764676023915,-44.11043851170447,0.0448,-0.9174,-0.1245,-0.3755
39,1536360.0,727.261012,1.0,7.32,0.13,-7.82,-25.75,-18.25,31.75,-16.25,-56.44,6.0,-0.23660403649404405,0.07357134405386972,-0.9027059931140968,-133.0977829759083,-14.303764676023915,-44.11043851170447,0.0448,-0.9174,-0.1245,-0.3755
40,1536395.0,727.297502,1.0,6.92,0.63,-8.46,-25.0,-19.0,31.87,-39.0,-145.38,23.62,0.049393017030185504,0.4192338517768132,-1.1330347901296047,-138.0702668424954,-13.345688086437221,-39.38840578330453,0.0316,-0.9338,-0.1162,-0.337
41,1536395.0,727.297502,1.0,6.92,0.63,-8.46,-25.0,-19.0,31.87,-39.0,-145.38,23.62,0.049393017030185504,0.4192338517768132,-1.1330347901296047,-138.0702668424954,-13.345688086437221,-39.38840578330453,0.0316,-0.9338,-0.1162,-0.337
42,1536432.0,727.3475129999997,1.0,4.75,0.4,-6.54,-22.75,-18.56,34.38,-35.06,-145.81,13.81,0.2138377712486869,0.12284752150468828,1.7175658803948934,-142.88329260111254,-12.676748644427741,-34.66303165808797,0.0195,-0.948,-0.1104,-0.2979
43,1536432.0,727.3475129999997,1.0,4.75,0.4,-6.54,-22.75,-18.56,34.38,-35.06,-145.81,13.81,0.2138377712486869,0.12284752150468828,1.7175658803948934,-142.88329260111254,-12.676748644427741,-34.66303165808797,0.0195,-0.948,-0.1104,-0.2979
44,1536466.0,727.413803,1.0,4.89,0.54,-7.85,-22.75,-18.56,34.38,-19.37,-53.06,0.31,0.0286684926358558,0.15357329702754136,0.5437242548603987,-145.56964642134633,-12.330917071488786,-32.007467853657644,0.0093,-0.9552,-0.1074,-0.2757
45,1536466.0,727.413803,1.0,4.89,0.54,-7.85,-22.75,-18.56,34.38,-19.37,-53.06,0.31,0.0286684926358558,0.15357329702754136,0.5437242548603987,-145.56964642134633,-12.330917071488786,-32.007467853657644,0.0093,-0.9552,-0.1074,-0.2757
46,1536503.0,727.42717,1.0,5.57,0.42,-10.16,-17.87,-20.06,37.0,-9.31,-37.38,0.12,-0.4576892768779901,-0.003500099431842263,-1.7785737041472292,-146.5113892939378,-12.330917071488786,-31.03111257231891,0.0066,-0.9576,-0.1074,-0.2675
47,1536503.0,727.42717,1.0,5.57,0.42,-10.16,-17.87,-20.06,37.0,-9.31,-37.38,0.12,-0.4576892768779901,-0.003500099431842263,-1.7785737041472292,-146.5113892939378,-12.330917071488786,-31.03111257231891,0.0066,-0.9576,-0.1074,-0.2675
48,1536540.0,727.433817,1.0,4.71,0.75,-8.39,-16.87,-20.37,36.06,-24.25,-80.87,-4.63,0.2583175691742374,0.14381114609375736,0.16034032283769406,-149.24516700325162,-12.088902226339815,-28.15096848573949,-0.0034,-0.9642,-0.1053,-0.2432
49,1536540.0,727.433817,1.0,4.71,0.75,-8.39,-16.87,-20.37,36.06,-24.25,-80.87,-4.63,0.2583175691742374,0.14381114609375736,0.16034032283769406,-149.24516700325162,-12.088902226339815,-28.15096848573949,-0.0034,-0.9642,-0.1053,-0.2432
50,1536575.0,727.4787719999997,1.0,4.3,0.1,-8.57,-16.87,-20.37,36.06,8.56,-35.25,-8.81,-0.07996711537104062,-0.4922424666667821,0.2308365820981529,-150.479330837061,-12.273289521851867,-26.723683975588173,-0.0067,-0.9670000000000001,-0.1069,-0.2311
51,1536575.0,727.4787719999997,1.0,4.3,0.1,-8.57,-16.87,-20.37,36.06,8.56,-35.25,-8.81,-0.07996711537104062,-0.4922424666667821,0.2308365820981529,-150.479330837061,-12.273289521851867,-26.723683975588173,-0.0067,-0.9670000000000001,-0.1069,-0.2311
52,1536608.0,727.523038,1.0,4.56,0.12,-9.65,-14.56,-21.19,36.56,3.38,-35.06,2.25,-0.08307277071720254,-0.5062385533351546,-0.8548377686879416,-151.67233263341282,-12.342442956629045,-25.371080328389592,-0.0062,-0.9696,-0.1075,-0.2196
53,1536608.0,727.523038,1.0,4.56,0.12,-9.65,-14.56,-21.19,36.56,3.38,-35.06,2.25,-0.08307277071720254,-0.5062385533351546,-0.8548377686879416,-151.67233263341282,-12.342442956629045,-25.371080328389592,-0.0062,-0.9696,-0.1075,-0.2196
54,1536645.0,727.5474469999997,1.0,4.1,1.33,-8.79,-13.5,-20.75,37.75,-9.44,-42.13,-7.25,0.323389301961432,0.6298287585643367,0.04234075181136099,-152.7702885732456,-12.365495103087909,-24.15094866150093,-0.011000000000000001,-0.9719,-0.1077,-0.2092
55,1536645.0,727.5474469999997,1.0,4.1,1.33,-8.79,-13.5,-20.75,37.75,-9.44,-42.13,-7.25,0.323389301961432,0.6298287585643367,0.04234075181136099,-152.7702885732456,-12.365495103087909,-24.15094866150093,-0.011000000000000001,-0.9719,-0.1077,-0.2092
56,1536681.0,727.595654,1.0,3.62,-0.26,-8.72,-11.56,-21.19,38.25,7.25,-44.63,-1.25,-0.0886351111927477,-0.8037747739621055,0.3962042119511686,-154.27134430279997,-12.757459245108164,-22.244146955349766,-0.0076,-0.9749,-0.1111,-0.1929
57,1536681.0,727.595654,1.0,3.62,-0.26,-8.72,-11.56,-21.19,38.25,7.25,-44.63,-1.25,-0.0886351111927477,-0.8037747739621055,0.3962042119511686,-154.27134430279997,-12.757459245108164,-22.244146955349766,-0.0076,-0.9749,-0.1111,-0.1929
58,1536716.0,727.639366,1.0,3.59,0.84,-8.7,-11.56,-21.19,38.25,-13.56,-2.19,-2.19,0.17957115717981464,0.19940476239404026,0.36145588128313655,-154.58200075536982,-12.734398426775371,-21.870554129176607,-0.0114,-0.9755,-0.1109,-0.1897
59,1536716.0,727.639366,1.0,3.59,0.84,-8.7,-11.56,-21.19,38.25,-13.56,-2.19,-2.19,0.17957115717981464,0.19940476239404026,0.36145588128313655,-154.58200075536982,-12.734398426775371,-21.870554129176607,-0.0114,-0.9755,-0.1109,-0.1897
60,1536753.0,727.690659,1.0,3.72,0.62,-9.66,-9.75,-20.37,39.19,19.25,-23.25,-6.69,-0.008210485525241841,0.003561276365879828,-0.5634184619359246,-154.89643727544532,-12.976563032466052,-21.34558610673021,-0.0091,-0.9761,-0.113,-0.1852
61,1536753.0,727.690659,1.0,3.72,0.62,-9.66,-9.75,-20.37,39.19,19.25,-23.25,-6.69,-0.008210485525241841,0.003561276365879828,-0.5634184619359246,-154.89643727544532,-12.976563032466052,-21.34558610673021,-0.0091,-0.9761,-0.113,-0.1852
62,1536788.0,727.706887,1.0,3.54,0.04,-9.72,-10.56,-21.87,38.75,-4.31,-27.31,-0.44,-0.12861776555435922,-0.5515320333392663,-0.5224772567717224,-155.75453926974473,-13.057297449093687,-20.27371434520358,-0.0095,-0.9777,-0.1137,-0.17600000000000002
63,1536788.0,727.706887,1.0,3.54,0.04,-9.72,-10.56,-21.87,38.75,-4.31,-27.31,-0.44,-0.12861776555435922,-0.5515320333392663,-0.5224772567717224,-155.75453926974473,-13.057297449093687,-20.27371434520358,-0.0095,-0.9777,-0.1137,-0.17600000000000002
64,1536823.0,727.744098,1.0,2.96,0.86,-7.8,-10.56,-21.87,38.75,9.81,-5.44,-7.75,0.2513699676537062,0.3068864119519183,1.4290707631606931,-156.0841409493743,-13.2187858542384,-19.81987998842397,-0.0106,-0.9783,-0.1151,-0.1721
65,1536823.0,727.744098,1.0,2.96,0.86,-7.8,-10.56,-21.87,38.75,9.81,-5.44,-7.75,0.2513699676537062,0.3068864119519183,1.4290707631606931,-156.0841409493743,-13.2187858542384,-19.81987998842397,-0.0106,-0.9783,-0.1151,-0.1721
66,1536856.0,727.806557,1.0,3.19,-0.22,-9.65,-8.38,-21.19,37.5,15.5,13.69,0.12,-0.4600035831228919,-0.6548951114572015,-0.3277719912387518,-155.70003388404493,-13.391838421127119,-20.180594156388953,-0.0054,-0.9776,-0.1166,-0.1752
67,1536856.0,727.806557,1.0,3.19,-0.22,-9.65,-8.38,-21.19,37.5,15.5,13.69,0.12,-0.4600035831228919,-0.6548951114572015,-0.3277719912387518,-155.70003388404493,-13.391838421127119,-20.180594156388953,-0.0054,-0.9776,-0.1166,-0.1752
68,1536892.0,727.812781,1.0,3.58,0.83,-9.38,-9.0,-20.75,38.75,-6.75,4.0,-0.56,0.17358155181066692,0.2347629423351328,-0.2633279446519712,-155.48320588867858,-13.334150842815475,-20.448351223683986,-0.0075,-0.9772,-0.1161,-0.1775
69,1536892.0,727.812781,1.0,3.58,0.83,-9.38,-9.0,-20.75,38.75,-6.75,4.0,-0.56,0.17358155181066692,0.2347629423351328,-0.2633279446519712,-155.48320588867858,-13.334150842815475,-20.448351223683986,-0.0075,-0.9772,-0.1161,-0.1775
70,1536929.0,727.834295,1.0,3.28,0.51,-8.78,-9.0,-20.75,38.75,4.13,4.0,-0.5,0.021965986291444303,-0.00015004198761610354,0.4201481237452658,-155.4292933262199,-13.357225465957494,-20.56480245757989,-0.0063,-0.9771,-0.1163,-0.1785
71,1536929.0,727.834295,1.0,3.28,0.51,-8.78,-9.0,-20.75,38.75,4.13,4.0,-0.5,0.021965986291444303,-0.00015004198761610354,0.4201481237452658,-155.4292933262199,-13.357225465957494,-20.56480245757989,-0.0063,-0.9771,-0.1163,-0.1785
72,1536962.0,727.870218,1.0,3.62,0.34,-9.68,-9.0,-20.37,40.5,-5.25,11.81,2.69,-0.08554209186823769,-0.19502521505660086,-0.5314856015488072,-155.10823234547746,-13.334150842815475,-20.92593832998922,-0.0056,-0.9765,-0.1161,-0.1816
73,1536962.0,727.870218,1.0,3.62,0.34,-9.68,-9.0,-20.37,40.5,-5.25,11.81,2.69,-0.08554209186823769,-0.19502521505660086,-0.5314856015488072,-155.10823234547746,-13.334150842815475,-20.92593832998922,-0.0056,-0.9765,-0.1161,-0.1816
74,1536999.0,727.9274429999997,1.0,3.57,0.63,-9.07,-8.69,-20.0,40.06,1.88,4.13,-0.63,0.11470765075548515,0.07632100307514134,0.03998643154696602,-154.89643727544532,-13.322613734970494,-21.13572637929078,-0.006,-0.9761,-0.11599999999999999,-0.1834
75,1536999.0,727.9274429999997,1.0,3.57,0.63,-9.07,-8.69,-20.0,40.06,1.88,4.13,-0.63,0.11470765075548515,0.07632100307514134,0.03998643154696602,-154.89643727544532,-13.322613734970494,-21.13572637929078,-0.006,-0.9761,-0.11599999999999999,-0.1834
76,1537034.0,727.94285,1.0,3.4,0.57,-8.86,-9.5,-19.69,39.19,1.12,7.19,-2.31,-0.0009722065123358713,0.06255191788260181,0.2997795205844032,-154.73873772257048,-13.380300633180664,-21.28728450329616,-0.0054,-0.9758,-0.1165,-0.1847
77,1537034.0,727.94285,1.0,3.4,0.57,-8.86,-9.5,-19.69,39.19,1.12,7.19,-2.31,-0.0009722065123358713,0.06255191788260181,0.2997795205844032,-154.73873772257048,-13.380300633180664,-21.28728450329616,-0.0054,-0.9758,-0.1165,-0.1847
78,1537069.0,727.9893480000003,1.0,3.59,0.44,-9.38,-9.5,-19.69,39.19,4.31,11.94,-2.25,-0.11262440075555435,-0.05873969608345449,-0.24571118493851785,-154.37448496866145,-13.495684664619233,-21.683846183764324,-0.004,-0.9751,-0.1175,-0.1881
79,1537069.0,727.9893480000003,1.0,3.59,0.44,-9.38,-9.5,-19.69,39.19,4.31,11.94,-2.25,-0.11262440075555435,-0.05873969608345449,-0.24571118493851785,-154.37448496866145,-13.495684664619233,-21.683846183764324,-0.004,-0.9751,-0.1175,-0.1881
80,1537103.0,728.0481580000003,1.0,3.77,0.72,-9.21,-9.88,-20.37,39.19,0.5,6.25,-2.94,0.14497250884818813,0.17911968671921388,-0.16843391491058668,-154.16860854190614,-13.553381828311744,-21.870554129176607,-0.0034,-0.9747,-0.11800000000000001,-0.1897
81,1537103.0,728.0481580000003,1.0,3.77,0.72,-9.21,-9.88,-20.37,39.19,0.5,6.25,-2.94,0.14497250884818813,0.17911968671921388,-0.16843391491058668,-154.16860854190614,-13.553381828311744,-21.870554129176607,-0.0034,-0.9747,-0.11800000000000001,-0.1897
82,1537140.0,728.05995,1.0,3.88,0.95,-9.32,-10.56,-20.75,38.38,17.56,-3.75,-13.19,0.2587072432087372,0.4090240340225221,-0.3217787972964139,-153.91350924378722,-13.98044914927855,-21.893896745024186,-0.0012,-0.9742,-0.1217,-0.1899
83,1537140.0,728.05995,1.0,3.88,0.95,-9.32,-10.56,-20.75,38.38,17.56,-3.75,-13.19,0.2587072432087372,0.4090240340225221,-0.3217787972964139,-153.91350924378722,-13.98044914927855,-21.893896745024186,-0.0012,-0.9742,-0.1217,-0.1899
84,1537175.0,728.09594,1.0,3.37,-0.13,-9.33,-10.56,-20.75,38.38,22.69,-3.31,-10.13,-0.4204444817079001,-0.4286313385105894,-0.09598609416442372,-153.81215335885898,-14.477016351828802,-21.707181480459113,0.0042,-0.9740000000000001,-0.126,-0.1883
85,1537175.0,728.09594,1.0,3.37,-0.13,-9.33,-10.56,-20.75,38.38,22.69,-3.31,-10.13,-0.4204444817079001,-0.4286313385105894,-0.09598609416442372,-153.81215335885898,-14.477016351828802,-21.707181480459113,0.0042,-0.9740000000000001,-0.126,-0.1883
86,1537210.0,728.135076,1.0,3.52,0.28,-8.87,-9.88,-19.69,39.56,-3.56,11.5,-7.75,-0.04710397210893792,-0.08200831960247429,0.26009272256602856,-153.4604028099656,-14.765843296845908,-21.893896745024186,0.0051,-0.9733,-0.1285,-0.1899
87,1537210.0,728.135076,1.0,3.52,0.28,-8.87,-9.88,-19.69,39.56,-3.56,11.5,-7.75,-0.04710397210893792,-0.08200831960247429,0.26009272256602856,-153.4604028099656,-14.765843296845908,-21.893896745024186,0.0051,-0.9733,-0.1285,-0.1899
88,1537245.0,728.155069,1.0,3.93,0.35,-9.76,-9.88,-19.25,38.75,15.56,-13.06,-7.31,0.025929214881762253,-0.034531090352945035,-0.7206067784591781,-153.36074062083046,-15.054764601110485,-21.823871652385925,0.0071,-0.9731,-0.131,-0.1893
89,1537245.0,728.155069,1.0,3.93,0.35,-9.76,-9.88,-19.25,38.75,15.56,-13.06,-7.31,0.025929214881762253,-0.034531090352945035,-0.7206067784591781,-153.36074062083046,-15.054764601110485,-21.823871652385925,0.0071,-0.9731,-0.131,-0.1893
90,1537282.0,728.213373,1.0,3.45,0.37,-8.77,-10.19,-20.0,39.56,2.5,1.5,-10.44,0.02439277718162014,0.05512139200051477,0.3753899238190179,-153.41052586239525,-15.436288478593855,-21.473869337236096,0.0088,-0.9732,-0.1343,-0.1863
91,1537282.0,728.213373,1.0,3.45,0.37,-8.77,-10.19,-20.0,39.56,2.5,1.5,-10.44,0.02439277718162014,0.05512139200051477,0.3753899238190179,-153.41052586239525,-15.436288478593855,-21.473869337236096,0.0088,-0.9732,-0.1343,-0.1863
92,1537316.0,728.233461,1.0,3.37,0.12,-9.22,-10.19,-20.0,39.56,4.81,0.19,-4.88,-0.27866097032151904,-0.11875372536408255,-0.005992132286879226,-153.21193002249612,-15.713868313956251,-21.497196482057948,0.01,-0.9728,-0.1367,-0.1865
93,1537316.0,728.233461,1.0,3.37,0.12,-9.22,-10.19,-20.0,39.56,4.81,0.19,-4.88,-0.27866097032151904,-0.11875372536408255,-0.005992132286879226,-153.21193002249612,-15.713868313956251,-21.497196482057948,0.01,-0.9728,-0.1367,-0.1865
94,1537353.0,728.2885610000003,1.0,3.98,0.4,-9.78,-9.5,-19.25,39.19,4.5,-4.13,-6.5,0.1460401409670229,0.026700200968622738,-0.7587065664626103,-153.1625065187994,-15.898972996932855,-21.462206102543455,0.0102,-0.9727,-0.1383,-0.1862
95,1537353.0,728.2885610000003,1.0,3.98,0.4,-9.78,-9.5,-19.25,39.19,4.5,-4.13,-6.5,0.1460401409670229,0.026700200968622738,-0.7587065664626103,-153.1625065187994,-15.898972996932855,-21.462206102543455,0.0102,-0.9727,-0.1383,-0.1862
96,1537388.0,728.323003,1.0,3.52,0.58,-8.89,-8.69,-20.37,40.06,7.69,-3.25,-13.06,0.1440157144412979,0.2622121597159848,0.2322359574963481,-153.06392657993817,-16.361918539628213,-21.24064723466595,0.0115,-0.9725,-0.1423,-0.1843
97,1537388.0,728.323003,1.0,3.52,0.58,-8.89,-8.69,-20.37,40.06,7.69,-3.25,-13.06,0.1440157144412979,0.2622121597159848,0.2322359574963481,-153.06392657993817,-16.361918539628213,-21.24064723466595,0.0115,-0.9725,-0.1423,-0.1843
98,1537423.0,728.384546,1.0,3.55,0.11,-9.45,-8.69,-20.37,40.06,4.25,0.25,-8.69,-0.15707843905730254,-0.13345168485292666,-0.2866456467049545,-152.81901206638815,-16.69772182857332,-21.22898847391229,0.0131,-0.972,-0.1452,-0.1842
99,1537423.0,728.384546,1.0,3.55,0.11,-9.45,-8.69,-20.37,40.06,4.25,0.25,-8.69,-0.15707843905730254,-0.13345168485292666,-0.2866456467049545,-152.81901206638815,-16.69772182857332,-21.22898847391229,0.0131,-0.972,-0.1452,-0.1842
100,1537456.0,728.3910480000003,1.0,3.39,0.21,-9.44,-9.5,-19.25,40.0,-3.06,-10.0,-3.0,-0.2258469989686589,-0.031140768399826223,-0.22319662821921327,-152.91671705681662,-16.871469682269606,-20.9608980601766,0.0118,-0.9722,-0.1467,-0.1819
101,1537456.0,728.3910480000003,1.0,3.39,0.21,-9.44,-9.5,-19.25,40.0,-3.06,-10.0,-3.0,-0.2258469989686589,-0.031140768399826223,-0.22319662821921327,-152.91671705681662,-16.871469682269606,-20.9608980601766,0.0118,-0.9722,-0.1467,-0.1819
102,1537492.0,728.409986,1.0,3.71,0.22,-9.41,-8.38,-20.0,38.75,12.38,1.0,-9.38,0.07966859867193121,-0.11464770294738255,-0.30972824612121563,-152.7702885732456,-17.161136490218524,-20.914285524438075,0.0123,-0.9719,-0.1492,-0.1815
103,1537492.0,728.409986,1.0,3.71,0.22,-9.41,-8.38,-20.0,38.75,12.38,1.0,-9.38,0.07966859867193121,-0.11464770294738255,-0.30972824612121563,-152.7702885732456,-17.161136490218524,-20.914285524438075,0.0123,-0.9719,-0.1492,-0.1815
104,1537529.0,728.450121,1.0,3.46,-0.19,-9.21,-8.38,-20.0,38.75,12.44,-2.06,-10.06,-0.17589182465790665,-0.4147609342426451,-0.0233467158409919,-152.62462859250311,-17.520477052231193,-20.82107094211026,0.0148,-0.9716,-0.1523,-0.1807
105,1537529.0,728.450121,1.0,3.46,-0.19,-9.21,-8.38,-20.0,38.75,12.44,-2.06,-10.06,-0.17589182465790665,-0.4147609342426451,-0.0233467158409919,-152.62462859250311,-17.520477052231193,-20.82107094211026,0.0148,-0.9716,-0.1523,-0.1807
106,1537562.0,728.502534,1.0,3.46,0.26,-9.38,-8.0,-19.69,39.19,-5.88,-8.25,-2.0,-0.07693773813394045,0.0153596664769505,-0.1942221952186074,-152.62462859250311,-17.706010881893693,-20.681275164117206,0.0146,-0.9716,-0.1539,-0.1795
107,1537562.0,728.502534,1.0,3.46,0.26,-9.38,-8.0,-19.69,39.19,-5.88,-8.25,-2.0,-0.07693773813394045,0.0153596664769505,-0.1942221952186074,-152.62462859250311,-17.706010881893693,-20.681275164117206,0.0146,-0.9716,-0.1539,-0.1795
108,1537599.0,728.5086769999997,1.0,3.57,0.94,-9.07,-9.06,-20.0,38.75,-0.88,-5.06,-9.5,0.3709209875818098,0.5557596013273367,0.03695456531505848,-152.62462859250311,-17.996001378555594,-20.436707276203283,0.0129,-0.9716,-0.1564,-0.1774
109,1537599.0,728.5086769999997,1.0,3.57,0.94,-9.07,-9.06,-20.0,38.75,-0.88,-5.06,-9.5,0.3709209875818098,0.5557596013273367,0.03695456531505848,-152.62462859250311,-17.996001378555594,-20.436707276203283,0.0129,-0.9716,-0.1564,-0.1774
110,1537634.0,728.533105,1.0,3.25,-0.44,-9.12,-8.0,-19.19,40.0,18.56,-0.25,-10.0,-0.3251798797236529,-0.6032810387142848,0.1391368743740138,-152.3835367338065,-18.437010245615284,-20.262073582983945,0.0165,-0.9711,-0.1602,-0.1759
111,1537634.0,728.533105,1.0,3.25,-0.44,-9.12,-8.0,-19.19,40.0,18.56,-0.25,-10.0,-0.3251798797236529,-0.6032810387142848,0.1391368743740138,-152.3835367338065,-18.437010245615284,-20.262073582983945,0.0165,-0.9711,-0.1602,-0.1759
112,1537669.0,728.6026320000003,1.0,3.44,0.07,-9.63,-8.0,-19.19,40.0,-3.38,1.5,-6.13,-0.1826423961118344,-0.1313724559757462,-0.4170862560344553,-152.1444912618588,-18.69245669557365,-20.343563363128432,0.0168,-0.9706,-0.1624,-0.1766
113,1537669.0,728.6026320000003,1.0,3.44,0.07,-9.63,-8.0,-19.19,40.0,-3.38,1.5,-6.13,-0.1826423961118344,-0.1313724559757462,-0.4170862560344553,-152.1444912618588,-18.69245669557365,-20.343563363128432,0.0168,-0.9706,-0.1624,-0.1766
114,1537703.0,728.646429,1.0,3.43,0.32,-9.2,-8.38,-19.56,39.56,0.06,4.81,-3.13,0.015225596328048763,0.05460644543280202,-0.0169993380685014,-152.04943428155016,-18.773754707559725,-20.436707276203283,0.016,-0.9704,-0.1631,-0.1774
115,1537703.0,728.646429,1.0,3.43,0.32,-9.2,-8.38,-19.56,39.56,0.06,4.81,-3.13,0.015225596328048763,0.05460644543280202,-0.0169993380685014,-152.04943428155016,-18.773754707559725,-20.436707276203283,0.016,-0.9704,-0.1631,-0.1774
116,1537740.0,728.666325,1.0,3.45,0.78,-8.71,-8.38,-19.56,40.0,2.13,5.19,-9.0,0.3212900525263118,0.4579586398811569,0.4225119689229899,-151.67233263341282,-19.08742247639564,-20.623036118505983,0.0173,-0.9696,-0.1658,-0.179
117,1537740.0,728.666325,1.0,3.45,0.78,-8.71,-8.38,-19.56,40.0,2.13,5.19,-9.0,0.3212900525263118,0.4579586398811569,0.4225119689229899,-151.67233263341282,-19.08742247639564,-20.623036118505983,0.0173,-0.9696,-0.1658,-0.179
118,1537775.0,728.697814,1.0,3.43,-0.22,-9.31,-8.38,-19.56,40.0,8.94,-2.94,-9.69,-0.21828363446467253,-0.3836714715113855,-0.10771071851701564,-151.43912137388486,-19.470990576087328,-20.57644875978384,0.02,-0.9691,-0.1691,-0.1786
119,1537775.0,728.697814,1.0,3.43,-0.22,-9.31,-8.38,-19.56,40.0,8.94,-2.94,-9.69,-0.21828363446467253,-0.3836714715113855,-0.10771071851701564,-151.43912137388486,-19.470990576087328,-20.57644875978384,0.02,-0.9691,-0.1691,-0.1786
120,1537808.0,728.7183809999997,1.0,3.41,-0.78,-9.73,-7.56,-19.19,38.75,-2.5,1.06,0.94,-0.5694976097982496,-0.8799644604975764,-0.4797845144804818,-151.3927025567389,-19.505871262305693,-20.57644875978384,0.0192,-0.9690000000000001,-0.1694,-0.1786
121,1537808.0,728.7183809999997,1.0,3.41,-0.78,-9.73,-7.56,-19.19,38.75,-2.5,1.06,0.94,-0.5694976097982496,-0.8799644604975764,-0.4797845144804818,-151.3927025567389,-19.505871262305693,-20.57644875978384,0.0192,-0.9690000000000001,-0.1694,-0.1786
122,1537845.0,728.755556,1.0,3.75,-0.12,-9.5,-7.56,-19.19,40.88,11.94,5.56,-1.19,-0.006996975073569001,-0.4018912083644301,-0.3994919987661945,-151.2538864729402,-19.494244164289388,-20.762818905741057,0.0183,-0.9687,-0.1693,-0.1802
123,1537845.0,728.755556,1.0,3.75,-0.12,-9.5,-7.56,-19.19,40.88,11.94,5.56,-1.19,-0.006996975073569001,-0.4018912083644301,-0.3994919987661945,-151.2538864729402,-19.494244164289388,-20.762818905741057,0.0183,-0.9687,-0.1693,-0.1802
124,1537882.0,728.81818,1.0,3.49,-0.11,-9.3,-6.88,-19.19,40.0,-1.19,0.94,0.5,-0.1518372734208484,-0.295123190034112,-0.12169567010558248,-151.2538864729402,-19.517498563105914,-20.727870288694774,0.0201,-0.9687,-0.1695,-0.1799
125,1537882.0,728.81818,1.0,3.49,-0.11,-9.3,-6.88,-19.19,40.0,-1.19,0.94,0.5,-0.1518372734208484,-0.295123190034112,-0.12169567010558248,-151.2538864729402,-19.517498563105914,-20.727870288694774,0.0201,-0.9687,-0.1695,-0.1799
126,1537916.0,728.833123,1.0,3.54,0.0,-9.31,-6.88,-19.19,40.0,-4.13,2.5,5.44,-0.08510232552906549,-0.2027737429959478,-0.15122830832155645,-151.30008546167102,-19.389609385924846,-20.797769475573414,0.02,-0.9688,-0.1684,-0.1805
127,1537916.0,728.833123,1.0,3.54,0.0,-9.31,-6.88,-19.19,40.0,-4.13,2.5,5.44,-0.08510232552906549,-0.2027737429959478,-0.15122830832155645,-151.30008546167102,-19.389609385924846,-20.797769475573414,0.02,-0.9688,-0.1684,-0.1805
128,1537953.0,728.932226,1.0,3.41,-0.1,-8.91,-7.19,-18.75,40.06,0.06,5.38,6.56,-0.1124784071968461,-0.2845022767109207,0.2707909897974705,-151.43912137388486,-19.12228331882828,-20.92593832998922,0.02,-0.9691,-0.1661,-0.1816
129,1537953.0,728.932226,1.0,3.41,-0.1,-8.91,-7.19,-18.75,40.06,0.06,5.38,6.56,-0.1124784071968461,-0.2845022767109207,0.2707909897974705,-151.43912137388486,-19.12228331882828,-20.92593832998922,0.02,-0.9691,-0.1661,-0.1816
130,1537988.0,728.978666,1.0,3.56,-0.01,-9.05,-8.0,-18.5,40.5,-6.75,17.44,11.06,-0.06673454035256587,-0.21587871598825253,0.08424582813452375,-151.30008546167102,-18.820214993044136,-21.34558610673021,0.0198,-0.9688,-0.1635,-0.1852
131,1537988.0,728.978666,1.0,3.56,-0.01,-9.05,-8.0,-18.5,40.5,-6.75,17.44,11.06,-0.06673454035256587,-0.21587871598825253,0.08424582813452375,-151.30008546167102,-18.820214993044136,-21.34558610673021,0.0198,-0.9688,-0.1635,-0.1852
132,1538023.0,729.0696019999997,1.0,3.9,0.35,-9.23,-8.0,-18.5,40.5,-6.0,16.69,8.75,0.15189421290039906,0.052401265963381946,-0.21829799265377048,-151.0239731545222,-18.35575126897081,-22.11569761985897,0.0186,-0.9682,-0.1595,-0.1918
133,1538023.0,729.0696019999997,1.0,3.9,0.35,-9.23,-8.0,-18.5,40.5,-6.0,16.69,8.75,0.15189421290039906,0.052401265963381946,-0.21829799265377048,-151.0239731545222,-18.35575126897081,-22.11569761985897,0.0186,-0.9682,-0.1595,-0.1918
134,1538056.0,729.0940360000003,1.0,3.66,-0.17,-9.32,-9.06,-19.25,40.06,-1.88,3.25,11.25,-0.2835182668866709,-0.33428035791841404,-0.19808757949960126,-151.06981274894218,-18.06561632088332,-22.314222150985408,0.0192,-0.9683,-0.157,-0.1935
135,1538056.0,729.0940360000003,1.0,3.66,-0.17,-9.32,-9.06,-19.25,40.06,-1.88,3.25,11.25,-0.2835182668866709,-0.33428035791841404,-0.19808757949960126,-151.06981274894218,-18.06561632088332,-22.314222150985408,0.0192,-0.9683,-0.157,-0.1935
136,1538093.0,729.125669,1.0,3.72,0.35,-8.63,-9.88,-19.25,39.69,-14.19,12.38,13.19,0.11878006736739645,0.05472293644281527,0.4034220066020247,-151.1157235364922,-17.485694626999518,-22.69978760508081,0.0165,-0.9684,-0.152,-0.1968
137,1538093.0,729.125669,1.0,3.72,0.35,-8.63,-9.88,-19.25,39.69,-14.19,12.38,13.19,0.11878006736739645,0.05472293644281527,0.4034220066020247,-151.1157235364922,-17.485694626999518,-22.69978760508081,0.0165,-0.9684,-0.152,-0.1968
138,1538129.0,729.181893,1.0,3.73,0.01,-9.19,-9.88,-19.25,39.69,-4.63,15.19,16.06,-0.2656360749365192,-0.2058617147200706,-0.10577444763665332,-151.0239731545222,-17.02208275037734,-23.190884791431426,0.0159,-0.9682,-0.14800000000000002,-0.201
139,1538129.0,729.181893,1.0,3.73,0.01,-9.19,-9.88,-19.25,39.69,-4.63,15.19,16.06,-0.2656360749365192,-0.2058617147200706,-0.10577444763665332,-151.0239731545222,-17.02208275037734,-23.190884791431426,0.0159,-0.9682,-0.14800000000000002,-0.201
140,1538162.0,729.188941,1.0,4.28,0.49,-9.6,-9.5,-18.87,39.56,-17.19,11.56,13.81,0.0826467529802648,0.12652115376483644,-0.7145505927019489,-150.97820441576042,-16.327188391573927,-23.81122080455561,0.0133,-0.9681,-0.142,-0.2063
141,1538162.0,729.188941,1.0,4.28,0.49,-9.6,-9.5,-18.87,39.56,-17.19,11.56,13.81,0.0826467529802648,0.12652115376483644,-0.7145505927019489,-150.97820441576042,-16.327188391573927,-23.81122080455561,0.0133,-0.9681,-0.142,-0.2063
142,1538199.0,729.229878,1.0,3.94,0.35,-8.61,-10.56,-18.87,39.19,-5.56,-1.88,13.88,0.1257890355699125,-0.008035169107816806,0.3323525297604366,-151.2538864729402,-15.737004132862339,-23.881491803544503,0.0116,-0.9687,-0.1369,-0.2069
143,1538199.0,729.229878,1.0,3.94,0.35,-8.61,-10.56,-18.87,39.19,-5.56,-1.88,13.88,0.1257890355699125,-0.008035169107816806,0.3323525297604366,-151.2538864729402,-15.737004132862339,-23.881491803544503,0.0116,-0.9687,-0.1369,-0.2069
144,1538236.0,729.236551,1.0,4.19,0.23,-9.52,-11.38,-19.25,39.19,-9.06,15.75,16.0,-0.11876574025692445,-0.10444557195605177,-0.5959643743503218,-151.16170585731885,-15.274409087771584,-24.279867169785643,0.0109,-0.9685,-0.1329,-0.2103
145,1538236.0,729.236551,1.0,4.19,0.23,-9.52,-11.38,-19.25,39.19,-9.06,15.75,16.0,-0.11876574025692445,-0.10444557195605177,-0.5959643743503218,-151.16170585731885,-15.274409087771584,-24.279867169785643,0.0109,-0.9685,-0.1329,-0.2103
146,1538269.0,729.246526,1.0,4.23,0.54,-9.27,-11.38,-19.25,39.19,-11.0,-1.25,12.69,0.06449312773373217,0.1376681587136453,-0.3960108350249261,-151.34635737161238,-14.650301303680088,-24.44399042905254,0.0081,-0.9689,-0.1275,-0.2117
147,1538269.0,729.246526,1.0,4.23,0.54,-9.27,-11.38,-19.25,39.19,-11.0,-1.25,12.69,0.06449312773373217,0.1376681587136453,-0.3960108350249261,-151.34635737161238,-14.650301303680088,-24.44399042905254,0.0081,-0.9689,-0.1275,-0.2117
148,1538306.0,729.249012,1.0,3.86,0.43,-8.59,-12.5,-19.69,37.88,-17.81,8.88,17.37,-0.02925554314530077,0.05957175809002167,0.3796570903371671,-151.57882322936237,-14.118999098561428,-24.54952511022461,0.0062,-0.9694,-0.1229,-0.2126
149,1538306.0,729.249012,1.0,3.86,0.43,-8.59,-12.5,-19.69,37.88,-17.81,8.88,17.37,-0.02925554314530077,0.05957175809002167,0.3796570903371671,-151.57882322936237,-14.118999098561428,-24.54952511022461,0.0062,-0.9694,-0.1229,-0.2126
150,1538342.0,729.287144,1.0,4.1,0.74,-8.89,-12.5,-20.0,38.38,-1.25,16.44,10.13,-0.003242840132548164,0.3234731101229603,-0.005844821961199287,-151.16170585731885,-13.564921674838883,-25.32409900412527,0.0043,-0.9685,-0.1181,-0.2192
151,1538342.0,729.287144,1.0,4.1,0.74,-8.89,-12.5,-20.0,38.38,-1.25,16.44,10.13,-0.003242840132548164,0.3234731101229603,-0.005844821961199287,-151.16170585731885,-13.564921674838883,-25.32409900412527,0.0043,-0.9685,-0.1181,-0.2192
152,1538377.0,729.299199,1.0,4.29,0.29,-9.07,-12.5,-20.0,38.38,-5.06,1.0,11.69,-0.04141561668660199,-0.12017914635700673,-0.23012944957820736,-151.20776005427302,-13.2187858542384,-25.488552629562964,0.0048,-0.9686,-0.1151,-0.2206
153,1538377.0,729.299199,1.0,4.29,0.29,-9.07,-12.5,-20.0,38.38,-5.06,1.0,11.69,-0.04141561668660199,-0.12017914635700673,-0.23012944957820736,-151.20776005427302,-13.2187858542384,-25.488552629562964,0.0048,-0.9686,-0.1151,-0.2206
154,1538412.0,729.345787,1.0,4.32,0.37,-8.69,-12.88,-20.0,38.88,-6.88,9.0,11.5,0.12153695456160565,-0.08914236965946623,0.0962080735680466,-151.20776005427302,-12.734398426775371,-25.735333308776628,0.0026,-0.9686,-0.1109,-0.2227
155,1538412.0,729.345787,1.0,4.32,0.37,-8.69,-12.88,-20.0,38.88,-6.88,9.0,11.5,0.12153695456160565,-0.08914236965946623,0.0962080735680466,-151.20776005427302,-12.734398426775371,-25.735333308776628,0.0026,-0.9686,-0.1109,-0.2227
156,1538447.0,729.360008,1.0,4.21,0.49,-8.66,-12.88,-20.37,38.0,-5.19,5.25,10.5,0.029330251392198026,0.06348822837483792,0.16533738287098745,-151.16170585731885,-12.377021364647927,-25.94695623100749,0.0024,-0.9685,-0.1078,-0.2245
157,1538447.0,729.360008,1.0,4.21,0.49,-8.66,-12.88,-20.37,38.0,-5.19,5.25,10.5,0.029330251392198026,0.06348822837483792,0.16533738287098745,-151.16170585731885,-12.377021364647927,-25.94695623100749,0.0024,-0.9685,-0.1078,-0.2245
158,1538484.0,729.411962,1.0,4.37,0.47,-8.86,-13.56,-19.25,39.19,-10.38,12.13,12.81,0.007445589471562819,0.02866847428806308,-0.08357359109133,-150.97820441576042,-11.89302513102135,-26.35870385587789,0.0014,-0.9681,-0.1036,-0.228
159,1538484.0,729.411962,1.0,4.37,0.47,-8.86,-13.56,-19.25,39.19,-10.38,12.13,12.81,0.007445589471562819,0.02866847428806308,-0.08357359109133,-150.97820441576042,-11.89302513102135,-26.35870385587789,0.0014,-0.9681,-0.1036,-0.228
160,1538516.0,729.4307230000003,1.0,4.59,0.32,-9.15,-13.56,-19.25,39.19,-6.13,0.56,10.13,0.017521187409703654,-0.14825093902332612,-0.4339903445815114,-151.0239731545222,-11.535926836248436,-26.499953978465857,0.0005,-0.9682,-0.1005,-0.2292
161,1538516.0,729.4307230000003,1.0,4.59,0.32,-9.15,-13.56,-19.25,39.19,-6.13,0.56,10.13,0.017521187409703654,-0.14825093902332612,-0.4339903445815114,-151.0239731545222,-11.535926836248436,-26.499953978465857,0.0005,-0.9682,-0.1005,-0.2292
162,1538553.0,729.485189,1.0,4.48,0.25,-8.91,-14.38,-20.75,37.5,-2.0,-0.25,8.0,0.013179921288898557,-0.2092989599790232,-0.16716673357930212,-151.16170585731885,-11.121372822035768,-26.5117266696815,-0.0005,-0.9685,-0.0969,-0.2293
163,1538553.0,729.485189,1.0,4.48,0.25,-8.91,-14.38,-20.75,37.5,-2.0,-0.25,8.0,0.013179921288898557,-0.2092989599790232,-0.16716673357930212,-151.16170585731885,-11.121372822035768,-26.5117266696815,-0.0005,-0.9685,-0.0969,-0.2293
164,1538588.0,729.493713,1.0,4.49,0.34,-8.94,-13.56,-20.0,37.19,-3.63,2.81,11.19,0.019922614013065942,-0.1014489907861397,-0.20277611700188025,-151.2538864729402,-10.833574298853826,-26.558820285317804,-0.0001,-0.9687,-0.0944,-0.2297
165,1538588.0,729.493713,1.0,4.49,0.34,-8.94,-13.56,-20.0,37.19,-3.63,2.81,11.19,0.019922614013065942,-0.1014489907861397,-0.20277611700188025,-151.2538864729402,-10.833574298853826,-26.558820285317804,-0.0001,-0.9687,-0.0944,-0.2297
166,1538623.0,729.535696,1.0,4.6,0.52,-8.91,-13.56,-20.0,37.19,-6.06,-6.69,10.44,0.1710008680564843,0.04029495821166358,-0.23265450875291904,-151.48561418277666,-10.361732200036483,-26.499953978465857,-0.0018,-0.9692,-0.0903,-0.2292
167,1538623.0,729.535696,1.0,4.6,0.52,-8.91,-13.56,-20.0,37.19,-6.06,-6.69,10.44,0.1710008680564843,0.04029495821166358,-0.23265450875291904,-151.48561418277666,-10.361732200036483,-26.499953978465857,-0.0018,-0.9692,-0.0903,-0.2292
168,1538658.0,729.5798530000003,1.0,4.34,0.69,-8.89,-14.69,-20.37,37.06,-7.0,-4.75,8.44,0.002889535481288341,0.2414401920686232,-0.10725429065353433,-151.71920090048613,-10.05110359058591,-26.35870385587789,-0.0029,-0.9697,-0.0876,-0.228
169,1538658.0,729.5798530000003,1.0,4.34,0.69,-8.89,-14.69,-20.37,37.06,-7.0,-4.75,8.44,0.002889535481288341,0.2414401920686232,-0.10725429065353433,-151.71920090048613,-10.05110359058591,-26.35870385587789,-0.0029,-0.9697,-0.0876,-0.228
170,1538695.0,729.604986,1.0,4.18,0.92,-8.56,-14.38,-19.69,39.19,-8.38,-6.44,8.13,0.07350669070437467,0.4501658237597004,0.24713392974097914,-152.00202441389632,-9.706047414595153,-26.158669228245632,-0.0053,-0.9703,-0.0846,-0.2263
171,1538695.0,729.604986,1.0,4.18,0.92,-8.56,-14.38,-19.69,39.19,-8.38,-6.44,8.13,0.07350669070437467,0.4501658237597004,0.24713392974097914,-152.00202441389632,-9.706047414595153,-26.158669228245632,-0.0053,-0.9703,-0.0846,-0.2263
172,1538727.0,729.64115,1.0,4.22,0.73,-8.72,-14.38,-19.69,39.19,0.56,-3.63,4.19,0.02236077293508165,0.2528909010431326,0.09504631224567994,-152.19213918576153,-9.53355259965066,-26.06456338881546,-0.006,-0.9707,-0.0831,-0.2255
173,1538727.0,729.64115,1.0,4.22,0.73,-8.72,-14.38,-19.69,39.19,0.56,-3.63,4.19,0.02236077293508165,0.2528909010431326,0.09504631224567994,-152.19213918576153,-9.53355259965066,-26.06456338881546,-0.006,-0.9707,-0.0831,-0.2255
174,1538762.0,729.697866,1.0,4.19,0.7,-8.68,-14.0,-20.69,37.06,3.5,1.81,1.44,0.011325806815702057,0.23673428069930405,0.1457841689038144,-152.23986727877062,-9.476059158737444,-26.05280141790223,-0.0056,-0.9708,-0.0826,-0.2254
175,1538762.0,729.697866,1.0,4.19,0.7,-8.68,-14.0,-20.69,37.06,3.5,1.81,1.44,0.011325806815702057,0.23673428069930405,0.1457841689038144,-152.23986727877062,-9.476059158737444,-26.05280141790223,-0.0056,-0.9708,-0.0826,-0.2254
176,1538797.0,729.716587,1.0,4.6,-0.12,-9.22,-15.06,-20.25,36.69,4.19,0.25,6.06,0.007664103241897813,-0.5801107634291307,-0.4815088617048087,-152.23986727877062,-9.372576979838527,-26.076325639174165,-0.0036,-0.9708,-0.0817,-0.2256
177,1538797.0,729.716587,1.0,4.6,-0.12,-9.22,-15.06,-20.25,36.69,4.19,0.25,6.06,0.007664103241897813,-0.5801107634291307,-0.4815088617048087,-152.23986727877062,-9.372576979838527,-26.076325639174165,-0.0036,-0.9708,-0.0817,-0.2256
178,1538834.0,729.7694700000003,1.0,4.57,0.28,-8.81,-15.06,-20.0,37.06,-3.88,-1.44,5.44,0.2314460610509768,-0.2028541686182629,-0.11729492664576212,-152.33556563307292,-9.142643881088318,-26.029278313836883,-0.0046,-0.971,-0.0797,-0.2252
179,1538834.0,729.7694700000003,1.0,4.57,0.28,-8.81,-15.06,-20.0,37.06,-3.88,-1.44,5.44,0.2314460610509768,-0.2028541686182629,-0.11729492664576212,-152.33556563307292,-9.142643881088318,-26.029278313836883,-0.0046,-0.971,-0.0797,-0.2252
180,1538869.0,729.775451,1.0,4.38,0.14,-9.17,-15.06,-20.0,37.06,-0.88,-2.94,8.06,-0.10325731235374302,-0.2865818863189207,-0.35209543188672576,-152.47972490837182,-8.935735653853008,-25.970475433904987,-0.0042,-0.9713,-0.0779,-0.2247
181,1538869.0,729.775451,1.0,4.38,0.14,-9.17,-15.06,-20.0,37.06,-0.88,-2.94,8.06,-0.10325731235374302,-0.2865818863189207,-0.35209543188672576,-152.47972490837182,-8.935735653853008,-25.970475433904987,-0.0042,-0.9713,-0.0779,-0.2247
182,1538904.0,729.8280589999997,1.0,4.24,0.54,-8.72,-14.69,-19.69,36.25,-2.88,-1.0,7.94,0.04477035857224676,0.10672663316500494,0.09612967198633626,-152.67309729035,-8.556479215940191,-25.86464777060069,-0.0055,-0.9717,-0.0746,-0.2238
183,1538904.0,729.8280589999997,1.0,4.24,0.54,-8.72,-14.69,-19.69,36.25,-2.88,-1.0,7.94,0.04477035857224676,0.10672663316500494,0.09612967198633626,-152.67309729035,-8.556479215940191,-25.86464777060069,-0.0055,-0.9717,-0.0746,-0.2238
184,1538940.0,729.88736,1.0,4.36,0.51,-8.74,-13.56,-20.37,36.69,0.63,4.19,8.0,0.13361134704195798,0.0799947928870525,0.02743485556981895,-152.72165046658662,-8.349651905481078,-25.89992116016652,-0.0049,-0.9718,-0.0728,-0.2241
185,1538940.0,729.88736,1.0,4.36,0.51,-8.74,-13.56,-20.37,36.69,0.63,4.19,8.0,0.13361134704195798,0.0799947928870525,0.02743485556981895,-152.72165046658662,-8.349651905481078,-25.89992116016652,-0.0049,-0.9718,-0.0728,-0.2241
186,1538973.0,729.90142,1.0,4.39,0.19,-9.08,-13.56,-20.37,36.69,-4.0,-6.25,9.94,-0.03027832615841275,-0.2131473439676679,-0.27840088895066195,-152.81901206638815,-8.039461810968866,-25.89992116016652,-0.0045,-0.972,-0.0701,-0.2241
187,1538973.0,729.90142,1.0,4.39,0.19,-9.08,-13.56,-20.37,36.69,-4.0,-6.25,9.94,-0.03027832615841275,-0.2131473439676679,-0.27840088895066195,-152.81901206638815,-8.039461810968866,-25.89992116016652,-0.0045,-0.972,-0.0701,-0.2241
188,1539008.0,729.949087,1.0,4.22,0.6,-8.73,-15.5,-19.69,37.88,-4.94,-1.0,7.88,0.03263237652421225,0.20500601684885653,0.0938642172774049,-153.01476916887475,-7.671905315233598,-25.852890528278607,-0.0054,-0.9724,-0.0669,-0.2237
189,1539008.0,729.949087,1.0,4.22,0.6,-8.73,-15.5,-19.69,37.88,-4.94,-1.0,7.88,0.03263237652421225,0.20500601684885653,0.0938642172774049,-153.01476916887475,-7.671905315233598,-25.852890528278607,-0.0054,-0.9724,-0.0669,-0.2237
190,1539045.0,729.965754,1.0,4.25,0.53,-8.83,-14.69,-20.37,35.88,0.88,2.5,4.19,0.0015910731282682278,0.15307176783355522,-0.006039055624798451,-153.01476916887475,-7.522608280519941,-25.88816308640127,-0.0047,-0.9724,-0.0656,-0.22399999999999998
191,1539045.0,729.965754,1.0,4.25,0.53,-8.83,-14.69,-20.37,35.88,0.88,2.5,4.19,0.0015910731282682278,0.15307176783355522,-0.006039055624798451,-153.01476916887475,-7.522608280519941,-25.88816308640127,-0.0047,-0.9724,-0.0656,-0.22399999999999998
192,1539080.0,730.003858,1.0,4.32,0.27,-8.91,-14.69,-20.37,35.88,1.12,0.12,4.5,-0.008607054036034345,-0.09813154456524394,-0.0985857931844354,-153.01476916887475,-7.4192563007107175,-25.923438140144054,-0.0042,-0.9724,-0.0647,-0.2243
193,1539080.0,730.003858,1.0,4.32,0.27,-8.91,-14.69,-20.37,35.88,1.12,0.12,4.5,-0.008607054036034345,-0.09813154456524394,-0.0985857931844354,-153.01476916887475,-7.4192563007107175,-25.923438140144054,-0.0042,-0.9724,-0.0647,-0.2243
194,1539112.0,730.016002,1.0,4.38,0.42,-8.85,-15.06,-20.0,37.5,-0.37,3.69,4.06,0.07571177561442433,0.05422602927312471,-0.07639746850800933,-152.965699486827,-7.22405231414402,-26.00575632582789,-0.004,-0.9723,-0.063,-0.225
195,1539112.0,730.016002,1.0,4.38,0.42,-8.85,-15.06,-20.0,37.5,-0.37,3.69,4.06,0.07571177561442433,0.05422602927312471,-0.07639746850800933,-152.965699486827,-7.22405231414402,-26.00575632582789,-0.004,-0.9723,-0.063,-0.225
196,1539147.0,730.0807530000003,1.0,4.35,0.26,-8.82,-14.69,-19.69,37.06,0.81,4.31,2.88,0.017759153765628092,-0.07945428090999794,-0.030822827393352625,-152.81901206638815,-7.143680335170353,-26.158669228245632,-0.0031,-0.972,-0.0623,-0.2263
197,1539147.0,730.0807530000003,1.0,4.35,0.26,-8.82,-14.69,-19.69,37.06,0.81,4.31,2.88,0.017759153765628092,-0.07945428090999794,-0.030822827393352625,-152.81901206638815,-7.143680335170353,-26.158669228245632,-0.0031,-0.972,-0.0623,-0.2263
198,1539184.0,730.1179980000003,1.0,4.48,-0.16,-8.69,-16.19,-19.25,37.06,3.44,4.38,5.38,0.1247674670344372,-0.4903095411064444,0.04160367993219438,-152.7702885732456,-7.028869316139518,-26.26455976697084,-0.0021,-0.9719,-0.0613,-0.2272
199,1539184.0,730.1179980000003,1.0,4.48,-0.16,-8.69,-16.19,-19.25,37.06,3.44,4.38,5.38,0.1247674670344372,-0.4903095411064444,0.04160367993219438,-152.7702885732456,-7.028869316139518,-26.26455976697084,-0.0021,-0.9719,-0.0613,-0.2272
200,1539219.0,730.132842,1.0,4.76,-0.17,-9.43,-16.19,-19.25,37.06,1.94,4.94,7.69,0.02324621255147364,-0.4736672474932141,-0.7473302421766093,-152.67309729035,-6.833706733841952,-26.405782688920823,-0.0005,-0.9717,-0.0596,-0.2284
201,1539219.0,730.132842,1.0,4.76,-0.17,-9.43,-16.19,-19.25,37.06,1.94,4.94,7.69,0.02324621255147364,-0.4736672474932141,-0.7473302421766093,-152.67309729035,-6.833706733841952,-26.405782688920823,-0.0005,-0.9717,-0.0596,-0.2284
202,1539256.0,730.173316,1.0,4.28,0.45,-8.67,-16.19,-18.5,36.25,-6.75,-2.75,9.5,0.012007397590086727,0.1665384218177806,0.12874109484587135,-152.81901206638815,-6.4778727055513645,-26.35870385587789,-0.0018,-0.972,-0.0565,-0.228
203,1539256.0,730.173316,1.0,4.28,0.45,-8.67,-16.19,-18.5,36.25,-6.75,-2.75,9.5,0.012007397590086727,0.1665384218177806,0.12874109484587135,-152.81901206638815,-6.4778727055513645,-26.35870385587789,-0.0018,-0.972,-0.0565,-0.228
204,1539291.0,730.223279,1.0,4.24,0.66,-8.41,-15.5,-18.87,37.19,-3.56,1.88,9.63,0.11055854858892156,0.3742579360969384,0.3732514711238668,-152.91671705681662,-6.145052377433653,-26.370473139201327,-0.0025,-0.9722,-0.0536,-0.2281
205,1539291.0,730.223279,1.0,4.24,0.66,-8.41,-15.5,-18.87,37.19,-3.56,1.88,9.63,0.11055854858892156,0.3742579360969384,0.3732514711238668,-152.91671705681662,-6.145052377433653,-26.370473139201327,-0.0025,-0.9722,-0.0536,-0.2281
206,1539323.0,730.240846,1.0,4.36,0.64,-8.91,-15.5,-18.87,37.19,2.38,-1.06,4.06,-0.025124692089822258,0.3807985057873527,-0.12620765768530262,-152.81901206638815,-5.915551513947968,-26.47640945025204,-0.0015,-0.972,-0.0516,-0.22899999999999998
207,1539323.0,730.240846,1.0,4.36,0.64,-8.91,-15.5,-18.87,37.19,2.38,-1.06,4.06,-0.025124692089822258,0.3807985057873527,-0.12620765768530262,-152.81901206638815,-5.915551513947968,-26.47640945025204,-0.0015,-0.972,-0.0516,-0.22899999999999998
208,1539358.0,730.278695,1.0,4.19,0.75,-8.69,-15.88,-18.5,35.88,-2.13,1.94,0.12,-0.0704787187580802,0.4910393475059398,0.14287159249276016,-152.81901206638815,-5.881128455236522,-26.48818157203767,-0.0022,-0.972,-0.0513,-0.2291
209,1539358.0,730.278695,1.0,4.19,0.75,-8.69,-15.88,-18.5,35.88,-2.13,1.94,0.12,-0.0704787187580802,0.4910393475059398,0.14287159249276016,-152.81901206638815,-5.881128455236522,-26.48818157203767,-0.0022,-0.972,-0.0513,-0.2291
210,1539395.0,730.3310290000003,1.0,4.35,0.44,-8.59,-16.56,-18.87,37.06,3.19,3.44,-2.38,0.06820773469732401,0.16090213328650116,0.16955198200561306,-152.72165046658662,-5.949975106955117,-26.59414349441812,-0.0023,-0.9718,-0.0519,-0.23
211,1539395.0,730.3310290000003,1.0,4.35,0.44,-8.59,-16.56,-18.87,37.06,3.19,3.44,-2.38,0.06820773469732401,0.16090213328650116,0.16955198200561306,-152.72165046658662,-5.949975106955117,-26.59414349441812,-0.0023,-0.9718,-0.0519,-0.23
212,1539430.0,730.384199,1.0,4.55,0.17,-8.8,-16.56,-18.87,37.06,2.88,2.31,-4.19,0.11123857017839177,-0.11410682566594844,-0.1002165890301132,-152.62462859250311,-6.099150260471113,-26.676574330601248,-0.0015,-0.9716,-0.0532,-0.2307
213,1539430.0,730.384199,1.0,4.55,0.17,-8.8,-16.56,-18.87,37.06,2.88,2.31,-4.19,0.11123857017839177,-0.11410682566594844,-0.1002165890301132,-152.62462859250311,-6.099150260471113,-26.676574330601248,-0.0015,-0.9716,-0.0532,-0.2307
214,1539463.0,730.397054,1.0,4.63,0.23,-8.96,-15.88,-18.87,35.88,1.75,4.19,-3.94,0.09391068741934516,-0.05956552710184635,-0.2809182268210435,-152.47972490837182,-6.271288310584378,-26.806136930452627,-0.0012,-0.9713,-0.0547,-0.2318
215,1539463.0,730.397054,1.0,4.63,0.23,-8.96,-15.88,-18.87,35.88,1.75,4.19,-3.94,0.09391068741934516,-0.05956552710184635,-0.2809182268210435,-152.47972490837182,-6.271288310584378,-26.806136930452627,-0.0012,-0.9713,-0.0547,-0.2318
216,1539497.0,730.438395,1.0,4.49,0.32,-8.8,-16.56,-19.25,37.06,-4.63,-7.56,-4.69,0.07203396008799867,0.01802134382375234,-0.07752858700260568,-152.52794284369597,-6.386054856968827,-26.676574330601248,-0.0021,-0.9714,-0.0557,-0.2307
217,1539497.0,730.438395,1.0,4.49,0.32,-8.8,-16.56,-19.25,37.06,-4.63,-7.56,-4.69,0.07203396008799867,0.01802134382375234,-0.07752858700260568,-152.52794284369597,-6.386054856968827,-26.676574330601248,-0.0021,-0.9714,-0.0557,-0.2307
218,1539534.0,730.451963,1.0,4.25,0.4,-8.72,-16.19,-20.0,37.06,5.06,-4.63,-8.56,-0.061929122431036536,0.08657110531527759,0.0984282149603004,-152.67309729035,-6.6729995322127,-26.464637612964076,-0.0033,-0.9717,-0.0582,-0.2289
219,1539534.0,730.451963,1.0,4.25,0.4,-8.72,-16.19,-20.0,37.06,5.06,-4.63,-8.56,-0.061929122431036536,0.08657110531527759,0.0984282149603004,-152.67309729035,-6.6729995322127,-26.464637612964076,-0.0033,-0.9717,-0.0582,-0.2289
220,1539567.0,730.498144,1.0,4.29,0.38,-8.63,-16.19,-20.0,37.06,5.56,3.38,-7.25,0.012953421415117905,0.07444418979458978,0.16197840001903074,-152.62462859250311,-6.937025592767178,-26.464637612964076,-0.002,-0.9716,-0.0605,-0.2289
221,1539567.0,730.498144,1.0,4.29,0.38,-8.63,-16.19,-20.0,37.06,5.56,3.38,-7.25,0.012953421415117905,0.07444418979458978,0.16197840001903074,-152.62462859250311,-6.937025592767178,-26.464637612964076,-0.002,-0.9716,-0.0605,-0.2289
222,1539604.0,730.515555,1.0,4.41,0.83,-9.0,-16.19,-19.69,37.06,0.56,-9.44,-10.19,0.032679073530685006,0.5121051424619962,-0.2369390199279416,-152.67309729035,-7.23553431499132,-26.335166138238048,-0.0015,-0.9717,-0.0631,-0.2278
223,1539604.0,730.515555,1.0,4.41,0.83,-9.0,-16.19,-19.69,37.06,0.56,-9.44,-10.19,0.032679073530685006,0.5121051424619962,-0.2369390199279416,-152.67309729035,-7.23553431499132,-26.335166138238048,-0.0015,-0.9717,-0.0631,-0.2278
224,1539641.0,730.55847,1.0,4.28,0.19,-8.55,-15.88,-20.0,36.69,10.25,-2.44,-8.69,0.06175975528233346,-0.10810633143861087,0.24414516320486435,-152.67309729035,-7.602997386301143,-26.19396354392425,-0.0001,-0.9717,-0.0663,-0.2266
225,1539641.0,730.55847,1.0,4.28,0.19,-8.55,-15.88,-20.0,36.69,10.25,-2.44,-8.69,0.06175975528233346,-0.10810633143861087,0.24414516320486435,-152.67309729035,-7.602997386301143,-26.19396354392425,-0.0001,-0.9717,-0.0663,-0.2266
226,1539674.0,730.615987,1.0,4.39,0.06,-9.26,-15.88,-20.0,36.69,-0.75,-6.31,-8.94,-0.15066750816666108,-0.2327421083473213,-0.4376865042829827,-152.67309729035,-7.959051879828772,-26.076325639174165,0.0005,-0.9717,-0.0694,-0.2256
227,1539674.0,730.615987,1.0,4.39,0.06,-9.26,-15.88,-20.0,36.69,-0.75,-6.31,-8.94,-0.15066750816666108,-0.2327421083473213,-0.4376865042829827,-152.67309729035,-7.959051879828772,-26.076325639174165,0.0005,-0.9717,-0.0694,-0.2256
228,1539708.0,730.640024,1.0,4.3,0.51,-8.87,-14.69,-19.25,36.25,6.19,-2.0,-11.56,0.03050481063912347,0.20116240053335752,-0.06176441900063345,-152.72165046658662,-8.395611151395807,-25.9116795113663,0.0009,-0.9718,-0.0732,-0.2242
229,1539708.0,730.640024,1.0,4.3,0.51,-8.87,-14.69,-19.25,36.25,6.19,-2.0,-11.56,0.03050481063912347,0.20116240053335752,-0.06176441900063345,-152.72165046658662,-8.395611151395807,-25.9116795113663,0.0009,-0.9718,-0.0732,-0.2242
230,1539745.0,730.671785,1.0,4.22,0.1,-9.0,-15.06,-20.37,38.38,14.25,-17.06,-14.63,-0.09026207844038092,-0.1633975429718734,-0.132341598756204,-152.91671705681662,-8.901253805563371,-25.535549170145078,0.0034,-0.9722,-0.0776,-0.221
231,1539745.0,730.671785,1.0,4.22,0.1,-9.0,-15.06,-20.37,38.38,14.25,-17.06,-14.63,-0.09026207844038092,-0.1633975429718734,-0.132341598756204,-152.91671705681662,-8.901253805563371,-25.535549170145078,0.0034,-0.9722,-0.0776,-0.221
232,1539780.0,730.719337,1.0,4.2,0.3,-8.95,-15.06,-20.37,38.38,2.38,-12.38,-13.81,0.015691619509750062,0.018879824432374525,-0.08435082526063553,-153.1625065187994,-9.3380846266553,-25.112736460930662,0.0037,-0.9727,-0.0814,-0.2174
233,1539780.0,730.719337,1.0,4.2,0.3,-8.95,-15.06,-20.37,38.38,2.38,-12.38,-13.81,0.015691619509750062,0.018879824432374525,-0.08435082526063553,-153.1625065187994,-9.3380846266553,-25.112736460930662,0.0037,-0.9727,-0.0814,-0.2174
234,1539815.0,730.724026,1.0,4.11,0.34,-8.82,-14.75,-19.0,38.38,16.62,-8.63,-17.12,0.07975456130838854,0.07764836989555962,0.07075199618940786,-153.3110465719337,-10.039600263356236,-24.63162225772855,0.006,-0.973,-0.0875,-0.2133
235,1539815.0,730.724026,1.0,4.11,0.34,-8.82,-14.75,-19.0,38.38,16.62,-8.63,-17.12,0.07975456130838854,0.07764836989555962,0.07075199618940786,-153.3110465719337,-10.039600263356236,-24.63162225772855,0.006,-0.973,-0.0875,-0.2133
236,1539850.0,730.781825,1.0,4.29,-0.07,-9.45,-12.88,-19.37,37.88,13.0,-8.81,-14.63,-0.017991640682303082,-0.2869139638818802,-0.5677828364588251,-153.41052586239525,-10.72998370230972,-24.221263990434842,0.0095,-0.9732,-0.0935,-0.2098
237,1539850.0,730.781825,1.0,4.29,-0.07,-9.45,-12.88,-19.37,37.88,13.0,-8.81,-14.63,-0.017991640682303082,-0.2869139638818802,-0.5677828364588251,-153.41052586239525,-10.72998370230972,-24.221263990434842,0.0095,-0.9732,-0.0935,-0.2098
238,1539887.0,730.796142,1.0,4.11,-0.01,-8.77,-13.25,-19.75,37.88,-0.25,-23.12,-11.0,0.21873416757605896,-0.2683726812193856,0.1275368449681853,-153.8627830260387,-11.075320376717384,-23.5419325351228,0.009000000000000001,-0.9741,-0.0965,-0.204
239,1539887.0,730.796142,1.0,4.11,-0.01,-8.77,-13.25,-19.75,37.88,-0.25,-23.12,-11.0,0.21873416757605896,-0.2683726812193856,0.1275368449681853,-153.8627830260387,-11.075320376717384,-23.5419325351228,0.009000000000000001,-0.9741,-0.0965,-0.204
240,1539921.0,730.849778,1.0,3.85,0.27,-8.69,-13.25,-19.75,37.88,4.5,-15.0,-10.75,0.1731161302812121,0.022214391743805004,0.2997558001976319,-154.27134430279997,-11.512892133606984,-22.91020555294516,0.0089,-0.9749,-0.1003,-0.1986
241,1539921.0,730.849778,1.0,3.85,0.27,-8.69,-13.25,-19.75,37.88,4.5,-15.0,-10.75,0.1731161302812121,0.022214391743805004,0.2997558001976319,-154.27134430279997,-11.512892133606984,-22.91020555294516,0.0089,-0.9749,-0.1003,-0.1986
242,1539958.0,730.869645,1.0,4.25,-0.52,-10.17,-12.56,-19.0,38.88,10.56,-13.63,-6.44,-0.1239659228530825,-0.7103572208730927,-1.204336562008173,-154.42620867150097,-11.823900394126868,-22.53618284114898,0.0113,-0.9752,-0.10300000000000001,-0.1954
243,1539958.0,730.869645,1.0,4.25,-0.52,-10.17,-12.56,-19.0,38.88,10.56,-13.63,-6.44,-0.1239659228530825,-0.7103572208730927,-1.204336562008173,-154.42620867150097,-11.823900394126868,-22.53618284114898,0.0113,-0.9752,-0.10300000000000001,-0.1954
244,1539995.0,730.908708,1.0,3.87,-0.36,-9.71,-11.75,-18.56,39.56,-9.88,-41.56,-1.0,-0.024302413026631383,-0.5853018588694516,-0.6359278008461633,-155.591382770185,-11.927589126675839,-21.20567161915569,0.0089,-0.9774,-0.1039,-0.184
245,1539995.0,730.908708,1.0,3.87,-0.36,-9.71,-11.75,-18.56,39.56,-9.88,-41.56,-1.0,-0.024302413026631383,-0.5853018588694516,-0.6359278008461633,-155.591382770185,-11.927589126675839,-21.20567161915569,0.0089,-0.9774,-0.1039,-0.184
246,1540028.0,730.957964,1.0,3.26,0.43,-8.23,-11.75,-18.56,39.56,-0.94,-7.69,-4.13,0.19305824395080484,0.16628526285677692,0.9477292008394559,-156.02889725740351,-11.985198208002224,-20.646331089662237,0.006,-0.9782,-0.1044,-0.1792
247,1540028.0,730.957964,1.0,3.26,0.43,-8.23,-11.75,-18.56,39.56,-0.94,-7.69,-4.13,0.19305824395080484,0.16628526285677692,0.9477292008394559,-156.02889725740351,-11.985198208002224,-20.646331089662237,0.006,-0.9782,-0.1044,-0.1792
248,1540063.0,731.0151559999997,1.0,3.58,-0.13,-9.93,-10.25,-19.0,38.38,6.25,-11.94,-0.44,-0.14896542332262694,-0.34148634777281883,-0.7432029078342683,-156.36226771891504,-12.06585603312212,-20.25043303206116,0.0075,-0.9788,-0.1051,-0.1758
249,1540063.0,731.0151559999997,1.0,3.58,-0.13,-9.93,-10.25,-19.0,38.38,6.25,-11.94,-0.44,-0.14896542332262694,-0.34148634777281883,-0.7432029078342683,-156.36226771891504,-12.06585603312212,-20.25043303206116,0.0075,-0.9788,-0.1051,-0.1758
250,1540098.0,731.021554,1.0,3.37,0.71,-8.75,-10.56,-19.75,40.06,-8.31,-31.31,-3.88,0.3645655712779068,0.3960939704179044,0.4186948706420939,-157.04331809093284,-12.077379068441179,-19.43611171140661,0.0047,-0.98,-0.1052,-0.1688
251,1540098.0,731.021554,1.0,3.37,0.71,-8.75,-10.56,-19.75,40.06,-8.31,-31.31,-3.88,0.3645655712779068,0.3960939704179044,0.4186948706420939,-157.04331809093284,-12.077379068441179,-19.43611171140661,0.0047,-0.98,-0.1052,-0.1688
252,1540134.0,731.078809,1.0,2.84,-0.34,-8.94,-9.19,-19.0,39.56,12.81,3.81,-2.0,-0.34076453796048645,-0.4782424247442269,0.4386211938506861,-157.21671751944734,-12.365495103087909,-19.05256341690962,0.0073,-0.9803,-0.1077,-0.1655
253,1540134.0,731.078809,1.0,2.84,-0.34,-8.94,-9.19,-19.0,39.56,12.81,3.81,-2.0,-0.34076453796048645,-0.4782424247442269,0.4386211938506861,-157.21671751944734,-12.365495103087909,-19.05256341690962,0.0073,-0.9803,-0.1077,-0.1655
254,1540169.0,731.095644,1.0,3.23,0.31,-9.06,-9.19,-19.0,39.56,-5.38,8.88,-2.0,0.08524096405481885,0.07911065057301311,0.18380865853473694,-157.04331809093284,-12.365495103087909,-19.250121718432275,0.006999999999999999,-0.98,-0.1077,-0.1672
255,1540169.0,731.095644,1.0,3.23,0.31,-9.06,-9.19,-19.0,39.56,-5.38,8.88,-2.0,0.08524096405481885,0.07911065057301311,0.18380865853473694,-157.04331809093284,-12.365495103087909,-19.250121718432275,0.006999999999999999,-0.98,-0.1077,-0.1672
256,1540206.0,731.137531,1.0,3.34,0.21,-9.3,-10.0,-19.37,39.19,3.38,13.19,-0.88,0.01940938600816944,-0.0017903904604980316,-0.0771407743050112,-156.70033876277134,-12.400074265032766,-19.6570420373131,0.0081,-0.9794,-0.10800000000000001,-0.1707
257,1540206.0,731.137531,1.0,3.34,0.21,-9.3,-10.0,-19.37,39.19,3.38,13.19,-0.88,0.01940938600816944,-0.0017903904604980316,-0.0771407743050112,-156.70033876277134,-12.400074265032766,-19.6570420373131,0.0081,-0.9794,-0.10800000000000001,-0.1707
258,1540241.0,731.19736,1.0,3.63,0.06,-9.87,-9.19,-19.37,39.56,2.69,12.19,-3.75,-0.006629778975283829,-0.149112818005372,-0.7088205749926946,-156.25063177900063,-12.492290914481535,-20.05257586733213,0.0093,-0.9786,-0.1088,-0.1741
259,1540241.0,731.19736,1.0,3.63,0.06,-9.87,-9.19,-19.37,39.56,2.69,12.19,-3.75,-0.006629778975283829,-0.149112818005372,-0.7088205749926946,-156.25063177900063,-12.492290914481535,-20.05257586733213,0.0093,-0.9786,-0.1088,-0.1741
260,1540274.0,731.214889,1.0,3.36,-0.14,-9.55,-9.19,-19.37,39.56,-5.81,-4.38,2.25,-0.1719892622403414,-0.30683603443720164,-0.3120441519963393,-156.36226771891504,-12.469235993000286,-19.95948754584176,0.0093,-0.9788,-0.1086,-0.1733
261,1540274.0,731.214889,1.0,3.36,-0.14,-9.55,-9.19,-19.37,39.56,-5.81,-4.38,2.25,-0.1719892622403414,-0.30683603443720164,-0.3120441519963393,-156.36226771891504,-12.469235993000286,-19.95948754584176,0.0093,-0.9788,-0.1086,-0.1733
262,1540308.0,731.261404,1.0,3.47,0.53,-9.04,-10.0,-18.56,40.06,-6.19,7.13,-2.56,0.2184140769481369,0.26844166331021435,0.11522934230537453,-156.25063177900063,-12.457708722341447,-20.09912503821932,0.0077,-0.9786,-0.1085,-0.1745
263,1540308.0,731.261404,1.0,3.47,0.53,-9.04,-10.0,-18.56,40.06,-6.19,7.13,-2.56,0.2184140769481369,0.26844166331021435,0.11522934230537453,-156.25063177900063,-12.457708722341447,-20.09912503821932,0.0077,-0.9786,-0.1085,-0.1745
264,1540345.0,731.280359,1.0,3.4,0.0,-9.38,-10.0,-19.37,38.75,3.06,3.38,0.5,-0.09877765466655042,-0.16702389130324413,-0.16865681205708505,-156.0841409493743,-12.549930441445206,-20.262073582983945,0.0102,-0.9783,-0.1093,-0.1759
265,1540345.0,731.280359,1.0,3.4,0.0,-9.38,-10.0,-19.37,38.75,3.06,3.38,0.5,-0.09877765466655042,-0.16702389130324413,-0.16865681205708505,-156.0841409493743,-12.549930441445206,-20.262073582983945,0.0102,-0.9783,-0.1093,-0.1759
266,1540380.0,731.291253,1.0,3.39,0.2,-9.14,-10.0,-19.37,38.75,-1.37,3.81,-0.81,-0.007659465797932086,0.003578959127493564,0.05618188182048023,-155.97377873337675,-12.549930441445206,-20.401776712875193,0.0094,-0.9781,-0.1093,-0.1771
267,1540380.0,731.291253,1.0,3.39,0.2,-9.14,-10.0,-19.37,38.75,-1.37,3.81,-0.81,-0.007659465797932086,0.003578959127493564,0.05618188182048023,-155.97377873337675,-12.549930441445206,-20.401776712875193,0.0094,-0.9781,-0.1093,-0.1771
268,1540415.0,731.328229,1.0,3.58,-0.06,-9.5,-9.56,-19.0,39.19,2.19,6.0,2.25,-0.05541313186554353,-0.2442899043409994,-0.34259883069943703,-155.75453926974473,-12.526874248925028,-20.646331089662237,0.0104,-0.9777,-0.1091,-0.1792
269,1540415.0,731.328229,1.0,3.58,-0.06,-9.5,-9.56,-19.0,39.19,2.19,6.0,2.25,-0.05541313186554353,-0.2442899043409994,-0.34259883069943703,-155.75453926974473,-12.526874248925028,-20.646331089662237,0.0104,-0.9777,-0.1091,-0.1792
270,1540450.0,731.391424,1.0,3.57,0.19,-9.34,-10.69,-19.37,38.75,0.69,-3.69,-2.56,0.05487831487204642,-0.012595629780123907,-0.1940214634902037,-155.75453926974473,-12.58451568698019,-20.588095276846204,0.0103,-0.9777,-0.1096,-0.1787
271,1540450.0,731.391424,1.0,3.57,0.19,-9.34,-10.69,-19.37,38.75,0.69,-3.69,-2.56,0.05487831487204642,-0.012595629780123907,-0.1940214634902037,-155.75453926974473,-12.58451568698019,-20.588095276846204,0.0103,-0.9777,-0.1096,-0.1787
272,1540487.0,731.404177,1.0,3.19,-0.04,-9.02,-9.56,-19.0,38.75,-5.56,2.19,1.75,-0.22312540569885764,-0.17938604757758406,0.24337986373038945,-155.80916562137492,-12.538402281482075,-20.54151049721856,0.0101,-0.9778,-0.1092,-0.1783
273,1540487.0,731.404177,1.0,3.19,-0.04,-9.02,-9.56,-19.0,38.75,-5.56,2.19,1.75,-0.22312540569885764,-0.17938604757758406,0.24337986373038945,-155.80916562137492,-12.538402281482075,-20.54151049721856,0.0101,-0.9778,-0.1092,-0.1783
274,1540519.0,731.4452259999997,1.0,3.65,0.19,-9.4,-9.56,-19.0,38.75,1.06,5.44,0.5,0.0757690219022078,-0.030105909330969783,-0.2785843894201747,-155.6456486519571,-12.515346343653171,-20.762818905741057,0.0098,-0.9775,-0.109,-0.1802
275,1540519.0,731.4452259999997,1.0,3.65,0.19,-9.4,-9.56,-19.0,38.75,1.06,5.44,0.5,0.0757690219022078,-0.030105909330969783,-0.2785843894201747,-155.6456486519571,-12.515346343653171,-20.762818905741057,0.0098,-0.9775,-0.109,-0.1802
276,1540556.0,731.499341,1.0,3.5,-0.09,-9.47,-10.0,-19.37,39.56,9.31,-1.0,-1.94,-0.1377138993029403,-0.243188222922839,-0.2859658338743092,-155.6456486519571,-12.596044357776794,-20.727870288694774,0.0112,-0.9775,-0.1097,-0.1799
277,1540556.0,731.499341,1.0,3.5,-0.09,-9.47,-10.0,-19.37,39.56,9.31,-1.0,-1.94,-0.1377138993029403,-0.243188222922839,-0.2859658338743092,-155.6456486519571,-12.596044357776794,-20.727870288694774,0.0112,-0.9775,-0.1097,-0.1799
278,1540593.0,731.5109679999997,1.0,3.41,0.01,-9.28,-10.69,-19.37,39.19,-6.56,2.94,0.88,-0.14673330751814762,-0.1493763417735617,-0.07782044838433144,-155.591382770185,-12.561458728935325,-20.809420100088573,0.0105,-0.9774,-0.1094,-0.1806
279,1540593.0,731.5109679999997,1.0,3.41,0.01,-9.28,-10.69,-19.37,39.19,-6.56,2.94,0.88,-0.14673330751814762,-0.1493763417735617,-0.07782044838433144,-155.591382770185,-12.561458728935325,-20.809420100088573,0.0105,-0.9774,-0.1094,-0.1806
280,1540626.0,731.577851,1.0,3.56,0.29,-9.19,-10.69,-19.37,39.19,1.19,1.31,-0.81,0.07594522574642504,0.0657719200082714,-0.052544002413421616,-155.591382770185,-12.515346343653171,-20.832722001771078,0.0093,-0.9774,-0.109,-0.1808
281,1540626.0,731.577851,1.0,3.56,0.29,-9.19,-10.69,-19.37,39.19,1.19,1.31,-0.81,0.07594522574642504,0.0657719200082714,-0.052544002413421616,-155.591382770185,-12.515346343653171,-20.832722001771078,0.0093,-0.9774,-0.109,-0.1808
282,1540661.0,731.591703,1.0,3.51,0.08,-9.22,-10.25,-19.37,38.75,4.94,0.94,-1.63,-0.02436141533968028,-0.09448790366854944,-0.05871256594267036,-155.5372354443148,-12.596044357776794,-20.84437327920369,0.0111,-0.9773,-0.1097,-0.1809
283,1540661.0,731.591703,1.0,3.51,0.08,-9.22,-10.25,-19.37,38.75,4.94,0.94,-1.63,-0.02436141533968028,-0.09448790366854944,-0.05871256594267036,-155.5372354443148,-12.596044357776794,-20.84437327920369,0.0111,-0.9773,-0.1097,-0.1809
284,1540698.0,731.606299,1.0,3.44,-0.09,-9.28,-10.0,-18.56,39.19,0.94,6.06,-0.06,-0.1689655025397554,-0.226697574898858,-0.08679019380955566,-155.4292933262199,-12.630631138714767,-20.984205642908503,0.0118,-0.9771,-0.11,-0.1821
285,1540698.0,731.606299,1.0,3.44,-0.09,-9.28,-10.0,-18.56,39.19,0.94,6.06,-0.06,-0.1689655025397554,-0.226697574898858,-0.08679019380955566,-155.4292933262199,-12.630631138714767,-20.984205642908503,0.0118,-0.9771,-0.11,-0.1821
286,1540730.0,731.6494389999997,1.0,3.66,0.02,-9.31,-10.0,-18.56,39.19,-3.31,7.25,2.19,0.016666952534903245,-0.1604416117325203,-0.1956537697281497,-155.32181611488016,-12.561458728935325,-21.147383365420364,0.0117,-0.9769,-0.1094,-0.1835
287,1540730.0,731.6494389999997,1.0,3.66,0.02,-9.31,-10.0,-18.56,39.19,-3.31,7.25,2.19,0.016666952534903245,-0.1604416117325203,-0.1956537697281497,-155.32181611488016,-12.561458728935325,-21.147383365420364,0.0117,-0.9769,-0.1094,-0.1835
288,1540765.0,731.697083,1.0,3.77,0.48,-9.28,-11.06,-20.06,38.75,5.0,2.75,-1.0,0.1923818640007251,0.2634812844744543,-0.21608749187991627,-155.16145880106285,-12.50381856554563,-21.34558610673021,0.0114,-0.9766,-0.1089,-0.1852
289,1540765.0,731.697083,1.0,3.77,0.48,-9.28,-11.06,-20.06,38.75,5.0,2.75,-1.0,0.1923818640007251,0.2634812844744543,-0.21608749187991627,-155.16145880106285,-12.50381856554563,-21.34558610673021,0.0114,-0.9766,-0.1089,-0.1852
290,1540800.0,731.7159429999997,1.0,3.64,0.38,-8.91,-10.25,-19.37,40.0,-1.44,2.0,-1.63,0.1830565276349793,0.1818028675894945,0.1777592006905344,-155.10823234547746,-12.549930441445206,-21.368908312577144,0.0121,-0.9765,-0.1093,-0.1854
291,1540800.0,731.7159429999997,1.0,3.64,0.38,-8.91,-10.25,-19.37,40.0,-1.44,2.0,-1.63,0.1830565276349793,0.1818028675894945,0.1777592006905344,-155.10823234547746,-12.549930441445206,-21.368908312577144,0.0121,-0.9765,-0.1093,-0.1854
292,1540835.0,731.7546679999997,1.0,3.59,-0.09,-9.41,-10.0,-18.56,39.19,5.44,-3.13,0.88,-0.14149326306217236,-0.20120268984124606,-0.26230213684664605,-155.05511767406654,-12.630631138714767,-21.368908312577144,0.0139,-0.9764,-0.11,-0.1854
293,1540835.0,731.7546679999997,1.0,3.59,-0.09,-9.41,-10.0,-18.56,39.19,5.44,-3.13,0.88,-0.14149326306217236,-0.20120268984124606,-0.26230213684664605,-155.05511767406654,-12.630631138714767,-21.368908312577144,0.0139,-0.9764,-0.11,-0.1854
294,1540870.0,731.8156700000003,1.0,3.53,-0.03,-9.18,-10.0,-18.56,39.19,-6.75,-0.81,0.94,-0.09169347430684227,-0.16471598351764125,-0.026897729662135102,-155.16145880106285,-12.58451568698019,-21.31060447484913,0.0129,-0.9766,-0.1096,-0.1849
295,1540870.0,731.8156700000003,1.0,3.53,-0.03,-9.18,-10.0,-18.56,39.19,-6.75,-0.81,0.94,-0.09169347430684227,-0.16471598351764125,-0.026897729662135102,-155.16145880106285,-12.58451568698019,-21.31060447484913,0.0129,-0.9766,-0.1096,-0.1849
296,1540907.0,731.829722,1.0,3.66,-0.02,-9.48,-10.69,-19.75,39.19,9.5,3.56,-0.75,-0.09616343581678732,-0.1658594971639958,-0.3535489754537977,-155.05511767406654,-12.561458728935325,-21.403893300909647,0.0126,-0.9764,-0.1094,-0.1857
297,1540907.0,731.829722,1.0,3.66,-0.02,-9.48,-10.69,-19.75,39.19,9.5,3.56,-0.75,-0.09616343581678732,-0.1658594971639958,-0.3535489754537977,-155.05511767406654,-12.561458728935325,-21.403893300909647,0.0126,-0.9764,-0.1094,-0.1857
298,1540941.0,731.888546,1.0,3.77,0.41,-9.05,-10.69,-18.56,39.69,-5.19,4.06,-0.88,0.2480576447587081,0.2166582206961454,-0.00023669355782551801,-155.05511767406654,-12.561458728935325,-21.43888030792546,0.0133,-0.9764,-0.1094,-0.18600000000000005
299,1540941.0,731.888546,1.0,3.77,0.41,-9.05,-10.69,-18.56,39.69,-5.19,4.06,-0.88,0.2480576447587081,0.2166582206961454,-0.00023669355782551801,-155.05511767406654,-12.561458728935325,-21.43888030792546,0.0133,-0.9764,-0.1094,-0.18600000000000005
300,1540976.0,731.8971,1.0,3.59,-0.11,-9.39,-10.69,-18.56,39.69,4.69,-2.81,1.75,-0.15154790273373564,-0.2096211441714094,-0.2434938899695993,-155.0021140741398,-12.596044357776794,-21.450543092817842,0.0144,-0.9763,-0.1097,-0.1861
301,1540976.0,731.8971,1.0,3.59,-0.11,-9.39,-10.69,-18.56,39.69,4.69,-2.81,1.75,-0.15154790273373564,-0.2096211441714094,-0.2434938899695993,-155.0021140741398,-12.596044357776794,-21.450543092817842,0.0144,-0.9763,-0.1097,-0.1861
302,1541011.0,731.940937,1.0,3.63,0.07,-9.32,-11.5,-20.06,38.75,-5.13,4.69,0.19,-0.06447574043779647,-0.062374465678575415,-0.19515745190219747,-154.9492208405226,-12.561458728935325,-21.52052452835445,0.0135,-0.9762,-0.1094,-0.1867
303,1541011.0,731.940937,1.0,3.63,0.07,-9.32,-11.5,-20.06,38.75,-5.13,4.69,0.19,-0.06447574043779647,-0.062374465678575415,-0.19515745190219747,-154.9492208405226,-12.561458728935325,-21.52052452835445,0.0135,-0.9762,-0.1094,-0.1867
304,1541048.0,731.979954,1.0,3.78,-0.1,-9.56,-10.69,-19.0,39.19,4.19,3.25,1.88,-0.07207941816366703,-0.23030258610738066,-0.4711788211231358,-154.84376268843482,-12.538402281482075,-21.63717831946884,0.013999999999999999,-0.976,-0.1092,-0.1877
305,1541048.0,731.979954,1.0,3.78,-0.1,-9.56,-10.69,-19.0,39.19,4.19,3.25,1.88,-0.07207941816366703,-0.23030258610738066,-0.4711788211231358,-154.84376268843482,-12.538402281482075,-21.63717831946884,0.013999999999999999,-0.976,-0.1092,-0.1877
306,1541081.0,732.040198,1.0,3.68,0.21,-9.08,-10.69,-19.0,39.19,-2.88,0.81,-0.81,0.07859825365007134,0.049842099916536466,0.007454212610145561,-154.89643727544532,-12.50381856554563,-21.63717831946884,0.0134,-0.9761,-0.1089,-0.1877
307,1541081.0,732.040198,1.0,3.68,0.21,-9.08,-10.69,-19.0,39.19,-2.88,0.81,-0.81,0.07859825365007134,0.049842099916536466,0.007454212610145561,-154.89643727544532,-12.50381856554563,-21.63717831946884,0.0134,-0.9761,-0.1089,-0.1877
308,1541115.0,732.042793,1.0,3.66,0.0,-9.32,-11.5,-19.37,38.38,1.81,2.5,1.12,-0.08756712950501955,-0.1213168425834152,-0.20512377998203848,-154.79119639620873,-12.50381856554563,-21.7305176882842,0.013999999999999999,-0.9759,-0.1089,-0.1885
309,1541115.0,732.042793,1.0,3.66,0.0,-9.32,-11.5,-19.37,38.38,1.81,2.5,1.12,-0.08756712950501955,-0.1213168425834152,-0.20512377998203848,-154.79119639620873,-12.50381856554563,-21.7305176882842,0.013999999999999999,-0.9759,-0.1089,-0.1885
310,1541150.0,732.087944,1.0,3.73,0.1,-9.25,-11.06,-19.0,38.38,0.06,4.19,-1.12,0.005011272055339243,-0.042987436927214434,-0.16749291893888876,-154.73873772257048,-12.50381856554563,-21.83554192755703,0.0139,-0.9758,-0.1089,-0.1894
311,1541150.0,732.087944,1.0,3.73,0.1,-9.25,-11.06,-19.0,38.38,0.06,4.19,-1.12,0.005011272055339243,-0.042987436927214434,-0.16749291893888876,-154.73873772257048,-12.50381856554563,-21.83554192755703,0.0139,-0.9758,-0.1089,-0.1894
312,1541185.0,732.1091190000003,1.0,3.68,-0.05,-9.18,-10.69,-18.56,38.38,3.25,2.75,0.94,-0.061533716850957536,-0.16463120276078302,-0.08205113658857144,-154.63414056108863,-12.50381856554563,-21.928912393640328,0.0148,-0.9756,-0.1089,-0.1902
313,1541185.0,732.1091190000003,1.0,3.68,-0.05,-9.18,-10.69,-18.56,38.38,3.25,2.75,0.94,-0.061533716850957536,-0.16463120276078302,-0.08205113658857144,-154.63414056108863,-12.50381856554563,-21.928912393640328,0.0148,-0.9756,-0.1089,-0.1902
314,1541220.0,732.151603,1.0,3.92,0.11,-9.49,-10.69,-18.56,38.38,1.56,5.69,-0.19,0.04637773307578018,-0.03912883268415522,-0.4615006631100584,-154.47803544959174,-12.50381856554563,-22.09234622296079,0.0145,-0.9753,-0.1089,-0.1916
315,1541220.0,732.151603,1.0,3.92,0.11,-9.49,-10.69,-18.56,38.38,1.56,5.69,-0.19,0.04637773307578018,-0.03912883268415522,-0.4615006631100584,-154.47803544959174,-12.50381856554563,-22.09234622296079,0.0145,-0.9753,-0.1089,-0.1916
316,1541257.0,732.207585,1.0,3.68,-0.09,-9.14,-11.06,-18.56,39.56,-2.0,-0.81,0.75,-0.07228488925343557,-0.1925770312543421,-0.044633621022128984,-154.52996593229264,-12.492290914481535,-22.033971792326973,0.0154,-0.9754,-0.1088,-0.1911
317,1541257.0,732.207585,1.0,3.68,-0.09,-9.14,-11.06,-18.56,39.56,-2.0,-0.81,0.75,-0.07228488925343557,-0.1925770312543421,-0.044633621022128984,-154.52996593229264,-12.492290914481535,-22.033971792326973,0.0154,-0.9754,-0.1088,-0.1911
318,1541292.0,732.2203049999997,1.0,3.7,0.19,-9.08,-12.19,-18.56,39.19,-1.06,-0.19,0.69,0.019736458817779527,0.06240582839399969,0.000110549981160446,-154.47803544959174,-12.469235993000286,-22.080670872919914,0.0148,-0.9753,-0.1086,-0.1915
319,1541292.0,732.2203049999997,1.0,3.7,0.19,-9.08,-12.19,-18.56,39.19,-1.06,-0.19,0.69,0.019736458817779527,0.06240582839399969,0.000110549981160446,-154.47803544959174,-12.469235993000286,-22.080670872919914,0.0148,-0.9753,-0.1086,-0.1915
320,1541328.0,732.259222,1.0,3.8,0.05,-9.13,-12.19,-18.56,39.19,0.44,3.69,1.12,0.04380042299728859,-0.08511990064698552,-0.08224458561770476,-154.42620867150097,-12.457708722341447,-22.185757394813148,0.015,-0.9752,-0.1085,-0.1924
321,1541328.0,732.259222,1.0,3.8,0.05,-9.13,-12.19,-18.56,39.19,0.44,3.69,1.12,0.04380042299728859,-0.08511990064698552,-0.08224458561770476,-154.42620867150097,-12.457708722341447,-22.185757394813148,0.015,-0.9752,-0.1085,-0.1924
322,1541361.0,732.315388,1.0,3.96,0.06,-9.51,-11.5,-18.56,38.0,0.06,2.06,0.56,0.03821589837419982,-0.08336936174668189,-0.4946552131578628,-154.37448496866145,-12.434654560583265,-22.244146955349766,0.0148,-0.9751,-0.1083,-0.1929
323,1541361.0,732.315388,1.0,3.96,0.06,-9.51,-11.5,-18.56,38.0,0.06,2.06,0.56,0.03821589837419982,-0.08336936174668189,-0.4946552131578628,-154.37448496866145,-12.434654560583265,-22.244146955349766,0.0148,-0.9751,-0.1083,-0.1929
324,1541398.0,732.331307,1.0,3.68,-0.14,-9.14,-11.5,-19.37,39.19,1.25,0.44,0.44,-0.11238306374461504,-0.23630701951257,-0.04388953037662091,-154.42620867150097,-12.434654560583265,-22.2091125181558,0.0154,-0.9752,-0.1083,-0.1926
325,1541398.0,732.331307,1.0,3.68,-0.14,-9.14,-11.5,-19.37,39.19,1.25,0.44,0.44,-0.11238306374461504,-0.23630701951257,-0.04388953037662091,-154.42620867150097,-12.434654560583265,-22.2091125181558,0.0154,-0.9752,-0.1083,-0.1926
326,1541433.0,732.369497,1.0,3.85,0.2,-9.17,-11.5,-19.37,39.19,-4.63,3.94,0.44,0.08549397565949457,0.048371671242728016,-0.14029681606105449,-154.3228637180319,-12.400074265032766,-22.302542365509357,0.0145,-0.975,-0.10800000000000001,-0.1934
327,1541433.0,732.369497,1.0,3.85,0.2,-9.17,-11.5,-19.37,39.19,-4.63,3.94,0.44,0.08549397565949457,0.048371671242728016,-0.14029681606105449,-154.3228637180319,-12.400074265032766,-22.302542365509357,0.0145,-0.975,-0.10800000000000001,-0.1934
328,1541466.0,732.399229,1.0,3.83,0.11,-9.34,-11.5,-18.56,38.38,2.5,-1.81,0.44,-0.014513641050237782,-0.017215462141408733,-0.28870006733727216,-154.37448496866145,-12.388547751922633,-22.302542365509357,0.0148,-0.9751,-0.1079,-0.1934
329,1541466.0,732.399229,1.0,3.83,0.11,-9.34,-11.5,-18.56,38.38,2.5,-1.81,0.44,-0.014513641050237782,-0.017215462141408733,-0.28870006733727216,-154.37448496866145,-12.388547751922633,-22.302542365509357,0.0148,-0.9751,-0.1079,-0.1934
330,1541500.0,732.442686,1.0,3.73,0.09,-9.05,-11.75,-18.56,39.19,-1.06,4.5,-2.69,-0.011627041159105513,-0.04249015038041451,0.01780127305388568,-154.27134430279997,-12.423127669242316,-22.36094364221954,0.0145,-0.9749,-0.1082,-0.1939
331,1541500.0,732.442686,1.0,3.73,0.09,-9.05,-11.75,-18.56,39.19,-1.06,4.5,-2.69,-0.011627041159105513,-0.04249015038041451,0.01780127305388568,-154.27134430279997,-12.423127669242316,-22.36094364221954,0.0145,-0.9749,-0.1082,-0.1939
332,1541537.0,732.450149,1.0,3.75,-0.08,-9.21,-10.69,-19.0,39.56,1.37,0.5,1.25,-0.09338281516411984,-0.1738417165408314,-0.13588784038170765,-154.27134430279997,-12.434654560583265,-22.39598723123728,0.0159,-0.9749,-0.1083,-0.1942
333,1541537.0,732.450149,1.0,3.75,-0.08,-9.21,-10.69,-19.0,39.56,1.37,0.5,1.25,-0.09338281516411984,-0.1738417165408314,-0.13588784038170765,-154.27134430279997,-12.434654560583265,-22.39598723123728,0.0159,-0.9749,-0.1083,-0.1942
334,1541570.0,732.51068,1.0,3.95,0.3,-9.1,-10.69,-19.0,39.56,-3.63,2.88,0.19,0.1965627595751218,0.13523446643761367,-0.11532433581822765,-154.16860854190614,-12.400074265032766,-22.466080778094224,0.0151,-0.9747,-0.10800000000000001,-0.1948
335,1541570.0,732.51068,1.0,3.95,0.3,-9.1,-10.69,-19.0,39.56,-3.63,2.88,0.19,0.1965627595751218,0.13523446643761367,-0.11532433581822765,-154.16860854190614,-12.400074265032766,-22.466080778094224,0.0151,-0.9747,-0.10800000000000001,-0.1948
336,1541607.0,732.526093,1.0,3.79,0.03,-9.13,-11.75,-19.37,40.5,1.69,-0.75,-0.37,-0.02346089587636801,-0.0783164908524468,-0.07845071337795062,-154.16860854190614,-12.434654560583265,-22.51281453874211,0.0159,-0.9747,-0.1083,-0.1952
337,1541607.0,732.526093,1.0,3.79,0.03,-9.13,-11.75,-19.37,40.5,1.69,-0.75,-0.37,-0.02346089587636801,-0.0783164908524468,-0.07845071337795062,-154.16860854190614,-12.434654560583265,-22.51281453874211,0.0159,-0.9747,-0.1083,-0.1952
338,1541642.0,732.573399,1.0,3.63,0.0,-8.9,-11.5,-18.56,39.19,-1.31,-0.37,0.81,-0.08539683429308043,-0.09151660620971153,0.19565462535328493,-154.16860854190614,-12.423127669242316,-22.50113074326324,0.0159,-0.9747,-0.1082,-0.1951
339,1541642.0,732.573399,1.0,3.63,0.0,-8.9,-11.5,-18.56,39.19,-1.31,-0.37,0.81,-0.08539683429308043,-0.09151660620971153,0.19565462535328493,-154.16860854190614,-12.423127669242316,-22.50113074326324,0.0159,-0.9747,-0.1082,-0.1951
340,1541675.0,732.599329,1.0,3.96,0.15,-9.19,-11.5,-18.56,39.19,2.13,5.25,-0.5,0.11031458565584697,0.007054356203292284,-0.2007463111415806,-154.0662728728033,-12.377021364647927,-22.64135196781312,0.0156,-0.9745,-0.1078,-0.1963
341,1541675.0,732.599329,1.0,3.96,0.15,-9.19,-11.5,-18.56,39.19,2.13,5.25,-0.5,0.11031458565584697,0.007054356203292284,-0.2007463111415806,-154.0662728728033,-12.377021364647927,-22.64135196781312,0.0156,-0.9745,-0.1078,-0.1963
342,1541711.0,732.6367,1.0,3.83,0.01,-9.27,-11.5,-19.75,38.75,1.56,-0.75,0.37,-0.06821209952605889,-0.08410078909213413,-0.22281529814786802,-154.01525359440276,-12.400074265032766,-22.65303861752037,0.0163,-0.9744,-0.10800000000000001,-0.1964
343,1541711.0,732.6367,1.0,3.83,0.01,-9.27,-11.5,-19.75,38.75,1.56,-0.75,0.37,-0.06821209952605889,-0.08410078909213413,-0.22281529814786802,-154.01525359440276,-12.400074265032766,-22.65303861752037,0.0163,-0.9744,-0.10800000000000001,-0.1964
344,1541748.0,732.694424,1.0,3.81,0.19,-9.04,-11.5,-19.37,38.75,0.5,0.56,-0.56,0.03686011823658975,0.06737023160807211,-0.0049707928953655065,-154.01525359440276,-12.400074265032766,-22.66472550596455,0.0157,-0.9744,-0.10800000000000001,-0.1965
345,1541748.0,732.694424,1.0,3.81,0.19,-9.04,-11.5,-19.37,38.75,0.5,0.56,-0.56,0.03686011823658975,0.06737023160807211,-0.0049707928953655065,-154.01525359440276,-12.400074265032766,-22.66472550596455,0.0157,-0.9744,-0.10800000000000001,-0.1965
346,1541781.0,732.7147480000001,1.0,3.79,-0.02,-9.13,-11.5,-19.37,38.75,1.0,1.0,1.19,-0.05905947202443972,-0.11116110868645684,-0.07796204027147624,-154.01525359440276,-12.388547751922633,-22.66472550596455,0.0165,-0.9744,-0.1079,-0.1965
347,1541781.0,732.7147480000001,1.0,3.79,-0.02,-9.13,-11.5,-19.37,38.75,1.0,1.0,1.19,-0.05905947202443972,-0.11116110868645684,-0.07796204027147624,-154.01525359440276,-12.388547751922633,-22.66472550596455,0.0165,-0.9744,-0.1079,-0.1965
348,1541816.0,732.75371,1.0,3.89,0.2,-9.29,-11.75,-19.0,38.38,-1.37,1.88,0.69,-0.002095861445223779,0.08145865936699917,-0.26656001936219553,-153.96433257658236,-12.330917071488786,-22.769918267605057,0.0156,-0.9743,-0.1074,-0.1974
349,1541816.0,732.75371,1.0,3.89,0.2,-9.29,-11.75,-19.0,38.38,-1.37,1.88,0.69,-0.002095861445223779,0.08145865936699917,-0.26656001936219553,-153.96433257658236,-12.330917071488786,-22.769918267605057,0.0156,-0.9743,-0.1074,-0.1974
350,1541851.0,732.781971,1.0,3.83,0.19,-8.98,-11.06,-19.0,38.75,0.63,1.31,0.56,0.05643805789503744,0.06403052556439692,0.042526135698759404,-153.96433257658236,-12.319391311580372,-22.79329707445838,0.0157,-0.9743,-0.1073,-0.1976
351,1541851.0,732.781971,1.0,3.83,0.19,-8.98,-11.06,-19.0,38.75,0.63,1.31,0.56,0.05643805789503744,0.06403052556439692,0.042526135698759404,-153.96433257658236,-12.319391311580372,-22.79329707445838,0.0157,-0.9743,-0.1073,-0.1976
