TIME,ELAPSED_SECONDS,PSTATE,acc_x,acc_y,acc_z,mag_x,mag_y,mag_z,gyr_x,gyr_y,gyr_z,lin_x,lin_y,lin_z,eul_x,eul_y,eul_z,qua_w,qua_x,qua_y,qua_z
228958.0,170.811095,1.0,1.42,-3.09,-9.3,-3.19,-7.5,42.19,2.81,0.25,1.81,-0.23773309986115845,-0.1544630015642253,-0.091537922765367,-120.26974778474064,-56.18546670575561,0.5385823103159236,0.1616,-0.8672,-0.4709,0.0047
228990.0,170.849804,1.0,1.36,-2.86,-9.28,-3.19,-7.5,42.19,0.31,0.0,1.63,-0.07753301589968575,0.0020188838797261105,0.0014684843138486061,-120.3388206480064,-56.12052906282052,0.5844194845105756,0.1617,-0.8675,-0.4704,0.0051
229025.0,170.9064,1.0,1.35,-2.82,-9.43,-4.25,-7.75,43.75,-0.19,2.5,1.37,-0.031151204281436137,0.07651544929862379,-0.12778380311583426,-120.38490958888936,-56.068593069762564,0.5385823103159236,0.1618,-0.8677,-0.47,0.0047
229060.0,170.913061,1.0,1.46,-2.83,-9.54,-2.75,-7.06,44.56,2.69,2.06,2.38,0.0453905674994376,0.02717277847802957,-0.2506508971836876,-120.43103091016366,-56.00369069764568,0.5156637559929028,0.1626,-0.8679,-0.4695,0.0045
229095.0,170.976203,1.0,1.39,-2.75,-9.35,-2.75,-6.69,43.0,-2.0,-0.19,0.75,0.03769902657111246,0.07182307483556832,-0.03766410659557984,-120.45410373713348,-55.95178287128961,0.4927452222969898,0.1625,-0.868,-0.4691,0.0043
229130.0,170.986572,1.0,1.41,-2.81,-9.45,-2.75,-6.69,43.0,0.81,0.31,0.75,0.016244656252610182,0.057286827873066874,-0.15242396952625548,-120.45410373713348,-55.95178287128961,0.4812859628976946,0.1627,-0.868,-0.4691,0.0042
229163.0,171.01699299999999,1.0,1.32,-2.88,-9.37,-3.88,-7.5,44.06,0.69,-1.12,1.69,-0.09298058822762988,0.0736259895080905,-0.0837308735499036,-120.50027377126793,-55.89988753147071,0.5271230305187238,0.163,-0.8682,-0.4687,0.0046
229199.0,171.081399,1.0,1.35,-2.84,-9.32,-4.25,-6.69,43.0,-1.12,-0.5,-0.31,-0.049998611658337966,0.05461159402081952,-0.02925451929210077,-120.50027377126793,-55.89988753147071,0.5385823103159236,0.163,-0.8682,-0.4687,0.0047
229234.0,171.096743,1.0,1.37,-2.79,-9.56,-4.25,-6.69,43.0,0.37,1.25,-0.25,0.03665219787113927,0.13243814465928594,-0.2450024389888465,-120.50027377126793,-55.912860196887344,0.5156637559929028,0.163,-0.8682,-0.4688,0.0045
229269.0,171.148449,1.0,1.36,-3.0,-9.48,-3.88,-7.75,42.56,-0.44,-1.12,1.37,-0.14004272365217876,0.007762295236327765,-0.2283052954821265,-120.50027377126793,-55.87394453787317,0.5844194845105756,0.1631,-0.8682,-0.4685,0.0051
229306.0,171.16427,1.0,1.28,-2.95,-9.24,-4.25,-7.06,43.38,1.81,-2.19,0.44,-0.17354451336090582,0.02400046286548516,0.024635571485566388,-120.52337099749846,-55.860974209079195,0.6531754234266163,0.163,-0.8683,-0.4684,0.0057
229339.0,171.20574299999996,1.0,1.26,-2.84,-9.28,-4.25,-7.06,43.38,-1.31,0.88,0.12,-0.0968646782876026,0.10461639748989628,0.0213920757817263,-120.54647637591215,-55.860974209079195,0.6187974261216272,0.1627,-0.8684,-0.4684,0.0054
229371.0,171.272193,1.0,1.41,-2.84,-9.52,-3.56,-7.06,44.56,3.25,-0.69,1.88,0.03638658389389049,0.052733499618256005,-0.2272921562280548,-120.5695899160874,-55.80910067345633,0.6531754234266163,0.1631,-0.8685,-0.46799999999999997,0.0057
229408.0,171.282897,1.0,1.32,-2.79,-9.34,-4.69,-7.06,43.0,-1.81,0.25,-1.63,-0.008253056063868171,0.09761872763438807,-0.029634993384478395,-120.54647637591215,-55.84800465854668,0.6417160846123932,0.1628,-0.8684,-0.4683,0.0056
229443.0,171.315213,1.0,1.49,-2.78,-9.57,-4.69,-7.06,43.0,0.0,1.06,0.12,0.1274771181709672,0.03523911138971945,-0.2688602992042721,-120.54647637591215,-55.84800465854668,0.5958787923837214,0.163,-0.8684,-0.4683,0.0052
229476.0,171.321823,1.0,1.37,-2.84,-9.54,-3.56,-6.69,43.0,0.37,-3.63,-1.06,0.013021030348279285,0.08400450635891038,-0.2405821410267049,-120.50027377126793,-55.89988753147071,0.6646347687728765,0.1627,-0.8682,-0.4687,0.0058
229511.0,171.365405,1.0,1.3,-2.91,-9.39,-4.25,-7.06,43.38,1.12,0.69,-1.75,-0.10272725414292004,0.06632398346486494,-0.10875459287837863,-120.45410373713348,-55.92583364179144,0.687553479519944,0.1629,-0.868,-0.4689,0.006
229548.0,171.393573,1.0,1.24,-2.81,-9.24,-3.56,-6.69,43.0,1.44,0.31,-2.38,-0.08407108430107313,0.12908721006584908,0.07075925775243341,-120.38490958888936,-56.01666960756123,0.6646347687728765,0.163,-0.8677,-0.4696,0.0058
229580.0,171.430326,1.0,1.4,-2.72,-9.56,-3.56,-6.69,43.0,2.38,3.0,-4.75,0.11970309079810235,0.14809003532077494,-0.2290732181588222,-120.24673960552259,-56.133515021345396,0.5844194845105756,0.1634,-0.8671,-0.4705,0.0051
229617.0,171.49571,1.0,1.35,-2.79,-9.51,-3.56,-7.5,42.56,1.94,4.13,-7.19,0.013529844467959129,0.1681535148088335,-0.1942620253487952,-120.01709840281569,-56.3283987391895,0.4698267083113723,0.1643,-0.8661,-0.47200000000000003,0.0041
229652.0,171.509043,1.0,1.19,-2.56,-9.22,-3.88,-7.06,43.38,1.19,-3.75,-6.56,0.06164427030634345,0.3398634489227613,0.17032327141587975,-119.81110097439957,-56.5494817192817,0.4583674584234223,0.1645,-0.8652,-0.4737,0.004
229685.0,171.549047,1.0,1.45,-2.62,-9.73,-3.88,-7.06,43.38,4.5,-0.75,-8.31,0.2403011257231065,0.2412593519031361,-0.36801703603098623,-119.49192425354241,-56.861990212559824,0.5042044866238587,0.1646,-0.8638,-0.4761,0.0044
229720.0,171.572489,1.0,1.3,-2.7,-9.42,-3.88,-6.38,43.88,1.37,-1.0,-12.5,0.04246707374255865,0.2457600091789721,-0.07536389219505503,-119.15163191547691,-57.21411483330135,0.5385823103159236,0.1649,-0.8623,-0.4788,0.0047
229756.0,171.614467,1.0,1.38,-2.82,-9.37,-3.56,-7.06,43.38,5.69,-1.81,-11.5,-0.012992912840256277,0.1291214450189063,-0.07448651543445628,-118.63316578204837,-57.684534926275816,0.5958787923837214,0.166,-0.86,-0.4824,0.0052
229789.0,171.660394,1.0,1.22,-2.84,-9.13,-3.56,-7.06,43.38,4.56,-2.38,-14.75,-0.14282680443306106,0.1960252316604152,0.17067186529629194,-118.20783138151,-58.10358051110581,0.6990128451499703,0.1667,-0.8581,-0.4856,0.0061
229824.0,171.716285,1.0,1.59,-2.84,-9.73,-4.69,-7.5,44.19,3.13,-0.31,-16.81,0.1419973082163125,0.0816643471818572,-0.4519935603767173,-117.58578661368068,-58.72060322045697,0.6531754234266163,0.1675,-0.8553,-0.4903,0.0057
229859.0,171.730402,1.0,1.67,-3.01,-9.66,-3.88,-7.06,43.69,15.25,-4.06,-15.19,0.057967858072168636,-0.05479155745939046,-0.4480190640245301,-117.07896160834984,-59.14177438587889,0.7906880314747026,0.1694,-0.853,-0.4935,0.0069
229894.0,171.742415,1.0,1.36,-2.76,-9.33,-3.88,-7.06,43.69,2.75,-3.56,-19.19,0.06671134359529317,0.2377605068436404,-0.014506731160599529,-116.53218769347627,-59.68268779789295,0.9282017781870658,0.1702,-0.8505,-0.4976,0.0081
229928.0,171.81090600000005,1.0,1.45,-2.9,-9.53,-3.19,-6.0,43.38,13.13,-3.63,-18.5,0.050278568235436534,0.1909711988943037,-0.25786201334516434,-115.70907375985723,-60.43713492448142,1.0427975798203954,0.1721,-0.8467,-0.5033,0.0091
229963.0,171.81875300000004,1.0,1.41,-2.98,-9.46,-2.38,-6.69,43.38,6.5,-5.88,-18.37,-0.017731987799431637,0.1969621872923458,-0.2093867148581108,-114.9378688809502,-61.16786271295341,1.2490727279396536,0.1739,-0.8431,-0.5088,0.0109
229998.0,171.88159199999996,1.0,1.37,-2.57,-9.22,-2.06,-5.56,44.69,3.13,-6.5,-23.69,0.2570982780894341,0.3361891028309139,0.14688409380221226,-114.28023924222178,-61.86127398626197,1.294912175882028,0.1736,-0.84,-0.514,0.0113
230033.0,171.925231,1.0,1.5,-2.9,-9.5,-2.06,-5.56,44.69,19.06,-6.13,-19.25,0.1542592085848229,0.20086532280595326,-0.2355538028841497,-113.33587511663835,-62.6779190768701,1.638715147453804,0.1766,-0.8355,-0.5201,0.0143
230070.0,171.939651,1.0,1.48,-2.86,-9.41,-1.69,-6.75,44.56,7.88,-5.69,-27.31,0.19167556910315176,0.2301086800740985,-0.1345979333111682,-112.50626800349724,-63.44422897307763,1.8450038134157023,0.1782,-0.8315,-0.5258,0.0161
230105.0,171.975745,1.0,1.7,-3.18,-9.21,-1.69,-5.38,44.19,15.5,-5.94,-26.56,-0.012307618031746737,-0.1116782555141574,-0.08343981201807438,-111.6447470313604,-64.26784056455223,2.0054546535892377,0.1799,-0.8273,-0.5319,0.0175
230139.0,171.998871,1.0,1.62,-3.7,-9.39,-1.69,-5.38,44.19,12.38,-9.0,-23.5,-0.3841738837710251,-0.12856676132275635,-0.4071828268535551,-110.55089162584848,-65.20397390849297,2.4295230620087382,0.1837,-0.8219,-0.5388,0.0212
230172.0,172.037194,1.0,1.61,-3.21,-9.2,-0.88,-5.38,44.56,4.56,-2.69,-27.69,-0.013625928863528314,0.029076373307353295,-0.06933951490826118,-109.5116049915234,-66.2407734880853,2.47537018520181,0.1844,-0.8167,-0.5464,0.0216
230209.0,172.09643799999995,1.0,1.69,-3.36,-9.12,-1.0,-5.0,43.88,19.62,-4.31,-21.19,-0.09146359971468844,-0.07633244299800729,-0.05772569074055234,-108.74081619599785,-66.89875398051586,2.6931495578860725,0.187,-0.8128,-0.5512,0.0235
230244.0,172.10303100000004,1.0,1.59,-3.38,-9.0,-1.0,-5.0,43.88,10.06,-6.13,-23.12,-0.1341150006240286,0.007737225170840328,0.0632187100511512,-107.99668693087187,-67.54545388216584,2.9338644268256844,0.1894,-0.809,-0.5559,0.0256
230279.0,172.18348400000005,1.0,1.76,-3.34,-9.32,-0.25,-5.0,44.5,9.06,-2.69,-23.25,0.05584357229076742,7.498921689115533e-05,-0.2488202271853233,-106.98904660999506,-68.4854543216403,3.014105541619682,0.1913,-0.8038,-0.5627,0.0263
230311.0,172.186802,1.0,1.71,-3.4,-9.14,-1.0,-4.0,44.5,14.56,-1.63,-22.25,-0.03544258252414933,0.015598430022887522,-0.09396616831623383,-106.26020470831196,-69.12432067193492,3.15166519950434,0.1934,-0.8,-0.5673,0.0275
230348.0,172.236752,1.0,1.74,-3.51,-9.07,-1.0,-3.88,43.75,11.56,-0.19,-24.56,-0.11382079905140408,0.004326699690494734,-0.07260230497597142,-105.23498190512574,-70.0172862891219,3.254837913384077,0.1966,-0.7946,-0.5737,0.0284
230381.0,172.251537,1.0,1.74,-3.58,-9.08,-1.0,-3.88,43.75,8.75,-4.56,-23.69,-0.15938657369318465,0.02945337860891792,-0.10617645962365607,-104.48323564898183,-70.70426845211381,3.335085177891311,0.1984,-0.7906,-0.5786,0.0291
230418.0,172.29449,1.0,1.89,-3.43,-9.14,0.06,-2.69,42.56,11.94,-2.19,-21.75,0.051980304927693684,-0.012171041709972548,-0.13687804157776284,-103.55241005030376,-71.56359842931408,3.4153340784378665,0.2002,-0.7856,-0.5847,0.0298
230453.0,172.33024,1.0,1.93,-3.95,-8.96,0.19,-3.5,43.38,10.5,0.44,-22.19,-0.4357188815474105,-0.17242883700892694,-0.16277412341007924,-102.83298081073578,-72.18633490403623,3.5070491615651807,0.2025,-0.7817,-0.5891,0.0306
230486.0,172.358217,1.0,1.99,-3.96,-8.96,0.19,-3.5,43.38,6.38,-2.63,-18.75,-0.4158719534805434,-0.17884553670018558,-0.17925831083035249,-102.0280527784433,-72.91124580679356,3.564372225995784,0.2045,-0.7773,-0.5942,0.0311
230522.0,172.376235,1.0,1.98,-3.74,-8.85,-0.25,-3.5,44.56,3.94,-1.12,-15.0,-0.2422215814613113,-0.1253476888223749,0.0007274701009780671,-101.51944563950941,-73.35353629089147,3.610231319265168,0.2057,-0.7745,-0.5973,0.0315
230557.0,172.43913799999999,1.0,1.94,-4.02,-8.67,0.75,-2.69,44.19,7.81,1.19,-13.44,-0.5289114547038527,-0.13771047931149466,0.07041928698940403,-100.92354086053491,-73.81143181449299,3.6904861286986015,0.2087,-0.7712,-0.6005,0.0322
230592.0,172.509795,1.0,1.96,-3.96,-8.66,0.75,-2.69,44.19,3.5,1.44,-9.19,-0.4585256216592928,-0.10966623573321338,0.09601008437023673,-100.61802099879914,-74.05524812454561,3.6790210459755386,0.2105,-0.7695,-0.6022,0.0321
230625.0,172.520199,1.0,2.03,-4.04,-8.96,-0.25,-2.69,44.19,2.31,3.81,-7.56,-0.4011789594931724,-0.05456552179555138,-0.22131978686569376,-100.27771483475884,-74.27070555325552,3.6560909909367436,0.2129,-0.7676,-0.6037,0.0319
230662.0,172.532419,1.0,2.28,-3.91,-9.05,0.06,-2.69,44.56,1.81,4.0,-3.75,-0.18447883390056008,-0.2052784437905633,-0.3083303914964475,-100.15264374261456,-74.3282126664446,3.564372225995784,0.2143,-0.7669,-0.6041,0.0311
230694.0,172.588628,1.0,2.01,-3.95,-8.82,0.06,-2.69,44.56,-2.88,1.06,-3.0,-0.35768754790192736,-0.008941942839071348,-0.05778002204051269,-100.04556964502136,-74.40012733902506,3.5529075421905287,0.2151,-0.7663,-0.6046,0.031
230727.0,172.59671200000003,1.0,1.99,-3.84,-8.91,-0.25,-3.06,44.88,-3.75,5.56,-0.94,-0.27707707841592044,0.07555946908016889,-0.09341661892983844,-100.04556964502136,-74.44329258880299,3.2892294003721183,0.2146,-0.7663,-0.6049,0.0287
230762.0,172.630231,1.0,2.14,-4.25,-9.04,-1.06,-3.06,43.69,-3.5,3.13,0.56,-0.5823966458805367,-0.07965843702683745,-0.3922797811229941,-100.0812477423364,-74.40012733902506,3.163128706652845,0.2151,-0.7665,-0.6046,0.0276
230799.0,172.669645,1.0,2.18,-4.43,-9.19,-0.37,-2.69,44.56,-5.75,4.31,7.13,-0.7395000365902845,-0.10733374231240216,-0.5988782981520995,-100.27771483475884,-74.2563321899432,2.910938660030132,0.2137,-0.7676,-0.6036,0.0254
230832.0,172.72645,1.0,2.31,-4.27,-9.58,-0.37,-2.69,44.56,7.81,0.25,21.69,-0.40064917335533146,-0.10374626436115822,-0.9252704689804184,-100.76167247514276,-73.73979529168805,3.025568677774776,0.2144,-0.7703,-0.6,0.0264
230868.0,172.745913,1.0,2.19,-3.62,-9.43,-0.37,-2.69,43.75,-5.69,-1.94,18.87,0.157142076687957,0.0335529275850613,-0.5277382532438555,-101.50133226645922,-73.01100730919863,3.243374149708243,0.2138,-0.7744,-0.5949,0.0283
230903.0,172.762167,1.0,1.85,-3.75,-8.98,-0.37,-2.38,44.5,-1.31,-7.13,17.69,-0.1729438233325602,0.1316370153949815,-0.0967919334971139,-102.00984028062227,-72.54126289658385,3.4497269749928665,0.2123,-0.7772,-0.5916,0.0301
230938.0,172.80652,1.0,1.96,-3.61,-9.15,-0.37,-2.38,44.5,3.19,-4.31,22.94,0.09052210987811926,0.04109089583111542,-0.22262301881362667,-102.7228019769725,-71.81805792972114,3.7822081305683333,0.2114,-0.7811,-0.5865,0.033
230973.0,172.869113,1.0,1.76,-3.97,-9.17,0.0,-2.38,43.75,4.5,-6.56,22.31,-0.2219030181170389,0.097276637413729,-0.3367565434825206,-103.27503144100895,-71.22495103692498,4.160587661476331,0.2115,-0.7841,-0.5823,0.0363
231010.0,172.883557,1.0,1.77,-4.14,-9.0,-0.75,-2.38,44.19,5.06,-4.44,26.19,-0.3353204373564849,-0.08384433867098295,-0.2508362829219841,-104.09110859790351,-70.36742462258441,4.6536963885673295,0.2112,-0.7885,-0.5762,0.0406
231043.0,172.933423,1.0,1.76,-3.84,-9.26,-0.75,-2.38,44.19,0.63,-5.25,27.06,0.06698789800133997,0.010026628736944848,-0.37108118569347504,-104.8019451062217,-69.63997654209203,4.986306217889054,0.2106,-0.7923,-0.5710000000000001,0.0435
231077.0,172.953018,1.0,1.69,-4.24,-9.31,1.06,-2.69,44.88,7.0,-8.38,29.94,-0.19246665360660165,-0.1165952600324202,-0.559601112749851,-105.76506603938064,-68.61025837525389,5.5598717686300585,0.21,-0.7974,-0.5636,0.0485
231112.0,172.962027,1.0,1.41,-3.68,-9.05,-0.75,-2.69,44.88,1.44,-11.06,31.06,0.17222939200820894,0.13483934641978335,-0.061741732556303226,-106.56632775318519,-67.82138560708218,5.97292446733722,0.2083,-0.8016,-0.5579,0.0521
231149.0,173.00673,1.0,1.4,-3.96,-9.17,1.06,-2.38,42.88,6.56,-8.69,30.19,0.06525868497496579,-0.016862687805489163,-0.2792786609511229,-107.58829882460172,-66.76146977168455,6.615607303690656,0.2071,-0.8069,-0.5502,0.0577
231182.0,173.05354499999999,1.0,1.14,-3.59,-9.01,1.06,-2.38,42.88,2.0,-10.75,31.0,0.28612190044456554,0.20374215375392485,0.047325054448199566,-108.4070880619203,-65.9536821068983,7.028869316139518,0.2053,-0.8111,-0.5443,0.0613
231219.0,173.077557,1.0,1.05,-4.04,-8.94,1.06,-2.38,44.06,4.0,-9.13,29.62,-0.05402305959658482,0.01392038012767205,-0.05968608448693225,-109.3528985741182,-64.9185496744115,7.683390239501281,0.2043,-0.8159,-0.5367,0.067
231254.0,173.132567,1.0,0.78,-3.65,-8.82,0.37,-1.56,44.5,0.31,-8.63,28.31,0.17780579842702282,0.2799737067125417,0.2351663207789265,-110.08954448644468,-64.17313980035841,8.085412120809869,0.2028,-0.8196,-0.5312,0.0705
231286.0,173.170224,1.0,0.83,-3.84,-9.06,0.37,-1.56,44.5,5.44,-11.69,28.0,0.2078062858594023,0.1198996019734096,-0.065560524143212,-110.99470186962543,-63.215350872502476,8.705871826379285,0.2011,-0.8241,-0.5241,0.0759
231323.0,173.176792,1.0,0.76,-3.74,-9.21,0.69,-2.69,43.69,2.06,-7.56,25.44,0.3680285489748111,0.1822893783265459,-0.1543050530904857,-111.6447470313604,-62.5303947029574,9.108157120464725,0.1998,-0.8273,-0.519,0.0794
231358.0,173.238097,1.0,0.69,-3.84,-9.16,2.25,-2.38,44.88,6.75,-9.44,22.75,0.3230399452638958,0.112071091893802,-0.14374623653880825,-112.36201050539013,-61.71438217106357,9.648546712798435,0.19899999999999998,-0.8308,-0.5129,0.0841
231393.0,173.25256299999995,1.0,0.28,-3.9,-8.9,2.25,-2.38,44.88,3.25,-19.06,24.62,0.06848586902107101,0.29281727820752984,0.09027373478015124,-112.87847065921488,-61.15455226396579,10.22366575133618,0.1972,-0.8333,-0.5087,0.0891
231426.0,173.305911,1.0,0.42,-4.15,-9.34,1.56,-2.0,43.69,10.75,-11.44,21.81,0.21117343686529466,0.0754222994159483,-0.4199925211949829,-113.48199585621887,-60.38409728444597,10.994732910342313,0.1968,-0.8362,-0.5029,0.0958
231462.0,173.373322,1.0,0.18,-4.09,-8.97,2.0,-1.56,43.25,5.25,-11.69,18.62,0.08886854329956273,0.15316182392935726,-0.05185109487758055,-113.88004967231205,-59.88094864187493,11.512892133606984,0.196,-0.8381,-0.4991,0.1003
231495.0,173.379533,1.0,0.02,-4.16,-8.89,2.0,-1.56,43.25,8.31,-10.13,17.56,0.005085630879253955,0.18643413948386656,-0.006775316778716346,-114.21690781898718,-59.40545261479044,12.00824269100582,0.1958,-0.8397,-0.4955,0.1046
231530.0,173.387232,1.0,0.04,-4.26,-8.91,2.25,-1.19,41.69,5.19,-17.12,20.12,0.062155760810006726,0.019984049589113817,-0.06923159604803075,-114.70384241769943,-58.74690084345127,12.826644816909525,0.1945,-0.8420000000000001,-0.4905,0.1117
231565.0,173.428325,1.0,-0.08,-4.2,-8.8,2.25,-1.19,41.25,5.69,-11.13,17.31,0.08098957758351988,0.06107543757971268,0.05595205168638806,-115.04449255970869,-58.300301092865716,13.322613734970494,0.1938,-0.8436,-0.4871,0.11599999999999999
231602.0,173.46766200000005,1.0,-0.18,-4.09,-8.78,3.88,-0.88,43.69,6.06,-8.56,12.94,0.180027353550946,0.12813169906733646,0.12160625101943268,-115.40818530642284,-57.81539569637104,13.807290567361374,0.1931,-0.8453,-0.4834,0.1202
231634.0,173.515501,1.0,-0.38,-4.28,-8.6,3.88,-0.88,43.69,4.75,-12.19,14.31,-0.07975752683108561,0.11902684929209514,0.1940399826289952,-115.64449198892322,-57.475328633054886,14.222925164993965,0.1923,-0.8464,-0.4808,0.1238
231671.0,173.53593500000005,1.0,-0.36,-4.14,-8.72,3.19,-1.56,43.25,4.13,-6.19,10.5,0.14400197872560028,0.1371366543666045,0.1491111329722159,-115.94637091735842,-57.07058565644391,14.627194705880914,0.1917,-0.8478,-0.4777,0.1273
231706.0,173.59336399999995,1.0,-0.28,-4.63,-8.91,3.88,-0.56,42.38,7.88,-7.56,10.63,-0.06266093279367768,-0.15401370102605005,-0.2370422188703927,-116.1194452258842,-56.8098734919699,14.916070477056891,0.1918,-0.8486,-0.4757,0.1298
231741.0,173.6042,1.0,-0.62,-4.1,-8.48,3.88,-0.56,42.38,-3.13,-4.63,6.19,0.021318172556681225,0.2359054194014005,0.3700884350752034,-116.35810942215919,-56.56249373757082,15.239724647140953,0.1898,-0.8497,-0.4738,0.1326
231776.0,173.637112,1.0,-0.54,-4.2,-8.77,2.75,-0.56,42.38,4.75,-1.25,4.81,0.11884265446249133,0.1591620221719482,0.06986182965458454,-116.4668582991344,-56.432409277717255,15.343782195666375,0.1895,-0.8502,-0.4728,0.1335
231811.0,173.689864,1.0,-0.49,-4.09,-8.64,4.25,-1.25,42.0,-3.75,-3.31,1.75,0.180632643242293,0.12126978353674901,0.23740418396014465,-116.55397754456402,-56.3283987391895,15.424724640986323,0.1887,-0.8506,-0.47200000000000003,0.1342
231845.0,173.709176,1.0,-0.6,-4.28,-8.59,4.25,-1.25,42.0,1.06,-0.31,0.88,-0.03691568678013368,0.10249265816258957,0.1913168031163721,-116.59757736800644,-56.31540097731903,15.470980940849387,0.1883,-0.8508,-0.4719,0.1346
231878.0,173.756092,1.0,-0.49,-4.04,-8.84,4.25,0.19,41.56,-5.19,2.5,-2.44,0.2691523955693236,0.1721468691249396,0.0801283995813904,-116.59757736800644,-56.38039768350901,15.309094936163461,0.1874,-0.8508,-0.4724,0.1332
231913.0,173.81395700000004,1.0,-0.59,-4.28,-8.58,3.56,-0.56,41.56,1.31,0.19,-3.88,-0.06541712003456834,0.10282799535648304,0.2010242003044187,-116.51040454017948,-56.47142628686849,15.309094936163461,0.1879,-0.8504,-0.4731,0.1332
231948.0,173.816784,1.0,-0.51,-4.15,-8.67,3.56,-0.56,41.56,-7.0,5.56,-7.88,0.0735387259839152,0.12918126852528233,0.18223291346208906,-116.42333876589676,-56.65360014298316,15.10100089527667,0.1875,-0.85,-0.4745,0.1314
231983.0,173.843083,1.0,-0.39,-4.29,-8.82,4.25,-1.25,42.38,-0.88,3.13,-7.44,0.04559511237628644,0.02289585188569665,-0.008949669184447728,-116.22782989578606,-56.940189367000634,14.823619947246295,0.1877,-0.8491,-0.4767,0.129
232015.0,173.88255800000005,1.0,-0.48,-4.18,-8.49,4.69,-1.25,42.0,-4.75,3.44,-9.25,-0.07525962532865428,0.10538505199504344,0.3321510697340102,-116.07613737802977,-57.148862161344155,14.661854827129085,0.1876,-0.8484,-0.4783,0.1276
232052.0,173.919052,1.0,-0.37,-3.9,-8.67,5.06,-1.0,42.38,-7.5,9.94,-14.56,0.18070247491335287,0.22042963048863573,0.2969414138464348,-115.81683895855758,-57.61913540426363,14.153639819523336,0.187,-0.8472,-0.4819,0.1232
232085.0,173.974486,1.0,-0.22,-3.92,-8.86,5.06,-1.0,42.38,-5.38,8.75,-15.38,0.2522177666144485,0.1610204249294705,0.12032672328867733,-115.55847283517146,-57.998739571431635,13.761120312162008,0.187,-0.846,-0.4848,0.1198
232122.0,173.990735,1.0,-0.02,-4.3,-8.97,4.25,-1.25,43.56,-5.75,12.44,-18.12,0.014639289513310172,-0.0803924961318182,-0.14044116967208176,-115.10854164041076,-58.56288867530428,13.184178987120148,0.1881,-0.8439,-0.4891,0.1148
232157.0,174.042844,1.0,0.15,-4.19,-9.18,3.56,-1.25,43.69,-10.81,13.44,-20.5,0.17421080402166034,-0.0644186829769155,-0.2837662862116677,-114.74633713830113,-59.07590865675504,12.619102083523115,0.1886,-0.8422,-0.493,0.1099
232192.0,174.05741,1.0,-0.05,-3.93,-8.89,3.56,-1.25,43.69,-12.06,10.56,-18.44,0.046962219128743536,0.2181218595587344,0.08915457142597383,-114.30136176070127,-59.788402375885155,11.916067673936475,0.1872,-0.8401,-0.4984,0.1038
232226.0,174.107899,1.0,0.27,-4.38,-9.18,3.56,-1.69,42.25,-2.5,12.69,-18.31,-0.119431956883717,-0.12058600343364805,-0.36688896259560794,-113.92207363516451,-60.2250699460729,11.455307417011952,0.1884,-0.8383,-0.5017,0.0998
232261.0,174.125649,1.0,0.4,-3.8,-9.13,2.75,-2.5,44.0,-14.81,6.75,-21.62,0.25116073832176666,0.05817541969306812,-0.0873094654551334,-113.41933793772672,-61.008197532736816,10.706964767003905,0.1869,-0.8359,-0.5076,0.0933
232298.0,174.167292,1.0,0.4,-4.55,-8.9,2.75,-2.5,44.0,-3.0,11.75,-16.56,-0.5092394208864349,-0.25032228665844186,-0.1808679081199837,-113.02370899765695,-61.50092189108089,10.304202691653053,0.1869,-0.8340000000000001,-0.5113,0.0898
232331.0,174.226145,1.0,0.59,-4.34,-8.95,2.75,-2.75,42.75,-18.87,17.37,-21.75,-0.38201648522667175,-0.23144299734121315,-0.1475801331643325,-112.60947570576613,-62.12863965657575,9.407070184120801,0.1865,-0.8320000000000001,-0.516,0.08199999999999999
232366.0,174.296735,1.0,0.52,-3.83,-8.89,3.19,-2.5,43.19,-13.44,10.69,-16.44,-0.1516458710062354,0.08485200065594882,0.11432294878100355,-112.21802358107666,-62.731592972927196,8.590953131273462,0.1852,-0.8301,-0.5205,0.0749
232402.0,174.302474,1.0,0.77,-4.11,-9.17,2.38,-3.19,42.75,-8.25,14.31,-14.13,-0.25262823509350696,-0.11288524917900696,-0.26793862164363524,-111.95133120994127,-63.05395914548726,8.108387763620353,0.1862,-0.8288,-0.5229,0.0707
232437.0,174.31615,1.0,0.94,-4.15,-9.42,2.38,-3.19,42.75,-10.5,15.25,-15.13,-0.2527071067511514,-0.13093160977153506,-0.5258954768783912,-111.60396041024364,-63.49812368940196,7.35035834348681,0.1866,-0.8271,-0.5262,0.0641
232472.0,174.322412,1.0,1.08,-4.46,-9.34,1.69,-3.56,43.56,-4.06,13.88,-7.44,-0.5255901555207234,-0.3248945058201235,-0.5814103843310203,-111.42068428698192,-63.673390007198286,6.959986103018456,0.188,-0.8262,-0.5275,0.0607
232507.0,174.355548,1.0,0.94,-3.7,-9.12,0.56,-3.56,42.75,-13.81,10.31,-6.81,-0.0831853979972561,0.06808798118799514,-0.07952439742885709,-111.40034681062792,-63.79482577106735,6.4778727055513645,0.1876,-0.8261,-0.5284,0.0565
232542.0,174.414888,1.0,1.09,-3.55,-9.51,0.56,-3.56,42.75,-10.31,10.88,-5.75,0.11208760565373954,0.13443176519731748,-0.4011932819653303,-111.3393661020306,-63.97037455615307,5.823757869537403,0.1866,-0.8258,-0.5297,0.0508
232577.0,174.433724,1.0,1.37,-3.89,-9.75,0.88,-4.25,42.25,-2.94,11.19,-3.63,-0.03801074925727777,-0.13198534487073882,-0.7788417246049644,-111.2987386824523,-64.03793803426306,5.468092286497271,0.1873,-0.8256,-0.5302,0.0477
232611.0,174.50028600000005,1.0,1.07,-3.55,-9.02,0.88,-4.0,43.56,-10.13,9.69,-4.31,-0.15322227490966767,0.0985201105489714,0.05602864942500218,-111.2987386824523,-64.11904710633912,5.020716482682318,0.1864,-0.8256,-0.5308,0.0438
232646.0,174.503045,1.0,1.12,-3.64,-9.25,0.88,-4.0,43.56,-7.31,10.06,-2.38,-0.20168238709996267,0.1129007650593758,-0.1940038602224768,-111.31904975679159,-64.14609145323304,4.6536963885673295,0.1863,-0.8257,-0.531,0.0406
232679.0,174.550323,1.0,0.7,-3.09,-9.38,0.25,-4.25,43.19,-14.06,12.19,-1.06,0.01309606791586265,0.7599884854371087,-0.06476053725394593,-111.42068428698192,-64.15961512656168,3.988591587846416,0.1849,-0.8262,-0.5311,0.0348
232716.0,174.575095,1.0,1.16,-3.37,-9.13,-0.06,-4.0,44.0,0.06,3.56,-2.0,-0.13182017845805086,0.19845724591326352,0.00855640164649607,-111.38001462419376,-64.22724850843996,3.7478120989556993,0.1846,-0.826,-0.5316,0.0327
232751.0,174.612009,1.0,1.23,-3.36,-9.09,-0.06,-5.75,43.5,-7.25,6.88,-4.0,-0.17224115358507086,0.15730063311020032,0.040576608107288685,-111.3393661020306,-64.32197736057384,3.32362118371626,0.1839,-0.8258,-0.5323,0.028999999999999998
232785.0,174.659307,1.0,1.32,-3.49,-9.12,-0.06,-5.75,43.5,-1.63,2.0,-2.31,-0.2802164750186815,0.05037599427418468,-0.04301197320136296,-111.2987386824523,-64.41675547774169,3.094348134689141,0.1833,-0.8256,-0.5329999999999999,0.027000000000000003
232820.0,174.711492,1.0,1.42,-3.45,-9.16,-0.75,-4.69,43.06,-4.75,7.13,-1.63,-0.2370620805830219,0.0008976549870502727,-0.08113543275313972,-111.31904975679159,-64.4302992386677,2.8306993879474716,0.1827,-0.8257,-0.5331,0.0247
232855.0,174.730182,1.0,1.55,-3.28,-9.43,-1.56,-5.06,43.5,-8.06,7.19,-2.88,-0.025884189171343497,0.03824518927172138,-0.29699623857389845,-111.3393661020306,-64.47093657541295,2.509755787270372,0.1819,-0.8258,-0.5334,0.0219
232890.0,174.77381699999995,1.0,1.41,-3.07,-9.34,-1.56,-5.06,43.5,-8.5,2.31,-0.75,0.02018854695490457,0.22163119096214265,-0.12305654338609527,-111.38001462419376,-64.49803318236535,2.2117544130994498,0.1807,-0.826,-0.5336,0.0193
232925.0,174.78925,1.0,1.6,-3.26,-9.51,-0.75,-5.5,43.5,-3.94,6.31,-1.5,-0.05531079469661915,0.05188018478202736,-0.37283668462300135,-111.38001462419376,-64.49803318236535,2.0054546535892377,0.1808,-0.826,-0.5336,0.0175
232960.0,174.836407,1.0,1.55,-3.25,-9.34,-1.19,-5.06,42.69,-4.19,3.63,-0.19,-0.14047463395222315,0.06719904717807353,-0.20216367422105289,-111.40034681062792,-64.49803318236535,1.7877008349543104,0.1805,-0.8261,-0.5336,0.0156
232994.0,174.86037,1.0,1.5,-3.25,-9.22,-1.19,-5.06,42.69,0.5,1.69,0.31,-0.20226959273494272,0.08670288295742237,-0.08134623897287874,-111.42068428698192,-64.47093657541295,1.6845565907051554,0.1805,-0.8262,-0.5334,0.0147
233027.0,174.905401,1.0,1.59,-3.08,-9.3,-1.56,-5.5,43.88,-4.13,4.38,-1.5,-0.024039628685504355,0.10391707635746276,-0.11772017334067544,-111.44102705802788,-64.47093657541295,1.5126525087430307,0.1803,-0.8263,-0.5334,0.0132
233064.0,174.95703600000004,1.0,1.8,-2.93,-9.22,-1.56,-6.19,43.06,-2.31,2.06,-0.75,0.1544959206766091,-0.040462781939118266,-0.0324451704804698,-111.46137512854489,-64.48448437370011,1.3522117780748235,0.18,-0.8264,-0.5335,0.0118
233097.0,174.96348,1.0,1.58,-2.87,-8.9,-1.56,-6.19,43.06,-5.19,1.94,-0.5,0.027405303173112183,0.08515342738131629,0.3232277356925,-111.4817285033188,-64.47093657541295,1.2605325708995527,0.1795,-0.8265,-0.5334,0.011000000000000001
233129.0,175.020441,1.0,2.02,-3.16,-7.74,-2.0,-5.5,42.69,-5.13,5.5,-2.94,-0.32335117692647786,-0.7263063470163996,1.2426834478313182,-111.4817285033188,-64.49803318236535,0.9625804159917916,0.1789,-0.8265,-0.5336,0.0084
233166.0,175.03483899999995,1.0,2.02,-2.53,-9.27,-2.0,-5.75,43.56,-19.12,20.5,-5.25,0.4171729573046857,0.005105586260956863,-0.003555943642698623,-111.58357510903522,-64.45738978708853,0.12605074034902247,0.17800000000000002,-0.8270000000000001,-0.5333,0.0011
233201.0,175.081342,1.0,1.68,-2.99,-9.14,-2.69,-7.25,43.5,-4.56,11.63,-4.13,-0.2102226446727604,0.156242359057879,0.04788497747267152,-111.46137512854489,-64.53868567478604,-0.29793838914592274,0.1791,-0.8264,-0.5339,-0.0026
233236.0,175.107888,1.0,1.83,-2.33,-8.94,-2.69,-7.25,43.5,-13.06,7.63,-3.25,0.3353288434476264,0.2204274273512099,0.39706093798335296,-111.46137512854489,-64.57934727558172,-0.6760941207657828,0.1779,-0.8264,-0.5342,-0.0059
233273.0,175.196099,1.0,2.04,-2.69,-9.3,-2.56,-6.88,42.69,-7.69,14.0,-7.56,0.0900726090576862,0.07651759202551991,-0.08646538309385042,-111.2987386824523,-64.71495187215974,-1.2605325708995527,0.1784,-0.8256,-0.5352,-0.011000000000000001
233308.0,175.20490800000005,1.0,2.23,-2.73,-9.43,-2.25,-6.88,43.56,-7.19,12.69,-6.44,0.08508042097582423,-0.01539188966128627,-0.2602871912066309,-111.1769826604611,-64.80993560444892,-1.7533192633889718,0.1785,-0.825,-0.5359,-0.0153
233340.0,175.21834099999995,1.0,2.1,-2.76,-9.34,-2.25,-6.88,43.56,-6.56,12.38,-6.88,-0.09407293639188397,0.1154549590743388,-0.15532874094618698,-111.01493444523935,-64.97288126664843,-2.3034454566839293,0.1786,-0.8242,-0.5371,-0.0201
233377.0,175.259538,1.0,2.33,-2.59,-9.53,-3.0,-7.69,43.06,-8.0,16.12,-9.38,0.09386371454697497,0.09148071847413886,-0.3393206722047495,-110.81284195033062,-65.13597459719793,-2.888013009772368,0.1785,-0.8232,-0.5383,-0.0252
233412.0,175.29746699999995,1.0,2.32,-2.64,-9.24,-3.69,-8.0,43.06,-11.25,5.38,-4.25,-0.06701768612425929,0.033628515331668565,-0.07889387743553122,-110.69183416222988,-65.24478588422559,-3.346549205454908,0.1785,-0.8226,-0.5391,-0.0292
233449.0,175.30898200000001,1.0,2.36,-2.47,-9.22,-3.69,-8.0,43.06,-7.25,12.25,-7.19,0.03156576679322187,0.08945892595674976,-0.02543526727333933,-110.57101095130196,-65.3536633459727,-3.7822081305683333,0.1782,-0.8220000000000001,-0.5399,-0.033
233482.0,175.345543,1.0,2.47,-2.8,-9.57,-4.88,-8.0,44.0,-2.38,14.88,-6.88,-0.25147286221414,0.06919822888634214,-0.4626135083869993,-110.30985589206541,-65.51710409627202,-4.3669953627837845,0.1792,-0.8207,-0.5411,-0.0381
233517.0,175.406675,1.0,2.31,-2.66,-9.15,-5.19,-8.25,43.56,-5.38,3.56,-2.44,-0.28289783383322176,0.14145476151103462,0.006947996058331185,-110.24971070475245,-65.55798771264952,-4.6192907619204595,0.1792,-0.8204,-0.5414,-0.0403
233553.0,175.421066,1.0,2.44,-2.57,-9.32,-5.19,-9.38,42.69,-5.25,10.31,-4.25,-0.20098408011853985,0.15137992775511938,-0.1611777230804794,-110.1495692444103,-65.63978314161311,-5.0780679322633615,0.1786,-0.8199,-0.542,-0.0443
233586.0,175.485191,1.0,2.61,-2.58,-9.61,-5.19,-9.38,42.69,-3.44,5.25,-1.25,-0.14551317731682656,0.1346605835150815,-0.4783532786807872,-110.10954773943891,-65.65341937322533,-5.376316314590642,0.179,-0.8197,-0.5421,-0.0469
233623.0,175.49088899999995,1.0,2.61,-2.33,-9.57,-5.19,-8.69,42.69,-5.31,7.5,-3.69,0.0253275460617064,0.2120312368830888,-0.3806117159861113,-110.10954773943891,-65.68069497759913,-5.628708719478254,0.1778,-0.8197,-0.5423,-0.0491
233658.0,175.533595,1.0,2.65,-2.59,-9.26,-6.0,-8.69,42.19,-3.06,8.81,-4.0,-0.2649693345591688,0.008154372756337097,-0.16370228855772773,-110.00958136957878,-65.74890233219018,-5.881128455236522,0.17800000000000002,-0.8192,-0.5428,-0.0513
233693.0,175.593073,1.0,2.66,-2.42,-9.41,-6.0,-8.69,42.19,-6.06,3.38,-1.0,-0.131370339031202,0.1382904713708897,-0.2652772028520385,-109.98960304245053,-65.73525876311373,-6.168003805570946,0.17800000000000002,-0.8191,-0.5427,-0.0538
233728.0,175.688314,1.0,2.67,-2.11,-9.34,-6.0,-9.38,43.56,-5.81,5.88,-2.38,0.10901106209550916,0.2164963378897972,-0.13104822061533206,-109.98960304245053,-65.74890233219018,-6.3631010384043885,0.1771,-0.8191,-0.5428,-0.0555
233764.0,175.767013,1.0,2.87,-2.32,-9.49,-6.38,-9.06,43.5,-1.63,6.19,-1.81,-0.020984325130974042,0.06294947715434235,-0.37544197667281054,-109.88978590326799,-65.7761926206296,-6.6500424405205285,0.1778,-0.8186,-0.5429999999999999,-0.057999999999999996
233799.0,175.803968,1.0,2.7,-2.39,-9.51,-6.38,-9.06,43.5,-3.38,1.31,0.25,-0.16691077473793525,0.20602479198829948,-0.3605469872901832,-109.88978590326799,-65.7761926206296,-6.764830589593756,0.1779,-0.8186,-0.5429999999999999,-0.059000000000000004
233832.0,175.816095,1.0,2.79,-2.21,-9.6,-6.38,-8.69,42.69,0.69,3.88,-1.31,0.001900868413610368,0.2290900490779872,-0.4293508858983941,-109.86983734458828,-65.80348711235835,-6.971466463000763,0.1771,-0.8185,-0.5432,-0.0608
233867.0,175.818442,1.0,2.94,-2.28,-9.59,-6.69,-9.38,43.06,-0.88,0.37,1.63,-0.004479218189870959,0.07296305389872226,-0.4794938998961218,-109.90973941260323,-65.76254695121683,-6.994427393261249,0.1771,-0.8187,-0.5429,-0.061
233904.0,175.826414,1.0,2.65,-2.27,-9.33,-6.0,-10.19,43.06,-2.63,-1.31,-0.37,-0.1498496667466156,0.21518877892114616,-0.15103742564268252,-109.92969787688708,-65.78983934086463,-6.994427393261249,0.1759,-0.8188,-0.5431,-0.061
233938.0,175.862005,1.0,2.75,-2.12,-9.36,-6.0,-10.19,43.06,1.25,4.19,-3.25,0.010694282183097314,0.20102613346113035,-0.17463118660096374,-109.86983734458828,-65.84443673875893,-7.109236280779951,0.1758,-0.8185,-0.5435,-0.062
233973.0,175.868124,1.0,2.97,-2.33,-9.51,-6.38,-9.75,42.69,-1.94,-3.13,0.56,-0.07236293342270382,-0.006415848116031742,-0.4249003440465682,-109.8498937322769,-65.84443673875893,-7.086273935339353,0.1761,-0.8184,-0.5435,-0.0618
234008.0,175.88339399999995,1.0,2.66,-2.17,-9.14,-6.69,-9.75,42.19,1.37,-0.31,-1.81,-0.0942966433222332,0.17379813555002194,0.04524629197022279,-109.82995506205258,-65.8990509847622,-7.086273935339353,0.1753,-0.8183,-0.5439,-0.0618
234043.0,175.929265,1.0,2.75,-2.15,-9.22,-6.69,-9.75,42.19,2.13,2.5,-0.81,-0.03155988799559052,0.141577492350978,-0.05095416060258096,-109.79009253076951,-65.92636443455984,-7.109236280779951,0.1758,-0.8181,-0.5441,-0.062
234078.0,175.950078,1.0,2.84,-2.26,-9.44,-6.69,-9.75,43.56,0.37,-3.13,1.12,-0.06359384436068405,0.10030119996551452,-0.3063463656794099,-109.79009253076951,-65.91270718206279,-7.040350098228411,0.17600000000000002,-0.8181,-0.544,-0.0614
234115.0,175.98625,1.0,2.79,-2.06,-9.15,-6.0,-9.75,43.19,2.38,1.81,1.06,0.07223435528416444,0.10559813692353164,0.022283324972178768,-109.81002132963994,-65.8990509847622,-7.028869316139518,0.1758,-0.8182,-0.5439,-0.0613
234147.0,176.0365,1.0,2.91,-2.15,-9.4,-6.0,-9.75,43.19,-2.44,-1.0,0.88,0.06404977264693756,0.057046068826170575,-0.2652536618037296,-109.86983734458828,-65.85808871965587,-7.017388604693049,0.1758,-0.8185,-0.5436,-0.0612
234182.0,176.069117,1.0,2.62,-2.17,-9.1,-6.69,-10.56,43.06,1.12,-2.75,1.37,-0.09257672930295446,0.1780992248503558,0.09361699195872576,-109.90973941260323,-65.84443673875893,-6.937025592767178,0.1752,-0.8187,-0.5435,-0.0605
234217.0,176.076411,1.0,2.59,-2.22,-9.31,-6.0,-9.75,43.56,0.56,2.75,-2.75,-0.13884941454298685,0.2613181860450801,-0.10420433480500613,-109.86983734458828,-65.87174175399682,-6.971466463000763,0.175,-0.8185,-0.5437,-0.0608
234252.0,176.168638,1.0,2.51,-2.0,-9.53,-6.0,-9.75,43.56,-3.94,4.31,-2.31,0.04708497043295656,0.5107254931258963,-0.2361555082347717,-109.82995506205258,-65.87174175399682,-7.063311874799694,0.17600000000000002,-0.8183,-0.5437,-0.0616
234287.0,176.225826,1.0,2.85,-2.22,-9.5,-5.56,-9.38,44.0,2.19,-1.75,-0.63,-0.0129926540158134,0.1233116573357046,-0.3562986580473666,-109.79009253076951,-65.92636443455984,-7.005907963772472,0.17600000000000002,-0.8181,-0.5441,-0.0611
234321.0,176.246493,1.0,2.72,-2.24,-9.19,-5.56,-9.38,43.5,-1.94,0.37,0.25,-0.1046687496266674,0.1124994872971031,-0.0345129555764121,-109.79009253076951,-65.92636443455984,-6.948505812979428,0.1759,-0.8181,-0.5441,-0.0606
234356.0,176.295169,1.0,2.82,-2.14,-9.26,-7.06,-9.75,41.06,1.0,0.0,-1.06,0.03192581071412404,0.08334264463410662,-0.10655506931010984,-109.79009253076951,-65.92636443455984,-6.948505812979428,0.1758,-0.8181,-0.5441,-0.0606
234391.0,176.41208799999995,1.0,2.78,-2.29,-9.31,-7.06,-9.75,41.06,1.19,-0.06,0.0,-0.10587778849563056,0.08173614344493346,-0.1748683763172032,-109.79009253076951,-65.92636443455984,-6.89110540785609,0.17600000000000002,-0.8181,-0.5441,-0.0601
234428.0,176.4772,1.0,2.78,-2.06,-9.33,-6.38,-9.06,41.88,-0.75,0.37,-0.31,0.10757511570118394,0.1625330927512098,-0.14236555874965084,-109.82995506205258,-65.8990509847622,-6.868145731332586,0.1758,-0.8183,-0.5439,-0.0599
234463.0,176.552887,1.0,2.9,-2.08,-9.31,-6.0,-9.38,42.25,-0.81,0.25,-0.06,0.14050977603807335,0.048048913964375495,-0.162825828984424,-109.82995506205258,-65.8990509847622,-6.856665996646211,0.1761,-0.8183,-0.5439,-0.0598
234498.0,176.604346,1.0,2.57,-2.23,-9.06,-6.0,-9.38,42.25,-1.31,-3.06,1.25,-0.138103816422658,0.18057598668453345,0.13143839255066148,-109.8498937322769,-65.8990509847622,-6.7418724197947295,0.1759,-0.8184,-0.5439,-0.0588
234530.0,176.612395,1.0,2.66,-2.08,-9.17,-5.19,-9.38,43.06,-1.25,0.06,0.63,0.04315209899931838,0.1875451186622213,0.03660062833262678,-109.90973941260323,-65.85808871965587,-6.7418724197947295,0.1756,-0.8187,-0.5436,-0.0588
234567.0,176.649335,1.0,2.82,-2.37,-9.37,-5.19,-9.75,42.25,1.19,-0.44,0.44,-0.1296952790967465,0.02753929329070376,-0.260555209088821,-109.86983734458828,-65.85808871965587,-6.730393436549607,0.1762,-0.8185,-0.5436,-0.0587
234602.0,176.65565,1.0,2.77,-2.19,-9.32,-5.19,-9.75,42.25,0.19,-1.94,2.0,0.01449140230563395,0.10318418986611703,-0.15931924650186424,-109.92969787688708,-65.81713593554738,-6.6729995322127,0.1758,-0.8188,-0.5433,-0.0582
234635.0,176.670104,1.0,2.76,-2.03,-9.19,-6.69,-10.19,42.69,-0.5,1.31,-1.0,0.14098747845444204,0.1165359881248954,0.0004712389131533712,-109.96962968750276,-65.80348711235835,-6.6729995322127,0.1755,-0.8190000000000001,-0.5432,-0.0582
234670.0,176.672364,1.0,2.84,-2.48,-9.34,-6.38,-9.38,43.06,4.19,-1.12,0.56,-0.20505815252907644,-0.04672992336496201,-0.2634725150612578,-109.90973941260323,-65.83078581086856,-6.615607303690656,0.1764,-0.8187,-0.5434,-0.0577
234704.0,176.67921,1.0,2.74,-2.29,-9.34,-6.38,-9.06,43.06,-2.31,-1.56,1.88,-0.07258940914513401,0.09196679091037653,-0.19202855704190647,-109.98960304245053,-65.78983934086463,-6.581172764918962,0.1758,-0.8191,-0.5431,-0.0574
234739.0,176.71347,1.0,2.84,-2.15,-9.34,-6.38,-9.06,43.06,-0.12,1.69,0.12,0.0959330103728444,0.053707116625414886,-0.18892964317951133,-110.00958136957878,-65.76254695121683,-6.581172764918962,0.1758,-0.8192,-0.5429,-0.0574
234776.0,176.726932,1.0,2.69,-2.31,-9.33,-6.0,-9.38,43.5,0.25,-3.0,0.81,-0.100803434325492,0.12267262858566375,-0.1731240502390179,-110.00958136957878,-65.76254695121683,-6.523783187455053,0.17600000000000002,-0.8192,-0.5429,-0.0569
234809.0,176.72968999999995,1.0,2.65,-2.22,-9.17,-6.38,-9.38,42.69,0.19,0.44,0.37,-0.0523590578892772,0.1269225429911407,0.007622027943911647,-110.00958136957878,-65.76254695121683,-6.512305468988996,0.1757,-0.8192,-0.5429,-0.0568
234846.0,176.73206100000004,1.0,2.76,-2.34,-9.28,-6.38,-9.38,42.69,-0.12,1.5,0.37,-0.09791564050280276,0.032080272158571836,-0.15331904530747842,-110.02956467321043,-65.73525876311373,-6.48935022815341,0.1761,-0.8193,-0.5427,-0.0566
234881.0,176.738599,1.0,2.77,-2.23,-9.33,-7.5,-9.38,41.88,0.88,-2.06,1.69,0.011863651863383229,0.07420600863347315,-0.17779053124896824,-110.08954448644468,-65.69433435122963,-6.4778727055513645,0.1759,-0.8196,-0.5424,-0.0565
234915.0,176.776282,1.0,2.65,-2.29,-9.1,-6.0,-9.38,42.0,0.12,-1.44,0.94,-0.10520179870837264,0.06715611565596802,0.05672576246468885,-110.1295559906411,-65.65341937322533,-6.409008932036036,0.1757,-0.8198,-0.5421,-0.0559
234950.0,176.830939,1.0,2.59,-2.29,-9.16,-6.0,-9.38,42.0,0.81,0.75,0.12,-0.12031511194988775,0.13776137622397522,0.017658934672711624,-110.1495692444103,-65.65341937322533,-6.386054856968827,0.1757,-0.8199,-0.5421,-0.0557
234983.0,176.847547,1.0,2.73,-2.25,-9.37,-6.69,-9.38,43.06,-0.44,-0.5,1.75,-0.0036756427576603024,0.10464315248602823,-0.2084054816380405,-110.1896107771162,-65.59888072386629,-6.386054856968827,0.1758,-0.8201,-0.5417,-0.0557
235018.0,176.89541100000002,1.0,2.68,-2.18,-9.24,-6.0,-9.38,42.25,-1.69,0.06,1.5,0.027182871620581084,0.1251590065118034,-0.05722329169324958,-110.24971070475245,-65.54435879722949,-6.386054856968827,0.1757,-0.8204,-0.5413,-0.0557
235055.0,176.92438700000002,1.0,2.6,-2.15,-9.08,-5.56,-9.06,43.88,-1.63,-0.56,-0.37,0.0036450929492681814,0.1442102292543504,0.12119233796482655,-110.28980246010521,-65.51710409627202,-6.386054856968827,0.1754,-0.8206,-0.5411,-0.0557
235087.0,176.98980500000005,1.0,2.77,-2.44,-9.41,-5.56,-9.06,43.88,1.31,0.12,1.44,-0.1479679712062767,0.012569858394487043,-0.3004043422976128,-110.28980246010521,-65.50347830987022,-6.351624225020216,0.1758,-0.8206,-0.541,-0.0554
235122.0,176.99835900000005,1.0,2.7,-2.09,-9.17,-6.0,-9.75,42.69,-2.63,-0.37,1.0,0.1124080835062784,0.1031134249382008,0.02279942651105493,-110.34997788662331,-65.44898558136794,-6.351624225020216,0.1752,-0.8209,-0.5406,-0.0554
235159.0,177.04316699999995,1.0,2.65,-2.27,-9.27,-6.0,-9.38,43.19,1.12,-1.12,-0.31,-0.0556169560133748,0.11308050277988375,-0.09751172899528447,-110.34997788662331,-65.47622986306104,-6.3057176080928565,0.1752,-0.8209,-0.5408,-0.055
235194.0,177.112416,1.0,2.65,-2.36,-9.31,-6.0,-9.38,43.19,-0.44,0.12,1.63,-0.1292441321062987,0.09279713273198698,-0.15542230682817504,-110.37004645806756,-65.44898558136794,-6.282764679968377,0.1752,-0.821,-0.5406,-0.0548
235229.0,177.127875,1.0,2.66,-2.18,-9.26,-6.38,-9.06,42.75,0.0,-0.69,-0.63,0.031534841088473486,0.12457078472866913,-0.07055039653897133,-110.37004645806756,-65.44898558136794,-6.271288310584378,0.1749,-0.821,-0.5406,-0.0547
235266.0,177.132276,1.0,2.67,-2.34,-9.2,-5.56,-8.69,43.06,1.81,-0.5,0.0,-0.10781514244049584,0.04036559445625745,-0.05394057632172178,-110.34997788662331,-65.4626072017906,-6.236859579751598,0.1752,-0.8209,-0.5407,-0.0544
235298.0,177.185305,1.0,2.72,-2.31,-9.28,-5.56,-8.69,43.06,1.0,0.75,0.88,-0.04897456632459618,0.035568844337149415,-0.1356453259881505,-110.37004645806756,-65.44898558136794,-6.225383461526625,0.1753,-0.821,-0.5406,-0.0543
235333.0,177.201124,1.0,2.65,-2.29,-9.39,-6.69,-9.38,43.06,0.37,-0.31,0.88,-0.046213712785542205,0.142813296000535,-0.21413682815057555,-110.4101987714497,-65.40812696087787,-6.225383461526625,0.1754,-0.8212,-0.5403,-0.0543
235368.0,177.289637,1.0,2.76,-2.36,-9.41,-6.38,-9.38,42.25,1.94,1.37,0.81,-0.058167551379363136,0.03603605351633799,-0.27950972205544033,-110.4101987714497,-65.40812696087787,-6.225383461526625,0.1758,-0.8212,-0.5403,-0.0543
235403.0,177.296744,1.0,2.66,-2.2,-9.3,-6.38,-9.38,42.25,-1.88,-1.06,0.63,0.03159960892853997,0.13448794699493516,-0.11234765383724188,-110.45037134177934,-65.3672776925159,-6.225383461526625,0.1754,-0.8214,-0.54,-0.0543
235438.0,177.338372,1.0,2.61,-2.12,-9.25,-6.38,-9.06,42.69,1.19,-2.25,0.88,0.08095970117548279,0.1824256329399837,-0.03353121861747255,-110.45037134177934,-65.38089307689471,-6.190955481383822,0.1752,-0.8214,-0.5401,-0.054000000000000006
235472.0,177.343853,1.0,2.63,-2.34,-9.27,-6.0,-9.06,42.69,2.81,-0.19,-0.75,-0.08920994266989157,0.09570091311980784,-0.10840334939539707,-110.4101987714497,-65.39450949953873,-6.099150260471113,0.1758,-0.8212,-0.5402,-0.0532
