,TIME,ELAPSED_SECONDS,PSTATE,acc_x,acc_y,acc_z,mag_x,mag_y,mag_z,gyr_x,gyr_y,gyr_z,lin_x,lin_y,lin_z,eul_x,eul_y,eul_z,qua_w,qua_x,qua_y,qua_z
0,1434134.0,909.9918369999999,1.0,6.99,3.07,-6.14,-3.69,-20.19,27.37,-0.81,1.75,0.19,-0.15788554631953694,0.08448420111644127,0.011113538221852792,-96.50733558762144,-59.973537976801865,-51.39248622701663,0.0745,-0.7461,-0.4998,-0.4336
1,1434134.0,909.9918369999999,1.0,6.99,3.07,-6.14,-3.69,-20.19,27.37,-0.81,1.75,0.19,-0.15788554631953694,0.08448420111644127,0.011113538221852792,-96.50733558762144,-59.973537976801865,-51.39248622701663,0.0745,-0.7461,-0.4998,-0.4336
2,1434169.0,909.995684,1.0,7.16,3.22,-6.35,-4.5,-19.5,28.19,-1.63,6.63,0.37,-0.14685265495849806,0.17797825842566284,-0.2880643613506688,-96.40412626430498,-59.96030828751041,-51.50696474252449,0.0752,-0.7455,-0.4997,-0.4345
3,1434169.0,909.995684,1.0,7.16,3.22,-6.35,-4.5,-19.5,28.19,-1.63,6.63,0.37,-0.14685265495849806,0.17797825842566284,-0.2880643613506688,-96.40412626430498,-59.96030828751041,-51.50696474252449,0.0752,-0.7455,-0.4997,-0.4345
4,1434204.0,910.094684,1.0,7.09,3.31,-5.88,-3.69,-19.5,28.19,-0.06,4.69,-0.19,0.15992442060566436,0.035078002514076216,0.02034356123396286,-96.30102081146677,-59.89417305003661,-51.71061852077841,0.0753,-0.7449,-0.4992,-0.4361
5,1434204.0,910.094684,1.0,7.09,3.31,-5.88,-3.69,-19.5,28.19,-0.06,4.69,-0.19,0.15992442060566436,0.035078002514076216,0.02034356123396286,-96.30102081146677,-59.89417305003661,-51.71061852077841,0.0753,-0.7449,-0.4992,-0.4361
6,1434238.0,910.1036869999999,1.0,7.17,3.34,-6.01,-3.69,-19.5,28.19,0.5,9.44,-1.75,0.09812013305901184,0.09522801788223513,-0.126421230193543,-96.1465565233062,-59.90739833750701,-51.901703351821595,0.0762,-0.7440000000000001,-0.4993,-0.4376
7,1434238.0,910.1036869999999,1.0,7.17,3.34,-6.01,-3.69,-19.5,28.19,0.5,9.44,-1.75,0.09812013305901184,0.09522801788223513,-0.126421230193543,-96.1465565233062,-59.90739833750701,-51.901703351821595,0.0762,-0.7440000000000001,-0.4993,-0.4376
8,1434273.0,910.1408359999999,1.0,7.11,3.1,-6.11,-4.88,-19.75,28.56,0.69,10.0,-2.38,-0.1955915694259636,0.12026271254728015,-0.06459515033135688,-95.78703781823206,-59.99999999999999,-52.19500183844674,0.078,-0.7419,-0.5,-0.4399
9,1434273.0,910.1408359999999,1.0,7.11,3.1,-6.11,-4.88,-19.75,28.56,0.69,10.0,-2.38,-0.1955915694259636,0.12026271254728015,-0.06459515033135688,-95.78703781823206,-59.99999999999999,-52.19500183844674,0.078,-0.7419,-0.5,-0.4399
10,1434308.0,910.2104130000001,1.0,7.29,3.26,-5.94,-4.06,-20.19,29.37,-0.31,9.06,0.0,0.025990059082361742,0.018619891821354262,-0.1459515602181849,-95.58215802399698,-59.99999999999999,-52.42479644291255,0.0791,-0.7407,-0.5,-0.4417
11,1434308.0,910.2104130000001,1.0,7.29,3.26,-5.94,-4.06,-20.19,29.37,-0.31,9.06,0.0,0.025990059082361742,0.018619891821354262,-0.1459515602181849,-95.58215802399698,-59.99999999999999,-52.42479644291255,0.0791,-0.7407,-0.5,-0.4417
12,1434341.0,910.227534,1.0,7.36,3.34,-5.9,-4.06,-20.19,29.37,-2.5,11.56,-1.31,0.07469950486602306,0.04217489322774126,-0.1997400214989629,-95.29260089270693,-59.94707947928739,-52.80829290405338,0.0803,-0.7390000000000001,-0.4996,-0.4447
13,1434341.0,910.227534,1.0,7.36,3.34,-5.9,-4.06,-20.19,29.37,-2.5,11.56,-1.31,0.07469950486602306,0.04217489322774126,-0.1997400214989629,-95.29260089270693,-59.94707947928739,-52.80829290405338,0.0803,-0.7390000000000001,-0.4996,-0.4447
14,1434376.0,910.230542,1.0,7.31,3.29,-6.03,-4.88,-20.19,28.19,-3.44,3.75,-1.56,-0.07117947628477711,0.14829243435735018,-0.22300816147630087,-95.13963050405614,-59.94707947928739,-53.000280019764396,0.0808,-0.7381,-0.4996,-0.4462
15,1434376.0,910.230542,1.0,7.31,3.29,-6.03,-4.88,-20.19,28.19,-3.44,3.75,-1.56,-0.07117947628477711,0.14829243435735018,-0.22300816147630087,-95.13963050405614,-59.94707947928739,-53.000280019764396,0.0808,-0.7381,-0.4996,-0.4462
16,1434411.0,910.310073,1.0,7.15,3.23,-5.66,-4.5,-19.75,28.19,2.38,-0.63,-0.56,0.07822473478020593,0.010566355574777477,0.1327278769416136,-95.1226475867278,-59.9867685475142,-52.97467248448692,0.0807,-0.738,-0.4999,-0.446
17,1434411.0,910.310073,1.0,7.15,3.23,-5.66,-4.5,-19.75,28.19,2.38,-0.63,-0.56,0.07822473478020593,0.010566355574777477,0.1327278769416136,-95.1226475867278,-59.9867685475142,-52.97467248448692,0.0807,-0.738,-0.4999,-0.446
18,1434447.0,910.320743,1.0,7.31,3.31,-5.9,-5.56,-20.19,26.56,-1.44,4.63,-0.37,0.007744530282017936,0.09266923331633793,-0.15294599760187566,-95.03777424913531,-59.973537976801865,-53.077119755232744,0.081,-0.7375,-0.4998,-0.4468
19,1434447.0,910.320743,1.0,7.31,3.31,-5.9,-5.56,-20.19,26.56,-1.44,4.63,-0.37,0.007744530282017936,0.09266923331633793,-0.15294599760187566,-95.03777424913531,-59.973537976801865,-53.077119755232744,0.081,-0.7375,-0.4998,-0.4468
20,1434480.0,910.378127,1.0,7.35,3.32,-5.88,-5.56,-20.19,26.56,-0.12,2.75,-0.56,0.01881237143812109,0.07601753343677498,-0.17398963026874448,-94.96992497557171,-59.96030828751041,-53.19242764249977,0.0814,-0.7371,-0.4997,-0.4477
21,1434480.0,910.378127,1.0,7.35,3.32,-5.88,-5.56,-20.19,26.56,-0.12,2.75,-0.56,0.01881237143812109,0.07601753343677498,-0.17398963026874448,-94.96992497557171,-59.96030828751041,-53.19242764249977,0.0814,-0.7371,-0.4997,-0.4477
22,1434517.0,910.4288439999999,1.0,7.38,3.35,-5.99,-4.88,-19.75,27.0,-1.44,2.44,-0.63,-0.025620715266335026,0.1416467042682341,-0.27036740546870064,-94.91906676360666,-59.96030828751041,-53.25651268144825,0.0816,-0.7368,-0.4997,-0.4482
23,1434517.0,910.4288439999999,1.0,7.38,3.35,-5.99,-4.88,-19.75,27.0,-1.44,2.44,-0.63,-0.025620715266335026,0.1416467042682341,-0.27036740546870064,-94.91906676360666,-59.96030828751041,-53.25651268144825,0.0816,-0.7368,-0.4997,-0.4482
24,1434552.0,910.4386789999999,1.0,7.31,3.19,-5.7,-5.19,-19.75,29.0,2.56,-0.06,-1.0,0.0035550206560873154,-0.05465213524408319,0.003630031340268402,-94.8512940516321,-60.01323233461206,-53.25651268144825,0.0818,-0.7364,-0.5001,-0.4482
25,1434552.0,910.4386789999999,1.0,7.31,3.19,-5.7,-5.19,-19.75,29.0,2.56,-0.06,-1.0,0.0035550206560873154,-0.05465213524408319,0.003630031340268402,-94.8512940516321,-60.01323233461206,-53.25651268144825,0.0818,-0.7364,-0.5001,-0.4482
26,1434587.0,910.442112,1.0,7.3,3.22,-5.83,-5.19,-19.75,29.0,-1.5,0.88,-0.31,-0.05413231191572177,0.04048507235916498,-0.07478363342196026,-94.81742405266395,-60.02646555170329,-53.28215172783013,0.0817,-0.7362,-0.5002,-0.4484
27,1434587.0,910.442112,1.0,7.3,3.22,-5.83,-5.19,-19.75,29.0,-1.5,0.88,-0.31,-0.05413231191572177,0.04048507235916498,-0.07478363342196026,-94.81742405266395,-60.02646555170329,-53.28215172783013,0.0817,-0.7362,-0.5002,-0.4484
28,1434619.0,910.541625,1.0,7.23,3.16,-5.88,-5.19,-19.75,27.75,-0.69,1.0,-0.37,-0.1445355618509293,0.0887083959695838,-0.03225950724951865,-94.80049313653744,-60.01323233461206,-53.320615694584525,0.0816,-0.7361,-0.5001,-0.4487
29,1434619.0,910.541625,1.0,7.23,3.16,-5.88,-5.19,-19.75,27.75,-0.69,1.0,-0.37,-0.1445355618509293,0.0887083959695838,-0.03225950724951865,-94.80049313653744,-60.01323233461206,-53.320615694584525,0.0816,-0.7361,-0.5001,-0.4487
30,1434656.0,910.620074,1.0,7.4,3.53,-5.73,-4.88,-19.5,27.37,-4.38,2.13,1.25,0.2459213705393383,0.07891837134993862,-0.19270470768866765,-94.80049313653744,-59.93385155178053,-53.410390176662865,0.0813,-0.7361,-0.4995,-0.4494
31,1434656.0,910.620074,1.0,7.4,3.53,-5.73,-4.88,-19.5,27.37,-4.38,2.13,1.25,0.2459213705393383,0.07891837134993862,-0.19270470768866765,-94.80049313653744,-59.93385155178053,-53.410390176662865,0.0813,-0.7361,-0.4995,-0.4494
32,1434691.0,910.696181,1.0,7.41,3.19,-5.93,-4.88,-19.5,27.37,0.88,2.31,-1.37,-0.15557191058089048,0.025934848416109046,-0.20455496065662795,-94.76663946259286,-59.920624504637715,-53.48736790080603,0.0812,-0.7359,-0.4994,-0.45
33,1434691.0,910.696181,1.0,7.41,3.19,-5.93,-4.88,-19.5,27.37,0.88,2.31,-1.37,-0.15557191058089048,0.025934848416109046,-0.20455496065662795,-94.76663946259286,-59.920624504637715,-53.48736790080603,0.0812,-0.7359,-0.4994,-0.45
34,1434726.0,910.7417849999999,1.0,7.33,3.26,-5.9,-4.88,-20.19,27.75,-1.19,0.0,0.19,-0.09211838032957848,0.10037355631018884,-0.1506558280440018,-94.7327966552025,-59.93385155178053,-53.513032931572866,0.0814,-0.7357,-0.4995,-0.4502
35,1434726.0,910.7417849999999,1.0,7.33,3.26,-5.9,-4.88,-20.19,27.75,-1.19,0.0,0.19,-0.09211838032957848,0.10037355631018884,-0.1506558280440018,-94.7327966552025,-59.93385155178053,-53.513032931572866,0.0814,-0.7357,-0.4995,-0.4502
36,1434759.0,910.7574609999999,1.0,7.28,3.38,-5.75,-5.56,-19.75,28.56,-0.81,0.12,0.75,0.08496487920603102,0.10631446359231944,-0.06587643471429949,-94.74971670141693,-59.90739833750701,-53.525866533741606,0.0812,-0.7358,-0.4993,-0.4503
37,1434759.0,910.7574609999999,1.0,7.28,3.38,-5.75,-5.56,-19.75,28.56,-0.81,0.12,0.75,0.08496487920603102,0.10631446359231944,-0.06587643471429949,-94.74971670141693,-59.90739833750701,-53.525866533741606,0.0812,-0.7358,-0.4993,-0.4503
38,1434796.0,910.760184,1.0,7.29,3.33,-5.74,-5.56,-20.56,25.69,-0.12,3.5,-0.12,0.039943468960712165,0.08179494792757391,-0.0509518435408971,-94.68205278958663,-59.88094864187493,-53.61572206207956,0.0814,-0.7354,-0.4991,-0.451
39,1434796.0,910.760184,1.0,7.29,3.33,-5.74,-5.56,-20.56,25.69,-0.12,3.5,-0.12,0.039943468960712165,0.08179494792757391,-0.0509518435408971,-94.68205278958663,-59.88094864187493,-53.61572206207956,0.0814,-0.7354,-0.4991,-0.451
40,1434830.0,910.792222,1.0,7.31,3.27,-5.75,-5.56,-20.56,25.69,0.0,6.0,-0.37,-0.02615668482112582,0.06537929935680188,-0.05167345660532519,-94.5806381366887,-59.8677251126705,-53.74414891259134,0.08199999999999999,-0.7348,-0.499,-0.452
41,1434830.0,910.792222,1.0,7.31,3.27,-5.75,-5.56,-20.56,25.69,0.0,6.0,-0.37,-0.02615668482112582,0.06537929935680188,-0.05167345660532519,-94.5806381366887,-59.8677251126705,-53.74414891259134,0.08199999999999999,-0.7348,-0.499,-0.452
42,1434865.0,910.852853,1.0,7.31,3.04,-5.93,-4.5,-19.5,27.37,0.44,8.63,-1.81,-0.34797382538047594,0.0978640165328537,-0.07828484303857941,-94.31067299052191,-59.90739833750701,-54.014083172384005,0.0834,-0.7332,-0.4993,-0.4541
43,1434865.0,910.852853,1.0,7.31,3.04,-5.93,-4.5,-19.5,27.37,0.44,8.63,-1.81,-0.34797382538047594,0.0978640165328537,-0.07828484303857941,-94.31067299052191,-59.90739833750701,-54.014083172384005,0.0834,-0.7332,-0.4993,-0.4541
44,1434900.0,910.8601039999999,1.0,7.45,3.13,-5.77,-4.88,-19.75,26.56,-3.69,4.06,1.63,-0.18196588397948846,-0.01991843312557462,-0.12102806050787507,-94.24328884347399,-59.84128068972836,-54.14273717736637,0.0839,-0.7328,-0.4988,-0.4551
45,1434900.0,910.8601039999999,1.0,7.45,3.13,-5.77,-4.88,-19.75,26.56,-3.69,4.06,1.63,-0.18196588397948846,-0.01991843312557462,-0.12102806050787507,-94.24328884347399,-59.84128068972836,-54.14273717736637,0.0839,-0.7328,-0.4988,-0.4551
46,1434933.0,910.8777439999999,1.0,7.43,3.51,-5.76,-4.88,-19.75,26.56,-2.5,0.69,0.88,0.10794677545613746,0.1822350772086836,-0.22618299324290625,-94.27697557969387,-59.695899058507344,-54.28434190943172,0.0831,-0.733,-0.4977,-0.4562
47,1434933.0,910.8777439999999,1.0,7.43,3.51,-5.76,-4.88,-19.75,26.56,-2.5,0.69,0.88,0.10794677545613746,0.1822350772086836,-0.22618299324290625,-94.27697557969387,-59.695899058507344,-54.28434190943172,0.0831,-0.733,-0.4977,-0.4562
48,1434970.0,910.8806460000001,1.0,7.46,3.38,-5.91,-6.0,-20.56,29.0,0.63,0.88,-1.5,-0.08827326155599385,0.1885698240555227,-0.2909115498371637,-94.24328884347399,-59.695899058507344,-54.32297694444978,0.0831,-0.7328,-0.4977,-0.4565
49,1434970.0,910.8806460000001,1.0,7.46,3.38,-5.91,-6.0,-20.56,29.0,0.63,0.88,-1.5,-0.08827326155599385,0.1885698240555227,-0.2909115498371637,-94.24328884347399,-59.695899058507344,-54.32297694444978,0.0831,-0.7328,-0.4977,-0.4565
50,1435004.0,910.9153660000001,1.0,7.34,3.36,-5.66,-5.56,-20.19,27.0,-1.5,-0.75,-0.44,0.02988955866361748,0.10531840983913933,-0.051788753009113016,-94.26013087807388,-59.709111193175715,-54.31009785710634,0.0827,-0.7329,-0.4978,-0.4564
51,1435004.0,910.9153660000001,1.0,7.34,3.36,-5.66,-5.56,-20.19,27.0,-1.5,-0.75,-0.44,0.02988955866361748,0.10531840983913933,-0.051788753009113016,-94.26013087807388,-59.709111193175715,-54.31009785710634,0.0827,-0.7329,-0.4978,-0.4564
52,1435039.0,910.921699,1.0,7.27,3.19,-5.5,-5.56,-20.19,27.0,1.12,1.75,-0.37,-0.018398799480382252,-0.022293784931553432,0.14858785113539952,-94.24328884347399,-59.72232420224728,-54.31009785710634,0.0829,-0.7328,-0.4979,-0.4564
53,1435039.0,910.921699,1.0,7.27,3.19,-5.5,-5.56,-20.19,27.0,1.12,1.75,-0.37,-0.018398799480382252,-0.022293784931553432,0.14858785113539952,-94.24328884347399,-59.72232420224728,-54.31009785710634,0.0829,-0.7328,-0.4979,-0.4564
54,1435074.0,910.938158,1.0,7.35,3.2,-5.69,-6.0,-20.19,27.37,-0.56,6.25,0.81,-0.1310761854245064,0.06458689588595945,-0.022757284597291868,-94.12546914110418,-59.695899058507344,-54.46469598924939,0.0836,-0.7321,-0.4977,-0.4576
55,1435074.0,910.938158,1.0,7.35,3.2,-5.69,-6.0,-20.19,27.37,-0.56,6.25,0.81,-0.1310761854245064,0.06458689588595945,-0.022757284597291868,-94.12546914110418,-59.695899058507344,-54.46469598924939,0.0836,-0.7321,-0.4977,-0.4576
56,1435109.0,910.9772109999999,1.0,7.61,3.18,-5.77,-6.0,-20.56,27.37,-2.25,5.56,0.44,-0.1907444165458822,-0.04175714791034402,-0.25711037612953896,-94.00777948611471,-59.64305925688446,-54.63229852978135,0.0842,-0.7314,-0.4973,-0.4589
57,1435109.0,910.9772109999999,1.0,7.61,3.18,-5.77,-6.0,-20.56,27.37,-2.25,5.56,0.44,-0.1907444165458822,-0.04175714791034402,-0.25711037612953896,-94.00777948611471,-59.64305925688446,-54.63229852978135,0.0842,-0.7314,-0.4973,-0.4589
58,1435144.0,911.040453,1.0,7.36,3.3,-5.48,-6.0,-20.56,27.37,-3.0,0.0,0.19,0.043555240765578866,0.016292911318036785,0.05535072851608902,-94.00777948611471,-59.577029137074135,-54.70969624515614,0.0838,-0.7314,-0.4968,-0.4595
59,1435144.0,911.040453,1.0,7.36,3.3,-5.48,-6.0,-20.56,27.37,-3.0,0.0,0.19,0.043555240765578866,0.016292911318036785,0.05535072851608902,-94.00777948611471,-59.577029137074135,-54.70969624515614,0.0838,-0.7314,-0.4968,-0.4595
60,1435176.0,911.1418769999999,1.0,7.4,3.29,-5.58,-5.19,-20.19,27.37,-1.94,5.75,0.25,-0.03314911233085621,0.059782901177263266,-0.02777052899297594,-93.94058643018808,-59.53742151899626,-54.825843565521545,0.0841,-0.731,-0.4965,-0.4604
61,1435176.0,911.1418769999999,1.0,7.4,3.29,-5.58,-5.19,-20.19,27.37,-1.94,5.75,0.25,-0.03314911233085621,0.059782901177263266,-0.02777052899297594,-93.94058643018808,-59.53742151899626,-54.825843565521545,0.0841,-0.731,-0.4965,-0.4604
62,1435213.0,911.191075,1.0,7.34,3.4,-5.5,-6.0,-20.56,26.56,-4.25,9.25,-2.25,0.046097901285920666,0.14496161978816113,0.02593115564681625,-93.68898731021123,-59.48462353821214,-55.200512683923186,0.0844,-0.7295,-0.4961,-0.4633
63,1435213.0,911.191075,1.0,7.34,3.4,-5.5,-6.0,-20.56,26.56,-4.25,9.25,-2.25,0.046097901285920666,0.14496161978816113,0.02593115564681625,-93.68898731021123,-59.48462353821214,-55.200512683923186,0.0844,-0.7295,-0.4961,-0.4633
64,1435248.0,911.1951310000001,1.0,7.63,3.37,-5.61,-6.38,-20.56,26.56,-4.63,15.81,1.5,-0.057583191553254365,0.06314017758346102,-0.2451457347941215,-93.40455194632291,-59.43183945325738,-55.53696813006854,0.086,-0.7278,-0.4957,-0.4659
65,1435248.0,911.1951310000001,1.0,7.63,3.37,-5.61,-6.38,-20.56,26.56,-4.63,15.81,1.5,-0.057583191553254365,0.06314017758346102,-0.2451457347941215,-93.40455194632291,-59.43183945325738,-55.53696813006854,0.086,-0.7278,-0.4957,-0.4659
66,1435283.0,911.211164,1.0,7.7,3.66,-5.54,-6.38,-20.56,26.56,-5.81,16.06,-1.69,0.13628204747015465,0.201093143591526,-0.3579055117347778,-92.98762003555102,-59.2735703520065,-56.18546670575561,0.087,-0.7253,-0.4945,-0.4709
67,1435283.0,911.211164,1.0,7.7,3.66,-5.54,-6.38,-20.56,26.56,-5.81,16.06,-1.69,0.13628204747015465,0.201093143591526,-0.3579055117347778,-92.98762003555102,-59.2735703520065,-56.18546670575561,0.087,-0.7253,-0.4945,-0.4709
68,1435318.0,911.2140300000001,1.0,7.64,3.29,-5.34,-5.19,-21.25,27.37,3.0,24.25,-8.25,-0.10684556006046364,0.009563780940252007,-0.07756937030889333,-92.40658485258841,-59.418645600644645,-56.67963771453915,0.0897,-0.7218,-0.4956,-0.4747
69,1435318.0,911.2140300000001,1.0,7.64,3.29,-5.34,-5.19,-21.25,27.37,3.0,24.25,-8.25,-0.10684556006046364,0.009563780940252007,-0.07756937030889333,-92.40658485258841,-59.418645600644645,-56.67963771453915,0.0897,-0.7218,-0.4956,-0.4747
70,1435355.0,911.270194,1.0,7.74,2.83,-5.44,-6.69,-21.25,27.37,6.25,21.19,-4.94,-0.6035906920991633,-0.1225563077057248,-0.04884380943708955,-91.6311343711985,-59.64305925688446,-57.26633156409672,0.0936,-0.7171,-0.4973,-0.4792
71,1435355.0,911.270194,1.0,7.74,2.83,-5.44,-6.69,-21.25,27.37,6.25,21.19,-4.94,-0.6035906920991633,-0.1225563077057248,-0.04884380943708955,-91.6311343711985,-59.64305925688446,-57.26633156409672,0.0936,-0.7171,-0.4973,-0.4792
72,1435389.0,911.273594,1.0,7.84,3.06,-5.26,-6.69,-21.25,27.37,-5.06,3.38,-2.5,-0.3474390042900507,-0.16587314825831798,-0.11043486587590046,-91.46684165640444,-59.616644593421185,-57.51453883608689,0.0932,-0.7161,-0.4971,-0.4811
73,1435389.0,911.273594,1.0,7.84,3.06,-5.26,-6.69,-21.25,27.37,-5.06,3.38,-2.5,-0.3474390042900507,-0.16587314825831798,-0.11043486587590046,-91.46684165640444,-59.616644593421185,-57.51453883608689,0.0932,-0.7161,-0.4971,-0.4811
74,1435422.0,911.325593,1.0,7.79,3.08,-5.01,-6.69,-20.56,27.75,-5.44,5.69,-6.44,-0.24813653609898126,-0.27549166449313045,0.05302848785141556,-91.2044746461752,-59.656267897430276,-57.82848630952777,0.0917,-0.7145,-0.4974,-0.4835
75,1435422.0,911.325593,1.0,7.79,3.08,-5.01,-6.69,-20.56,27.75,-5.44,5.69,-6.44,-0.24813653609898126,-0.27549166449313045,0.05302848785141556,-91.2044746461752,-59.656267897430276,-57.82848630952777,0.0917,-0.7145,-0.4974,-0.4835
76,1435459.0,911.332981,1.0,7.77,3.22,-5.18,-7.06,-20.56,26.19,-14.44,-0.63,-4.19,-0.3038478123632256,-0.0909771679259721,-0.06619658352585668,-91.05716253041412,-59.56382572725951,-58.15602096155954,0.0894,-0.7136,-0.4967,-0.486
77,1435459.0,911.332981,1.0,7.77,3.22,-5.18,-7.06,-20.56,26.19,-14.44,-0.63,-4.19,-0.3038478123632256,-0.0909771679259721,-0.06619658352585668,-91.05716253041412,-59.56382572725951,-58.15602096155954,0.0894,-0.7136,-0.4967,-0.486
78,1435494.0,911.4383359999999,1.0,8.34,3.35,-5.65,-7.06,-20.56,26.19,-17.37,-11.69,-5.94,-0.5167309432768248,-0.19243398724584915,-0.7950743075271927,-91.30279024652515,-59.418645600644645,-58.15602096155954,0.0827,-0.7151,-0.4956,-0.486
79,1435494.0,911.4383359999999,1.0,8.34,3.35,-5.65,-7.06,-20.56,26.19,-17.37,-11.69,-5.94,-0.5167309432768248,-0.19243398724584915,-0.7950743075271927,-91.30279024652515,-59.418645600644645,-58.15602096155954,0.0827,-0.7151,-0.4956,-0.486
80,1435529.0,911.4922710000001,1.0,9.43,2.93,-6.03,-6.69,-20.19,27.37,-8.25,-57.69,-17.94,-1.0069725999911174,-1.1342252173260388,-1.6637571130561408,-91.96044935664196,-59.656267897430276,-57.35774212215939,0.0724,-0.7191,-0.4974,-0.4799
81,1435529.0,911.4922710000001,1.0,9.43,2.93,-6.03,-6.69,-20.19,27.37,-8.25,-57.69,-17.94,-1.0069725999911174,-1.1342252173260388,-1.6637571130561408,-91.96044935664196,-59.656267897430276,-57.35774212215939,0.0724,-0.7191,-0.4974,-0.4799
82,1435564.0,911.495952,1.0,8.34,1.54,-5.54,-6.38,-21.25,26.56,-14.81,-67.75,-17.0,-1.7364406010044662,-1.875505742102608,0.00430067697934966,-93.17087251757091,-60.278064818090016,-55.56287082864312,0.0544,-0.7264,-0.5021,-0.4661
83,1435564.0,911.495952,1.0,8.34,1.54,-5.54,-6.38,-21.25,26.56,-14.81,-67.75,-17.0,-1.7364406010044662,-1.875505742102608,0.00430067697934966,-93.17087251757091,-60.278064818090016,-55.56287082864312,0.0544,-0.7264,-0.5021,-0.4661
84,1435600.0,911.5128,1.0,9.28,2.83,-7.53,-3.69,-22.5,27.0,-78.75,-71.19,-17.62,-1.9573083457052982,-1.2547588239532304,-2.252484476965744,-94.37809988831016,-59.775184989554425,-54.890396236957464,0.0333,-0.7336,-0.4983,-0.4609
85,1435600.0,911.5128,1.0,9.28,2.83,-7.53,-3.69,-22.5,27.0,-78.75,-71.19,-17.62,-1.9573083457052982,-1.2547588239532304,-2.252484476965744,-94.37809988831016,-59.775184989554425,-54.890396236957464,0.0333,-0.7336,-0.4983,-0.4609
86,1435633.0,911.5156800000001,1.0,8.55,2.41,-6.89,-3.69,-22.5,27.0,-60.63,-119.94,-30.62,-1.8794545897328685,-2.1700226884780647,-1.0626347960030245,-96.4901268036236,-59.43183945325738,-52.821087070408176,-0.0062,-0.746,-0.4957,-0.4448
87,1435633.0,911.5156800000001,1.0,8.55,2.41,-6.89,-3.69,-22.5,27.0,-60.63,-119.94,-30.62,-1.8794545897328685,-2.1700226884780647,-1.0626347960030245,-96.4901268036236,-59.43183945325738,-52.821087070408176,-0.0062,-0.746,-0.4957,-0.4448
88,1435670.0,911.552307,1.0,8.01,0.84,-5.77,-1.06,-23.19,25.69,-61.31,-124.81,-23.12,-2.1320814465665494,-3.699384042724644,0.8664382346310759,-98.4534931114122,-59.14177438587889,-50.45328632935345,-0.0365,-0.7573,-0.4935,-0.4262
89,1435670.0,911.552307,1.0,8.01,0.84,-5.77,-1.06,-23.19,25.69,-61.31,-124.81,-23.12,-2.1320814465665494,-3.699384042724644,0.8664382346310759,-98.4534931114122,-59.14177438587889,-50.45328632935345,-0.0365,-0.7573,-0.4935,-0.4262
90,1435707.0,911.621857,1.0,8.16,0.19,-8.07,2.25,-24.06,24.87,-101.12,-151.5,8.63,-3.9033640420505535,-4.367872109643438,-0.06411706183596699,-101.12175699059144,-57.436125785536824,-48.08322235291628,-0.0822,-0.7723,-0.4805,-0.4074
91,1435707.0,911.621857,1.0,8.16,0.19,-8.07,2.25,-24.06,24.87,-101.12,-151.5,8.63,-3.9033640420505535,-4.367872109643438,-0.06411706183596699,-101.12175699059144,-57.436125785536824,-48.08322235291628,-0.0822,-0.7723,-0.4805,-0.4074
92,1435742.0,911.711418,1.0,7.58,0.9,-6.33,2.25,-24.06,24.87,-104.19,-178.31,47.25,-1.861151801804409,-4.662826565709492,1.255073397480789,-104.67057274431014,-54.516252544990145,-45.461363019954995,-0.1199,-0.7916,-0.45799999999999996,-0.3864
93,1435742.0,911.711418,1.0,7.58,0.9,-6.33,2.25,-24.06,24.87,-104.19,-178.31,47.25,-1.861151801804409,-4.662826565709492,1.255073397480789,-104.67057274431014,-54.516252544990145,-45.461363019954995,-0.1199,-0.7916,-0.45799999999999996,-0.3864
94,1435777.0,911.714845,1.0,6.31,0.74,-5.86,6.69,-25.87,22.19,-154.0,-185.44,80.44,-1.3644622563851876,-4.574221014894562,2.601232256537984,-109.79009253076951,-48.76169642019097,-42.12670509670736,-0.1765,-0.8181,-0.4128,-0.3594
95,1435777.0,911.714845,1.0,6.31,0.74,-5.86,6.69,-25.87,22.19,-154.0,-185.44,80.44,-1.3644622563851876,-4.574221014894562,2.601232256537984,-109.79009253076951,-48.76169642019097,-42.12670509670736,-0.1765,-0.8181,-0.4128,-0.3594
96,1435811.0,911.7529619999999,1.0,5.64,2.03,-2.96,8.56,-28.5,18.19,-193.25,-142.44,96.56,1.5132557394078168,-3.4116926535237946,4.260253845284662,-113.29417835148298,-41.48884440066444,-40.69340241756593,-0.2365,-0.8353,-0.3542,-0.3477
97,1435811.0,911.7529619999999,1.0,5.64,2.03,-2.96,8.56,-28.5,18.19,-193.25,-142.44,96.56,1.5132557394078168,-3.4116926535237946,4.260253845284662,-113.29417835148298,-41.48884440066444,-40.69340241756593,-0.2365,-0.8353,-0.3542,-0.3477
98,1435848.0,911.765503,1.0,7.81,4.87,-5.58,10.06,-31.87,12.25,-171.75,-131.19,114.62,1.834751734981312,-3.755061867403375,-0.11215015137698714,-114.70384241769943,-35.58852995304725,-40.5589927006499,-0.2784,-0.8420000000000001,-0.3056,-0.3466
99,1435848.0,911.765503,1.0,7.81,4.87,-5.58,10.06,-31.87,12.25,-171.75,-131.19,114.62,1.834751734981312,-3.755061867403375,-0.11215015137698714,-114.70384241769943,-35.58852995304725,-40.5589927006499,-0.2784,-0.8420000000000001,-0.3056,-0.3466
100,1435883.0,911.8155539999999,1.0,5.42,5.9,-3.02,10.06,-31.87,12.25,-185.81,-162.13,115.94,2.551463077966668,-0.6443389422145462,1.6591556925875215,-116.88163381383896,-27.265777919115557,-38.51327351873995,-0.3311,-0.8521,-0.2357,-0.3298
101,1435883.0,911.8155539999999,1.0,5.42,5.9,-3.02,10.06,-31.87,12.25,-185.81,-162.13,115.94,2.551463077966668,-0.6443389422145462,1.6591556925875215,-116.88163381383896,-27.265777919115557,-38.51327351873995,-0.3311,-0.8521,-0.2357,-0.3298
102,1435920.0,911.874134,1.0,2.58,5.89,-0.99,7.06,-33.75,4.38,-146.63,-99.0,66.06,1.7539968493994265,1.9157917564201696,3.8415987011150183,-116.83785829536993,-22.559552093060894,-37.41052638436744,-0.3649,-0.8519,-0.1956,-0.3207
103,1435920.0,911.874134,1.0,2.58,5.89,-0.99,7.06,-33.75,4.38,-146.63,-99.0,66.06,1.7539968493994265,1.9157917564201696,3.8415987011150183,-116.83785829536993,-22.559552093060894,-37.41052638436744,-0.3649,-0.8519,-0.1956,-0.3207
104,1435957.0,911.882609,1.0,5.61,7.59,-2.37,4.5,-35.69,-1.5,-201.0,-76.37,107.44,2.5526172542005416,0.5641956029570436,0.43312726438124827,-115.23680905302649,-16.350341655632345,-37.1565598653149,-0.4064,-0.8445,-0.1422,-0.3186
105,1435957.0,911.882609,1.0,5.61,7.59,-2.37,4.5,-35.69,-1.5,-201.0,-76.37,107.44,2.5526172542005416,0.5641956029570436,0.43312726438124827,-115.23680905302649,-16.350341655632345,-37.1565598653149,-0.4064,-0.8445,-0.1422,-0.3186
106,1435992.0,911.9014699999999,1.0,5.38,9.89,-1.95,4.5,-35.69,-1.5,-133.38,-107.56,54.44,1.9895019525608175,2.147306310804049,-1.23825640921587,-113.33587511663835,-11.823900394126868,-36.52850049317351,-0.4394,-0.8355,-0.10300000000000001,-0.3134
107,1435992.0,911.9014699999999,1.0,5.38,9.89,-1.95,4.5,-35.69,-1.5,-133.38,-107.56,54.44,1.9895019525608175,2.147306310804049,-1.23825640921587,-113.33587511663835,-11.823900394126868,-36.52850049317351,-0.4394,-0.8355,-0.10300000000000001,-0.3134
108,1436026.0,911.9044269999999,1.0,2.62,9.13,2.5,2.19,-34.38,-7.0,-142.13,-104.81,51.13,1.8461374867314169,5.905223774323766,2.1783206576573164,-112.19747600626744,-6.46639524800481,-33.78776111254545,-0.4728,-0.83,-0.0564,-0.2906
109,1436026.0,911.9044269999999,1.0,2.62,9.13,2.5,2.19,-34.38,-7.0,-142.13,-104.81,51.13,1.8461374867314169,5.905223774323766,2.1783206576573164,-112.19747600626744,-6.46639524800481,-33.78776111254545,-0.4728,-0.83,-0.0564,-0.2906
110,1436061.0,911.907483,1.0,3.35,11.53,1.92,-2.56,-34.88,-11.25,-132.19,-14.13,33.81,0.8592876552669064,6.0039447515253,-0.7320440436724738,-108.44628015323634,-3.140201723904295,-33.73986021591224,-0.5068,-0.8113,-0.0274,-0.2902
111,1436061.0,911.907483,1.0,3.35,11.53,1.92,-2.56,-34.88,-11.25,-132.19,-14.13,33.81,0.8592876552669064,6.0039447515253,-0.7320440436724738,-108.44628015323634,-3.140201723904295,-33.73986021591224,-0.5068,-0.8113,-0.0274,-0.2902
112,1436098.0,911.996632,1.0,4.82,9.85,-2.22,-5.06,-31.37,-17.0,-2.69,-16.37,86.69,0.07507466515299549,1.3822225014059681,-1.2959228888064125,-107.70477775616722,-1.6043342375287626,-34.843138613311,-0.5081,-0.8075,-0.013999999999999999,-0.2994
113,1436098.0,911.996632,1.0,4.82,9.85,-2.22,-5.06,-31.37,-17.0,-2.69,-16.37,86.69,0.07507466515299549,1.3822225014059681,-1.2959228888064125,-107.70477775616722,-1.6043342375287626,-34.843138613311,-0.5081,-0.8075,-0.013999999999999999,-0.2994
114,1436133.0,912.091523,1.0,2.72,9.51,1.88,-5.06,-31.37,-17.0,-10.44,-46.0,64.56,0.018417391715687792,5.460129067251359,1.3473621240237217,-108.11373745608395,1.638715147453804,-34.903193986048876,-0.5043,-0.8096,0.0143,-0.2999
115,1436133.0,912.091523,1.0,2.72,9.51,1.88,-5.06,-31.37,-17.0,-10.44,-46.0,64.56,0.018417391715687792,5.460129067251359,1.3473621240237217,-108.11373745608395,1.638715147453804,-34.903193986048876,-0.5043,-0.8096,0.0143,-0.2999
116,1436170.0,912.191592,1.0,7.09,10.25,0.5,-7.25,-31.56,-16.56,-82.69,98.0,-16.94,2.4527876422328165,3.0220045284574835,-2.0437475212687453,-105.65120455426174,1.4438918508267422,-36.21489761998581,-0.518,-0.7968,0.0126,-0.3108
117,1436170.0,912.191592,1.0,7.09,10.25,0.5,-7.25,-31.56,-16.56,-82.69,98.0,-16.94,2.4527876422328165,3.0220045284574835,-2.0437475212687453,-105.65120455426174,1.4438918508267422,-36.21489761998581,-0.518,-0.7968,0.0126,-0.3108
118,1436207.0,912.231286,1.0,9.57,12.17,-3.73,-8.25,-29.06,-18.56,8.56,18.12,28.12,1.2231348829214472,-0.7943532737361618,-6.051459721359775,-103.53389164446942,0.3781528311358495,-38.877624971743764,-0.5217,-0.7855,0.0033,-0.3328
119,1436207.0,912.231286,1.0,9.57,12.17,-3.73,-8.25,-29.06,-18.56,8.56,18.12,28.12,1.2231348829214472,-0.7943532737361618,-6.051459721359775,-103.53389164446942,0.3781528311358495,-38.877624971743764,-0.5217,-0.7855,0.0033,-0.3328
120,1436239.0,912.2894380000001,1.0,6.24,14.62,0.56,-8.25,-29.06,-18.56,-101.62,-23.69,-10.75,-0.23864076883947705,4.683640937225697,-5.392105151478407,-102.33821462880199,1.3522117780748235,-38.44045190034536,-0.5336,-0.779,0.0118,-0.3292
121,1436239.0,912.2894380000001,1.0,6.24,14.62,0.56,-8.25,-29.06,-18.56,-101.62,-23.69,-10.75,-0.23864076883947705,4.683640937225697,-5.392105151478407,-102.33821462880199,1.3522117780748235,-38.44045190034536,-0.5336,-0.779,0.0118,-0.3292
122,1436274.0,912.306581,1.0,4.62,18.67,1.97,-7.19,-29.69,-19.5,-78.12,-7.94,-16.44,-2.6649301226394515,7.227595793780105,-7.926206692681558,-99.74283872407179,2.0971425933011094,-37.72522554558885,-0.5573,-0.7646,0.0183,-0.3233
123,1436274.0,912.306581,1.0,4.62,18.67,1.97,-7.19,-29.69,-19.5,-78.12,-7.94,-16.44,-2.6649301226394515,7.227595793780105,-7.926206692681558,-99.74283872407179,2.0971425933011094,-37.72522554558885,-0.5573,-0.7646,0.0183,-0.3233
124,1436311.0,912.310608,1.0,5.16,15.68,0.94,-7.19,-27.87,-21.06,45.69,49.56,-101.19,-0.9796026059118546,4.829897008290341,-5.975747587939508,-99.99207732629806,0.13750990383378794,-36.74577605968171,-0.5603,-0.7659999999999999,0.0012,-0.3152
125,1436311.0,912.310608,1.0,5.16,15.68,0.94,-7.19,-27.87,-21.06,45.69,49.56,-101.19,-0.9796026059118546,4.829897008290341,-5.975747587939508,-99.99207732629806,0.13750990383378794,-36.74577605968171,-0.5603,-0.7659999999999999,0.0012,-0.3152
126,1436346.0,912.3142859999999,1.0,3.75,14.42,0.22,-5.19,-28.25,-21.06,24.06,32.69,-104.5,-1.0195078828558108,3.845415223765412,-4.5537359778777615,-99.97425316489787,-3.9541934642266314,-35.26373479080068,-0.5661,-0.7659,-0.0345,-0.3029
127,1436346.0,912.3142859999999,1.0,3.75,14.42,0.22,-5.19,-28.25,-21.06,24.06,32.69,-104.5,-1.0195078828558108,3.845415223765412,-4.5537359778777615,-99.97425316489787,-3.9541934642266314,-35.26373479080068,-0.5661,-0.7659,-0.0345,-0.3029
128,1436381.0,912.3553130000001,1.0,0.84,13.37,3.27,-5.19,-28.25,-21.06,118.25,11.81,-93.87,-0.23520901561895516,7.492144538511442,-1.7677980185028568,-102.88812004458934,-8.499024412896564,-33.40472333858408,-0.5481,-0.782,-0.0741,-0.2874
129,1436381.0,912.3553130000001,1.0,0.84,13.37,3.27,-5.19,-28.25,-21.06,118.25,11.81,-93.87,-0.23520901561895516,7.492144538511442,-1.7677980185028568,-102.88812004458934,-8.499024412896564,-33.40472333858408,-0.5481,-0.782,-0.0741,-0.2874
130,1436420.0,912.371524,1.0,1.73,9.3,3.1,-1.75,-30.19,-20.69,199.38,89.12,-108.75,2.287920327768433,5.5880116195150045,1.8925836170367292,-106.31751960155215,-13.830376539145913,-32.472665833224625,-0.5166,-0.8003,-0.1204,-0.2796
131,1436420.0,912.371524,1.0,1.73,9.3,3.1,-1.75,-30.19,-20.69,199.38,89.12,-108.75,2.287920327768433,5.5880116195150045,1.8925836170367292,-106.31751960155215,-13.830376539145913,-32.472665833224625,-0.5166,-0.8003,-0.1204,-0.2796
132,1436454.0,912.410985,1.0,2.17,8.27,1.33,3.69,-32.88,-15.88,171.63,152.56,-109.25,2.791983429545821,3.6117684721991967,2.456095120783776,-108.36791454974384,-21.893896745024186,-33.83566809114509,-0.4709,-0.8109,-0.1899,-0.29100000000000004
133,1436454.0,912.410985,1.0,2.17,8.27,1.33,3.69,-32.88,-15.88,171.63,152.56,-109.25,2.791983429545821,3.6117684721991967,2.456095120783776,-108.36791454974384,-21.893896745024186,-33.83566809114509,-0.4709,-0.8109,-0.1899,-0.29100000000000004
134,1436489.0,912.4180140000001,1.0,3.33,3.16,-2.71,3.69,-32.88,-15.88,229.44,155.31,-113.25,0.9018386265569086,-2.053745978069095,4.970596386854776,-109.61095464877064,-28.70655945606141,-34.831128724414064,-0.4256,-0.8172,-0.2479,-0.2993
135,1436489.0,912.4180140000001,1.0,3.33,3.16,-2.71,3.69,-32.88,-15.88,229.44,155.31,-113.25,0.9018386265569086,-2.053745978069095,4.970596386854776,-109.61095464877064,-28.70655945606141,-34.831128724414064,-0.4256,-0.8172,-0.2479,-0.2993
136,1436524.0,912.435676,1.0,3.22,3.43,-2.98,9.56,-35.19,-8.19,114.94,131.0,-95.25,0.6826091386165761,-1.9100289543150972,4.620173917190487,-108.79985018717657,-35.9015751355927,-36.118460981567104,-0.3844,-0.8131,-0.3082,-0.31
137,1436524.0,912.435676,1.0,3.22,3.43,-2.98,9.56,-35.19,-8.19,114.94,131.0,-95.25,0.6826091386165761,-1.9100289543150972,4.620173917190487,-108.79985018717657,-35.9015751355927,-36.118460981567104,-0.3844,-0.8131,-0.3082,-0.31
138,1436561.0,912.438807,1.0,2.11,7.57,-0.13,14.5,-35.25,-1.06,70.56,167.06,-95.06,3.3592197340776067,1.958092684523084,2.9761730168749727,-105.76506603938064,-40.18051411535947,-38.18570299849585,-0.373,-0.7974,-0.3435,-0.3271
139,1436561.0,912.438807,1.0,2.11,7.57,-0.13,14.5,-35.25,-1.06,70.56,167.06,-95.06,3.3592197340776067,1.958092684523084,2.9761730168749727,-105.76506603938064,-40.18051411535947,-38.18570299849585,-0.373,-0.7974,-0.3435,-0.3271
140,1436598.0,912.4825210000001,1.0,4.33,1.8,-5.62,16.69,-33.88,2.5,126.62,143.5,-91.06,-1.9140559038714693,-4.081914625785228,4.040571351155931,-102.79623979019779,-48.598194686002294,-40.497916639737895,-0.3164,-0.7815,-0.4115,-0.3461
141,1436598.0,912.4825210000001,1.0,4.33,1.8,-5.62,16.69,-33.88,2.5,126.62,143.5,-91.06,-1.9140559038714693,-4.081914625785228,4.040571351155931,-102.79623979019779,-48.598194686002294,-40.497916639737895,-0.3164,-0.7815,-0.4115,-0.3461
142,1436633.0,912.500617,1.0,0.46,5.51,-0.65,16.69,-33.88,2.5,18.81,81.87,-57.06,2.177352266311376,1.8563698460096745,5.030958625631809,-99.97425316489787,-52.437569453805544,-41.881213444145885,-0.301,-0.7659,-0.4418,-0.3574
143,1436633.0,912.500617,1.0,0.46,5.51,-0.65,16.69,-33.88,2.5,18.81,81.87,-57.06,2.177352266311376,1.8563698460096745,5.030958625631809,-99.97425316489787,-52.437569453805544,-41.881213444145885,-0.301,-0.7659,-0.4418,-0.3574
144,1436669.0,912.545241,1.0,2.36,3.94,-2.93,18.56,-31.69,7.69,73.94,141.94,-39.38,0.20274927026112927,-0.7369161214610735,4.4127694522552385,-97.64960928769192,-55.316919407310365,-43.887975339090566,-0.28,-0.7527,-0.4642,-0.3737
145,1436669.0,912.545241,1.0,2.36,3.94,-2.93,18.56,-31.69,7.69,73.94,141.94,-39.38,0.20274927026112927,-0.7369161214610735,4.4127694522552385,-97.64960928769192,-55.316919407310365,-43.887975339090566,-0.28,-0.7527,-0.4642,-0.3737
146,1436704.0,912.597884,1.0,3.64,6.74,-2.69,17.75,-31.25,10.5,-14.38,143.0,-35.38,1.8197880823407633,-0.6690433627057509,1.9228658632931903,-93.571775871417,-58.33966779766776,-47.81985609667796,-0.259,-0.7288,-0.4874,-0.4053
147,1436704.0,912.597884,1.0,3.64,6.74,-2.69,17.75,-31.25,10.5,-14.38,143.0,-35.38,1.8197880823407633,-0.6690433627057509,1.9228658632931903,-93.571775871417,-58.33966779766776,-47.81985609667796,-0.259,-0.7288,-0.4874,-0.4053
148,1436739.0,912.604447,1.0,4.66,7.86,-2.1,17.75,-31.25,10.5,39.5,167.13,-42.63,2.684301183575522,-1.2007421127136118,0.9039568381185284,-89.91790199535811,-60.503452089085286,-51.163694017238186,-0.2456,-0.7066,-0.5038,-0.4318
149,1436739.0,912.604447,1.0,4.66,7.86,-2.1,17.75,-31.25,10.5,39.5,167.13,-42.63,2.684301183575522,-1.2007421127136118,0.9039568381185284,-89.91790199535811,-60.503452089085286,-51.163694017238186,-0.2456,-0.7066,-0.5038,-0.4318
150,1436774.0,912.660783,1.0,6.52,3.71,-3.89,16.69,-31.0,12.75,74.87,168.69,-25.0,-1.1790299825939723,-3.8400204608116,2.372221228353002,-85.96892404416114,-64.52513383249247,-54.438922188166046,-0.2028,-0.6818,-0.5338,-0.4574
151,1436774.0,912.660783,1.0,6.52,3.71,-3.89,16.69,-31.0,12.75,74.87,168.69,-25.0,-1.1790299825939723,-3.8400204608116,2.372221228353002,-85.96892404416114,-64.52513383249247,-54.438922188166046,-0.2028,-0.6818,-0.5338,-0.4574
152,1436811.0,912.7204939999999,1.0,6.89,4.43,-3.89,15.25,-29.75,15.69,29.44,143.75,65.12,-1.0413733074065576,-3.3693006891201693,1.4524621579105317,-84.52062093689318,-64.57934727558172,-57.61913540426363,-0.1732,-0.6725,-0.5342,-0.4819
153,1436811.0,912.7204939999999,1.0,6.89,4.43,-3.89,15.25,-29.75,15.69,29.44,143.75,65.12,-1.0413733074065576,-3.3693006891201693,1.4524621579105317,-84.52062093689318,-64.57934727558172,-57.61913540426363,-0.1732,-0.6725,-0.5342,-0.4819
154,1436848.0,912.7422650000001,1.0,6.47,1.36,-3.21,10.75,-29.5,17.0,46.31,139.75,43.5,-2.41331652544716,-3.714240862776488,3.941931919709607,-82.81346469014701,-64.76922217655454,-61.12793410600524,-0.1304,-0.6614,-0.5356,-0.5085
155,1436848.0,912.7422650000001,1.0,6.47,1.36,-3.21,10.75,-29.5,17.0,46.31,139.75,43.5,-2.41331652544716,-3.714240862776488,3.941931919709607,-82.81346469014701,-64.76922217655454,-61.12793410600524,-0.1304,-0.6614,-0.5356,-0.5085
156,1436882.0,912.827342,1.0,8.33,1.2,-3.74,10.75,-29.5,17.0,-21.69,143.75,101.0,-3.4176912562260195,-4.2781681483017895,2.401708152019541,-81.33979509600317,-62.91957249352721,-65.74890233219018,-0.0903,-0.6517,-0.5219,-0.5428
157,1436882.0,912.827342,1.0,8.33,1.2,-3.74,10.75,-29.5,17.0,-21.69,143.75,101.0,-3.4176912562260195,-4.2781681483017895,2.401708152019541,-81.33979509600317,-62.91957249352721,-65.74890233219018,-0.0903,-0.6517,-0.5219,-0.5428
158,1436919.0,912.910985,1.0,10.41,4.02,-2.21,4.75,-29.06,17.5,-57.56,125.69,72.5,-1.2321389788056798,-4.546301423394027,-0.5483283633068563,-80.06170285521922,-60.05293463473585,-70.19926439078702,-0.073,-0.6432,-0.5004,-0.575
159,1436919.0,912.910985,1.0,10.41,4.02,-2.21,4.75,-29.06,17.5,-57.56,125.69,72.5,-1.2321389788056798,-4.546301423394027,-0.5483283633068563,-80.06170285521922,-60.05293463473585,-70.19926439078702,-0.073,-0.6432,-0.5004,-0.575
160,1436956.0,912.951961,1.0,11.79,4.75,-1.24,-1.56,-30.19,17.37,-56.06,99.69,56.81,-0.806879899105124,-4.726856327542029,-2.030155907304385,-78.20357233698766,-57.18801133423565,-74.94780449469394,-0.0551,-0.6307,-0.4786,-0.6084
161,1436956.0,912.951961,1.0,11.79,4.75,-1.24,-1.56,-30.19,17.37,-56.06,99.69,56.81,-0.806879899105124,-4.726856327542029,-2.030155907304385,-78.20357233698766,-57.18801133423565,-74.94780449469394,-0.0551,-0.6307,-0.4786,-0.6084
162,1436991.0,912.968188,1.0,13.63,7.95,-1.13,-1.56,-30.19,17.37,-35.19,71.56,62.44,0.3735022282851843,-3.476089181584708,-5.621687567189014,-77.5847366999739,-55.032478664205094,-77.57003532685165,-0.0416,-0.6265,-0.462,-0.6264
163,1436991.0,912.968188,1.0,13.63,7.95,-1.13,-1.56,-30.19,17.37,-35.19,71.56,62.44,0.3735022282851843,-3.476089181584708,-5.621687567189014,-77.5847366999739,-55.032478664205094,-77.57003532685165,-0.0416,-0.6265,-0.462,-0.6264
164,1437026.0,912.970999,1.0,15.88,10.27,-2.27,-6.06,-29.75,14.25,-47.88,48.69,20.12,-0.325188619532524,-2.2038429804931816,-9.109943997838444,-76.53006953196333,-53.17961278851925,-80.19646011214249,-0.036000000000000004,-0.6193,-0.4476,-0.6441
165,1437026.0,912.970999,1.0,15.88,10.27,-2.27,-6.06,-29.75,14.25,-47.88,48.69,20.12,-0.325188619532524,-2.2038429804931816,-9.109943997838444,-76.53006953196333,-53.17961278851925,-80.19646011214249,-0.036000000000000004,-0.6193,-0.4476,-0.6441
166,1437061.0,912.973647,1.0,14.09,8.56,-2.68,-8.56,-29.19,12.56,50.88,-4.5,22.62,-0.8752543853964341,-1.7568225597307363,-6.780441494727623,-77.14435187287417,-52.94906780042738,-79.83740266974313,-0.0281,-0.6235,-0.4458,-0.6417
167,1437061.0,912.973647,1.0,14.09,8.56,-2.68,-8.56,-29.19,12.56,50.88,-4.5,22.62,-0.8752543853964341,-1.7568225597307363,-6.780441494727623,-77.14435187287417,-52.94906780042738,-79.83740266974313,-0.0281,-0.6235,-0.4458,-0.6417
168,1437097.0,913.012499,1.0,13.44,7.37,-4.29,-9.06,-28.56,13.69,27.5,-21.94,-38.31,-2.5175487849863645,-1.4893970408370012,-5.839379674328235,-76.8953989710222,-54.774215005307816,-78.60283244211628,-0.0243,-0.6218,-0.46,-0.6334
169,1437097.0,913.012499,1.0,13.44,7.37,-4.29,-9.06,-28.56,13.69,27.5,-21.94,-38.31,-2.5175487849863645,-1.4893970408370012,-5.839379674328235,-76.8953989710222,-54.774215005307816,-78.60283244211628,-0.0243,-0.6218,-0.46,-0.6334
170,1437132.0,913.027579,1.0,13.48,7.75,-3.43,-9.06,-28.56,13.69,13.19,-59.63,-34.69,-1.3864298003054245,-2.4504899622254817,-5.865322159044224,-77.74655203029216,-56.14650176459217,-76.48629178886966,-0.0372,-0.6276,-0.4706,-0.619
171,1437132.0,913.027579,1.0,13.48,7.75,-3.43,-9.06,-28.56,13.69,13.19,-59.63,-34.69,-1.3864298003054245,-2.4504899622254817,-5.865322159044224,-77.74655203029216,-56.14650176459217,-76.48629178886966,-0.0372,-0.6276,-0.4706,-0.619
172,1437169.0,913.0684289999999,1.0,10.86,5.19,-2.58,-8.75,-27.56,15.38,30.5,-99.56,-48.13,-1.2503881257128031,-3.2097410227690237,-2.011395189532406,-79.06265131180031,-57.38386674901364,-73.94046239689769,-0.0509,-0.6365,-0.4801,-0.6014
173,1437169.0,913.0684289999999,1.0,10.86,5.19,-2.58,-8.75,-27.56,15.38,30.5,-99.56,-48.13,-1.2503881257128031,-3.2097410227690237,-2.011395189532406,-79.06265131180031,-57.38386674901364,-73.94046239689769,-0.0509,-0.6365,-0.4801,-0.6014
174,1437206.0,913.0883259999999,1.0,11.26,3.44,-2.99,-5.75,-29.5,15.88,57.0,-112.69,-44.5,-2.0174911637505883,-5.037498389870112,-1.0614059152152129,-81.43047462829705,-59.695899058507344,-69.1660709028975,-0.0671,-0.6523,-0.4977,-0.5676
175,1437206.0,913.0883259999999,1.0,11.26,3.44,-2.99,-5.75,-29.5,15.88,57.0,-112.69,-44.5,-2.0174911637505883,-5.037498389870112,-1.0614059152152129,-81.43047462829705,-59.695899058507344,-69.1660709028975,-0.0671,-0.6523,-0.4977,-0.5676
176,1437241.0,913.0925710000001,1.0,8.78,1.07,-3.46,-5.75,-29.5,15.88,81.0,-180.31,1.94,-2.7777069584890226,-4.712035386495176,2.0422461871384536,-84.90830040880186,-60.90182687258211,-64.0920067563967,-0.0767,-0.675,-0.5068,-0.5306
177,1437241.0,913.0925710000001,1.0,8.78,1.07,-3.46,-5.75,-29.5,15.88,81.0,-180.31,1.94,-2.7777069584890226,-4.712035386495176,2.0422461871384536,-84.90830040880186,-60.90182687258211,-64.0920067563967,-0.0767,-0.675,-0.5068,-0.5306
178,1437274.0,913.108891,1.0,6.71,0.01,-1.19,-2.0,-29.87,17.5,58.06,-194.44,25.19,-0.6837596525315601,-5.010990604127717,5.239074504957398,-90.99175237676184,-60.92841409128425,-56.78381993878929,-0.0913,-0.7132,-0.507,-0.4755
179,1437274.0,913.108891,1.0,6.71,0.01,-1.19,-2.0,-29.87,17.5,58.06,-194.44,25.19,-0.6837596525315601,-5.010990604127717,5.239074504957398,-90.99175237676184,-60.92841409128425,-56.78381993878929,-0.0913,-0.7132,-0.507,-0.4755
180,1437310.0,913.241439,1.0,7.27,0.27,-2.84,2.06,-28.37,21.87,-26.37,-106.37,46.25,-1.2833632538722033,-5.0124460652514085,3.956883919073668,-94.49620014403055,-59.2735703520065,-53.85979546306142,-0.1057,-0.7343,-0.4945,-0.4529
181,1437310.0,913.241439,1.0,7.27,0.27,-2.84,2.06,-28.37,21.87,-26.37,-106.37,46.25,-1.2833632538722033,-5.0124460652514085,3.956883919073668,-94.49620014403055,-59.2735703520065,-53.85979546306142,-0.1057,-0.7343,-0.4945,-0.4529
182,1437347.0,913.283778,1.0,7.77,0.4,-5.38,5.0,-28.06,21.87,-63.31,-127.0,92.81,-2.532104608600705,-4.909722664878168,2.128084404455171,-98.76983998330203,-55.56287082864312,-51.93993891277072,-0.1217,-0.7591,-0.4661,-0.4379
183,1437347.0,913.283778,1.0,7.77,0.4,-5.38,5.0,-28.06,21.87,-63.31,-127.0,92.81,-2.532104608600705,-4.909722664878168,2.128084404455171,-98.76983998330203,-55.56287082864312,-51.93993891277072,-0.1217,-0.7591,-0.4661,-0.4379
184,1437382.0,913.339087,1.0,5.93,3.37,-0.8,5.0,-28.06,21.87,-91.94,-172.19,120.12,2.916046670743369,-2.628988446270248,4.172212001102143,-103.88639399112431,-50.88435563772038,-49.45461164689416,-0.1435,-0.7874,-0.4296,-0.4183
185,1437382.0,913.339087,1.0,5.93,3.37,-0.8,5.0,-28.06,21.87,-91.94,-172.19,120.12,2.916046670743369,-2.628988446270248,4.172212001102143,-103.88639399112431,-50.88435563772038,-49.45461164689416,-0.1435,-0.7874,-0.4296,-0.4183
186,1437419.0,913.3581,1.0,3.88,2.51,-0.72,6.38,-29.56,20.0,-82.37,-117.44,119.19,2.16746098099624,-1.2814391925015518,5.865466612769738,-109.53146516582777,-44.40732869091076,-47.11885074218369,-0.1741,-0.8168,-0.3779,-0.3997
187,1437419.0,913.3581,1.0,3.88,2.51,-0.72,6.38,-29.56,20.0,-82.37,-117.44,119.19,2.16746098099624,-1.2814391925015518,5.865466612769738,-109.53146516582777,-44.40732869091076,-47.11885074218369,-0.1741,-0.8168,-0.3779,-0.3997
188,1437456.0,913.407344,1.0,4.3,4.09,-0.25,6.0,-32.19,17.56,-102.62,-81.0,175.63,3.4505192837727274,0.0649866070883931,4.972366866668678,-114.68260427841713,-36.51643362197993,-46.744081927482135,-0.1889,-0.8419,-0.3133,-0.3967
189,1437456.0,913.407344,1.0,4.3,4.09,-0.25,6.0,-32.19,17.56,-102.62,-81.0,175.63,3.4505192837727274,0.0649866070883931,4.972366866668678,-114.68260427841713,-36.51643362197993,-46.744081927482135,-0.1889,-0.8419,-0.3133,-0.3967
190,1437491.0,913.4533150000001,1.0,4.26,4.36,-0.04,6.0,-32.19,17.56,-95.0,-10.88,182.5,3.5010057678098017,0.8668454285137888,4.892350699303384,-117.32089688772969,-30.24694330618832,-47.92015436839679,-0.1935,-0.8541,-0.2609,-0.4061
191,1437491.0,913.4533150000001,1.0,4.26,4.36,-0.04,6.0,-32.19,17.56,-95.0,-10.88,182.5,3.5010057678098017,0.8668454285137888,4.892350699303384,-117.32089688772969,-30.24694330618832,-47.92015436839679,-0.1935,-0.8541,-0.2609,-0.4061
192,1437526.0,913.4729560000001,1.0,4.54,3.58,1.0,2.25,-33.19,14.88,-109.37,58.69,169.06,3.856752435130588,0.8522985644684484,5.467635387081613,-117.254831475668,-22.96866884885643,-52.08018919976154,-0.1968,-0.8538,-0.1991,-0.439
193,1437526.0,913.4729560000001,1.0,4.54,3.58,1.0,2.25,-33.19,14.88,-109.37,58.69,169.06,3.856752435130588,0.8522985644684484,5.467635387081613,-117.254831475668,-22.96866884885643,-52.08018919976154,-0.1968,-0.8538,-0.1991,-0.439
194,1437560.0,913.554817,1.0,5.08,5.65,1.04,-2.56,-34.0,10.38,-164.06,126.31,215.38,3.6656081455062006,2.9621138182018836,3.7568815208252735,-114.4705595501544,-16.29245975343786,-57.50146795059126,-0.2038,-0.8409,-0.1417,-0.48100000000000004
195,1437560.0,913.554817,1.0,5.08,5.65,1.04,-2.56,-34.0,10.38,-164.06,126.31,215.38,3.6656081455062006,2.9621138182018836,3.7568815208252735,-114.4705595501544,-16.29245975343786,-57.50146795059126,-0.2038,-0.8409,-0.1417,-0.48100000000000004
196,1437597.0,913.6610119999999,1.0,5.66,3.94,1.98,-9.38,-34.38,7.25,-89.56,166.75,208.38,3.7265459219624466,2.2167255735742986,4.090131547045721,-109.13518228345345,-8.372631359788455,-65.62614795647175,-0.1924,-0.8148,-0.073,-0.5419
197,1437597.0,913.6610119999999,1.0,5.66,3.94,1.98,-9.38,-34.38,7.25,-89.56,166.75,208.38,3.7265459219624466,2.2167255735742986,4.090131547045721,-109.13518228345345,-8.372631359788455,-65.62614795647175,-0.1924,-0.8148,-0.073,-0.5419
198,1437632.0,913.714424,1.0,10.91,7.53,2.87,-9.38,-34.38,7.25,-180.94,212.06,183.19,3.746158685892332,5.102069648794472,-2.189227641880306,-100.31347946564678,-0.6187974261216272,-75.20793134376436,-0.1956,-0.7678,-0.0054,-0.6102
199,1437632.0,913.714424,1.0,10.91,7.53,2.87,-9.38,-34.38,7.25,-180.94,212.06,183.19,3.746158685892332,5.102069648794472,-2.189227641880306,-100.31347946564678,-0.6187974261216272,-75.20793134376436,-0.1956,-0.7678,-0.0054,-0.6102
200,1437671.0,913.7326820000001,1.0,8.46,6.1,0.3,-16.37,-31.25,2.75,-114.56,261.19,93.81,-0.7371546478091916,3.5895823835816745,0.037151479774237835,-91.41760096012828,3.5185137037623337,-83.1806607941667,-0.2148,-0.7158,0.0307,-0.6638
201,1437671.0,913.7326820000001,1.0,8.46,6.1,0.3,-16.37,-31.25,2.75,-114.56,261.19,93.81,-0.7371546478091916,3.5895823835816745,0.037151479774237835,-91.41760096012828,3.5185137037623337,-83.1806607941667,-0.2148,-0.7158,0.0307,-0.6638
202,1437708.0,913.7366800000001,1.0,7.35,1.28,2.44,-20.87,-28.56,-5.56,-16.31,146.63,153.13,1.62632975779569,0.5543987538746428,2.147525145252531,-84.14956663775601,6.615607303690656,-91.2208545945492,-0.1924,-0.6701,0.0577,-0.7146
203,1437708.0,913.7366800000001,1.0,7.35,1.28,2.44,-20.87,-28.56,-5.56,-16.31,146.63,153.13,1.62632975779569,0.5543987538746428,2.147525145252531,-84.14956663775601,6.615607303690656,-91.2208545945492,-0.1924,-0.6701,0.0577,-0.7146
204,1437741.0,913.780788,1.0,8.9,5.46,7.93,-20.87,-28.56,-5.56,-135.88,119.44,183.38,4.047248399792012,6.9811067926364165,-0.5272954391914979,-80.04673804640113,12.446181578242712,-94.98688318439542,-0.1769,-0.6431,0.1084,-0.7372
205,1437741.0,913.780788,1.0,8.9,5.46,7.93,-20.87,-28.56,-5.56,-135.88,119.44,183.38,4.047248399792012,6.9811067926364165,-0.5272954391914979,-80.04673804640113,12.446181578242712,-94.98688318439542,-0.1769,-0.6431,0.1084,-0.7372
206,1437775.0,913.7984039999999,1.0,9.41,3.07,6.16,-23.87,-25.69,-6.06,-31.87,238.69,114.5,1.4616379097780867,4.338940008794592,-0.9150949242546832,-70.78858910682754,15.7832777083714,-103.66360039479626,-0.1661,-0.5792,0.1373,-0.7862
207,1437775.0,913.7984039999999,1.0,9.41,3.07,6.16,-23.87,-25.69,-6.06,-31.87,238.69,114.5,1.4616379097780867,4.338940008794592,-0.9150949242546832,-70.78858910682754,15.7832777083714,-103.66360039479626,-0.1661,-0.5792,0.1373,-0.7862
208,1437812.0,913.80195,1.0,11.99,2.76,7.69,-29.75,-19.19,-6.88,-70.75,174.56,126.44,0.5679106490447658,4.748369989273737,-3.891680553015069,-64.49803318236535,18.251289114029838,-109.41237708953594,-0.1549,-0.5336,0.1586,-0.8162
209,1437812.0,913.80195,1.0,11.99,2.76,7.69,-29.75,-19.19,-6.88,-70.75,174.56,126.44,0.5679106490447658,4.748369989273737,-3.891680553015069,-64.49803318236535,18.251289114029838,-109.41237708953594,-0.1549,-0.5336,0.1586,-0.8162
210,1437849.0,913.841653,1.0,12.39,-0.23,5.6,-31.37,-16.87,-8.5,14.88,189.81,46.94,-1.8702445576472435,1.0996853235258244,-3.617875223776549,-56.92715416608731,19.587266633669245,-116.35810942215919,-0.1477,-0.4766,0.1701,-0.8497
211,1437849.0,913.841653,1.0,12.39,-0.23,5.6,-31.37,-16.87,-8.5,14.88,189.81,46.94,-1.8702445576472435,1.0996853235258244,-3.617875223776549,-56.92715416608731,19.587266633669245,-116.35810942215919,-0.1477,-0.4766,0.1701,-0.8497
212,1437884.0,913.848859,1.0,11.61,-2.82,4.73,-31.37,-16.87,-8.5,3.75,114.0,26.25,-2.1586685156721472,-1.822972885921416,-2.728672895587538,-51.95268548055449,19.13390399645449,-121.2668396082864,-0.1453,-0.43799999999999994,0.1662,-0.8715
213,1437884.0,913.848859,1.0,11.61,-2.82,4.73,-31.37,-16.87,-8.5,3.75,114.0,26.25,-2.1586685156721472,-1.822972885921416,-2.728672895587538,-51.95268548055449,19.13390399645449,-121.2668396082864,-0.1453,-0.43799999999999994,0.1662,-0.8715
214,1437921.0,913.9108050000001,1.0,10.63,-1.72,6.73,-31.87,-12.88,-9.38,-48.38,-32.44,65.31,-0.7775742250054836,0.5312467287417106,-2.856736404821122,-51.46879911376182,20.995859763455265,-121.22012218744959,-0.1378,-0.4342,0.1822,-0.8713
215,1437921.0,913.9108050000001,1.0,10.63,-1.72,6.73,-31.87,-12.88,-9.38,-48.38,-32.44,65.31,-0.7775742250054836,0.5312467287417106,-2.856736404821122,-51.46879911376182,20.995859763455265,-121.22012218744959,-0.1378,-0.4342,0.1822,-0.8713
216,1437958.0,913.918573,1.0,10.23,0.41,9.27,-28.87,-8.88,-8.19,-19.06,-67.25,40.19,0.7763835683908328,4.389162338088027,-3.265701836017969,-53.500200054022216,23.62387580431868,-118.79053985855312,-0.1215,-0.4501,0.2047,-0.8607
217,1437958.0,913.918573,1.0,10.23,0.41,9.27,-28.87,-8.88,-8.19,-19.06,-67.25,40.19,0.7763835683908328,4.389162338088027,-3.265701836017969,-53.500200054022216,23.62387580431868,-118.79053985855312,-0.1215,-0.4501,0.2047,-0.8607
218,1437992.0,913.937255,1.0,10.02,-0.87,9.99,-28.87,-8.88,-8.19,-28.0,36.56,25.06,1.85337711682078,3.769954494567533,-3.7325462971121417,-53.320615694584525,24.26814601866472,-118.79053985855312,-0.1166,-0.4487,0.2102,-0.8607
219,1437992.0,913.937255,1.0,10.02,-0.87,9.99,-28.87,-8.88,-8.19,-28.0,36.56,25.06,1.85337711682078,3.769954494567533,-3.7325462971121417,-53.320615694584525,24.26814601866472,-118.79053985855312,-0.1166,-0.4487,0.2102,-0.8607
220,1438027.0,913.990042,1.0,10.98,2.03,6.21,-28.25,-2.0,-4.38,-124.81,153.31,-54.06,-3.7341420929765503,4.2937723697533015,-1.6329785632971436,-48.34685890896744,27.018223861950197,-120.8475925272034,-0.1464,-0.4095,0.2336,-0.8697
221,1438027.0,913.990042,1.0,10.98,2.03,6.21,-28.25,-2.0,-4.38,-124.81,153.31,-54.06,-3.7341420929765503,4.2937723697533015,-1.6329785632971436,-48.34685890896744,27.018223861950197,-120.8475925272034,-0.1464,-0.4095,0.2336,-0.8697
222,1438064.0,914.116789,1.0,10.12,0.97,3.33,-26.75,3.25,-0.06,-29.56,113.56,-80.94,-5.107839764654177,1.0946723918883892,0.4709194290669014,-44.345450751183655,26.74724052277769,-122.6606000192726,-0.1852,-0.3774,0.2313,-0.8774
223,1438064.0,914.116789,1.0,10.12,0.97,3.33,-26.75,3.25,-0.06,-29.56,113.56,-80.94,-5.107839764654177,1.0946723918883892,0.4709194290669014,-44.345450751183655,26.74724052277769,-122.6606000192726,-0.1852,-0.3774,0.2313,-0.8774
224,1438101.0,914.1273699999999,1.0,9.22,-2.4,5.19,-32.0,4.56,2.5,45.38,12.69,-45.44,-1.7033448814288787,-0.9436791394559164,-0.8663339265627013,-44.209367167614204,24.737194611496925,-123.35714687658856,-0.1937,-0.3763,0.2142,-0.8803
225,1438101.0,914.1273699999999,1.0,9.22,-2.4,5.19,-32.0,4.56,2.5,45.38,12.69,-45.44,-1.7033448814288787,-0.9436791394559164,-0.8663339265627013,-44.209367167614204,24.737194611496925,-123.35714687658856,-0.1937,-0.3763,0.2142,-0.8803
226,1438134.0,914.130264,1.0,9.11,-2.31,6.1,-32.0,4.56,2.5,-27.06,9.13,-68.31,-0.9715274540848624,-0.6564380203743296,-1.3362142427055748,-44.24647435383947,24.22126399043484,-122.3984110822012,-0.2151,-0.3766,0.2098,-0.8763
227,1438134.0,914.130264,1.0,9.11,-2.31,6.1,-32.0,4.56,2.5,-27.06,9.13,-68.31,-0.9715274540848624,-0.6564380203743296,-1.3362142427055748,-44.24647435383947,24.22126399043484,-122.3984110822012,-0.2151,-0.3766,0.2098,-0.8763
228,1438171.0,914.133192,1.0,9.33,-0.32,4.61,-32.5,3.38,5.0,-85.56,22.69,-99.81,-2.9598465430025964,-0.14392563089955826,-0.17443179781358964,-43.579286875788114,25.19492264637575,-120.50027377126791,-0.2465,-0.3712,0.2181,-0.8682
229,1438171.0,914.133192,1.0,9.33,-0.32,4.61,-32.5,3.38,5.0,-85.56,22.69,-99.81,-2.9598465430025964,-0.14392563089955826,-0.17443179781358964,-43.579286875788114,25.19492264637575,-120.50027377126791,-0.2465,-0.3712,0.2181,-0.8682
230,1438208.0,914.135767,1.0,9.0,-2.28,5.24,-33.19,1.37,8.0,41.56,-9.69,-46.25,-0.9628165733664706,-1.518153884162253,-0.7016416323279664,-44.37020029186166,23.940057930305638,-119.44645197451608,-0.2618,-0.3776,0.2074,-0.8636
231,1438208.0,914.135767,1.0,9.0,-2.28,5.24,-33.19,1.37,8.0,41.56,-9.69,-46.25,-0.9628165733664706,-1.518153884162253,-0.7016416323279664,-44.37020029186166,23.940057930305638,-119.44645197451608,-0.2618,-0.3776,0.2074,-0.8636
232,1438242.0,914.138274,1.0,8.13,-3.44,5.85,-33.19,1.37,8.0,13.38,-13.13,-16.94,0.7227156520117055,-1.9113312910384976,-0.584572006204775,-45.16334612512468,23.12070182440919,-119.19690467351394,-0.2614,-0.384,0.2004,-0.8625
233,1438242.0,914.138274,1.0,8.13,-3.44,5.85,-33.19,1.37,8.0,13.38,-13.13,-16.94,0.7227156520117055,-1.9113312910384976,-0.584572006204775,-45.16334612512468,23.12070182440919,-119.19690467351394,-0.2614,-0.384,0.2004,-0.8625
234,1438275.0,914.141077,1.0,7.33,-2.79,6.08,-31.75,-0.88,9.38,-27.62,-20.37,-7.81,1.0142361050667041,-0.9226754451724508,-0.021849129880157747,-45.685088838323495,23.78779915841677,-118.23015155570127,-0.2654,-0.3882,0.2061,-0.8582
235,1438275.0,914.141077,1.0,7.33,-2.79,6.08,-31.75,-0.88,9.38,-27.62,-20.37,-7.81,1.0142361050667041,-0.9226754451724508,-0.021849129880157747,-45.685088838323495,23.78779915841677,-118.23015155570127,-0.2654,-0.3882,0.2061,-0.8582
236,1438312.0,914.22405,1.0,7.27,-0.86,6.31,-31.87,-1.25,8.56,-30.5,-13.31,24.81,-0.04556660489875741,0.8910460442282291,0.18310799969765768,-45.7223943424676,24.924931536010146,-117.6743080222204,-0.2652,-0.3885,0.2158,-0.8557
237,1438312.0,914.22405,1.0,7.27,-0.86,6.31,-31.87,-1.25,8.56,-30.5,-13.31,24.81,-0.04556660489875741,0.8910460442282291,0.18310799969765768,-45.7223943424676,24.924931536010146,-117.6743080222204,-0.2652,-0.3885,0.2158,-0.8557
238,1438349.0,914.3234980000001,1.0,7.1,-0.82,6.33,-31.0,-1.06,8.0,6.0,-14.75,5.63,0.023785345212269996,1.1232066003766883,0.3256615921269397,-45.92144367093,25.641307370957357,-117.45321573278471,-0.2611,-0.3901,0.2219,-0.8547
239,1438349.0,914.3234980000001,1.0,7.1,-0.82,6.33,-31.0,-1.06,8.0,6.0,-14.75,5.63,0.023785345212269996,1.1232066003766883,0.3256615921269397,-45.92144367093,25.641307370957357,-117.45321573278471,-0.2611,-0.3901,0.2219,-0.8547
240,1438384.0,914.394282,1.0,7.08,-1.7,6.35,-31.0,-1.06,8.0,-4.19,-9.31,-12.81,0.6601466540088333,0.4840237129504652,0.18018504964036094,-46.33244691855332,25.617803632217928,-117.10092120050626,-0.2615,-0.3934,0.2217,-0.8531
241,1438384.0,914.394282,1.0,7.08,-1.7,6.35,-31.0,-1.06,8.0,-4.19,-9.31,-12.81,0.6601466540088333,0.4840237129504652,0.18018504964036094,-46.33244691855332,25.617803632217928,-117.10092120050626,-0.2615,-0.3934,0.2217,-0.8531
242,1438420.0,914.448269,1.0,7.31,-1.55,5.9,-30.5,-1.75,8.69,-4.31,0.31,0.19,0.21541016739122154,0.2736771389594932,0.2920664944861908,-46.39477504755206,25.71182517460623,-116.79410996273165,-0.2645,-0.3939,0.2225,-0.8517
243,1438420.0,914.448269,1.0,7.31,-1.55,5.9,-30.5,-1.75,8.69,-4.31,0.31,0.19,0.21541016739122154,0.2736771389594932,0.2920664944861908,-46.39477504755206,25.71182517460623,-116.79410996273165,-0.2645,-0.3939,0.2225,-0.8517
244,1438455.0,914.45096,1.0,7.57,-1.69,5.73,-29.69,-1.25,9.5,11.19,-2.31,3.75,0.06675378110047914,-0.007804731667248155,0.16354971954701547,-46.43217889831124,25.62955536451614,-116.88163381383896,-0.2634,-0.3942,0.2218,-0.8521
245,1438455.0,914.45096,1.0,7.57,-1.69,5.73,-29.69,-1.25,9.5,11.19,-2.31,3.75,0.06675378110047914,-0.007804731667248155,0.16354971954701547,-46.43217889831124,25.62955536451614,-116.88163381383896,-0.2634,-0.3942,0.2218,-0.8521
246,1438488.0,914.491285,1.0,7.79,-1.85,5.57,-29.69,-1.25,9.5,-2.19,-17.56,8.25,0.00263266267344886,-0.2325030498835885,0.05588411208729127,-46.88143541316104,25.641307370957357,-116.75038875897287,-0.2597,-0.3978,0.2219,-0.8515
247,1438488.0,914.491285,1.0,7.79,-1.85,5.57,-29.69,-1.25,9.5,-2.19,-17.56,8.25,0.00263266267344886,-0.2325030498835885,0.05588411208729127,-46.88143541316104,25.641307370957357,-116.75038875897287,-0.2597,-0.3978,0.2219,-0.8515
248,1438523.0,914.504254,1.0,7.34,-1.7,5.94,-31.87,-0.88,9.38,19.81,-18.25,7.19,0.4252336571736151,0.2673441559022076,0.2255799428972089,-47.39402100857085,25.65305965168436,-116.55397754456402,-0.2563,-0.4019,0.222,-0.8506
249,1438523.0,914.504254,1.0,7.34,-1.7,5.94,-31.87,-0.88,9.38,19.81,-18.25,7.19,0.4252336571736151,0.2673441559022076,0.2255799428972089,-47.39402100857085,25.65305965168436,-116.55397754456402,-0.2563,-0.4019,0.222,-0.8506
250,1438560.0,914.548841,1.0,7.27,-1.81,6.36,-29.69,-0.75,10.25,11.94,-4.13,24.25,0.8019477901267864,0.4642810584751579,0.02299409636909111,-47.8700003617391,25.28886585104528,-116.96926663704076,-0.2466,-0.4057,0.2189,-0.8525
251,1438560.0,914.548841,1.0,7.27,-1.81,6.36,-29.69,-0.75,10.25,11.94,-4.13,24.25,0.8019477901267864,0.4642810584751579,0.02299409636909111,-47.8700003617391,25.28886585104528,-116.96926663704076,-0.2466,-0.4057,0.2189,-0.8525
252,1438595.0,914.5643359999999,1.0,7.45,-1.83,5.78,-29.69,-0.75,10.25,24.25,0.0,22.06,0.334683127692932,0.08224687501059469,0.2076384542423515,-47.84492701246389,25.0892571067724,-117.4973779425748,-0.2397,-0.4055,0.2172,-0.8549
253,1438595.0,914.5643359999999,1.0,7.45,-1.83,5.78,-29.69,-0.75,10.25,24.25,0.0,22.06,0.334683127692932,0.08224687501059469,0.2076384542423515,-47.84492701246389,25.0892571067724,-117.4973779425748,-0.2397,-0.4055,0.2172,-0.8549
254,1438629.0,914.5672460000001,1.0,7.49,-2.21,5.68,-30.69,-1.56,9.38,3.5,-2.13,11.06,0.4560039016156303,-0.2896091733161916,0.16534371047457874,-47.97031813194389,24.76065802803315,-117.98502779819529,-0.233,-0.4065,0.2144,-0.8571
255,1438629.0,914.5672460000001,1.0,7.49,-2.21,5.68,-30.69,-1.56,9.38,3.5,-2.13,11.06,0.4560039016156303,-0.2896091733161916,0.16534371047457874,-47.97031813194389,24.76065802803315,-117.98502779819529,-0.233,-0.4065,0.2144,-0.8571
