,TIME,ELAPSED_SECONDS,PSTATE,acc_x,acc_y,acc_z,mag_x,mag_y,mag_z,gyr_x,gyr_y,gyr_z,lin_x,lin_y,lin_z,eul_x,eul_y,eul_z,qua_w,qua_x,qua_y,qua_z
0,1538254.0,25.270789,1.0,8.14,-1.57,5.19,-23.37,-3.19,15.88,-0.19,0.56,0.56,0.1628603130364632,0.18226501669374384,0.02908097788988861,-52.22052340718582,26.26455976697084,-113.02370899765695,-0.2431,-0.4401,0.2272,-0.8340000000000001
1,1538254.0,25.270789,1.0,8.14,-1.57,5.19,-23.37,-3.19,15.88,-0.19,0.56,0.56,0.1628603130364632,0.18226501669374384,0.02908097788988861,-52.22052340718582,26.26455976697084,-113.02370899765695,-0.2431,-0.4401,0.2272,-0.8340000000000001
2,1538289.0,25.335781,1.0,8.08,-1.78,5.06,-23.75,-4.0,16.25,5.44,3.0,-1.63,0.23091484063355686,-0.06693019877158758,0.11125941040188714,-52.15672470466425,26.1469050177391,-113.12762124009942,-0.2431,-0.4396,0.2262,-0.8345
3,1538289.0,25.335781,1.0,8.08,-1.78,5.06,-23.75,-4.0,16.25,5.44,3.0,-1.63,0.23091484063355686,-0.06693019877158758,0.11125941040188714,-52.15672470466425,26.1469050177391,-113.12762124009942,-0.2431,-0.4396,0.2262,-0.8345
4,1538324.0,25.349685,1.0,8.06,-1.8,5.21,-23.0,-4.38,16.25,2.88,2.25,-1.37,0.3359499138580402,-0.014749841902734206,0.04782732010963109,-52.08018919976154,26.00575632582789,-113.2733386110762,-0.243,-0.439,0.225,-0.8352
5,1538324.0,25.349685,1.0,8.06,-1.8,5.21,-23.0,-4.38,16.25,2.88,2.25,-1.37,0.3359499138580402,-0.014749841902734206,0.04782732010963109,-52.08018919976154,26.00575632582789,-113.2733386110762,-0.243,-0.439,0.225,-0.8352
6,1538359.0,25.353317,1.0,8.12,-1.58,5.19,-24.06,-4.0,16.69,-1.69,3.75,-1.63,0.14783003711984954,0.12095061126883433,0.042920321759270415,-51.965432739188564,26.00575632582789,-113.31502385151421,-0.2438,-0.4381,0.225,-0.8354
7,1538359.0,25.353317,1.0,8.12,-1.58,5.19,-24.06,-4.0,16.69,-1.69,3.75,-1.63,0.14783003711984954,0.12095061126883433,0.042920321759270415,-51.965432739188564,26.00575632582789,-113.31502385151421,-0.2438,-0.4381,0.225,-0.8354
8,1538394.0,25.355872,1.0,8.14,-1.52,5.01,-24.06,-4.0,16.69,-2.13,4.06,-2.19,-0.02642421907717429,0.03949057614667106,0.12843517209698696,-51.82525084646464,25.99399574998519,-113.39846355737878,-0.2449,-0.43700000000000006,0.2249,-0.8358
9,1538394.0,25.355872,1.0,8.14,-1.52,5.01,-24.06,-4.0,16.69,-2.13,4.06,-2.19,-0.02642421907717429,0.03949057614667106,0.12843517209698696,-51.82525084646464,25.99399574998519,-113.39846355737878,-0.2449,-0.43700000000000006,0.2249,-0.8358
10,1538428.0,25.395734,1.0,8.11,-1.64,5.03,-23.75,-4.38,15.5,2.69,3.63,-0.37,0.06354421429032919,-0.05472535068088247,0.1239041462236532,-51.736087563875465,25.9116795113663,-113.48199585621887,-0.2452,-0.4363,0.2242,-0.8362
11,1538428.0,25.395734,1.0,8.11,-1.64,5.03,-23.75,-4.38,15.5,2.69,3.63,-0.37,0.06354421429032919,-0.05472535068088247,0.1239041462236532,-51.736087563875465,25.9116795113663,-113.48199585621887,-0.2452,-0.4363,0.2242,-0.8362
12,1538465.0,25.412784,1.0,8.09,-1.58,5.16,-22.56,-3.19,15.88,0.19,3.5,0.75,0.0963210088333244,0.05641718676300522,0.08257475531502934,-51.59604173997076,25.852890528278607,-113.62840124543837,-0.2452,-0.4352,0.2237,-0.8369
13,1538465.0,25.412784,1.0,8.09,-1.58,5.16,-22.56,-3.19,15.88,0.19,3.5,0.75,0.0963210088333244,0.05641718676300522,0.08257475531502934,-51.59604173997076,25.852890528278607,-113.62840124543837,-0.2452,-0.4352,0.2237,-0.8369
14,1538498.0,25.415778,1.0,8.13,-1.48,5.19,-22.56,-3.19,15.88,3.06,3.19,3.38,0.015566852872168413,0.13626440453372954,0.049366070281200436,-51.494242185161674,25.817620461905193,-113.75411958451244,-0.2447,-0.4344,0.2234,-0.8375
15,1538498.0,25.415778,1.0,8.13,-1.48,5.19,-22.56,-3.19,15.88,3.06,3.19,3.38,0.015566852872168413,0.13626440453372954,0.049366070281200436,-51.494242185161674,25.817620461905193,-113.75411958451244,-0.2447,-0.4344,0.2234,-0.8375
16,1538533.0,25.524138,1.0,8.14,-1.72,5.09,-23.75,-4.0,16.25,8.38,2.63,3.56,0.07487847856773644,-0.13072005175382662,0.05455250861298922,-51.443358765022325,25.617803632217928,-114.02723737175656,-0.2427,-0.434,0.2217,-0.8388
17,1538533.0,25.524138,1.0,8.14,-1.72,5.09,-23.75,-4.0,16.25,8.38,2.63,3.56,0.07487847856773644,-0.13072005175382662,0.05455250861298922,-51.443358765022325,25.617803632217928,-114.02723737175656,-0.2427,-0.434,0.2217,-0.8388
18,1538568.0,25.529804000000002,1.0,8.08,-1.67,5.31,-23.37,-3.19,16.25,2.5,1.0,4.38,0.19812279764328866,0.04649995710961608,-0.0030383289451538786,-51.40520334224811,25.559049077875773,-114.17471692174006,-0.2415,-0.4337,0.2212,-0.8395
19,1538568.0,25.529804000000002,1.0,8.08,-1.67,5.31,-23.37,-3.19,16.25,2.5,1.0,4.38,0.19812279764328866,0.04649995710961608,-0.0030383289451538786,-51.40520334224811,25.559049077875773,-114.17471692174006,-0.2415,-0.4337,0.2212,-0.8395
20,1538603.0,25.577881,1.0,8.1,-1.6,5.24,-23.37,-3.19,16.25,3.31,2.06,5.56,0.0823002961044681,0.06113361081550794,0.028250880364426575,-51.328910831615794,25.547298987438325,-114.30136176070127,-0.2401,-0.4331,0.2211,-0.8401
21,1538603.0,25.577881,1.0,8.1,-1.6,5.24,-23.37,-3.19,16.25,3.31,2.06,5.56,0.0823002961044681,0.06113361081550794,0.028250880364426575,-51.328910831615794,25.547298987438325,-114.30136176070127,-0.2401,-0.4331,0.2211,-0.8401
22,1538637.0,25.638303,1.0,8.03,-1.69,5.04,-24.06,-3.56,16.25,4.94,0.88,6.06,0.021216868342787576,-0.10893723152330492,0.17720128659559542,-51.252642719818056,25.488552629562964,-114.5341088647508,-0.23800000000000002,-0.4325,0.2206,-0.8412
23,1538637.0,25.638303,1.0,8.03,-1.69,5.04,-24.06,-3.56,16.25,4.94,0.88,6.06,0.021216868342787576,-0.10893723152330492,0.17720128659559542,-51.252642719818056,25.488552629562964,-114.5341088647508,-0.23800000000000002,-0.4325,0.2206,-0.8412
24,1538670.0,25.645564,1.0,7.99,-1.57,5.25,-24.06,-2.5,17.06,1.63,-0.56,6.19,0.08552998630587838,0.1274635190622111,0.11934192846893946,-51.2272254279677,25.488552629562964,-114.66137227839893,-0.2361,-0.4323,0.2206,-0.8418
25,1538670.0,25.645564,1.0,7.99,-1.57,5.25,-24.06,-2.5,17.06,1.63,-0.56,6.19,0.08552998630587838,0.1274635190622111,0.11934192846893946,-51.2272254279677,25.488552629562964,-114.66137227839893,-0.2361,-0.4323,0.2206,-0.8418
26,1538707.0,25.691627,1.0,7.98,-1.61,5.3,-25.56,-3.19,16.19,4.25,0.81,3.81,0.12726137610348442,0.13614286376337958,0.09440156501860386,-51.17639894970855,25.5003013557049,-114.7888564887898,-0.2346,-0.4319,0.2207,-0.8424
27,1538707.0,25.691627,1.0,7.98,-1.61,5.3,-25.56,-3.19,16.19,4.25,0.81,3.81,0.12726137610348442,0.13614286376337958,0.09440156501860386,-51.17639894970855,25.5003013557049,-114.7888564887898,-0.2346,-0.4319,0.2207,-0.8424
28,1538742.0,25.705949,1.0,7.99,-1.79,5.19,-25.56,-3.19,16.19,3.44,1.5,1.06,0.14858216182161846,-0.08073827378273735,0.11378124651246325,-51.138286174965344,25.418065988790868,-114.91656280775707,-0.2338,-0.4316,0.22,-0.843
29,1538742.0,25.705949,1.0,7.99,-1.79,5.19,-25.56,-3.19,16.19,3.44,1.5,1.06,0.14858216182161846,-0.08073827378273735,0.11378124651246325,-51.138286174965344,25.418065988790868,-114.91656280775707,-0.2338,-0.4316,0.22,-0.843
30,1538777.0,25.708356,1.0,8.01,-1.75,5.28,-24.87,-2.88,15.38,0.0,-0.94,-0.12,0.17111170878314225,-0.0024229860182748424,0.05617745184849632,-51.15098975907829,25.382826336621637,-114.9378688809502,-0.2333,-0.4317,0.2197,-0.8431
31,1538777.0,25.708356,1.0,8.01,-1.75,5.28,-24.87,-2.88,15.38,0.0,-0.94,-0.12,0.17111170878314225,-0.0024229860182748424,0.05617745184849632,-51.15098975907829,25.382826336621637,-114.9378688809502,-0.2333,-0.4317,0.2197,-0.8431
32,1538811.0,25.784861,1.0,8.02,-1.65,5.33,-24.5,-3.19,15.88,-1.37,0.88,-0.88,0.13635539522783624,0.10189453816989667,0.03818928659774201,-51.125583264636,25.394572616004382,-114.9378688809502,-0.2336,-0.4315,0.2198,-0.8431
33,1538811.0,25.784861,1.0,8.02,-1.65,5.33,-24.5,-3.19,15.88,-1.37,0.88,-0.88,0.13635539522783624,0.10189453816989667,0.03818928659774201,-51.125583264636,25.394572616004382,-114.9378688809502,-0.2336,-0.4315,0.2198,-0.8431
34,1538846.0,25.918109,1.0,8.01,-1.66,5.1,-24.5,-3.19,15.88,-0.31,0.88,-0.63,-0.004002148573953479,-0.04289045454742735,0.16694853202312745,-51.06207881053215,25.394572616004382,-114.98049967133859,-0.2341,-0.431,0.2198,-0.8433
35,1538846.0,25.918109,1.0,8.01,-1.66,5.1,-24.5,-3.19,15.88,-0.31,0.88,-0.63,-0.004002148573953479,-0.04289045454742735,0.16694853202312745,-51.06207881053215,25.394572616004382,-114.98049967133859,-0.2341,-0.431,0.2198,-0.8433
36,1538881.0,25.922949,1.0,8.07,-1.56,5.12,-24.06,-2.88,16.56,-0.69,0.63,1.12,-0.0819597263236368,0.03809000328890777,0.12343091981233735,-51.06207881053215,25.40631916668005,-114.98049967133859,-0.23399999999999999,-0.431,0.2199,-0.8433
37,1538881.0,25.922949,1.0,8.07,-1.56,5.12,-24.06,-2.88,16.56,-0.69,0.63,1.12,-0.0819597263236368,0.03809000328890777,0.12343091981233735,-51.06207881053215,25.40631916668005,-114.98049967133859,-0.23399999999999999,-0.431,0.2199,-0.8433
38,1538918.0,25.983118,1.0,8.03,-1.63,5.3,-25.56,-3.56,15.0,4.19,0.0,2.0,0.0889295153085018,0.09000628908043784,0.04899708501921651,-51.06207881053215,25.34758912480893,-115.04449255970869,-0.2333,-0.431,0.2194,-0.8436
39,1538918.0,25.983118,1.0,8.03,-1.63,5.3,-25.56,-3.56,15.0,4.19,0.0,2.0,0.0889295153085018,0.09000628908043784,0.04899708501921651,-51.06207881053215,25.34758912480893,-115.04449255970869,-0.2333,-0.431,0.2194,-0.8436
40,1538951.0,25.985583,1.0,7.94,-1.73,5.36,-25.56,-3.56,15.0,2.0,0.63,0.06,0.22962140334972314,0.05591745225280576,0.07473100888333127,-51.06207881053215,25.277122006902648,-115.10854164041076,-0.2328,-0.431,0.2188,-0.8439
41,1538951.0,25.985583,1.0,7.94,-1.73,5.36,-25.56,-3.56,15.0,2.0,0.63,0.06,0.22962140334972314,0.05591745225280576,0.07473100888333127,-51.06207881053215,25.277122006902648,-115.10854164041076,-0.2328,-0.431,0.2188,-0.8439
42,1538985.0,26.025023,1.0,8.0,-1.64,5.27,-25.25,-2.5,15.5,-0.19,2.75,-0.19,0.07791132463943913,0.05546119725309173,0.0879384660006366,-50.98589564550729,25.253635128091673,-115.19402811606797,-0.2329,-0.4304,0.2186,-0.8443
43,1538985.0,26.025023,1.0,8.0,-1.64,5.27,-25.25,-2.5,15.5,-0.19,2.75,-0.19,0.07791132463943913,0.05546119725309173,0.0879384660006366,-50.98589564550729,25.253635128091673,-115.19402811606797,-0.2329,-0.4304,0.2186,-0.8443
44,1539020.0,26.041362,1.0,8.02,-1.67,5.26,-24.5,-2.5,16.25,1.56,3.94,-0.88,0.06575190463097214,0.004915152688198976,0.07153045639338629,-50.88435563772038,25.183180957237052,-115.27961518989136,-0.2331,-0.4296,0.218,-0.8447
45,1539020.0,26.041362,1.0,8.02,-1.67,5.26,-24.5,-2.5,16.25,1.56,3.94,-0.88,0.06575190463097214,0.004915152688198976,0.07153045639338629,-50.88435563772038,25.183180957237052,-115.27961518989136,-0.2331,-0.4296,0.218,-0.8447
46,1539057.0,26.044992,1.0,7.95,-1.67,5.37,-25.25,-2.06,16.25,-0.37,2.06,-1.94,0.1642614602553389,0.06310744821952974,0.07025766902575903,-50.820914868829576,25.10099664997855,-115.36530326577595,-0.2335,-0.4291,0.2173,-0.8451
47,1539057.0,26.044992,1.0,7.95,-1.67,5.37,-25.25,-2.06,16.25,-0.37,2.06,-1.94,0.1642614602553389,0.06310744821952974,0.07025766902575903,-50.820914868829576,25.10099664997855,-115.36530326577595,-0.2335,-0.4291,0.2173,-0.8451
48,1539090.0,26.092601000000002,1.0,8.14,-1.63,5.21,-25.25,-2.06,16.25,-0.06,3.44,-0.75,-0.06662176642048151,-0.04737223603496021,0.005939953707839507,-50.74480796197109,25.065778823031927,-115.40818530642284,-0.2339,-0.4285,0.217,-0.8453
49,1539090.0,26.092601000000002,1.0,8.14,-1.63,5.21,-25.25,-2.06,16.25,-0.06,3.44,-0.75,-0.06662176642048151,-0.04737223603496021,0.005939953707839507,-50.74480796197109,25.065778823031927,-115.40818530642284,-0.2339,-0.4285,0.217,-0.8453
50,1539127.0,26.100282999999997,1.0,11.19,-2.11,2.99,-25.25,-3.19,15.5,-7.94,-22.19,2.31,-2.7387514532534705,-2.289955193405381,-1.4122468124988874,-50.92242811941736,25.21840683143225,-115.21541543771308,-0.2336,-0.4299,0.2183,-0.8444
51,1539127.0,26.100282999999997,1.0,11.19,-2.11,2.99,-25.25,-3.19,15.5,-7.94,-22.19,2.31,-2.7387514532534705,-2.289955193405381,-1.4122468124988874,-50.92242811941736,25.21840683143225,-115.21541543771308,-0.2336,-0.4299,0.2183,-0.8444
52,1539164.0,26.103683,1.0,15.04,-2.0,1.95,-24.87,-2.5,14.25,-14.19,-93.0,3.63,-5.105553154123557,-3.222809913434749,-4.2486309737936505,-52.64203317675828,26.229260388868166,-113.39846355737878,-0.231,-0.4434,0.2269,-0.8358
53,1539164.0,26.103683,1.0,15.04,-2.0,1.95,-24.87,-2.5,14.25,-14.19,-93.0,3.63,-5.105553154123557,-3.222809913434749,-4.2486309737936505,-52.64203317675828,26.229260388868166,-113.39846355737878,-0.231,-0.4434,0.2269,-0.8358
54,1539196.0,26.143171,1.0,17.68,-2.26,1.35,-24.87,-2.5,14.25,-22.19,-177.19,20.0,-5.6211301201115305,-3.1282989380319797,-6.8705542599196745,-57.50146795059126,27.702261187008638,-109.253864399006,-0.2156,-0.48100000000000004,0.2394,-0.8154
55,1539196.0,26.143171,1.0,17.68,-2.26,1.35,-24.87,-2.5,14.25,-22.19,-177.19,20.0,-5.6211301201115305,-3.1282989380319797,-6.8705542599196745,-57.50146795059126,27.702261187008638,-109.253864399006,-0.2156,-0.48100000000000004,0.2394,-0.8154
56,1539233.0,26.160207999999997,1.0,17.13,2.73,2.18,-23.75,-3.56,15.5,-102.44,-323.81,-30.06,-5.20787531120228,3.3821746682668192,-6.535966964742949,-67.42142956285187,32.556220911511176,-97.94594136084784,-0.2104,-0.555,0.2803,-0.7544
57,1539233.0,26.160207999999997,1.0,17.13,2.73,2.18,-23.75,-3.56,15.5,-102.44,-323.81,-30.06,-5.20787531120228,3.3821746682668192,-6.535966964742949,-67.42142956285187,32.556220911511176,-97.94594136084784,-0.2104,-0.555,0.2803,-0.7544
58,1539270.0,26.204119,1.0,13.28,7.55,4.85,-23.37,-4.38,11.38,-37.13,-302.19,-99.37,-3.3412368676614355,9.800739013554058,-2.4271168353773778,-76.44252722312795,34.45901715267948,-88.32568102255905,-0.2101,-0.6187,0.2962,-0.6967
59,1539270.0,26.204119,1.0,13.28,7.55,4.85,-23.37,-4.38,11.38,-37.13,-302.19,-99.37,-3.3412368676614355,9.800739013554058,-2.4271168353773778,-76.44252722312795,34.45901715267948,-88.32568102255905,-0.2101,-0.6187,0.2962,-0.6967
60,1539307.0,26.259024,1.0,14.86,5.35,2.04,-21.69,-9.25,8.19,183.5,-188.75,-124.37,-1.3513068309237934,7.019076920776832,-4.423958877659336,-86.78619903924593,29.97401461191905,-81.26427589274175,-0.1925,-0.687,0.2586,-0.6512
61,1539307.0,26.259024,1.0,14.86,5.35,2.04,-21.69,-9.25,8.19,183.5,-188.75,-124.37,-1.3513068309237934,7.019076920776832,-4.423958877659336,-86.78619903924593,29.97401461191905,-81.26427589274175,-0.1925,-0.687,0.2586,-0.6512
62,1539342.0,26.367296999999997,1.0,15.07,1.58,-0.67,-21.69,-9.25,8.19,161.0,-218.25,-119.5,0.7095968261034589,2.6852675998172697,-5.104285928430366,-94.7327966552025,25.265378432632104,-76.36961551362315,-0.1693,-0.7357,0.2187,-0.6182
63,1539342.0,26.367296999999997,1.0,15.07,1.58,-0.67,-21.69,-9.25,8.19,161.0,-218.25,-119.5,0.7095968261034589,2.6852675998172697,-5.104285928430366,-94.7327966552025,25.265378432632104,-76.36961551362315,-0.1693,-0.7357,0.2187,-0.6182
64,1539379.0,26.426022999999997,1.0,15.16,1.58,-2.84,-20.06,-14.25,9.0,79.44,-215.25,-128.38,1.5062522137240169,1.898310250690573,-5.5072398540107965,-105.08411822562073,20.21551264575777,-68.5825161330216,-0.1472,-0.7938,0.1755,-0.5634
65,1539379.0,26.426022999999997,1.0,15.16,1.58,-2.84,-20.06,-14.25,9.0,79.44,-215.25,-128.38,1.5062522137240169,1.898310250690573,-5.5072398540107965,-105.08411822562073,20.21551264575777,-68.5825161330216,-0.1472,-0.7938,0.1755,-0.5634
66,1539414.0,26.440504999999998,1.0,14.56,3.07,-3.14,-17.37,-18.19,9.06,41.13,-214.5,-165.19,3.1320388867909923,2.678793664519354,-4.832082763274286,-114.91656280775707,15.309094936163461,-59.84128068972836,-0.1511,-0.843,0.1332,-0.4988
67,1539414.0,26.440504999999998,1.0,14.56,3.07,-3.14,-17.37,-18.19,9.06,41.13,-214.5,-165.19,3.1320388867909923,2.678793664519354,-4.832082763274286,-114.91656280775707,15.309094936163461,-59.84128068972836,-0.1511,-0.843,0.1332,-0.4988
68,1539448.0,26.518962,1.0,12.49,2.85,-1.97,-17.37,-18.19,9.06,99.44,-212.69,-161.31,4.9340080950379726,2.3952842251643647,-1.9373560285568043,-122.5651319143896,10.741493332748478,-53.153985232120654,-0.14800000000000002,-0.877,0.0936,-0.4474
69,1539448.0,26.518962,1.0,12.49,2.85,-1.97,-17.37,-18.19,9.06,99.44,-212.69,-161.31,4.9340080950379726,2.3952842251643647,-1.9373560285568043,-122.5651319143896,10.741493332748478,-53.153985232120654,-0.14800000000000002,-0.877,0.0936,-0.4474
70,1539483.0,26.576603000000002,1.0,10.41,2.4,-1.91,-14.69,-21.56,7.06,89.37,-195.38,-175.38,5.6151111486188965,1.3844490006471597,0.623511769892449,-131.84655671079122,4.412865642375664,-44.85325420187507,-0.1392,-0.9129999999999999,0.0385,-0.3815
71,1539483.0,26.576603000000002,1.0,10.41,2.4,-1.91,-14.69,-21.56,7.06,89.37,-195.38,-175.38,5.6151111486188965,1.3844490006471597,0.623511769892449,-131.84655671079122,4.412865642375664,-44.85325420187507,-0.1392,-0.9129999999999999,0.0385,-0.3815
72,1539520.0,26.592126,1.0,7.36,2.51,-0.9,-8.19,-24.69,5.69,97.75,-163.06,-187.94,4.9530796640011685,1.4225513198926891,3.914023286527505,-137.6241524258607,-0.8136069048374162,-39.084272157289,-0.1364,-0.9324,-0.0071,-0.3345
73,1539520.0,26.592126,1.0,7.36,2.51,-0.9,-8.19,-24.69,5.69,97.75,-163.06,-187.94,4.9530796640011685,1.4225513198926891,3.914023286527505,-137.6241524258607,-0.8136069048374162,-39.084272157289,-0.1364,-0.9324,-0.0071,-0.3345
74,1539557.0,26.595194,1.0,6.3,1.25,-1.3,-1.56,-27.37,6.5,130.31,-121.06,-141.44,4.597742048077183,-0.16144471541279892,5.140044846014043,-143.9049982588089,-7.189606746883267,-32.84283089936096,-0.1104,-0.9508,-0.0627,-0.2827
75,1539557.0,26.595194,1.0,6.3,1.25,-1.3,-1.56,-27.37,6.5,130.31,-121.06,-141.44,4.597742048077183,-0.16144471541279892,5.140044846014043,-143.9049982588089,-7.189606746883267,-32.84283089936096,-0.1104,-0.9508,-0.0627,-0.2827
76,1539592.0,26.630139,1.0,5.63,0.36,-2.72,-1.56,-27.37,6.5,109.81,-102.94,-148.13,3.5819283893625453,-1.4774121981475308,4.886086799486922,-147.27558529764082,-13.426452603767608,-27.784885032921768,-0.0898,-0.9595,-0.1169,-0.2401
77,1539592.0,26.630139,1.0,5.63,0.36,-2.72,-1.56,-27.37,6.5,109.81,-102.94,-148.13,3.5819283893625453,-1.4774121981475308,4.886086799486922,-147.27558529764082,-13.426452603767608,-27.784885032921768,-0.0898,-0.9595,-0.1169,-0.2401
78,1539629.0,26.636574,1.0,4.09,-1.7,-4.09,3.5,-26.56,9.0,102.75,-96.0,-121.5,1.3435798104732557,-3.2493663013385112,4.9094454981832385,-148.6458749656724,-17.636430239406273,-24.22126399043484,-0.0733,-0.9628,-0.1533,-0.2098
79,1539629.0,26.636574,1.0,4.09,-1.7,-4.09,3.5,-26.56,9.0,102.75,-96.0,-121.5,1.3435798104732557,-3.2493663013385112,4.9094454981832385,-148.6458749656724,-17.636430239406273,-24.22126399043484,-0.0733,-0.9628,-0.1533,-0.2098
80,1539665.0,26.652649,1.0,2.87,-1.43,-4.37,9.56,-24.5,12.06,49.38,-80.62,-107.12,0.3906586609459648,-2.696284986535089,5.120912802715735,-148.85861645005238,-21.998949913651906,-20.366848065448238,-0.066,-0.9633,-0.1908,-0.1768
81,1539665.0,26.652649,1.0,2.87,-1.43,-4.37,9.56,-24.5,12.06,49.38,-80.62,-107.12,0.3906586609459648,-2.696284986535089,5.120912802715735,-148.85861645005238,-21.998949913651906,-20.366848065448238,-0.066,-0.9633,-0.1908,-0.1768
82,1539700.0,26.655379999999997,1.0,2.51,-0.59,-4.51,9.56,-24.5,12.06,33.31,-26.0,-107.06,0.3627639542667115,-1.8824974800680327,4.978306023953733,-147.4795905833761,-25.147957501678356,-18.773754707559725,-0.0659,-0.96,-0.2177,-0.1631
83,1539700.0,26.655379999999997,1.0,2.51,-0.59,-4.51,9.56,-24.5,12.06,33.31,-26.0,-107.06,0.3627639542667115,-1.8824974800680327,4.978306023953733,-147.4795905833761,-25.147957501678356,-18.773754707559725,-0.0659,-0.96,-0.2177,-0.1631
84,1539735.0,26.658128,1.0,2.69,-1.09,-5.67,13.5,-22.75,13.5,36.75,19.0,-94.12,-0.2072666982520132,-2.454046610851667,3.9323163571462705,-144.53918747848587,-29.10890564472929,-18.634392500869453,-0.0585,-0.9525,-0.2513,-0.1619
85,1539735.0,26.658128,1.0,2.69,-1.09,-5.67,13.5,-22.75,13.5,36.75,19.0,-94.12,-0.2072666982520132,-2.454046610851667,3.9323163571462705,-144.53918747848587,-29.10890564472929,-18.634392500869453,-0.0585,-0.9525,-0.2513,-0.1619
86,1539770.0,26.696568,1.0,2.93,-0.46,-6.57,16.25,-22.69,14.06,2.0,39.25,-79.5,-0.20113358427934916,-2.0482043299502486,2.8982634804103498,-141.9934624116977,-31.64999191142923,-19.447737797457524,-0.0562,-0.9455,-0.2727,-0.1689
87,1539770.0,26.696568,1.0,2.93,-0.46,-6.57,16.25,-22.69,14.06,2.0,39.25,-79.5,-0.20113358427934916,-2.0482043299502486,2.8982634804103498,-141.9934624116977,-31.64999191142923,-19.447737797457524,-0.0562,-0.9455,-0.2727,-0.1689
88,1539807.0,26.713461,1.0,4.21,0.75,-7.91,18.0,-21.19,14.69,2.0,44.75,-72.69,0.6115698519156143,-1.8096010828443707,1.0199540204411068,-138.5533323833026,-34.60301565627788,-21.054133663315955,-0.0575,-0.9353,-0.2974,-0.1827
89,1539807.0,26.713461,1.0,4.21,0.75,-7.91,18.0,-21.19,14.69,2.0,44.75,-72.69,0.6115698519156143,-1.8096010828443707,1.0199540204411068,-138.5533323833026,-34.60301565627788,-21.054133663315955,-0.0575,-0.9353,-0.2974,-0.1827
90,1539842.0,26.747234999999996,1.0,4.48,1.36,-10.06,18.0,-21.19,14.69,1.31,-18.19,-50.56,0.2745845520834696,-1.5543395816187238,-1.1766205415450128,-137.0570759218849,-36.29930145114271,-21.100756747738608,-0.0585,-0.9306,-0.3115,-0.1831
91,1539842.0,26.747234999999996,1.0,4.48,1.36,-10.06,18.0,-21.19,14.69,1.31,-18.19,-50.56,0.2745845520834696,-1.5543395816187238,-1.1766205415450128,-137.0570759218849,-36.29930145114271,-21.100756747738608,-0.0585,-0.9306,-0.3115,-0.1831
92,1539878.0,26.815395000000002,1.0,1.79,2.61,-7.21,18.87,-21.19,15.0,11.31,-53.5,-36.88,0.3036777658225339,0.8134116745529569,1.9806394414685349,-136.7140156295355,-37.676791133557344,-19.040944126019852,-0.0661,-0.9295,-0.3229,-0.1654
93,1539878.0,26.815395000000002,1.0,1.79,2.61,-7.21,18.87,-21.19,15.0,11.31,-53.5,-36.88,0.3036777658225339,0.8134116745529569,1.9806394414685349,-136.7140156295355,-37.676791133557344,-19.040944126019852,-0.0661,-0.9295,-0.3229,-0.1654
94,1539915.0,26.869875,1.0,1.68,2.77,-7.96,19.56,-20.75,14.06,9.81,0.75,-50.0,0.17726413500629634,0.9142069247675472,1.26324885495551,-135.397065246721,-39.51014004319908,-18.37896716762953,-0.066,-0.9252,-0.33799999999999997,-0.1597
95,1539915.0,26.869875,1.0,1.68,2.77,-7.96,19.56,-20.75,14.06,9.81,0.75,-50.0,0.17726413500629634,0.9142069247675472,1.26324885495551,-135.397065246721,-39.51014004319908,-18.37896716762953,-0.066,-0.9252,-0.33799999999999997,-0.1597
96,1539948.0,26.908427000000003,1.0,2.38,1.99,-7.84,19.56,-20.75,14.06,48.56,25.19,-44.81,0.2893402397478639,-0.05860764180516397,1.3803253344067787,-134.0866361818657,-41.072508978695026,-18.4137924426918,-0.0584,-0.9208,-0.3508,-0.16
97,1539948.0,26.908427000000003,1.0,2.38,1.99,-7.84,19.56,-20.75,14.06,48.56,25.19,-44.81,0.2893402397478639,-0.05860764180516397,1.3803253344067787,-134.0866361818657,-41.072508978695026,-18.4137924426918,-0.0584,-0.9208,-0.3508,-0.16
98,1539983.0,26.974328000000003,1.0,3.47,0.47,-9.69,20.5,-20.06,13.25,41.44,37.5,-45.75,-0.5784134189087908,-1.6274261422878222,-0.3508507786474926,-132.15647345628565,-43.17232602381402,-18.994468937034103,-0.043,-0.9141,-0.3679,-0.165
99,1539983.0,26.974328000000003,1.0,3.47,0.47,-9.69,20.5,-20.06,13.25,41.44,37.5,-45.75,-0.5784134189087908,-1.6274261422878222,-0.3508507786474926,-132.15647345628565,-43.17232602381402,-18.994468937034103,-0.043,-0.9141,-0.3679,-0.165
100,1540020.0,26.977652000000003,1.0,3.06,1.54,-9.94,21.56,-19.0,16.37,8.88,-16.37,-30.56,-0.2292989534518357,-0.6354461965125968,-0.6853674476257723,-131.23228149999522,-44.24647435383947,-18.796984460560502,-0.0448,-0.9108,-0.3766,-0.1633
101,1540020.0,26.977652000000003,1.0,3.06,1.54,-9.94,21.56,-19.0,16.37,8.88,-16.37,-30.56,-0.2292989534518357,-0.6354461965125968,-0.6853674476257723,-131.23228149999522,-44.24647435383947,-18.796984460560502,-0.0448,-0.9108,-0.3766,-0.1633
102,1540057.0,27.01548,1.0,2.38,0.57,-9.01,21.56,-19.0,16.37,49.38,-34.44,-19.75,-0.7329397637456057,-0.8852852082560156,0.5412050887847997,-131.0660093808112,-45.26264916304815,-17.068431181009654,-0.0378,-0.9102,-0.3848,-0.1484
103,1540057.0,27.01548,1.0,2.38,0.57,-9.01,21.56,-19.0,16.37,49.38,-34.44,-19.75,-0.7329397637456057,-0.8852852082560156,0.5412050887847997,-131.0660093808112,-45.26264916304815,-17.068431181009654,-0.0378,-0.9102,-0.3848,-0.1484
104,1540089.0,27.030997999999997,1.0,2.77,0.28,-10.0,22.69,-18.19,16.75,6.75,-15.75,-21.81,-0.8792829455567948,-1.3565897839123249,-0.4470237640631858,-130.6800872399157,-45.946335125324666,-16.442961442690333,-0.037000000000000005,-0.9088,-0.3903,-0.14300000000000002
105,1540089.0,27.030997999999997,1.0,2.77,0.28,-10.0,22.69,-18.19,16.75,6.75,-15.75,-21.81,-0.8792829455567948,-1.3565897839123249,-0.4470237640631858,-130.6800872399157,-45.946335125324666,-16.442961442690333,-0.037000000000000005,-0.9088,-0.3903,-0.14300000000000002
106,1540126.0,27.033972,1.0,1.99,0.59,-9.03,22.56,-17.19,16.69,18.81,-22.69,-11.06,-0.76117302233843,-0.7137949253173309,0.6001190336340354,-130.46082634681812,-46.53194812307301,-15.436288478593855,-0.0383,-0.9079999999999999,-0.395,-0.1343
107,1540126.0,27.033972,1.0,1.99,0.59,-9.03,22.56,-17.19,16.69,18.81,-22.69,-11.06,-0.76117302233843,-0.7137949253173309,0.6001190336340354,-130.46082634681812,-46.53194812307301,-15.436288478593855,-0.0383,-0.9079999999999999,-0.395,-0.1343
108,1540161.0,27.069826000000003,1.0,1.82,0.52,-9.0,24.06,-16.75,16.69,1.25,-4.56,-3.38,-0.8536964608444888,-0.6509092072020211,0.6726300987341158,-130.43348264858346,-46.70663424071843,-15.054764601110485,-0.0375,-0.9079,-0.3964,-0.131
109,1540161.0,27.069826000000003,1.0,1.82,0.52,-9.0,24.06,-16.75,16.69,1.25,-4.56,-3.38,-0.8536964608444888,-0.6509092072020211,0.6726300987341158,-130.43348264858346,-46.70663424071843,-15.054764601110485,-0.0375,-0.9079,-0.3964,-0.131
110,1540196.0,27.082213,1.0,2.22,1.05,-9.62,24.06,-16.75,16.69,0.06,-14.25,2.5,-0.3265717938640158,-0.6064170471314443,-0.09794031098211596,-130.62518646665285,-46.63175471031061,-14.650301303680088,-0.0387,-0.9086,-0.3958,-0.1275
111,1540196.0,27.082213,1.0,2.22,1.05,-9.62,24.06,-16.75,16.69,0.06,-14.25,2.5,-0.3265717938640158,-0.6064170471314443,-0.09794031098211596,-130.62518646665285,-46.63175471031061,-14.650301303680088,-0.0387,-0.9086,-0.3958,-0.1275
112,1540231.0,27.096662,1.0,2.24,0.5,-9.16,24.75,-16.75,17.19,17.06,-12.06,7.19,-0.4607153590465825,-0.9885171480442252,0.4266833046454206,-130.92785324394194,-46.569371208551814,-14.026630173419028,-0.0351,-0.9097,-0.3953,-0.1221
113,1540231.0,27.096662,1.0,2.24,0.5,-9.16,24.75,-16.75,17.19,17.06,-12.06,7.19,-0.4607153590465825,-0.9885171480442252,0.4266833046454206,-130.92785324394194,-46.569371208551814,-14.026630173419028,-0.0351,-0.9097,-0.3953,-0.1221
114,1540268.0,27.179782,1.0,2.42,1.93,-9.06,24.25,-16.87,16.19,5.81,7.75,-5.75,0.7155578797878668,-0.1372307040557248,0.2602347222877466,-131.03834889093932,-46.494530291688996,-13.945814879054648,-0.0346,-0.9101,-0.3947,-0.1214
115,1540268.0,27.179782,1.0,2.42,1.93,-9.06,24.25,-16.87,16.19,5.81,7.75,-5.75,0.7155578797878668,-0.1372307040557248,0.2602347222877466,-131.03834889093932,-46.494530291688996,-13.945814879054648,-0.0346,-0.9101,-0.3947,-0.1214
116,1540302.0,27.231696000000003,1.0,2.97,1.21,-10.01,24.25,-16.87,16.19,15.06,4.25,-2.5,0.3664107079385358,-0.9131396072018578,-0.6583879478942762,-130.87269286132405,-46.7191162156521,-13.945814879054648,-0.0297,-0.9095,-0.3965,-0.1214
117,1540302.0,27.231696000000003,1.0,2.97,1.21,-10.01,24.25,-16.87,16.19,15.06,4.25,-2.5,0.3664107079385358,-0.9131396072018578,-0.6583879478942762,-130.87269286132405,-46.7191162156521,-13.945814879054648,-0.0297,-0.9095,-0.3965,-0.1214
118,1540337.0,27.290107,1.0,2.57,1.92,-9.29,24.69,-15.75,16.19,16.62,-10.25,-2.69,0.8656841539706791,-0.17080177501417482,0.018043475105049108,-130.90026578643878,-46.84396830154976,-13.51876311679545,-0.0281,-0.9096,-0.3975,-0.1177
119,1540337.0,27.290107,1.0,2.57,1.92,-9.29,24.69,-15.75,16.19,16.62,-10.25,-2.69,0.8656841539706791,-0.17080177501417482,0.018043475105049108,-130.90026578643878,-46.84396830154976,-13.51876311679545,-0.0281,-0.9096,-0.3975,-0.1177
120,1540372.0,27.304453000000002,1.0,2.18,0.67,-9.36,24.69,-15.75,18.56,26.12,0.63,-4.56,-0.20253227138500085,-0.6615501003630682,0.19768376300253546,-130.84513444406196,-47.0813498800656,-13.138038375794716,-0.0222,-0.9094,-0.3994,-0.1144
121,1540372.0,27.304453000000002,1.0,2.18,0.67,-9.36,24.69,-15.75,18.56,26.12,0.63,-4.56,-0.20253227138500085,-0.6615501003630682,0.19768376300253546,-130.84513444406196,-47.0813498800656,-13.138038375794716,-0.0222,-0.9094,-0.3994,-0.1144
122,1540409.0,27.385991999999998,1.0,1.98,0.94,-9.27,25.37,-15.0,17.06,10.31,-3.5,-3.13,-0.07165038480314036,-0.3094310089155777,0.2863549061975501,-130.70755912152916,-47.29392563415834,-12.941964550756788,-0.0197,-0.9089,-0.4011,-0.1127
123,1540409.0,27.385991999999998,1.0,1.98,0.94,-9.27,25.37,-15.0,17.06,10.31,-3.5,-3.13,-0.07165038480314036,-0.3094310089155777,0.2863549061975501,-130.70755912152916,-47.29392563415834,-12.941964550756788,-0.0197,-0.9089,-0.4011,-0.1127
124,1540444.0,27.442964,1.0,1.99,0.69,-9.48,25.37,-15.0,17.06,9.63,-5.69,-5.25,-0.23873349911425384,-0.4465315527300663,0.10870094420386243,-130.62518646665285,-47.456600104689066,-12.711338126294773,-0.0171,-0.9086,-0.4024,-0.1107
125,1540444.0,27.442964,1.0,1.99,0.69,-9.48,25.37,-15.0,17.06,9.63,-5.69,-5.25,-0.23873349911425384,-0.4465315527300663,0.10870094420386243,-130.62518646665285,-47.456600104689066,-12.711338126294773,-0.0171,-0.9086,-0.4024,-0.1107
126,1540481.0,27.458493,1.0,2.07,0.97,-9.84,25.0,-14.75,18.56,3.75,-4.69,-2.75,-0.005513518520290972,-0.2816484140276559,-0.2914708039906753,-130.62518646665285,-47.544236088592434,-12.457708722341449,-0.0153,-0.9086,-0.4031,-0.1085
127,1540481.0,27.458493,1.0,2.07,0.97,-9.84,25.0,-14.75,18.56,3.75,-4.69,-2.75,-0.005513518520290972,-0.2816484140276559,-0.2914708039906753,-130.62518646665285,-47.544236088592434,-12.457708722341449,-0.0153,-0.9086,-0.4031,-0.1085
128,1540513.0,27.461236,1.0,2.1,1.13,-9.51,25.0,-15.5,17.06,2.19,-9.19,-2.69,0.24002090388497846,-0.2319161733232684,0.00789472934192581,-130.57034285366944,-47.66948159847917,-12.204140573704526,-0.0151,-0.9084,-0.4041,-0.1063
129,1540513.0,27.461236,1.0,2.1,1.13,-9.51,25.0,-15.5,17.06,2.19,-9.19,-2.69,0.24002090388497846,-0.2319161733232684,0.00789472934192581,-130.57034285366944,-47.66948159847917,-12.204140573704526,-0.0151,-0.9084,-0.4041,-0.1063
130,1540548.0,27.490820000000003,1.0,2.19,0.97,-10.08,25.0,-15.5,17.06,3.63,-13.81,-2.13,0.12203111027831252,-0.4069192739281729,-0.5453027197833542,-130.57034285366944,-47.76972155794277,-11.835420883076136,-0.0154,-0.9084,-0.4049,-0.1031
131,1540548.0,27.490820000000003,1.0,2.19,0.97,-10.08,25.0,-15.5,17.06,3.63,-13.81,-2.13,0.12203111027831252,-0.4069192739281729,-0.5453027197833542,-130.57034285366944,-47.76972155794277,-11.835420883076136,-0.0154,-0.9084,-0.4049,-0.1031
132,1540583.0,27.501681,1.0,1.83,1.02,-9.51,25.0,-15.06,17.37,1.37,-13.5,-3.06,0.08839106975982187,-0.190029894557865,0.07086674142439442,-130.5977575270689,-47.84492701246389,-11.443790822449785,-0.0167,-0.9085,-0.4055,-0.0997
133,1540583.0,27.501681,1.0,1.83,1.02,-9.51,25.0,-15.06,17.37,1.37,-13.5,-3.06,0.08839106975982187,-0.190029894557865,0.07086674142439442,-130.5977575270689,-47.84492701246389,-11.443790822449785,-0.0167,-0.9085,-0.4055,-0.0997
134,1540620.0,27.562623,1.0,1.86,1.03,-9.96,25.0,-14.75,19.06,-1.56,-11.0,-6.44,0.06806282635908875,-0.23759425478993346,-0.3747554246827267,-130.4881841928668,-48.02049166769566,-11.109859542072414,-0.0182,-0.9081,-0.4069,-0.0968
135,1540620.0,27.562623,1.0,1.86,1.03,-9.96,25.0,-14.75,19.06,-1.56,-11.0,-6.44,0.06806282635908875,-0.23759425478993346,-0.3747554246827267,-130.4881841928668,-48.02049166769566,-11.109859542072414,-0.0182,-0.9081,-0.4069,-0.0968
136,1540655.0,27.609284999999996,1.0,1.77,1.03,-9.73,25.0,-14.75,19.06,2.44,-15.19,-1.44,0.11017474269394203,-0.2256736857757926,-0.13335165561458773,-130.4881841928668,-48.120868117186305,-10.706964767003905,-0.019,-0.9081,-0.4077,-0.0933
137,1540655.0,27.609284999999996,1.0,1.77,1.03,-9.73,25.0,-14.75,19.06,2.44,-15.19,-1.44,0.11017474269394203,-0.2256736857757926,-0.13335165561458773,-130.4881841928668,-48.120868117186305,-10.706964767003905,-0.019,-0.9081,-0.4077,-0.0933
138,1540689.0,27.648518,1.0,1.69,1.01,-10.16,26.19,-14.38,16.56,-0.25,-19.06,-3.0,0.033809021642203244,-0.23951069600250666,-0.5395227985065071,-130.51555621027464,-48.221283839840105,-10.177646918437086,-0.021,-0.9082,-0.4085,-0.0887
139,1540689.0,27.648518,1.0,1.69,1.01,-10.16,26.19,-14.38,16.56,-0.25,-19.06,-3.0,0.033809021642203244,-0.23951069600250666,-0.5395227985065071,-130.51555621027464,-48.221283839840105,-10.177646918437086,-0.021,-0.9082,-0.4085,-0.0887
140,1540724.0,27.670837,1.0,1.37,0.89,-9.63,26.19,-14.38,17.06,2.88,-25.81,-1.25,-0.05453959253483505,-0.21392011101131914,0.04155073686134969,-130.6800872399157,-48.258949886108525,-9.292096140833058,-0.024,-0.9088,-0.4088,-0.081
141,1540724.0,27.670837,1.0,1.37,0.89,-9.63,26.19,-14.38,17.06,2.88,-25.81,-1.25,-0.05453959253483505,-0.21392011101131914,0.04155073686134969,-130.6800872399157,-48.258949886108525,-9.292096140833058,-0.024,-0.9088,-0.4088,-0.081
142,1540759.0,27.687007,1.0,1.27,1.12,-9.74,26.87,-14.0,16.56,-2.0,-25.37,-0.31,0.10958292427384833,-0.08063175254398391,-0.07851009497010075,-130.79006103529238,-48.23383857270471,-8.648411389524659,-0.0269,-0.9092,-0.4086,-0.0754
143,1540759.0,27.687007,1.0,1.27,1.12,-9.74,26.87,-14.0,16.56,-2.0,-25.37,-0.31,0.10958292427384833,-0.08063175254398391,-0.07851009497010075,-130.79006103529238,-48.23383857270471,-8.648411389524659,-0.0269,-0.9092,-0.4086,-0.0754
