acc_x,acc_y,acc_z,lin_x,lin_y,lin_z,eul_x,eul_y,eul_z
7.25,-1.48,6.42,-0.0259967861506708,0.0531224170300379,0.0104363347148908,-41.096983557102725,25.88816308640127,-116.66302751124852
7.25,-1.48,6.42,-0.0259967861506708,0.0531224170300379,0.0104363347148908,-41.096983557102725,25.88816308640127,-116.66302751124852
7.22,-1.56,6.46,0.0720499242119581,0.0328776399144914,-0.0059606551322364,-41.14593859433644,25.852890528278607,-116.66302751124852
7.22,-1.56,6.46,0.0720499242119581,0.0328776399144914,-0.0059606551322364,-41.14593859433644,25.852890528278607,-116.66302751124852
7.19,-1.53,6.36,0.0310023909021512,0.0058318642486774,0.0862793876664476,-41.19490148271794,25.84113356281753,-116.61938735433752
7.19,-1.53,6.36,0.0310023909021512,0.0058318642486774,0.0862793876664476,-41.19490148271794,25.84113356281753,-116.61938735433752
7.27,-1.53,6.23,-0.0693010121121957,-0.103459784647085,0.111744459321379,-41.20714343304567,25.84113356281753,-116.59757736800644
7.27,-1.53,6.23,-0.0693010121121957,-0.103459784647085,0.111744459321379,-41.20714343304567,25.84113356281753,-116.59757736800644
7.21,-1.56,6.42,0.0741759150625379,0.0106501201790718,0.0276682274142281,-41.23162880897231,25.8058643261674,-116.64120406641231
7.21,-1.56,6.42,0.0741759150625379,0.0106501201790718,0.0276682274142281,-41.23162880897231,25.8058643261674,-116.64120406641231
7.24,-1.5,6.35,-0.018658678444975,-0.0020715556101227,0.0603816083346,-41.20714343304567,25.8176204619052,-116.61938735433752
7.24,-1.5,6.35,-0.018658678444975,-0.0020715556101227,0.0603816083346,-41.20714343304567,25.8176204619052,-116.61938735433752
7.2,-1.52,6.33,0.0088471800717658,-0.0121754115281647,0.0999990076773187,-41.20714343304567,25.8176204619052,-116.59757736800644
7.2,-1.52,6.33,0.0088471800717658,-0.0121754115281647,0.0999990076773187,-41.20714343304567,25.8176204619052,-116.59757736800644
7.26,-1.46,6.41,-0.0232607045548649,0.0520154691763559,0.0125674329297158,-41.23162880897231,25.8058643261674,-116.57577410041328
7.26,-1.46,6.41,-0.0232607045548649,0.0520154691763559,0.0125674329297158,-41.23162880897231,25.8058643261674,-116.57577410041328
7.29,-1.5,6.37,-0.0258479604580713,-0.0166945694923899,0.0102193656163915,-41.24387223496928,25.770597576108926,-116.57577410041328
7.29,-1.5,6.37,-0.0258479604580713,-0.0166945694923899,0.0102193656163915,-41.24387223496928,25.770597576108926,-116.57577410041328
7.21,-1.52,6.38,0.033741835034494,0.0014723554501794,0.0599706002896596,-41.21938587506413,25.74708778893412,-116.59757736800644
7.21,-1.52,6.38,0.033741835034494,0.0014723554501794,0.0599706002896596,-41.21938587506413,25.74708778893412,-116.59757736800644
7.27,-1.45,6.27,-0.0957720408649776,-0.0429564710543419,0.0980310221132327,-41.21938587506413,25.735333308776628,-116.57577410041328
7.27,-1.45,6.27,-0.0957720408649776,-0.0429564710543419,0.0980310221132327,-41.21938587506413,25.735333308776628,-116.57577410041328
7.26,-1.54,6.42,0.0436388374356537,-0.0166491071939514,-0.006270995254006,-41.21938587506413,25.700071520307283,-116.57577410041328
7.26,-1.54,6.42,0.0436388374356537,-0.0166491071939514,-0.006270995254006,-41.21938587506413,25.700071520307283,-116.57577410041328
7.24,-1.48,6.37,-0.0075942032022764,-0.004234683841688,0.0503789707834325,-41.23162880897231,25.65305965168436,-116.61938735433752
7.24,-1.48,6.37,-0.0075942032022764,-0.004234683841688,0.0503789707834325,-41.23162880897231,25.65305965168436,-116.61938735433752
7.29,-1.56,6.25,-0.036943172403315,-0.1551252773772131,0.0796375423986717,-41.20714343304567,25.64130737095736,-116.64120406641231
7.29,-1.56,6.25,-0.036943172403315,-0.1551252773772131,0.0796375423986717,-41.20714343304567,25.64130737095736,-116.64120406641231
9.21,-2.43,5.2,-0.974577397758782,-2.138280944674781,-0.7880162758870544,-41.14593859433644,25.65305965168436,-116.72853831267862
9.21,-2.43,5.2,-0.974577397758782,-2.138280944674781,-0.7880162758870544,-41.14593859433644,25.65305965168436,-116.72853831267862
12.33,-3.26,3.39,-3.064657198260194,-4.873832061753578,-2.0677862936088385,-41.24387223496928,25.876405289927124,-117.2328235497882
12.33,-3.26,3.39,-3.064657198260194,-4.873832061753578,-2.0677862936088385,-41.24387223496928,25.876405289927124,-117.2328235497882
14.74,-2.32,1.52,-6.043947505612182,-5.364911781925095,-2.8285714116558154,-42.33553232385557,29.014203146635065,-116.07613737802976
14.74,-2.32,1.52,-6.043947505612182,-5.364911781925095,-2.8285714116558154,-42.33553232385557,29.014203146635065,-116.07613737802976
15.43,5.61,3.33,-10.443854809773136,2.586841853120605,-3.033912524255792,-46.95638557950453,37.53152975160733,-107.53011997485687
15.43,5.61,3.33,-10.443854809773136,2.586841853120605,-3.033912524255792,-46.95638557950453,37.53152975160733,-107.53011997485687
16.37,5.83,4.45,-8.971771881716373,4.747819414738327,-4.983002467434021,-54.28434190943172,40.19271594298347,-100.09909176327572
16.37,5.83,4.45,-8.971771881716373,4.747819414738327,-4.983002467434021,-54.28434190943172,40.19271594298347,-100.09909176327572
16.58,1.42,3.94,-3.0229963085717926,3.0153690399805866,-6.75249982331786,-65.29921632957101,38.015979325491685,-92.70501720124948
16.58,1.42,3.94,-3.0229963085717926,3.0153690399805866,-6.75249982331786,-65.29921632957101,38.015979325491685,-92.70501720124948
17.46,3.03,1.25,-3.950156972449517,2.6295765308430137,-7.312829757324642,-72.61234523055688,36.48023552286196,-86.81774250688417
17.46,3.03,1.25,-3.950156972449517,2.6295765308430137,-7.312829757324642,-72.61234523055688,36.48023552286196,-86.81774250688417
17.87,2.88,1.51,-0.3916170787111724,3.5688370219135703,-7.998445854127858,-83.33396753816719,33.12965231611837,-78.4252433968071
17.87,2.88,1.51,-0.3916170787111724,3.5688370219135703,-7.998445854127858,-83.33396753816719,33.12965231611837,-78.4252433968071
17.08,3.77,1.9,1.689244353493727,4.857368213752711,-7.018977107190223,-91.36838194343346,30.080791981197944,-72.00208892273058
17.08,3.77,1.9,1.689244353493727,4.857368213752711,-7.018977107190223,-91.36838194343346,30.080791981197944,-72.00208892273058
16.32,3.1,1.15,4.622783702819341,3.74527825058895,-5.745766585939733,-101.6281995958626,24.467440757791284,-63.84882293017529
16.32,3.1,1.15,4.622783702819341,3.74527825058895,-5.745766585939733,-101.6281995958626,24.467440757791284,-63.84882293017529
14.08,1.86,0.27,6.658627367506172,1.910603326883978,-2.5946070535408925,-112.50626800349724,18.35575126897081,-54.65809476610264
14.08,1.86,0.27,6.658627367506172,1.910603326883978,-2.5946070535408925,-112.50626800349724,18.35575126897081,-54.65809476610264
11.53,3.23,1.51,7.006751859657926,3.5353809804675094,0.638203583069334,-120.2467396055226,14.25756979612918,-47.46911772602086
11.53,3.23,1.51,7.006751859657926,3.5353809804675094,0.638203583069334,-120.2467396055226,14.25756979612918,-47.46911772602086
9.58,2.28,0.49,6.9263461895046285,1.8040513297313063,3.0253501789605663,-129.78141812262746,7.832701331508732,-39.46144077446525
9.58,2.28,0.49,6.9263461895046285,1.8040513297313063,3.0253501789605663,-129.78141812262746,7.832701331508732,-39.46144077446525
7.65,0.13,-0.95,5.812748516026299,-0.9478871180885656,4.831173670964172,-136.34269592729157,3.048495041051397,-33.8955603834521
7.65,0.13,-0.95,5.812748516026299,-0.9478871180885656,4.831173670964172,-136.34269592729157,3.048495041051397,-33.8955603834521
5.29,0.91,-1.1,4.158208850664604,-0.3262224304739279,6.2534714117342425,-143.02758111671002,-2.1200647857418087,-26.94751777725
5.29,0.91,-1.1,4.158208850664604,-0.3262224304739279,6.2534714117342425,-143.02758111671002,-2.1200647857418087,-26.94751777725
3.44,0.66,-1.19,2.684419285764988,-0.4532303520549516,7.301899444318028,-146.5511870394875,-6.04177399090254,-22.933590145135867
3.44,0.66,-1.19,2.684419285764988,-0.4532303520549516,7.301899444318028,-146.5511870394875,-6.04177399090254,-22.933590145135867
3.8,-0.56,-3.97,1.9712605914985872,-2.742755103347825,5.43561738476317,-148.73080219796103,-11.547444362906596,-19.72682480222871
3.8,-0.56,-3.97,1.9712605914985872,-2.742755103347825,5.43561738476317,-148.73080219796103,-11.547444362906596,-19.72682480222871
3.61,0.12,-5.59,1.4755850836203552,-2.7308272986512625,3.919389947485064,-148.73080219796103,-16.269308165184984,-16.894639006068054
3.61,0.12,-5.59,1.4755850836203552,-2.7308272986512625,3.919389947485064,-148.73080219796103,-16.269308165184984,-16.894639006068054
2.08,-0.1,-5.54,0.1779782543795613,-2.3872110188827422,4.3939291230017385,-148.73080219796103,-19.43611171140661,-14.812064314477515
2.08,-0.1,-5.54,0.1779782543795613,-2.3872110188827422,4.3939291230017385,-148.73080219796103,-19.43611171140661,-14.812064314477515
1.52,-0.28,-6.11,-0.4027096202294671,-2.3969404346932124,3.9917208074554034,-148.0575479662478,-23.237678334824075,-12.607573156584117
1.52,-0.28,-6.11,-0.4027096202294671,-2.3969404346932124,3.9917208074554034,-148.0575479662478,-23.237678334824075,-12.607573156584117
0.97,0.0,-7.63,-1.0842424879070385,-2.2496621035260373,2.531951473780792,-146.9114591288739,-25.8176204619052,-11.294085603048902
0.97,0.0,-7.63,-1.0842424879070385,-2.2496621035260373,2.531951473780792,-146.9114591288739,-25.8176204619052,-11.294085603048902
0.64,-0.05,-7.53,-1.151028533709337,-2.0396160413792264,2.6213803656483767,-146.0373496598969,-28.292756752714663,-9.372576979838527
0.64,-0.05,-7.53,-1.151028533709337,-2.0396160413792264,2.6213803656483767,-146.0373496598969,-28.292756752714663,-9.372576979838527
0.32,0.84,-7.93,-0.995003888377033,-1.1811276498403205,1.9767199404849576,-145.06982302382067,-29.95028992789253,-8.487533709607298
0.32,0.84,-7.93,-0.995003888377033,-1.1811276498403205,1.9767199404849576,-145.06982302382067,-29.95028992789253,-8.487533709607298
0.48,0.14,-9.04,-1.2692699177258029,-1.961385971758614,1.0594493651828911,-143.72051272987528,-32.26982009667936,-7.453706284964303
0.48,0.14,-9.04,-1.2692699177258029,-1.961385971758614,1.0594493651828911,-143.72051272987528,-32.26982009667936,-7.453706284964303
-0.21,0.24,-8.16,-1.4782254202794531,-1.23313769463305,1.87056021768814,-143.02758111671002,-33.58422417640036,-6.523783187455053
-0.21,0.24,-8.16,-1.4782254202794531,-1.23313769463305,1.87056021768814,-143.02758111671002,-33.58422417640036,-6.523783187455053
-0.39,-0.07,-8.47,-1.7042459401419718,-1.2451527479129114,1.59427881928279,-142.09917876057762,-35.31183406453793,-5.800810045139373
-0.39,-0.07,-8.47,-1.7042459401419718,-1.2451527479129114,1.59427881928279,-142.09917876057762,-35.31183406453793,-5.800810045139373
0.48,0.37,-9.35,-0.8603538808477241,-1.4623875772409511,0.5919327621439425,-141.08884000838947,-36.60091053338324,-5.686074397008276
0.48,0.37,-9.35,-0.8603538808477241,-1.4623875772409511,0.5919327621439425,-141.08884000838947,-36.60091053338324,-5.686074397008276
0.29,-0.06,-9.15,-1.188163479131337,-1.5172837855148569,0.8569953999010576,-139.66874405322235,-38.40404714248387,-5.502509177758649
0.29,-0.06,-9.15,-1.188163479131337,-1.5172837855148569,0.8569953999010576,-139.66874405322235,-38.40404714248387,-5.502509177758649
0.03,-0.11,-8.56,-1.2697957548852623,-1.1831735594967825,1.4236720643864818,-138.94369485234358,-39.42492119409256,-5.284543793645802
0.03,-0.11,-8.56,-1.2697957548852623,-1.1831735594967825,1.4236720643864818,-138.94369485234358,-39.42492119409256,-5.284543793645802
0.33,0.85,-8.84,-0.5474860060580373,-0.5529286747344828,0.9538804359693742,-137.46590815068691,-41.0113310955595,-5.97292446733722
0.33,0.85,-8.84,-0.5474860060580373,-0.5529286747344828,0.9538804359693742,-137.46590815068691,-41.0113310955595,-5.97292446733722
0.99,0.15,-10.52,-0.9081771388273692,-1.378962047136918,-0.6311025338104912,-135.91325060474233,-42.70441132531611,-7.1781250358345785
0.99,0.15,-10.52,-0.9081771388273692,-1.378962047136918,-0.6311025338104912,-135.91325060474233,-42.70441132531611,-7.1781250358345785
0.84,0.17,-10.38,-1.0095384468807966,-1.0889650890370617,-0.5022726963406825,-135.2162310052641,-43.49291375439449,-7.5915129998336095
0.84,0.17,-10.38,-1.0095384468807966,-1.0889650890370617,-0.5022726963406825,-135.2162310052641,-43.49291375439449,-7.5915129998336095
0.9,0.6,-10.16,-0.5930286349509497,-0.6950443732212441,-0.3698341845001494,-134.7075870499225,-44.13516742855202,-7.568544455864769
0.9,0.6,-10.16,-0.5930286349509497,-0.6950443732212441,-0.3698341845001494,-134.7075870499225,-44.13516742855202,-7.568544455864769
1.02,-0.08,-10.51,-0.9664350093723804,-1.20012260080757,-0.6400054033188187,-134.38132917213414,-44.593044465749166,-7.361841150905901
1.02,-0.08,-10.51,-0.9664350093723804,-1.20012260080757,-0.6400054033188187,-134.38132917213414,-44.593044465749166,-7.361841150905901
1.24,0.29,-10.56,-0.5082881540787102,-1.0611711259103047,-0.7645778848749405,-134.20429804752106,-44.82846183777319,-7.143680335170353
1.24,0.29,-10.56,-0.5082881540787102,-1.0611711259103047,-0.7645778848749405,-134.20429804752106,-44.82846183777319,-7.143680335170353
1.12,0.74,-9.95,-0.1220432876275868,-0.6405197521458181,-0.2122990408453571,-134.20429804752106,-44.90284557373644,-6.78778903124712
1.12,0.74,-9.95,-0.1220432876275868,-0.6405197521458181,-0.2122990408453571,-134.20429804752106,-44.90284557373644,-6.78778903124712
0.86,0.37,-9.8,-0.4180828084342928,-0.7024405822165634,-0.0039709790077484,-134.0866361818657,-45.175757046056106,-6.133576755953128
0.86,0.37,-9.8,-0.4180828084342928,-0.7024405822165634,-0.0039709790077484,-134.0866361818657,-45.175757046056106,-6.133576755953128
0.55,0.23,-9.48,-0.610528655484485,-0.5679183674632743,0.3445929568021455,-133.93995871664828,-45.39924946360132,-5.674601147870103
0.55,0.23,-9.48,-0.610528655484485,-0.5679183674632743,0.3445929568021455,-133.93995871664828,-45.39924946360132,-5.674601147870103
0.13,0.11,-9.17,-0.8935626749387205,-0.3329579759707819,0.6847760295817604,-133.64792062272215,-45.78458156617274,-5.353372863141336
0.13,0.11,-9.17,-0.8935626749387205,-0.3329579759707819,0.6847760295817604,-133.64792062272215,-45.78458156617274,-5.353372863141336
0.16,-0.21,-9.47,-1.0948091663287784,-0.5577330584902963,0.4129858200971661,-133.444524198005,-46.008573794141824,-5.181303758795194
0.16,-0.21,-9.47,-1.0948091663287784,-0.5577330584902963,0.4129858200971661,-133.444524198005,-46.008573794141824,-5.181303758795194
0.52,0.35,-9.71,-0.4809436413772132,-0.4406913599686261,0.098329633475835,-133.32867360141205,-46.13309422581874,-5.215716631990905
0.52,0.35,-9.71,-0.4809436413772132,-0.4406913599686261,0.098329633475835,-133.32867360141205,-46.13309422581874,-5.215716631990905
0.84,0.52,-9.86,-0.1631049480729062,-0.5658223136139859,-0.0852073526578234,-133.21309386328863,-46.23275206665912,-5.238658808769412
0.84,0.52,-9.86,-0.1631049480729062,-0.5658223136139859,-0.0852073526578234,-133.21309386328863,-46.23275206665912,-5.238658808769412
0.63,0.18,-9.82,-0.5385915032469636,-0.6144943117407989,-0.0012048079316695,-133.0977829759083,-46.39477504755206,-5.261601195679236
0.63,0.18,-9.82,-0.5385915032469636,-0.6144943117407989,-0.0012048079316695,-133.0977829759083,-46.39477504755206,-5.261601195679236
0.56,0.26,-9.88,-0.4982717612278552,-0.4409589578127621,-0.0702361717389248,-132.98273895587266,-46.54442190080458,-5.215716631990905
0.56,0.26,-9.88,-0.4982717612278552,-0.4409589578127621,-0.0702361717389248,-132.98273895587266,-46.54442190080458,-5.215716631990905
0.58,0.02,-10.18,-0.6367015600437923,-0.5722393214388952,-0.3538791831890773,-132.95401941873996,-46.63175471031061,-5.0551272004985615
0.58,0.02,-10.18,-0.6367015600437923,-0.5722393214388952,-0.3538791831890773,-132.95401941873996,-46.63175471031061,-5.0551272004985615
0.49,0.76,-9.68,-0.1019715890210625,-0.0231716522913403,0.0850675737916688,-132.95401941873996,-46.60679955433233,-4.928956774809122
0.49,0.76,-9.68,-0.1019715890210625,-0.0231716522913403,0.0850675737916688,-132.95401941873996,-46.60679955433233,-4.928956774809122
0.47,0.67,-9.62,-0.1573351862790097,-0.0685056068497772,0.1534250144840889,-132.89662989290295,-46.66919183707166,-4.837200229263812
0.47,0.67,-9.62,-0.1573351862790097,-0.0685056068497772,0.1534250144840889,-132.89662989290295,-46.66919183707166,-4.837200229263812
0.79,0.37,-10.23,-0.2026652194872406,-0.4885229099948349,-0.4468456076072122,-132.75344370342964,-46.85645674888645,-4.825730880475589
0.79,0.37,-10.23,-0.2026652194872406,-0.4885229099948349,-0.4468456076072122,-132.75344370342964,-46.85645674888645,-4.825730880475589
0.54,0.5,-9.71,-0.1980700545467643,-0.2153893624464614,0.0731986246636626,-132.69628364910096,-46.93139982661226,-4.6536963885673295
0.54,0.5,-9.71,-0.1980700545467643,-0.2153893624464614,0.0731986246636626,-132.69628364910096,-46.93139982661226,-4.6536963885673295
0.37,0.01,-9.55,-0.601370697710754,-0.4162408416770997,0.2775053980089659,-132.55366749345723,-47.11885074218369,-4.3669953627837845
0.37,0.01,-9.55,-0.601370697710754,-0.4162408416770997,0.2775053980089659,-132.55366749345723,-47.11885074218369,-4.3669953627837845
0.46,0.09,-9.75,-0.4968371399745299,-0.4220513057966013,0.0671825837796795,-132.4398647310081,-47.24389230544818,-4.3669953627837845
0.46,0.09,-9.75,-0.4968371399745299,-0.4220513057966013,0.0671825837796795,-132.4398647310081,-47.24389230544818,-4.3669953627837845
0.56,0.11,-9.72,-0.3881926867626054,-0.4411782627366026,0.0876599198305196,-132.41145409892673,-47.281416405631816,-4.332593112917143
0.56,0.11,-9.72,-0.3881926867626054,-0.4411782627366026,0.0876599198305196,-132.41145409892673,-47.281416405631816,-4.332593112917143
0.63,-0.01,-9.78,-0.4064345885225718,-0.5311308242148564,0.0292213516885588,-132.4398647310081,-47.281416405631816,-4.2867240536107065
0.63,-0.01,-9.78,-0.4064345885225718,-0.5311308242148564,0.0292213516885588,-132.4398647310081,-47.281416405631816,-4.2867240536107065
0.55,0.36,-9.74,-0.1788707716094573,-0.22440217972512,0.0487122614817554,-132.46829135766265,-47.26890777482772,-4.240855681461491
0.55,0.36,-9.74,-0.1788707716094573,-0.22440217972512,0.0487122614817554,-132.46829135766265,-47.26890777482772,-4.240855681461491
0.4,0.21,-9.7,-0.3800895339992817,-0.2099712076222364,0.1058487940111927,-132.46829135766265,-47.26890777482772,-4.217921750764655
0.4,0.21,-9.7,-0.3800895339992817,-0.2099712076222364,0.1058487940111927,-132.46829135766265,-47.26890777482772,-4.217921750764655
0.5,0.33,-9.71,-0.2467354890808761,-0.1825760130383353,0.0830299129186933,-132.38305943270692,-47.33145690842096,-4.378462866761455
0.5,0.33,-9.71,-0.2467354890808761,-0.1825760130383353,0.0830299129186933,-132.38305943270692,-47.33145690842096,-4.378462866761455
0.58,0.26,-9.78,-0.2602444230954639,-0.2634082684149605,0.0130148769020248,-132.3546807037213,-47.36899357064292,-4.49314033842009
0.58,0.26,-9.78,-0.2602444230954639,-0.2634082684149605,0.0130148769020248,-132.3546807037213,-47.36899357064292,-4.49314033842009
0.7,0.34,-9.96,-0.152018859383096,-0.2691660478782433,-0.1789215862969744,-132.32631788342704,-47.36899357064292,-4.642227799866185
0.7,0.34,-9.96,-0.152018859383096,-0.2691660478782433,-0.1789215862969744,-132.32631788342704,-47.36899357064292,-4.642227799866185
0.68,0.34,-9.72,-0.1540411049341529,-0.2378577085941388,0.0610820304841652,-132.32631788342704,-47.36899357064292,-4.733977821845079
0.68,0.34,-9.72,-0.1540411049341529,-0.2378577085941388,0.0610820304841652,-132.32631788342704,-47.36899357064292,-4.733977821845079
0.73,0.29,-9.82,-0.176417420506497,-0.2780020861035552,-0.0392116552267207,-132.29797094336487,-47.40653562717492,-4.860139072417077
0.73,0.29,-9.82,-0.176417420506497,-0.2780020861035552,-0.0392116552267207,-132.29797094336487,-47.40653562717492,-4.860139072417077
0.69,0.31,-9.83,-0.1932750279999308,-0.2184811027205962,-0.0480955964781557,-132.24132459051677,-47.431566664841,-4.917487034889402
0.69,0.31,-9.83,-0.1932750279999308,-0.2184811027205962,-0.0480955964781557,-132.24132459051677,-47.431566664841,-4.917487034889402
0.61,0.25,-9.74,-0.2702048395963524,-0.181068754786685,0.0497855728031808,-132.2130251212284,-47.46911772602086,-4.89454770282183
0.61,0.25,-9.74,-0.2702048395963524,-0.181068754786685,0.0497855728031808,-132.2130251212284,-47.46911772602086,-4.89454770282183
