acc_x,acc_y,acc_z,lin_x,lin_y,lin_z,eul_x,eul_y,eul_z
5.86,1.39,-7.83,-0.0260517240941404,0.0997970470601946,-0.0711008501211853,-116.75038875897287,-48.51019892418311,-37.03568997450844
5.86,1.39,-7.83,-0.0260517240941404,0.0997970470601946,-0.0711008501211853,-116.75038875897287,-48.51019892418311,-37.03568997450844
5.93,1.39,-8.02,-0.0915694401063652,0.1344341442330616,-0.2626569522436792,-116.70669462733449,-48.51019892418311,-37.084032798280944
5.93,1.39,-8.02,-0.0915694401063652,0.1344341442330616,-0.2626569522436792,-116.70669462733449,-48.51019892418311,-37.084032798280944
5.93,1.42,-7.87,0.0103347882014592,0.0968120196129696,-0.1486862888960889,-116.72853831267862,-48.51019892418311,-37.04777503969204
5.93,1.42,-7.87,0.0103347882014592,0.0968120196129696,-0.1486862888960889,-116.72853831267862,-48.51019892418311,-37.04777503969204
5.88,1.21,-7.87,-0.1541414500280372,-0.0047018491051796,-0.0904009903707301,-116.77224597329428,-48.522767881927,-36.97527104810168
5.88,1.21,-7.87,-0.1541414500280372,-0.0047018491051796,-0.0904009903707301,-116.77224597329428,-48.522767881927,-36.97527104810168
5.77,1.37,-7.82,-0.0589517718945483,0.1433108926622054,-0.0065139483213982,-116.79410996273164,-48.51019892418311,-36.93902480540506
5.77,1.37,-7.82,-0.0589517718945483,0.1433108926622054,-0.0065139483213982,-116.79410996273164,-48.51019892418311,-36.93902480540506
5.75,1.4,-7.8,-0.0364687113833386,0.1610347191673025,0.0171026227045238,-116.83785829536993,-48.49763058758104,-36.92694357562125
5.75,1.4,-7.8,-0.0364687113833386,0.1610347191673025,0.0171026227045238,-116.83785829536993,-48.49763058758104,-36.92694357562125
5.62,1.5,-7.59,0.0835464594863425,0.2232454490334167,0.2470641586262658,-116.83785829536993,-48.51019892418311,-36.87862290728264
5.62,1.5,-7.59,0.0835464594863425,0.2232454490334167,0.2470641586262658,-116.83785829536993,-48.51019892418311,-36.87862290728264
5.86,1.48,-7.85,0.0321979086644105,0.1540333778694541,-0.0992945290784739,-116.75038875897287,-48.53533746105607,-36.999437339480345
5.86,1.48,-7.85,0.0321979086644105,0.1540333778694541,-0.0992945290784739,-116.75038875897287,-48.53533746105607,-36.999437339480345
6.01,1.41,-7.99,-0.0216944830464112,0.0719920444942625,-0.290015117499685,-116.70669462733449,-48.57304992918911,-37.03568997450844
6.01,1.41,-7.99,-0.0216944830464112,0.0719920444942625,-0.290015117499685,-116.70669462733449,-48.57304992918911,-37.03568997450844
5.9,1.39,-7.76,0.024760538294102,0.0388396389737514,-0.0400539357435647,-116.64120406641231,-48.64849167574625,-37.011521124582174
5.9,1.39,-7.76,0.024760538294102,0.0388396389737514,-0.0400539357435647,-116.64120406641231,-48.64849167574625,-37.011521124582174
5.91,1.33,-7.75,-0.0084749393160358,-0.009747517750099,-0.0299822062635488,-116.61938735433752,-48.6862209673472,-36.999437339480345
5.91,1.33,-7.75,-0.0084749393160358,-0.009747517750099,-0.0299822062635488,-116.61938735433752,-48.6862209673472,-36.999437339480345
5.88,1.36,-7.92,-0.0838153302555185,0.0924807802487312,-0.1499971412669207,-116.55397754456402,-48.74911561441486,-36.999437339480345
5.88,1.36,-7.92,-0.0838153302555185,0.0924807802487312,-0.1499971412669207,-116.55397754456402,-48.74911561441486,-36.999437339480345
5.78,1.35,-7.72,-0.0447370113863463,0.0716098633990716,0.068982382583794,-116.53218769347627,-48.78685991006569,-37.011521124582174
5.78,1.35,-7.72,-0.0447370113863463,0.0716098633990716,0.068982382583794,-116.53218769347627,-48.78685991006569,-37.011521124582174
5.97,1.44,-7.87,0.0279434825206305,0.0695462672881302,-0.1756234123290241,-116.44509519750316,-48.82460984436268,-37.07194645139856
5.97,1.44,-7.87,0.0279434825206305,0.0695462672881302,-0.1756234123290241,-116.44509519750316,-48.82460984436268,-37.07194645139856
6.12,1.38,-8.01,-0.0185466552114191,-0.0075447041069557,-0.3677541151814072,-116.37984588512,-48.887538949850274,-37.09611957275582
6.12,1.38,-8.01,-0.0185466552114191,-0.0075447041069557,-0.3677541151814072,-116.37984588512,-48.887538949850274,-37.09611957275582
6.08,1.5,-7.84,0.1394951130003239,0.0160594157976433,-0.2264095138578348,-116.40158899740273,-48.91271498969397,-37.03568997450844
6.08,1.5,-7.84,0.1394951130003239,0.0160594157976433,-0.2264095138578348,-116.40158899740273,-48.91271498969397,-37.03568997450844
5.95,1.21,-7.77,-0.0793778666550653,-0.1304020636466061,-0.0531773035627747,-116.42333876589676,-49.013444327725786,-36.85446512108432
5.95,1.21,-7.77,-0.0793778666550653,-0.1304020636466061,-0.0531773035627747,-116.42333876589676,-49.013444327725786,-36.85446512108432
5.75,1.31,-7.75,-0.0759231924634384,0.0400392465289669,0.0683887318072251,-116.4886280777146,-49.03863296676083,-36.75785092937251
5.75,1.31,-7.75,-0.0759231924634384,0.0400392465289669,0.0683887318072251,-116.4886280777146,-49.03863296676083,-36.75785092937251
5.78,1.3,-7.86,-0.1094495808422998,0.0400510230762127,-0.0353221958967129,-116.53218769347627,-49.07642066173354,-36.64919229993541
5.78,1.3,-7.86,-0.1094495808422998,0.0400510230762127,-0.0353221958967129,-116.53218769347627,-49.07642066173354,-36.64919229993541
5.64,1.36,-7.64,-0.0140484050431188,0.07352819707609,0.2137778416445837,-116.59757736800644,-49.08901782409213,-36.56470362370221
5.64,1.36,-7.64,-0.0140484050431188,0.07352819707609,0.2137778416445837,-116.59757736800644,-49.08901782409213,-36.56470362370221
5.67,1.44,-7.76,-0.0033650150244594,0.1480302791348371,0.0897484509910206,-116.57577410041328,-49.08901782409213,-36.58884114328757
5.67,1.44,-7.76,-0.0033650150244594,0.1480302791348371,0.0897484509910206,-116.57577410041328,-49.08901782409213,-36.58884114328757
5.81,1.38,-7.88,-0.0437836068600659,0.0672153977233402,-0.0801323424043864,-116.55397754456402,-49.1016156188802,-36.612980343917975
5.81,1.38,-7.88,-0.0437836068600659,0.0672153977233402,-0.0801323424043864,-116.55397754456402,-49.1016156188802,-36.612980343917975
5.88,1.36,-7.96,-0.068787162722865,0.0502116737786012,-0.1822612076372412,-116.51040454017948,-49.11421404634533,-36.66126379400549
5.88,1.36,-7.96,-0.068787162722865,0.0502116737786012,-0.1822612076372412,-116.51040454017948,-49.11421404634533,-36.66126379400549
5.81,1.27,-7.85,-0.1075100913258977,-0.0079899402584783,-0.0411861958918553,-116.51040454017948,-49.15201312727976,-36.60091053338324
5.81,1.27,-7.85,-0.1075100913258977,-0.0079899402584783,-0.0411861958918553,-116.51040454017948,-49.15201312727976,-36.60091053338324
5.66,1.2,-7.97,-0.2783729711310062,0.0841912354967636,-0.0377352182251193,-116.53218769347627,-49.164614087930325,-36.54056778374004
5.66,1.2,-7.97,-0.2783729711310062,0.0841912354967636,-0.0377352182251193,-116.53218769347627,-49.164614087930325,-36.54056778374004
5.39,0.65,-7.32,-0.5077481030875892,-0.3401528617738341,0.7136038715324844,-116.55397754456402,-49.15201312727976,-36.54056778374004
5.39,0.65,-7.32,-0.5077481030875892,-0.3401528617738341,0.7136038715324844,-116.55397754456402,-49.15201312727976,-36.54056778374004
5.01,-0.35,-7.18,-1.3712620742252546,-0.7609330180084299,1.1859991390791134,-116.57577410041328,-49.013444327725786,-36.64919229993541
5.01,-0.35,-7.18,-1.3712620742252546,-0.7609330180084299,1.1859991390791134,-116.57577410041328,-49.013444327725786,-36.64919229993541
4.01,-0.81,-6.4,-1.9228370579948584,-0.6315528875681536,2.485445276827316,-116.22782989578606,-48.4850628718776,-37.81000260574194
4.01,-0.81,-6.4,-1.9228370579948584,-0.6315528875681536,2.485445276827316,-116.22782989578606,-48.4850628718776,-37.81000260574194
0.69,-2.68,-4.74,-4.099401982484215,-0.2549504588962339,6.165770484070767,-115.23680905302648,-47.84492701246389,-39.82686703824351
0.69,-2.68,-4.74,-4.099401982484215,-0.2549504588962339,6.165770484070767,-115.23680905302648,-47.84492701246389,-39.82686703824351
0.98,-4.5,-2.53,-4.196189680799424,-2.5316712924323124,7.910882970582473,-114.74633713830112,-46.70663424071843,-41.611404826079344
0.98,-4.5,-2.53,-4.196189680799424,-2.5316712924323124,7.910882970582473,-114.74633713830112,-46.70663424071843,-41.611404826079344
1.73,-4.09,-1.04,-2.6821872677141902,-3.4091856869493604,8.397421695994044,-114.15363047105912,-42.95058853731749,-46.05837506360943
1.73,-4.09,-1.04,-2.6821872677141902,-3.4091856869493604,8.397421695994044,-114.15363047105912,-42.95058853731749,-46.05837506360943
4.36,-2.32,1.75,1.297453588492354,-4.586138960986274,7.629853359008456,-110.5307773959204,-39.351894536966725,-53.320615694584525
4.36,-2.32,1.75,1.297453588492354,-4.586138960986274,7.629853359008456,-110.5307773959204,-39.351894536966725,-53.320615694584525
5.86,-2.7,1.6,1.1125259122021325,-4.933114773861574,5.491993035351765,-102.35649190819592,-33.78776111254545,-66.1040049398115
5.86,-2.7,1.6,1.1125259122021325,-4.933114773861574,5.491993035351765,-102.35649190819592,-33.78776111254545,-66.1040049398115
9.99,1.1,7.11,8.169210072505212,-4.577089054874088,1.814374818611963,-97.47570497846188,-27.84391108565838,-74.1844858325427
9.99,1.1,7.11,8.169210072505212,-4.577089054874088,1.814374818611963,-97.47570497846188,-27.84391108565838,-74.1844858325427
14.53,5.44,5.06,6.364746329528406,1.6744188389882937,-5.126682706144192,-86.62860462931063,-20.54151049721856,-88.1820023944288
14.53,5.44,5.06,6.364746329528406,1.6744188389882937,-5.126682706144192,-86.62860462931063,-20.54151049721856,-88.1820023944288
14.76,-0.19,4.23,0.9212686129455956,-2.1104562821677155,-5.375044188194549,-77.17366878994224,-18.971232525472264,-97.78895026657293
14.76,-0.19,4.23,0.9212686129455956,-2.1104562821677155,-5.375044188194549,-77.17366878994224,-18.971232525472264,-97.78895026657293
13.61,2.81,4.62,1.3166391499534202,2.0447051520652395,-4.634895699471639,-72.08709874052984,-12.757459245108164,-104.63307361365904
13.61,2.81,4.62,1.3166391499534202,2.0447051520652395,-4.634895699471639,-72.08709874052984,-12.757459245108164,-104.63307361365904
11.06,0.46,6.57,2.9520403984838555,0.0599772954970547,-2.722594199461682,-71.56359842931408,-7.327392950256605,-106.47054675108936
11.06,0.46,6.57,2.9520403984838555,0.0599772954970547,-2.722594199461682,-71.56359842931408,-7.327392950256605,-106.47054675108936
12.61,1.53,5.69,1.9144388389176288,2.398380869189954,-3.7694979491919,-71.36596675624855,-2.9911793597011727,-107.0468533184743
12.61,1.53,5.69,1.9144388389176288,2.398380869189954,-3.7694979491919,-71.36596675624855,-2.9911793597011727,-107.0468533184743
11.86,1.4,5.78,2.053624532540701,3.1132178220648523,-2.9259263721143576,-70.9010852783508,1.9366895446536667,-107.627107150319
11.86,1.4,5.78,2.053624532540701,3.1132178220648523,-2.9259263721143576,-70.9010852783508,1.9366895446536667,-107.627107150319
11.01,-0.31,5.81,1.7873211526568946,1.6078645014613755,-2.4118832524900693,-69.59810663742078,4.022990071019942,-109.01667267342908
11.01,-0.31,5.81,1.7873211526568946,1.6078645014613755,-2.4118832524900693,-69.59810663742078,4.022990071019942,-109.01667267342908
10.94,-0.63,5.6,1.056262219078948,1.6402578988664716,-2.3438382268060547,-67.2424412315755,6.730393436549607,-111.46137512854489
10.94,-0.63,5.6,1.056262219078948,1.6402578988664716,-2.3438382268060547,-67.2424412315755,6.730393436549607,-111.46137512854489
13.02,0.79,5.83,0.0277168212935469,3.706174724391603,-3.9917883424392713,-65.3672776925159,9.200123661166051,-113.2733386110762
13.02,0.79,5.83,0.0277168212935469,3.706174724391603,-3.9917883424392713,-65.3672776925159,9.200123661166051,-113.2733386110762
14.05,3.1,2.36,-4.428891663611715,5.952566758409375,-2.744603627374058,-62.5303947029574,12.169567773976445,-115.75216046951115
14.05,3.1,2.36,-4.428891663611715,5.952566758409375,-2.744603627374058,-62.5303947029574,12.169567773976445,-115.75216046951115
11.33,1.59,3.11,-2.7434522434759905,3.7564089687404016,-1.0989431268011849,-61.88799370587642,13.126503557539667,-116.40158899740273
11.33,1.59,3.11,-2.7434522434759905,3.7564089687404016,-1.0989431268011849,-61.88799370587642,13.126503557539667,-116.40158899740273
9.78,-0.53,3.94,-1.116913707139903,1.0372834537972102,-0.6398540471576677,-61.71438217106357,13.39183842112712,-116.40158899740273
9.78,-0.53,3.94,-1.116913707139903,1.0372834537972102,-0.6398540471576677,-61.71438217106357,13.39183842112712,-116.40158899740273
9.13,-0.38,3.42,-1.3498801936579674,0.6877307856267508,0.1680531192672489,-61.08801371359053,13.79574779269871,-116.53218769347627
9.13,-0.38,3.42,-1.3498801936579674,0.6877307856267508,0.1680531192672489,-61.08801371359053,13.79574779269871,-116.53218769347627
7.98,-0.46,4.23,-0.1395607955438473,0.5967312606627323,0.7839378474986773,-60.46365910623083,14.511670666824136,-116.29293986048516
7.98,-0.46,4.23,-0.1395607955438473,0.5967312606627323,0.7839378474986773,-60.46365910623083,14.511670666824136,-116.29293986048516
7.89,-0.66,5.1,0.6315287629461113,0.5230357154411701,0.4244698129675246,-59.68268779789295,15.262847451308849,-115.92476601153636
7.89,-0.66,5.1,0.6315287629461113,0.5230357154411701,0.4244698129675246,-59.68268779789295,15.262847451308849,-115.92476601153636
8.14,-0.15,5.14,0.13044630919611,0.7001345427605751,0.2048535335854672,-57.59298134364519,16.43138337904295,-115.79527299684044
8.14,-0.15,5.14,0.13044630919611,0.7001345427605751,0.2048535335854672,-57.59298134364519,16.43138337904295,-115.79527299684044
8.94,1.98,5.03,-1.5772630199071742,2.1440382756698817,-0.2958368838566567,-55.83503588596936,18.05401336431272,-114.95918116675216
8.94,1.98,5.03,-1.5772630199071742,2.1440382756698817,-0.2958368838566567,-55.83503588596936,18.05401336431272,-114.95918116675216
9.56,2.38,4.87,-2.53470118154263,1.6927464018071707,-0.7519862537713795,-53.51303293157287,19.261744588057013,-113.73315185618264
9.56,2.38,4.87,-2.53470118154263,1.6927464018071707,-0.7519862537713795,-53.51303293157287,19.261744588057013,-113.73315185618264
9.67,0.63,5.24,-1.2977067275446106,-0.0491025058875938,-1.1330458912577193,-52.39925252360182,18.704070115126303,-112.8163105430652
9.67,0.63,5.24,-1.2977067275446106,-0.0491025058875938,-1.1330458912577193,-52.39925252360182,18.704070115126303,-112.8163105430652
9.77,-0.25,5.13,-0.8435362709494567,-1.472944277604058,-1.099824302663814,-51.21451779561868,16.10726571114575,-113.41933793772672
9.77,-0.25,5.13,-0.8435362709494567,-1.472944277604058,-1.099824302663814,-51.21451779561868,16.10726571114575,-113.41933793772672
9.68,0.61,3.45,-2.4990451969384826,-1.860720504902156,-0.0050518047989687,-49.90920133357593,16.19985740781584,-113.3150238515142
9.68,0.61,3.45,-2.4990451969384826,-1.860720504902156,-0.0050518047989687,-49.90920133357593,16.19985740781584,-113.3150238515142
7.95,1.86,6.12,-0.8112119716401993,1.327892927210649,-0.2777506024617828,-50.85897732637935,16.755633464025784,-112.56817591001142
7.95,1.86,6.12,-0.8112119716401993,1.327892927210649,-0.2777506024617828,-50.85897732637935,16.755633464025784,-112.56817591001142
7.19,1.08,6.93,0.813177441161455,1.5169432418742128,-0.0890574355559987,-52.51422225376784,16.1419863535435,-111.84900177480624
7.19,1.08,6.93,0.813177441161455,1.5169432418742128,-0.0890574355559987,-52.51422225376784,16.1419863535435,-111.84900177480624
7.61,-0.62,5.48,0.9143011192154644,-0.7559946871503249,0.4835911942001658,-53.41039017666287,14.962299399917931,-112.11534046927385
7.61,-0.62,5.48,0.9143011192154644,-0.7559946871503249,0.4835911942001658,-53.41039017666287,14.962299399917931,-112.11534046927385
7.54,-0.04,5.35,0.5569887810202496,-0.3098720337965965,0.5833402458776558,-53.78269118475608,15.10100089527667,-111.6447470313604
7.54,-0.04,5.35,0.5569887810202496,-0.3098720337965965,0.5833402458776558,-53.78269118475608,15.10100089527667,-111.6447470313604
8.02,0.79,4.75,-0.6142088175084242,-0.2121640974300773,0.4747298372330366,-53.17961278851925,15.366907820940328,-111.50208718714256
8.02,0.79,4.75,-0.6142088175084242,-0.2121640974300773,0.4747298372330366,-53.17961278851925,15.366907820940328,-111.50208718714256
8.06,0.94,5.5,-0.2360428463280124,0.22021136619468,0.0090487257647584,-52.97467248448692,15.563501157916,-111.05541520272617
8.06,0.94,5.5,-0.2360428463280124,0.22021136619468,0.0090487257647584,-52.97467248448692,15.563501157916,-111.05541520272617
8.08,1.25,5.2,-0.691944762345708,0.2509032726058196,0.1450165980509279,-52.55255813835036,15.679165793853407,-111.0756633938936
8.08,1.25,5.2,-0.691944762345708,0.2509032726058196,0.1450165980509279,-52.55255813835036,15.679165793853407,-111.0756633938936
8.27,1.03,5.08,-0.7443606509866043,-0.0881207133583024,0.0753416624155818,-52.23328523623708,15.621331474060083,-111.2987386824523
8.27,1.03,5.08,-0.7443606509866043,-0.0881207133583024,0.0753416624155818,-52.23328523623708,15.621331474060083,-111.2987386824523
7.85,0.94,5.49,-0.2565628511231704,0.2411051419203426,0.1878016378537736,-52.27157490538662,15.621331474060083,-111.38001462419376
7.85,0.94,5.49,-0.2565628511231704,0.2411051419203426,0.1878016378537736,-52.27157490538662,15.621331474060083,-111.38001462419376
7.89,0.69,5.6,-0.0331866468449269,0.0910728751714762,0.1072271110916514,-52.33540497698414,15.470980940849389,-111.52245118481588
7.89,0.69,5.6,-0.0331866468449269,0.0910728751714762,0.1072271110916514,-52.33540497698414,15.470980940849389,-111.52245118481588
8.08,0.91,5.4,-0.3980636002535495,0.0783801952648403,0.0542194355128362,-52.24604776210595,15.517239777173634,-111.58357510903522
8.08,0.91,5.4,-0.3980636002535495,0.0783801952648403,0.0542194355128362,-52.24604776210595,15.517239777173634,-111.58357510903522
8.09,1.02,5.52,-0.3843695629340956,0.2066695323847035,-0.0304454932578419,-52.28433952334372,15.447852474357363,-111.52245118481588
8.09,1.02,5.52,-0.3843695629340956,0.2066695323847035,-0.0304454932578419,-52.28433952334372,15.447852474357363,-111.52245118481588
7.83,0.75,5.64,-0.0012867081563384,0.1570888160187512,0.1290303831590922,-52.39925252360182,15.30909493616346,-111.46137512854489
7.83,0.75,5.64,-0.0012867081563384,0.1570888160187512,0.1290303831590922,-52.39925252360182,15.30909493616346,-111.46137512854489
7.9,0.92,5.41,-0.2889853758044666,0.1164370210159629,0.1927314506930582,-52.33540497698414,15.216602467156427,-111.46137512854489
7.9,0.92,5.41,-0.2889853758044666,0.1164370210159629,0.1927314506930582,-52.33540497698414,15.216602467156427,-111.46137512854489
7.98,1.0,5.57,-0.2544132277964684,0.2081642300102099,0.0292658118407533,-52.39925252360182,15.077882439571027,-111.46137512854489
7.98,1.0,5.57,-0.2544132277964684,0.2081642300102099,0.0292658118407533,-52.39925252360182,15.077882439571027,-111.46137512854489
7.92,0.83,5.47,-0.1731281779045665,0.0390402503838042,0.1472140696329749,-52.43756945380554,14.93918463283386,-111.4817285033188
7.92,0.83,5.47,-0.1731281779045665,0.0390402503838042,0.1472140696329749,-52.43756945380554,14.93918463283386,-111.4817285033188
7.94,0.99,5.47,-0.2837094146375715,0.1445101961217528,0.1193786725691996,-52.42479644291255,14.916070477056891,-111.46137512854489
7.94,0.99,5.47,-0.2837094146375715,0.1445101961217528,0.1193786725691996,-52.42479644291255,14.916070477056891,-111.46137512854489
8.02,0.93,5.64,-0.1623629196225549,0.1317991586495077,-0.0397283831473256,-52.412024132935976,14.800508833176536,-111.4817285033188
8.02,0.93,5.64,-0.1623629196225549,0.1317991586495077,-0.0397283831473256,-52.412024132935976,14.800508833176536,-111.4817285033188
7.99,0.94,5.54,-0.216052746125218,0.093162072167376,0.0414084751220169,-52.42479644291255,14.73117911928188,-111.4817285033188
7.99,0.94,5.54,-0.216052746125218,0.093162072167376,0.0414084751220169,-52.42479644291255,14.73117911928188,-111.4817285033188
7.95,0.97,5.56,-0.1882372216664443,0.1340459136206074,0.0596710607890962,-52.51422225376784,14.638747929971784,-111.44102705802788
7.95,0.97,5.56,-0.1882372216664443,0.1340459136206074,0.0596710607890962,-52.51422225376784,14.638747929971784,-111.44102705802788
8.0,0.97,5.4,-0.3092103762688439,0.0154928863293107,0.1110299108215411,-52.488668512026216,14.557878496401068,-111.44102705802788
8.0,0.97,5.4,-0.3092103762688439,0.0154928863293107,0.1110299108215411,-52.488668512026216,14.557878496401068,-111.44102705802788
7.97,1.05,5.64,-0.1776781759813008,0.1980087416212334,-0.0097761828845595,-52.55255813835036,14.477016351828802,-111.38001462419376
7.97,1.05,5.64,-0.1776781759813008,0.1980087416212334,-0.0097761828845595,-52.55255813835036,14.477016351828802,-111.38001462419376
7.85,0.97,5.58,-0.1067761740032507,0.1473075048067738,0.1284942176366659,-52.59090035589804,14.373061379793723,-111.38001462419376
7.85,0.97,5.58,-0.1067761740032507,0.1473075048067738,0.1284942176366659,-52.59090035589804,14.373061379793723,-111.38001462419376
7.99,0.98,5.42,-0.2693489690913202,0.0071812148809783,0.1059129371267726,-52.59090035589804,14.315313760812993,-111.38001462419376
7.99,0.98,5.42,-0.2693489690913202,0.0071812148809783,0.1059129371267726,-52.59090035589804,14.315313760812993,-111.38001462419376
7.9,1.04,5.54,-0.1880907645367821,0.1453212157684744,0.1047582458860851,-52.61646535624809,14.280666944469896,-111.35968772291412
7.9,1.04,5.54,-0.1880907645367821,0.1453212157684744,0.1047582458860851,-52.61646535624809,14.280666944469896,-111.35968772291412
7.97,0.99,5.55,-0.1706253387905285,0.0766613923528477,0.0460911008034425,-52.64203317675828,14.222925164993963,-111.35968772291412
7.97,0.99,5.55,-0.1706253387905285,0.0766613923528477,0.0460911008034425,-52.64203317675828,14.222925164993963,-111.35968772291412
7.92,1.0,5.48,-0.1950091869109983,0.0678070391164642,0.1260418774455836,-52.68039020015169,14.176734355559056,-111.3393661020306
7.92,1.0,5.48,-0.1950091869109983,0.0678070391164642,0.1260418774455836,-52.68039020015169,14.176734355559056,-111.3393661020306
