TIME,ELAPSED_SECONDS,PSTATE,acc_x,acc_y,acc_z,mag_x,mag_y,mag_z,gyr_x,gyr_y,gyr_z,lin_x,lin_y,lin_z,eul_x,eul_y,eul_z,qua_w,qua_x,qua_y,qua_z
1326133.0,595.61388,1.0,-3.43,-0.19,-9.11,17.87,-22.37,39.38,8.31,-13.0,6.06,0.12975764768927567,-0.6383550843738319,0.09229125950044015,-156.19500732541923,-8.76333445653462,21.718849470413215,-0.0367,-0.9785,-0.0764,0.1884
1326170.0,595.63283,1.0,-3.22,0.33,-8.53,19.75,-21.56,38.5,-4.0,-9.19,13.81,0.2344720076187088,-0.12982434914786906,0.6870903332172009,-155.97377873337675,-8.487533709607298,21.975603150496877,-0.038,-0.9781,-0.074,0.1906
1326204.0,595.661167,1.0,-3.34,0.65,-8.07,19.75,-21.56,38.5,-4.5,2.25,6.75,-0.004705738554848571,0.20305586374868795,1.0509806268325832,-156.08414094937433,-8.200293609338797,21.94058473700979,-0.0402,-0.9783,-0.0715,0.1903
1326239.0,595.708471,1.0,-3.19,-0.53,-8.7,19.37,-21.56,40.19,8.75,12.0,-5.56,0.1323659592205244,-1.0034447742184014,0.5804602210103305,-156.36226771891504,-8.303694005010767,21.62551192117329,-0.0382,-0.9788,-0.0724,0.1876
1326274.0,595.726544,1.0,-3.52,-0.3,-8.3,19.37,-21.56,39.38,-0.06,9.88,-1.06,-0.3405528552182009,-0.6689405937294609,0.8173818298504614,-156.70033876277134,-8.372631359788455,21.228988473912292,-0.0372,-0.9794,-0.073,0.1842
1326311.0,595.766405,1.0,-3.36,0.19,-9.24,19.0,-21.25,39.38,2.06,12.13,3.69,0.15197621260536676,-0.2873215050233978,-0.021760328407806284,-157.1587733939545,-8.29220473923879,20.844373279203694,-0.0367,-0.9802,-0.0723,0.1809
1326344.0,595.796399,1.0,-3.41,0.2,-9.54,19.0,-21.25,39.38,1.75,3.06,-2.63,0.18268025648318797,-0.27914012341415906,-0.3209562677906064,-157.33304425296922,-8.326672787534774,20.669626923426364,-0.0358,-0.9805,-0.0726,0.1794
1326381.0,595.836235,1.0,-3.51,0.04,-9.42,17.87,-21.56,39.0,9.56,-6.31,-4.56,0.04964674701967087,-0.36880909874265577,-0.2392255242733814,-157.21671751944734,-8.395611151395808,20.797769475573418,-0.0336,-0.9803,-0.0732,0.1805
1326415.0,595.87444,1.0,-3.41,-0.03,-8.94,18.56,-22.0,39.38,7.13,-6.06,-4.81,0.011283846309442458,-0.344408793135606,0.24454483126109317,-156.98580474112185,-8.522006076442151,21.05413366331596,-0.0303,-0.9799,-0.0743,0.1827
1326450.0,595.908466,1.0,-3.35,-0.12,-9.35,18.56,-22.0,39.38,5.13,2.94,-3.25,0.1899014444831173,-0.4399146291622994,-0.11452999838891564,-157.04331809093287,-8.625427825614649,20.995859763455268,-0.0286,-0.98,-0.0752,0.1822
1326483.0,595.957513,1.0,-3.36,0.21,-8.99,18.25,-21.25,40.19,2.0,2.44,-1.25,0.08724438170003657,-0.043711763109193405,0.20746890473840196,-157.1587733939545,-8.61393617408195,20.867676487915006,-0.0266,-0.9802,-0.0751,0.1811
1326520.0,595.975038,1.0,-3.25,-0.17,-9.65,17.5,-20.5,41.0,3.56,4.06,-8.31,0.33213692852001864,-0.45847921750639486,-0.36160362920437983,-157.33304425296922,-8.590953131273462,20.69292362085707,-0.0253,-0.9805,-0.0749,0.1796
1326555.0,596.016751,1.0,-3.27,-0.44,-9.43,17.5,-20.5,41.0,11.56,-5.69,-5.38,0.23617675591168008,-0.6355609609987275,-0.16088142983865694,-157.1587733939545,-8.740349140335569,20.90263293758787,-0.0218,-0.9802,-0.0762,0.1814
1326589.0,596.045179,1.0,-3.47,-0.24,-8.84,18.56,-20.5,39.75,-2.13,-3.44,-3.69,-0.09658885527936412,-0.3529857230553668,0.31401223843157133,-156.98580474112185,-8.820799294692952,21.065789103644565,-0.021,-0.9799,-0.0769,0.1828
1326624.0,596.085388,1.0,-3.46,-0.57,-8.32,18.25,-19.75,41.38,2.5,5.5,-4.25,-0.345410677955337,-0.6256812950727406,0.8061992123699415,-157.10097394877235,-8.901253805563371,20.92593832998922,-0.0202,-0.9801,-0.0776,0.1816
1326661.0,596.115158,1.0,-2.99,-0.1,-9.2,18.56,-20.87,40.19,-3.38,7.75,6.75,0.4267303036497543,-0.28214807198701236,0.145987822207994,-157.44996317553054,-8.717364176475897,20.64633108966224,-0.0198,-0.9807,-0.076,0.1792
1326694.0,596.148075,1.0,-2.96,0.05,-9.52,18.56,-20.87,40.19,-5.69,2.31,-0.5,0.5545429383732488,-0.18940643315856528,-0.1457922797913529,-157.62647223808008,-8.671395302011163,20.459995384570266,-0.0214,-0.981,-0.0756,0.1776
1326731.0,596.206996,1.0,-3.02,-0.51,-9.07,19.0,-20.5,40.56,5.75,6.25,1.12,0.24065473103987367,-0.6823448312346947,0.2608713082580074,-157.6856148741907,-8.69437956401469,20.355205608113067,-0.0204,-0.9811,-0.0758,0.1767
1326768.0,596.244894,1.0,-3.1,0.49,-9.23,18.25,-20.06,41.0,-7.38,4.13,0.69,0.3443598966971133,0.2739573916846127,0.06758620469153165,-157.863978815261,-8.544988083393587,20.180594156388953,-0.022,-0.9814,-0.0745,0.1752
1326800.0,596.257862,1.0,-2.76,-0.4,-9.23,18.25,-20.06,41.0,1.88,12.31,-6.31,0.47528155155948815,-0.6395302278372493,0.19750807501888623,-158.1040290229696,-8.717364176475897,19.90131410531983,-0.0217,-0.9818,-0.076,0.1728
1326835.0,596.284177,1.0,-2.65,0.03,-9.42,19.0,-20.5,40.19,-6.19,19.0,-1.31,0.5852557163320338,-0.24774974151726897,0.04161565228371522,-158.65388815245834,-8.92424161449454,19.180388694494322,-0.0226,-0.9827,-0.0778,0.1666
1326870.0,596.335446,1.0,-3.0,0.88,-7.17,17.87,-20.87,42.25,-11.19,76.69,-24.87,-0.5281972658049234,0.8144955942176291,2.0451485617861103,-159.73268910086296,-9.361079434368332,17.682816604505923,-0.0236,-0.9844,-0.0816,0.1537
1326907.0,596.364187,1.0,-1.54,1.39,-6.81,16.37,-20.06,41.88,-57.56,180.69,-65.25,0.16506677180486862,1.141689181333818,2.781758629019862,-163.06535294380294,-11.605033754368794,11.869983070722633,-0.0278,-0.9891,-0.1011,0.1034
1326942.0,596.39827,1.0,-0.46,2.34,-8.27,16.37,-20.06,41.88,-59.63,211.25,-94.62,0.6453451013012622,1.6739283521600383,1.3887171437661543,-163.4590136286695,-15.505674829864251,3.793673550039814,-0.038,-0.9896,-0.1349,0.0331
1326981.0,596.443279,1.0,0.59,1.42,-9.07,12.25,-21.25,41.0,-25.81,195.25,-97.56,0.5566145902647432,0.5135047164888563,0.6384498983416549,-160.66576217664587,-18.669230437467,-2.1773706400327653,-0.0388,-0.9858,-0.1622,-0.019
1327015.0,596.482203,1.0,1.21,0.71,-9.53,6.88,-22.37,42.25,-7.63,181.31,-100.37,-0.22518994023373473,-0.12243029110864666,0.17735094375314375,-155.16145880106285,-22.73485185773412,-9.085166406176855,-0.0323,-0.9766,-0.1971,-0.0792
1327050.0,596.517258,1.0,2.17,-1.1,-9.97,6.88,-22.37,42.25,15.44,159.31,-82.12,-0.9667082791935682,-1.8464640214920776,-0.24202382893254892,-150.79583135983617,-25.53554917014508,-13.68032776202412,-0.0228,-0.9677,-0.221,-0.1191
1327085.0,596.543454,1.0,2.59,-2.33,-9.36,1.69,-23.56,42.56,27.44,156.31,-43.31,-1.930713344142075,-2.5868937480832463,0.35535766937772095,-146.07660730478977,-27.607851915171175,-19.28499092759115,-0.0047,-0.9565,-0.2386,-0.1675
1327122.0,596.586134,1.0,5.65,-7.2,-11.95,-3.25,-22.06,44.56,7.13,149.75,61.31,-3.242965383917693,-7.518191868147647,-2.823669336914252,-143.86802831777294,-26.935734446758044,-23.60046219314315,0.0105,-0.9507,-0.2329,-0.2045
1327157.0,596.621266,1.0,8.32,-2.49,-14.9,-8.75,-22.87,43.38,-66.12,63.88,145.63,-0.6182641403043774,-3.6624440984384683,-7.034868716512092,-145.37657897397716,-21.310604474849132,-26.94751777725,0.0096,-0.9547,-0.1849,-0.233
1327192.0,596.669167,1.0,10.99,-1.81,-17.32,-8.75,-22.87,43.38,-66.0,-120.81,199.25,1.7341464059968787,-3.4744800576548123,-10.416092755905476,-150.07721211196608,-15.748572284340511,-25.288865851045276,0.0036,-0.9661,-0.137,-0.2189
1327230.0,596.700056,1.0,8.8,5.04,-13.86,-13.25,-22.87,41.75,-21.81,-380.75,191.81,5.746186605961347,3.784814604326906,-5.928588094809504,-164.19211217641143,-7.304427851725569,-13.922726077012076,-0.0107,-0.9905,-0.0637,-0.1212
1327265.0,596.718007,1.0,6.52,4.04,-12.18,-10.25,-23.56,43.0,47.5,-498.81,149.31,7.528850069253055,3.797002390840198,-1.8588371085035273,-175.41603200644556,-1.4553519237055776,4.366995362783785,-0.0027,-0.9992,-0.0127,0.0381
1327302.0,596.761051,1.0,-0.52,6.38,-5.74,-10.25,-23.56,43.0,94.69,-395.19,-19.31,1.2476173618822983,6.525913335300627,4.349699747480254,-162.45372607444324,-0.3896120513439707,17.49728858817925,0.0131,-0.9883,-0.0034,0.1521
1327335.0,596.785053,1.0,-2.79,-0.66,-5.28,2.75,-21.69,43.38,45.0,-278.06,-44.69,0.08838984572878505,-0.18793843622545786,3.802071215492198,-150.88687816852095,-2.0054546535892377,28.742045975943412,0.0363,-0.9679,-0.0175,0.2482
1327372.0,596.848946,1.0,-5.23,-0.38,-2.8,18.25,-16.87,40.88,4.06,-180.88,-7.44,-2.698791548447356,0.1263529387034566,4.511571236382773,-144.841458151918,-2.6243761106355543,34.77108519878443,0.0372,-0.9533,-0.0229,0.2988
1327409.0,596.855931,1.0,-5.27,1.18,-2.27,25.25,-15.69,37.56,-0.19,-84.56,-26.75,-2.5883653558299207,1.7087516522163748,4.83686805550915,-140.17034192327273,-3.174592245464794,39.412748927463014,0.0386,-0.9402,-0.0277,0.3372
1327443.0,596.896986,1.0,-4.7,1.03,0.4,25.25,-15.69,37.56,-30.56,20.5,-83.62,-3.7907995757005253,1.5293165076277002,7.237227964528571,-139.60231554875963,-5.181303758795193,39.75374814015767,0.0391,-0.9385,-0.0452,0.34
1327480.0,596.96457,1.0,-3.69,-1.37,4.36,29.75,-15.38,35.88,-34.06,276.13,-143.81,-5.62818639163949,-0.7993752046661537,11.285540537913128,-144.99354106549774,-9.936074868420336,33.045974096012706,0.045,-0.9537,-0.0866,0.2844
1327515.0,597.008588,1.0,0.46,-4.5,3.82,29.06,-13.5,39.19,-94.5,539.06,-129.56,-1.556537214602912,-4.704192455724648,13.047292720057166,-159.40959116439527,-14.534774284595127,13.334150842815472,0.0481,-0.9839,-0.1265,0.1161
1327550.0,597.031527,1.0,8.57,-0.74,-9.49,29.06,-13.5,39.19,-120.0,679.31,-32.56,6.994724066353293,-2.0405999448555057,-0.7272185724017692,-162.45372607444324,-15.436288478593854,-6.776309776380446,0.0402,-0.9883,-0.1343,-0.0591
1327585.0,597.036513,1.0,14.11,-2.69,-18.17,14.38,-13.19,44.56,-38.38,579.13,-38.56,2.3000296654069663,-3.0586559571751,-13.036983407886003,-145.95896619488119,-15.366907820940328,-29.736826743672204,0.0449,-0.9562,-0.1337,-0.2566
1327622.0,597.091367,1.0,11.21,-0.62,-13.94,-11.5,-18.06,43.25,-113.94,173.5,22.19,-0.175403916637336,-1.077256790115408,-8.058983245820832,-138.74807199122864,-14.25756979612918,-38.343381493661,0.0296,-0.9359,-0.1241,-0.3284
1327659.0,597.126274,1.0,8.08,2.59,-9.97,-24.69,-21.37,36.75,-63.94,58.06,16.31,-0.1651761759681305,1.9316317254547823,-3.140817540338114,-136.68295663578678,-11.766299745968878,-41.53786260419432,0.0087,-0.9294,-0.1025,-0.3546
1327693.0,597.15021,1.0,12.04,3.61,-17.03,-24.69,-21.37,36.75,-27.56,-66.69,42.88,-1.2687807683386048,2.709694388492092,-11.147164728656653,-138.5209607780903,-10.22366575133618,-40.05852194281655,0.0031,-0.9352,-0.0891,-0.3425
1327732.0,597.200079,1.0,10.58,4.82,-17.05,-26.19,-22.87,34.75,66.31,-436.88,51.63,1.2293531893294514,4.257707176267142,-10.348545864517147,-148.30838490049834,-9.085166406176855,-30.270684516880635,0.0106,-0.962,-0.0792,-0.2611
1327769.0,597.228006,1.0,6.33,-0.99,-7.02,-22.37,-22.06,40.06,146.06,-357.69,-21.31,4.348611046308917,-1.3866438552722131,1.4702118645277622,-162.45372607444324,-10.764512919793646,-12.976563032466053,0.0397,-0.9883,-0.0938,-0.113
1327804.0,597.301809,1.0,2.41,-1.05,-7.32,-22.37,-22.06,40.06,13.19,-214.0,56.69,1.5379198249403068,-0.6863102080571359,2.213443766110908,-167.13036680379562,-10.258180960550504,-5.468092286497271,0.0479,-0.9937,-0.0894,-0.0477
1327839.0,597.361158,1.0,0.93,1.31,-9.56,-7.0,-18.0,45.75,30.75,-158.5,10.25,1.4171252041986349,2.0747474544478433,0.4438630668327619,-169.0045461043646,-9.315090195791667,1.2719924264668117,0.0503,-0.9954,-0.0812,0.0111
1327874.0,597.390081,1.0,-1.35,0.36,-6.01,2.0,-15.69,45.75,4.5,-142.38,11.44,-0.5043406795101383,1.1207013262180598,3.760008864923078,-167.13036680379562,-9.246109154854068,6.856665996646211,0.0503,-0.9937,-0.0806,0.0598
1327910.0,597.401051,1.0,-1.74,1.1,-8.27,6.5,-15.38,45.75,19.06,-51.06,-24.12,-0.1635614360778911,2.1428535266770496,1.559715635047418,-165.4050127335264,-9.683046840720888,8.958724002944487,0.0529,-0.9919,-0.0844,0.0781
1327945.0,597.404044,1.0,-1.98,1.22,-9.75,6.5,-15.38,45.75,-1.56,-54.81,-57.31,0.2661549417598039,2.452466786159938,0.09141103177285714,-162.8334582675195,-11.743260322870698,10.879617409371034,0.0536,-0.9888,-0.1023,0.0948
1327982.0,597.462991,1.0,-3.14,1.02,-6.61,10.69,-14.19,45.0,19.19,-68.69,-70.5,-1.1959182487550368,2.335317957424877,2.8995399255894574,-159.99488438452414,-13.761120312162008,12.849707716341905,0.0574,-0.9848,-0.1198,0.1119
1328017.0,597.481047,1.0,-2.41,-3.28,-8.09,14.0,-14.56,44.19,49.31,-51.0,-87.37,-0.8784637094067899,-1.5179944896746485,0.9219105980494469,-155.8091656213749,-16.917809025605248,14.916070477056888,0.073,-0.9778,-0.1471,0.1298
1328052.0,597.515312,1.0,-1.91,-8.9,-5.44,14.0,-14.56,44.19,13.06,-61.75,-35.13,-2.6626572435451545,-7.09745071930533,2.391250503652631,-153.36074062083046,-18.587944621042265,16.55875139620892,0.079,-0.9731,-0.1615,0.144
1328087.0,597.542155,1.0,-0.14,-15.46,-6.31,17.0,-11.19,45.06,15.63,-22.69,73.56,-2.052668032024986,-13.92471811234146,0.8213242161381551,-153.91350924378722,-16.59349169701811,17.87999134136898,0.0771,-0.9742,-0.1443,0.1554
1328123.0,597.584107,1.0,1.43,-6.84,-7.63,18.87,-9.69,43.75,-62.69,72.37,213.63,2.455661345314077,-6.27629738206341,1.9564768471941179,-158.53049466710758,-11.121372822035768,16.929394296591497,0.0601,-0.9825,-0.0969,0.1472
1328160.0,597.625305,1.0,1.46,-2.52,-13.09,15.88,-13.5,45.06,-136.0,86.87,180.13,4.176991141751911,-2.288961842292875,-2.7290389992633948,-166.24074892993923,-4.298191253728037,12.89583508427226,0.0172,-0.9928,-0.0375,0.1123
1328195.0,597.651321,1.0,-0.95,5.85,-9.09,15.88,-13.5,45.06,-71.19,-27.37,147.31,1.0300377903801716,5.480375779180339,0.49764342199382483,-166.72765058183754,1.1917736982377245,13.011162702254632,-0.02,-0.9933,0.0104,0.1133
1328232.0,597.701079,1.0,-1.96,12.03,-6.94,9.88,-19.06,42.88,-46.56,10.5,74.37,-1.0166813051073937,11.37213279800156,1.6600522593193894,-165.77042087262134,3.8166045030746174,13.057297449093689,-0.0367,-0.9923,0.0333,0.1137
1328269.0,597.739402,1.0,-1.07,9.27,-10.28,8.0,-22.87,42.06,-4.31,30.0,-28.87,0.6710568913547289,8.382279396197344,-1.2406698004154304,-166.62885834304856,3.3121572228147254,12.0543331202622,-0.0408,-0.9932,0.0289,0.105
1328304.0,597.788266,1.0,-1.65,1.85,-8.6,8.0,-22.87,42.06,24.37,6.88,-77.44,0.12520106042403023,1.2571920427834684,0.9461312306484793,-167.54604215985927,0.985499555804114,11.777819636455906,-0.033,-0.9941,0.0086,0.1026
1328336.0,597.791257,1.0,-1.64,0.45,-8.86,7.25,-24.5,40.75,24.69,9.81,-68.31,0.1612887732922177,0.059137026495824974,0.7865508462374908,-168.08593042045837,-1.6043342375287626,11.455307417011953,-0.0229,-0.9946,-0.014,0.0998
1328373.0,597.836093,1.0,-1.26,-3.95,-10.28,8.75,-22.56,42.56,12.81,32.69,-71.12,0.41776084442087325,-4.254764893470274,-0.4203217696961321,-168.4218955829601,-3.6675560000932936,10.810553401892456,-0.0161,-0.9949,-0.032,0.0942
1328410.0,597.874623,1.0,-1.02,-3.12,-11.07,8.38,-21.06,43.69,2.44,47.94,-34.06,0.4436427649971082,-3.348288873996261,-1.2347196031488163,-169.36940436804014,-5.364844561963228,9.13114820216436,-0.0115,-0.9957,-0.0468,0.0796
1328445.0,597.906208,1.0,-0.7,-1.27,-11.13,8.38,-21.06,43.69,-2.31,38.44,-21.81,0.6886332287220754,-1.490345070659071,-1.296703360434046,-170.0069733247971,-6.076199569788739,7.890132207309979,-0.0099,-0.9962,-0.053,0.0688
1328482.0,597.950238,1.0,-0.75,-1.89,-9.93,8.38,-20.0,44.19,-12.25,29.94,-17.94,0.1686239217066679,-2.080133344190875,-0.11222651114850457,-170.40978378389514,-6.868145731332586,6.661520952908497,-0.0113,-0.9965,-0.0599,0.0581
1328517.0,597.973179,1.0,-0.59,-0.53,-9.88,6.88,-20.25,43.69,-20.75,44.31,-6.88,0.28174601512395125,-0.8120583392629495,-0.06779076576467524,-170.8302288961765,-7.109236280779952,5.525454047712893,-0.0152,-0.9968,-0.062,0.0482
1328551.0,598.020055,1.0,-0.58,0.99,-9.0,6.88,-20.25,43.69,-5.63,87.5,-29.31,-0.01901788999580334,0.7034268062284705,0.761135694658412,-171.42275078156132,-7.8212153932673,2.8192367490322434,-0.0181,-0.9972,-0.0682,0.0246
1328586.0,598.049146,1.0,-0.32,0.41,-8.23,5.38,-21.75,42.88,3.88,94.25,-41.44,-0.38054660080194314,0.23041240705303162,1.5722408282807478,-170.54785856879653,-9.246109154854068,-0.7792286067117273,-0.0143,-0.9966,-0.0806,-0.0068
1328623.0,598.085137,1.0,0.2,0.02,-8.11,2.75,-21.5,43.69,10.25,93.19,-15.44,-0.2939305867865161,-0.12177728601549051,1.7004008610478802,-169.61974434488633,-9.76355056625781,-3.415334078437867,-0.0092,-0.9959,-0.0851,-0.0298
1328658.0,598.141288,1.0,1.42,0.02,-9.72,2.75,-21.5,43.69,9.81,115.94,-20.87,0.09044462060064884,-0.19006956909966144,-0.01429157041506457,-166.92746455946425,-10.51132121524803,-7.660420468145224,-0.0036,-0.9935,-0.0916,-0.0668
1328693.0,598.150263,1.0,3.21,-2.23,-11.73,0.5,-20.69,45.38,10.31,125.06,-27.56,0.35248727571986005,-2.5244709026852994,-2.291808553962605,-163.86220596785728,-11.466824127666603,-11.34014667578332,0.0027,-0.9901,-0.0999,-0.0988
1328728.0,598.22545,1.0,3.09,0.21,-11.59,-3.88,-21.06,44.19,-30.56,59.25,0.5,0.13875029580802023,-0.1759272197712355,-2.1879361941442887,-161.7899992062843,-11.2825706212041,-14.211377245158012,-0.0027,-0.9874,-0.0983,-0.1237
1328764.0,598.243403,1.0,1.68,1.33,-9.21,-8.0,-21.75,43.88,-15.75,0.94,-1.44,-0.45940619610998623,1.060296091572997,0.42154914038369284,-161.86255690793462,-10.879617409371034,-14.45391421483677,-0.0081,-0.9875,-0.0948,-0.1258
1328797.0,598.247423,1.0,3.06,0.66,-9.89,-8.0,-21.75,43.88,1.75,17.12,-8.38,0.4635286732769588,0.13427277509113636,-0.5557055232832795,-161.21954183361512,-11.15591333813419,-14.973857013009212,-0.0087,-0.9866,-0.0972,-0.1303
1328834.0,598.291152,1.0,4.32,0.64,-11.44,-6.06,-21.37,43.88,-3.63,30.31,-14.94,1.0397955757430086,-0.12437190035050466,-2.393717076078836,-160.12726585571855,-11.720221376139573,-15.968397992715149,-0.0087,-0.985,-0.1021,-0.1389
1328871.0,598.370968,1.0,3.21,-0.05,-9.33,-8.0,-21.5,42.5,10.5,-18.12,-11.94,0.42089489387512047,-0.5941938316367582,-0.033333799720134394,-159.66766312617878,-12.330917071488782,-16.04940127991137,-0.0076,-0.9843,-0.1074,-0.1396
