TIME,ELAPSED_SECONDS,PSTATE,acc_x,acc_y,acc_z,mag_x,mag_y,mag_z,gyr_x,gyr_y,gyr_z,lin_x,lin_y,lin_z,eul_x,eul_y,eul_z,qua_w,qua_x,qua_y,qua_z
1337673.0,607.15044,1.0,0.42,0.59,-9.61,8.06,-21.0,43.56,-0.5,0.56,-1.19,0.1017017127130592,-0.001759365238070132,0.16993615832839204,-154.9492208405226,-24.772390131710257,-2.601451839540937,-0.0242,-0.9762,-0.2145,-0.0227
1337708.0,607.21028,1.0,0.44,0.61,-9.59,8.06,-21.0,43.56,-0.12,6.06,-0.5,0.10012403200895842,0.01889411386789236,0.18774059244888086,-154.89643727544527,-24.795855130586254,-2.7848490011177396,-0.024,-0.9761,-0.2147,-0.0243
1337745.0,607.24718,1.0,0.82,0.63,-10.12,8.5,-21.69,43.56,3.81,6.75,0.56,0.3939953973362059,-0.11210749652913327,-0.35779290338136605,-154.79119639620876,-24.901460713527143,-2.9797163137078666,-0.0228,-0.9759,-0.2156,-0.026
1337780.0,607.255159,1.0,0.94,0.41,-10.01,6.25,-20.56,43.19,2.63,4.13,-3.63,0.39433395380806446,-0.3302243902205827,-0.2425913935071513,-154.63414056108866,-25.007087789331905,-3.140201723904295,-0.0216,-0.9756,-0.2165,-0.0274
1337815.0,607.286179,1.0,0.54,0.18,-9.91,6.25,-20.56,43.19,0.81,4.25,-4.31,-0.07942184298964389,-0.34982750006603125,-0.11319943893069784,-154.47803544959177,-25.159698385030055,-3.2777655386010047,-0.021,-0.9753,-0.2178,-0.0286
1337847.0,607.331063,1.0,0.5,0.29,-9.67,7.5,-22.06,44.38,0.56,5.19,-3.19,-0.08403932309552592,-0.2123157899032074,0.12208189411466819,-154.3228637180319,-25.288865851045276,-3.4726557451993814,-0.0206,-0.975,-0.2189,-0.0303
1337884.0,607.361692,1.0,0.71,0.28,-9.94,7.88,-20.56,44.5,-2.88,3.56,-2.25,0.05577810679519124,-0.3187378125970134,-0.15735496836604668,-154.0662728728033,-25.570799441600013,-3.6216961826700946,-0.0208,-0.9745,-0.2213,-0.0316
1337921.0,607.395624,1.0,0.59,0.33,-9.89,7.88,-20.56,44.5,-2.25,-2.94,-0.63,-0.021547040969059128,-0.24023016099539674,-0.10349254159715215,-154.0152535944028,-25.60605217391993,-3.564372225995784,-0.0217,-0.9744,-0.2216,-0.0311
1337954.0,607.425188,1.0,0.34,0.57,-9.38,7.06,-21.69,44.06,-2.63,-2.56,1.63,-0.0962356473703411,0.08100112566546351,0.4040398561188798,-154.0662728728033,-25.559049077875777,-3.4726557451993814,-0.0225,-0.9745,-0.2212,-0.0303
1337991.0,607.46001,1.0,0.54,0.9,-9.63,5.56,-21.69,44.06,-1.19,6.81,-2.75,0.1757570752543789,0.28438267666892647,0.12539305972057058,-154.11739099299157,-25.46505599443148,-3.656090990936744,-0.0229,-0.9746,-0.2204,-0.0319
1338025.0,607.48932,1.0,0.9,0.9,-10.14,7.06,-21.0,43.69,-0.75,-0.12,-6.31,0.44530679782620763,0.1107774670788652,-0.40261198158306755,-153.91350924378722,-25.664812206839986,-3.7592774051414257,-0.0231,-0.9742,-0.2221,-0.0328
1338060.0,607.532334,1.0,0.77,1.15,-9.94,7.06,-21.0,43.69,2.69,-2.63,-11.75,0.47400436246325584,0.39410322529676683,-0.2102857845688746,-153.5103719816942,-26.088088169122198,-3.656090990936744,-0.0228,-0.9734,-0.2257,-0.0319
1338095.0,607.583274,1.0,0.36,0.61,-9.32,7.06,-22.5,44.06,2.13,3.25,-22.69,-0.08427169362379278,0.12209769849784602,0.46095096602317653,-152.91671705681662,-26.711906133385632,-3.6904861286986015,-0.022,-0.9722,-0.231,-0.0322
1338132.0,607.604216,1.0,0.06,0.4,-8.62,6.69,-22.06,43.19,9.44,7.06,-26.56,-0.40339059657559695,0.1417675633869283,1.1877650382102356,-151.9546930927713,-27.690458980540107,-3.8510012195838605,-0.0193,-0.9702,-0.2393,-0.0336
1338167.0,607.646199,1.0,0.13,-0.23,-8.5,6.69,-22.06,43.19,-2.38,31.69,-41.13,-0.7139344600235155,-0.3867901237851588,1.3413980257860487,-150.79583135983617,-28.78936571677899,-4.481672390551605,-0.0175,-0.9677,-0.2486,-0.0391
1338200.0,607.670158,1.0,0.14,-3.6,-8.58,7.88,-21.37,44.38,28.06,72.56,-19.94,-2.664111219663215,-3.0154648602174445,1.4158524761612554,-149.4184972482763,-29.78425385642316,-6.787789031247121,-0.005,-0.9646,-0.257,-0.0592
1338236.0,607.729512,1.0,2.44,-5.85,-11.65,7.06,-21.37,44.38,3.88,116.62,117.0,-2.4930605380797086,-5.638629693848604,-1.9359691426409817,-150.61456567249238,-27.56065444902066,-9.982085146289721,0.0082,-0.9673,-0.2382,-0.087
1338273.0,607.736302,1.0,3.73,-4.33,-13.18,1.37,-19.5,44.88,-37.94,36.06,196.31,-0.8013471666475966,-4.651409703343331,-3.7615639756914714,-156.19500732541923,-20.36684806544824,-12.215665087929846,0.0076,-0.9785,-0.1768,-0.1064
1338306.0,607.782681,1.0,5.26,1.86,-12.21,1.37,-19.5,44.88,-81.94,-76.12,246.44,3.1284773017061287,0.6929921581146369,-3.229595304592163,-162.9104094445606,-13.06883146764636,-10.902639624835572,-0.0079,-0.9889,-0.1138,-0.095
1338345.0,607.822431,1.0,4.96,6.96,-13.94,-2.38,-21.0,44.06,-61.19,-125.69,153.06,3.752344039035111,5.8116207378701485,-5.009279893593428,-170.68797573137596,-5.146891353190199,-7.086273935339353,-0.0262,-0.9967,-0.0449,-0.0618
1338380.0,607.854164,1.0,2.65,3.35,-11.65,-4.56,-22.5,44.06,-14.25,-182.69,52.69,2.6549810106839185,2.450462965879264,-2.064062155795961,-175.7121263163045,-2.142987063023817,-0.5042044866238587,-0.034,-0.9993,-0.0187,-0.0044
1338415.0,607.897716,1.0,-0.05,2.12,-9.78,-4.56,-22.5,44.06,-8.81,-245.56,41.56,1.0407132962904357,1.3935205675566646,-0.0483140416756882,-172.39746165802458,-0.7219315974960596,6.225383461526625,-0.0366,-0.9978,-0.0063,0.0543
1338449.0,607.919839,1.0,-1.86,2.38,-8.08,0.25,-23.0,42.38,-0.12,-261.81,32.63,0.4566007738434896,1.7378423742240332,1.36971811597504,-163.22171672296716,0.893823223927814,16.17670848781425,-0.0378,-0.9893,0.0078,0.1407
1338486.0,607.979992,1.0,-3.07,0.8,-8.16,8.88,-24.06,41.06,29.0,-198.56,-28.75,0.2550295780308405,0.21863971637858082,1.058069738680377,-157.39142911741774,0.6990128451499703,22.279183498407725,-0.0327,-0.9806,0.0061,0.1932
1338523.0,608.001958,1.0,-3.74,1.58,-7.55,16.37,-22.87,39.06,46.38,-173.06,-56.94,0.44711318141807843,1.3602801754069647,1.3546545168376358,-150.7504119288671,-0.6760941207657828,29.203628467396104,-0.0145,-0.9676,-0.0059,0.2521
1338556.0,608.036079,1.0,-4.66,-1.4,-5.65,16.37,-22.87,39.06,42.81,-148.63,-59.63,-0.782421759015262,-1.2424447371132814,2.4962295424449756,-146.2340808810036,-2.0283765158457068,33.703938528301116,0.0042,-0.9569,-0.0177,0.2899
1338595.0,608.085123,1.0,-5.03,0.09,-6.29,23.06,-20.56,37.75,-5.81,-100.62,-38.88,-0.04752985027702339,0.40753520803123455,1.7627233489453307,-141.57339812733943,-3.7592774051414257,38.18570299849584,0.0093,-0.9443,-0.0328,0.3271
1338630.0,608.098269,1.0,-5.1,0.48,-4.83,28.25,-18.0,35.38,13.0,-82.0,-58.13,-0.6484348378554388,0.9330248792543695,2.858391453015167,-138.84577222800962,-5.192774664418371,40.77896631080099,0.0139,-0.9362,-0.0453,0.3484
1338664.0,608.146321,1.0,-5.17,-0.67,-2.81,28.25,-18.0,35.38,-4.38,9.88,-91.87,-1.991267089171071,0.10009652714500286,4.230025925809803,-137.11973135242658,-8.108387763620353,41.90575353350423,0.0251,-0.9308,-0.0707,0.3576
1338699.0,608.174104,1.0,-5.22,-0.25,0.73,32.5,-17.0,34.19,-47.75,157.31,-116.75,-4.552080392117257,0.9269484513156201,7.3040252434083985,-141.05445058328866,-12.400074265032764,36.60091053338324,0.0306,-0.9428,-0.108,0.314
1338736.0,608.213139,1.0,-1.64,-3.99,-2.61,31.56,-15.06,33.38,-63.38,392.69,-44.63,-1.1395024580206596,-3.4183647042504974,6.27987854484455,-149.46197984083236,-14.373061379793722,26.5588202853178,0.0332,-0.9647,-0.1251,0.2297
1338773.0,608.251487,1.0,2.22,-1.16,-6.33,23.0,-14.25,39.56,-106.06,499.38,0.5,2.71520494689658,-1.4903837531769717,3.74452839410867,-163.30044367130742,-14.592535930080526,7.648935698119245,0.0242,-0.9894,-0.127,0.0667
1338808.0,608.296368,1.0,5.61,-1.02,-13.56,23.0,-14.25,39.56,-50.69,526.88,-44.13,3.2852478425597917,-1.5674007837681423,-4.445946303691448,-162.68057392822612,-15.112560354905924,-8.073924421552887,0.0226,-0.9886,-0.1315,-0.0704
1338845.0,608.343243,1.0,6.65,-4.45,-12.23,5.38,-17.56,45.0,-69.37,343.56,14.56,-0.1956677188989726,-4.652978917364926,-4.046486877196388,-151.34635737161238,-15.112560354905924,-24.057209241108925,0.025,-0.9689,-0.1315,-0.2084
1338880.0,608.376256,1.0,8.98,-0.95,-14.79,-12.5,-20.56,42.5,-99.12,229.0,55.13,-0.6564527287969986,-1.5086223502965461,-7.443860961100279,-145.03166189361892,-12.965030073382623,-32.30560883615826,0.0127,-0.9538,-0.1129,-0.2782
1338914.0,608.400191,1.0,8.43,2.22,-12.18,-12.5,-20.56,42.5,-142.38,12.69,83.37,-0.11729235163847207,1.1259919625708363,-5.128680080198196,-142.91931394004666,-8.774827247055486,-35.91362085306448,-0.0148,-0.9481,-0.0765,-0.3083
1338949.0,608.42731,1.0,8.57,6.63,-11.84,-22.25,-22.5,39.69,-90.37,-87.25,61.63,0.9477075513180093,5.019490500301099,-5.408275747914836,-145.7248595525418,-5.07806793226336,-33.51241368583526,-0.0413,-0.9556,-0.0443,-0.2883
1338986.0,608.463139,1.0,7.3,8.78,-8.11,-24.75,-25.06,36.75,14.0,-191.38,-5.44,2.9982221997278837,7.479605759820829,-1.6483341256421582,-150.93250619783007,-4.298191253728037,-28.245489095128868,-0.0446,-0.968,-0.0375,-0.244
1339023.0,608.50026,1.0,5.69,3.54,-8.09,-18.69,-25.87,39.25,68.19,-123.56,-80.87,2.4498362321165383,2.4442982068246817,-0.11199449972488118,-155.91878451766874,-7.155161830094744,-22.68809999960854,-0.0313,-0.978,-0.0624,-0.1967
1339058.0,608.534225,1.0,4.88,2.14,-11.43,-18.69,-25.87,39.25,73.44,-48.69,-93.37,0.7955660342424529,1.133210719489963,-2.7281738180834694,-156.814109146573,-10.200656128703407,-20.63468349632429,-0.0201,-0.9796,-0.0889,-0.1791
1339095.0,608.583136,1.0,4.92,-0.26,-14.56,-13.75,-23.06,40.75,107.37,-166.0,-105.19,0.41194028169673214,-0.8964384818512309,-5.532655826945755,-157.98368078519854,-14.557878496401068,-16.454539675361612,0.0017,-0.9816,-0.1267,-0.1431
1339131.0,608.609447,1.0,1.01,-2.85,-6.54,-8.5,-22.0,42.06,115.87,-255.63,-86.44,-0.8981229330763473,-2.595405565768648,3.1454605306740087,-159.9290177639615,-17.77559810564146,-9.016196458354324,0.0203,-0.9847,-0.1545,-0.0786
1339166.0,608.663308,1.0,-1.86,-0.28,-5.28,-8.5,-22.0,42.06,50.0,-178.31,-47.25,-1.836520289700494,0.7320970398136482,4.561878589364975,-159.28174778831308,-20.36684806544824,-0.6187974261216272,0.0325,-0.9837,-0.1768,-0.0054
1339199.0,608.687018,1.0,-1.45,-1.13,-7.68,1.88,-18.25,45.75,55.69,-127.87,-61.88,-0.9940217563120133,0.041141114077087426,1.9726198649602544,-156.19500732541923,-22.74654042115177,4.883078110442898,0.0428,-0.9785,-0.1972,0.0426
1339236.0,608.709991,1.0,-1.67,-0.62,-8.65,9.0,-15.38,45.38,47.5,-130.81,-47.06,-0.2958833782857363,0.6821622216886732,1.006484789632923,-153.5103719816942,-24.326754354712538,8.705871826379285,0.0489,-0.9734,-0.2107,0.0759
1339273.0,608.766872,1.0,-2.76,-1.74,-7.66,14.19,-12.38,45.88,62.25,-110.0,-87.0,-1.122381385209053,0.1913299930203845,1.5589562096179232,-148.73080219796103,-26.923951406435997,13.991994191085649,0.0601,-0.963,-0.2328,0.1218
1339308.0,608.796792,1.0,-3.28,-7.25,-3.93,14.19,-12.38,45.88,30.19,-69.56,-47.06,-4.834332958269479,-4.400268370677696,3.803928690910017,-145.60838601203167,-28.860354735501215,16.419805484293857,0.0705,-0.9553,-0.2492,0.1428
1339344.0,608.831699,1.0,-2.27,-7.13,-4.78,19.5,-10.06,43.0,7.94,-0.44,26.37,-3.5544833885430296,-4.816885626983117,3.2491000995314447,-145.06982302382067,-28.813027467482133,17.729205890532434,0.0668,-0.9539,-0.2488,0.1541
1339381.0,608.856843,1.0,0.47,-13.11,-9.11,21.5,-8.56,43.0,-38.38,49.69,113.62,-2.329022442917988,-11.360535855309353,-1.1751066691588523,-147.6436957459843,-26.523499645829535,16.74405079259733,0.0624,-0.9604,-0.2294,0.1456
1339416.0,608.91867,1.0,3.14,-12.77,-8.81,21.5,-8.56,43.0,-127.62,81.87,305.69,1.1830190424474318,-12.960181673923426,0.7965025581372362,-156.92843283344135,-18.146842253651588,13.79574779269871,0.0278,-0.9798,-0.1577,0.1201
1339451.0,608.942683,1.0,4.04,6.2,-10.95,18.06,-11.06,42.06,-194.63,51.25,361.63,6.550004201918903,4.786682581026187,-0.626432709503705,-167.13036680379562,-5.341901218009245,10.637910557080563,-0.0426,-0.9937,-0.0466,0.0927
1339488.0,608.970246,1.0,2.42,6.06,-10.75,12.06,-19.75,42.06,-132.44,15.31,210.06,4.118845338157143,4.490075499478823,-1.1941152047174022,-167.13036680379562,1.2490727279396536,9.51055493545105,-0.075,-0.9937,0.0109,0.0829
1339525.0,609.024029,1.0,0.68,8.81,-6.63,5.25,-26.87,39.56,-100.37,-17.5,154.63,0.927817104397451,7.112901321931745,1.4053887729431267,-161.86255690793462,7.189606746883268,9.48755765518811,-0.1182,-0.9875,0.0627,0.0827
1339559.0,609.043048,1.0,0.99,13.43,-7.36,5.25,-26.87,39.56,-58.81,34.56,56.5,0.32801980062588043,11.03044950907594,-0.8580669037965514,-159.5382246114638,9.556550648732504,8.820799294692952,-0.1371,-0.9841,0.0833,0.0769
1339596.0,609.085216,1.0,0.9,8.32,-10.53,3.06,-30.69,38.25,11.63,39.88,-72.44,1.3958539599657218,5.1812265445375765,-2.527034900167802,-160.46210370241806,7.890132207309979,7.109236280779952,-0.1422,-0.9855,0.0688,0.062
1339631.0,609.11422,1.0,-0.23,6.33,-7.93,1.19,-32.06,38.75,48.06,12.19,-114.37,0.36529639436412664,4.030445737306422,0.4991924683809028,-162.52901727888843,5.009246344236124,6.925545442265205,-0.1322,-0.9884,0.0437,0.0604
1339666.0,609.148237,1.0,-0.36,-1.35,-7.15,1.19,-32.06,38.75,95.0,35.88,-157.06,0.40122290290881174,-2.7792620649013906,3.0843496082604656,-166.53078742603913,-0.7333909844413455,6.46639524800481,-0.1023,-0.9931,-0.0064,0.0564
1339701.0,609.174119,1.0,0.23,-1.4,-10.33,3.06,-29.75,38.25,51.56,76.62,-113.37,0.7948353122408119,-3.0468124177837246,-0.13351956179591262,-168.53606406960452,-5.525454047712893,4.389930414609093,-0.0784,-0.995,-0.0482,0.0383
1339738.0,609.212352,1.0,0.72,-1.03,-10.78,5.0,-26.0,40.38,51.5,51.31,-80.5,0.9791138629898526,-2.534286397228419,-0.7007963358193781,-168.6513771745933,-8.073924421552887,2.738999060214957,-0.0647,-0.9951,-0.0704,0.0239
1339774.0,609.241049,1.0,0.22,-0.95,-9.33,5.25,-25.25,41.25,32.69,42.13,-68.0,0.15792322529568936,-1.920867624551058,0.6259567895793552,-167.54604215985927,-10.902639624835572,1.306372069959298,-0.0502,-0.9941,-0.095,0.0114
1339807.0,609.280944,1.0,-0.68,-0.46,-9.33,5.25,-25.25,41.25,19.12,63.63,-83.06,-0.9221168983544472,-1.1092954775932105,0.5523502442561661,-165.77042087262134,-13.230321745568984,-0.36669361470931167,-0.0446,-0.9923,-0.1152,-0.0032
1339846.0,609.33506,1.0,-1.34,-1.52,-7.44,5.0,-24.19,42.06,44.69,39.88,-70.81,-2.0022001295950647,-1.5132523833727678,2.5155004428131393,-163.06535294380294,-16.396650200988272,-1.7303983035632713,-0.0319,-0.9891,-0.1426,-0.0151
1339881.0,609.355105,1.0,0.05,0.17,-9.6,3.75,-23.0,43.25,0.19,95.87,-45.5,-0.5815348688003283,-0.21833182591188457,0.22512880500369725,-161.4314273445042,-17.93799404290059,-3.679021045975539,-0.0243,-0.9869,-0.1559,-0.0321
1339916.0,609.430903,1.0,0.89,-2.13,-10.66,3.75,-23.0,43.25,49.44,128.38,-59.44,-1.430984692202336,-2.2556305906909593,-0.7682738034617422,-158.1040290229696,-20.30863790096007,-8.1313637329408,-0.0103,-0.9818,-0.1763,-0.0709
1339951.0,609.437884,1.0,2.99,-0.68,-12.86,2.69,-21.87,43.75,-42.25,92.81,3.88,-0.1608462606550678,-1.465766817635497,-3.3313771013859625,-156.08414094937433,-20.611388956075043,-11.916067673936476,-0.0101,-0.9783,-0.1789,-0.1038
1339987.0,609.46394,1.0,3.01,1.98,-10.51,-1.0,-20.75,44.56,3.69,19.69,-10.5,1.107235704658204,0.9446348043665431,-1.2079899932412435,-155.75453926974473,-20.49492914898236,-12.699808169946314,-0.013,-0.9777,-0.1779,-0.1106
1340022.0,609.502262,1.0,2.84,0.02,-10.93,-1.0,-20.75,44.56,11.69,33.0,-32.5,-0.03034183961586523,-0.7250266812650815,-1.4629691454823561,-154.27134430279997,-21.602179804976906,-13.79574779269871,-0.009,-0.9749,-0.1874,-0.1201
1340057.0,609.536306,1.0,2.64,0.45,-10.46,-2.88,-22.25,43.25,5.75,2.13,-5.75,-0.001262140465049244,-0.2521974666614682,-0.9877974080339573,-153.76161968319718,-21.987276416568136,-14.107452479907948,-0.0085,-0.9739,-0.1907,-0.1228
1340094.0,609.586087,1.0,2.2,1.4,-9.17,-3.38,-22.25,44.19,2.81,-14.19,-2.88,0.3391912146859519,0.7355606758622137,0.30755531618907206,-154.0662728728033,-21.94058473700979,-13.657245433015797,-0.0088,-0.9745,-0.1903,-0.1189
1340129.0,609.596307,1.0,1.86,0.47,-9.35,-3.75,-21.87,43.69,7.38,-0.56,-11.38,-0.314702540351921,0.024149797699181214,0.26708087459569185,-154.0152535944028,-22.127373666986443,-13.461068017168213,-0.0073,-0.9744,-0.1919,-0.1172
