TIME,ELAPSED_SECONDS,PSTATE,acc_x,acc_y,acc_z,mag_x,mag_y,mag_z,gyr_x,gyr_y,gyr_z,lin_x,lin_y,lin_z,eul_x,eul_y,eul_z,qua_w,qua_x,qua_y,qua_z
366948.0,323.88703,1.0,-0.03,-0.65,-9.8,8.38,-17.0,43.0,-0.69,1.44,-0.37,0.12303880481177346,-0.05639817212943775,-0.013995635531863115,-159.40959116439527,-20.23879269230359,1.6043342375287626,0.0306,-0.9839,-0.1757,0.014
366983.0,323.914987,1.0,0.0,-0.72,-9.86,8.38,-16.69,44.25,0.25,-0.37,0.25,0.12413259463472111,-0.12403119054150392,-0.07804561305365176,-159.3455716366145,-20.250433032061157,1.569953472031555,0.0308,-0.9838,-0.1758,0.0137
367017.0,323.950997,1.0,-0.13,-0.66,-9.63,8.38,-17.0,43.88,-1.56,-0.44,-0.19,0.013418985046129088,-0.039355998443501586,0.15327385296072293,-159.3455716366145,-20.27371434520358,1.569953472031555,0.0306,-0.9838,-0.176,0.0137
367052.0,323.987676,1.0,-0.09,-0.68,-9.72,8.38,-17.0,43.88,0.94,1.12,-0.63,0.04350552973280009,-0.06627618497767182,0.06279990180023987,-159.3455716366145,-20.285355318851703,1.5470330404085568,0.0306,-0.9838,-0.1761,0.0135
367087.0,324.029741,1.0,-0.01,-0.87,-9.87,9.06,-17.37,43.5,0.75,0.88,0.06,0.05458235202216962,-0.25084674730797224,-0.09829809053600158,-159.3455716366145,-20.29699650405997,1.5126525087430307,0.0312,-0.9838,-0.1762,0.0132
367122.0,324.056799,1.0,-0.15,-0.82,-9.65,8.0,-16.69,45.5,-0.69,1.44,-1.0,-0.07497790966556477,-0.16453329652185852,0.12239953300990258,-159.3455716366145,-20.320279509683687,1.4668120111410634,0.0313,-0.9838,-0.1764,0.0128
367157.0,324.089725,1.0,-0.02,-0.48,-9.63,8.38,-17.37,43.38,-1.0,-0.69,1.31,0.15853560908457925,0.11020294461990478,0.1666073770833716,-159.3455716366145,-20.320279509683687,1.432431792389882,0.0314,-0.9838,-0.1764,0.0125
367192.0,324.13461,1.0,-0.08,-0.65,-9.63,8.38,-17.37,43.38,1.31,0.75,-1.81,0.041350238388253656,-0.027566499868053655,0.15453467506369023,-159.28174778831308,-20.355205608113067,1.4209717482803246,0.0314,-0.9837,-0.1767,0.0124
367228.0,324.172812,1.0,-0.42,-0.9,-9.59,8.0,-16.69,43.0,1.25,3.56,-2.5,-0.37673062464197765,-0.13873060160376363,0.17372065028319206,-159.21811781644797,-20.436707276203283,1.3522117780748235,0.0316,-0.9836,-0.1774,0.0118
367263.0,324.211709,1.0,-0.39,-1.37,-10.16,8.69,-17.0,43.88,4.5,6.19,1.06,-0.514411772594677,-0.5267562840205372,-0.42626299413128343,-159.15467994543425,-20.436707276203283,1.2032334798806035,0.0328,-0.9835,-0.1774,0.0105
367298.0,324.246616,1.0,0.01,-2.38,-11.24,8.69,-17.0,43.88,13.06,4.88,7.13,-0.4540725427870496,-1.4613474331200034,-1.5802012682655366,-159.3455716366145,-20.203872938706382,1.100095864564908,0.0365,-0.9838,-0.1754,0.0096
367331.0,324.27954,1.0,0.66,-3.06,-12.57,8.38,-16.69,45.06,18.06,5.81,10.81,-0.010211272257301063,-2.060293423329008,-2.9823760277984466,-159.5382246114638,-19.796614956633128,0.9969591404369118,0.0432,-0.9841,-0.1719,0.0087
367368.0,324.295892,1.0,1.77,-4.87,-14.44,7.56,-15.88,43.88,26.81,-2.44,20.69,0.5846874687940742,-3.7645186148574994,-5.054370831767461,-159.8633643903993,-19.273367657733324,1.0886361860699356,0.0506,-0.9846,-0.1674,0.0095
367405.0,324.338632,1.0,1.16,-4.96,-13.25,7.56,-15.88,43.88,17.62,-37.13,39.0,0.2289106917727296,-3.6888949556084527,-3.899164601900857,-160.46210370241806,-18.378967167629526,1.9710720103882062,0.0547,-0.9855,-0.1597,0.0172
367437.0,324.369584,1.0,-0.03,-2.57,-10.76,7.56,-15.19,44.25,8.56,-59.56,62.56,0.20336453252761028,-1.4024407224991595,-1.1649133747787221,-162.00854277151578,-16.350341655632345,4.194987989089829,0.0542,-0.9877,-0.1422,0.0366
367474.0,324.429943,1.0,-0.69,0.34,-8.54,8.38,-15.19,43.88,-5.56,-61.5,71.5,0.49686757222504047,1.2245443674374534,1.3345243099592548,-163.61910772281004,-13.807290567361372,6.65004244052053,0.0501,-0.9898,-0.1202,0.058
367509.0,324.44998,1.0,-1.0,1.5,-8.04,9.5,-14.75,43.0,12.31,-47.19,46.44,0.5589863006485425,2.359444221076414,1.9318701755657743,-164.10899767779725,-12.365495103087909,8.1313637329408,0.0505,-0.9904,-0.1077,0.0709
367544.0,324.484896,1.0,-1.88,1.72,-6.41,9.5,-14.75,43.0,22.31,-40.31,29.06,-0.3414820103021976,2.635474988037287,3.4412307974596184,-163.86220596785728,-11.121372822035768,9.890066196362191,0.0541,-0.9901,-0.0969,0.0862
367579.0,324.524704,1.0,-1.73,0.55,-6.05,10.19,-15.5,43.38,13.31,-13.81,24.12,-0.41055305547965715,1.454809662092033,3.6737163597491946,-163.6997403388332,-10.396251161173769,10.591876570929834,0.0576,-0.9899,-0.0906,0.0923
367616.0,324.542258,1.0,-0.96,-0.16,-7.27,11.38,-14.0,43.38,21.69,-7.44,11.06,0.5078855512301406,0.8048385573799292,2.533797247234668,-163.53886738912243,-9.821056182581472,11.029269725697887,0.063,-0.9897,-0.0856,0.0961
367650.0,324.638248,1.0,-1.14,-0.7,-5.91,11.38,-14.0,43.38,5.44,-6.25,8.75,0.011044091208979423,0.18004249173177475,3.749822222258552,-163.37954086931006,-9.56804981789979,11.34014667578332,0.0649,-0.9895,-0.0834,0.0988
367683.0,324.654237,1.0,-1.2,-0.86,-4.99,12.0,-14.0,43.38,-3.13,-0.25,5.56,-0.25763221189509167,-0.07952745739444841,4.609823946829235,-163.4590136286695,-9.395572354596672,11.37469368630907,0.0641,-0.9896,-0.0819,0.0991
367720.0,324.658225,1.0,-1.34,-0.49,-2.58,12.0,-14.38,43.0,-12.63,21.06,18.19,-0.8569587841672263,0.023118603693711076,6.985801338266817,-164.10899767779725,-9.050681021579292,10.948685380949465,0.062,-0.9904,-0.0789,0.0954
367755.0,324.716677,1.0,-1.52,0.92,-2.11,12.0,-14.38,43.0,-8.38,50.56,14.63,-1.0081278835759067,1.357148012386477,7.627033647787483,-165.86324083896642,-8.257737442475136,9.200123661166053,0.0587,-0.9924,-0.072,0.0802
367790.0,324.757566,1.0,-0.37,-0.55,-2.85,10.19,-14.38,43.38,9.31,103.19,-9.44,-0.08088943546050545,-0.1628790397096958,6.8862343929923036,-167.233021952493,-8.177316654862214,6.718914520918895,0.0611,-0.9938,-0.0713,0.0586
367824.0,324.789481,1.0,-0.26,-2.54,-4.87,9.5,-14.0,44.69,-0.5,129.13,-2.81,-0.40628115084468613,-1.8417395736487572,4.641475175337778,-168.88558009980704,-8.039461810968866,1.8450038134157025,0.0646,-0.9953,-0.0701,0.0161
367861.0,324.803598,1.0,1.85,-2.23,-10.27,4.88,-14.38,45.88,24.25,141.81,20.44,1.2442000397564839,-0.9815469702420971,-0.7459246529592711,-169.1248093860893,-7.109236280779952,-2.2232157148923686,0.0689,-0.9955,-0.062,-0.0194
367894.0,324.839056,1.0,2.23,-3.09,-13.64,4.88,-14.38,45.88,-40.19,161.06,-19.06,-0.11545268083141336,-1.4353665386025705,-4.282246109289364,-166.72765058183754,-7.109236280779952,-8.476043091817116,0.064,-0.9933,-0.062,-0.0739
367931.0,324.867672,1.0,4.43,-4.08,-16.72,-0.25,-14.38,45.5,-57.81,103.62,18.94,0.4131517232461963,-2.5500431695002117,-7.776190654662832,-164.87335484809628,-6.810747745686071,-12.008242691005819,0.0526,-0.9913,-0.0594,-0.1046
367968.0,324.898142,1.0,5.59,1.02,-20.96,-5.5,-17.0,45.5,-28.69,43.38,-6.25,0.2476429782657168,2.4127601322354204,-11.774067353684307,-163.37954086931006,-6.01882390838285,-14.765843296845908,0.0396,-0.9895,-0.0525,-0.1285
368003.0,324.935752,1.0,3.95,4.58,-16.86,-5.5,-17.0,45.5,-52.19,2.94,-7.94,-0.043816886267691535,5.318134924850177,-7.297560621994998,-163.37954086931006,-6.076199569788739,-15.147239662385429,0.0276,-0.9895,-0.053,-0.1318
368037.0,324.974053,1.0,3.5,7.81,-15.09,-8.5,-18.5,45.38,8.63,-17.94,-50.69,0.5432164366080108,8.167584676868174,-5.488763575617602,-163.30044367130742,-7.201088530206642,-14.858287755594212,0.02,-0.9894,-0.0628,-0.1293
368072.0,325.01871,1.0,2.2,5.23,-11.12,-9.19,-19.69,42.06,37.31,-35.75,-92.12,0.5498134037977274,5.573120073825278,-1.3506497568287177,-162.37875406030932,-10.672437176186932,-13.588001782657653,0.0267,-0.9882,-0.093,-0.1183
368109.0,325.052866,1.0,1.94,0.77,-8.59,-6.88,-20.37,43.25,65.5,-26.87,-118.37,0.24820651949022932,1.1555792706993777,1.0460775259654156,-160.3946831522595,-14.303764676023915,-12.619102083523115,0.0376,-0.9854,-0.1245,-0.1099
368144.0,325.105366,1.0,2.13,-2.08,-7.88,-6.88,-20.37,43.25,67.19,-18.75,-114.19,-0.15462612646756224,-1.5105370703062855,1.520995619068815,-156.70033876277134,-19.029325032716933,-11.674144907935558,0.0547,-0.9794,-0.1653,-0.1017
368181.0,325.118626,1.0,2.39,-3.79,-7.88,-3.5,-18.19,44.06,40.5,-17.0,-105.75,-0.6183691914748112,-3.0837105354993675,1.3049472954657482,-153.8627830260387,-22.39598723123728,-11.178940913568928,0.063,-0.9741,-0.1942,-0.0974
368218.0,325.159621,1.0,2.08,-8.07,-6.82,-1.25,-16.25,45.38,46.44,-17.06,-82.81,-2.760489618728984,-6.790843588935352,1.9181875125753978,-150.61456567249238,-26.04103972629063,-10.407757691617306,0.0737,-0.9673,-0.2253,-0.0907
368250.0,325.180102,1.0,3.62,-9.05,-8.13,-1.25,-16.25,45.38,23.75,3.19,-16.44,-2.136938785608792,-7.9421811541986616,0.13922784409657218,-149.59279181341398,-26.971085309327815,-10.269686237501054,0.0795,-0.965,-0.2332,-0.0895
368285.0,325.219123,1.0,4.59,-11.34,-8.41,1.25,-15.19,46.25,3.81,-3.19,24.87,-2.25199982119646,-10.277774361932366,-0.6665372403073562,-149.9885675960275,-26.48818157203767,-10.062607019364435,0.0827,-0.9659,-0.2291,-0.0877
368320.0,325.26729,1.0,4.59,-10.73,-7.57,0.88,-14.06,45.75,-33.63,-9.69,96.62,-1.3731970332637857,-10.06929855908098,0.30773130175201047,-152.43158968261443,-24.139230338119987,-9.694547078719877,0.077,-0.9712,-0.2091,-0.0845
368357.0,325.302197,1.0,4.63,-9.15,-8.18,1.19,-13.75,45.38,-64.75,10.5,148.44,0.08622787624923278,-8.785153064179228,0.06573369852712929,-157.62647223808008,-18.599556301853195,-9.982085146289721,0.0625,-0.981,-0.1616,-0.087
368392.0,325.335112,1.0,4.33,-2.2,-7.5,1.19,-13.75,45.38,-90.75,0.06,192.38,2.408106865335154,-2.2548976398084255,1.5027137069452348,-162.68057392822612,-13.04576356339961,-10.120125690641803,0.045,-0.9886,-0.1136,-0.0882
368429.0,325.359147,1.0,4.18,0.48,-7.72,-1.75,-16.75,44.06,-89.75,22.0,197.13,2.726753800114336,0.5106060722210496,1.4636712062733253,-167.97602060615887,-5.066597540981832,-10.637910557080563,0.0209,-0.9945,-0.0442,-0.0927
368463.0,325.403143,1.0,4.61,5.36,-9.62,-5.06,-19.37,44.06,-86.37,26.62,174.0,2.5750436895209043,5.454556006111864,-0.4959258319581217,-168.6513771745933,0.5156637559929028,-11.38620958683243,0.0031,-0.9951,0.0045,-0.0992
368498.0,325.459941,1.0,4.26,7.41,-10.11,-5.06,-19.37,44.06,-69.62,5.38,121.62,1.2621356767222958,7.348015824487759,-1.1332529692507922,-166.4334221875333,6.282764679968378,-11.823900394126868,-0.0173,-0.993,0.0548,-0.103
368533.0,325.469744,1.0,3.92,10.22,-9.98,-8.5,-21.56,42.88,-63.31,4.44,69.44,0.12655449163354104,9.86442124111945,-1.242891960570077,-164.61437509688025,9.027691221695425,-11.89302513102135,-0.0319,-0.991,0.0787,-0.1036
368570.0,325.50582,1.0,3.41,9.82,-10.35,-11.5,-23.37,41.25,-11.06,0.56,-14.63,-0.5058124723366493,9.135971671649376,-1.6590019813593084,-163.86220596785728,9.786552516199244,-11.89302513102135,-0.0424,-0.9901,0.0853,-0.1036
368605.0,325.541718,1.0,2.01,7.08,-9.23,-11.5,-23.37,41.25,11.19,-11.94,-55.0,-0.9443571355496373,6.347427342338914,-0.10181888950380902,-164.78654130633294,8.567970434690707,-11.547444362906596,-0.0421,-0.9912,0.0747,-0.1006
368640.0,325.598144,1.0,1.54,4.92,-9.14,-11.88,-23.75,41.25,24.25,-4.44,-91.25,-0.7336416770119186,4.229464604837046,0.23110828967458552,-166.72765058183754,5.456620099259026,-11.178940913568928,-0.0387,-0.9933,0.0476,-0.0974
368674.0,325.605124,1.0,1.78,0.13,-9.56,-10.38,-24.37,40.06,45.81,-0.19,-99.56,-0.08266783599300187,-0.387325104410244,0.08954933712808533,-168.4218955829601,1.432431792389882,-11.052294827398207,-0.0278,-0.9949,0.0125,-0.0963
368711.0,325.673162,1.0,1.76,-2.26,-9.68,-9.25,-24.37,42.06,31.0,-11.56,-79.19,-0.11820584330787387,-2.6604530894010363,0.06931891095386611,-169.0045461043646,-1.1230152546764245,-10.764512919793646,-0.0197,-0.9954,-0.0098,-0.0938
368744.0,325.683306,1.0,1.39,-3.12,-9.35,-9.25,-24.37,42.06,17.0,-8.81,-68.94,-0.5205815137400718,-3.447957779516451,0.48304651002767685,-168.7678701513817,-3.8853982832056504,-10.315708384533187,-0.0159,-0.9952,-0.0339,-0.0899
368781.0,325.714309,1.0,1.6,-2.27,-9.83,-6.56,-23.25,40.88,12.44,-13.13,-34.25,-0.35132386765126145,-2.58663464558267,-0.06896100642841319,-168.6513771745933,-5.2271876941715805,-10.01659391306903,-0.0131,-0.9951,-0.0456,-0.0873
368818.0,325.759039,1.0,1.2,-2.44,-8.92,-5.5,-22.87,42.5,11.81,-13.0,-27.31,-0.5611459016434264,-2.6691186888374197,0.8891996523968473,-168.53606406960452,-6.340147475413155,-9.45306245260688,-0.0108,-0.995,-0.0553,-0.0824
368852.0,325.783165,1.0,1.45,-1.32,-9.36,-5.5,-22.87,42.5,-1.12,-0.44,-5.69,-0.25687312520229943,-1.5805292291080868,0.37847713599905575,-168.4218955829601,-6.672999532212699,-9.338084626655299,-0.0101,-0.9949,-0.0582,-0.0814
368885.0,325.828119,1.0,1.64,-0.82,-9.72,-4.75,-22.56,42.5,-6.38,2.31,-6.75,-0.09396325714822884,-1.158654680789204,-0.016236044182301512,-168.30883818145554,-6.868145731332586,-9.430066128049688,-0.0125,-0.9948,-0.0599,-0.0822
368922.0,325.866914,1.0,1.75,0.22,-9.57,-4.0,-23.25,43.25,-0.56,0.56,4.38,0.1605309285855563,-0.16662923293637952,0.07822440694032196,-168.30883818145554,-6.868145731332586,-9.41856810856577,-0.014,-0.9948,-0.0599,-0.0821
368957.0,325.894668,1.0,1.88,0.33,-9.96,-4.0,-23.25,43.25,3.88,2.19,3.88,0.22749743631701003,-0.05253936366223816,-0.3319092927069871,-168.30883818145554,-6.707435672786218,-9.476059158737442,-0.0128,-0.9948,-0.0585,-0.0826
368990.0,325.917887,1.0,1.45,0.07,-9.62,-4.75,-22.56,42.06,-3.19,0.37,-6.19,-0.17726539808740172,-0.2918592297829991,0.08372887676592633,-168.1968599368726,-6.810747745686071,-9.522053719499677,-0.0147,-0.9947,-0.0594,-0.083
