TIME,ELAPSED_SECONDS,PSTATE,acc_x,acc_y,acc_z,mag_x,mag_y,mag_z,gyr_x,gyr_y,gyr_z,lin_x,lin_y,lin_z,eul_x,eul_y,eul_z,qua_w,qua_x,qua_y,qua_z
1316661.0,1245.315549,1.0,-0.63,3.71,-8.9,23.87,-13.38,35.75,-0.5,3.19,0.12,0.05693636242562805,0.15015868698865598,0.14511748081052822,-85.84367215482173,-89.80459924068859,-13.968904250085993,-0.1524,-0.6809999999999999,-0.7059,-0.1216
1316696.0,1245.377378,1.0,-0.47,4.17,-9.94,23.87,-13.0,35.75,3.06,2.25,-2.81,0.07794647056145143,-0.03441931720208735,-0.9825176999817896,-85.78109393885542,-89.85314388081687,-14.118999098561428,-0.1514,-0.6806,-0.7062,-0.1229
1316730.0,1245.393404,1.0,-0.59,3.9,-9.15,23.87,-13.0,35.75,-2.0,0.94,-0.63,0.13877242534714096,0.1157349529549877,-0.15567641678778976,-85.74981673368876,-89.90170904203455,-14.072813487232235,-0.1514,-0.6804,-0.7065,-0.1225
1316767.0,1245.409126,1.0,-0.58,3.8,-9.06,23.19,-13.38,35.88,-1.25,0.25,-0.5,0.08322078779973496,0.11195090398577624,-0.034109182886998816,-85.71854745258325,-89.93409723395683,-14.061267443693245,-0.1513,-0.6802,-0.7067,-0.1224
1316802.0,1245.453352,1.0,-0.51,3.67,-9.35,23.5,-14.06,35.0,1.37,1.25,-1.75,-0.14312585137042932,0.0392774198839938,-0.2496650445357833,-85.67165837028584,-89.99890106694885,-14.049721543626418,-0.151,-0.6799,-0.7071,-0.1223
1316837.0,1245.50359,1.0,-0.59,3.72,-9.14,23.5,-14.06,35.0,-1.06,-1.81,-0.12,-0.01498077414193866,0.11270083129708185,-0.07834742534266681,-85.67165837028584,-89.99890106694885,-14.003539375629765,-0.1514,-0.6799,-0.7071,-0.1219
1316872.0,1245.578241,1.0,-0.55,3.66,-9.21,24.56,-13.38,35.38,-0.75,-0.75,1.06,-0.1000048748372907,0.0692865165340788,-0.11843933983142385,-85.67165837028584,-89.98269667432403,-13.991994191085649,-0.1516,-0.6799,-0.7070000000000001,-0.1218
1316909.0,1245.593413,1.0,-0.57,3.76,-9.07,23.5,-13.75,35.5,-1.69,1.63,0.94,0.0363255875517956,0.09177272831321026,-0.0278636238670682,-85.68728608719269,-89.9502947591222,-14.038175786909196,-0.1519,-0.68,-0.7068,-0.1222
1316943.0,1245.596135,1.0,-0.5,3.91,-9.18,23.5,-13.75,35.5,-0.75,1.25,-0.31,0.12704855158885442,0.02111773832744657,-0.183040320859158,-85.68728608719269,-89.9502947591222,-14.095906005217,-0.1517,-0.68,-0.7068,-0.1227
1316976.0,1245.644189,1.0,-0.64,3.69,-9.06,23.87,-13.0,35.38,-0.12,0.0,-0.5,-0.025062001446287008,0.17202796514326246,0.004656413219189304,-85.6404088628468,-89.98269667432403,-14.084359674365961,-0.1517,-0.6797,-0.7070000000000001,-0.1226
1317011.0,1245.662538,1.0,-0.56,3.57,-9.19,23.5,-13.75,35.0,0.69,0.19,-0.12,-0.18344166905847448,0.09445870106336283,-0.06614224474244068,-85.6404088628468,-89.99890106694885,-14.072813487232235,-0.1515,-0.6797,-0.7071,-0.1225
1317048.0,1245.700814,1.0,-0.49,3.81,-9.2,24.25,-14.06,36.25,0.69,0.5,-0.06,0.03244704557568945,0.013215728127959236,-0.16305273046109825,-85.6404088628468,-89.99890106694885,-14.072813487232235,-0.1515,-0.6797,-0.7071,-0.1225
1317083.0,1245.756878,1.0,-0.61,3.81,-9.13,24.25,-14.06,36.25,-0.5,-1.0,-0.44,0.06711950835996339,0.13360928292247998,-0.1040887984506238,-85.6404088628468,-90.0151077513171,-14.049721543626418,-0.1514,-0.6797,-0.7072,-0.1223
1317120.0,1245.778434,1.0,-0.56,3.62,-9.18,23.19,-13.75,35.0,1.63,-1.31,-0.19,-0.1222686258564476,0.08654748632986907,-0.07606015034545699,-85.6404088628468,-90.0151077513171,-14.003539375629765,-0.1513,-0.6797,-0.7072,-0.1219
1317156.0,1245.81085,1.0,-0.58,3.58,-9.07,23.5,-13.38,36.25,-0.31,-1.81,-0.06,-0.11666920633240928,0.10171762330359067,0.039678011640289064,-85.67165837028584,-90.0151077513171,-13.957359493385505,-0.1517,-0.6799,-0.7072,-0.1215
1317191.0,1245.8285119999996,1.0,-0.66,3.91,-9.21,23.5,-13.38,36.25,-2.31,-1.31,2.0,0.1295930547748244,0.15702755879803776,-0.21863543164393207,-85.71854745258325,-89.93409723395683,-13.957359493385505,-0.1522,-0.6802,-0.7067,-0.1215
1317224.0,1245.884319,1.0,-0.68,3.75,-9.17,23.87,-13.75,34.56,-0.06,-0.12,0.25,-0.008534082058461734,0.18376579429569065,-0.12209399419636212,-85.7341811031503,-89.90170904203455,-13.968904250085993,-0.1525,-0.6803,-0.7065,-0.1216
1317261.0,1245.921341,1.0,-0.62,3.69,-8.84,24.25,-13.75,35.06,0.81,-0.56,0.63,0.06121495340187533,0.14071440210555608,0.2086006051218892,-85.7654543452423,-89.86932998605263,-13.968904250085993,-0.1524,-0.6805,-0.7063,-0.1216
1317298.0,1245.944807,1.0,-0.55,3.58,-8.99,23.5,-13.38,35.38,0.06,3.13,0.37,-0.10022571881348916,0.08496182924604845,0.11532726815067385,-85.7654543452423,-89.88551837269578,-14.038175786909196,-0.1519,-0.6805,-0.7064,-0.1222
1317330.0,1245.9845480000001,1.0,-0.6,3.49,-8.66,23.5,-13.38,35.38,-1.56,8.38,0.37,-0.05955585312190548,0.17877737430916807,0.4524962835596913,-85.71854745258325,-89.91790199535811,-14.188281840563285,-0.1509,-0.6802,-0.7066,-0.1235
1317367.0,1246.0248390000004,1.0,-1.75,3.88,-7.7,23.5,-13.38,35.38,-9.94,46.5,4.94,0.6648983960105804,1.4873021164014968,1.1606831635189483,-85.6404088628468,-89.91790199535811,-15.124119969217904,-0.1464,-0.6797,-0.7066,-0.1316
1317402.0,1246.074438,1.0,0.29,4.21,-10.35,22.75,-14.06,36.75,-11.06,56.0,4.63,-0.1730821531446075,-0.2415796965938063,-1.3666387646590614,-85.31276410779735,-90.12861881978974,-16.686140017359815,-0.1363,-0.6776,-0.7079,-0.1451
1317437.0,1246.097983,1.0,-0.26,3.49,-8.55,22.75,-14.06,36.75,-1.75,35.56,0.19,-0.11249115035558356,0.5009406942536793,0.5824099683262621,-85.01706567993352,-90.38849700989724,-17.682816604505923,-0.1285,-0.6757,-0.7095,-0.1537
1317472.0,1246.147492,1.0,0.15,3.56,-7.8,20.87,-14.88,37.5,-10.44,57.38,6.56,0.20005629408581105,0.2730674323096448,1.2380146561072234,-84.78411276943535,-90.46983065734315,-18.901528010085144,-0.1202,-0.6742,-0.71,-0.1642
1317509.0,1246.155475,1.0,1.32,4.05,-8.53,20.19,-14.88,38.25,-20.31,116.5,8.63,0.17507106994358268,-0.2759472098415857,0.27779890147561304,-84.13412960499036,-90.50238041567628,-22.01062364188303,-0.1017,-0.67,-0.7102,-0.1909
1317543.0,1246.199849,1.0,2.27,4.33,-10.14,20.19,-14.88,38.25,-17.44,125.75,6.63,-0.3708710610601288,-0.32152741245239264,-1.4397038437624214,-83.28795636892652,-90.61637811253081,-24.8662564695287,-0.0814,-0.6645,-0.7109,-0.2153
1317578.0,1246.23725,1.0,2.42,4.45,-8.9,16.06,-15.5,38.38,-14.25,76.31,5.94,0.1353772642936102,-0.11501636661284753,-0.4323609010452554,-82.34069929138175,-90.61637811253081,-27.725866499273085,-0.0621,-0.6583,-0.7109,-0.2396
1317613.0,1246.296478,1.0,2.45,4.41,-8.1,12.69,-15.56,40.06,-8.75,67.69,3.44,0.3707072353425427,0.055714725473646975,0.2714482708791053,-81.52121595690518,-90.61637811253081,-29.78425385642316,-0.0475,-0.6529,-0.7109,-0.257
1317650.0,1246.3041230000001,1.0,2.94,4.24,-8.39,9.25,-15.56,40.56,5.5,92.69,-3.75,0.030698449782063264,0.05755050889954572,-0.04266700901673737,-80.51141416133366,-90.91004306520378,-31.44756267107627,-0.0321,-0.6462,-0.7127,-0.271
1317685.0,1246.324027,1.0,3.32,4.28,-7.93,9.25,-15.56,40.56,-4.75,114.69,-2.56,0.18731351141708047,0.14569834920930827,0.20616117705570505,-78.89931607211645,-91.12261073839295,-34.17118813606689,-0.006999999999999999,-0.6354,-0.7140000000000001,-0.2938
1317722.0,1246.3673390000001,1.0,4.49,4.13,-9.5,7.38,-16.37,40.5,-14.13,62.38,0.81,-0.8070029939298441,0.1957929195740838,-1.4528975619774762,-77.92328819790765,-91.02445270227787,-36.01000138130928,0.0074,-0.6288,-0.7134,-0.3091
1317756.0,1246.420071,1.0,3.92,4.61,-7.43,2.75,-16.75,43.0,-6.25,39.25,-1.69,0.4741439093039777,0.011354923236005177,0.23594163441972604,-77.18832949283414,-90.926380189859,-37.35004092959612,0.0155,-0.6238,-0.7128,-0.3202
1317791.0,1246.47641,1.0,4.24,4.57,-7.1,2.75,-16.75,43.0,1.19,77.56,-5.06,0.4849243297635759,-0.1508256880935811,0.3718951008934823,-76.25303259821837,-90.97540577406772,-38.634678836735524,0.0275,-0.6174,-0.7131,-0.3308
1317824.0,1246.482058,1.0,4.55,4.29,-7.14,1.06,-16.75,40.19,-1.44,116.0,-7.44,0.13048242940631738,0.20406479809103656,0.3183660722396038,-74.24196019139418,-90.95906154292842,-41.35408524581363,0.0524,-0.6035,-0.713,-0.3531
1317861.0,1246.498475,1.0,5.55,4.58,-7.66,-0.37,-16.75,40.19,-11.63,98.5,-4.63,-0.1161585964029559,0.1950223272168712,-0.7006319259963051,-72.74037515744728,-90.61637811253081,-43.65334169783373,0.0695,-0.593,-0.7109,-0.3718
1317896.0,1246.556645,1.0,5.84,4.31,-7.08,-5.38,-16.75,40.19,-5.69,60.19,-2.94,-0.28981881915017604,0.03624382890800115,-0.3285752780553661,-71.40829576929687,-90.3072214419173,-45.511064021543426,0.0837,-0.5836,-0.7090000000000001,-0.3868
1317931.0,1246.607631,1.0,5.49,4.79,-6.06,-5.38,-16.75,40.19,-18.06,58.94,-2.06,0.5140529418001778,-0.12323481164302258,0.3447071363896974,-70.64807912994407,-89.91790199535811,-46.88143541316104,0.0903,-0.5782,-0.7066,-0.3978
1317967.0,1246.613847,1.0,6.21,4.95,-6.81,-7.38,-17.5,41.06,-3.63,60.69,-2.94,0.1272258348084887,0.2617493434475925,-0.6507875861471,-69.34710995579182,-89.44922896161478,-48.76169642019097,0.1038,-0.5689,-0.7037,-0.4128
1318002.0,1246.655021,1.0,6.23,4.59,-5.96,-9.88,-17.5,39.5,5.25,33.56,-3.38,0.07079731775723007,-0.16539178481001304,0.0408815562309286,-68.5825161330216,-89.41697673415354,-49.492462296741046,0.1115,-0.5634,-0.7035,-0.4186
1318037.0,1246.714237,1.0,6.08,4.43,-5.68,-9.88,-17.5,39.5,1.25,44.5,-2.25,0.06564013750232213,-0.03403328858107778,0.3807159291708917,-67.64197933171232,-89.28805755492941,-50.44061941505198,0.1214,-0.5566,-0.7027,-0.4261
1318072.0,1246.781418,1.0,6.44,4.99,-5.73,-12.19,-18.25,40.75,-9.5,62.38,-3.44,0.3728204420324833,0.027121024986353715,-0.14658411600502852,-66.65172039063913,-88.91820974498009,-51.77429627625306,0.1304,-0.5494,-0.7004,-0.4366
1318109.0,1246.786535,1.0,7.03,4.65,-5.97,-12.06,-17.87,39.56,-1.37,44.0,1.37,-0.2137095017673558,0.16678234781379908,-0.5186011784126645,-65.48985356561043,-88.54952961516125,-53.077119755232744,0.1432,-0.5409,-0.6981,-0.4468
1318144.0,1246.7987660000001,1.0,6.97,4.73,-5.72,-12.06,-17.87,39.56,-10.0,5.44,-0.63,-0.0696795222886264,0.10119053348656304,-0.3745633481283246,-65.2719990372295,-88.30970809584517,-53.538700860812206,0.1453,-0.5393,-0.6966,-0.4504
1318176.0,1246.8441269999996,1.0,6.7,4.92,-5.41,-14.69,-18.56,37.88,-12.0,-4.25,-0.06,0.2359986052691041,0.035536447695617264,-0.1083659767494165,-65.40812696087787,-88.03849807642652,-53.82124003233572,0.1423,-0.5403,-0.6949,-0.4526
1318213.0,1246.861508,1.0,6.93,4.39,-5.45,-15.5,-17.87,38.75,-14.31,-21.75,1.37,-0.3682346242889509,-0.1251328832078138,-0.034500594468864776,-65.62614795647175,-88.00663181338297,-53.79554006963272,0.1381,-0.5419,-0.6947,-0.4524
1318250.0,1246.907604,1.0,6.8,4.94,-5.36,-14.69,-19.0,38.75,-16.25,-26.5,0.56,0.12345044001457105,-0.21520786904928824,-0.15887284438501048,-66.33657485995305,-87.68843823597489,-53.73130294840485,0.1289,-0.5471,-0.6927,-0.4519
1318283.0,1246.963266,1.0,6.15,5.24,-5.14,-14.69,-19.0,38.75,-12.81,-10.88,1.5,0.6482655204391095,-0.0067606592679019814,0.25262435064694344,-66.73402593846353,-87.45034897247223,-53.75699560652143,0.1234,-0.55,-0.6912,-0.4521
1318320.0,1246.982334,1.0,6.48,4.85,-5.74,-14.25,-19.0,38.25,-3.19,-3.5,2.0,-0.008729517776620009,0.2272822805888972,-0.11346928156359047,-66.80264364391536,-87.40278790753678,-53.75699560652143,0.12300000000000001,-0.5505,-0.6909,-0.4521
1318356.0,1247.005461,1.0,6.8,4.8,-6.04,-14.25,-20.5,37.88,-15.81,-10.94,3.88,-0.2947562137173492,0.2255010398832881,-0.4706973258174241,-67.06363860553823,-87.21273191771509,-53.82124003233572,0.1201,-0.5524,-0.6897,-0.4526
1318389.0,1247.057722,1.0,6.78,5.0,-5.71,-14.25,-20.5,37.88,-16.5,-34.63,-0.06,-0.06080306928173807,-0.13027577348087338,-0.3693920208256731,-67.76616359207401,-86.95978990826461,-53.61572206207956,0.111,-0.5575,-0.6881,-0.451
1318424.0,1247.093468,1.0,6.25,5.21,-5.79,-13.19,-20.06,38.69,-25.75,-65.44,0.81,0.1916306522394331,0.006033803039569463,-0.1780353373725898,-69.11040625696496,-86.73889922301962,-52.83388194622903,0.0933,-0.5672,-0.6867,-0.4449
1318461.0,1247.155921,1.0,6.59,5.37,-6.98,-12.06,-20.87,38.75,-10.31,-94.19,3.0,-0.2905610082516499,0.251212327722286,-1.1859778326378445,-70.53575900749587,-86.67586147437744,-51.65968866130368,0.0761,-0.5774,-0.6863,-0.4357
1318496.0,1247.235528,1.0,5.57,5.26,-6.11,-12.06,-20.87,38.75,-8.38,-140.25,7.44,0.3169808189123953,-0.30629971649735216,0.017354640061407522,-73.42499241497191,-86.70737625621076,-48.58562199629408,0.0449,-0.5978,-0.6865,-0.4114
1318531.0,1247.289599,1.0,4.16,4.75,-5.71,-9.06,-20.87,38.25,-4.94,-88.87,2.5,0.4546097739156811,0.1406751107178783,1.306900564476333,-75.13562834382228,-86.72313671594557,-46.569371208551814,0.0252,-0.6097,-0.6866,-0.3953
1318567.0,1247.4400699999999,1.0,4.7,5.15,-6.92,-4.88,-21.56,40.0,-16.62,-54.94,8.63,0.08998472965784199,0.10418977656617746,-0.015770640498326216,-76.57386047071425,-86.28261375483947,-45.31231413333559,0.0089,-0.6196,-0.6838,-0.3852
1318602.0,1247.4805099999999,1.0,4.46,5.19,-7.09,-2.25,-21.56,39.25,1.25,-124.56,8.69,0.14780766639004694,-0.03841766007985757,-0.0458865757834328,-78.29219886729086,-86.07862420393977,-43.209298755684706,-0.0092,-0.6313,-0.6825,-0.3682
1318637.0,1247.495408,1.0,3.31,5.14,-6.07,-2.25,-21.56,39.25,0.63,-103.31,6.19,0.8690411378735954,-0.033955137414464764,1.2355232042206623,-80.4963997494357,-85.70291578094474,-40.351383033032214,-0.0342,-0.6461,-0.6801,-0.3449
1318672.0,1247.506675,1.0,3.28,5.2,-6.79,0.69,-22.37,39.69,-12.75,-11.38,5.5,0.5598931335604702,0.20210532597661893,0.6661810231802807,-81.08320374700905,-85.37510597064201,-39.86343282424955,-0.0405,-0.65,-0.6779999999999999,-0.3409
1318709.0,1247.50864,1.0,3.8,5.06,-7.38,4.38,-22.37,38.75,-1.37,22.81,1.37,0.04848010057600405,0.05285402432921516,0.08539204992171001,-80.94756010432137,-85.21930985598627,-40.33917501022326,-0.0377,-0.6491,-0.677,-0.3448
1318744.0,1247.545044,1.0,4.45,4.95,-8.22,4.38,-22.37,38.75,0.56,21.81,1.63,-0.5781455410595551,-0.07150999673239505,-0.7543174771642178,-80.63158949863124,-85.23488069373651,-40.86455395752174,-0.0334,-0.647,-0.6771,-0.3491
1318776.0,1247.548086,1.0,4.04,5.15,-7.42,3.25,-22.0,40.06,-4.06,-2.19,2.25,0.040194335541889885,-0.004244976465269307,-0.08773559970072675,-80.60153564588973,-85.15704595460248,-41.03580078188174,-0.0331,-0.6468,-0.6766,-0.3505
1318813.0,1247.559677,1.0,3.8,5.23,-7.17,2.56,-21.56,38.75,-0.56,7.69,-0.94,0.25591407774458275,0.13197530109082956,0.15683702229343233,-80.4963997494357,-85.1414848365832,-41.19490148271794,-0.0327,-0.6461,-0.6765,-0.3518
1318850.0,1247.561625,1.0,4.95,5.27,-9.07,2.56,-22.0,39.25,-0.56,-38.25,-0.44,-0.8312977645176636,-0.13940001743603492,-1.7618335506580869,-80.69171728011639,-85.12592565946625,-40.91347187505044,-0.0347,-0.6474,-0.6764,-0.3495
1318883.0,1247.563599,1.0,3.85,4.79,-7.52,2.56,-22.0,39.25,-1.63,-55.69,2.19,-0.26989685124001017,-0.08587610888347164,0.099086918380916,-81.43047462829705,-85.01706567993352,-39.81467938235785,-0.0442,-0.6523,-0.6757,-0.3405
1318920.0,1247.566777,1.0,2.97,5.34,-6.71,2.88,-22.37,39.25,-15.5,-35.38,3.69,0.7021042720871478,0.2219706778168884,0.7612987846349188,-82.37114871332962,-84.56707943682893,-38.8168714421915,-0.0571,-0.6585,-0.6728,-0.3323
1318955.0,1247.615628,1.0,3.52,5.02,-7.86,4.75,-22.0,40.06,-1.0,3.81,4.38,-0.24175979237310985,0.09421161845103077,-0.15844289338240716,-82.43206880803427,-84.52062093689318,-38.780424772104546,-0.0584,-0.6589,-0.6725,-0.332
1318989.0,1247.664487,1.0,4.14,4.89,-8.75,4.75,-22.0,40.06,-8.13,-23.94,4.94,-0.9112606850259422,-0.1972077747293112,-0.9982059942977628,-82.72182782084748,-84.2113335545649,-38.73183555708117,-0.0612,-0.6608,-0.6705,-0.3316
1319024.0,1247.7200380000004,1.0,3.27,5.82,-7.79,5.56,-22.37,39.25,-15.75,-48.44,4.88,0.4309304895889273,0.1802870600221559,-0.4418228369221531,-83.36465078667902,-83.79498797378322,-38.149326328386564,-0.0709,-0.665,-0.6678,-0.3268
1319061.0,1247.731579,1.0,2.86,5.43,-7.39,6.56,-22.75,38.06,-2.0,-43.63,3.56,0.3678420464978953,0.15531924966447666,0.2088810842825577,-84.24222829795386,-83.44139093704848,-36.98735398071332,-0.0818,-0.6707,-0.6655,-0.3172
1319096.0,1247.773265,1.0,3.8,4.99,-8.71,6.56,-22.75,38.06,0.63,-22.5,5.69,-0.7603946132070171,-0.4915895060361149,-0.8884114673203705,-84.75308505755767,-83.19598327143912,-36.39578793652754,-0.0864,-0.674,-0.6639,-0.3123
1319129.0,1247.822732,1.0,2.96,4.63,-8.38,7.38,-23.06,39.38,-14.69,-64.69,7.81,-0.8016921746244274,-0.10376030133294127,-0.18181451948512795,-85.7341811031503,-82.69129653429431,-35.16755548021839,-0.0977,-0.6803,-0.6606,-0.3021
1319165.0,1247.8314269999996,1.0,1.97,5.48,-6.72,8.75,-23.06,38.0,-12.69,-29.5,3.63,0.8208029342046197,0.3537649876858463,0.9595695280765764,-86.32973658874529,-82.21897227441269,-34.54300944397086,-0.1074,-0.6841,-0.6575,-0.2969
1319200.0,1247.843235,1.0,2.31,5.32,-7.45,10.25,-23.87,36.88,-0.31,17.56,3.81,0.2466130421503601,0.21855462643726986,0.3709509860051057,-86.37687760452374,-82.03659298623278,-34.78309311529889,-0.1074,-0.6844,-0.6563,-0.2989
1319235.0,1247.886596,1.0,2.99,5.5,-8.61,10.25,-23.87,36.88,2.94,25.62,2.44,-0.2761032581711076,0.029645927905110225,-0.8350175436599692,-86.0943036593405,-82.08216411124334,-35.44414023991489,-0.1014,-0.6826,-0.6566,-0.3044
1319272.0,1247.961216,1.0,2.48,5.21,-7.58,10.38,-24.56,37.69,0.37,13.81,-1.06,0.07480440506864805,0.25827852504886584,0.2841190074286999,-85.95326058406742,-82.17335373167707,-35.63667282414923,-0.0992,-0.6817,-0.6572,-0.306
1319309.0,1247.9666630000004,1.0,3.26,5.37,-8.69,9.56,-24.56,38.19,-0.88,15.19,0.37,-0.4474097084567823,-0.08232524840088534,-0.9065963383539531,-85.71854745258325,-82.24939344216158,-36.02205079852741,-0.0958,-0.6802,-0.6577,-0.3092
1319342.0,1248.013293,1.0,2.84,5.48,-7.84,9.56,-24.56,38.19,-3.88,-12.44,-1.19,0.12702574920352872,0.0417701037522078,-0.1705099023706058,-85.84367215482173,-82.18855815257656,-35.805224148583044,-0.0984,-0.6809999999999999,-0.6573,-0.3074
1319376.0,1248.021429,1.0,2.72,5.19,-7.71,9.56,-24.25,37.25,-3.94,-18.87,1.19,-0.03574059186776135,0.0021077291477382687,0.12278103312675093,-86.14135405488717,-82.03659298623278,-35.408051904136364,-0.1024,-0.6829,-0.6563,-0.3041
1319413.0,1248.070355,1.0,2.72,5.1,-7.95,8.75,-23.5,37.69,3.44,-8.94,0.56,-0.2392385437313318,0.015395476243768469,-0.019510384326348884,-86.21981154246382,-82.0214061143213,-35.227664546585345,-0.1039,-0.6834,-0.6562,-0.3026
1319446.0,1248.11726,1.0,2.43,5.51,-7.49,8.75,-23.5,37.69,-2.25,-6.19,1.19,0.3638014120368198,0.19423797952544786,0.20482620762024872,-86.32973658874529,-81.93032160430613,-35.095437786143385,-0.1056,-0.6841,-0.6556,-0.3015
1319481.0,1248.178942,1.0,2.56,5.16,-7.91,9.19,-23.87,36.88,5.38,11.63,2.25,-0.15350317609198472,0.1600376872369712,0.02410816704096419,-86.31402695866787,-81.96067611888428,-35.16755548021839,-0.1041,-0.684,-0.6558,-0.3021
1319516.0,1248.182665,1.0,2.45,4.88,-7.51,9.25,-23.87,38.06,2.88,-8.44,1.37,-0.14006268365149802,0.12663377786249866,0.5232591146094343,-86.37687760452374,-81.97585599565384,-35.04736729747761,-0.1035,-0.6844,-0.6559,-0.3011
1319553.0,1248.2064890000001,1.0,2.65,5.28,-7.66,9.19,-24.25,38.19,0.56,19.81,3.5,0.10143834060952828,0.07660666156598106,0.1339905062279758,-86.32973658874529,-81.93032160430613,-35.299808644002006,-0.1013,-0.6841,-0.6556,-0.3032
1319585.0,1248.2435130000001,1.0,2.89,4.49,-7.68,9.19,-24.25,38.19,6.75,38.0,1.5,-0.5766192601764866,-0.04827071348913309,0.4707097598842385,-85.8749731823786,-82.09735799224998,-36.14256765746203,-0.0924,-0.6812,-0.6567,-0.3102
1319622.0,1248.299649,1.0,3.2,5.16,-7.28,8.75,-23.5,38.5,-9.88,75.25,1.81,0.10081557973566513,-0.11545725011118445,0.3282268272207123,-84.98598023915876,-82.24939344216158,-37.676791133557344,-0.0831,-0.6755,-0.6577,-0.3229
1319657.0,1248.305272,1.0,3.62,4.8,-7.31,7.0,-23.87,37.69,-15.63,106.37,1.06,-0.3652898381834353,-0.14450334359324618,0.3501082368706108,-83.71803594764448,-82.34069929138175,-39.92438520696097,-0.069,-0.6673,-0.6583,-0.3414
1319692.0,1248.360712,1.0,4.34,5.79,-7.53,7.0,-23.87,37.69,-19.37,102.0,-1.06,-0.017117022055760156,0.059916707137473935,-0.636372407127249,-81.61201926535531,-82.15815106961863,-43.71506869334832,-0.0503,-0.6535,-0.6571,-0.3723
1319727.0,1248.378356,1.0,4.36,5.45,-6.89,3.56,-24.56,38.19,-23.0,71.5,-1.25,-0.13929483822255673,0.16636254765327052,0.0016961270446120835,-79.97193860180572,-82.00622099250181,-46.39477504755206,-0.0375,-0.6426,-0.6561,-0.3939
1319763.0,1248.4234960000001,1.0,4.97,5.92,-6.84,1.0,-25.0,36.5,-16.81,76.56,-4.06,0.004908499807237289,0.015923588625344653,-0.5148141570832809,-78.73617218118244,-81.8089732715648,-48.40966960291665,-0.0284,-0.6343,-0.6548,-0.41
1319798.0,1248.442624,1.0,5.0,5.79,-6.47,1.0,-25.0,36.5,-6.69,53.75,-4.0,0.004273364086876175,0.03628014087260964,-0.212514909798502,-77.65826632282992,-81.83929990977303,-49.84601386938241,-0.02,-0.627,-0.655,-0.4214
1319831.0,1248.484509,1.0,4.98,5.94,-6.09,-0.88,-25.75,36.88,-1.44,50.06,-4.5,0.24573233773520944,0.11512138520590832,-0.04720521939811738,-76.50088290484744,-81.88480291681634,-51.278062716299324,-0.0114,-0.6191,-0.6553,-0.4327
1319866.0,1248.566166,1.0,5.47,5.64,-6.6,-4.25,-26.06,37.25,-1.31,39.31,-3.56,-0.454215001061749,0.1902400786341753,-0.4426425338918758,-75.43953757831886,-81.99103761990294,-52.47589269472505,-0.0026,-0.6118,-0.6559999999999999,-0.4421
1319903.0,1248.6063800000004,1.0,5.09,5.58,-6.02,-5.0,-26.5,38.06,-8.88,6.06,-1.12,-0.14417492256413533,0.2095389711428025,0.15158878780273888,-75.12117195535056,-81.93032160430613,-52.936266526907346,-0.002,-0.6096,-0.6556,-0.4457
1319938.0,1248.617547,1.0,5.16,6.07,-5.92,-5.0,-26.5,38.06,-12.69,3.31,3.88,0.22371378144299306,0.2121253124665728,-0.11412895106041887,-75.13562834382228,-81.55147683065383,-53.35908614472047,-0.0035,-0.6097,-0.6531,-0.449
1319972.0,1248.620118,1.0,4.98,6.12,-5.51,-4.56,-26.87,36.0,-6.25,9.31,-3.06,0.4898562626562355,0.1565672061183136,0.19673701642388688,-75.04891103546538,-81.37001475180745,-53.67992638338189,-0.0044,-0.6091,-0.6519,-0.4515
1320009.0,1248.663145,1.0,5.57,5.77,-5.78,-5.0,-27.25,36.88,2.81,31.06,-0.12,-0.10719079838987787,-0.07697088637492079,-0.07812544587590331,-74.44329258880299,-81.47583755660962,-54.31009785710634,0.0018,-0.6049,-0.6526,-0.4564
1320044.0,1248.719106,1.0,5.51,6.08,-5.67,-5.0,-27.25,36.88,-8.5,10.94,3.38,0.199685967623346,0.038292113190888016,-0.16501281160778625,-74.19885237818175,-81.33979509600317,-54.735501492602346,0.0049,-0.6032,-0.6517,-0.4597
1320077.0,1248.747077,1.0,5.42,5.98,-5.83,-5.75,-26.06,36.0,-2.88,1.37,1.81,0.0414205879409737,0.2208562762763641,-0.14700293950537713,-74.17012064859728,-81.2189848647937,-54.929136905330246,0.0052,-0.603,-0.6509,-0.4612
1320114.0,1248.776857,1.0,5.39,5.72,-5.67,-6.19,-26.06,35.69,2.88,-0.31,-2.0,-0.07281513465089562,0.09711905813649507,0.11620801602876085,-74.11267351750108,-81.29447844633472,-54.903309037029295,0.0049,-0.6026,-0.6514,-0.461
1320148.0,1248.7983789999996,1.0,5.49,6.16,-5.78,-6.19,-26.06,35.69,-3.63,3.19,1.19,0.17804074524094915,0.17493996435003462,-0.26468543786062604,-73.99784443066719,-81.29447844633472,-55.032478664205094,0.0057,-0.6018,-0.6514,-0.462
1320183.0,1248.913548,1.0,5.28,5.89,-5.62,-6.5,-26.87,36.88,0.31,-1.75,-1.37,0.11144401959699436,0.18898404592852547,0.10578584978737204,-73.99784443066719,-81.33979509600317,-54.98080172287654,0.0054,-0.6018,-0.6517,-0.4616
1320218.0,1248.96155,1.0,5.34,5.74,-5.71,-6.5,-26.87,36.0,-0.12,1.37,-1.12,-0.07054303828998433,0.169825191954779,0.10956368070148947,-73.95480587683231,-81.41535708644898,-54.954967799820345,0.0056,-0.6015,-0.6522,-0.4614
1320253.0,1249.0783210000004,1.0,5.63,5.99,-5.72,-6.19,-27.25,35.19,-0.88,-0.12,1.37,0.0414080500934122,-0.0033133691527581608,-0.20802295496824108,-74.01219332198103,-81.3246878357526,-54.993719820860264,0.0056,-0.6019,-0.6516,-0.4617
1320288.0,1249.191348,1.0,5.54,5.9,-5.74,-6.19,-27.25,35.19,-1.31,-3.94,-1.69,-0.020219151130721702,0.04353703896131445,-0.11539090458037116,-74.05524812454561,-81.33979509600317,-54.91622259305462,0.0045,-0.6022,-0.6517,-0.4611
1320325.0,1249.2467390000004,1.0,5.7,5.93,-6.0,-5.75,-26.87,36.0,-5.25,-9.31,0.0,-0.1924498354729982,0.05551144237691365,-0.3724846164883591,-74.17012064859728,-81.29447844633472,-54.8516623694969,0.0028,-0.603,-0.6514,-0.4606
1320359.0,1249.259544,1.0,7.24,5.94,-7.82,-6.19,-26.5,35.56,-5.25,-40.44,-0.37,-1.5902300140672625,-0.3186770313890872,-2.285629084276243,-75.00557127858174,-81.20389126609984,-53.962642188164594,-0.0067,-0.6088,-0.6508,-0.4537
1320392.0,1249.291008,1.0,3.73,5.88,-4.76,-6.19,-26.5,35.56,-10.19,-168.88,3.63,1.0389345853358234,0.2488159608058349,1.4398342649045173,-77.51124498215967,-80.91743568101406,-51.1001794642751,-0.0328,-0.626,-0.6489,-0.4313
1320427.0,1249.304456,1.0,4.24,5.7,-6.1,-4.25,-27.25,36.06,-5.94,-83.56,9.88,0.08465727400348255,0.022679961302132186,0.4434283981519673,-79.95698362722979,-80.22642428776203,-48.547907661813746,-0.0557,-0.6425,-0.6443,-0.4111
1320464.0,1249.307001,1.0,4.78,6.11,-7.64,-0.19,-27.56,36.0,-18.94,-76.44,5.75,-0.6084805913639113,0.07717546510121777,-1.064131725226563,-81.08320374700905,-79.6582267018899,-47.56928036162765,-0.0675,-0.65,-0.6405,-0.4033
1320499.0,1249.309406,1.0,2.77,5.56,-5.56,-0.19,-27.56,36.0,-11.94,-112.87,6.5,0.5331446522504713,0.4961068962855742,1.5018480922339508,-83.34930824823599,-78.69171147031696,-45.188168526204606,-0.0918,-0.6649,-0.634,-0.3842
1320534.0,1249.311595,1.0,4.06,6.46,-7.63,1.69,-28.0,35.69,-15.5,-42.75,21.0,-0.16937197450038166,0.04963825806743338,-0.9822771560053614,-84.62905076314031,-77.83489260364539,-44.24647435383947,-0.1016,-0.6732,-0.6282,-0.3766
1320568.0,1249.3139310000001,1.0,3.39,6.05,-7.19,2.75,-28.75,35.69,-9.13,-63.88,13.0,-0.12618026715053388,0.18039410368638675,-0.1804535094033657,-86.20411602380804,-76.85151070141964,-42.852092757216354,-0.1154,-0.6833,-0.6215,-0.3653
1320605.0,1249.316081,1.0,3.02,5.88,-7.06,5.5,-28.37,34.0,-10.69,-62.13,4.81,-0.14883950900101173,0.2315934558921786,0.13904371551839212,-87.18108511627749,-76.29674027277146,-41.74627885444266,-0.1268,-0.6895,-0.6177,-0.3563
1320640.0,1249.351923,1.0,2.72,6.17,-7.01,5.5,-28.37,34.0,-13.75,-61.38,9.63,0.12048479703797944,0.2969001263679624,0.08529547870795008,-88.5335263030476,-75.39608386757837,-40.33917501022326,-0.1412,-0.698,-0.6115,-0.3448
1320675.0,1249.366919,1.0,2.89,6.15,-7.64,7.25,-28.37,34.0,31.44,-57.25,4.63,-0.15365476291180036,0.07482907669127803,-0.4166073489625148,-89.57832790416415,-75.13562834382228,-38.84117149116385,-0.1462,-0.7045,-0.6097,-0.3325
1320712.0,1249.421321,1.0,2.67,5.96,-7.23,7.69,-29.06,34.38,7.25,-61.81,6.56,0.10291993224016303,-0.12588667448400104,0.06514292805599453,-90.84471821404394,-74.70254413195292,-36.87862290728264,-0.1563,-0.7123,-0.6067,-0.3163
1320747.0,1249.436476,1.0,1.8,6.17,-7.22,7.69,-29.06,34.38,-11.13,-72.87,8.75,0.2551388773922054,0.5147858291360465,0.15744279404966655,-91.97694079477051,-73.9834968931097,-35.43211039129503,-0.1678,-0.7192,-0.6017,-0.3043
1320779.0,1249.449891,1.0,1.92,6.05,-7.41,10.25,-28.75,34.75,20.87,-49.69,6.44,0.2032765358531792,0.15914895506304694,0.05317112012981085,-93.17087251757091,-73.49648178219452,-33.6081640231361,-0.1753,-0.7264,-0.5983,-0.2891
1320816.0,1249.485401,1.0,1.83,5.83,-7.81,12.56,-28.0,33.19,-11.06,-44.44,4.81,-0.1783114144907203,0.07409972927286003,-0.10781490081960854,-93.75602271423008,-73.15363536728181,-32.663675023621174,-0.1815,-0.7299,-0.5959,-0.2812
1320853.0,1249.502135,1.0,1.25,5.84,-7.42,13.19,-28.37,32.25,-4.25,-38.81,2.75,0.02349539138175616,0.3989373362847195,0.2900961611199886,-94.54685485638409,-72.56969194535513,-31.47137263789784,-0.1915,-0.7346,-0.5918,-0.2712
1320888.0,1249.545525,1.0,1.66,5.75,-8.02,13.19,-28.37,32.25,5.25,-18.19,4.44,-0.3046524991522261,-0.0976542668997804,-0.19515736161802802,-95.05474342247335,-72.24306941788456,-30.769559206882434,-0.195,-0.7376,-0.5895,-0.2653
1320923.0,1249.584353,1.0,1.31,6.18,-8.0,14.06,-28.0,31.5,6.75,-38.75,0.63,0.02193701405304993,0.2075655869942248,-0.3847647837535373,-95.49691057600175,-71.95960119494845,-29.985877446985693,-0.2,-0.7402,-0.5875,-0.2587
1320960.0,1249.643963,1.0,0.91,5.88,-7.75,14.75,-28.37,31.87,11.19,-43.94,-0.88,-0.03357007305703608,0.3758138209874329,0.04331875384483297,-95.99232372540723,-71.80391056917499,-28.89585348706327,-0.2042,-0.7431,-0.5864,-0.2495
1320992.0,1249.65877,1.0,1.28,5.61,-8.93,14.75,-28.37,31.87,29.5,-34.5,-4.69,-0.685057612130619,-0.23282704508848706,-0.7920238620988425,-96.59342299000929,-71.86050760282423,-27.38370633207425,-0.2055,-0.7466,-0.5868,-0.2367
1321027.0,1249.706794,1.0,0.24,6.21,-7.7,14.75,-28.0,30.56,30.69,-55.31,-10.19,0.5725457187538066,0.6957798810221631,-0.04727215095600812,-97.30210096200071,-72.03042043423166,-25.07751783117069,-0.2086,-0.7507,-0.588,-0.2171
1321064.0,1249.772528,1.0,0.75,4.59,-7.95,16.25,-27.56,31.0,70.31,-28.75,-22.56,-0.42501366035783983,-0.295595808223337,0.6107222867853057,-97.63220528770944,-72.79731116496349,-23.097309457161245,-0.2032,-0.7526,-0.5934,-0.2002
1321101.0,1249.787392,1.0,0.22,5.42,-8.32,16.25,-27.56,31.0,36.25,-17.81,-15.0,0.261281884011775,0.2670912079200487,-0.11844919666997987,-97.78895026657291,-73.63956054350221,-21.33392533931821,-0.19699999999999998,-0.7535,-0.5993,-0.1851
1321134.0,1249.790381,1.0,0.21,3.24,-8.55,18.19,-26.5,31.87,54.44,-20.44,-20.69,-1.4058339026900486,-0.2430224718839321,0.7728926910943237,-97.77152203051998,-74.50086547711395,-19.85477908376032,-0.1904,-0.7534,-0.6053,-0.1724
1321170.0,1249.835472,1.0,-0.21,4.17,-7.94,19.25,-25.0,32.25,-3.0,-13.0,-0.88,-0.3322610112298369,0.3242742228797938,0.8477969010373734,-97.84125321339735,-74.64489405402493,-19.192010366536685,-0.191,-0.7538,-0.6063,-0.1667
1321205.0,1249.861057,1.0,-0.16,4.89,-8.66,19.69,-23.5,32.69,27.62,0.81,-12.06,0.029428387125250526,0.3471571963280199,-0.13376829356636755,-97.78895026657291,-74.93336628710402,-18.83183055191492,-0.1883,-0.7535,-0.6083,-0.1636
1321240.0,1249.927426,1.0,0.18,4.22,-9.47,19.69,-23.5,32.69,16.19,-5.44,-8.5,-0.7173953271568863,-0.206422307111178,-0.535711131564705,-97.6844263573576,-75.41056702241764,-18.1816561801528,-0.1848,-0.7529,-0.6116,-0.158
1321277.0,1249.941811,1.0,-0.11,4.86,-9.06,19.25,-23.5,31.87,13.63,-22.56,-7.63,0.04708980918580985,0.13552977479820796,-0.4741434630559542,-97.82381585601729,-75.43953757831886,-17.474100846214462,-0.1861,-0.7537,-0.6118,-0.1519
1321314.0,1249.953037,1.0,-0.08,3.93,-9.15,21.25,-22.25,32.69,14.13,-46.06,-1.81,-0.6206511479397833,-0.277580292541851,-0.12871820322998495,-98.12066633896302,-75.45402498067408,-15.922114008308865,-0.18899999999999997,-0.7554,-0.6119,-0.1385
1321349.0,1249.995707,1.0,-0.8,4.22,-8.15,21.25,-22.25,32.69,12.75,-60.38,-5.06,0.015861612158177385,0.3560644343407321,0.601006810746064,-98.48859269167416,-75.16454533036487,-14.38461134345722,-0.1962,-0.7575,-0.6099,-0.1252
1321381.0,1250.053528,1.0,-1.04,4.81,-7.99,22.06,-21.87,32.69,-0.19,-6.38,-4.38,0.5963725779367344,0.5849229048677734,0.4599925791010104,-98.55882930624523,-75.09226338481456,-13.564921674838883,-0.2003,-0.7579,-0.6094,-0.1181
1321416.0,1250.065407,1.0,-0.77,3.66,-8.81,22.75,-22.25,33.19,26.12,-19.5,-8.38,-0.5919360395556552,-0.08220027761530062,0.2542966334502079,-98.61153960499006,-75.25133001282822,-12.815113562902276,-0.1998,-0.7582,-0.6105,-0.1116
1321453.0,1250.116145,1.0,-1.09,4.48,-8.71,23.37,-22.25,32.25,-6.44,-13.75,0.94,0.15520215790947356,0.2949384375744836,-0.042792806992759225,-98.78744465249004,-75.12117195535056,-12.158043754647913,-0.2019,-0.7592,-0.6096,-0.1059
1321488.0,1250.17378,1.0,-0.95,3.82,-8.54,23.37,-22.25,32.25,10.69,-7.06,-4.5,-0.2762875167411409,0.02776877345886336,0.4072141603703852,-98.80505247705544,-75.16454533036487,-11.743260322870698,-0.2022,-0.7593,-0.6099,-0.1023
1321525.0,1250.189365,1.0,-1.05,4.06,-8.71,23.75,-21.19,31.87,-1.06,2.31,1.88,-0.1575430784524673,0.14010528105705455,0.14198494172448586,-98.84027760077332,-75.15008613528076,-11.766299745968876,-0.2021,-0.7595,-0.6098,-0.1025
1321560.0,1250.234566,1.0,-1.02,4.26,-8.69,24.19,-21.19,31.06,-4.13,6.81,0.69,0.01599922738649029,0.17188461819533973,0.07657807309468545,-98.85789490415894,-75.09226338481456,-11.927589126675839,-0.2018,-0.7596,-0.6094,-0.1039
1321594.0,1250.272163,1.0,-0.91,3.87,-8.88,24.19,-21.19,31.06,3.31,-0.94,0.69,-0.3853898655674459,-0.012995123381658593,0.08498832216496588,-98.84027760077332,-75.13562834382228,-12.054333120262198,-0.201,-0.7595,-0.6097,-0.105
1321627.0,1250.296011,1.0,-0.88,4.46,-8.87,23.37,-21.19,31.0,-5.38,-2.81,2.44,0.13012435952314896,0.05205685680558403,-0.1594554446919343,-98.94602892121195,-74.96224409700284,-12.054333120262198,-0.2021,-0.7601,-0.6085,-0.105
1321664.0,1250.358756,1.0,-1.13,4.07,-8.6,23.5,-20.75,32.25,-3.13,-1.25,2.19,-0.15653295597654693,0.2655352051471271,0.2302838578497983,-98.98130473446213,-74.94780449469394,-11.985198208002224,-0.2022,-0.7603,-0.6084,-0.1044
1321699.0,1250.399776,1.0,-0.83,4.17,-9.29,23.5,-20.75,32.25,-5.69,4.44,3.69,-0.3060059167381358,-0.12303500998415585,-0.4047711922356534,-98.99894740813559,-74.86119614779109,-12.134996086138985,-0.2028,-0.7604,-0.6078,-0.1057
1321732.0,1250.409772,1.0,-1.07,4.45,-8.51,23.19,-21.5,31.5,-5.38,-1.19,2.5,0.1639864035683032,0.285966111992364,0.14958875745645273,-99.14020348928251,-74.61607730658687,-12.204140573704526,-0.2047,-0.7612,-0.6061,-0.1063
1321766.0,1250.429404,1.0,-1.04,4.34,-8.42,23.87,-21.5,33.06,-6.81,0.63,4.19,0.08932552898453239,0.25526641891796376,0.2808712913985669,-99.19322722858459,-74.515262135817,-12.296340166976414,-0.2054,-0.7615,-0.6054,-0.1071
1321801.0,1250.470825,1.0,-0.8,4.18,-9.24,23.75,-21.87,31.37,-0.63,4.06,0.94,-0.3575136608159075,-0.13882188524508687,-0.3591216119587788,-99.22859240723112,-74.44329258880299,-12.469235993000286,-0.2056,-0.7617,-0.6049,-0.1086
1321836.0,1250.494775,1.0,-1.19,4.17,-8.53,23.75,-21.87,31.37,-3.5,-6.13,1.75,-0.1797587583578809,0.3384694706208107,0.245320322269432,-99.2639704213744,-74.3282126664446,-12.400074265032766,-0.2071,-0.7619,-0.6041,-0.10800000000000001
1321873.0,1250.540281,1.0,-0.98,4.39,-8.79,24.19,-21.5,32.19,2.19,-1.75,0.63,-0.05514489111210175,0.11525634927527872,-0.06655996509929096,-99.2639704213744,-74.28508028194621,-12.400074265032766,-0.20800000000000002,-0.7619,-0.6038,-0.10800000000000001
1321908.0,1250.56584,1.0,-0.75,4.42,-9.19,23.06,-21.87,31.75,0.69,1.81,0.94,-0.1410524971584527,-0.16812693626314826,-0.4162085790055858,-99.28166424718141,-74.2563321899432,-12.434654560583265,-0.2078,-0.762,-0.6036,-0.1083
1321940.0,1250.605378,1.0,-1.12,4.17,-8.47,23.06,-21.87,31.75,1.63,-4.19,-1.37,-0.1417985355428154,0.25908024137248475,0.30417818452755085,-99.28166424718141,-74.27070555325552,-12.319391311580372,-0.2082,-0.762,-0.6037,-0.1073
1321977.0,1250.66388,1.0,-0.9,4.04,-8.98,23.37,-21.5,31.25,-0.25,2.75,0.37,-0.4077093846696284,-0.0616793889862578,-0.07272086613447293,-99.28166424718141,-74.29945637663062,-12.342442956629045,-0.2076,-0.762,-0.6039,-0.1075
1322014.0,1250.67201,1.0,-1.07,4.33,-8.6,23.37,-22.25,31.25,-1.75,-0.12,2.13,-0.06127012413538635,0.2295548094237025,0.12174677067659626,-99.37018165058248,-74.17012064859728,-12.434654560583265,-0.2083,-0.7625,-0.603,-0.1083
1322049.0,1250.718799,1.0,-0.88,4.35,-9.01,23.37,-22.25,31.25,-1.44,3.31,0.0,-0.17735750819184126,-0.01464852227837621,-0.2355275395121854,-99.33476502563386,-74.17012064859728,-12.526874248925028,-0.2081,-0.7623,-0.603,-0.1091
1322082.0,1250.730241,1.0,-0.99,4.36,-8.75,23.06,-22.25,31.75,-0.37,0.5,0.06,-0.09588975260737986,0.1388036628602406,-0.017999545837321662,-99.35247172605571,-74.14139436333637,-12.549930441445206,-0.2085,-0.7624,-0.6028,-0.1093
1322117.0,1250.783268,1.0,-0.93,4.32,-8.85,23.37,-22.69,31.75,-1.81,2.81,0.37,-0.15689779240512847,0.05753691231539581,-0.08384405168718168,-99.38789480139916,-74.11267351750108,-12.549930441445206,-0.2084,-0.7626,-0.6026,-0.1093
1322151.0,1250.807289,1.0,-0.91,4.33,-8.82,23.37,-21.87,32.19,-1.19,2.88,0.06,-0.14006143178542665,0.05669678825609236,-0.059786452414199324,-99.33476502563386,-74.14139436333637,-12.642160322280047,-0.2082,-0.7623,-0.6028,-0.1101
1322186.0,1250.84733,1.0,-0.87,4.6,-8.95,23.37,-21.87,32.19,-3.13,1.88,0.75,0.037585113102391536,0.05011144698348724,-0.2936210954782936,-99.33476502563386,-74.12703326079642,-12.7228682118641,-0.2084,-0.7623,-0.6027,-0.1108
1322223.0,1250.900535,1.0,-0.97,4.13,-8.77,23.75,-21.19,31.37,-3.5,1.06,0.56,-0.3228609329286368,0.0967928484501286,0.07027018189115175,-99.28166424718141,-74.1844858325427,-12.757459245108164,-0.2082,-0.762,-0.6031,-0.1111
1322258.0,1250.957528,1.0,-0.93,4.33,-8.75,23.37,-22.25,31.75,0.19,0.44,-0.12,-0.1413045887191564,0.09759448362627654,0.0012021096702241607,-99.2639704213744,-74.17012064859728,-12.803582439206052,-0.2086,-0.7619,-0.603,-0.1115
1322295.0,1250.967315,1.0,-0.9,4.54,-8.68,23.37,-22.25,31.75,-1.06,1.69,-0.94,0.06886594060656925,0.11989077987186035,-0.029247706011693363,-99.22859240723112,-74.17012064859728,-12.849707716341904,-0.2089,-0.7617,-0.603,-0.1119
1322330.0,1251.018031,1.0,-0.86,4.29,-8.99,23.06,-21.87,30.87,-2.44,1.44,1.56,-0.269674327738522,-0.011764363538487976,-0.1878953801916019,-99.24627980878144,-74.17012064859728,-12.88430304585338,-0.2085,-0.7618,-0.603,-0.1122
1322364.0,1251.027901,1.0,-0.92,4.47,-8.66,24.19,-22.25,30.5,-6.13,1.06,1.88,-0.01096281884807282,0.14115436657970082,0.01875669952934267,-99.28166424718141,-74.06960243697172,-12.976563032466052,-0.2092,-0.762,-0.6023,-0.113
1322399.0,1251.036602,1.0,-0.81,4.58,-8.88,24.19,-22.25,30.5,-0.88,1.5,-0.31,-0.0023143039844494284,0.021337107637348408,-0.2176424624052516,-99.2639704213744,-74.04089516831135,-13.091899903813276,-0.2096,-0.7619,-0.6021,-0.114
1322434.0,1251.08474,1.0,-0.88,4.33,-8.86,23.37,-21.5,30.87,-0.19,-0.94,-0.25,-0.2220020462193968,0.04021548607361258,-0.09143051119782973,-99.24627980878144,-74.06960243697172,-13.045763563399612,-0.2096,-0.7618,-0.6023,-0.1136
