acc_x,acc_y,acc_z,lin_x,lin_y,lin_z,eul_x,eul_y,eul_z
5.9,4.58,6.33,0.0136006998576288,0.0826723382610263,0.0164365035817599,-49.53031871016275,7.430739554030821,-77.40842008878053
5.9,4.58,6.33,0.0136006998576288,0.0826723382610263,0.0164365035817599,-49.53031871016275,7.430739554030821,-77.40842008878053
5.97,4.68,6.24,-0.1010981417844237,-0.0188101993189664,-0.0152808357435141,-49.505080460483725,7.407773121999347,-77.45247883989401
5.97,4.68,6.24,-0.1010981417844237,-0.0188101993189664,-0.0152808357435141,-49.505080460483725,7.407773121999347,-77.45247883989401
6.03,4.61,6.21,-0.0352168359529648,-0.0958658414228144,0.0001893992065742,-49.517699264874096,7.361841150905901,-77.46716810896245
6.03,4.61,6.21,-0.0352168359529648,-0.0958658414228144,0.0001893992065742,-49.517699264874096,7.361841150905901,-77.46716810896245
5.92,4.71,6.38,-0.0725854225037264,0.1101135819140748,-0.0886775011753879,-49.517699264874096,7.361841150905901,-77.49655117938742
5.92,4.71,6.38,-0.0725854225037264,0.1101135819140748,-0.0886775011753879,-49.517699264874096,7.361841150905901,-77.49655117938742
6.07,4.71,6.15,-0.1416266530434921,-0.1570694398384744,-0.0323931995299506,-49.492462296741046,7.315910364212048,-77.52594029758299
6.07,4.71,6.15,-0.1416266530434921,-0.1570694398384744,-0.0323931995299506,-49.492462296741046,7.315910364212048,-77.52594029758299
5.89,4.52,6.24,0.0320122515574022,0.0162249286202231,0.1082577637867476,-49.53031871016275,7.304427851725569,-77.51124498215967
5.89,4.52,6.24,0.0320122515574022,0.0162249286202231,0.1082577637867476,-49.53031871016275,7.304427851725569,-77.51124498215967
6.0,4.51,6.31,0.0931106467924533,-0.0279812371178023,0.0012052136670899,-49.517699264874096,7.281463046960031,-77.55533546921926
6.0,4.51,6.31,0.0931106467924533,-0.0279812371178023,0.0012052136670899,-49.517699264874096,7.281463046960031,-77.55533546921926
5.98,4.63,6.3,-0.0267411534424277,-0.0002181591819248,-0.0364483365563899,-49.505080460483725,7.304427851725569,-77.5994395892969
5.98,4.63,6.3,-0.0267411534424277,-0.0002181591819248,-0.0364483365563899,-49.505080460483725,7.304427851725569,-77.5994395892969
5.91,4.62,6.28,-0.0442737048187685,0.0388318221631469,0.0236324732524817,-49.492462296741046,7.304427851725569,-77.6288499193909
5.91,4.62,6.28,-0.0442737048187685,0.0388318221631469,0.0236324732524817,-49.492462296741046,7.304427851725569,-77.6288499193909
6.02,4.65,6.15,-0.1069481793991423,-0.1248703254268179,0.026140325716609,-49.47984477339551,7.292945412680463,-77.65826632282992
6.02,4.65,6.15,-0.1069481793991423,-0.1248703254268179,0.026140325716609,-49.47984477339551,7.292945412680463,-77.65826632282992
5.93,4.62,6.36,-0.0065243821496511,0.0717494887489675,-0.0398574743942479,-49.47984477339551,7.292945412680463,-77.65826632282992
5.93,4.62,6.36,-0.0065243821496511,0.0717494887489675,-0.0398574743942479,-49.47984477339551,7.292945412680463,-77.65826632282992
5.9,4.72,6.2,-0.1726716354782156,0.0041909400866044,0.034313179038369,-49.45461164689416,7.281463046960031,-77.67297680383594
5.9,4.72,6.2,-0.1726716354782156,0.0041909400866044,0.034313179038369,-49.45461164689416,7.281463046960031,-77.67297680383594
6.08,4.52,6.15,0.0221334277717447,-0.1929673970905004,0.0505455676440593,-49.47984477339551,7.247016388579905,-77.68768880531772
6.08,4.52,6.15,0.0221334277717447,-0.1929673970905004,0.0505455676440593,-49.47984477339551,7.247016388579905,-77.68768880531772
5.95,4.59,6.4,0.0394563272945481,0.0734494434400061,-0.0636918571746942,-49.45461164689416,7.281463046960031,-77.67297680383594
5.95,4.59,6.4,0.0394563272945481,0.0734494434400061,-0.0636918571746942,-49.45461164689416,7.281463046960031,-77.67297680383594
6.0,4.76,6.28,-0.1561680008728147,-0.0217656993934598,-0.096437286792602,-49.41676675386262,7.281463046960031,-77.68768880531772
6.0,4.76,6.28,-0.1561680008728147,-0.0217656993934598,-0.096437286792602,-49.41676675386262,7.281463046960031,-77.68768880531772
6.07,4.55,6.06,-0.0474997280673,-0.2452577061047383,0.1005389129873552,-49.441996043237744,7.212570385921347,-77.71711737256554
6.07,4.55,6.06,-0.0474997280673,-0.2452577061047383,0.1005389129873552,-49.441996043237744,7.212570385921347,-77.71711737256554
5.95,4.5,6.27,0.0666303253876222,-0.021881483386541,0.0618831171842018,-49.47984477339551,7.22405231414402,-77.71711737256554
5.95,4.5,6.27,0.0666303253876222,-0.021881483386541,0.0618831171842018,-49.47984477339551,7.22405231414402,-77.71711737256554
5.86,4.68,6.38,-0.0658618473656199,0.1445622478328236,-0.0382046954012018,-49.46722789019666,7.269980754447582,-77.70240232798936
5.86,4.68,6.38,-0.0658618473656199,0.1445622478328236,-0.0382046954012018,-49.46722789019666,7.269980754447582,-77.70240232798936
5.91,4.64,6.19,-0.1031088995163213,-0.0236962185944853,0.0720412742183196,-49.45461164689416,7.247016388579905,-77.70240232798936
5.91,4.64,6.19,-0.1031088995163213,-0.0236962185944853,0.0720412742183196,-49.45461164689416,7.247016388579905,-77.70240232798936
5.88,4.52,6.33,0.0640277147885007,0.0648680405065422,0.0565016632278965,-49.45461164689416,7.212570385921347,-77.65826632282992
5.88,4.52,6.33,0.0640277147885007,0.0648680405065422,0.0565016632278965,-49.45461164689416,7.212570385921347,-77.65826632282992
6.15,4.47,6.1,0.0658561175985153,-0.3042545525017774,0.0641404598939825,-49.41676675386262,7.1781250358345785,-77.5994395892969
6.15,4.47,6.1,0.0658561175985153,-0.3042545525017774,0.0641404598939825,-49.41676675386262,7.1781250358345785,-77.5994395892969
6.05,4.71,6.31,-0.075495657494157,-0.0637089327208837,-0.1227478456697515,-49.39154002007115,7.269980754447582,-77.46716810896245
6.05,4.71,6.31,-0.075495657494157,-0.0637089327208837,-0.1227478456697515,-49.39154002007115,7.269980754447582,-77.46716810896245
6.29,4.59,5.93,-0.0789258440347693,-0.5159789334630194,0.0329794279290478,-49.353704706731605,7.258498535026432,-77.32034327545834
6.29,4.59,5.93,-0.0789258440347693,-0.5159789334630194,0.0329794279290478,-49.353704706731605,7.258498535026432,-77.32034327545834
5.8,4.64,6.55,0.0493073032139124,0.2757333751844464,-0.0925236976203773,-49.441996043237744,7.396290017779932,-77.12969565730245
5.8,4.64,6.55,0.0493073032139124,0.2757333751844464,-0.0925236976203773,-49.441996043237744,7.396290017779932,-77.12969565730245
6.0,4.71,6.26,-0.1009186437911167,-0.0510148774511138,-0.0604120201564573,-49.41676675386262,7.430739554030821,-77.11504093610934
6.0,4.71,6.26,-0.1009186437911167,-0.0510148774511138,-0.0604120201564573,-49.41676675386262,7.430739554030821,-77.11504093610934
5.93,4.57,6.23,0.0009359769443814,-0.0229650829512797,0.0669286626663581,-49.492462296741046,7.430739554030821,-77.1003877085983
5.93,4.57,6.23,0.0009359769443814,-0.0229650829512797,0.0669286626663581,-49.492462296741046,7.430739554030821,-77.1003877085983
5.82,4.57,6.34,0.0248088639337589,0.1361536888863304,0.0632549708906395,-49.517699264874096,7.465189762811248,-77.08573597407309
5.82,4.57,6.34,0.0248088639337589,0.1361536888863304,0.0632549708906395,-49.517699264874096,7.465189762811248,-77.08573597407309
5.65,4.59,6.41,-0.0064907271899832,0.3184916940770508,0.1124650981495865,-49.505080460483725,7.522608280519941,-77.08573597407309
5.65,4.59,6.41,-0.0064907271899832,0.3184916940770508,0.1124650981495865,-49.505080460483725,7.522608280519941,-77.08573597407309
5.85,4.79,6.19,-0.2541083304939618,0.0432846212474418,0.038525543486509,-49.39154002007115,7.534092210574165,-77.21765539082577
5.85,4.79,6.19,-0.2541083304939618,0.0432846212474418,0.038525543486509,-49.39154002007115,7.534092210574165,-77.21765539082577
6.07,4.87,6.21,-0.2749052218564023,-0.1014985384893267,-0.1452355080673353,-49.37892761089464,7.5111244261256385,-77.33501898155158
6.07,4.87,6.21,-0.2749052218564023,-0.1014985384893267,-0.1452355080673353,-49.37892761089464,7.5111244261256385,-77.33501898155158
6.18,4.67,6.14,-0.0939740591331484,-0.2515862701545752,-0.0740773631489162,-49.45461164689416,7.453706284964303,-77.33501898155158
6.18,4.67,6.14,-0.0939740591331484,-0.2515862701545752,-0.0740773631489162,-49.45461164689416,7.453706284964303,-77.33501898155158
6.76,4.78,5.9,-0.1787985906284211,-0.8043433616008411,-0.326319101928517,-49.555559524438046,7.5455762164051485,-77.39373685475255
6.76,4.78,5.9,-0.1787985906284211,-0.8043433616008411,-0.326319101928517,-49.555559524438046,7.5455762164051485,-77.39373685475255
9.92,4.41,4.72,0.2446863030356117,-3.844667028895609,-1.3867214335775433,-50.25069469093511,7.775272426130343,-77.90855177137034
9.92,4.41,4.72,0.2446863030356117,-3.844667028895609,-1.3867214335775433,-50.25069469093511,7.775272426130343,-77.90855177137034
12.01,6.81,3.84,-1.9827717819048112,-5.1319063835254655,-3.4256571658578334,-51.48152030899618,9.004701785923347,-78.54361109463308
12.01,6.81,3.84,-1.9827717819048112,-5.1319063835254655,-3.4256571658578334,-51.48152030899618,9.004701785923347,-78.54361109463308
14.9,8.73,1.54,-4.139119760674111,-6.995149837154589,-5.5077245011852565,-55.52401793690186,11.789339646395064,-78.23310832001327
14.9,8.73,1.54,-4.139119760674111,-6.995149837154589,-5.5077245011852565,-55.52401793690186,11.789339646395064,-78.23310832001327
14.19,9.92,4.12,-2.896549434036273,-1.3031924779679418,-7.704734603781388,-65.58524867553507,15.7832777083714,-74.12703326079642
14.19,9.92,4.12,-2.896549434036273,-1.3031924779679418,-7.704734603781388,-65.58524867553507,15.7832777083714,-74.12703326079642
11.36,9.15,3.85,-1.819634630853567,2.1489665475260966,-5.014465767303496,-75.17900592971374,18.855062255560348,-68.67963404083082
11.36,9.15,3.85,-1.819634630853567,2.1489665475260966,-5.014465767303496,-75.17900592971374,18.855062255560348,-68.67963404083082
13.12,9.75,-0.1,-2.119950698409865,1.1606507649906064,-6.360155461749028,-85.96892404416114,21.57884859507936,-61.75443240547686
13.12,9.75,-0.1,-2.119950698409865,1.1606507649906064,-6.360155461749028,-85.96892404416114,21.57884859507936,-61.75443240547686
12.84,10.54,-0.44,-1.5981654156134408,3.1233229690232145,-6.436549221074309,-93.705742238603,22.22079043012782,-56.53647049567268
12.84,10.54,-0.44,-1.5981654156134408,3.1233229690232145,-6.436549221074309,-93.705742238603,22.22079043012782,-56.53647049567268
10.83,9.99,-0.16,-0.2135023071522268,5.441624432637422,-3.884870744569032,-104.42711160225716,22.022297601396428,-49.32848435315842
10.83,9.99,-0.16,-0.2135023071522268,5.441624432637422,-3.884870744569032,-104.42711160225716,22.022297601396428,-49.32848435315842
9.87,7.79,-0.59,1.6256483903056622,5.00557436154045,-1.6279725395587723,-112.5268984076238,20.599742008899195,-44.65497713304196
9.87,7.79,-0.59,1.6256483903056622,5.00557436154045,-1.6279725395587723,-112.5268984076238,20.599742008899195,-44.65497713304196
10.4,7.88,-2.54,2.48293940506562,5.118342546871093,-2.207657365955873,-122.37462983210789,18.599556301853195,-38.8168714421915
10.4,7.88,-2.54,2.48293940506562,5.118342546871093,-2.207657365955873,-122.37462983210789,18.599556301853195,-38.8168714421915
9.52,6.6,-2.84,3.725381213076489,5.145708031718744,-0.2878645336247807,-132.63918862221735,16.419805484293857,-32.592035674709635
9.52,6.6,-2.84,3.725381213076489,5.145708031718744,-0.2878645336247807,-132.63918862221735,16.419805484293857,-32.592035674709635
7.88,3.19,-3.37,4.304612635623841,2.4859390207886114,2.1308557582196657,-140.44035437538835,14.84673166768115,-27.560654449020664
7.88,3.19,-3.37,4.304612635623841,2.4859390207886114,2.1308557582196657,-140.44035437538835,14.84673166768115,-27.560654449020664
6.63,2.82,-3.68,4.123405795041933,2.567158337435357,3.336802805517681,-150.0772121119661,13.39183842112712,-20.355205608113067
6.63,2.82,-3.68,4.123405795041933,2.567158337435357,3.336802805517681,-150.0772121119661,13.39183842112712,-20.355205608113067
4.6,2.38,-3.7,2.924173907282642,2.180958714936968,4.590614528139419,-156.58711361479934,12.400074265032766,-14.800508833176536
4.6,2.38,-3.7,2.924173907282642,2.180958714936968,4.590614528139419,-156.58711361479934,12.400074265032766,-14.800508833176536
1.77,0.79,-3.84,1.0670937214850944,0.4471037544719084,5.663703075128257,-163.94405112777469,10.580368342525214,-8.361141590530956
1.77,0.79,-3.84,1.0670937214850944,0.4471037544719084,5.663703075128257,-163.94405112777469,10.580368342525214,-8.361141590530956
1.43,-0.4,-4.65,1.1581229077414668,-0.6711336514439047,5.112426853145559,-168.4218955829601,8.95872400294449,-4.344060485976967
1.43,-0.4,-4.65,1.1581229077414668,-0.6711336514439047,5.112426853145559,-168.4218955829601,8.95872400294449,-4.344060485976967
-1.31,-2.05,-3.17,-0.9737451789267966,-2.299648326131904,6.687204872635912,-172.75138501198413,6.856665996646211,1.3751317128217122
-1.31,-2.05,-3.17,-0.9737451789267966,-2.299648326131904,6.687204872635912,-172.75138501198413,6.856665996646211,1.3751317128217122
-1.47,-3.18,-4.76,-0.7247174254810023,-3.2070394471459847,4.895379020136053,-172.57231796598282,4.89454770282183,5.582817194583068
-1.47,-3.18,-4.76,-0.7247174254810023,-3.2070394471459847,4.895379020136053,-172.57231796598282,4.89454770282183,5.582817194583068
-2.46,-3.54,-5.43,-1.4656190146709844,-3.442922511925516,3.970011799741964,-170.9747190636711,3.621696182670093,7.844187348567063
-2.46,-3.54,-5.43,-1.4656190146709844,-3.442922511925516,3.970011799741964,-170.9747190636711,3.621696182670093,7.844187348567063
-3.45,-3.13,-5.8,-2.2423033367420846,-2.85746430964404,3.3146261656979537,-169.00454610436458,2.2346770389286066,10.13162973120474
-3.45,-3.13,-5.8,-2.2423033367420846,-2.85746430964404,3.3146261656979537,-169.00454610436458,2.2346770389286066,10.13162973120474
-2.74,-3.16,-6.77,-1.2630564955878258,-2.676413800768967,2.419661611217545,-167.86710278173726,1.5126525087430307,11.2825706212041
-2.74,-3.16,-6.77,-1.2630564955878258,-2.676413800768967,2.419661611217545,-167.86710278173726,1.5126525087430307,11.2825706212041
-3.07,-2.99,-7.3,-1.4273956964357586,-2.369780013853588,1.806544737458964,-167.02852064224476,0.7104722177704716,11.996720388635614
-3.07,-2.99,-7.3,-1.4273956964357586,-2.369780013853588,1.806544737458964,-167.02852064224476,0.7104722177704716,11.996720388635614
-2.46,-2.24,-8.24,-0.7301520114221042,-1.5317074988627488,1.0838322111118313,-167.44083871780597,0.2406424508273681,11.581997645669874
-2.46,-2.24,-8.24,-0.7301520114221042,-1.5317074988627488,1.0838322111118313,-167.44083871780597,0.2406424508273681,11.581997645669874
-0.3,-1.27,-10.21,1.623591271682944,-0.4414543636460808,-0.3479582852728882,-168.30883818145554,-0.0458366248327759,10.787532942523711
-0.3,-1.27,-10.21,1.623591271682944,-0.4414543636460808,-0.3479582852728882,-168.30883818145554,-0.0458366248327759,10.787532942523711
-2.37,-2.02,-8.76,-0.613925347843152,-1.2617697138988986,0.616115039707255,-167.75915046700433,-0.206264917630254,11.2019689418816
-2.37,-2.02,-8.76,-0.613925347843152,-1.2617697138988986,0.616115039707255,-167.75915046700433,-0.206264917630254,11.2019689418816
-2.77,-1.05,-8.31,-1.0439668152061137,-0.3918850941577913,1.0551895869189118,-167.65213833847682,-0.43544897228424,11.581997645669874
-2.77,-1.05,-8.31,-1.0439668152061137,-0.3918850941577913,1.0551895869189118,-167.65213833847682,-0.43544897228424,11.581997645669874
-1.46,-0.84,-9.76,0.4786188488562849,-0.1187400174053332,-0.0853480188931534,-167.97602060615887,-0.4583674584234223,11.2825706212041
-1.46,-0.84,-9.76,0.4786188488562849,-0.1187400174053332,-0.0853480188931534,-167.97602060615887,-0.4583674584234223,11.2825706212041
-1.34,-0.9,-10.36,0.7360559200909806,-0.12456003994895,-0.6517392870244088,-167.86710278173726,-0.5500415954991054,11.4092417341199
-1.34,-0.9,-10.36,0.7360559200909806,-0.12456003994895,-0.6517392870244088,-167.86710278173726,-0.5500415954991054,11.4092417341199
-1.83,-0.99,-9.24,0.0989538335900318,-0.2494497627010706,0.3390957775671435,-167.33650576248203,-0.5500415954991054,11.800859775906506
-1.83,-0.99,-9.24,0.0989538335900318,-0.2494497627010706,0.3390957775671435,-167.33650576248203,-0.5500415954991054,11.800859775906506
-1.99,-1.1,-9.37,-0.0288922188671766,-0.2932190887038535,0.1692132139189315,-167.23302195249303,-0.4125305035633525,11.800859775906506
-1.99,-1.1,-9.37,-0.0288922188671766,-0.2932190887038535,0.1692132139189315,-167.23302195249303,-0.4125305035633525,11.800859775906506
-1.59,-1.05,-9.59,0.3816852485836655,-0.1976499632924871,0.0386435061946173,-167.33650576248203,-0.2979383891459227,11.639588800101585
-1.59,-1.05,-9.59,0.3816852485836655,-0.1976499632924871,0.0386435061946173,-167.33650576248203,-0.2979383891459227,11.639588800101585
-1.31,-1.46,-9.55,0.655184698308032,-0.5743102493818829,0.0962895150047131,-167.23302195249303,0.0,11.639588800101585
-1.31,-1.46,-9.55,0.655184698308032,-0.5743102493818829,0.0962895150047131,-167.23302195249303,0.0,11.639588800101585
-2.25,-0.88,-8.95,-0.3663209302546049,-0.0649047465130123,0.5437672764663901,-167.13036680379562,-0.0572957819004067,11.800859775906506
-2.25,-0.88,-8.95,-0.3663209302546049,-0.0649047465130123,0.5437672764663901,-167.13036680379562,-0.0572957819004067,11.800859775906506
-1.95,-1.37,-9.37,0.012407854618868,-0.5103696324645154,0.1518238035632251,-167.13036680379562,0.0,11.766299745968876
-1.95,-1.37,-9.37,0.012407854618868,-0.5103696324645154,0.1518238035632251,-167.13036680379562,0.0,11.766299745968876
-2.02,-1.21,-9.45,-0.0483565181404931,-0.3305322420078044,0.0734382955241041,-167.13036680379562,0.0458366248327759,11.720221376139571
-2.02,-1.21,-9.45,-0.0483565181404931,-0.3305322420078044,0.0734382955241041,-167.13036680379562,0.0458366248327759,11.720221376139571
-1.79,-1.05,-9.44,0.1520612119165378,-0.1824215778602259,0.1441555106995551,-167.33650576248203,0.0802140978691341,11.593515641253694
-1.79,-1.05,-9.44,0.1520612119165378,-0.1824215778602259,0.1441555106995551,-167.33650576248203,0.0802140978691341,11.593515641253694
-1.62,-0.95,-9.72,0.3583099974640744,-0.0537390360322068,-0.0864802458687759,-167.44083871780597,0.1375099038337879,11.501374957383891
-1.62,-0.95,-9.72,0.3583099974640744,-0.0537390360322068,-0.0864802458687759,-167.44083871780597,0.1375099038337879,11.501374957383891
-2.22,-0.84,-9.21,-0.3180358041199525,0.0014676913081286,0.3010226628286112,-167.33650576248203,0.011459155921715,11.593515641253694
-2.22,-0.84,-9.21,-0.3180358041199525,0.0014676913081286,0.3010226628286112,-167.33650576248203,0.011459155921715,11.593515641253694
-1.75,-0.94,-9.64,0.2235610486082416,-0.053952877677788,-0.0332082075421968,-167.33650576248203,-0.011459155921715,11.558962006616271
-1.75,-0.94,-9.64,0.2235610486082416,-0.053952877677788,-0.0332082075421968,-167.33650576248203,-0.011459155921715,11.558962006616271
-1.77,-1.05,-9.51,0.1842217741710477,-0.1565186632406004,0.079519680837075,-167.23302195249303,-0.0802140978691341,11.593515641253694
-1.77,-1.05,-9.51,0.1842217741710477,-0.1565186632406004,0.079519680837075,-167.23302195249303,-0.0802140978691341,11.593515641253694
-1.92,-1.06,-9.49,0.0349715744839948,-0.1428964119254159,0.067632718752522,-167.23302195249303,-0.1145915781247664,11.605033754368794
-1.92,-1.06,-9.49,0.0349715744839948,-0.1428964119254159,0.067632718752522,-167.23302195249303,-0.1145915781247664,11.605033754368794
-1.86,-1.49,-9.21,0.0330113116428012,-0.5632925977018151,0.3100499924879418,-167.13036680379562,-0.1489690686936551,11.558962006616271
-1.86,-1.49,-9.21,0.0330113116428012,-0.5632925977018151,0.3100499924879418,-167.13036680379562,-0.1489690686936551,11.558962006616271
-2.08,-1.16,-9.03,-0.2298673559512293,-0.2506802089131769,0.4740608398833306,-167.23302195249303,-0.1031324170464276,11.501374957383891
-2.08,-1.16,-9.03,-0.2298673559512293,-0.2506802089131769,0.4740608398833306,-167.23302195249303,-0.1031324170464276,11.501374957383891
-1.76,-1.11,-9.58,0.1734519753044565,-0.1354227304241858,0.0057482508573478,-167.23302195249303,-0.1031324170464276,11.38620958683243
-1.76,-1.11,-9.58,0.1734519753044565,-0.1354227304241858,0.0057482508573478,-167.23302195249303,-0.1031324170464276,11.38620958683243
-1.82,-1.37,-9.56,0.1012031477270276,-0.3758499578809793,-0.0132988151441537,-167.23302195249303,-0.1031324170464276,11.31711591010567
-1.82,-1.37,-9.56,0.1012031477270276,-0.3758499578809793,-0.0132988151441537,-167.23302195249303,-0.1031324170464276,11.31711591010567
-1.81,-1.04,-9.38,0.0518062064123097,-0.0621074610241647,0.1975106639167574,-167.33650576248203,-0.1031324170464276,11.19045487105573
-1.81,-1.04,-9.38,0.0518062064123097,-0.0621074610241647,0.1975106639167574,-167.33650576248203,-0.1031324170464276,11.19045487105573
-1.69,-1.06,-9.58,0.1943505904145293,-0.0530102541597479,0.023219223377751,-167.44083871780597,-0.1375099038337879,11.109859542072414
-1.69,-1.06,-9.58,0.1943505904145293,-0.0530102541597479,0.023219223377751,-167.44083871780597,-0.1375099038337879,11.109859542072414
-1.82,-1.45,-9.51,0.0541127353732779,-0.4186126635982316,0.0251963631551355,-167.33650576248203,-0.1718874029970642,11.09834637461124
-1.82,-1.45,-9.51,0.0541127353732779,-0.4186126635982316,0.0251963631551355,-167.33650576248203,-0.1718874029970642,11.09834637461124
-1.69,-1.18,-9.45,0.177734756115214,-0.1462178242690048,0.1372120274839812,-167.23302195249303,-0.1948057441759901,11.155913338134187
-1.69,-1.18,-9.45,0.177734756115214,-0.1462178242690048,0.1372120274839812,-167.23302195249303,-0.1948057441759901,11.155913338134187
-2.16,-1.42,-9.06,-0.3540697708777506,-0.4113076572577524,0.4007443759555098,-167.23302195249303,-0.2406424508273681,11.178940913568928
-2.16,-1.42,-9.06,-0.3540697708777506,-0.4113076572577524,0.4007443759555098,-167.23302195249303,-0.2406424508273681,11.178940913568928
-2.01,-1.25,-9.26,-0.2011408413481079,-0.2338833261187613,0.2538995609010364,-167.44083871780597,-0.1833465726697912,10.98322086133136
-2.01,-1.25,-9.26,-0.2011408413481079,-0.2338833261187613,0.2538995609010364,-167.44083871780597,-0.1833465726697912,10.98322086133136
-1.33,-1.1,-9.9,0.5568867981839272,-0.0197934052664258,-0.227211934226343,-167.54604215985927,-0.206264917630254,10.810553401892458
-1.33,-1.1,-9.9,0.5568867981839272,-0.0197934052664258,-0.227211934226343,-167.54604215985927,-0.206264917630254,10.810553401892458
-1.85,-1.49,-9.21,-0.0812809358796893,-0.4426991056427706,0.3059073494844302,-167.44083871780597,-0.2635608181333149,10.810553401892458
-1.85,-1.49,-9.21,-0.0812809358796893,-0.4426991056427706,0.3059073494844302,-167.44083871780597,-0.2635608181333149,10.810553401892458
-1.73,-1.4,-9.44,0.067520981454889,-0.3219083948181425,0.1134402167337267,-167.44083871780597,-0.2750200056824314,10.741493332748478
-1.73,-1.4,-9.44,0.067520981454889,-0.3219083948181425,0.1134402167337267,-167.44083871780597,-0.2750200056824314,10.741493332748478
-1.75,-1.57,-9.32,0.024558699362878,-0.4768985307367784,0.2065580909781506,-167.44083871780597,-0.2864791959817692,10.72998370230972
-1.75,-1.57,-9.32,0.024558699362878,-0.4768985307367784,0.2065580909781506,-167.44083871780597,-0.2864791959817692,10.72998370230972
-1.83,-0.96,-9.24,-0.0803385975270288,0.100901787470257,0.3392604686121299,-167.54604215985927,-0.3093975852894872,10.68394626499923
-1.83,-0.96,-9.24,-0.0803385975270288,0.100901787470257,0.3392604686121299,-167.54604215985927,-0.3093975852894872,10.68394626499923
-1.48,-1.32,-9.6,0.3112955087063133,-0.2070210483570161,0.0110878725977929,-167.54604215985927,-0.2750200056824314,10.557352206642197
-1.48,-1.32,-9.6,0.3112955087063133,-0.2070210483570161,0.0110878725977929,-167.54604215985927,-0.2750200056824314,10.557352206642197
-1.8,-1.27,-9.5,-0.027901007732749,-0.1696495403713318,0.0560940893239649,-167.65213833847682,-0.2750200056824314,10.52282880334764
-1.8,-1.27,-9.5,-0.027901007732749,-0.1696495403713318,0.0560940893239649,-167.65213833847682,-0.2750200056824314,10.52282880334764
-1.57,-1.3,-9.48,0.1863282037942545,-0.1966032802668679,0.1137696772755347,-167.54604215985927,-0.4927452222969898,10.48830635783265
-1.57,-1.3,-9.48,0.1863282037942545,-0.1966032802668679,0.1137696772755347,-167.54604215985927,-0.4927452222969898,10.48830635783265
-1.9,-1.4,-9.26,-0.1800347432094717,-0.3028266690626486,0.2571220797443629,-167.54604215985927,-0.5042044866238587,10.476799088278916
-1.9,-1.4,-9.26,-0.1800347432094717,-0.3028266690626486,0.2571220797443629,-167.54604215985927,-0.5042044866238587,10.476799088278916
-1.58,-1.05,-9.73,0.2076307931533223,0.0815968796253914,-0.1040528712886939,-167.75915046700433,-0.4698267083113723,10.407757691617306
-1.58,-1.05,-9.73,0.2076307931533223,0.0815968796253914,-0.1040528712886939,-167.75915046700433,-0.4698267083113723,10.407757691617306
-1.52,-1.12,-9.64,0.2492607505262358,0.0059228633806633,-0.0133415477528,-167.75915046700433,-0.4010712754482724,10.396251161173767
-1.52,-1.12,-9.64,0.2492607505262358,0.0059228633806633,-0.0133415477528,-167.75915046700433,-0.4010712754482724,10.396251161173767
-1.62,-1.19,-9.61,0.1491018073505489,-0.0705672464253901,-0.0099374373316063,-167.75915046700433,-0.4469082131192447,10.419264327291232
-1.62,-1.19,-9.61,0.1491018073505489,-0.0705672464253901,-0.0099374373316063,-167.75915046700433,-0.4469082131192447,10.419264327291232
-1.76,-1.3,-9.56,0.0076966134020765,-0.1718689359779177,0.0009576822190666,-167.65213833847682,-0.5271230305187238,10.4537848668845
-1.76,-1.3,-9.56,0.0076966134020765,-0.1718689359779177,0.0009576822190666,-167.65213833847682,-0.5271230305187238,10.4537848668845
-1.7,-1.59,-9.41,0.0306200675936822,-0.454870959888971,0.1237602029760616,-167.54604215985927,-0.5271230305187238,10.396251161173767
-1.7,-1.59,-9.41,0.0306200675936822,-0.454870959888971,0.1237602029760616,-167.54604215985927,-0.5271230305187238,10.396251161173767
-1.46,-1.3,-9.64,0.3075785351086577,-0.1329817733846795,-0.023859208209302,-167.54604215985927,-0.5500415954991054,10.396251161173767
-1.46,-1.3,-9.64,0.3075785351086577,-0.1329817733846795,-0.023859208209302,-167.54604215985927,-0.5500415954991054,10.396251161173767
-1.85,-1.28,-9.47,-0.1028775339844045,-0.125122426176351,0.0744580274036383,-167.54604215985927,-0.5500415954991054,10.419264327291232
-1.85,-1.28,-9.47,-0.1028775339844045,-0.125122426176351,0.0744580274036383,-167.54604215985927,-0.5500415954991054,10.419264327291232
-1.72,-1.35,-9.42,-0.0090907324579173,-0.1973453609770589,0.1382337818656012,-167.65213833847682,-0.5500415954991054,10.269686237501055
-1.72,-1.35,-9.42,-0.0090907324579173,-0.1973453609770589,0.1382337818656012,-167.65213833847682,-0.5500415954991054,10.269686237501055
-1.4,-1.33,-9.73,0.3612494772282198,-0.1456139522884546,-0.1054686126933148,-167.65213833847682,-0.5385823103159236,10.269686237501055
-1.4,-1.33,-9.73,0.3612494772282198,-0.1456139522884546,-0.1054686126933148,-167.65213833847682,-0.5385823103159236,10.269686237501055
-1.91,-1.32,-9.38,-0.1816255188027551,-0.1668919461308908,0.1467297493335255,-167.54604215985927,-0.5271230305187238,10.396251161173767
-1.91,-1.32,-9.38,-0.1816255188027551,-0.1668919461308908,0.1467297493335255,-167.54604215985927,-0.5271230305187238,10.396251161173767
-1.58,-1.33,-9.72,0.1922788975795147,-0.1390284293991678,-0.1275032060545751,-167.54604215985927,-0.5500415954991054,10.327214181692757
-1.58,-1.33,-9.72,0.1922788975795147,-0.1390284293991678,-0.1275032060545751,-167.54604215985927,-0.5500415954991054,10.327214181692757
-1.66,-1.36,-9.53,0.0795700035842782,-0.1799340721962261,0.0400030654480811,-167.54604215985927,-0.5500415954991054,10.327214181692757
-1.66,-1.36,-9.53,0.0795700035842782,-0.1799340721962261,0.0400030654480811,-167.54604215985927,-0.5500415954991054,10.327214181692757
-1.64,-1.1,-9.45,0.0864584034691487,0.0682005054238596,0.1531545897597563,-167.54604215985927,-0.5500415954991054,10.338720083250598
-1.64,-1.1,-9.45,0.0864584034691487,0.0682005054238596,0.1531545897597563,-167.54604215985927,-0.5500415954991054,10.338720083250598
-1.7,-1.51,-9.63,0.047743220697841,-0.3034023626038211,-0.0833786951678661,-167.54604215985927,-0.60733810621587,10.269686237501055
-1.7,-1.51,-9.63,0.047743220697841,-0.3034023626038211,-0.0833786951678661,-167.54604215985927,-0.60733810621587,10.269686237501055
-1.79,-1.43,-9.34,-0.0903582420693079,-0.2535378546270437,0.1935259529297006,-167.54604215985927,-0.5844194845105756,10.281191618255797
-1.79,-1.43,-9.34,-0.0903582420693079,-0.2535378546270437,0.1935259529297006,-167.54604215985927,-0.5844194845105756,10.281191618255797
-1.6,-1.43,-9.53,0.1227914177615987,-0.2345576220877795,0.0416254229881936,-167.54604215985927,-0.5844194845105756,10.235170717586842
-1.6,-1.43,-9.53,0.1227914177615987,-0.2345576220877795,0.0416254229881936,-167.54604215985927,-0.5844194845105756,10.235170717586842
-1.29,-1.32,-9.97,0.4952804420033528,-0.0823327745789023,-0.3203099879726547,-167.54604215985927,-0.6417160846123932,10.177646918437086
-1.29,-1.32,-9.97,0.4952804420033528,-0.0823327745789023,-0.3203099879726547,-167.54604215985927,-0.6417160846123932,10.177646918437086
-1.74,-1.39,-9.44,-0.0284575324807311,-0.2032958879532209,0.1096834149907266,-167.54604215985927,-0.6760941207657828,10.258180960550504
-1.74,-1.39,-9.44,-0.0284575324807311,-0.2032958879532209,0.1096834149907266,-167.54604215985927,-0.6760941207657828,10.258180960550504
-1.69,-1.38,-9.38,0.0004950773626732,-0.1997578766112552,0.1783066042942724,-167.54604215985927,-0.6760941207657828,10.200656128703407
-1.69,-1.38,-9.38,0.0004950773626732,-0.1997578766112552,0.1783066042942724,-167.54604215985927,-0.6760941207657828,10.200656128703407
