acc_x,acc_y,acc_z,lin_x,lin_y,lin_z,eul_x,eul_y,eul_z
4.68,3.78,-7.91,-0.1575961506604488,-0.2066858813764673,-0.1277017352536233,-141.1232586742633,3.174592245464794,-28.966859495010613
4.68,3.78,-7.91,-0.1575961506604488,-0.2066858813764673,-0.1277017352536233,-141.1232586742633,3.174592245464794,-28.966859495010613
5.06,4.55,-7.8,0.1050009696430758,0.4738046550088351,-0.5331074413167922,-140.98575914579104,3.094348134689141,-28.95502437185985
5.06,4.55,-7.8,0.1050009696430758,0.4738046550088351,-0.5331074413167922,-140.98575914579104,3.094348134689141,-28.95502437185985
4.94,3.9,-8.59,-0.2498794673162768,-0.4751821315359552,-0.8288312864149532,-140.9514569794307,2.589989743099661,-29.0023667595726
4.94,3.9,-8.59,-0.2498794673162768,-0.4751821315359552,-0.8288312864149532,-140.9514569794307,2.589989743099661,-29.0023667595726
4.55,5.19,-10.75,-1.7159170492803215,-0.5575140881970944,-2.8403222353396083,-140.1031128223946,1.1230152546764245,-28.93135507220408
4.55,5.19,-10.75,-1.7159170492803215,-0.5575140881970944,-2.8403222353396083,-140.1031128223946,1.1230152546764245,-28.93135507220408
4.86,8.66,-10.14,-1.3367993494786103,1.9997157187045007,-4.180805256178648,-138.585728177911,-0.4812859628976946,-28.0210345439132
4.86,8.66,-10.14,-1.3367993494786103,1.9997157187045007,-4.180805256178648,-138.585728177911,-0.4812859628976946,-28.0210345439132
1.77,11.59,-7.03,-2.039207803568992,3.8620920033274873,-3.147414107132448,-131.20453254720215,-5.353372863141336,-24.20954412674289
1.77,11.59,-7.03,-2.039207803568992,3.8620920033274873,-3.147414107132448,-131.20453254720215,-5.353372863141336,-24.20954412674289
-3.08,16.25,-0.29,-2.836796427110824,10.481463433793593,-2.6723127099843182,-121.01031078825766,-11.639588800101585,-22.57123707542117
-3.08,16.25,-0.29,-2.836796427110824,10.481463433793593,-2.6723127099843182,-121.01031078825766,-11.639588800101585,-22.57123707542117
-3.26,14.04,2.73,0.5451757899254561,9.027400720895637,-1.7437144783379956,-106.47054675108936,-24.39709288880459,-23.89320452199912
-3.26,14.04,2.73,0.5451757899254561,9.027400720895637,-1.7437144783379956,-106.47054675108936,-24.39709288880459,-23.89320452199912
-1.75,15.07,4.97,5.507925083425104,6.326372008781807,-3.776725076978424,-89.4331017243669,-40.22932427895751,-30.306298828005648
-1.75,15.07,4.97,5.507925083425104,6.326372008781807,-3.776725076978424,-89.4331017243669,-40.22932427895751,-30.306298828005648
-0.06,13.43,4.51,6.724461052340119,1.50874334045643,-2.5713109422630342,-76.82225926226535,-53.06431134668802,-36.40785062374676
-0.06,13.43,4.51,6.724461052340119,1.50874334045643,-2.5713109422630342,-76.82225926226535,-53.06431134668802,-36.40785062374676
3.98,14.18,1.16,4.042790482404366,-6.773729040205949,-2.6845805240617224,-60.675981620918215,-69.80756273226297,-43.579286875788114
3.98,14.18,1.16,4.042790482404366,-6.773729040205949,-2.6845805240617224,-60.675981620918215,-69.80756273226297,-43.579286875788114
3.12,11.17,0.11,1.4905797933833482,-6.7973107780358335,0.5281728584451901,-50.17476615256415,-80.46637592020761,-45.08889233071614
3.12,11.17,0.11,1.4905797933833482,-6.7973107780358335,0.5281728584451901,-50.17476615256415,-80.46637592020761,-45.08889233071614
2.94,10.92,-0.83,-1.3710498963357338,-7.764657869127947,1.6574653562980777,-34.831128724414064,-90.79574936750706,-46.39477504755206
2.94,10.92,-0.83,-1.3710498963357338,-7.764657869127947,1.6574653562980777,-34.831128724414064,-90.79574936750706,-46.39477504755206
4.02,10.91,-6.22,-9.088969756530814,-7.198031438868568,3.525259057706404,-19.38960938592485,-93.18754718833176,-46.19537604537457
4.02,10.91,-6.22,-9.088969756530814,-7.198031438868568,3.525259057706404,-19.38960938592485,-93.18754718833176,-46.19537604537457
-2.66,5.16,3.45,2.2570252487490485,-3.6062319996363823,4.562164535122831,-10.200656128703407,-90.3072214419173,-43.4682404912652
-2.66,5.16,3.45,2.2570252487490485,-3.6062319996363823,4.562164535122831,-10.200656128703407,-90.3072214419173,-43.4682404912652
-3.54,3.03,2.56,1.8272279061227847,-1.8184844400903568,5.156870164326552,-3.117274866889664,-88.34165611190303,-39.03563741685095
-3.54,3.03,2.56,1.8272279061227847,-1.8184844400903568,5.156870164326552,-3.117274866889664,-88.34165611190303,-39.03563741685095
-1.42,2.31,-4.36,-4.617656865307207,0.6025590959673249,7.644182055694637,-1.3292918974264516,-88.00663181338297,-36.83030903162442
-1.42,2.31,-4.36,-4.617656865307207,0.6025590959673249,7.644182055694637,-1.3292918974264516,-88.00663181338297,-36.83030903162442
-5.39,2.75,-1.23,-1.6806384559428258,0.4739376857640667,3.883953194454514,0.8021474641450599,-85.29718352487912,-35.997952375875286
-5.39,2.75,-1.23,-1.6806384559428258,0.4739376857640667,3.883953194454514,0.8021474641450599,-85.29718352487912,-35.997952375875286
-11.65,2.71,3.2,2.5173156088524875,1.1545917563531622,-2.2613506629759925,0.8136069048374162,-83.34930824823599,-35.04736729747761
-11.65,2.71,3.2,2.5173156088524875,1.1545917563531622,-2.2613506629759925,0.8136069048374162,-83.34930824823599,-35.04736729747761
-10.76,-1.76,3.1,4.287547824770554,4.409119592061142,0.2850010843337749,0.1260507403490224,-84.9704404154877,-32.663675023621174
-10.76,-1.76,3.1,4.287547824770554,4.409119592061142,0.2850010843337749,0.1260507403490224,-84.9704404154877,-32.663675023621174
-10.83,1.84,4.94,4.389386736578744,0.4735263665188412,-1.3999175769594174,2.2919839967771853,-83.87198638988208,-34.351055102879386
-10.83,1.84,4.94,4.389386736578744,0.4735263665188412,-1.3999175769594174,2.2919839967771853,-83.87198638988208,-34.351055102879386
-8.65,7.27,3.24,-0.2048137059315377,-3.869151763432552,-1.291129776936888,4.906017344265486,-81.91514696476024,-38.50113546048416
-8.65,7.27,3.24,-0.2048137059315377,-3.869151763432552,-1.291129776936888,4.906017344265486,-81.91514696476024,-38.50113546048416
-5.61,6.59,-1.23,-3.7752051161387854,-2.152573827778552,2.2219712166208145,6.099150260471113,-83.65650764793494,-40.58342649226998
-5.61,6.59,-1.23,-3.7752051161387854,-2.152573827778552,2.2219712166208145,6.099150260471113,-83.65650764793494,-40.58342649226998
-7.78,2.94,0.12,-0.107813447197274,0.6707734902324278,1.516605417164218,4.768384859798278,-85.93759911863056,-39.79030547860814
-7.78,2.94,0.12,-0.107813447197274,0.6707734902324278,1.516605417164218,4.768384859798278,-85.93759911863056,-39.79030547860814
-7.05,2.45,0.23,0.1083959159003148,0.7923173820321383,2.3824743897691985,4.298191253728037,-85.62478707023612,-40.19271594298347
-7.05,2.45,0.23,0.1083959159003148,0.7923173820321383,2.3824743897691985,4.298191253728037,-85.62478707023612,-40.19271594298347
-7.29,7.25,1.86,-1.0958702155980602,-3.4077854663944547,-0.0092690443684819,4.7225089042433,-84.08782976269961,-41.64818266123672
-7.29,7.25,1.86,-1.0958702155980602,-3.4077854663944547,-0.0092690443684819,4.7225089042433,-84.08782976269961,-41.64818266123672
-5.29,6.47,1.2,-1.3473264201427455,-3.221902780485072,2.119709516902196,2.9453273542124467,-84.56707943682893,-41.280605467484456
-5.29,6.47,1.2,-1.3473264201427455,-3.221902780485072,2.119709516902196,2.9453273542124467,-84.56707943682893,-41.280605467484456
-7.47,6.2,4.8,2.5948944704667443,-3.5457285229327145,-0.0915938810529688,0.011459155921715,-85.1414848365832,-41.26836056402613
-7.47,6.2,4.8,2.5948944704667443,-3.5457285229327145,-0.0915938810529688,0.011459155921715,-85.1414848365832,-41.26836056402613
-6.08,5.22,4.62,4.109122172068053,-2.182833602664233,1.8123049712876045,-10.741493332748478,-89.04671926027092,-40.79119166160576
-6.08,5.22,4.62,4.109122172068053,-2.182833602664233,1.8123049712876045,-10.741493332748478,-89.04671926027092,-40.79119166160576
-1.46,4.27,-0.19,-0.2491386033385317,-1.8919634171691,5.712873701223973,-21.893896745024183,-92.9709760334808,-40.84009791641019
-1.46,4.27,-0.19,-0.2491386033385317,-1.8919634171691,5.712873701223973,-21.893896745024183,-92.9709760334808,-40.84009791641019
-1.01,4.2,-1.85,-1.1435725573544115,-0.914201179433146,5.341330525473127,-36.02205079852741,-91.7133716571954,-44.65497713304196
-1.01,4.2,-1.85,-1.1435725573544115,-0.914201179433146,5.341330525473127,-36.02205079852741,-91.7133716571954,-44.65497713304196
0.25,8.3,-1.66,-0.3861753519479032,-1.7533349359853965,1.531096532116356,-52.39925252360182,-78.4400339000036,-52.83388194622903
0.25,8.3,-1.66,-0.3861753519479032,-1.7533349359853965,1.531096532116356,-52.39925252360182,-78.4400339000036,-52.83388194622903
0.67,8.89,0.22,2.1382557044932984,0.1905025673844687,1.150959888055036,-69.40285407677956,-64.32197736057384,-56.57550655085348
0.67,8.89,0.22,2.1382557044932984,0.1905025673844687,1.150959888055036,-69.40285407677956,-64.32197736057384,-56.57550655085348
3.56,5.03,-2.24,-0.5804009429033111,-0.5215434156815419,3.296409819251198,-87.5137931126768,-45.57320299258629,-63.57899519003461
3.56,5.03,-2.24,-0.5804009429033111,-0.5215434156815419,3.296409819251198,-87.5137931126768,-45.57320299258629,-63.57899519003461
5.71,11.72,3.71,4.844265693135561,3.776110199160221,-2.276424180774858,-87.97477410653165,-32.36526393220739,-71.9737624996918
5.71,11.72,3.71,4.844265693135561,3.776110199160221,-2.276424180774858,-87.97477410653165,-32.36526393220739,-71.9737624996918
6.41,14.97,2.48,0.7733127182571593,6.9010822002961705,-5.130433112326086,-82.44730326413901,-23.42489188862897,-81.77865358515048
6.41,14.97,2.48,0.7733127182571593,6.9010822002961705,-5.130433112326086,-82.44730326413901,-23.42489188862897,-81.77865358515048
7.76,11.91,0.78,-0.8434962420623693,4.42052832221384,-3.699701966468661,-80.0766693058582,-22.769918267605057,-86.97558325748739
7.76,11.91,0.78,-0.8434962420623693,4.42052832221384,-3.699701966468661,-80.0766693058582,-22.769918267605057,-86.97558325748739
10.59,8.3,0.53,-1.55542461364501,-0.5612872398439608,-3.5569053243010784,-74.1844858325427,-28.422768181257144,-91.91098977027544
10.59,8.3,0.53,-1.55542461364501,-0.5612872398439608,-3.5569053243010784,-74.1844858325427,-28.422768181257144,-91.91098977027544
11.66,8.39,-1.7,-4.665175400140432,-0.83182895403205,-3.860167445080573,-68.70739234130575,-34.14721243955784,-96.1294081383098
11.66,8.39,-1.7,-4.665175400140432,-0.83182895403205,-3.860167445080573,-68.70739234130575,-34.14721243955784,-96.1294081383098
9.04,11.61,2.52,0.4635187550596474,2.1520640954139147,-4.958778219084545,-68.05627918144376,-36.48023552286196,-96.09511993474894
9.04,11.61,2.52,0.4635187550596474,2.1520640954139147,-4.958778219084545,-68.05627918144376,-36.48023552286196,-96.09511993474894
5.96,8.49,2.49,1.9543008263559711,0.66318142844302,-0.6596147908923361,-68.37459501300991,-44.28358642561688,-91.2372369350846
5.96,8.49,2.49,1.9543008263559711,0.66318142844302,-0.6596147908923361,-68.37459501300991,-44.28358642561688,-91.2372369350846
7.66,13.03,2.64,2.635994428619997,2.346525258325676,-5.12557865430087,-67.33879642330523,-46.23275206665912,-91.72982641130142
7.66,13.03,2.64,2.635994428619997,2.346525258325676,-5.12557865430087,-67.33879642330523,-46.23275206665912,-91.72982641130142
5.0,2.55,-2.21,-2.8577545869079217,-0.8544444547995947,4.5635818720172106,-67.18740530675933,-54.15560663572669,-86.77043038357205
5.0,2.55,-2.21,-2.8577545869079217,-0.8544444547995947,4.5635818720172106,-67.18740530675933,-54.15560663572669,-86.77043038357205
4.1,5.72,-0.52,0.1140297871530611,0.5427560439330548,2.771650846878804,-66.30919770158441,-56.56249373757082,-85.89062667972252
4.1,5.72,-0.52,0.1140297871530611,0.5427560439330548,2.771650846878804,-66.30919770158441,-56.56249373757082,-85.89062667972252
6.46,9.19,0.22,0.8138982069903973,0.4725842358114321,-1.3893463312212777,-63.00019289675618,-57.95943792852192,-88.1022563085611
6.46,9.19,0.22,0.8138982069903973,0.4725842358114321,-1.3893463312212777,-63.00019289675618,-57.95943792852192,-88.1022563085611
5.5,6.44,-0.47,-0.4537437225798164,-0.0116988404679783,1.3367928718454092,-60.49018686629133,-60.46365910623083,-88.45354239097509
5.5,6.44,-0.47,-0.4537437225798164,-0.0116988404679783,1.3367928718454092,-60.49018686629133,-60.46365910623083,-88.45354239097509
6.3,7.8,-0.33,-0.395343081567574,0.1732015468677161,-0.2159547049666326,-58.24782388270019,-61.18117407576951,-89.93409723395683
6.3,7.8,-0.33,-0.395343081567574,0.1732015468677161,-0.2159547049666326,-58.24782388270019,-61.18117407576951,-89.93409723395683
6.92,7.68,-0.71,-1.2751007929108662,0.1789385066972859,-0.4751299518730736,-55.93880786648987,-61.75443240547686,-91.54895776302855
6.92,7.68,-0.71,-1.2751007929108662,0.1789385066972859,-0.4751299518730736,-55.93880786648987,-61.75443240547686,-91.54895776302855
5.88,7.98,0.59,0.2933915753908302,0.0293651782864925,-0.1188705943967427,-55.23930804894636,-61.96817529160685,-91.96044935664196
5.88,7.98,0.59,0.2933915753908302,0.0293651782864925,-0.1188705943967427,-55.23930804894636,-61.96817529160685,-91.96044935664196
5.89,8.35,0.89,0.5788902394514649,0.0066361540121739,-0.4340307416366507,-54.52914355096097,-62.182157850572864,-92.39002905922057
5.89,8.35,0.89,0.5788902394514649,0.0066361540121739,-0.4340307416366507,-54.52914355096097,-62.182157850572864,-92.39002905922057
6.32,7.63,0.36,-0.3604341645739517,-0.2222487238650758,-0.0983786580982801,-54.039808077971365,-62.6779190768701,-92.37347575931804
6.32,7.63,0.36,-0.3604341645739517,-0.2222487238650758,-0.0983786580982801,-54.039808077971365,-62.6779190768701,-92.37347575931804
6.01,8.05,0.07,-0.237264531096688,0.2859007502975732,-0.2327457140488658,-53.74414891259134,-63.1077408741901,-92.24113894853753
6.01,8.05,0.07,-0.237264531096688,0.2859007502975732,-0.2327457140488658,-53.74414891259134,-63.1077408741901,-92.24113894853753
4.75,8.3,0.78,1.0995456929792242,0.5176912860481062,0.2890928028300923,-53.75699560652143,-63.376882602273,-91.9439603741417
4.75,8.3,0.78,1.0995456929792242,0.5176912860481062,0.2890928028300923,-53.75699560652143,-63.376882602273,-91.9439603741417
5.86,7.78,0.5,0.0152103370775672,-0.161914060541072,0.0551602429092863,-53.21805950342704,-63.92984840946279,-91.92747384583168
5.86,7.78,0.5,0.0152103370775672,-0.161914060541072,0.0551602429092863,-53.21805950342704,-63.92984840946279,-91.92747384583168
6.16,8.15,0.36,-0.1603059888923425,-0.0651884502286188,-0.4142967494886225,-52.71875358132653,-64.17313980035841,-92.12547447908048
6.16,8.15,0.36,-0.1603059888923425,-0.0651884502286188,-0.4142967494886225,-52.71875358132653,-64.17313980035841,-92.12547447908048
5.26,8.29,0.35,0.3985209663666866,0.426463845512727,-0.000159350030044,-52.50144503161559,-64.49803318236535,-91.97694079477051
5.26,8.29,0.35,0.3985209663666866,0.426463845512727,-0.000159350030044,-52.50144503161559,-64.49803318236535,-91.97694079477051
5.54,8.22,0.51,0.2886250192826037,0.0799782894981824,-0.1145595568762747,-52.527000178757774,-64.6200179960006,-91.82860613360762
5.54,8.22,0.51,0.2886250192826037,0.0799782894981824,-0.1145595568762747,-52.527000178757774,-64.6200179960006,-91.82860613360762
5.76,8.06,0.19,-0.1349881144555474,0.0475112910922277,-0.1007624213224556,-52.68039020015169,-64.79636344196814,-91.48326004604112
5.76,8.06,0.19,-0.1349881144555474,0.0475112910922277,-0.1007624213224556,-52.68039020015169,-64.79636344196814,-91.48326004604112
5.24,7.93,-0.28,-0.1776079021143643,0.564749957166244,0.316106658389506,-52.79549944688719,-65.06800105005402,-91.13897874666814
5.24,7.93,-0.28,-0.1776079021143643,0.564749957166244,0.316106658389506,-52.79549944688719,-65.06800105005402,-91.13897874666814
4.88,8.19,0.66,0.8164082927045787,0.1666187095430569,0.2865756460239037,-52.93626652690735,-65.20397390849297,-90.89370830665364
4.88,8.19,0.66,0.8164082927045787,0.1666187095430569,0.2865756460239037,-52.93626652690735,-65.20397390849297,-90.89370830665364
5.45,8.22,0.4,0.3078665633855723,0.0557583090380759,-0.0590992969425485,-53.089928878816565,-65.02722926644273,-90.91004306520378
5.45,8.22,0.4,0.3078665633855723,0.0557583090380759,-0.0590992969425485,-53.089928878816565,-65.02722926644273,-90.91004306520378
5.91,8.21,-0.05,-0.2943803169646024,0.1052262344795531,-0.3045797802275825,-53.21805950342704,-64.90496933686148,-90.89370830665364
5.91,8.21,-0.05,-0.2943803169646024,0.1052262344795531,-0.3045797802275825,-53.21805950342704,-64.90496933686148,-90.89370830665364
5.22,8.04,0.36,0.3295485808772234,0.099293492327873,0.2201418486853015,-53.37191107016693,-64.9185496744115,-90.71418173754832
5.22,8.04,0.36,0.3295485808772234,0.099293492327873,0.2201418486853015,-53.37191107016693,-64.9185496744115,-90.71418173754832
5.5,8.28,0.18,0.1319983289259443,0.1477464138719133,-0.1332467518958022,-53.436046525616895,-64.94571342127749,-90.6163781125308
5.5,8.28,0.18,0.1319983289259443,0.1477464138719133,-0.1332467518958022,-53.436046525616895,-64.94571342127749,-90.6163781125308
5.38,8.22,0.14,0.1560942716840851,0.1927738271117203,-0.0153087063847952,-53.525866533741606,-65.02722926644273,-90.46983065734317
5.38,8.22,0.14,0.1560942716840851,0.1927738271117203,-0.0153087063847952,-53.525866533741606,-65.02722926644273,-90.46983065734317
5.4,8.19,-0.2,-0.1133038296176074,0.3874719248202121,0.0029197023189144,-53.59004542379221,-65.04081883324783,-90.37223725523552
5.4,8.19,-0.2,-0.1133038296176074,0.3874719248202121,0.0029197023189144,-53.59004542379221,-65.04081883324783,-90.37223725523552
5.46,8.18,-0.01,-0.0338105197145791,0.1993077572485524,-0.0261132569210786,-53.59004542379221,-65.02722926644273,-90.33972471015196
5.46,8.18,-0.01,-0.0338105197145791,0.1993077572485524,-0.0261132569210786,-53.59004542379221,-65.02722926644273,-90.33972471015196
5.51,8.22,0.29,0.1439616845004135,-0.026814691654744,-0.0923982373664227,-53.64140160793269,-64.90496933686148,-90.38849700989724
5.51,8.22,0.29,0.1439616845004135,-0.026814691654744,-0.0923982373664227,-53.64140160793269,-64.90496933686148,-90.38849700989724
5.02,8.21,0.42,0.4961285527685011,0.1523500769331329,0.1883577444493144,-53.71845771367622,-64.80993560444892,-90.37223725523552
5.02,8.21,0.42,0.4961285527685011,0.1523500769331329,0.1883577444493144,-53.71845771367622,-64.80993560444892,-90.37223725523552
5.32,8.25,0.2,0.1759571110594535,0.1324895185663148,-0.0094788511580627,-53.89835748467391,-64.68782282646684,-90.27472743998256
5.32,8.25,0.2,0.1759571110594535,0.1324895185663148,-0.0094788511580627,-53.89835748467391,-64.68782282646684,-90.27472743998256
5.47,8.3,0.08,0.013471493622356,0.148727356156848,-0.1329173292347167,-53.89835748467391,-64.64713688163303,-90.3072214419173
5.47,8.3,0.08,0.013471493622356,0.148727356156848,-0.1329173292347167,-53.89835748467391,-64.64713688163303,-90.3072214419173
5.2,8.3,0.36,0.3496716647288898,0.1196942061911379,0.0126210525295089,-53.89835748467391,-64.53868567478604,-90.38849700989724
5.2,8.3,0.36,0.3496716647288898,0.1196942061911379,0.0126210525295089,-53.89835748467391,-64.53868567478604,-90.38849700989724
5.37,8.29,0.19,0.1208808294756395,0.1329754096663959,-0.0708398312015159,-53.89835748467391,-64.5115830018242,-90.40475908773536
5.37,8.29,0.19,0.1208808294756395,0.1329754096663959,-0.0708398312015159,-53.89835748467391,-64.5115830018242,-90.40475908773536
5.4,8.21,0.13,0.0263516912620006,0.1166743775174756,-0.0201853338192528,-53.94978377937824,-64.47093657541295,-90.37223725523552
5.4,8.21,0.13,0.0263516912620006,0.1166743775174756,-0.0201853338192528,-53.94978377937824,-64.47093657541295,-90.37223725523552
5.23,8.33,0.43,0.3706663120329564,0.0544089291613323,-0.0313551917831098,-53.911212957858886,-64.47093657541295,-90.38849700989724
5.23,8.33,0.43,0.3706663120329564,0.0544089291613323,-0.0313551917831098,-53.911212957858886,-64.47093657541295,-90.38849700989724
5.47,8.21,0.05,-0.088755811186178,0.1179413553888544,-0.0577157800524457,-53.84694292088121,-64.53868567478604,-90.38849700989724
5.47,8.21,0.05,-0.088755811186178,0.1179413553888544,-0.0577157800524457,-53.84694292088121,-64.53868567478604,-90.38849700989724
5.26,8.2,0.06,0.0329395723133728,0.2251656527830641,0.0670701623795633,-53.84694292088121,-64.5657923959142,-90.37223725523552
5.26,8.2,0.06,0.0329395723133728,0.2251656527830641,0.0670701623795633,-53.84694292088121,-64.5657923959142,-90.37223725523552
