acc_x,acc_y,acc_z,lin_x,lin_y,lin_z,eul_x,eul_y,eul_z
9.91,4.63,-0.7,-4.282800805367682,-4.252347848746721,0.6573246131312479,-57.763041497816594,-57.35774212215939,-91.18809708858042
9.91,4.63,-0.7,-4.282800805367682,-4.252347848746721,0.6573246131312479,-57.763041497816594,-57.35774212215939,-91.18809708858042
1.92,9.35,5.16,5.8098353048898135,1.7493808890309823,0.8110966409703781,-64.59290316854059,-50.90973662321184,-89.15928146398718
1.92,9.35,5.16,5.8098353048898135,1.7493808890309823,0.8110966409703781,-64.59290316854059,-50.90973662321184,-89.15928146398718
14.84,6.51,-2.82,-5.413965517315514,-5.4292870608668045,-4.745666633032104,-70.69021928985396,-44.07334918943469,-88.50152621211956
14.84,6.51,-2.82,-5.413965517315514,-5.4292870608668045,-4.745666633032104,-70.69021928985396,-44.07334918943469,-88.50152621211956
7.96,5.77,2.14,1.9760226146558968,-1.808292375411225,0.1082216061107033,-78.91415680820512,-36.83030903162442,-83.9336186033691
7.96,5.77,2.14,1.9760226146558968,-1.808292375411225,0.1082216061107033,-78.91415680820512,-36.83030903162442,-83.9336186033691
5.7,7.28,0.18,0.8800395134546666,1.9329482536371736,0.8060921559816947,-89.98269667432403,-25.617803632217928,-76.32588599826201
5.7,7.28,0.18,0.8800395134546666,1.9329482536371736,0.8060921559816947,-89.98269667432403,-25.617803632217928,-76.32588599826201
9.35,9.31,-1.47,0.8398431219765048,2.138404671028792,-3.269335201635519,-100.81559788103888,-14.916070477056891,-67.14613988325526
9.35,9.31,-1.47,0.8398431219765048,2.138404671028792,-3.269335201635519,-100.81559788103888,-14.916070477056891,-67.14613988325526
6.16,7.86,0.33,2.081934852302724,3.882975069955521,0.8388101331830651,-109.27366158489086,-8.579461739762628,-58.24782388270019
6.16,7.86,0.33,2.081934852302724,3.882975069955521,0.8388101331830651,-109.27366158489086,-8.579461739762628,-58.24782388270019
5.81,6.34,-3.68,-0.3905463424386312,1.6049204563355617,0.5998153711363177,-116.90353178561008,-3.0599582684028324,-50.49129103156368
5.81,6.34,-3.68,-0.3905463424386312,1.6049204563355617,0.5998153711363177,-116.90353178561008,-3.0599582684028324,-50.49129103156368
7.2,5.57,-6.09,0.0302370297343039,-0.0901795013021051,-1.145242684809224,-123.5991628945627,0.2406424508273681,-43.44356934572808
7.2,5.57,-6.09,0.0302370297343039,-0.0901795013021051,-1.145242684809224,-123.5991628945627,0.2406424508273681,-43.44356934572808
4.25,4.64,-5.06,0.0027056026030153,0.7924732825093055,1.771248406039465,-132.86795984370113,4.057388916858228,-32.830884610981734
4.25,4.64,-5.06,0.0027056026030153,0.7924732825093055,1.771248406039465,-132.86795984370113,4.057388916858228,-32.830884610981734
4.49,3.98,-6.91,0.1522256042045163,-0.4871739720104094,0.6694683291334194,-136.8696299695147,5.789336220308418,-27.82029976108695
4.49,3.98,-6.91,0.1522256042045163,-0.4871739720104094,0.6694683291334194,-136.8696299695147,5.789336220308418,-27.82029976108695
5.39,2.44,-10.21,1.148914143720216,-2.9682132379503114,-1.5564264524584726,-141.64310130769366,8.522006076442151,-21.61384574972068
5.39,2.44,-10.21,1.148914143720216,-2.9682132379503114,-1.5564264524584726,-141.64310130769366,8.522006076442151,-21.61384574972068
1.28,5.13,-4.11,-0.8371700527252135,2.1662633624121,3.5254200768487145,-143.02758111671002,11.31711591010567,-14.24602144035678
1.28,5.13,-4.11,-0.8371700527252135,2.1662633624121,3.5254200768487145,-143.02758111671002,11.31711591010567,-14.24602144035678
1.94,4.96,-8.0,-0.5801493280634159,0.0520392774540034,0.2136359444098748,-143.72051272987528,12.019765115233204,-12.204140573704526
1.94,4.96,-8.0,-0.5801493280634159,0.0520392774540034,0.2136359444098748,-143.72051272987528,12.019765115233204,-12.204140573704526
2.37,5.71,-8.42,-0.1745086998559231,0.5251493272330827,-0.6246090274511573,-143.94200484154302,12.58451568698019,-10.568860221135685
2.37,5.71,-8.42,-0.1745086998559231,0.5251493272330827,-0.6246090274511573,-143.94200484154302,12.58451568698019,-10.568860221135685
1.25,5.25,-7.16,-0.8170057199339739,0.6803897609657072,0.9038318267040744,-144.23939029133862,13.022696190101502,-9.246109154854068
1.25,5.25,-7.16,-0.8170057199339739,0.6803897609657072,0.9038318267040744,-144.23939029133862,13.022696190101502,-9.246109154854068
1.19,3.71,-7.99,-0.5572898039931183,-0.9277173147070684,0.9834380758559343,-144.87941908090357,13.172643633299913,-9.188627520029687
1.19,3.71,-7.99,-0.5572898039931183,-0.9277173147070684,0.9834380758559343,-144.87941908090357,13.172643633299913,-9.188627520029687
3.04,4.98,-10.11,0.6517888463138185,-0.6821863931945762,-1.8279489627817007,-144.72781275910324,13.288003224878931,-9.384074619875276
3.04,4.98,-10.11,0.6517888463138185,-0.6821863931945762,-1.8279489627817007,-144.72781275910324,13.288003224878931,-9.384074619875276
2.23,4.66,-9.03,0.19106197817103,-0.5011192185389075,-0.5828531088742803,-144.690009668053,13.865006554805133,-8.510515201802361
2.23,4.66,-9.03,0.19106197817103,-0.5011192185389075,-0.5828531088742803,-144.690009668053,13.865006554805133,-8.510515201802361
0.37,3.23,-7.09,-1.034749990770966,-1.0037815813440645,2.141167954260548,-144.65224571956077,14.24602144035678,-8.257737442475136
0.37,3.23,-7.09,-1.034749990770966,-1.0037815813440645,2.141167954260548,-144.65224571956077,14.24602144035678,-8.257737442475136
2.68,4.89,-9.78,0.5710544047894941,-0.7400531184327486,-1.4124907090145946,-143.61025532246643,15.066323443247011,-7.970538771598189
2.68,4.89,-9.78,0.5710544047894941,-0.7400531184327486,-1.4124907090145946,-143.61025532246643,15.066323443247011,-7.970538771598189
1.69,5.29,-8.89,-0.1836023135905204,-0.1576733882931877,-0.6725546116615373,-143.3907030739344,15.632898017228824,-6.3975318623814825
1.69,5.29,-8.89,-0.1836023135905204,-0.1576733882931877,-0.6725546116615373,-143.3907030739344,15.632898017228824,-6.3975318623814825
0.82,4.2,-8.33,-0.3055127348871894,-0.8695988634581631,0.4872208444404169,-143.3178010626215,16.778799324271787,-3.782208130568333
0.82,4.2,-8.33,-0.3055127348871894,-0.8695988634581631,0.4872208444404169,-143.3178010626215,16.778799324271787,-3.782208130568333
1.29,6.78,-8.14,-0.2280702932971097,1.3664582062212929,-0.7750736739562356,-142.5249164652642,17.578451378167774,-1.1803139285143014
1.29,6.78,-8.14,-0.2280702932971097,1.3664582062212929,-0.7750736739562356,-142.5249164652642,17.578451378167774,-1.1803139285143014
0.61,5.3,-9.08,0.0587518510952381,-0.1824712387661619,-0.7229156352489685,-143.68372432172094,17.682816604505923,1.5355728478655368
0.61,5.3,-9.08,0.0587518510952381,-0.1824712387661619,-0.7229156352489685,-143.68372432172094,17.682816604505923,1.5355728478655368
-0.23,2.98,-8.12,0.3099646099321134,-1.6131615783261537,1.3113965215685344,-143.61025532246643,18.646004953165537,5.0665975409818325
-0.23,2.98,-8.12,0.3099646099321134,-1.6131615783261537,1.3113965215685344,-143.61025532246643,18.646004953165537,5.0665975409818325
-0.34,5.18,-8.44,-0.1452795449563351,-0.0264433968224322,-0.100912495416404,-143.06373822672285,18.94799690115028,6.454917855397503
-0.34,5.18,-8.44,-0.1452795449563351,-0.0264433968224322,-0.100912495416404,-143.06373822672285,18.94799690115028,6.454917855397503
-0.33,4.27,-8.97,0.2652288497391392,-0.9388185837454388,-0.0853150891054159,-143.24503868567004,19.13390399645449,6.799268354310192
-0.33,4.27,-8.97,0.2652288497391392,-0.9388185837454388,-0.0853150891054159,-143.24503868567004,19.13390399645449,6.799268354310192
-1.28,4.49,-7.13,-0.9549970408720454,-0.2723859774244688,1.3420657496526651,-142.38248796926192,19.83151281371854,7.602997386301144
-1.28,4.49,-7.13,-0.9549970408720454,-0.2723859774244688,1.3420657496526651,-142.38248796926192,19.83151281371854,7.602997386301144
-0.73,5.03,-7.6,-0.5648729046259359,0.0429119934268542,0.6812526298884052,-141.95828650840244,20.075850034388896,7.13219891205416
-0.73,5.03,-7.6,-0.5648729046259359,0.0429119934268542,0.6812526298884052,-141.95828650840244,20.075850034388896,7.13219891205416
-0.14,5.61,-8.89,-0.031080190611997,0.0155047770041605,-0.7063226349706433,-141.78287468010964,20.18059415638896,6.4319632645356775
-0.14,5.61,-8.89,-0.031080190611997,0.0155047770041605,-0.7063226349706433,-141.78287468010964,20.18059415638896,6.4319632645356775
-0.52,4.19,-8.28,-0.1648946584707342,-0.928429932301318,0.5602600226945427,-142.0286696964437,20.20387293870638,5.938500516393254
-0.52,4.19,-8.28,-0.1648946584707342,-0.928429932301318,0.5602600226945427,-142.0286696964437,20.20387293870638,5.938500516393254
-0.15,5.23,-8.44,-0.1485985686518547,-0.1073045539663626,-0.121864702516822,-141.78287468010964,20.25043303206116,5.628708719478254
-0.15,5.23,-8.44,-0.1485985686518547,-0.1073045539663626,-0.121864702516822,-141.78287468010964,20.25043303206116,5.628708719478254
0.36,5.26,-9.14,0.3432099151921622,-0.2606749133679984,-0.7361700944365168,-141.85294621850556,20.36684806544824,5.0551272004985615
0.36,5.26,-9.14,0.3432099151921622,-0.2606749133679984,-0.7361700944365168,-141.85294621850556,20.36684806544824,5.0551272004985615
-0.66,4.4,-7.81,-0.6021565318304363,-0.62957086542703,0.8605476064109663,-142.0286696964437,20.23879269230359,4.906017344265486
-0.66,4.4,-7.81,-0.6021565318304363,-0.62957086542703,0.8605476064109663,-142.0286696964437,20.23879269230359,4.906017344265486
-0.66,4.13,-7.78,-0.5813116569616865,-0.8262430181114364,1.0316685622701982,-142.16981440543415,20.14567756040377,4.516076369343336
-0.66,4.13,-7.78,-0.5813116569616865,-0.8262430181114364,1.0316685622701982,-142.16981440543415,20.14567756040377,4.516076369343336
0.83,5.54,-9.39,0.5766976707494422,-0.0528777944028089,-1.112014008724293,-141.85294621850556,20.331921330362565,4.11472114096103
0.83,5.54,-9.39,0.5766976707494422,-0.0528777944028089,-1.112014008724293,-141.85294621850556,20.331921330362565,4.11472114096103
0.24,5.41,-8.8,-0.0521311963419544,-0.0468927384882262,-0.5258609924666953,-142.1344807161217,20.11076285425295,3.954193464226632
0.24,5.41,-8.8,-0.0521311963419544,-0.0468927384882262,-0.5258609924666953,-142.1344807161217,20.11076285425295,3.954193464226632
-0.69,4.02,-7.51,-0.7094202600470987,-0.7783327703969734,1.3256405675585494,-142.48926046846375,19.912948378447748,3.8853982832056495
-0.69,4.02,-7.51,-0.7094202600470987,-0.7783327703969734,1.3256405675585494,-142.48926046846375,19.912948378447748,3.8853982832056495
0.01,4.27,-8.13,-0.123632404455117,-0.709380324090108,0.6517936611838362,-142.31146828862353,19.912948378447748,3.243374149708243
0.01,4.27,-8.13,-0.123632404455117,-0.709380324090108,0.6517936611838362,-142.31146828862353,19.912948378447748,3.243374149708243
0.84,5.89,-9.63,0.3091331702757057,0.0031675598117621,-1.508783118073744,-141.88802849828062,20.040939097265657,2.865087475133015
0.84,5.89,-9.63,0.3091331702757057,0.0031675598117621,-1.508783118073744,-141.88802849828062,20.040939097265657,2.865087475133015
-0.34,4.27,-7.68,-0.5846038464171393,-0.6291898836105807,1.0548925517433112,-142.31146828862353,19.796614956633128,2.750461504037132
-0.34,4.27,-7.68,-0.5846038464171393,-0.6291898836105807,1.0548925517433112,-142.31146828862353,19.796614956633128,2.750461504037132
0.1,4.35,-8.08,-0.1969381401339793,-0.6579231447901541,0.6552975040838921,-142.20517991761645,19.72682480222871,2.337829975144579
0.1,4.35,-8.08,-0.1969381401339793,-0.6579231447901541,0.6552975040838921,-142.20517991761645,19.72682480222871,2.337829975144579
1.29,6.03,-9.35,0.3961110125635034,0.146774323255777,-1.3857158519438482,-141.226690896529,19.703563060929827,1.1917736982377245
1.29,6.03,-9.35,0.3961110125635034,0.146774323255777,-1.3857158519438482,-141.226690896529,19.703563060929827,1.1917736982377245
0.01,4.57,-7.69,-0.6105237574666049,-0.556067290702198,0.8993973422059067,-141.29579335128196,19.412860145181693,0.6302567522155992
0.01,4.57,-7.69,-0.6105237574666049,-0.556067290702198,0.8993973422059067,-141.29579335128196,19.412860145181693,0.6302567522155992
0.13,4.12,-8.15,-0.3969746796211113,-1.0935712305373095,0.7479352419628071,-141.5733981273395,19.192010366536685,0.0458366248327759
0.13,4.12,-8.15,-0.3969746796211113,-1.0935712305373095,0.7479352419628071,-141.5733981273395,19.192010366536685,0.0458366248327759
1.37,5.88,-8.96,0.2474287501872238,0.1357452548807769,-0.9939635121741156,-141.1232586742633,19.23849904872923,-0.3093975852894872
1.37,5.88,-8.96,0.2474287501872238,0.1357452548807769,-0.9939635121741156,-141.1232586742633,19.23849904872923,-0.3093975852894872
0.75,5.21,-8.48,-0.2149261368698675,-0.3376996700623729,-0.1661512959514048,-141.05445058328866,19.273367657733324,-0.5844194845105756
0.75,5.21,-8.48,-0.2149261368698675,-0.3376996700623729,-0.1661512959514048,-141.05445058328866,19.273367657733324,-0.5844194845105756
0.35,4.4,-8.0,-0.4048173774030187,-0.8034918845774797,0.7141792861417073,-141.29579335128196,19.07580259196793,-0.7792286067117273
0.35,4.4,-8.0,-0.4048173774030187,-0.8034918845774797,0.7141792861417073,-141.29579335128196,19.07580259196793,-0.7792286067117273
1.42,5.63,-9.07,0.2869882764674261,-0.1382929062881559,-0.9579546281895864,-141.08884000838947,19.110662839696182,-0.9052827329224428
1.42,5.63,-9.07,0.2869882764674261,-0.1382929062881559,-0.9579546281895864,-141.08884000838947,19.110662839696182,-0.9052827329224428
0.89,5.44,-8.4,-0.192123175440527,-0.0845357106150275,-0.2383309556359752,-141.1232586742633,19.04094412601985,-0.8365258107465946
0.89,5.44,-8.4,-0.192123175440527,-0.0845357106150275,-0.2383309556359752,-141.1232586742633,19.04094412601985,-0.8365258107465946
0.24,4.29,-7.81,-0.5030590228041462,-0.8265987293575703,0.9454161039672472,-141.33038910827102,18.98285063278348,-0.8938232239278141
0.24,4.29,-7.81,-0.5030590228041462,-0.8265987293575703,0.9454161039672472,-141.33038910827102,18.98285063278348,-0.8938232239278141
1.36,5.46,-8.87,0.2521684603858927,-0.2229565500707675,-0.6921500002079846,-140.98575914579104,18.994468937034103,-1.0657168616283692
1.36,5.46,-8.87,0.2521684603858927,-0.2229565500707675,-0.6921500002079846,-140.98575914579104,18.994468937034103,-1.0657168616283692
0.8,5.3,-8.15,-0.2607279886487794,-0.1265553257243561,0.0563420733001454,-140.98575914579104,18.901528010085144,-0.9625804159917916
0.8,5.3,-8.15,-0.2607279886487794,-0.1265553257243561,0.0563420733001454,-140.98575914579104,18.901528010085144,-0.9625804159917916
0.07,4.02,-7.59,-0.5936917201278946,-0.9795571736311768,1.2942239130939142,-141.3650146581067,18.773754707559725,-0.9282017781870658
0.07,4.02,-7.59,-0.5936917201278946,-0.9795571736311768,1.2942239130939142,-141.3650146581067,18.773754707559725,-0.9282017781870658
1.62,5.69,-9.15,0.4166476956275168,-0.1207155197890248,-1.0807203189066892,-141.15770665873933,18.69245669557365,-1.3178319771025526
1.62,5.69,-9.15,0.4166476956275168,-0.1207155197890248,-1.0807203189066892,-141.15770665873933,18.69245669557365,-1.3178319771025526
1.27,5.51,-8.75,0.107964347889307,-0.1529863813952268,-0.609704394253896,-141.15770665873933,18.646004953165537,-1.3636717386286217
1.27,5.51,-8.75,0.107964347889307,-0.1529863813952268,-0.609704394253896,-141.15770665873933,18.646004953165537,-1.3636717386286217
0.32,4.33,-7.75,-0.4844419745083099,-0.7571318137576195,0.9688976053053704,-141.3650146581067,18.738911537329376,-1.2261530793833222
0.32,4.33,-7.75,-0.4844419745083099,-0.7571318137576195,0.9688976053053704,-141.3650146581067,18.738911537329376,-1.2261530793833222
1.03,4.96,-8.63,0.0243856307194704,-0.5563772613188895,-0.1848088366315039,-141.26122730722247,18.76214012304259,-1.4209717482803246
1.03,4.96,-8.63,0.0243856307194704,-0.5563772613188895,-0.1848088366315039,-141.26122730722247,18.76214012304259,-1.4209717482803246
1.18,5.61,-8.85,-0.0275676614589517,-0.166034148255258,-0.7365313360889711,-140.98575914579104,18.901528010085144,-1.4438918508267422
1.18,5.61,-8.85,-0.0275676614589517,-0.166034148255258,-0.7365313360889711,-140.98575914579104,18.901528010085144,-1.4438918508267422
0.35,4.48,-7.61,-0.5354786908972387,-0.5599656990088011,1.0029745750693095,-141.33038910827102,18.75052573300884,-1.3751317128217122
0.35,4.48,-7.61,-0.5354786908972387,-0.5599656990088011,1.0029745750693095,-141.33038910827102,18.75052573300884,-1.3751317128217122
