acc_x,acc_y,acc_z,lin_x,lin_y,lin_z,eul_x,eul_y,eul_z
6.74,2.65,6.39,-0.1189335319292941,-0.2074418318793129,0.1513394041999145,-43.17232602381402,18.08882279446736,-81.86963350668476
6.74,2.65,6.39,-0.1189335319292941,-0.2074418318793129,0.1513394041999145,-43.17232602381402,18.08882279446736,-81.86963350668476
6.48,2.63,6.63,-0.0509661753497741,0.1815277030277013,0.1718874112278339,-43.34490590574986,18.27450160119409,-81.70288473795871
6.48,2.63,6.63,-0.0509661753497741,0.1815277030277013,0.1718874112278339,-43.34490590574986,18.27450160119409,-81.70288473795871
6.79,2.61,6.86,0.0622181666120532,0.13049705112871,-0.1910947166543604,-43.41890031609472,18.344143604670897,-81.67258932855316
6.79,2.61,6.86,0.0622181666120532,0.13049705112871,-0.1910947166543604,-43.41890031609472,18.344143604670897,-81.67258932855316
7.39,2.92,6.25,-0.3675062985838857,-0.6760539033699997,-0.2734735230645544,-43.35723698802017,18.402183827223173,-81.76349634670957
7.39,2.92,6.25,-0.3675062985838857,-0.6760539033699997,-0.2734735230645544,-43.35723698802017,18.402183827223173,-81.76349634670957
6.69,2.74,6.38,-0.2287351018760095,-0.1054433430754868,0.1679435538750429,-43.35723698802017,18.390575402245243,-81.85446583795874
6.69,2.74,6.38,-0.2287351018760095,-0.1054433430754868,0.1679435538750429,-43.35723698802017,18.390575402245243,-81.85446583795874
6.58,2.64,6.19,-0.1895105177597129,-0.1586419834066839,0.3980890853457648,-43.44356934572808,18.37896716762953,-81.88480291681634
6.58,2.64,6.19,-0.1895105177597129,-0.1586419834066839,0.3980890853457648,-43.44356934572808,18.37896716762953,-81.88480291681634
6.91,2.34,6.4,0.1951668786770252,-0.2981276450833199,0.1083651105618415,-43.49291375439449,18.25128911402984,-82.00622099250181
6.91,2.34,6.4,0.1951668786770252,-0.2981276450833199,0.1083651105618415,-43.49291375439449,18.25128911402984,-82.00622099250181
6.85,2.19,6.62,0.4039531904828818,-0.1263486240422207,0.0412079800450744,-43.52992762326994,18.20486640453508,-82.00622099250181
6.85,2.19,6.62,0.4039531904828818,-0.1263486240422207,0.0412079800450744,-43.52992762326994,18.20486640453508,-82.00622099250181
6.88,2.19,6.38,0.3390267144640062,-0.3161262502725819,0.1827201851702824,-43.5175891368055,18.1816561801528,-82.0214061143213
6.88,2.19,6.38,0.3390267144640062,-0.3161262502725819,0.1827201851702824,-43.5175891368055,18.1816561801528,-82.0214061143213
6.93,2.25,6.04,0.175327331714464,-0.5858215759367724,0.3623356570780718,-43.41890031609472,18.1816561801528,-82.09735799224998
6.93,2.25,6.04,0.175327331714464,-0.5858215759367724,0.3623356570780718,-43.41890031609472,18.1816561801528,-82.09735799224998
6.44,2.6,6.68,-0.0448447317013799,0.2623960525863702,0.1741457948814915,-43.34490590574986,18.37896716762953,-82.03659298623278
6.44,2.6,6.68,-0.0448447317013799,0.2623960525863702,0.1741457948814915,-43.34490590574986,18.37896716762953,-82.03659298623278
6.45,3.18,6.72,-0.6364548219947875,0.3533626074493659,-0.0088153545930325,-43.0983947119019,18.599556301853195,-82.05178160910839
6.45,3.18,6.72,-0.6364548219947875,0.3533626074493659,-0.0088153545930325,-43.0983947119019,18.599556301853195,-82.05178160910839
6.8,3.21,6.55,-0.7057657323188427,-0.0264264064355139,-0.140600694344009,-42.95058853731749,18.576333132780547,-82.23418197710798
6.8,3.21,6.55,-0.7057657323188427,-0.0264264064355139,-0.140600694344009,-42.95058853731749,18.576333132780547,-82.23418197710798
6.97,2.79,6.58,-0.2750028867576518,-0.1928996348406813,-0.1707526250900244,-42.97521768410124,18.448619433327213,-82.38637607932448
6.97,2.79,6.58,-0.2750028867576518,-0.1928996348406813,-0.1707526250900244,-42.97521768410124,18.448619433327213,-82.38637607932448
7.09,2.56,6.42,-0.0786078392305845,-0.4296824305332425,-0.0851291026944434,-43.01216531236248,18.297714844671223,-82.50825884494826
7.09,2.56,6.42,-0.0786078392305845,-0.4296824305332425,-0.0851291026944434,-43.01216531236248,18.297714844671223,-82.50825884494826
7.21,2.32,6.15,0.1063659061428082,-0.7417554779323086,0.0789840361128835,-43.11071528826148,18.100426311736804,-82.61499961080214
7.21,2.32,6.15,0.1063659061428082,-0.7417554779323086,0.0789840361128835,-43.11071528826148,18.100426311736804,-82.61499961080214
6.96,1.9,6.27,0.5439790086703213,-0.529263852166096,0.2783517986989725,-43.25860308220909,18.03080801097451,-82.58449333969773
6.96,1.9,6.27,0.5439790086703213,-0.529263852166096,0.2783517986989725,-43.25860308220909,18.03080801097451,-82.58449333969773
6.75,1.84,6.43,0.6431103904120369,-0.2570743929483119,0.3296609326730628,-43.38190073527359,18.08882279446736,-82.46253949499255
6.75,1.84,6.43,0.6431103904120369,-0.2570743929483119,0.3296609326730628,-43.38190073527359,18.08882279446736,-82.46253949499255
6.47,2.35,6.75,0.2010499886916441,0.2431820722649382,0.170969360741763,-43.283258399546064,18.286108128329392,-82.35592311764404
6.47,2.35,6.75,0.2010499886916441,0.2431820722649382,0.170969360741763,-43.283258399546064,18.286108128329392,-82.35592311764404
6.53,2.71,6.41,-0.255678841625008,0.0097582066767492,0.266857910685486,-43.135358011103925,18.36735912324753,-82.34069929138175
6.53,2.71,6.41,-0.255678841625008,0.0097582066767492,0.266857910685486,-43.135358011103925,18.36735912324753,-82.34069929138175
6.49,2.91,6.55,-0.4306922093734066,0.1527415549043789,0.1483957975993188,-43.01216531236248,18.437010245615284,-82.35592311764404
6.49,2.91,6.55,-0.4306922093734066,0.1527415549043789,0.1483957975993188,-43.01216531236248,18.437010245615284,-82.35592311764404
6.6,2.93,6.39,-0.4993378563964385,-0.0478845100644589,0.1772487320672251,-42.90133648918904,18.4137924426918,-82.46253949499255
6.6,2.93,6.39,-0.4993378563964385,-0.0478845100644589,0.1772487320672251,-42.90133648918904,18.4137924426918,-82.46253949499255
6.89,2.91,6.53,-0.4057604621539694,-0.180128333216873,-0.1122215200331702,-42.90133648918904,18.286108128329392,-82.49301728450641
6.89,2.91,6.53,-0.4057604621539694,-0.180128333216873,-0.1122215200331702,-42.90133648918904,18.286108128329392,-82.49301728450641
7.23,2.57,6.44,-0.0663634445574041,-0.5437917449742886,-0.1959139928632449,-42.93827474491775,18.146842253651585,-82.58449333969773
7.23,2.57,6.44,-0.0663634445574041,-0.5437917449742886,-0.1959139928632449,-42.93827474491775,18.146842253651585,-82.58449333969773
7.28,2.32,6.36,0.1707020404856056,-0.6731538852871572,-0.1104122998999503,-43.01216531236248,18.019205613951,-82.63025542276526
7.28,2.32,6.36,0.1707020404856056,-0.6731538852871572,-0.1104122998999503,-43.01216531236248,18.019205613951,-82.63025542276526
6.97,2.19,6.3,0.2709929025193409,-0.4927684832396215,0.1759313316601414,-43.14768015800515,18.00760340318733,-82.5692428787645
6.97,2.19,6.3,0.2709929025193409,-0.4927684832396215,0.1759313316601414,-43.14768015800515,18.00760340318733,-82.5692428787645
6.68,2.3,6.58,0.2234026639831935,-0.0617792620791337,0.1549623458898583,-43.20929875568471,18.08882279446736,-82.50825884494826
6.68,2.3,6.58,0.2234026639831935,-0.0617792620791337,0.1549623458898583,-43.20929875568471,18.08882279446736,-82.50825884494826
6.58,2.42,6.59,0.0991268359269252,0.0405194046115113,0.1853490459580253,-43.20929875568471,18.146842253651585,-82.47777750148487
6.58,2.42,6.59,0.0991268359269252,0.0405194046115113,0.1853490459580253,-43.20929875568471,18.146842253651585,-82.47777750148487
6.53,2.53,6.56,-0.0260282542458114,0.0719046175701727,0.2113619763941958,-43.17232602381402,18.1816561801528,-82.47777750148487
6.53,2.53,6.56,-0.0260282542458114,0.0719046175701727,0.2113619763941958,-43.17232602381402,18.1816561801528,-82.47777750148487
6.75,2.55,6.37,-0.0851712785932288,-0.2192725011018015,0.1844586994924402,-43.135358011103925,18.15844670797989,-82.52350218370225
6.75,2.55,6.37,-0.0851712785932288,-0.2192725011018015,0.1844586994924402,-43.135358011103925,18.15844670797989,-82.52350218370225
6.81,2.51,6.55,0.00511176754793,-0.1505858494628225,0.0313751817775429,-43.11071528826148,18.146842253651585,-82.5692428787645
6.81,2.51,6.55,0.00511176754793,-0.1505858494628225,0.0313751817775429,-43.11071528826148,18.146842253651585,-82.5692428787645
6.91,2.53,6.49,-0.022948324403798,-0.2615600021067177,-0.0015180113925961,-43.11071528826148,18.13523798699121,-82.58449333969773
6.91,2.53,6.49,-0.022948324403798,-0.2615600021067177,-0.0015180113925961,-43.11071528826148,18.13523798699121,-82.58449333969773
6.78,2.64,6.42,-0.1612691528810387,-0.190230681573526,0.1065363641647412,-43.135358011103925,18.1816561801528,-82.58449333969773
6.78,2.64,6.42,-0.1612691528810387,-0.190230681573526,0.1065363641647412,-43.135358011103925,18.1816561801528,-82.58449333969773
6.87,2.45,6.45,0.0383942482270777,-0.2604435526748969,0.0735829069623097,-43.16000282883873,18.15844670797989,-82.61499961080214
6.87,2.45,6.45,0.0383942482270777,-0.2604435526748969,0.0735829069623097,-43.16000282883873,18.15844670797989,-82.61499961080214
6.78,2.46,6.61,0.0678557167648613,-0.0796862130682896,0.0239537607646624,-43.18464974314042,18.1816561801528,-82.59974558341173
6.78,2.46,6.61,0.0678557167648613,-0.0796862130682896,0.0239537607646624,-43.18464974314042,18.1816561801528,-82.59974558341173
6.78,2.61,6.48,-0.118392151546149,-0.1456885769196672,0.0734255529317291,-43.16000282883873,18.216471799125177,-82.59974558341173
6.78,2.61,6.48,-0.118392151546149,-0.1456885769196672,0.0734255529317291,-43.16000282883873,18.216471799125177,-82.59974558341173
6.75,2.48,6.45,0.0028525240169172,-0.1593475358977518,0.1479751309555883,-43.20929875568471,18.193261198253683,-82.58449333969773
6.75,2.48,6.45,0.0028525240169172,-0.1593475358977518,0.1479751309555883,-43.20929875568471,18.193261198253683,-82.58449333969773
6.81,2.4,6.45,0.0898469184052975,-0.2074163788299312,0.1274193499407605,-43.27093047786308,18.1816561801528,-82.59974558341173
6.81,2.4,6.45,0.0898469184052975,-0.2074163788299312,0.1274193499407605,-43.27093047786308,18.1816561801528,-82.59974558341173
6.75,2.37,6.48,0.122416686951982,-0.1379416195704714,0.1559616170738369,-43.307915821839245,18.228077382152183,-82.5692428787645
6.75,2.37,6.48,0.122416686951982,-0.1379416195704714,0.1559616170738369,-43.307915821839245,18.228077382152183,-82.5692428787645
6.77,2.45,6.48,0.0424479993091266,-0.1399435698253637,0.1213821170439892,-43.283258399546064,18.262895263137004,-82.55399419971695
6.77,2.45,6.48,0.0424479993091266,-0.1399435698253637,0.1213821170439892,-43.283258399546064,18.262895263137004,-82.55399419971695
6.78,2.43,6.52,0.0702366975015024,-0.1199209888415375,0.0925167003813793,-43.283258399546064,18.286108128329392,-82.5692428787645
6.78,2.43,6.52,0.0702366975015024,-0.1199209888415375,0.0925167003813793,-43.283258399546064,18.286108128329392,-82.5692428787645
6.76,2.52,6.45,-0.0408550463975174,-0.1411860813908372,0.1304473690292429,-43.25860308220909,18.30932175034793,-82.55399419971695
6.76,2.52,6.45,-0.0408550463975174,-0.1411860813908372,0.1304473690292429,-43.25860308220909,18.30932175034793,-82.55399419971695
6.72,2.47,6.44,-0.0027777097905395,-0.1249130945611065,0.1776682779727192,-43.24627621237414,18.332536130219392,-82.55399419971695
6.72,2.47,6.44,-0.0027777097905395,-0.1249130945611065,0.1776682779727192,-43.24627621237414,18.332536130219392,-82.55399419971695
6.8,2.63,6.54,-0.125773916094126,-0.0952431910141866,0.0136111633264821,-43.20929875568471,18.344143604670897,-82.55399419971695
6.8,2.63,6.54,-0.125773916094126,-0.0952431910141866,0.0136111633264821,-43.20929875568471,18.344143604670897,-82.55399419971695
6.83,2.61,6.52,-0.1066954602972204,-0.1330079225961025,0.0116346875424113,-43.22162404932176,18.332536130219392,-82.53874730166079
6.83,2.61,6.52,-0.1066954602972204,-0.1330079225961025,0.0116346875424113,-43.22162404932176,18.332536130219392,-82.53874730166079
6.9,2.52,6.37,-0.0559188400554696,-0.2931801772387279,0.0882026720056199,-43.24627621237414,18.344143604670897,-82.52350218370225
6.9,2.52,6.37,-0.0559188400554696,-0.2931801772387279,0.0882026720056199,-43.24627621237414,18.344143604670897,-82.52350218370225
6.85,2.51,6.47,-0.0195559388591687,-0.1873479777556799,0.0573926795429091,-43.27093047786308,18.35575126897081,-82.50825884494826
6.85,2.51,6.47,-0.0195559388591687,-0.1873479777556799,0.0573926795429091,-43.27093047786308,18.35575126897081,-82.50825884494826
6.77,2.51,6.57,0.0063151080760468,-0.0553053997696102,0.0447443749610894,-43.307915821839245,18.37896716762953,-82.46253949499255
6.77,2.51,6.57,0.0063151080760468,-0.0553053997696102,0.0447443749610894,-43.307915821839245,18.37896716762953,-82.46253949499255
6.82,2.49,6.48,0.0034986435665501,-0.1511693949624668,0.0762833278997181,-43.32024532286975,18.402183827223173,-82.44730326413901
6.82,2.49,6.48,0.0034986435665501,-0.1511693949624668,0.0762833278997181,-43.32024532286975,18.402183827223173,-82.44730326413901
6.62,2.46,6.48,0.0211004521804343,-0.0063323391695431,0.2219791828879973,-43.35723698802017,18.4137924426918,-82.40160521651524
6.62,2.46,6.48,0.0211004521804343,-0.0063323391695431,0.2219791828879973,-43.35723698802017,18.4137924426918,-82.40160521651524
6.76,2.4,6.53,0.103174448730192,-0.0842793398540158,0.1071267114046765,-43.34490590574986,18.402183827223173,-82.41683612578922
6.76,2.4,6.53,0.103174448730192,-0.0842793398540158,0.1071267114046765,-43.34490590574986,18.402183827223173,-82.41683612578922
6.78,2.46,6.53,0.0449461451348911,-0.0901758933640073,0.0777883938153589,-43.33257535076985,18.4137924426918,-82.41683612578922
6.78,2.46,6.53,0.0449461451348911,-0.0901758933640073,0.0777883938153589,-43.33257535076985,18.4137924426918,-82.41683612578922
6.84,2.46,6.39,0.0064770610360603,-0.2272468939406049,0.1310302835748711,-43.32024532286975,18.437010245615284,-82.41683612578922
6.84,2.46,6.39,0.0064770610360603,-0.2272468939406049,0.1310302835748711,-43.32024532286975,18.437010245615284,-82.41683612578922
6.81,2.55,6.58,-0.0320403421691838,-0.0624300348505664,1.571971696989749e-05,-43.307915821839245,18.460228812044047,-82.41683612578922
6.81,2.55,6.58,-0.0320403421691838,-0.0624300348505664,1.571971696989749e-05,-43.307915821839245,18.460228812044047,-82.41683612578922
6.87,2.58,6.49,-0.0817802403734851,-0.1610268404788559,0.0117134331339432,-43.307915821839245,18.471838381894354,-82.40160521651524
6.87,2.58,6.49,-0.0817802403734851,-0.1610268404788559,0.0117134331339432,-43.307915821839245,18.471838381894354,-82.40160521651524
6.81,2.64,6.48,-0.1451197736911941,-0.1130757722525561,0.0443626593705861,-43.32024532286975,18.49505809550988,-82.35592311764404
6.81,2.64,6.48,-0.1451197736911941,-0.1130757722525561,0.0443626593705861,-43.32024532286975,18.49505809550988,-82.35592311764404
6.75,2.63,6.58,-0.1102140196990332,0.0008417004192029,0.0207595366133279,-43.34490590574986,18.506668239532367,-82.34069929138175
6.75,2.63,6.58,-0.1102140196990332,0.0008417004192029,0.0207595366133279,-43.34490590574986,18.506668239532367,-82.34069929138175
6.83,2.39,6.39,0.0842618264195272,-0.2191444630304293,0.1558481862162555,-43.406566594214624,18.448619433327213,-82.34069929138175
6.83,2.39,6.39,0.0842618264195272,-0.2191444630304293,0.1558481862162555,-43.406566594214624,18.448619433327213,-82.34069929138175
6.66,2.45,6.63,0.0802004232069628,0.0799330630417114,0.0957191178677323,-43.41890031609472,18.48344814300676,-82.31025694358621
6.66,2.45,6.63,0.0802004232069628,0.0799330630417114,0.0957191178677323,-43.41890031609472,18.48344814300676,-82.31025694358621
6.91,2.6,6.36,-0.1242623072260094,-0.269544102697332,0.0665470818731055,-43.36956859779122,18.471838381894354,-82.34069929138175
6.91,2.6,6.36,-0.1242623072260094,-0.269544102697332,0.0665470818731055,-43.36956859779122,18.471838381894354,-82.34069929138175
6.7,2.44,6.51,0.0558038550074587,-0.0324476130814397,0.1516236881678256,-43.406566594214624,18.48344814300676,-82.34069929138175
6.7,2.44,6.51,0.0558038550074587,-0.0324476130814397,0.1516236881678256,-43.406566594214624,18.48344814300676,-82.34069929138175
6.93,2.59,6.4,-0.0998563223545879,-0.2515722276457923,0.0281153383462875,-43.406566594214624,18.48344814300676,-82.34069929138175
6.93,2.59,6.4,-0.0998563223545879,-0.2515722276457923,0.0281153383462875,-43.406566594214624,18.48344814300676,-82.34069929138175
6.94,2.66,6.38,-0.1641451533164143,-0.2583178529611947,0.016352340812908,-43.44356934572808,18.49505809550988,-82.26460667045434
6.94,2.66,6.38,-0.1641451533164143,-0.2583178529611947,0.016352340812908,-43.44356934572808,18.49505809550988,-82.26460667045434
6.78,2.54,6.54,-0.0032770159547349,-0.0451782696322582,0.0501368838749858,-43.5175891368055,18.48344814300676,-82.17335373167707
6.78,2.54,6.54,-0.0032770159547349,-0.0451782696322582,0.0501368838749858,-43.5175891368055,18.48344814300676,-82.17335373167707
6.8,2.57,6.61,-0.0060896384430475,-0.0051641776943469,-0.0186711778329335,-43.542266640188856,18.48344814300676,-82.14295016552349
6.8,2.57,6.61,-0.0060896384430475,-0.0051641776943469,-0.0186711778329335,-43.542266640188856,18.48344814300676,-82.14295016552349
6.95,2.62,6.32,-0.1166470950221709,-0.3084871744417175,0.0598285120261987,-43.55460618777381,18.437010245615284,-82.14295016552349
6.95,2.62,6.32,-0.1166470950221709,-0.3084871744417175,0.0598285120261987,-43.55460618777381,18.437010245615284,-82.14295016552349
6.53,2.3,6.63,0.247879312740939,0.1691942018675625,0.2255368512907374,-43.61631189309636,18.448619433327213,-82.09735799224998
6.53,2.3,6.63,0.247879312740939,0.1691942018675625,0.2255368512907374,-43.61631189309636,18.448619433327213,-82.09735799224998
6.94,2.72,6.43,-0.1906538525663133,-0.2093637611278567,-0.0334068049187639,-43.52992762326994,18.471838381894354,-82.17335373167707
6.94,2.72,6.43,-0.1906538525663133,-0.2093637611278567,-0.0334068049187639,-43.52992762326994,18.471838381894354,-82.17335373167707
6.99,2.96,6.56,-0.3804963139919426,-0.1202930422505432,-0.2181219245389645,-43.52992762326994,18.506668239532367,-82.14295016552349
6.99,2.96,6.56,-0.3804963139919426,-0.1202930422505432,-0.2181219245389645,-43.52992762326994,18.506668239532367,-82.14295016552349
6.81,2.55,6.41,-0.0132646008063597,-0.1442441101626213,0.114090085970643,-43.69037629572606,18.4137924426918,-82.0214061143213
6.81,2.55,6.41,-0.0132646008063597,-0.1442441101626213,0.114090085970643,-43.69037629572606,18.4137924426918,-82.0214061143213
6.62,2.45,6.57,0.1387131465776674,0.0921959562686636,0.1648628954942044,-43.81385964623059,18.344143604670897,-81.88480291681634
6.62,2.45,6.57,0.1387131465776674,0.0921959562686636,0.1648628954942044,-43.81385964623059,18.344143604670897,-81.88480291681634
6.79,2.31,6.26,0.2228362943364099,-0.2610886820730098,0.2929768562547412,-43.91268486070203,18.25128911402984,-81.8089732715648
6.79,2.31,6.26,0.2228362943364099,-0.2610886820730098,0.2929768562547412,-43.91268486070203,18.25128911402984,-81.8089732715648
6.48,2.26,6.32,0.2620039208986615,0.0020250246149851,0.4807854371453022,-43.949753171483536,18.286108128329392,-81.76349634670957
6.48,2.26,6.32,0.2620039208986615,0.0020250246149851,0.4807854371453022,-43.949753171483536,18.286108128329392,-81.76349634670957
6.58,2.42,6.44,0.139749572276028,0.0309965013173945,0.2879363645367068,-43.87562138331682,18.332536130219392,-81.79381255981484
6.58,2.42,6.44,0.139749572276028,0.0309965013173945,0.2879363645367068,-43.87562138331682,18.332536130219392,-81.79381255981484
6.8,2.43,6.38,0.1210792831630339,-0.1744717025242441,0.1731563745177577,-43.78915870024722,18.344143604670897,-81.83929990977303
6.8,2.43,6.38,0.1210792831630339,-0.1744717025242441,0.1731563745177577,-43.78915870024722,18.344143604670897,-81.83929990977303
6.82,2.86,6.61,-0.2585880546950804,0.0250260644340005,-0.1088230554859581,-43.62865462912293,18.48344814300676,-81.93032160430613
6.82,2.86,6.61,-0.2585880546950804,0.0250260644340005,-0.1088230554859581,-43.62865462912293,18.48344814300676,-81.93032160430613
7.26,3.18,6.4,-0.6052518177987498,-0.4096793998836414,-0.3543456710138546,-43.4682404912652,18.48344814300676,-82.00622099250181
7.26,3.18,6.4,-0.6052518177987498,-0.4096793998836414,-0.3543456710138546,-43.4682404912652,18.48344814300676,-82.00622099250181
6.77,2.84,6.63,-0.2395670822556781,0.0654918563788835,-0.0824206555190283,-43.59162801664085,18.471838381894354,-81.91514696476024
6.77,2.84,6.63,-0.2395670822556781,0.0654918563788835,-0.0824206555190283,-43.59162801664085,18.471838381894354,-81.91514696476024
6.78,2.41,6.32,0.1003575946037138,-0.2135289405088709,0.232558202614177,-43.66568603094216,18.37896716762953,-81.93032160430613
6.78,2.41,6.32,0.1003575946037138,-0.2135289405088709,0.232558202614177,-43.66568603094216,18.37896716762953,-81.93032160430613
6.57,2.32,6.6,0.2569448211711411,0.1282935783276657,0.2136932026077982,-43.764459893907535,18.37896716762953,-81.91514696476024
6.57,2.32,6.6,0.2569448211711411,0.1282935783276657,0.2136932026077982,-43.764459893907535,18.37896716762953,-81.91514696476024
6.63,2.36,6.55,0.2039136751449861,0.0570578572368327,0.1949819026291575,-43.73976322550855,18.402183827223173,-81.93032160430613
6.63,2.36,6.55,0.2039136751449861,0.0570578572368327,0.1949819026291575,-43.73976322550855,18.402183827223173,-81.93032160430613
6.61,2.38,6.52,0.1605526687416865,0.0505088196519192,0.2234056798494759,-43.66568603094216,18.437010245615284,-81.97585599565384
6.61,2.38,6.52,0.1605526687416865,0.0505088196519192,0.2234056798494759,-43.66568603094216,18.437010245615284,-81.97585599565384
7.01,2.57,6.19,-0.0984450897689011,-0.4497504523950085,0.1190737760484754,-43.542266640188856,18.437010245615284,-82.09735799224998
7.01,2.57,6.19,-0.0984450897689011,-0.4497504523950085,0.1190737760484754,-43.542266640188856,18.437010245615284,-82.09735799224998
6.75,2.67,6.7,-0.0829445307612718,0.0990443259592994,-0.0708350253651151,-43.480576858025245,18.51827857520288,-82.03659298623278
6.75,2.67,6.7,-0.0829445307612718,0.0990443259592994,-0.0708350253651151,-43.480576858025245,18.51827857520288,-82.03659298623278
6.87,2.8,6.51,-0.2599190312486532,-0.1024374577427305,-0.0594003072124049,-43.41890031609472,18.564721836939235,-82.0214061143213
6.87,2.8,6.51,-0.2599190312486532,-0.1024374577427305,-0.0594003072124049,-43.41890031609472,18.564721836939235,-82.0214061143213
6.95,2.88,6.37,-0.3605690300622145,-0.2429236562812063,-0.0414349951540824,-43.45590465390315,18.55311073338957,-81.97585599565384
6.95,2.88,6.37,-0.3605690300622145,-0.2429236562812063,-0.0414349951540824,-43.45590465390315,18.55311073338957,-81.97585599565384
6.89,2.75,6.41,-0.2173083281962712,-0.1788592644915763,0.0064721213080982,-43.55460618777381,18.541499822002773,-81.93032160430613
6.89,2.75,6.41,-0.2173083281962712,-0.1788592644915763,0.0064721213080982,-43.55460618777381,18.541499822002773,-81.93032160430613
6.68,2.64,6.59,-0.0685963674007948,0.0956569158241036,0.0595353349909491,-43.66568603094216,18.564721836939235,-81.86963350668476
6.68,2.64,6.59,-0.0685963674007948,0.0956569158241036,0.0595353349909491,-43.66568603094216,18.564721836939235,-81.86963350668476
6.75,2.52,6.49,0.0338283380258764,-0.0386256228739434,0.1097245230870189,-43.71506869334832,18.51827857520288,-81.86963350668476
6.75,2.52,6.49,0.0338283380258764,-0.0386256228739434,0.1097245230870189,-43.71506869334832,18.51827857520288,-81.86963350668476
6.68,2.39,6.42,0.1376465045889565,-0.0525559648410869,0.2395610325902151,-43.75211129257185,18.48344814300676,-81.88480291681634
6.68,2.39,6.42,0.1376465045889565,-0.0525559648410869,0.2395610325902151,-43.75211129257185,18.48344814300676,-81.88480291681634
6.8,2.4,6.45,0.1453534619571491,-0.1180306039381144,0.1336235269859269,-43.73976322550855,18.48344814300676,-81.89997406921938
6.8,2.4,6.45,0.1453534619571491,-0.1180306039381144,0.1336235269859269,-43.73976322550855,18.48344814300676,-81.89997406921938
6.88,2.46,6.32,0.0527649086340101,-0.257251328968866,0.1495573931042475,-43.71506869334832,18.49505809550988,-81.93032160430613
6.88,2.46,6.32,0.0527649086340101,-0.257251328968866,0.1495573931042475,-43.71506869334832,18.49505809550988,-81.93032160430613
6.69,2.57,6.48,-0.027991216585637,0.0087260384211251,0.144841662631288,-43.71506869334832,18.541499822002773,-81.91514696476024
6.69,2.57,6.48,-0.027991216585637,0.0087260384211251,0.144841662631288,-43.71506869334832,18.541499822002773,-81.91514696476024
6.84,2.66,6.51,-0.100898756825009,-0.0769926012779045,-0.0027939995455223,-43.62865462912293,18.541499822002773,-81.93032160430613
6.84,2.66,6.51,-0.100898756825009,-0.0769926012779045,-0.0027939995455223,-43.62865462912293,18.541499822002773,-81.93032160430613
6.77,2.65,6.56,-0.0838574050672137,0.0076935336037859,0.0147192023913813,-43.62865462912293,18.564721836939235,-81.89997406921938
6.77,2.65,6.56,-0.0838574050672137,0.0076935336037859,0.0147192023913813,-43.62865462912293,18.564721836939235,-81.89997406921938
6.71,2.63,6.46,-0.0997240162715049,-0.0234927606803625,0.1287316695544316,-43.60396968900631,18.564721836939235,-81.88480291681634
6.71,2.63,6.46,-0.0997240162715049,-0.0234927606803625,0.1287316695544316,-43.60396968900631,18.564721836939235,-81.88480291681634
6.87,2.61,6.51,-0.0527629209851669,-0.110060504395149,-0.0103863531740753,-43.59162801664085,18.55311073338957,-81.89997406921938
6.87,2.61,6.51,-0.0527629209851669,-0.110060504395149,-0.0103863531740753,-43.59162801664085,18.55311073338957,-81.89997406921938
6.87,2.57,6.43,-0.0353043847928473,-0.165431630009982,0.0537998536988357,-43.61631189309636,18.564721836939235,-81.88480291681634
6.87,2.57,6.43,-0.0353043847928473,-0.165431630009982,0.0537998536988357,-43.61631189309636,18.564721836939235,-81.88480291681634
6.72,2.58,6.48,-0.0441308425574428,-0.0199520582366123,0.1214626304078496,-43.62865462912293,18.576333132780547,-81.88480291681634
6.72,2.58,6.48,-0.0441308425574428,-0.0199520582366123,0.1214626304078496,-43.62865462912293,18.576333132780547,-81.88480291681634
6.81,2.51,6.42,0.0133273079160151,-0.1361031840176481,0.117795665964218,-43.62865462912293,18.564721836939235,-81.91514696476024
6.81,2.51,6.42,0.0133273079160151,-0.1361031840176481,0.117795665964218,-43.62865462912293,18.564721836939235,-81.91514696476024
6.74,2.51,6.55,0.0405596916672396,0.0045395608283373,0.0789301076614386,-43.61631189309636,18.576333132780547,-81.91514696476024
6.74,2.51,6.55,0.0405596916672396,0.0045395608283373,0.0789301076614386,-43.61631189309636,18.576333132780547,-81.91514696476024
6.76,2.61,6.51,-0.0735650481549824,-0.0217533856630796,0.0658125116778496,-43.59162801664085,18.611168175342147,-81.96067611888428
6.76,2.61,6.51,-0.0735650481549824,-0.0217533856630796,0.0658125116778496,-43.59162801664085,18.611168175342147,-81.96067611888428
6.86,2.62,6.43,-0.099198964418943,-0.1475790156503464,0.0476910391477769,-43.579286875788114,18.611168175342147,-81.97585599565384
6.86,2.62,6.43,-0.099198964418943,-0.1475790156503464,0.0476910391477769,-43.579286875788114,18.611168175342147,-81.97585599565384
6.97,2.63,6.54,-0.066961815973948,-0.1483132050691309,-0.1051066207208499,-43.59162801664085,18.611168175342147,-81.97585599565384
6.97,2.63,6.54,-0.066961815973948,-0.1483132050691309,-0.1051066207208499,-43.59162801664085,18.611168175342147,-81.97585599565384
7.41,2.73,6.41,-0.1490904925592668,-0.5303575081450296,-0.3494118813880096,-43.66568603094216,18.611168175342147,-81.91514696476024
7.41,2.73,6.41,-0.1490904925592668,-0.5303575081450296,-0.3494118813880096,-43.66568603094216,18.611168175342147,-81.91514696476024
7.95,2.94,6.34,-0.2969727606740515,-0.9295894528848077,-0.7332442418082632,-43.73976322550855,18.646004953165537,-81.67258932855316
7.95,2.94,6.34,-0.2969727606740515,-0.9295894528848077,-0.7332442418082632,-43.73976322550855,18.646004953165537,-81.67258932855316
9.05,4.26,7.17,-1.1600870419812734,-0.9757884162577124,-2.4065000859411545,-43.86326796394638,18.62278024163795,-81.20389126609984
9.05,4.26,7.17,-1.1600870419812734,-0.9757884162577124,-2.4065000859411545,-43.86326796394638,18.62278024163795,-81.20389126609984
10.05,4.93,6.05,-1.6779581408034885,-2.4983505192263946,-2.5567071961984684,-44.37020029186166,17.787196618044018,-79.86728811365495
10.05,4.93,6.05,-1.6779581408034885,-2.4983505192263946,-2.5567071961984684,-44.37020029186166,17.787196618044018,-79.86728811365495
9.49,5.1,6.4,-1.4379604472038297,-1.8170304176644068,-2.508412736890937,-45.43651590599992,17.346581127291525,-78.07073688001653
9.49,5.1,6.4,-1.4379604472038297,-1.8170304176644068,-2.508412736890937,-45.43651590599992,17.346581127291525,-78.07073688001653
9.93,7.29,7.42,-2.4763124748538248,-1.2984093981135358,-4.299639716356095,-46.84396830154976,16.651395613206027,-74.86119614779109
9.93,7.29,7.42,-2.4763124748538248,-1.2984093981135358,-4.299639716356095,-46.84396830154976,16.651395613206027,-74.86119614779109
9.36,7.32,6.97,-2.0046158465162547,-1.2711832301968955,-3.763114496967594,-48.64849167574625,15.170359975770204,-72.0729272521427
9.36,7.32,6.97,-2.0046158465162547,-1.2711832301968955,-3.763114496967594,-48.64849167574625,15.170359975770204,-72.0729272521427
8.01,8.95,6.88,-2.819608568170344,-0.3369563398197526,-3.740795070837368,-51.634227840640925,13.011162702254634,-68.2499653014806
8.01,8.95,6.88,-2.819608568170344,-0.3369563398197526,-3.740795070837368,-51.634227840640925,13.011162702254634,-68.2499653014806
8.0,11.0,8.01,-2.842344000276332,0.9251456459307316,-5.692552757493964,-56.09455949870071,10.407757691617306,-64.86423446267784
8.0,11.0,8.01,-2.842344000276332,0.9251456459307316,-5.692552757493964,-56.09455949870071,10.407757691617306,-64.86423446267784
7.87,11.78,7.58,-2.4376233591492262,1.230622381283303,-6.027024902359673,-60.35758382043169,7.959051879828772,-62.44997546195721
7.87,11.78,7.58,-2.4376233591492262,1.230622381283303,-6.027024902359673,-60.35758382043169,7.959051879828772,-62.44997546195721
5.28,11.21,7.3,-1.994490583697228,3.2403071560961214,-4.062557506043573,-65.38089307689471,5.330429626451235,-59.44503417297448
5.28,11.21,7.3,-1.994490583697228,3.2403071560961214,-4.062557506043573,-65.38089307689471,5.330429626451235,-59.44503417297448
5.55,11.92,5.85,-1.246836991630078,2.8969995318386594,-4.234866699731171,-72.51283902222842,1.6730962049034406,-55.32985731124961
5.55,11.92,5.85,-1.246836991630078,2.8969995318386594,-4.234866699731171,-72.51283902222842,1.6730962049034406,-55.32985731124961
4.14,9.31,5.0,0.7163309259639155,3.7756595281594367,-0.8726273693694537,-81.65744421958767,-1.5699534720315549,-50.3899583498149
4.14,9.31,5.0,0.7163309259639155,3.7756595281594367,-0.8726273693694537,-81.65744421958767,-1.5699534720315549,-50.3899583498149
3.28,5.82,1.05,0.4144372312482752,0.8892916420028159,3.1155587469367747,-89.09494687724344,-3.965659465674837,-46.84396830154976
3.28,5.82,1.05,0.4144372312482752,0.8892916420028159,3.1155587469367747,-89.09494687724344,-3.965659465674837,-46.84396830154976
3.53,5.9,-0.68,0.3906270450114458,0.2542544843978689,2.913460232637636,-99.01659326269068,-5.479564528582773,-41.47659109099214
3.53,5.9,-0.68,0.3906270450114458,0.2542544843978689,2.913460232637636,-99.01659326269068,-5.479564528582773,-41.47659109099214
0.8,3.57,0.31,-0.0318889092819873,1.6577597559397197,6.530704992975084,-106.77742482625295,-5.7663887448030415,-36.57677217345314
0.8,3.57,0.31,-0.0318889092819873,1.6577597559397197,6.530704992975084,-106.77742482625295,-5.7663887448030415,-36.57677217345314
-0.61,1.46,-1.01,-1.2751026439263085,0.301402937348371,8.462377141979758,-113.98515404910734,-7.017388604693049,-32.84283089936096
-0.61,1.46,-1.01,-1.2751026439263085,0.301402937348371,8.462377141979758,-113.98515404910734,-7.017388604693049,-32.84283089936096
1.38,0.99,-1.87,0.0255937088400106,-1.2083758043482895,7.588413565907944,-117.07896160834984,-7.499640647274437,-32.412994497933816
1.38,0.99,-1.87,0.0255937088400106,-1.2083758043482895,7.588413565907944,-117.07896160834984,-7.499640647274437,-32.412994497933816
4.36,2.48,-3.3,1.4518045501138048,-2.1385863623186725,4.38735927895786,-118.65562547806576,-6.810747745686069,-33.62013451285477
4.36,2.48,-3.3,1.4518045501138048,-2.1385863623186725,4.38735927895786,-118.65562547806576,-6.810747745686069,-33.62013451285477
4.25,3.19,-2.67,1.4847705504586146,-0.9724823443774662,4.130627228519522,-119.71975142044464,-4.906017344265486,-34.66303165808797
4.25,3.19,-2.67,1.4847705504586146,-0.9724823443774662,4.130627228519522,-119.71975142044464,-4.906017344265486,-34.66303165808797
4.67,2.62,-1.12,2.616056567406165,-0.274711074240652,5.0099342629752766,-119.74257704437856,-2.6473004867786654,-36.04615086901799
4.67,2.62,-1.12,2.616056567406165,-0.274711074240652,5.0099342629752766,-119.74257704437856,-2.6473004867786654,-36.04615086901799
8.17,4.64,-2.99,3.2785145672544056,-0.8645167819299375,0.5480025304144895,-117.71861115458816,0.5958787923837214,-39.77811923036006
8.17,4.64,-2.99,3.2785145672544056,-0.8645167819299375,0.5480025304144895,-117.71861115458816,0.5958787923837214,-39.77811923036006
8.12,4.0,-3.26,2.887588236871108,-1.1556235510687125,0.7023450631858275,-117.07896160834984,3.4267983429423063,-41.47659109099214
8.12,4.0,-3.26,2.887588236871108,-1.1556235510687125,0.7023450631858275,-117.07896160834984,3.4267983429423063,-41.47659109099214
7.33,3.08,-2.61,2.673071978723665,-0.733293723867448,1.9108051110030688,-116.6848576958755,7.809729533725751,-42.45844069063149
7.33,3.08,-2.61,2.673071978723665,-0.733293723867448,1.9108051110030688,-116.6848576958755,7.809729533725751,-42.45844069063149
8.44,5.33,-2.41,2.3533299000033034,1.2283594202588437,-0.113207434278566,-116.0328557464382,11.570479767497384,-42.82747400563139
8.44,5.33,-2.41,2.3533299000033034,1.2283594202588437,-0.113207434278566,-116.0328557464382,11.570479767497384,-42.82747400563139
8.78,4.21,-4.25,1.6810434237528256,-0.3510150844400361,-0.6779044215265984,-115.57996801372803,15.37847086963133,-43.75211129257185
8.78,4.21,-4.25,1.6810434237528256,-0.3510150844400361,-0.6779044215265984,-115.57996801372803,15.37847086963133,-43.75211129257185
8.31,3.07,-4.44,1.608786545455509,-0.8571247643242765,0.0664373231872712,-115.68754007027454,17.90319186690899,-44.14753269822064
8.31,3.07,-4.44,1.608786545455509,-0.8571247643242765,0.0664373231872712,-115.68754007027454,17.90319186690899,-44.14753269822064
8.32,3.77,-4.47,1.0320714143337095,0.0855799264986216,-0.3098565448451964,-115.88157571501448,20.63468349632429,-44.18463175478608
8.32,3.77,-4.47,1.0320714143337095,0.0855799264986216,-0.3098565448451964,-115.88157571501448,20.63468349632429,-44.18463175478608
8.22,4.34,-4.66,0.4508597012705818,0.5761782770744923,-0.5656373139340758,-115.94637091735842,21.95225731085252,-44.15989850900582
8.22,4.34,-4.66,0.4508597012705818,0.5761782770744923,-0.5656373139340758,-115.94637091735842,21.95225731085252,-44.15989850900582
7.99,2.62,-5.97,0.4470425451481175,-1.201257263320656,-0.4257756142005178,-116.40158899740273,23.41318918903326,-44.40732869091076
7.99,2.62,-5.97,0.4470425451481175,-1.201257263320656,-0.4257756142005178,-116.40158899740273,23.41318918903326,-44.40732869091076
7.32,2.96,-4.99,0.2474342165529526,-0.1532738790574213,0.4707310079308496,-116.55397754456402,24.53779799191312,-44.456840863061686
7.32,2.96,-4.99,0.2474342165529526,-0.1532738790574213,0.4707310079308496,-116.55397754456402,24.53779799191312,-44.456840863061686
7.7,4.11,-5.36,-0.472313877022806,0.5935576830671123,-0.4078646178584382,-116.3581094221592,25.230149327633608,-44.65497713304196
7.7,4.11,-5.36,-0.472313877022806,0.5935576830671123,-0.4078646178584382,-116.3581094221592,25.230149327633608,-44.65497713304196
8.02,3.26,-5.66,0.0001470159777191,-0.0577079620011404,-0.5364766921327035,-116.66302751124852,25.18318095723705,-45.02686284001362
8.02,3.26,-5.66,0.0001470159777191,-0.0577079620011404,-0.5364766921327035,-116.66302751124852,25.18318095723705,-45.02686284001362
6.56,2.49,-4.19,0.3395085646703579,0.2250476691795684,1.644304290517196,-117.3429325945059,24.995350383000986,-44.989651826175965
6.56,2.49,-4.19,0.3395085646703579,0.2250476691795684,1.644304290517196,-117.3429325945059,24.995350383000986,-44.989651826175965
7.44,3.2,-5.44,-0.2423499791509888,0.0243885668760033,0.053298182013977,-117.013124056645,24.737194611496925,-45.37440798509372
7.44,3.2,-5.44,-0.2423499791509888,0.0243885668760033,0.053298182013977,-117.013124056645,24.737194611496925,-45.37440798509372
8.12,2.86,-6.17,-0.0325696525981786,-0.6249770346931869,-0.7664877993401671,-116.90353178561008,24.70200146162693,-45.461363019955
8.12,2.86,-6.17,-0.0325696525981786,-0.6249770346931869,-0.7664877993401671,-116.90353178561008,24.70200146162693,-45.461363019955
7.46,2.37,-5.13,0.5004065511798832,-0.3065212334673615,0.4663588901378493,-117.63003319551184,24.9131959920262,-44.754098011748425
7.46,2.37,-5.13,0.5004065511798832,-0.3065212334673615,0.4663588901378493,-117.63003319551184,24.9131959920262,-44.754098011748425
7.49,2.97,-5.1,0.2251895602181577,0.2672748195685424,0.2772820339283069,-117.98502779819528,25.335843929176026,-44.30833052387342
7.49,2.97,-5.1,0.2251895602181577,0.2672748195685424,0.2772820339283069,-117.98502779819528,25.335843929176026,-44.30833052387342
7.69,2.89,-5.63,0.1964266039769704,0.1637955057528732,-0.1492370836076322,-118.83557102370403,26.32339770363258,-43.34490590574986
7.69,2.89,-5.63,0.1964266039769704,0.1637955057528732,-0.1492370836076322,-118.83557102370403,26.32339770363258,-43.34490590574986
8.63,2.81,-6.05,0.6717440772339015,0.1938020844379957,-1.0785096518732171,-119.28754177396172,26.994654003838164,-42.70441132531611
8.63,2.81,-6.05,0.6717440772339015,0.1938020844379957,-1.0785096518732171,-119.28754177396172,26.994654003838164,-42.70441132531611
8.04,2.16,-5.71,1.1378684149104965,-0.2645954704978998,-0.2206399981670532,-119.94836140851372,26.91216865613784,-41.182660023882
8.04,2.16,-5.71,1.1378684149104965,-0.2645954704978998,-0.2206399981670532,-119.94836140851372,26.91216865613784,-41.182660023882
10.75,3.39,-7.66,1.4317092753704974,-0.2701342735361896,-3.743532139922669,-119.99417813762396,26.21749449261709,-40.6200807923672
10.75,3.39,-7.66,1.4317092753704974,-0.2701342735361896,-3.743532139922669,-119.99417813762396,26.21749449261709,-40.6200807923672
9.91,5.11,-5.15,1.6853917841753054,1.8843929643431168,-2.212136032281657,-120.38490958888936,24.479166312304468,-38.45258771550744
9.91,5.11,-5.15,1.6853917841753054,1.8843929643431168,-2.212136032281657,-120.38490958888936,24.479166312304468,-38.45258771550744
10.34,7.0,-4.42,2.386800096314735,2.60198434274558,-2.9599025017656544,-120.26974778474064,20.518219394705007,-35.131494837214326
10.34,7.0,-4.42,2.386800096314735,2.60198434274558,-2.9599025017656544,-120.26974778474064,20.518219394705007,-35.131494837214326
9.31,8.94,-3.04,2.407011830803335,3.5983259378188834,-2.727289703524693,-119.69693362458544,15.586632804931574,-31.81677445459612
9.31,8.94,-3.04,2.407011830803335,3.5983259378188834,-2.727289703524693,-119.69693362458544,15.586632804931574,-31.81677445459612
7.51,9.98,-1.75,2.8653618006278663,3.6705365780358017,-1.914265620411392,-118.56583115924386,7.017388604693049,-27.11251495381608
7.51,9.98,-1.75,2.8653618006278663,3.6705365780358017,-1.914265620411392,-118.56583115924386,7.017388604693049,-27.11251495381608
7.26,11.04,-2.42,3.5760893799456053,2.877542793348635,-2.8178076999999337,-118.36422556879909,0.4698267083113723,-23.83464346005029
7.26,11.04,-2.42,3.5760893799456053,2.877542793348635,-2.8178076999999337,-118.36422556879909,0.4698267083113723,-23.83464346005029
4.37,9.78,-2.87,2.7667699503406857,1.4576291461696735,-0.8330164099081863,-117.4973779425748,-9.108157120464725,-19.284990927591146
4.37,9.78,-2.87,2.7667699503406857,1.4576291461696735,-0.8330164099081863,-117.4973779425748,-9.108157120464725,-19.284990927591146
2.05,11.11,-2.77,1.9450744867980536,2.456794781595538,-1.3955080350364728,-116.59757736800644,-15.806415466969176,-16.084119443363345
2.05,11.11,-2.77,1.9450744867980536,2.456794781595538,-1.3955080350364728,-116.59757736800644,-15.806415466969176,-16.084119443363345
2.04,10.33,-5.56,2.2195617600579256,-0.2520854959605758,-1.889250927077608,-116.55397754456402,-23.76437852052494,-12.792051445699697
2.04,10.33,-5.56,2.2195617600579256,-0.2520854959605758,-1.889250927077608,-116.55397754456402,-23.76437852052494,-12.792051445699697
1.03,9.78,-6.15,2.1878270509321527,-0.5352530510290903,-1.5713426598048752,-115.77371350268422,-31.518996754873605,-10.016593913069029
1.03,9.78,-6.15,2.1878270509321527,-0.5352530510290903,-1.5713426598048752,-115.77371350268422,-31.518996754873605,-10.016593913069029
-0.81,8.82,-5.0,1.6343767015351047,0.7702009757642898,-0.2025509298650316,-114.0904070409122,-37.664683622171815,-7.982025743589274
-0.81,8.82,-5.0,1.6343767015351047,0.7702009757642898,-0.2025509298650316,-114.0904070409122,-37.664683622171815,-7.982025743589274
0.14,9.41,-5.61,3.4754804514649,-0.0107673285776268,-0.5837647990405408,-111.78766891146807,-45.84678304356361,-6.443440527613203
0.14,9.41,-5.61,3.4754804514649,-0.0107673285776268,-0.5837647990405408,-111.78766891146807,-45.84678304356361,-6.443440527613203
0.09,4.75,-5.85,1.028669214422616,-1.7482069741004038,2.548639802776117,-109.61095464877064,-52.46311757943749,-4.89454770282183
0.09,4.75,-5.85,1.028669214422616,-1.7482069741004038,2.548639802776117,-109.61095464877064,-52.46311757943749,-4.89454770282183
0.08,2.88,-6.29,0.1024202033543301,-2.3230309403584,3.2906744512366046,-106.5280024809996,-60.782229218492176,-2.360753104216733
0.08,2.88,-6.29,0.1024202033543301,-2.3230309403584,3.2906744512366046,-106.5280024809996,-60.782229218492176,-2.360753104216733
0.75,2.22,-6.39,0.3023559638773439,-2.8201501858887887,3.619701333642791,-102.9800928228657,-68.4854543216403,-0.1145915781247664
0.75,2.22,-6.39,0.3023559638773439,-2.8201501858887887,3.619701333642791,-102.9800928228657,-68.4854543216403,-0.1145915781247664
0.91,-1.93,-8.2,-3.580195412868652,-4.154776148298591,3.3480870047816835,-99.88518184221611,-74.08395810619946,1.7877008349543104
0.91,-1.93,-8.2,-3.580195412868652,-4.154776148298591,3.3480870047816835,-99.88518184221611,-74.08395810619946,1.7877008349543104
0.37,-3.35,-8.81,-4.822663087585985,-3.449194238585828,2.4704057396074948,-95.71869958125956,-80.31635645484546,3.793673550039814
0.37,-3.35,-8.81,-4.822663087585985,-3.449194238585828,2.4704057396074948,-95.71869958125956,-80.31635645484546,3.793673550039814
0.67,-1.76,-9.01,-3.065696022214365,-3.3149495716435844,1.785476941348353,-92.78805970081837,-84.07240023072654,4.66516502390792
0.67,-1.76,-9.01,-3.065696022214365,-3.3149495716435844,1.785476941348353,-92.78805970081837,-84.07240023072654,4.66516502390792
-1.24,-2.25,-8.46,-3.2660796134446475,-1.06673957278301,1.6600868815739231,-89.25585014264172,-88.21391588431885,6.11062569758793
-1.24,-2.25,-8.46,-3.2660796134446475,-1.06673957278301,1.6600868815739231,-89.25585014264172,-88.21391588431885,6.11062569758793
-1.01,-1.58,-8.98,-2.2119747963308267,-1.2185295306587562,0.9873953102141472,-87.18108511627749,-90.81206995793598,7.499640647274437
-1.01,-1.58,-8.98,-2.2119747963308267,-1.2185295306587562,0.9873953102141472,-87.18108511627749,-90.81206995793598,7.499640647274437
-1.08,-2.32,-9.71,-2.6202767648314533,-1.1919565265114156,0.186551803277096,-86.4397606253599,-91.79566979807733,8.705871826379285
-1.08,-2.32,-9.71,-2.6202767648314533,-1.1919565265114156,0.186551803277096,-86.4397606253599,-91.79566979807733,8.705871826379285
-1.02,-1.84,-9.65,-1.8577785040851544,-1.0948047008034805,0.1682600049407767,-85.20374096421402,-93.2542715435576,9.315090195791669
-1.02,-1.84,-9.65,-1.8577785040851544,-1.0948047008034805,0.1682600049407767,-85.20374096421402,-93.2542715435576,9.315090195791669
-1.09,-1.58,-9.58,-1.410262614174782,-0.9815582114542551,0.1885107393847925,-84.79962950157953,-93.705742238603,9.878564278366849
-1.09,-1.58,-9.58,-1.410262614174782,-0.9815582114542551,0.1885107393847925,-84.79962950157953,-93.705742238603,9.878564278366849
-1.57,-1.92,-9.15,-1.5374068689798652,-0.3688545922151612,0.4592371809887794,-84.50513857353,-94.02458435289964,10.52282880334764
-1.57,-1.92,-9.15,-1.5374068689798652,-0.3688545922151612,0.4592371809887794,-84.50513857353,-94.02458435289964,10.52282880334764
-1.24,-1.57,-8.87,-1.1703643969934503,-0.6302474886165313,0.8115160220459909,-84.5361052012418,-94.00777948611471,10.637910557080565
-1.24,-1.57,-8.87,-1.1703643969934503,-0.6302474886165313,0.8115160220459909,-84.5361052012418,-94.00777948611471,10.637910557080565
-0.83,-0.21,-9.11,0.1998914236613396,-1.1608700566018073,0.7326473478937121,-85.12592565946625,-93.45469190215636,10.695455461898506
-0.83,-0.21,-9.11,0.1998914236613396,-1.1608700566018073,0.7326473478937121,-85.12592565946625,-93.45469190215636,10.695455461898506
-1.8,-0.55,-9.39,-0.0526651021218329,-0.2838723322576227,0.2342290478062878,-85.31276410779735,-93.2375866008448,10.833574298853826
-1.8,-0.55,-9.39,-0.0526651021218329,-0.2838723322576227,0.2342290478062878,-85.31276410779735,-93.2375866008448,10.833574298853826
-1.98,-0.22,-9.08,0.2282980021484512,-0.0782941218173582,0.5138059760908558,-85.2504534784823,-93.28764914604751,10.695455461898506
-1.98,-0.22,-9.08,0.2282980021484512,-0.0782941218173582,0.5138059760908558,-85.2504534784823,-93.28764914604751,10.695455461898506
-1.93,0.2,-9.34,0.6061674755575088,-0.226871698734774,0.2892138839081521,-85.46867747110112,-93.0375673318354,10.591876570929834
-1.93,0.2,-9.34,0.6061674755575088,-0.226871698734774,0.2892138839081521,-85.46867747110112,-93.0375673318354,10.591876570929834
-1.96,-0.8,-9.19,-0.4074049823192071,-0.1147933272333112,0.3854747191550363,-85.57793352438526,-92.92105929606365,10.591876570929834
-1.96,-0.8,-9.19,-0.4074049823192071,-0.1147933272333112,0.3854747191550363,-85.57793352438526,-92.92105929606365,10.591876570929834
-0.81,-1.51,-9.94,-1.1652621297030008,-1.3600447622606744,-0.1196908370722074,-85.96892404416114,-92.53912114130168,10.580368342525214
-0.81,-1.51,-9.94,-1.1652621297030008,-1.3600447622606744,-0.1196908370722074,-85.96892404416114,-92.53912114130168,10.580368342525214
-0.17,-4.07,-9.56,-3.8105628575897934,-1.890020474061785,0.3253614105737519,-86.54988402192322,-91.84507796689996,10.764512919793646
-0.17,-4.07,-9.56,-3.8105628575897934,-1.890020474061785,0.3253614105737519,-86.54988402192322,-91.84507796689996,10.764512919793646
0.47,-5.39,-9.43,-5.386258059679627,-2.657336380946689,0.7443827630976703,-87.46620685664602,-90.71418173754832,10.407757691617306
0.47,-5.39,-9.43,-5.386258059679627,-2.657336380946689,0.7443827630976703,-87.46620685664602,-90.71418173754832,10.407757691617306
0.62,-6.16,-8.78,-6.459928254000536,-2.8798200169634405,1.7199718424953812,-88.58154277869775,-89.28805755492941,9.579549083642284
0.62,-6.16,-8.78,-6.459928254000536,-2.8798200169634405,1.7199718424953812,-88.58154277869775,-89.28805755492941,9.579549083642284
-0.17,-4.61,-7.86,-5.297014938434508,-2.3731613106783427,2.7802470699438864,-91.6311343711985,-85.48427958340939,8.188805090876484
-0.17,-4.61,-7.86,-5.297014938434508,-2.3731613106783427,2.7802470699438864,-91.6311343711985,-85.48427958340939,8.188805090876484
-0.02,-3.7,-8.1,-4.819897374941224,-3.083939417306575,2.98328521674112,-95.9580810746786,-80.04673804640113,6.1221011960432445
-0.02,-3.7,-8.1,-4.819897374941224,-3.083939417306575,2.98328521674112,-95.9580810746786,-80.04673804640113,6.1221011960432445
0.29,-2.04,-8.0,-3.4815678147890226,-3.4894072664909315,3.1772893611762614,-99.52971641733647,-75.23686238255408,3.8853982832056495
0.29,-2.04,-8.0,-3.4815678147890226,-3.4894072664909315,3.1772893611762614,-99.52971641733647,-75.23686238255408,3.8853982832056495
1.8,2.0,-7.78,0.2101681759798235,-4.278511044643926,2.7768155368945373,-103.73780360335893,-68.2776528480455,0.2177240931471762
1.8,2.0,-7.78,0.2101681759798235,-4.278511044643926,2.7768155368945373,-103.73780360335893,-68.2776528480455,0.2177240931471762
0.92,5.12,-6.1,2.488771689975686,-2.198278235741652,2.5097747596357967,-105.5943297282315,-63.13463755141501,-2.3951379752687134
0.92,5.12,-6.1,2.488771689975686,-2.198278235741652,2.5097747596357967,-105.5943297282315,-63.13463755141501,-2.3951379752687134
-0.67,8.59,-3.31,4.299031563738941,1.1523829888980104,1.7206472136490856,-105.78405748823394,-56.48443354177373,-6.512305468988996
-0.67,8.59,-3.31,4.299031563738941,1.1523829888980104,1.7206472136490856,-105.78405748823394,-56.48443354177373,-6.512305468988996
0.36,11.9,-3.64,5.49939619094025,0.5519190947470314,-1.3486728033941495,-103.81206807438303,-50.94781312005565,-10.166142467644526
0.36,11.9,-3.64,5.49939619094025,0.5519190947470314,-1.3486728033941495,-103.81206807438303,-50.94781312005565,-10.166142467644526
-0.84,9.29,-3.74,2.3161789455588875,0.313381008187573,0.0324795781249509,-102.61275550473172,-46.407242416234105,-11.213483126166134
-0.84,9.29,-3.74,2.3161789455588875,0.313381008187573,0.0324795781249509,-102.61275550473172,-46.407242416234105,-11.213483126166134
-0.4,12.0,-1.55,3.751869394858789,1.4327373065227489,-1.614087272804232,-100.00990479193828,-39.46144077446525,-11.985198208002226
-0.4,12.0,-1.55,3.751869394858789,1.4327373065227489,-1.614087272804232,-100.00990479193828,-39.46144077446525,-11.985198208002226
-1.63,11.58,1.14,3.0536707368043725,4.001896888133404,-0.8099792356817677,-99.49424158104073,-34.06330962524581,-11.985198208002226
-1.63,11.58,1.14,3.0536707368043725,4.001896888133404,-0.8099792356817677,-99.49424158104073,-34.06330962524581,-11.985198208002226
-0.48,10.97,-0.77,1.867773630465936,1.746696166022411,-0.8996413358893225,-99.7072857164662,-28.47005431834872,-13.334150842815474
-0.48,10.97,-0.77,1.867773630465936,1.746696166022411,-0.8996413358893225,-99.7072857164662,-28.47005431834872,-13.334150842815474
0.66,11.67,-1.02,2.0398006692102246,1.0851497472558185,-1.6966783555638882,-99.299361288376,-24.11579445991055,-14.800508833176536
0.66,11.67,-1.02,2.0398006692102246,1.0851497472558185,-1.6966783555638882,-99.299361288376,-24.11579445991055,-14.800508833176536
-0.11,10.62,-0.28,0.9922365731569392,2.1289656869682885,-0.5547143737975677,-100.56420761524464,-20.518219394705007,-15.366907820940328
-0.11,10.62,-0.28,0.9922365731569392,2.1289656869682885,-0.5547143737975677,-100.56420761524464,-20.518219394705007,-15.366907820940328
1.15,9.91,-1.71,0.8248551009044311,0.7357096829670127,-0.2548133788977491,-103.21965750009808,-15.806415466969176,-16.79038251334145
1.15,9.91,-1.71,0.8248551009044311,0.7357096829670127,-0.2548133788977491,-103.21965750009808,-15.806415466969176,-16.79038251334145
2.48,10.21,-1.81,1.5328906548326289,0.5378874344554267,-0.7304996785507321,-104.33365022340344,-12.572987144073346,-17.93799404290059
2.48,10.21,-1.81,1.5328906548326289,0.5378874344554267,-0.7304996785507321,-104.33365022340344,-12.572987144073346,-17.93799404290059
3.65,9.93,-2.98,1.6233537856936349,-0.5265611629340032,-1.0513081795180863,-105.84105681640696,-8.533497036933403,-19.273367657733324
3.65,9.93,-2.98,1.6233537856936349,-0.5265611629340032,-1.0513081795180863,-105.84105681640696,-8.533497036933403,-19.273367657733324
3.1,11.12,-1.87,0.7239527177521227,1.6081839640463882,-1.754099837283194,-107.72420666963671,-3.8853982832056495,-20.157316215575328
3.1,11.12,-1.87,0.7239527177521227,1.6081839640463882,-1.754099837283194,-107.72420666963671,-3.8853982832056495,-20.157316215575328
3.46,10.81,-2.31,0.5514896662651165,1.4097626744293628,-1.676913399476167,-108.99693778149953,-1.0657168616283692,-20.72787028869477
3.46,10.81,-2.31,0.5514896662651165,1.4097626744293628,-1.676913399476167,-108.99693778149953,-1.0657168616283692,-20.72787028869477
4.17,9.73,-3.37,0.6363722975611218,0.5298222003861008,-1.2718435228069185,-111.25813232752796,2.1086036789736795,-21.76552371074204
4.17,9.73,-3.37,0.6363722975611218,0.5298222003861008,-1.2718435228069185,-111.25813232752796,2.1086036789736795,-21.76552371074204
4.65,10.22,-3.33,0.5946652192578052,1.2382544482705111,-1.8240378213776955,-113.00294363849156,4.63075925768904,-22.50113074326324
4.65,10.22,-3.33,0.5946652192578052,1.2382544482705111,-1.8240378213776955,-113.00294363849156,4.63075925768904,-22.50113074326324
5.23,8.56,-4.63,0.9393479632070584,-0.3513234257140443,-1.1959677455441646,-114.28023924222178,6.409008932036036,-23.21428107252436
5.23,8.56,-4.63,0.9393479632070584,-0.3513234257140443,-1.1959677455441646,-114.28023924222178,6.409008932036036,-23.21428107252436
4.62,8.63,-4.06,0.3201368297787928,0.5760690198466509,-0.7702378643290952,-115.38674111389928,8.1313637329408,-23.506817731301982
4.62,8.63,-4.06,0.3201368297787928,0.5760690198466509,-0.7702378643290952,-115.38674111389928,8.1313637329408,-23.506817731301982
4.89,7.23,-5.03,0.5887202349061484,-0.6815825935292374,-0.2270309622994322,-116.4886280777146,9.499056247386587,-23.869779338261072
4.89,7.23,-5.03,0.5887202349061484,-0.6815825935292374,-0.2270309622994322,-116.4886280777146,9.499056247386587,-23.869779338261072
4.09,7.14,-4.37,-0.1363695795687634,0.2361116791874278,0.4937420431521744,-117.76294265360838,11.697182904814724,-24.18610517042096
4.09,7.14,-4.37,-0.1363695795687634,0.2361116791874278,0.4937420431521744,-117.76294265360838,11.697182904814724,-24.18610517042096
5.11,7.6,-5.3,0.2230274654004225,-0.1360074082181932,-0.7713394467042676,-118.1186232350635,12.7228682118641,-24.467440757791284
5.11,7.6,-5.3,0.2230274654004225,-0.1360074082181932,-0.7713394467042676,-118.1186232350635,12.7228682118641,-24.467440757791284
4.83,7.19,-4.67,0.1432210273993265,0.4488095992080297,-0.0224881962494265,-119.10638959402516,13.991994191085649,-24.772390131710253
4.83,7.19,-4.67,0.1432210273993265,0.4488095992080297,-0.0224881962494265,-119.10638959402516,13.991994191085649,-24.772390131710253
5.34,6.5,-5.71,0.5088464156756145,-0.6328381807948484,-0.3279585845572921,-119.67412364784865,14.373061379793723,-25.10099664997855
5.34,6.5,-5.71,0.5088464156756145,-0.6328381807948484,-0.3279585845572921,-119.67412364784865,14.373061379793723,-25.10099664997855
5.17,6.66,-5.65,0.2414045615051448,-0.4932213445603124,-0.3277200614766737,-119.4919242535424,14.592535930080526,-25.42981308247912
5.17,6.66,-5.65,0.2414045615051448,-0.4932213445603124,-0.3277200614766737,-119.4919242535424,14.592535930080526,-25.42981308247912
4.29,6.34,-4.69,-0.1888571485775656,0.0714828422375553,0.8314049793503244,-119.31022017941788,14.904513628099544,-25.65305965168436
4.29,6.34,-4.69,-0.1888571485775656,0.0714828422375553,0.8314049793503244,-119.31022017941788,14.904513628099544,-25.65305965168436
5.32,7.75,-5.56,-0.2529276940747629,0.2957087843066199,-1.1078854411653258,-119.28754177396172,15.343782195666376,-26.205728877683853
5.32,7.75,-5.56,-0.2529276940747629,0.2957087843066199,-1.1078854411653258,-119.28754177396172,15.343782195666376,-26.205728877683853
5.38,7.01,-5.58,0.036139217104338,-0.0244598705380938,-0.6441392367859162,-119.71975142044464,15.690733139619653,-26.45286606002896
5.38,7.01,-5.58,0.036139217104338,-0.0244598705380938,-0.6441392367859162,-119.71975142044464,15.690733139619653,-26.45286606002896
5.04,5.92,-5.46,0.233781222897665,-0.5507896414218076,0.3250057802075847,-119.92546492630352,15.760140597334962,-26.499953978465857
5.04,5.92,-5.46,0.233781222897665,-0.5507896414218076,0.3250057802075847,-119.92546492630352,15.760140597334962,-26.499953978465857
5.27,6.26,-5.39,0.2216559599543919,-0.2094796221546717,0.0127954511863102,-120.06296278033024,16.049401279911372,-26.87682214392707
5.27,6.26,-5.39,0.2216559599543919,-0.2094796221546717,0.0127954511863102,-120.06296278033024,16.049401279911372,-26.87682214392707
4.71,7.18,-4.94,-0.6074666272570038,0.7750018305295767,-0.0508576190406682,-120.31578829659291,16.361918539628213,-27.20682475697043
4.71,7.18,-4.94,-0.6074666272570038,0.7750018305295767,-0.0508576190406682,-120.31578829659291,16.361918539628213,-27.20682475697043
5.56,6.05,-6.14,0.1241757580691562,-0.5397848343913814,-0.4358551971511861,-121.40719542947475,16.605072138436235,-27.86752361625034
5.56,6.05,-6.14,0.1241757580691562,-0.5397848343913814,-0.4358551971511861,-121.40719542947475,16.605072138436235,-27.86752361625034
5.46,5.51,-6.09,0.1843523331359514,-0.5750997700689955,-0.0368795738740939,-122.46980875996977,16.987323268750952,-28.30457443465699
5.46,5.51,-6.09,0.1843523331359514,-0.5750997700689955,-0.0368795738740939,-122.46980875996977,16.987323268750952,-28.30457443465699
5.25,5.3,-6.27,-0.071877223550678,-0.6558106339612677,0.0839885291311315,-123.18829850358512,17.31180678552449,-28.83669047331989
5.25,5.3,-6.27,-0.071877223550678,-0.6558106339612677,0.0839885291311315,-123.18829850358512,17.31180678552449,-28.83669047331989
5.52,5.53,-5.8,0.1297463758746136,0.0402917186754643,0.0766529570737475,-123.84213593724544,17.555261104447528,-29.13258444192844
5.52,5.53,-5.8,0.1297463758746136,0.0402917186754643,0.0766529570737475,-123.84213593724544,17.555261104447528,-29.13258444192844
5.54,5.13,-6.45,0.0240447129158418,-0.5356485703407388,-0.1091708162951778,-124.38010760157816,17.833592505981915,-29.49976914452507
5.54,5.13,-6.45,0.0240447129158418,-0.5356485703407388,-0.1091708162951778,-124.38010760157816,17.833592505981915,-29.49976914452507
4.67,5.44,-5.36,-0.574233171996865,0.5733069572833971,0.8918490825981511,-124.94770072590693,18.35575126897081,-29.97401461191905
4.67,5.44,-5.36,-0.574233171996865,0.5733069572833971,0.8918490825981511,-124.94770072590693,18.35575126897081,-29.97401461191905
6.09,5.23,-6.62,0.1110322304569238,-0.1499116796260411,-0.5967435969043962,-125.29584795913512,18.611168175342147,-30.57944178497209
6.09,5.23,-6.62,0.1110322304569238,-0.1499116796260411,-0.5967435969043962,-125.29584795913512,18.611168175342147,-30.57944178497209
6.44,4.6,-7.07,0.4269466632630227,-0.6936257016527991,-0.7742337028263044,-125.8974793863132,18.669230437467,-31.031112572318907
6.44,4.6,-7.07,0.4269466632630227,-0.6936257016527991,-0.7742337028263044,-125.8974793863132,18.669230437467,-31.031112572318907
5.88,4.5,-6.4,0.2133855324857361,-0.3232178652993154,0.0273659348919022,-125.97311846044452,18.738911537329376,-31.328533702747045
5.88,4.5,-6.4,0.2133855324857361,-0.3232178652993154,0.0273659348919022,-125.97311846044452,18.738911537329376,-31.328533702747045
5.87,4.62,-6.18,0.1938454515054049,-0.0838838298880468,0.1139162553841934,-125.8974793863132,18.76214012304259,-31.55471850803617
5.87,4.62,-6.18,0.1938454515054049,-0.0838838298880468,0.1139162553841934,-125.8974793863132,18.76214012304259,-31.55471850803617
6.31,4.4,-6.91,0.2936093292719616,-0.6476208803374122,-0.5092881908343879,-125.92268154117136,18.646004953165537,-32.01938920775377
6.31,4.4,-6.91,0.2936093292719616,-0.6476208803374122,-0.5092881908343879,-125.92268154117136,18.646004953165537,-32.01938920775377
5.55,5.08,-5.68,-0.1912616076036709,0.5710531189163017,0.3987481439625551,-125.77163105081792,18.437010245615284,-32.36526393220739
5.55,5.08,-5.68,-0.1912616076036709,0.5710531189163017,0.3987481439625551,-125.77163105081792,18.437010245615284,-32.36526393220739
5.6,4.58,-5.74,-0.0321067746474088,0.0849368113584252,0.5721627433572145,-125.47069041747116,17.439320584956548,-33.368833308546726
5.6,4.58,-5.74,-0.0321067746474088,0.0849368113584252,0.5721627433572145,-125.47069041747116,17.439320584956548,-33.368833308546726
6.97,4.95,-6.51,0.3527429617860737,-0.1142249921084119,-0.9323455328274656,-124.84860239500853,16.674558377811383,-34.843138613311
6.97,4.95,-6.51,0.3527429617860737,-0.1142249921084119,-0.9323455328274656,-124.84860239500853,16.674558377811383,-34.843138613311
7.81,4.57,-7.26,0.6398485615526631,-0.9808058694876512,-1.7353261594216445,-124.18392994389636,15.656031584502133,-36.23901092380315
7.81,4.57,-7.26,0.6398485615526631,-0.9808058694876512,-1.7353261594216445,-124.18392994389636,15.656031584502133,-36.23901092380315
5.95,4.21,-5.63,0.2623119078182949,-0.3520712557302894,0.6071533673626899,-124.38010760157816,15.170359975770204,-35.504295540348124
5.95,4.21,-5.63,0.2623119078182949,-0.3520712557302894,0.6071533673626899,-124.38010760157816,15.170359975770204,-35.504295540348124
5.74,4.94,-5.6,-0.1478314430505897,0.1762416759845821,0.3907971583243359,-124.45383854948406,15.089441590206311,-35.17957649356332
5.74,4.94,-5.6,-0.1478314430505897,0.1762416759845821,0.3907971583243359,-124.45383854948406,15.089441590206311,-35.17957649356332
6.52,5.45,-5.65,0.2796309196084819,0.5096619925638102,-0.3814534153631772,-124.55228684017096,14.742733694368155,-34.97527349807247
6.52,5.45,-5.65,0.2796309196084819,0.5096619925638102,-0.3814534153631772,-124.55228684017096,14.742733694368155,-34.97527349807247
7.32,5.29,-6.9,0.4086868011542791,-0.4156165138644408,-1.5439772078667744,-124.67557399344672,14.32686299177392,-35.16755548021839
7.32,5.29,-6.9,0.4086868011542791,-0.4156165138644408,-1.5439772078667744,-124.67557399344672,14.32686299177392,-35.16755548021839
6.51,5.24,-5.85,0.3081129463196937,0.1658340642268756,-0.3883372719612641,-124.72495975966048,13.714952301602876,-35.17957649356332
6.51,5.24,-5.85,0.3081129463196937,0.1658340642268756,-0.3883372719612641,-124.72495975966048,13.714952301602876,-35.17957649356332
6.61,5.74,-5.97,0.1398230764362765,0.3978122114061384,-0.7812107353776659,-124.6508963314865,13.091899903813276,-35.37196719600466
6.61,5.74,-5.97,0.1398230764362765,0.3978122114061384,-0.7812107353776659,-124.6508963314865,13.091899903813276,-35.37196719600466
6.59,6.73,-6.19,-0.3189387335192237,1.0093165602928291,-1.4146092058725692,-125.09665734949913,11.835420883076136,-35.67278424373711
6.59,6.73,-6.19,-0.3189387335192237,1.0093165602928291,-1.4146092058725692,-125.09665734949913,11.835420883076136,-35.67278424373711
7.87,5.48,-7.07,0.8561870078724009,-0.0756766345571233,-2.0766751598419457,-127.68873899317936,10.166142467644526,-35.745018073663594
7.87,5.48,-7.07,0.8561870078724009,-0.0756766345571233,-2.0766751598419457,-127.68873899317936,10.166142467644526,-35.745018073663594
7.95,8.01,-6.32,0.9955833104603906,2.8092201108893105,-2.779933978209016,-130.90026578643878,9.016196458354324,-33.668020251284275
7.95,8.01,-6.32,0.9955833104603906,2.8092201108893105,-2.779933978209016,-130.90026578643878,9.016196458354324,-33.668020251284275
5.03,4.58,-5.54,0.8805259051021374,1.100463499727233,1.147403253532259,-137.78296246704429,6.856665996646211,-28.801196435314267
5.03,4.58,-5.54,0.8805259051021374,1.100463499727233,1.147403253532259,-137.78296246704429,6.856665996646211,-28.801196435314267
6.54,5.65,-8.42,1.4488468231581924,1.1033503427731195,-2.121214892935651,-142.31146828862353,5.7319679651977244,-25.44156044788709
6.54,5.65,-8.42,1.4488468231581924,1.1033503427731195,-2.121214892935651,-142.31146828862353,5.7319679651977244,-25.44156044788709
5.73,5.34,-8.1,2.2356365008590475,1.6007120251827582,-1.120296071453911,-149.288410054367,4.240855681461491,-18.83183055191492
5.73,5.34,-8.1,2.2356365008590475,1.6007120251827582,-1.120296071453911,-149.288410054367,4.240855681461491,-18.83183055191492
6.15,6.28,-9.76,3.1893324014879205,2.057619517754848,-2.767643648272003,-153.4604028099656,2.738999060214957,-13.79574779269871
6.15,6.28,-9.76,3.1893324014879205,2.057619517754848,-2.767643648272003,-153.4604028099656,2.738999060214957,-13.79574779269871
6.24,6.93,-10.13,4.7480182840344565,2.837783961503465,-2.8021843855531814,-158.1040290229696,0.6187974261216272,-7.1207175606295605
6.24,6.93,-10.13,4.7480182840344565,2.837783961503465,-2.8021843855531814,-158.1040290229696,0.6187974261216272,-7.1207175606295605
2.52,3.81,-8.28,2.2199550602647364,0.9820209500339608,0.6670474712190373,-161.64573705685663,-1.1230152546764245,-2.2575997541901875
2.52,3.81,-8.28,2.2199550602647364,0.9820209500339608,0.6670474712190373,-161.64573705685663,-1.1230152546764245,-2.2575997541901875
1.53,1.59,-8.17,2.0220359490966504,-0.5948540854588505,1.61058879735066,-164.78654130633294,-3.3924056518954067,3.2089830530311807
1.53,1.59,-8.17,2.0220359490966504,-0.5948540854588505,1.61058879735066,-164.78654130633294,-3.3924056518954067,3.2089830530311807
-0.99,-0.6,-7.67,-0.13004150464337,-2.0607058257327973,2.329646542273032,-165.4050127335264,-5.341901218009245,7.396290017779932
-0.99,-0.6,-7.67,-0.13004150464337,-2.0607058257327973,2.329646542273032,-165.4050127335264,-5.341901218009245,7.396290017779932
-1.21,-0.52,-7.98,0.0207659026886821,-1.8520040010809065,1.9336232658102936,-164.44410289964102,-6.650042440520529,9.821056182581472
-1.21,-0.52,-7.98,0.0207659026886821,-1.8520040010809065,1.9336232658102936,-164.44410289964102,-6.650042440520529,9.821056182581472
0.93,-0.9,-9.94,2.7009970350300567,-2.766711575326617,0.5584922334114282,-162.45372607444324,-8.453062112264227,12.088902226339815
0.93,-0.9,-9.94,2.7009970350300567,-2.766711575326617,0.5584922334114282,-162.45372607444324,-8.453062112264227,12.088902226339815
-3.17,0.07,-7.19,-1.3950521977262882,-0.8234988897672191,2.117334104280068,-160.32749140960402,-9.660046657878476,13.991994191085649
-3.17,0.07,-7.19,-1.3950521977262882,-0.8234988897672191,2.117334104280068,-160.32749140960402,-9.660046657878476,13.991994191085649
-2.76,0.51,-7.58,-0.527753465649194,-0.6100805319511493,1.7640522838370531,-157.6264722380801,-11.271055753655435,16.188282864682783
-2.76,0.51,-7.58,-0.527753465649194,-0.6100805319511493,1.7640522838370531,-157.6264722380801,-11.271055753655435,16.188282864682783
-3.62,0.06,-7.86,-1.0917892082532243,-0.9809066945193824,1.2782610324757755,-155.4292933262199,-12.596044357776794,18.05401336431272
-3.62,0.06,-7.86,-1.0917892082532243,-0.9809066945193824,1.2782610324757755,-155.4292933262199,-12.596044357776794,18.05401336431272
-3.61,0.46,-7.36,-0.7557610529505212,-0.5692157031812421,1.6507859308718835,-152.3835367338065,-14.038175786909196,20.681275164117206
-3.61,0.46,-7.36,-0.7557610529505212,-0.5692157031812421,1.6507859308718835,-152.3835367338065,-14.038175786909196,20.681275164117206
-6.66,-1.19,-6.16,-4.115898569441104,-1.1833320819917192,1.7210823545095568,-150.34469905459454,-15.216602467156427,22.45439792967429
-6.66,-1.19,-6.16,-4.115898569441104,-1.1833320819917192,1.7210823545095568,-150.34469905459454,-15.216602467156427,22.45439792967429
-5.71,-1.61,-7.0,-2.9088194941820684,-1.9853460679539048,1.3335531552373734,-148.7733502639536,-16.003112701402525,23.858067126010045
-5.71,-1.61,-7.0,-2.9088194941820684,-1.9853460679539048,1.3335531552373734,-148.7733502639536,-16.003112701402525,23.858067126010045
-5.45,-0.71,-7.79,-2.008277667823065,-1.5084450500470097,0.609796497855271,-147.93284627196644,-16.084119443363345,24.596436196111345
-5.45,-0.71,-7.79,-2.008277667823065,-1.5084450500470097,0.609796497855271,-147.93284627196644,-16.084119443363345,24.596436196111345
-6.27,0.26,-6.8,-2.699767176020622,-0.3443548813237484,0.96282860249371,-146.871240884656,-16.014684599323402,25.35933459116607
-6.27,0.26,-6.8,-2.699767176020622,-0.3443548813237484,0.96282860249371,-146.871240884656,-16.014684599323402,25.35933459116607
-7.01,0.4,-7.18,-3.332940044133806,-0.3494755991218845,0.3397668028845029,-146.71084020226166,-16.315612011260463,24.38536915234885
-7.01,0.4,-7.18,-3.332940044133806,-0.3494755991218845,0.3397668028845029,-146.71084020226166,-16.315612011260463,24.38536915234885
-5.27,5.68,-8.81,0.3952760637145494,3.43997894672929,-1.4032430271217802,-146.2735608004224,-17.300215695418142,23.34297818708293
-5.27,5.68,-8.81,0.3952760637145494,3.43997894672929,-1.4032430271217802,-146.2735608004224,-17.300215695418142,23.34297818708293
-2.83,0.89,-8.67,0.874825113076244,-1.2651401401415416,0.7731566863735484,-146.71084020226166,-17.358172932119437,23.506817731301982
-2.83,0.89,-8.67,0.874825113076244,-1.2651401401415416,0.7731566863735484,-146.71084020226166,-17.358172932119437,23.506817731301982
-2.87,-1.31,-9.48,0.4034280541832991,-3.373907482338214,0.4110449579752924,-147.39783944401512,-17.033669594732867,23.448298031292182
-2.87,-1.31,-9.48,0.4034280541832991,-3.373907482338214,0.4110449579752924,-147.39783944401512,-17.033669594732867,23.448298031292182
-5.01,1.02,-7.18,-1.56962833634303,-0.2615738288707422,1.137120253941168,-146.07660730478975,-18.08882279446736,23.08561363949995
-5.01,1.02,-7.18,-1.56962833634303,-0.2615738288707422,1.137120253941168,-146.07660730478975,-18.08882279446736,23.08561363949995
-5.43,3.33,-6.65,-1.3234463108294294,1.9657471418596069,0.9083002633003492,-145.06982302382067,-19.110662839696182,22.53618284114898
-5.43,3.33,-6.65,-1.3234463108294294,1.9657471418596069,0.9083002633003492,-145.06982302382067,-19.110662839696182,22.53618284114898
-4.14,2.45,-7.67,-0.3138342384567633,0.5315352940135245,0.7739328948322424,-145.53094905314887,-19.343110284151184,21.76552371074204
-4.14,2.45,-7.67,-0.3138342384567633,0.5315352940135245,0.7739328948322424,-145.53094905314887,-19.343110284151184,21.76552371074204
-2.9,1.48,-9.22,0.7780169286307149,-1.1125037133400295,0.1233744619101795,-146.35265556905202,-19.20363223785156,21.08910064572278
-2.9,1.48,-9.22,0.7780169286307149,-1.1125037133400295,0.1233744619101795,-146.35265556905202,-19.20363223785156,21.08910064572278
-3.4,2.06,-8.82,0.3289496623435696,-0.3509742348875459,0.1441136245916698,-146.47163743677677,-19.40123466474733,20.459995384570263
-3.4,2.06,-8.82,0.3289496623435696,-0.3509742348875459,0.1441136245916698,-146.47163743677677,-19.40123466474733,20.459995384570263
-3.53,3.07,-8.95,0.5528851747196509,0.5051858489310639,-0.2644673780080139,-146.39227073603638,-19.6570420373131,19.971122857066124
-3.53,3.07,-8.95,0.5528851747196509,0.5051858489310639,-0.2644673780080139,-146.39227073603638,-19.6570420373131,19.971122857066124
-3.54,2.27,-9.39,0.2856685618760276,-0.3260324146290661,-0.4728780211382677,-146.63092085313292,-19.81987998842397,19.494244164289388
-3.54,2.27,-9.39,0.2856685618760276,-0.3260324146290661,-0.4728780211382677,-146.63092085313292,-19.81987998842397,19.494244164289388
-3.16,2.19,-9.7,0.6347846087504624,-0.6003926411664247,-0.5908630284566954,-146.71084020226166,-19.95948754584176,19.250121718432275
-3.16,2.19,-9.7,0.6347846087504624,-0.6003926411664247,-0.5908630284566954,-146.71084020226166,-19.95948754584176,19.250121718432275
-3.33,1.91,-9.33,0.2553031677429884,-0.6804269343504311,-0.2560404692309266,-146.63092085313292,-20.157316215575328,19.110662839696182
-3.33,1.91,-9.33,0.2553031677429884,-0.6804269343504311,-0.2560404692309266,-146.63092085313292,-20.157316215575328,19.110662839696182
-3.96,2.09,-8.68,-0.4303042627633343,-0.1331197194234664,0.0501538368403835,-146.5113892939378,-20.331921330362565,18.94799690115028
-3.96,2.09,-8.68,-0.4303042627633343,-0.1331197194234664,0.0501538368403835,-146.5113892939378,-20.331921330362565,18.94799690115028
-3.79,2.06,-8.52,-0.4360198330436036,-0.169723480374709,0.2683492789385102,-146.5511870394875,-20.55315637010219,18.320928845487863
-3.79,2.06,-8.52,-0.4360198330436036,-0.169723480374709,0.2683492789385102,-146.5511870394875,-20.55315637010219,18.320928845487863
-3.16,2.54,-8.81,0.2547998882673403,-0.0562222488734918,0.1120527378301794,-146.67085725236174,-20.762818905741057,17.555261104447528
-3.16,2.54,-8.81,0.2547998882673403,-0.0562222488734918,0.1120527378301794,-146.67085725236174,-20.762818905741057,17.555261104447528
-2.34,3.22,-9.43,1.3005547010908451,0.0217364602841907,-0.3460336351658686,-146.59103083752737,-20.995859763455265,17.010496081346126
-2.34,3.22,-9.43,1.3005547010908451,0.0217364602841907,-0.3460336351658686,-146.59103083752737,-20.995859763455265,17.010496081346126
-3.48,2.47,-8.52,-0.2051153848638157,0.0154575810436514,0.2798777899552771,-146.35265556905202,-21.170698001897183,17.068431181009654
-3.48,2.47,-8.52,-0.2051153848638157,0.0154575810436514,0.2798777899552771,-146.35265556905202,-21.170698001897183,17.068431181009654
-3.22,2.62,-8.77,0.1595211757994573,-0.0447048629168895,0.1051936933570054,-146.15525518443252,-21.275624852029367,17.172725448331995
-3.22,2.62,-8.77,0.1595211757994573,-0.0447048629168895,0.1051936933570054,-146.15525518443252,-21.275624852029367,17.172725448331995
-3.42,2.62,-8.6,-0.0251300974661562,0.0650342430967307,0.1881293743826617,-145.9589661948812,-21.33392533931821,17.358172932119437
-3.42,2.62,-8.6,-0.0251300974661562,0.0650342430967307,0.1881293743826617,-145.9589661948812,-21.33392533931821,17.358172932119437
-3.12,2.43,-9.04,0.2601558382263556,-0.3506157487284731,-0.0508490508029133,-145.9589661948812,-21.403893300909647,17.32339805412093
-3.12,2.43,-9.04,0.2601558382263556,-0.3506157487284731,-0.0508490508029133,-145.9589661948812,-21.403893300909647,17.32339805412093
-3.1,2.39,-9.13,0.2563878995106521,-0.4188906851401539,-0.1149323253595646,-145.9981360073074,-21.473869337236096,17.161136490218524
-3.1,2.39,-9.13,0.2563878995106521,-0.4188906851401539,-0.1149323253595646,-145.9981360073074,-21.473869337236096,17.161136490218524
-3.27,2.74,-8.54,0.098929007039085,0.1311064570185145,0.2617495736731588,-145.88075748629686,-21.555518290408003,17.068431181009654
-3.27,2.74,-8.54,0.098929007039085,0.1311064570185145,0.2617495736731588,-145.88075748629686,-21.555518290408003,17.068431181009654
-3.22,2.66,-8.62,0.120259956434906,0.0161169281310367,0.2288800201191972,-145.84171829017612,-21.602179804976902,17.010496081346126
-3.22,2.66,-8.62,0.120259956434906,0.0161169281310367,0.2288800201191972,-145.84171829017612,-21.602179804976902,17.010496081346126
-3.13,2.59,-8.95,0.2319077510952783,-0.1770249975963798,-0.0179304462688314,-145.9589661948812,-21.63717831946885,16.917809025605248
-3.13,2.59,-8.95,0.2319077510952783,-0.1770249975963798,-0.0179304462688314,-145.9589661948812,-21.63717831946885,16.917809025605248
-3.0,2.46,-8.88,0.2664462468839991,-0.2869224571784503,0.1240531426952316,-146.0373496598969,-21.660511797125544,16.825133117850115
-3.0,2.46,-8.88,0.2664462468839991,-0.2869224571784503,0.1240531426952316,-146.0373496598969,-21.660511797125544,16.825133117850115
