acc_x,acc_y,acc_z,lin_x,lin_y,lin_z,eul_x,eul_y,eul_z
8.49,1.93,4.32,-0.0221385959617226,0.0420771780395552,0.0873321538928433,-54.25858892916724,30.99543647635929,-76.82225926226535
8.49,1.93,4.32,-0.0221385959617226,0.0420771780395552,0.0873321538928433,-54.25858892916724,30.99543647635929,-76.82225926226535
8.57,1.92,4.23,-0.0313811178859324,-0.0869758559830882,0.0590528383444013,-54.20709186156805,30.94787313807167,-76.86613864248247
8.57,1.92,4.23,-0.0313811178859324,-0.0869758559830882,0.0590528383444013,-54.20709186156805,30.94787313807167,-76.86613864248247
8.62,1.95,4.09,-0.0913520637631562,-0.2280137158221707,0.0714219828530389,-54.20709186156805,30.93598315774567,-76.88076806545367
8.62,1.95,4.09,-0.0913520637631562,-0.2280137158221707,0.0714219828530389,-54.20709186156805,30.93598315774567,-76.88076806545367
8.51,1.91,4.3,-0.0076802705029805,-0.0013611371665791,0.0825490564294,-54.20709186156805,30.93598315774567,-76.86613864248247
8.51,1.91,4.3,-0.0076802705029805,-0.0013611371665791,0.0825490564294,-54.20709186156805,30.93598315774567,-76.86613864248247
8.5,1.94,4.28,-0.0425588362314248,-0.008133171248748,0.094280433463517,-54.20709186156805,30.93598315774567,-76.86613864248247
8.5,1.94,4.28,-0.0425588362314248,-0.008133171248748,0.094280433463517,-54.20709186156805,30.93598315774567,-76.86613864248247
8.65,1.99,4.08,-0.1274038313074685,-0.2339335801830573,0.0415056926264032,-54.24571355108697,30.971654123503782,-76.83688424157663
8.65,1.99,4.08,-0.1274038313074685,-0.2339335801830573,0.0415056926264032,-54.24571355108697,30.971654123503782,-76.83688424157663
8.35,1.83,4.26,0.0663657433370856,0.0738689788622031,0.2563024166880101,-54.46469598924939,31.078685498016352,-76.64687474214496
8.35,1.83,4.26,0.0663657433370856,0.0738689788622031,0.2563024166880101,-54.46469598924939,31.078685498016352,-76.64687474214496
8.46,1.93,4.28,-0.0082498551961351,0.0712615928968214,0.131436631537932,-54.54203530433204,31.114368796125287,-76.58846038583509
8.46,1.93,4.28,-0.0082498551961351,0.0712615928968214,0.131436631537932,-54.54203530433204,31.114368796125287,-76.58846038583509
8.47,1.94,4.19,-0.0408651410397491,-0.0042501902245064,0.1599452788980393,-54.55492780539657,31.138159380012,-76.57386047071425
8.47,1.94,4.19,-0.0408651410397491,-0.0042501902245064,0.1599452788980393,-54.55492780539657,31.138159380012,-76.57386047071425
8.61,2.04,4.05,-0.1603801848045309,-0.1752397827630842,0.0783526559187031,-54.54203530433204,31.12626391611525,-76.57386047071425
8.61,2.04,4.05,-0.1603801848045309,-0.1752397827630842,0.0783526559187031,-54.54203530433204,31.12626391611525,-76.57386047071425
8.45,1.95,4.26,-0.0318841655723045,0.067320648301367,0.1450222214992145,-54.56782105444786,31.12626391611525,-76.57386047071425
8.45,1.95,4.26,-0.0318841655723045,0.067320648301367,0.1450222214992145,-54.56782105444786,31.12626391611525,-76.57386047071425
8.59,1.96,4.12,-0.0662637787942761,-0.1271523288182006,0.0812429958229525,-54.52914355096097,31.09057958723377,-76.6030617698578
8.59,1.96,4.12,-0.0662637787942761,-0.1271523288182006,0.0812429958229525,-54.52914355096097,31.09057958723377,-76.6030617698578
8.64,1.91,4.05,-0.0325477354414165,-0.2247845761333948,0.0778981510087764,-54.50336228612648,31.078685498016352,-76.6030617698578
8.64,1.91,4.05,-0.0325477354414165,-0.2247845761333948,0.0778981510087764,-54.50336228612648,31.078685498016352,-76.6030617698578
8.41,1.9,4.3,0.0215279977959563,0.0954736885369251,0.1724130649797679,-54.50336228612648,31.06679175207397,-76.6176646234629
8.41,1.9,4.3,0.0215279977959563,0.0954736885369251,0.1724130649797679,-54.50336228612648,31.06679175207397,-76.6176646234629
8.54,1.82,4.18,0.0770129665000334,-0.089955524255846,0.1266511876732803,-54.47758400854888,31.04300528938303,-76.64687474214496
8.54,1.82,4.18,0.0770129665000334,-0.089955524255846,0.1266511876732803,-54.47758400854888,31.04300528938303,-76.64687474214496
8.4,2.01,4.35,-0.0797491230509208,0.1604292428803782,0.137601311767975,-54.45180871588593,31.09057958723377,-76.63226894733148
8.4,2.01,4.35,-0.0797491230509208,0.1604292428803782,0.137601311767975,-54.45180871588593,31.09057958723377,-76.63226894733148
8.76,2.02,3.97,-0.1588937172246223,-0.3436704560269443,-0.0135100498301845,-54.42603640579737,31.04300528938303,-76.70531264449292
8.76,2.02,3.97,-0.1588937172246223,-0.3436704560269443,-0.0135100498301845,-54.42603640579737,31.04300528938303,-76.70531264449292
8.5,1.88,4.24,0.0252519383676206,-0.0078240707700429,0.1236080645581587,-54.46469598924939,31.054898349248795,-76.69070095907627
8.5,1.88,4.24,0.0252519383676206,-0.0078240707700429,0.1236080645581587,-54.46469598924939,31.054898349248795,-76.69070095907627
8.5,1.91,4.24,-0.0031621551642211,0.0015597431434926,0.1177033303162389,-54.47758400854888,31.06679175207397,-76.6760907473348
8.5,1.91,4.24,-0.0031621551642211,0.0015597431434926,0.1177033303162389,-54.47758400854888,31.06679175207397,-76.6760907473348
8.54,2.03,4.16,-0.1373715052492321,-0.0659610984955441,0.094035614417157,-54.45180871588593,31.078685498016352,-76.66148200858531
8.54,2.03,4.16,-0.1373715052492321,-0.0659610984955441,0.094035614417157,-54.45180871588593,31.078685498016352,-76.66148200858531
8.43,1.89,4.35,0.0379469714789111,0.1244061352949417,0.1349085259501219,-54.46469598924939,31.078685498016352,-76.66148200858531
8.43,1.89,4.35,0.0379469714789111,0.1244061352949417,0.1349085259501219,-54.46469598924939,31.078685498016352,-76.66148200858531
8.53,1.88,4.19,0.0164996096287097,-0.0694551887650261,0.1192198072380534,-54.45180871588593,31.031112572318907,-76.69070095907627
8.53,1.88,4.19,0.0164996096287097,-0.0694551887650261,0.1192198072380534,-54.45180871588593,31.031112572318907,-76.69070095907627
8.56,1.89,4.1,-0.0189547176659532,-0.1722628592883124,0.1306143331585403,-54.38738352787694,30.99543647635929,-76.74915654963284
8.56,1.89,4.1,-0.0189547176659532,-0.1722628592883124,0.1306143331585403,-54.38738352787694,30.99543647635929,-76.74915654963284
8.47,1.94,4.26,-0.0366028681203314,0.0131857094368483,0.1293266940898387,-54.348737347604505,30.99543647635929,-76.74915654963284
8.47,1.94,4.26,-0.0366028681203314,0.0131857094368483,0.1293266940898387,-54.348737347604505,30.99543647635929,-76.74915654963284
8.48,2.01,4.34,-0.0834398361695145,0.0806027851058541,0.071525913231861,-54.31009785710634,30.95976345993856,-76.77839320064767
8.48,2.01,4.34,-0.0834398361695145,0.0806027851058541,0.071525913231861,-54.31009785710634,30.95976345993856,-76.77839320064767
8.47,1.91,4.21,-0.021470160477395,-0.056349741063326,0.1573254775843917,-54.28434190943172,30.90031526443885,-76.83688424157663
8.47,1.91,4.21,-0.021470160477395,-0.056349741063326,0.1573254775843917,-54.28434190943172,30.90031526443885,-76.83688424157663
8.53,1.86,4.17,0.020374229872367,-0.1338563343259711,0.1324023614227272,-54.25858892916724,30.876538373720194,-76.85151070141964
8.53,1.86,4.17,0.020374229872367,-0.1338563343259711,0.1324023614227272,-54.25858892916724,30.876538373720194,-76.85151070141964
8.57,1.99,4.21,-0.0934860854159445,-0.0992757072447116,0.0541885319507819,-54.219965017577714,30.876538373720194,-76.85151070141964
8.57,1.99,4.21,-0.0934860854159445,-0.0992757072447116,0.0541885319507819,-54.219965017577714,30.876538373720194,-76.85151070141964
8.44,1.9,4.3,0.005036814355281,0.0245731015569328,0.1457509324607322,-54.23283891398725,30.876538373720194,-76.86613864248247
8.44,1.9,4.3,0.005036814355281,0.0245731015569328,0.1457509324607322,-54.23283891398725,30.876538373720194,-76.86613864248247
8.55,1.95,4.14,-0.0828520630783899,-0.1626810431841743,0.1107090753742614,-54.18134776958782,30.86465043933479,-76.9246652327095
8.55,1.95,4.14,-0.0828520630783899,-0.1626810431841743,0.1107090753742614,-54.18134776958782,30.86465043933479,-76.9246652327095
8.51,1.93,4.31,-0.0239247921761292,-0.0019838343841591,0.0742030482452413,-54.18134776958782,30.86465043933479,-76.93930059020846
8.51,1.93,4.31,-0.0239247921761292,-0.0019838343841591,0.0742030482452413,-54.18134776958782,30.86465043933479,-76.93930059020846
8.46,1.88,4.32,0.0201973419694683,0.0185609929608885,0.1232803614435074,-54.16847683303728,30.852762845389066,-76.96857576197083
8.46,1.88,4.32,0.0201973419694683,0.0185609929608885,0.1232803614435074,-54.16847683303728,30.852762845389066,-76.96857576197083
8.53,1.85,4.2,0.0217050467903043,-0.127467240446979,0.1212650828396757,-54.14273717736637,30.84087559172584,-76.98321557761712
8.53,1.85,4.2,0.0217050467903043,-0.127467240446979,0.1212650828396757,-54.14273717736637,30.84087559172584,-76.98321557761712
8.47,1.85,4.28,0.035296034341667,-0.0317965698052309,0.1381680525530075,-54.12986845766676,30.84087559172584,-76.99785688069619
8.47,1.85,4.28,0.035296034341667,-0.0317965698052309,0.1381680525530075,-54.12986845766676,30.84087559172584,-76.99785688069619
8.42,1.94,4.38,-0.0347851237743517,0.093395734170314,0.1198307474278319,-54.104133233092014,30.84087559172584,-77.0271439519232
8.42,1.94,4.38,-0.0347851237743517,0.093395734170314,0.1198307474278319,-54.104133233092014,30.84087559172584,-77.0271439519232
8.57,1.94,4.25,-0.0616419568185917,-0.0927543563166901,0.0465989295114912,-54.07840095968836,30.84087559172584,-77.07108573183801
8.57,1.94,4.25,-0.0616419568185917,-0.0927543563166901,0.0465989295114912,-54.07840095968836,30.84087559172584,-77.07108573183801
8.49,1.93,4.19,-0.0778582023254241,-0.1073153823836117,0.1452048954085256,-54.06553592895308,30.852762845389066,-77.08573597407309
8.49,1.93,4.19,-0.0778582023254241,-0.1073153823836117,0.1452048954085256,-54.06553592895308,30.852762845389066,-77.08573597407309
8.56,1.9,4.24,-0.0343040234328002,-0.1086769917145819,0.067645300060267,-54.039808077971365,30.84087559172584,-77.12969565730245
8.56,1.9,4.24,-0.0343040234328002,-0.1086769917145819,0.067645300060267,-54.039808077971365,30.84087559172584,-77.12969565730245
8.53,1.87,4.24,-0.0071948032005382,-0.0979923485514633,0.0996553191303153,-54.05267163514365,30.84087559172584,-77.12969565730245
8.53,1.87,4.24,-0.0071948032005382,-0.0979923485514633,0.0996553191303153,-54.05267163514365,30.84087559172584,-77.12969565730245
8.42,1.85,4.25,0.0068925169630245,-0.0394133147034658,0.19520894863658,-54.06553592895308,30.84087559172584,-77.12969565730245
8.42,1.85,4.25,0.0068925169630245,-0.0394133147034658,0.19520894863658,-54.06553592895308,30.84087559172584,-77.12969565730245
8.48,1.74,4.34,0.136776353505055,-0.0109658814631845,0.1239452137036831,-54.06553592895308,30.84087559172584,-77.17366878994224
8.48,1.74,4.34,0.136776353505055,-0.0109658814631845,0.1239452137036831,-54.06553592895308,30.84087559172584,-77.17366878994224
8.56,2.06,4.41,-0.1570158250290816,0.0692163984693283,-0.0389508004018406,-54.00122182339204,30.876538373720194,-77.18832949283414
8.56,2.06,4.41,-0.1570158250290816,0.0692163984693283,-0.0389508004018406,-54.00122182339204,30.876538373720194,-77.18832949283414
8.54,1.99,4.24,-0.1385310977247917,-0.0831337495404815,0.0679027543502535,-53.98836120988355,30.86465043933479,-77.23232058732376
8.54,1.99,4.24,-0.1385310977247917,-0.0831337495404815,0.0679027543502535,-53.98836120988355,30.86465043933479,-77.23232058732376
8.51,1.76,4.13,0.0577512513221352,-0.2054472601218977,0.187447527015081,-54.026945257147645,30.828988678188,-77.23232058732376
8.51,1.76,4.13,0.0577512513221352,-0.2054472601218977,0.187447527015081,-54.026945257147645,30.828988678188,-77.23232058732376
8.45,1.79,4.31,0.0708920175295211,-0.0167793411447179,0.1538062337536327,-54.026945257147645,30.828988678188,-77.23232058732376
8.45,1.79,4.31,0.0708920175295211,-0.0167793411447179,0.1538062337536327,-54.026945257147645,30.828988678188,-77.23232058732376
8.51,1.91,4.32,-0.0409350552796723,-0.0179268905630507,0.0737879878350256,-53.98836120988355,30.84087559172584,-77.23232058732376
8.51,1.91,4.32,-0.0409350552796723,-0.0179268905630507,0.0737879878350256,-53.98836120988355,30.84087559172584,-77.23232058732376
8.47,1.98,4.24,-0.133124898790454,-0.0543698514620081,0.1309990306556585,-53.98836120988355,30.84087559172584,-77.24698728308945
8.47,1.98,4.24,-0.133124898790454,-0.0543698514620081,0.1309990306556585,-53.98836120988355,30.84087559172584,-77.24698728308945
9.04,1.7,3.78,0.0661332123596338,-0.7840620554357298,-0.1070210199324694,-53.9755013315704,30.781444422149058,-77.26165547882309
9.04,1.7,3.78,0.0661332123596338,-0.7840620554357298,-0.1070210199324694,-53.9755013315704,30.781444422149058,-77.26165547882309
9.21,2.16,3.63,-0.377922257851774,-0.8992848907113886,-0.2787385127127582,-54.00122182339204,30.888426648702456,-76.96857576197083
9.21,2.16,3.63,-0.377922257851774,-0.8992848907113886,-0.2787385127127582,-54.00122182339204,30.888426648702456,-76.96857576197083
8.76,2.17,4.06,-0.2608288743374261,-0.2472874045504805,-0.0827846268056493,-54.348737347604505,31.138159380012,-76.36961551362315
8.76,2.17,4.06,-0.2608288743374261,-0.2472874045504805,-0.0827846268056493,-54.348737347604505,31.138159380012,-76.36961551362315
12.31,4.38,1.93,-2.5383826533627487,-3.329748759095227,-2.719913244019123,-54.51625254499015,31.340435037267948,-75.90384057849288
12.31,4.38,1.93,-2.5383826533627487,-3.329748759095227,-2.719913244019123,-54.51625254499015,31.340435037267948,-75.90384057849288
12.79,3.18,1.92,-1.1390392655522603,-3.456967458484801,-3.0048630075454903,-56.05561103021528,31.721461697138416,-74.87562739127625
12.79,3.18,1.92,-1.1390392655522603,-3.456967458484801,-3.0048630075454903,-56.05561103021528,31.721461697138416,-74.87562739127625
13.17,6.13,1.97,-3.467190358841079,-2.3541297699991475,-4.2412453598595405,-59.14177438587889,32.580097056893266,-72.61234523055688
13.17,6.13,1.97,-3.467190358841079,-2.3541297699991475,-4.2412453598595405,-59.14177438587889,32.580097056893266,-72.61234523055688
13.23,5.2,1.96,-1.829354974100394,-1.4505154983106197,-4.351879767171976,-64.45738978708853,32.950364032221074,-69.66789572403633
13.23,5.2,1.96,-1.829354974100394,-1.4505154983106197,-4.351879767171976,-64.45738978708853,32.950364032221074,-69.66789572403633
14.83,7.11,1.28,-2.731842753410229,-0.9868480950041558,-6.431655515293974,-69.24960284688514,33.536349009079444,-66.59687161580996
14.83,7.11,1.28,-2.731842753410229,-0.9868480950041558,-6.431655515293974,-69.24960284688514,33.536349009079444,-66.59687161580996
13.93,6.8,1.64,-1.112071501957478,1.0892784568685343,-5.70306532356207,-76.42794195968905,34.20715457242007,-60.47692253879284
13.93,6.8,1.64,-1.112071501957478,1.0892784568685343,-5.70306532356207,-76.42794195968905,34.20715457242007,-60.47692253879284
12.57,7.78,1.65,-1.43850262130908,3.0458475509022263,-4.681597751372483,-82.73709614997145,34.93923195845143,-55.80910067345633
12.57,7.78,1.65,-1.43850262130908,3.0458475509022263,-4.681597751372483,-82.73709614997145,34.93923195845143,-55.80910067345633
11.42,6.8,0.8,0.1751125209155926,3.606737727616173,-3.009635677574792,-91.79566979807733,33.94348108559176,-49.56818089392642
11.42,6.8,0.8,0.1751125209155926,3.606737727616173,-3.009635677574792,-91.79566979807733,33.94348108559176,-49.56818089392642
11.61,6.69,-0.22,1.5796711619803627,3.88868482792053,-2.9204615862597967,-100.15264374261456,32.031310917714855,-43.27093047786308
11.61,6.69,-0.22,1.5796711619803627,3.88868482792053,-2.9204615862597967,-100.15264374261456,32.031310917714855,-43.27093047786308
11.25,6.55,-0.93,2.4275516564658663,4.268430294474668,-2.2853885285691504,-107.23982794355229,30.73390559555541,-37.96750276694696
11.25,6.55,-0.93,2.4275516564658663,4.268430294474668,-2.2853885285691504,-107.23982794355229,30.73390559555541,-37.96750276694696
9.63,4.43,-1.8,3.875132074309541,3.3563503894590525,0.3557207615687101,-116.96926663704076,28.517345406099267,-30.805215870860085
9.63,4.43,-1.8,3.875132074309541,3.3563503894590525,0.3557207615687101,-116.96926663704076,28.517345406099267,-30.805215870860085
6.76,3.67,-2.38,2.779269530303824,2.3855727375980527,2.6361825402346533,-123.502242338284,26.71190613338563,-25.5003013557049
6.76,3.67,-2.38,2.779269530303824,2.3855727375980527,2.6361825402346533,-123.502242338284,26.71190613338563,-25.5003013557049
6.29,3.24,-3.59,3.2403699116240188,1.8108839387105704,2.794481847683496,-131.62233589525562,24.279867169785643,-18.669230437467
6.29,3.24,-3.59,3.2403699116240188,1.8108839387105704,2.794481847683496,-131.62233589525562,24.279867169785643,-18.669230437467
3.84,2.62,-2.56,2.1825526555150088,1.75740446623898,5.299811479712452,-139.14021367291954,21.75385480831424,-11.812380025110386
3.84,2.62,-2.56,2.1825526555150088,1.75740446623898,5.299811479712452,-139.14021367291954,21.75385480831424,-11.812380025110386
1.91,2.21,-3.88,0.8146591364721569,0.4095353601697599,5.036407733601669,-143.72051272987528,19.633782752905432,-7.878645873813733
1.91,2.21,-3.88,0.8146591364721569,0.4095353601697599,5.036407733601669,-143.72051272987528,19.633782752905432,-7.878645873813733
2.22,2.21,-4.79,1.4932073665113716,0.4390095055923845,4.299000554492804,-148.98694437514695,17.219083051744406,-3.380941489627292
2.22,2.21,-4.79,1.4932073665113716,0.4390095055923845,4.299000554492804,-148.98694437514695,17.219083051744406,-3.380941489627292
-0.53,0.81,-4.28,-0.4957346343141089,-1.0388749121516372,5.572221338510544,-152.62462859250314,15.436288478593855,0.0343774682235114
-0.53,0.81,-4.28,-0.4957346343141089,-1.0388749121516372,5.572221338510544,-152.62462859250314,15.436288478593855,0.0343774682235114
-0.4,0.81,-6.07,0.0208560999878775,-1.2993913891061382,3.808971529040583,-156.36226771891504,13.126503557539667,3.380941489627292
-0.4,0.81,-6.07,0.0208560999878775,-1.2993913891061382,3.808971529040583,-156.36226771891504,13.126503557539667,3.380941489627292
-1.51,-0.4,-6.58,-0.5705819138538928,-2.483069402194133,3.54204285960643,-159.21811781644797,11.063807546045703,5.7663887448030415
-1.51,-0.4,-6.58,-0.5705819138538928,-2.483069402194133,3.54204285960643,-159.21811781644797,11.063807546045703,5.7663887448030415
-2.56,-0.15,-7.5,-1.3857987690047333,-2.4691801887979965,2.4033526962931946,-160.59764077497127,9.832557602907888,7.1781250358345785
-2.56,-0.15,-7.5,-1.3857987690047333,-2.4691801887979965,2.4033526962931946,-160.59764077497127,9.832557602907888,7.1781250358345785
-0.2,1.05,-9.48,1.1646536509438628,-1.1397083424048318,0.4067804919910731,-161.7899992062843,8.935735653853007,8.142851840335263
-0.2,1.05,-9.48,1.1646536509438628,-1.1397083424048318,0.4067804919910731,-161.7899992062843,8.935735653853007,8.142851840335263
-1.54,-0.12,-9.32,0.0671853859700745,-2.2995787148422946,0.6439089331490813,-162.45372607444324,8.269226458088282,8.774827247055486
-1.54,-0.12,-9.32,0.0671853859700745,-2.2995787148422946,0.6439089331490813,-162.45372607444324,8.269226458088282,8.774827247055486
-2.65,0.48,-8.43,-1.1386979972627789,-1.6283207509463349,1.18286090221547,-162.68057392822612,7.338875609975954,9.556550648732504
-2.65,0.48,-8.43,-1.1386979972627789,-1.6283207509463349,1.18286090221547,-162.68057392822612,7.338875609975954,9.556550648732504
-1.3,1.72,-9.48,0.2400331044809363,-0.4328147660726527,0.0971775381706354,-162.8334582675195,6.9140653613570215,9.568049817899787
-1.3,1.72,-9.48,0.2400331044809363,-0.4328147660726527,0.0971775381706354,-162.8334582675195,6.9140653613570215,9.568049817899787
-0.96,1.73,-9.59,0.6098480038355854,-0.3312297122882287,0.0393078697214015,-163.22171672296716,6.615607303690656,9.683046840720888
-0.96,1.73,-9.59,0.6098480038355854,-0.3312297122882287,0.0393078697214015,-163.22171672296716,6.615607303690656,9.683046840720888
-1.22,1.33,-9.51,0.4128597229025877,-0.6879445621574365,0.1602165073249573,-163.37954086931006,6.351624225020216,9.890066196362191
-1.22,1.33,-9.51,0.4128597229025877,-0.6879445621574365,0.1602165073249573,-163.37954086931006,6.351624225020216,9.890066196362191
-1.34,1.67,-9.37,0.3122343410470029,-0.3191286419104291,0.20550076534151,-163.30044367130742,6.00734895779625,10.315708384533188
-1.34,1.67,-9.37,0.3122343410470029,-0.3191286419104291,0.20550076534151,-163.30044367130742,6.00734895779625,10.315708384533188
-1.37,1.38,-9.43,0.398080866772445,-0.5651865437506352,0.203093586135763,-163.30044367130742,5.869654220523909,10.799043117568631
-1.37,1.38,-9.43,0.398080866772445,-0.5651865437506352,0.203093586135763,-163.30044367130742,5.869654220523909,10.799043117568631
-1.73,1.64,-9.13,0.0718570702597773,-0.2815883938975937,0.375057104954335,-162.9877060930459,5.628708719478254,11.432274343860266
-1.73,1.64,-9.13,0.0718570702597773,-0.2815883938975937,0.375057104954335,-162.9877060930459,5.628708719478254,11.432274343860266
-1.58,1.96,-9.09,0.249104256545456,0.0406193891857724,0.3778432284836182,-162.68057392822612,5.364844561963229,11.789339646395064
-1.58,1.96,-9.09,0.249104256545456,0.0406193891857724,0.3778432284836182,-162.68057392822612,5.364844561963229,11.789339646395064
-1.72,1.86,-9.24,0.207527510918515,-0.0983042039921568,0.2284002321306424,-162.52901727888843,5.215716631990905,12.111948910357556
-1.72,1.86,-9.24,0.207527510918515,-0.0983042039921568,0.2284002321306424,-162.52901727888843,5.215716631990905,12.111948910357556
-1.94,1.44,-9.14,0.0116920464622194,-0.5129995056553379,0.3666555718635641,-162.60463181843892,4.974836229757033,12.169567773976445
-1.94,1.44,-9.14,0.0116920464622194,-0.5129995056553379,0.3666555718635641,-162.60463181843892,4.974836229757033,12.169567773976445
-1.66,1.6,-9.31,0.2958621276706049,-0.3951879616478893,0.2281327829993032,-162.52901727888843,4.768384859798278,12.054333120262198
-1.66,1.6,-9.31,0.2958621276706049,-0.3951879616478893,0.2281327829993032,-162.52901727888843,4.768384859798278,12.054333120262198
-1.44,2.16,-9.58,0.5355292130214835,0.0800891908385683,-0.1040711737346082,-162.37875406030932,4.825730880475589,12.054333120262198
-1.44,2.16,-9.58,0.5355292130214835,0.0800891908385683,-0.1040711737346082,-162.37875406030932,4.825730880475589,12.054333120262198
-1.55,2.17,-9.57,0.4042793708798524,0.0491729581608095,-0.1196000578247957,-162.37875406030932,4.6766337060034,11.904546342091734
-1.55,2.17,-9.57,0.4042793708798524,0.0491729581608095,-0.1196000578247957,-162.37875406030932,4.6766337060034,11.904546342091734
-1.55,2.01,-9.69,0.3855251180000421,-0.1448661499843424,-0.2018006384344897,-162.52901727888843,4.699571210920838,11.593515641253694
-1.55,2.01,-9.69,0.3855251180000421,-0.1448661499843424,-0.2018006384344897,-162.52901727888843,4.699571210920838,11.593515641253694
-1.42,2.46,-9.36,0.3703842715928485,0.383067721336406,0.0396814522761559,-162.68057392822612,4.906017344265486,11.351662230904264
-1.42,2.46,-9.36,0.3703842715928485,0.383067721336406,0.0396814522761559,-162.68057392822612,4.906017344265486,11.351662230904264
-1.44,1.63,-9.67,0.4442374002747458,-0.4516353999204213,-0.084663289838506,-162.91040944456057,5.0321866714644,11.236511835589646
-1.44,1.63,-9.67,0.4442374002747458,-0.4516353999204213,-0.084663289838506,-162.91040944456057,5.0321866714644,11.236511835589646
-1.36,2.21,-9.58,0.4493186397337631,0.1112976385949287,-0.1077751268356976,-162.8334582675195,5.0321866714644,11.132886214620822
-1.36,2.21,-9.58,0.4493186397337631,0.1112976385949287,-0.1077751268356976,-162.8334582675195,5.0321866714644,11.132886214620822
-1.27,2.05,-9.64,0.5466034788279865,-0.0544029558900806,-0.1152079386788003,-162.91040944456057,4.906017344265486,11.04078222065542
-1.27,2.05,-9.64,0.5466034788279865,-0.0544029558900806,-0.1152079386788003,-162.91040944456057,4.906017344265486,11.04078222065542
-1.34,2.18,-9.72,0.4788175036050795,0.050624555617357,-0.2329999417365105,-162.9877060930459,4.940426564140192,11.00624507066077
-1.34,2.18,-9.72,0.4788175036050795,0.050624555617357,-0.2329999417365105,-162.9877060930459,4.940426564140192,11.00624507066077
-1.04,2.26,-9.97,0.8112565727868112,0.0935780934777992,-0.4365529128359657,-162.91040944456057,4.9518964029981625,10.9717089235085
-1.04,2.26,-9.97,0.8112565727868112,0.0935780934777992,-0.4365529128359657,-162.91040944456057,4.9518964029981625,10.9717089235085
-2.02,1.84,-9.04,-0.2730442792952162,-0.2437109056956749,0.3698257557963824,-162.75684793649998,4.802792327898413,11.144399719947115
-2.02,1.84,-9.04,-0.2730442792952162,-0.2437109056956749,0.3698257557963824,-162.75684793649998,4.802792327898413,11.144399719947115
-1.4,2.12,-9.6,0.4396953903829788,-0.0414191353837116,-0.1140028222138713,-162.60463181843892,4.779853967883568,11.2019689418816
-1.4,2.12,-9.6,0.4396953903829788,-0.0414191353837116,-0.1140028222138713,-162.60463181843892,4.779853967883568,11.2019689418816
-1.79,1.97,-9.24,-0.0123434062491158,-0.1697458830726113,0.1924087935655549,-162.68057392822612,4.550480755424785,11.132886214620822
-1.79,1.97,-9.24,-0.0123434062491158,-0.1697458830726113,0.1924087935655549,-162.68057392822612,4.550480755424785,11.132886214620822
-1.19,2.25,-9.7,0.6371125910639921,0.0628910420603698,-0.2012834661625469,-162.68057392822612,4.539012581284228,11.052294827398208
-1.19,2.25,-9.7,0.6371125910639921,0.0628910420603698,-0.2012834661625469,-162.68057392822612,4.539012581284228,11.052294827398208
-1.24,2.11,-9.61,0.5968389656721736,-0.0490294153496599,-0.0919953298158873,-162.75684793649998,4.240855681461491,11.132886214620822
-1.24,2.11,-9.61,0.5968389656721736,-0.0490294153496599,-0.0919953298158873,-162.75684793649998,4.240855681461491,11.132886214620822
-1.91,1.9,-9.15,-0.1312121053860614,-0.2224768236136556,0.2717725783256704,-162.68057392822612,4.194987989089829,11.178940913568928
-1.91,1.9,-9.15,-0.1312121053860614,-0.2224768236136556,0.2717725783256704,-162.68057392822612,4.194987989089829,11.178940913568928
-1.53,2.06,-9.41,0.2681285067189889,-0.0889557502131722,0.0571477574037846,-162.8334582675195,4.011523869819651,11.063807546045703
-1.53,2.06,-9.41,0.2681285067189889,-0.0889557502131722,0.0571477574037846,-162.8334582675195,4.011523869819651,11.063807546045703
-1.54,1.87,-9.4,0.2520933392758522,-0.2606865641045537,0.1062896219734153,-162.91040944456057,4.103254614165427,10.994732910342313
-1.54,1.87,-9.4,0.2520933392758522,-0.2606865641045537,0.1062896219734153,-162.91040944456057,4.103254614165427,10.994732910342313
-1.73,2.04,-9.21,-0.0018801115257058,-0.0765756657743763,0.2164084684955991,-162.9877060930459,4.160587661476331,10.868106466869214
-1.73,2.04,-9.21,-0.0018801115257058,-0.0765756657743763,0.2164084684955991,-162.9877060930459,4.160587661476331,10.868106466869214
-1.46,2.32,-9.52,0.2922163507772468,0.1519076148123292,-0.0946596952322682,-162.9877060930459,4.206454848857137,10.776022876638455
-1.46,2.32,-9.52,0.2922163507772468,0.1519076148123292,-0.0946596952322682,-162.9877060930459,4.206454848857137,10.776022876638455
-1.55,2.24,-9.38,0.1760974185172996,0.0916209147726852,0.0411446210056389,-163.06535294380294,3.977125506843028,10.718474180434589
-1.55,2.24,-9.38,0.1760974185172996,0.0916209147726852,0.0411446210056389,-163.06535294380294,3.977125506843028,10.718474180434589
-1.36,2.09,-9.57,0.3921030304589633,-0.0735465104192378,-0.074819836229329,-163.14335483645732,3.977125506843028,10.637910557080565
-1.36,2.09,-9.57,0.3921030304589633,-0.0735465104192378,-0.074819836229329,-163.14335483645732,3.977125506843028,10.637910557080565
-1.14,2.3,-9.85,0.6420801179730844,0.08200317371851,-0.3517508880140081,-163.14335483645732,3.942727502383202,10.580368342525214
-1.14,2.3,-9.85,0.6420801179730844,0.08200317371851,-0.3517508880140081,-163.14335483645732,3.942727502383202,10.580368342525214
-1.34,2.07,-9.63,0.4186695172100039,-0.116835993890002,-0.1245364943666675,-163.14335483645732,3.862466868736162,10.591876570929834
-1.34,2.07,-9.63,0.4186695172100039,-0.116835993890002,-0.1245364943666675,-163.14335483645732,3.862466868736162,10.591876570929834
-1.66,2.09,-9.31,0.0533555435432558,-0.0678711494689141,0.122005107540442,-163.06535294380294,3.7478120989556993,10.637910557080565
-1.66,2.09,-9.31,0.0533555435432558,-0.0678711494689141,0.122005107540442,-163.06535294380294,3.7478120989556993,10.637910557080565
-1.63,1.94,-9.34,0.0875824161492944,-0.2159030972882637,0.1318468922895999,-163.06535294380294,3.7363468303015934,10.591876570929834
-1.63,1.94,-9.34,0.0875824161492944,-0.2159030972882637,0.1318468922895999,-163.06535294380294,3.7363468303015934,10.591876570929834
-1.48,2.1,-9.46,0.2235100422336529,-0.0774786234491553,0.0068520263717086,-163.22171672296716,3.5987664920103746,10.419264327291232
-1.48,2.1,-9.46,0.2235100422336529,-0.0774786234491553,0.0068520263717086,-163.22171672296716,3.5987664920103746,10.419264327291232
-1.36,2.19,-9.43,0.3136607402037553,0.0235397235755143,0.0356898209045599,-163.30044367130742,3.438262641755622,10.292697102933529
-1.36,2.19,-9.43,0.3136607402037553,0.0235397235755143,0.0356898209045599,-163.30044367130742,3.438262641755622,10.292697102933529
-1.3,2.3,-9.53,0.3808466884364765,0.1040805047910094,-0.0748996278888061,-163.30044367130742,3.4497269749928665,10.258180960550504
-1.3,2.3,-9.53,0.3808466884364765,0.1040805047910094,-0.0748996278888061,-163.30044367130742,3.4497269749928665,10.258180960550504
-1.59,2.04,-9.5,0.100562474669977,-0.1643598957283594,-0.0372604533393854,-163.30044367130742,3.346549205454908,10.246675787285364
-1.59,2.04,-9.5,0.100562474669977,-0.1643598957283594,-0.0372604533393854,-163.30044367130742,3.346549205454908,10.246675787285364
-1.36,2.25,-9.51,0.3017657736177594,0.0318343115594341,-0.0554047551958198,-163.30044367130742,3.335085177891311,10.13162973120474
-1.36,2.25,-9.51,0.3017657736177594,0.0318343115594341,-0.0554047551958198,-163.30044367130742,3.335085177891311,10.13162973120474
-1.41,2.07,-9.46,0.2407711136665957,-0.1465759434198668,0.0247716137372506,-163.30044367130742,3.346549205454908,10.074110549810433
-1.41,2.07,-9.46,0.2407711136665957,-0.1465759434198668,0.0247716137372506,-163.30044367130742,3.346549205454908,10.074110549810433
-1.43,2.31,-9.52,0.2217706943386113,0.0426816989798868,-0.0908444320118118,-163.22171672296716,3.163128706652845,10.039600263356236
-1.43,2.31,-9.52,0.2217706943386113,0.0426816989798868,-0.0908444320118118,-163.22171672296716,3.163128706652845,10.039600263356236
-1.76,2.06,-9.27,-0.1261658737104604,-0.18056702389252,0.1513106625042191,-163.14335483645732,3.0026424356334624,10.097117916179354
-1.76,2.06,-9.27,-0.1261658737104604,-0.18056702389252,0.1513106625042191,-163.14335483645732,3.0026424356334624,10.097117916179354
-1.22,2.62,-9.52,0.4228875806187263,0.3107973752997764,-0.1285284626983571,-163.06535294380294,2.7963115557322795,10.005090889774308
-1.22,2.62,-9.52,0.4228875806187263,0.3107973752997764,-0.1285284626983571,-163.06535294380294,2.7963115557322795,10.005090889774308
-1.58,2.17,-9.34,0.0551475463958229,-0.1044036532924783,0.0892965215416943,-163.06535294380294,2.78484900111774,10.039600263356236
-1.58,2.17,-9.34,0.0551475463958229,-0.1044036532924783,0.0892965215416943,-163.06535294380294,2.78484900111774,10.039600263356236
-1.65,2.27,-9.16,-0.0464537532403428,0.0244796147491759,0.2265538210844848,-163.06535294380294,2.681687249969397,10.039600263356236
-1.65,2.27,-9.16,-0.0464537532403428,0.0244796147491759,0.2265538210844848,-163.06535294380294,2.681687249969397,10.039600263356236
-1.27,2.17,-9.52,0.3737070325831425,-0.1297289551882154,-0.0318312573884451,-163.14335483645732,2.509755787270372,9.90156821424672
-1.27,2.17,-9.52,0.3737070325831425,-0.1297289551882154,-0.0318312573884451,-163.14335483645732,2.509755787270372,9.90156821424672
-1.46,2.31,-9.41,0.1673128322183821,0.0019792256074246,0.0093134997647936,-163.06535294380294,2.47537018520181,9.91307033213892
-1.46,2.31,-9.41,0.1673128322183821,0.0019792256074246,0.0093134997647936,-163.06535294380294,2.47537018520181,9.91307033213892
-1.5,2.38,-9.39,0.1272961610241637,0.0555374441574683,0.0052617677297899,-162.9877060930459,2.383676327772471,9.92457255015729
-1.5,2.38,-9.39,0.1272961610241637,0.0555374441574683,0.0052617677297899,-162.9877060930459,2.383676327772471,9.92457255015729
-1.4,2.17,-9.39,0.2179520285293233,-0.1467485164086139,0.0715607972144489,-162.9877060930459,2.4180613422720283,9.855560741569812
-1.4,2.17,-9.39,0.2179520285293233,-0.1467485164086139,0.0715607972144489,-162.9877060930459,2.4180613422720283,9.855560741569812
