acc_x,acc_y,acc_z,lin_x,lin_y,lin_z,eul_x,eul_y,eul_z
4.69,2.51,-8.42,-0.004798780830952,-0.0469171800434204,-0.1527865176911156,-142.56060519917662,-18.35575126897081,-30.531925921642927
4.69,2.51,-8.42,-0.004798780830952,-0.0469171800434204,-0.1527865176911156,-142.56060519917662,-18.35575126897081,-30.531925921642927
4.58,2.53,-8.36,-0.0548271042676682,0.0132169265615043,-0.0555870333251427,-142.56060519917662,-18.30932175034793,-30.50817000692102
4.58,2.53,-8.36,-0.0548271042676682,0.0132169265615043,-0.0555870333251427,-142.56060519917662,-18.30932175034793,-30.50817000692102
4.65,2.54,-8.43,-0.034041557886335,-0.0042252576447829,-0.1501478446654491,-142.59632676400983,-18.27450160119409,-30.52004779633356
4.65,2.54,-8.43,-0.034041557886335,-0.0042252576447829,-0.1501478446654491,-142.59632676400983,-18.27450160119409,-30.52004779633356
4.66,2.54,-8.42,-0.0194110972475878,0.0024655973836957,-0.1464006444071319,-142.63208125401738,-18.239683153744327,-30.52004779633356
4.66,2.54,-8.42,-0.0194110972475878,0.0024655973836957,-0.1464006444071319,-142.63208125401738,-18.239683153744327,-30.52004779633356
4.58,2.44,-8.35,-0.0657417764065917,-0.0543472445438453,-0.0241803004296325,-142.6678687639012,-18.25128911402984,-30.48441543516209
4.58,2.44,-8.35,-0.0657417764065917,-0.0543472445438453,-0.0241803004296325,-142.6678687639012,-18.25128911402984,-30.48441543516209
4.59,2.52,-8.33,-0.0222238493205839,0.0252862785767071,-0.0323675680622255,-142.70368938881398,-18.216471799125177,-30.460662205117806
4.59,2.52,-8.33,-0.0222238493205839,0.0252862785767071,-0.0323675680622255,-142.70368938881398,-18.216471799125177,-30.460662205117806
4.58,2.38,-8.48,-0.1430599395260079,-0.1069094219053277,-0.1190391060122735,-142.73954322436268,-18.20486640453508,-30.460662205117806
4.58,2.38,-8.48,-0.1430599395260079,-0.1069094219053277,-0.1190391060122735,-142.73954322436268,-18.20486640453508,-30.460662205117806
4.57,2.51,-8.42,-0.0868192497750137,0.0260773883138592,-0.0965405155705863,-142.73954322436268,-18.1816561801528,-30.460662205117806
4.57,2.51,-8.42,-0.0868192497750137,0.0260773883138592,-0.0965405155705863,-142.73954322436268,-18.1816561801528,-30.460662205117806
4.67,2.63,-8.36,0.0517948326402424,0.1138830561624708,-0.1230905779220066,-142.73954322436268,-18.12363390787068,-30.48441543516209
4.67,2.63,-8.36,0.0517948326402424,0.1138830561624708,-0.1230905779220066,-142.73954322436268,-18.12363390787068,-30.48441543516209
4.69,2.61,-8.46,0.0109337508736108,0.0851272786859738,-0.2119543838209008,-142.77543036661098,-18.08882279446736,-30.48441543516209
4.69,2.61,-8.46,0.0109337508736108,0.0851272786859738,-0.2119543838209008,-142.77543036661098,-18.08882279446736,-30.48441543516209
4.35,2.27,-8.02,-0.1295768037824846,-0.0734167230984024,0.4059255685164853,-142.70368938881398,-18.12363390787068,-30.555683180576786
4.35,2.27,-8.02,-0.1295768037824846,-0.0734167230984024,0.4059255685164853,-142.70368938881398,-18.12363390787068,-30.555683180576786
4.89,2.92,-9.06,-0.1729418153423443,0.2115307974234461,-0.8913613035202719,-142.34696199162144,-17.90319186690899,-30.99543647635929
4.89,2.92,-9.06,-0.1729418153423443,0.2115307974234461,-0.8913613035202719,-142.34696199162144,-17.90319186690899,-30.99543647635929
4.75,2.31,-8.14,0.0396574604403099,-0.2068496335384979,0.1054211853118101,-142.24057734218397,-17.949595138790567,-31.114368796125287
4.75,2.31,-8.14,0.0396574604403099,-0.2068496335384979,0.1054211853118101,-142.24057734218397,-17.949595138790567,-31.114368796125287
4.69,2.33,-8.1,-0.1282679518717479,-0.1918848200114436,0.163946668030702,-141.43435545776626,-18.019205613951,-31.94786641552185
4.69,2.33,-8.1,-0.1282679518717479,-0.1918848200114436,0.163946668030702,-141.43435545776626,-18.019205613951,-31.94786641552185
4.8,2.49,-7.45,-0.0565192074840752,-0.0475126141177435,0.6013717244297823,-139.14021367291954,-18.00760340318733,-34.45901715267948
4.8,2.49,-7.45,-0.0565192074840752,-0.0475126141177435,0.6013717244297823,-139.14021367291954,-18.00760340318733,-34.45901715267948
5.9,3.18,-8.02,-0.1394795785352293,0.0948819244526437,-0.6439166290198752,-135.24632190274465,-18.13523798699121,-38.57397055139104
5.9,3.18,-8.02,-0.1394795785352293,0.0948819244526437,-0.6439166290198752,-135.24632190274465,-18.13523798699121,-38.57397055139104
5.58,2.96,-7.17,-0.3065386929235321,0.0957533363947356,0.2565837526742758,-132.95401941873996,-17.93799404290059,-41.13369909947952
5.58,2.96,-7.17,-0.3065386929235321,0.0957533363947356,0.2565837526742758,-132.95401941873996,-17.93799404290059,-41.13369909947952
6.8,3.51,-7.21,0.0262318295375793,0.143729284122505,-0.7063350082650057,-129.9166096140095,-17.648026557290144,-44.40732869091076
6.8,3.51,-7.21,0.0262318295375793,0.143729284122505,-0.7063350082650057,-129.9166096140095,-17.648026557290144,-44.40732869091076
6.7,3.17,-6.31,0.0043763823097114,-0.0709136330117037,0.0726912932902283,-126.86293079671192,-17.833592505981915,-47.55675792365637
6.7,3.17,-6.31,0.0043763823097114,-0.0709136330117037,0.0726912932902283,-126.86293079671192,-17.833592505981915,-47.55675792365637
6.98,3.28,-5.81,0.0095512661167264,-0.0322026029170325,0.1508863447689474,-123.79346416819727,-17.439320584956548,-50.85897732637935
6.98,3.28,-5.81,0.0095512661167264,-0.0322026029170325,0.1508863447689474,-123.79346416819727,-17.439320584956548,-50.85897732637935
7.76,3.91,-5.97,-0.1577940247443466,0.1918110808223784,-0.7330326116837469,-120.70844309282911,-17.219083051744406,-54.00122182339204
7.76,3.91,-5.97,-0.1577940247443466,0.1918110808223784,-0.7330326116837469,-120.70844309282911,-17.219083051744406,-54.00122182339204
7.49,3.34,-5.08,0.0398683896103375,-0.1518258309549862,0.1610572536435199,-118.90317397360045,-17.36976491594495,-55.8609742090792
7.49,3.34,-5.08,0.0398683896103375,-0.1518258309549862,0.1610572536435199,-118.90317397360045,-17.36976491594495,-55.8609742090792
8.0,3.71,-5.17,-0.1765400207553324,-0.028241923558081,-0.4139681816378165,-116.42333876589676,-17.36976491594495,-58.37904205289053
8.0,3.71,-5.17,-0.1765400207553324,-0.028241923558081,-0.4139681816378165,-116.42333876589676,-17.36976491594495,-58.37904205289053
7.76,3.81,-4.8,-0.2205813268457506,0.1597863268106029,-0.0776563594777002,-114.9378688809502,-17.358172932119437,-59.8677251126705
7.76,3.81,-4.8,-0.2205813268457506,0.1597863268106029,-0.0776563594777002,-114.9378688809502,-17.358172932119437,-59.8677251126705
8.31,3.84,-4.77,-0.2395900684143279,-0.030005157534396,-0.5130542733616448,-113.3150238515142,-17.346581127291525,-61.51425621963604
8.31,3.84,-4.77,-0.2395900684143279,-0.030005157534396,-0.5130542733616448,-113.3150238515142,-17.346581127291525,-61.51425621963604
7.81,3.8,-4.39,-0.1684800142023796,0.1338316383994322,0.0772150946533507,-113.02370899765695,-17.31180678552449,-61.75443240547686
7.81,3.8,-4.39,-0.1684800142023796,0.1338316383994322,0.0772150946533507,-113.02370899765695,-17.31180678552449,-61.75443240547686
7.78,3.78,-4.39,-0.3406900245920719,0.1076571252780911,0.1132893727190609,-112.15639729539848,-17.219083051744406,-62.63767369990508
7.78,3.78,-4.39,-0.3406900245920719,0.1076571252780911,0.1132893727190609,-112.15639729539848,-17.219083051744406,-62.63767369990508
8.17,3.9,-4.25,-0.1913979889036965,0.0629253820424862,-0.1923903142570857,-111.2987386824523,-17.219083051744406,-63.48464854041524
8.17,3.9,-4.25,-0.1913979889036965,0.0629253820424862,-0.1923903142570857,-111.2987386824523,-17.219083051744406,-63.48464854041524
7.97,4.02,-4.01,-0.0838608907819634,0.2479254379484541,0.024375196652091,-111.05541520272617,-17.172725448331995,-63.6868789211639
7.97,4.02,-4.01,-0.0838608907819634,0.2479254379484541,0.024375196652091,-111.05541520272617,-17.172725448331995,-63.6868789211639
8.05,3.93,-4.12,-0.1568862274478884,0.1266721143693514,-0.0513995478100728,-111.09591679955122,-17.103194349757633,-63.64641513634406
8.05,3.93,-4.12,-0.1568862274478884,0.1266721143693514,-0.0513995478100728,-111.09591679955122,-17.103194349757633,-63.64641513634406
8.07,3.93,-4.07,-0.0944880057482658,0.1232740775175955,-0.0478198243275294,-111.1769826604611,-17.056843809922572,-63.59247721166836
8.07,3.93,-4.07,-0.0944880057482658,0.1232740775175955,-0.0478198243275294,-111.1769826604611,-17.056843809922572,-63.59247721166836
8.08,3.84,-4.09,-0.1147322257103128,0.0353264076146704,-0.0292886212658238,-111.1972622086614,-17.056843809922572,-63.57899519003461
8.08,3.84,-4.09,-0.1147322257103128,0.0353264076146704,-0.0292886212658238,-111.1972622086614,-17.056843809922572,-63.57899519003461
8.11,3.92,-4.11,-0.1074163690148203,0.0937640179577923,-0.0933636380009126,-111.23783703748737,-17.033669594732867,-63.53855502158924
8.11,3.92,-4.11,-0.1074163690148203,0.0937640179577923,-0.0933636380009126,-111.23783703748737,-17.033669594732867,-63.53855502158924
7.9,3.76,-4.15,-0.2305038789296974,0.0277936255909505,0.1259374499768917,-111.3190497567916,-17.010496081346126,-63.4577011826531
7.9,3.76,-4.15,-0.2305038789296974,0.0277936255909505,0.1259374499768917,-111.3190497567916,-17.010496081346126,-63.4577011826531
8.15,3.94,-4.16,-0.1240713019495772,0.0880531726775983,-0.1547029678861395,-111.2987386824523,-16.998909587512788,-63.4577011826531
8.15,3.94,-4.16,-0.1240713019495772,0.0880531726775983,-0.1547029678861395,-111.2987386824523,-16.998909587512788,-63.4577011826531
8.04,4.06,-4.12,-0.112527678913218,0.2410637535265441,-0.0943007517315806,-111.35968772291412,-16.97573712493423,-63.40381821677742
8.04,4.06,-4.12,-0.112527678913218,0.2410637535265441,-0.0943007517315806,-111.35968772291412,-16.97573712493423,-63.40381821677742
7.96,3.85,-4.16,-0.1695492867722388,0.0826251581428525,0.036587250836261,-111.6243510494048,-16.720885966499374,-63.17498984222817
7.96,3.85,-4.16,-0.1695492867722388,0.0826251581428525,0.036587250836261,-111.6243510494048,-16.720885966499374,-63.17498984222817
8.23,3.88,-4.27,-0.1490030643025928,-0.0094485672336119,-0.2431215800611923,-111.74680725300392,-16.43138337904295,-63.06740312543072
8.23,3.88,-4.27,-0.1490030643025928,-0.0094485672336119,-0.2431215800611923,-111.74680725300392,-16.43138337904295,-63.06740312543072
7.99,3.87,-4.23,-0.1796678065330736,0.0699844285499839,-0.0255787228815087,-112.01279388618184,-16.17670848781425,-62.81213256780961
7.99,3.87,-4.23,-0.1796678065330736,0.0699844285499839,-0.0255787228815087,-112.01279388618184,-16.17670848781425,-62.81213256780961
8.03,3.88,-4.35,-0.2217156963600284,0.0503865411301029,-0.1133350476933987,-112.25913519470078,-16.269308165184984,-62.5438012405264
8.03,3.88,-4.35,-0.2217156963600284,0.0503865411301029,-0.1133350476933987,-112.25913519470078,-16.269308165184984,-62.5438012405264
8.0,3.91,-4.17,0.0178022366705131,0.10142075107753,-0.0252570841632966,-112.77489865498625,-16.188282864682783,-62.00827871831106
8.0,3.91,-4.17,0.0178022366705131,0.10142075107753,-0.0252570841632966,-112.77489865498625,-16.188282864682783,-62.00827871831106
7.73,3.79,-4.22,-0.0740494623312944,0.0938930326916716,0.219622265840659,-113.29417835148298,-16.049401279911372,-61.51425621963604
7.73,3.79,-4.22,-0.0740494623312944,0.0938930326916716,0.219622265840659,-113.29417835148298,-16.049401279911372,-61.51425621963604
7.78,3.73,-4.46,-0.2301975927752657,-0.0016094741322318,0.0968659407186844,-113.48199585621887,-16.16513427708501,-61.28769792030866
7.78,3.73,-4.46,-0.2301975927752657,-0.0016094741322318,0.0968659407186844,-113.48199585621887,-16.16513427708501,-61.28769792030866
8.06,3.93,-4.48,-0.0919685715667514,0.0687418149996406,-0.2166087687196096,-113.62840124543835,-15.968397992715149,-61.15455226396579
8.06,3.93,-4.48,-0.0919685715667514,0.0687418149996406,-0.2166087687196096,-113.62840124543835,-15.968397992715149,-61.15455226396579
7.98,3.64,-4.42,-0.0475112423055366,-0.1530913110710765,-0.0137728896890756,-113.98515404910734,-15.760140597334962,-60.83537468333018
7.98,3.64,-4.42,-0.0475112423055366,-0.1530913110710765,-0.0137728896890756,-113.98515404910734,-15.760140597334962,-60.83537468333018
8.02,3.73,-4.6,-0.1568343676431875,-0.1032787771409711,-0.1612001431009808,-114.13255001123672,-15.748572284340511,-60.68925941563211
8.02,3.73,-4.6,-0.1568343676431875,-0.1032787771409711,-0.1612001431009808,-114.13255001123672,-15.748572284340511,-60.68925941563211
7.85,3.89,-4.6,-0.2070182350337135,0.1023288545610188,-0.0858356459783546,-114.28023924222178,-15.482545411826456,-60.54325313283169
7.85,3.89,-4.6,-0.2070182350337135,0.1023288545610188,-0.0858356459783546,-114.28023924222178,-15.482545411826456,-60.54325313283169
8.0,4.07,-4.58,-0.1020786778884772,0.2078005470397599,-0.2674603267817392,-114.42822374638148,-15.112560354905924,-60.42387417457696
8.0,4.07,-4.58,-0.1020786778884772,0.2078005470397599,-0.2674603267817392,-114.42822374638148,-15.112560354905924,-60.42387417457696
7.81,3.85,-4.54,-0.1476194546309075,0.0804473508358034,-0.0117987939978583,-114.55530415588284,-15.089441590206311,-60.29131575913539
7.81,3.85,-4.54,-0.1476194546309075,0.0804473508358034,-0.0117987939978583,-114.55530415588284,-15.089441590206311,-60.29131575913539
7.89,3.82,-4.69,-0.1824484447772594,0.0175672723714623,-0.1335212236731511,-114.9804996713386,-14.89295693159816,-59.90739833750701
7.89,3.82,-4.69,-0.1824484447772594,0.0175672723714623,-0.1335212236731511,-114.9804996713386,-14.89295693159816,-59.90739833750701
7.62,3.74,-4.43,0.0105964625453721,0.0778548189087844,0.2321669151460615,-115.60146959454929,-14.673408500442047,-59.286754689259176
7.62,3.74,-4.43,0.0105964625453721,0.0778548189087844,0.2321669151460615,-115.60146959454929,-14.673408500442047,-59.286754689259176
7.85,3.73,-4.64,0.0118080452505993,-0.0340095456533218,-0.0454413475704154,-116.07613737802976,-14.477016351828802,-58.81265977015818
7.85,3.73,-4.64,0.0118080452505993,-0.0340095456533218,-0.0454413475704154,-116.07613737802976,-14.477016351828802,-58.81265977015818
7.68,3.76,-4.76,-0.1430049225041786,0.0403260908160496,0.0211748761984456,-116.27122992614628,-14.477016351828802,-58.64173070844467
7.68,3.76,-4.76,-0.1430049225041786,0.0403260908160496,0.0211748761984456,-116.27122992614628,-14.477016351828802,-58.64173070844467
7.66,3.57,-4.92,-0.2901916890843571,-0.1409223854118138,0.0330718596833108,-116.40158899740273,-14.349961892702815,-58.54975129457163
7.66,3.57,-4.92,-0.2901916890843571,-0.1409223854118138,0.0330718596833108,-116.40158899740273,-14.349961892702815,-58.54975129457163
7.77,3.85,-4.78,-0.090514044367022,0.0866912316260357,-0.0942636870357347,-116.4668582991344,-14.130545861300051,-58.444682614751024
7.77,3.85,-4.78,-0.090514044367022,0.0866912316260357,-0.0942636870357347,-116.4668582991344,-14.130545861300051,-58.444682614751024
7.79,3.84,-4.8,-0.1036948980098157,0.0625611887008759,-0.1158009807705831,-116.44509519750316,-14.130545861300051,-58.4709447283886
7.79,3.84,-4.8,-0.1036948980098157,0.0625611887008759,-0.1158009807705831,-116.44509519750316,-14.130545861300051,-58.4709447283886
7.98,3.77,-4.93,-0.1296716768877308,-0.0827267754875351,-0.3014923385719381,-116.53218769347627,-13.79574779269871,-58.43155282050608
7.98,3.77,-4.93,-0.1296716768877308,-0.0827267754875351,-0.3014923385719381,-116.53218769347627,-13.79574779269871,-58.43155282050608
7.92,3.91,-4.69,0.0785809565625515,0.1030076771976724,-0.1930407178024307,-116.70669462733449,-13.611082444309169,-58.26094192949911
7.92,3.91,-4.69,0.0785809565625515,0.1030076771976724,-0.1930407178024307,-116.70669462733449,-13.611082444309169,-58.26094192949911
7.67,3.69,-4.79,-0.118982890906104,-0.0241363665836804,0.0406702484604863,-116.83785829536993,-13.611082444309169,-58.11668937344475
7.67,3.69,-4.79,-0.118982890906104,-0.0241363665836804,0.0406702484604863,-116.83785829536993,-13.611082444309169,-58.11668937344475
7.63,3.66,-4.93,-0.2367832014220553,-0.0540191959774918,0.0159188913447163,-117.03506304367224,-13.39183842112712,-57.93324098050171
7.63,3.66,-4.93,-0.2367832014220553,-0.0540191959774918,0.0159188913447163,-117.03506304367224,-13.39183842112712,-57.93324098050171
7.53,3.63,-4.84,-0.1850394501611318,-0.026308406151688,0.1490898386730279,-117.27684633570152,-13.06883146764636,-57.72378450652888
7.53,3.63,-4.84,-0.1850394501611318,-0.026308406151688,0.1490898386730279,-117.27684633570152,-13.06883146764636,-57.72378450652888
7.38,3.81,-4.85,-0.2149957901992579,0.1838766871349921,0.1929636012180626,-117.58578661368068,-12.965030073382623,-57.40999463594625
7.38,3.81,-4.85,-0.2149957901992579,0.1838766871349921,0.1929636012180626,-117.58578661368068,-12.965030073382623,-57.40999463594625
7.51,3.84,-4.93,-0.2106166273457662,0.1534316050308235,0.0402433230863703,-117.60790637777724,-12.941964550756788,-57.37080402823785
7.51,3.84,-4.93,-0.2106166273457662,0.1534316050308235,0.0402433230863703,-117.60790637777724,-12.941964550756788,-57.37080402823785
7.56,3.81,-4.85,-0.1176268991947915,0.1154153406653746,0.0513927911036145,-117.6743080222204,-12.7228682118641,-57.31856128888758
7.56,3.81,-4.85,-0.1176268991947915,0.1154153406653746,0.0513927911036145,-117.6743080222204,-12.7228682118641,-57.31856128888758
7.62,3.62,-4.87,-0.1041237764927739,-0.0748276899167272,0.0665648332270389,-117.74077335444636,-12.561458728935325,-57.25327616401329
7.62,3.62,-4.87,-0.1041237764927739,-0.0748276899167272,0.0665648332270389,-117.74077335444636,-12.561458728935325,-57.25327616401329
