acc_x,acc_y,acc_z,lin_x,lin_y,lin_z,eul_x,eul_y,eul_z
6.4,3.47,6.34,-0.0499615884076388,-0.1630647399021039,0.154323144247316,-45.946335125324666,13.011162702254634,-80.6165617364412
6.4,3.47,6.34,-0.0499615884076388,-0.1630647399021039,0.154323144247316,-45.946335125324666,13.011162702254634,-80.6165617364412
6.42,3.39,6.51,0.0901433350721284,-0.0787837336410564,0.0560465672654082,-45.95878171202678,12.999629346780694,-80.6165617364412
6.42,3.39,6.51,0.0901433350721284,-0.0787837336410564,0.0560465672654082,-45.95878171202678,12.999629346780694,-80.6165617364412
6.32,3.53,6.6,-0.0239036463483193,0.0789415554970505,0.0109112914335529,-45.95878171202678,13.045763563399612,-80.58651122616075
6.32,3.53,6.6,-0.0239036463483193,0.0789415554970505,0.0109112914335529,-45.95878171202678,13.045763563399612,-80.58651122616075
6.37,3.52,6.47,-0.05508794568182,-0.044523988861195,0.0689304038801541,-45.95878171202678,13.034229810442689,-80.6165617364412
6.37,3.52,6.47,-0.05508794568182,-0.044523988861195,0.0689304038801541,-45.95878171202678,13.034229810442689,-80.6165617364412
6.4,3.42,6.44,0.0363868430059844,-0.0978521314040983,0.1051500665857982,-45.99612491286469,13.011162702254634,-80.6165617364412
6.4,3.42,6.44,0.0363868430059844,-0.0978521314040983,0.1051500665857982,-45.99612491286469,13.011162702254634,-80.6165617364412
6.32,3.32,6.49,0.1381600954174494,-0.0198880850671807,0.1596081605495971,-46.008573794141824,12.999629346780694,-80.6165617364412
6.32,3.32,6.49,0.1381600954174494,-0.0198880850671807,0.1596081605495971,-46.008573794141824,12.999629346780694,-80.6165617364412
6.35,3.48,6.51,-0.0007102230297793,-0.0064754245698486,0.0694554571935412,-45.99612491286469,13.011162702254634,-80.6165617364412
6.35,3.48,6.51,-0.0007102230297793,-0.0064754245698486,0.0694554571935412,-45.99612491286469,13.011162702254634,-80.6165617364412
6.37,3.47,6.36,-0.0426328895210038,-0.1204073835926773,0.1603509947489474,-45.99612491286469,13.011162702254634,-80.6165617364412
6.37,3.47,6.36,-0.0426328895210038,-0.1204073835926773,0.1603509947489474,-45.99612491286469,13.011162702254634,-80.6165617364412
6.33,3.33,6.52,0.1398405428732156,-0.0076527298436168,0.1294300449563561,-45.99612491286469,12.999629346780694,-80.6165617364412
6.33,3.33,6.52,0.1398405428732156,-0.0076527298436168,0.1294300449563561,-45.99612491286469,12.999629346780694,-80.6165617364412
6.34,3.46,6.5,0.0117482127469703,-0.0103778072146338,0.0898113021201805,-45.98367660557063,13.011162702254634,-80.6165617364412
6.34,3.46,6.5,0.0117482127469703,-0.0103778072146338,0.0898113021201805,-45.98367660557063,13.011162702254634,-80.6165617364412
6.46,3.49,6.39,-0.0422575445740123,-0.1699321436183483,0.0745825235337651,-45.95878171202678,13.011162702254634,-80.63158949863124
6.46,3.49,6.39,-0.0422575445740123,-0.1699321436183483,0.0745825235337651,-45.95878171202678,13.011162702254634,-80.63158949863124
6.58,3.49,6.34,-0.0472902864756357,-0.2889246455769936,0.0298209548553867,-45.95878171202678,13.034229810442689,-80.64661893327633
6.58,3.49,6.34,-0.0472902864756357,-0.2889246455769936,0.0298209548553867,-45.95878171202678,13.034229810442689,-80.64661893327633
6.44,3.56,6.5,-0.0726146778008571,-0.0660751968444013,-0.0110666987507794,-45.971228872033386,13.06883146764636,-80.58651122616075
6.44,3.56,6.5,-0.0726146778008571,-0.0660751968444013,-0.0110666987507794,-45.971228872033386,13.06883146764636,-80.58651122616075
6.66,3.55,6.28,-0.105976398598304,-0.3664431873032992,-0.0041088082379818,-46.02102324962843,13.103434321670449,-80.51141416133366
6.66,3.55,6.28,-0.105976398598304,-0.3664431873032992,-0.0041088082379818,-46.02102324962843,13.103434321670449,-80.51141416133366
6.66,3.59,6.33,-0.1105836688875762,-0.3140876777490511,-0.0524432738696383,-46.12063959224854,13.161108413553292,-80.34634707870403
6.66,3.59,6.33,-0.1105836688875762,-0.3140876777490511,-0.0524432738696383,-46.12063959224854,13.161108413553292,-80.34634707870403
6.69,3.81,6.5,-0.2286772617391433,-0.1712371945215931,-0.2651216680421182,-46.2701332926198,13.253393932396618,-80.10660713578281
6.69,3.81,6.5,-0.2286772617391433,-0.1712371945215931,-0.2651216680421182,-46.2701332926198,13.253393932396618,-80.10660713578281
7.36,4.21,6.3,-0.5523742375371291,-0.7425640551608153,-0.716048386140713,-46.33244691855332,13.264930228136947,-79.92707858608141
7.36,4.21,6.3,-0.5523742375371291,-0.7425640551608153,-0.716048386140713,-46.33244691855332,13.264930228136947,-79.92707858608141
7.97,4.43,5.95,-0.7098223737677264,-1.3891252944318029,-0.9690069690236758,-46.56937120855181,13.253393932396618,-79.3303425408847
7.97,4.43,5.95,-0.7098223737677264,-1.3891252944318029,-0.9690069690236758,-46.56937120855181,13.253393932396618,-79.3303425408847
8.28,5.11,6.48,-1.0252181596942922,-1.1384265658392465,-1.7827336194693473,-46.8939256305629,13.4841456448157,-78.60283244211628
8.28,5.11,6.48,-1.0252181596942922,-1.1384265658392465,-1.7827336194693473,-46.8939256305629,13.4841456448157,-78.60283244211628
8.52,5.44,5.72,-1.2541880523415658,-1.7960444996405145,-1.599648106076076,-47.66948159847917,13.299539926123945,-76.69070095907627
8.52,5.44,5.72,-1.2541880523415658,-1.7960444996405145,-1.599648106076076,-47.66948159847917,13.299539926123945,-76.69070095907627
7.89,5.47,6.21,-0.965809965731106,-0.9033384701524656,-1.5506512075244832,-48.78685991006569,13.4841456448157,-74.65930449968721
7.89,5.47,6.21,-0.965809965731106,-0.9033384701524656,-1.5506512075244832,-48.78685991006569,13.4841456448157,-74.65930449968721
8.65,5.84,5.85,-0.7807095264994681,-1.4342638127469316,-2.0459438068710347,-50.84628917286221,13.611082444309169,-71.95960119494845
8.65,5.84,5.85,-0.7807095264994681,-1.4342638127469316,-2.0459438068710347,-50.84628917286221,13.611082444309169,-71.95960119494845
8.81,6.88,5.53,-1.326954105217533,-1.5047354485634865,-2.502142143524189,-52.7571233277472,13.645704477358525,-69.52834707781919
8.81,6.88,5.53,-1.326954105217533,-1.5047354485634865,-2.502142143524189,-52.7571233277472,13.645704477358525,-69.52834707781919
9.43,7.56,5.06,-1.0426702507456993,-1.7108717721571396,-3.142012345101355,-56.53647049567268,14.026630173419028,-65.12237782833996
9.43,7.56,5.06,-1.0426702507456993,-1.7108717721571396,-3.142012345101355,-56.53647049567268,14.026630173419028,-65.12237782833996
7.76,7.64,5.84,-0.8527612101914499,0.520393750332103,-2.509793831845625,-60.3443284261737,14.488567642103208,-61.261061463678935
7.76,7.64,5.84,-0.8527612101914499,0.520393750332103,-2.509793831845625,-60.3443284261737,14.488567642103208,-61.261061463678935
7.46,8.45,5.32,-0.945157044408972,0.928491474296646,-2.5869403491910905,-65.04081883324783,14.315313760812993,-56.53647049567268
7.46,8.45,5.32,-0.945157044408972,0.928491474296646,-2.5869403491910905,-65.04081883324783,14.315313760812993,-56.53647049567268
8.05,9.81,4.04,-1.3823407691667913,-0.0427871569777966,-3.439009789421484,-68.18076625802583,13.749578099392744,-53.14117252914141
8.05,9.81,4.04,-1.3823407691667913,-0.0427871569777966,-3.439009789421484,-68.18076625802583,13.749578099392744,-53.14117252914141
7.35,10.67,4.15,-1.3133764380151072,1.3334997764612924,-3.668910124842472,-73.88310198436405,13.288003224878931,-48.3342986251064
7.35,10.67,4.15,-1.3133764380151072,1.3334997764612924,-3.668910124842472,-73.88310198436405,13.288003224878931,-48.3342986251064
6.17,9.43,3.6,-0.3379296535140536,2.2021240658388708,-1.8118805933207032,-80.45136650125512,12.00824269100582,-43.7274156925049
6.17,9.43,3.6,-0.3379296535140536,2.2021240658388708,-1.8118805933207032,-80.45136650125512,12.00824269100582,-43.7274156925049
4.94,10.42,3.19,-1.204793318417334,2.935291513812873,-1.7297548467811286,-84.70655785585106,10.706964767003903,-40.57120935574602
4.94,10.42,3.19,-1.204793318417334,2.935291513812873,-1.7297548467811286,-84.70655785585106,10.706964767003903,-40.57120935574602
5.15,10.12,2.16,-0.2365010213361991,2.684656019952932,-1.4334206991298526,-90.69787526655077,8.533497036933403,-36.97527104810168
5.15,10.12,2.16,-0.2365010213361991,2.684656019952932,-1.4334206991298526,-90.69787526655077,8.533497036933403,-36.97527104810168
3.57,7.68,1.31,-0.0175939060323596,2.372336045994828,1.5716568525016896,-95.68454734856134,6.89110540785609,-34.53100937438062
3.57,7.68,1.31,-0.0175939060323596,2.372336045994828,1.5716568525016896,-95.68454734856134,6.89110540785609,-34.53100937438062
3.21,6.8,0.05,0.1687200253103383,1.5918418058244117,2.4592577266632234,-101.21199312357184,4.642227799866185,-31.98362621241675
3.21,6.8,0.05,0.1687200253103383,1.5918418058244117,2.4592577266632234,-101.21199312357184,4.642227799866185,-31.98362621241675
2.78,6.89,-0.9,-0.2570338277538143,1.1927276734954635,2.422759812011808,-104.48323564898185,3.0714215263829594,-30.57944178497209
2.78,6.89,-0.9,-0.2570338277538143,1.1927276734954635,2.422759812011808,-104.48323564898185,3.0714215263829594,-30.57944178497209
2.58,6.14,-1.5,-0.0973862577567126,0.7741763565066915,3.0245288800386234,-108.27006185000631,1.0542572154525014,-29.464221664430085
2.58,6.14,-1.5,-0.0973862577567126,0.7741763565066915,3.0245288800386234,-108.27006185000631,1.0542572154525014,-29.464221664430085
2.39,5.73,-1.86,-0.1315851698773538,0.540343303455832,3.3494590892804785,-110.49056420469132,-0.2750200056824314,-29.06155185997118
2.39,5.73,-1.86,-0.1315851698773538,0.540343303455832,3.3494590892804785,-110.49056420469132,-0.2750200056824314,-29.06155185997118
2.36,4.99,-2.09,0.0350603431514777,0.2291732264715716,3.908849528247272,-112.83702493862924,-1.581413711340907,-29.13258444192844
2.36,4.99,-2.09,0.0350603431514777,0.2291732264715716,3.908849528247272,-112.83702493862924,-1.581413711340907,-29.13258444192844
3.58,5.29,-3.21,0.536712099283501,-0.7057634163542481,2.713100950150646,-113.98515404910734,-2.0627594617091103,-29.630134776789287
3.58,5.29,-3.21,0.536712099283501,-0.7057634163542481,2.713100950150646,-113.98515404910734,-2.0627594617091103,-29.630134776789287
2.98,4.97,-3.72,-0.1894515611350657,-0.92368748734099,2.9853151209815856,-115.23680905302648,-2.2346770389286066,-30.306298828005648
2.98,4.97,-3.72,-0.1894515611350657,-0.92368748734099,2.9853151209815856,-115.23680905302648,-2.2346770389286066,-30.306298828005648
3.36,4.42,-3.81,0.1447075864854586,-1.2841882522065091,3.198169066585095,-115.92476601153636,-2.051298459271143,-30.971654123503782
3.36,4.42,-3.81,0.1447075864854586,-1.2841882522065091,3.198169066585095,-115.92476601153636,-2.051298459271143,-30.971654123503782
4.85,5.19,-4.51,0.7334337926028709,-1.6122608037880275,1.580995620411894,-116.22782989578606,-0.9969591404369118,-32.150547625319554
4.85,5.19,-4.51,0.7334337926028709,-1.6122608037880275,1.580995620411894,-116.22782989578606,-0.9969591404369118,-32.150547625319554
4.79,5.49,-3.79,0.8089591817674758,-0.6715531666952979,1.6615348144095812,-116.77224597329428,0.5271230305187238,-32.78310312481338
4.79,5.49,-3.79,0.8089591817674758,-0.6715531666952979,1.6615348144095812,-116.77224597329428,0.5271230305187238,-32.78310312481338
6.12,5.51,-3.93,1.7067615273125016,-0.928914570030862,0.8912990360462949,-116.9473481900315,1.7533192633889718,-33.40472333858408
6.12,5.51,-3.93,1.7067615273125016,-0.928914570030862,0.8912990360462949,-116.9473481900315,1.7533192633889718,-33.40472333858408
6.39,5.23,-3.7,1.983468227585316,-0.8607033418809982,1.0202944672757237,-116.90353178561008,3.094348134689141,-33.871602322817786
6.39,5.23,-3.7,1.983468227585316,-0.8607033418809982,1.0202944672757237,-116.90353178561008,3.094348134689141,-33.871602322817786
7.0,6.43,-4.37,1.5983735711995262,-0.590534606701695,-0.5150877802954543,-116.51040454017948,5.353372863141336,-34.20715457242007
7.0,6.43,-4.37,1.5983735711995262,-0.590534606701695,-0.5150877802954543,-116.51040454017948,5.353372863141336,-34.20715457242007
6.24,6.17,-3.72,1.1982972229212216,0.230567034405245,0.3538291190044837,-117.38702490663178,7.648935698119245,-34.267106355147284
6.24,6.17,-3.72,1.1982972229212216,0.230567034405245,0.3538291190044837,-117.38702490663178,7.648935698119245,-34.267106355147284
5.9,6.23,-4.05,0.6409387153799468,0.2350592939420952,0.3430700911357789,-117.63003319551184,9.119652615329128,-34.30308206548676
5.9,6.23,-4.05,0.6409387153799468,0.2350592939420952,0.3430700911357789,-117.63003319551184,9.119652615329128,-34.30308206548676
5.63,6.35,-4.31,0.1102867381211534,0.3397462462034997,0.2951880028312565,-117.82949322355816,11.052294827398208,-34.36304933185503
5.63,6.35,-4.31,0.1102867381211534,0.3397462462034997,0.2951880028312565,-117.82949322355816,11.052294827398208,-34.36304933185503
7.52,6.03,-5.23,1.2885984792507517,-0.4548608625859067,-1.0743800778446635,-118.31950504112476,12.538402281482076,-34.23113412634732
7.52,6.03,-5.23,1.2885984792507517,-0.4548608625859067,-1.0743800778446635,-118.31950504112476,12.538402281482076,-34.23113412634732
6.77,5.43,-4.43,1.229626229005237,0.1416810571417084,0.1417316964141086,-119.37830144711693,14.107452479907948,-33.811713840931375
6.77,5.43,-4.43,1.229626229005237,0.1416810571417084,0.1417316964141086,-119.37830144711693,14.107452479907948,-33.811713840931375
7.69,5.46,-5.26,1.5652205436317748,-0.216802554309345,-0.8759705259869648,-120.06296278033024,15.170359975770204,-33.644076625825655
7.69,5.46,-5.26,1.5652205436317748,-0.216802554309345,-0.8759705259869648,-120.06296278033024,15.170359975770204,-33.644076625825655
7.44,5.01,-5.51,1.4089604056174367,-0.4633032898566025,-0.6151531375098624,-120.66212588661212,16.16513427708501,-33.57225481905068
7.44,5.01,-5.51,1.4089604056174367,-0.4633032898566025,-0.6151531375098624,-120.66212588661212,16.16513427708501,-33.57225481905068
6.76,5.07,-5.76,0.6726964046171804,-0.4626413915226944,-0.3871492176648808,-121.01031078825766,16.848301053200124,-33.69196539056284
6.76,5.07,-5.76,0.6726964046171804,-0.4626413915226944,-0.3871492176648808,-121.01031078825766,16.848301053200124,-33.69196539056284
6.08,5.32,-5.29,0.1492392015536642,0.150085743037788,0.1522156856314769,-121.33697927503368,17.277034050168414,-33.83566809114509
6.08,5.32,-5.29,0.1492392015536642,0.150085743037788,0.1522156856314769,-121.33697927503368,17.277034050168414,-33.83566809114509
6.06,3.71,-5.54,0.778936090762326,-1.0195011367210651,0.8885125263605413,-121.97171183603344,17.32339805412093,-33.883581162404816
6.06,3.71,-5.54,0.778936090762326,-1.0195011367210651,0.8885125263605413,-121.97171183603344,17.32339805412093,-33.883581162404816
7.54,5.07,-6.56,0.7203284966650093,-0.5216104358601217,-1.3647039649450807,-122.18470178965724,17.891591511712036,-34.53100937438062
7.54,5.07,-6.56,0.7203284966650093,-0.5216104358601217,-1.3647039649450807,-122.18470178965724,17.891591511712036,-34.53100937438062
7.2,4.79,-6.33,0.6331779660635579,-0.53047018771798,-0.8784184154681025,-122.18470178965724,18.08882279446736,-34.73506381234489
7.2,4.79,-6.33,0.6331779660635579,-0.53047018771798,-0.8784184154681025,-122.18470178965724,18.08882279446736,-34.73506381234489
6.02,5.9,-5.4,-0.3938420006671815,0.8426098470629082,-0.1605611006109981,-122.3033398527211,18.27450160119409,-34.42302630295278
6.02,5.9,-5.4,-0.3938420006671815,0.8426098470629082,-0.1605611006109981,-122.3033398527211,18.27450160119409,-34.42302630295278
5.72,5.27,-5.35,-0.2665900214228613,0.4765646106315176,0.3824462706459162,-122.82802018843608,18.019205613951,-34.30308206548676
5.72,5.27,-5.35,-0.2665900214228613,0.4765646106315176,0.3824462706459162,-122.82802018843608,18.019205613951,-34.30308206548676
6.58,4.84,-5.72,0.4871527691303167,0.063058006678665,-0.1532247917492615,-123.62341692773376,17.32339805412093,-34.36304933185503
6.58,4.84,-5.72,0.4871527691303167,0.063058006678665,-0.1532247917492615,-123.62341692773376,17.32339805412093,-34.36304933185503
7.11,3.69,-6.35,1.1474467705025575,-1.0805762922763704,-0.2931728096057924,-124.20841744814189,16.929394296591493,-34.555009904291715
7.11,3.69,-6.35,1.1474467705025575,-1.0805762922763704,-0.2931728096057924,-124.20841744814189,16.929394296591493,-34.555009904291715
6.87,5.06,-6.22,0.3434213423526947,0.0694835138863734,-0.7463653900633833,-124.33100356461244,17.033669594732867,-34.77108519878443
6.87,5.06,-6.22,0.3434213423526947,0.0694835138863734,-0.7463653900633833,-124.33100356461244,17.033669594732867,-34.77108519878443
6.51,5.32,-5.67,0.2018005826607458,0.6202255230958054,-0.3129348148695463,-124.45383854948406,17.056843809922572,-34.63902408126335
6.51,5.32,-5.67,0.2018005826607458,0.6202255230958054,-0.3129348148695463,-124.45383854948406,17.056843809922572,-34.63902408126335
6.44,4.5,-6.19,0.3347531262814246,-0.3699214557964549,-0.1828844466589796,-124.57692406667049,16.651395613206027,-34.56701075551299
6.44,4.5,-6.19,0.3347531262814246,-0.3699214557964549,-0.1828844466589796,-124.57692406667049,16.651395613206027,-34.56701075551299
6.01,4.73,-6.04,-0.0489277328438567,-0.1942955005895221,0.063218605701099,-124.33100356461244,16.350341655632345,-34.747070547478
6.01,4.73,-6.04,-0.0489277328438567,-0.1942955005895221,0.063218605701099,-124.33100356461244,16.350341655632345,-34.747070547478
5.1,4.28,-5.27,-0.3183221036436936,-0.1835423365264201,1.3233556370161086,-123.502242338284,15.841123321226055,-35.63667282414923
5.1,4.28,-5.27,-0.3183221036436936,-0.1835423365264201,1.3233556370161086,-123.502242338284,15.841123321226055,-35.63667282414923
6.42,4.48,-6.05,0.040127262918083,-0.6346112053557142,-0.0667971397181084,-122.3270942285192,15.505674829864253,-37.1323824635344
6.42,4.48,-6.05,0.040127262918083,-0.6346112053557142,-0.0667971397181084,-122.3270942285192,15.505674829864253,-37.1323824635344
7.34,5.09,-6.33,0.0368955024731363,-0.485323711746009,-1.1302462515292395,-120.96377821929032,15.366907820940328,-38.82902123966127
7.34,5.09,-6.33,0.0368955024731363,-0.485323711746009,-1.1302462515292395,-120.96377821929032,15.366907820940328,-38.82902123966127
7.81,5.1,-6.22,0.3284163587861748,-0.3219955077356671,-1.3952677638598858,-120.94052444578816,15.52880488350912,-39.33972504606741
7.81,5.1,-6.22,0.3284163587861748,-0.3219955077356671,-1.3952677638598858,-120.94052444578816,15.52880488350912,-39.33972504606741
5.99,4.36,-5.1,-0.1183744999239701,-0.0612769894155449,0.8132116915255398,-121.29021101561548,15.551935573755918,-39.32755601712488
5.99,4.36,-5.1,-0.1183744999239701,-0.0612769894155449,0.8132116915255398,-121.29021101561548,15.551935573755918,-39.32755601712488
7.2,5.76,-5.65,-0.1804003022576885,0.6574465052644531,-0.98572322481302,-121.2668396082864,15.575066901599747,-39.54666937259589
7.2,5.76,-5.65,-0.1804003022576885,0.6574465052644531,-0.98572322481302,-121.2668396082864,15.575066901599747,-39.54666937259589
8.72,5.35,-7.07,0.392622351686463,-0.6301511136168707,-2.6068328820506133,-121.08017234591216,15.29753283007483,-39.74156329781962
8.72,5.35,-7.07,0.392622351686463,-0.6301511136168707,-2.6068328820506133,-121.08017234591216,15.29753283007483,-39.74156329781962
9.39,7.45,-7.44,-0.182154101501926,0.7556125325152759,-4.279657876232578,-121.40719542947475,15.52880488350912,-39.30321934435096
9.39,7.45,-7.44,-0.182154101501926,0.7556125325152759,-4.279657876232578,-121.40719542947475,15.52880488350912,-39.30321934435096
5.09,8.7,-5.53,-2.8151866991692938,2.860772887454445,-0.966914978001748,-121.8536919796764,15.29753283007483,-38.464723978916496
5.09,8.7,-5.53,-2.8151866991692938,2.860772887454445,-0.966914978001748,-121.8536919796764,15.29753283007483,-38.464723978916496
2.89,8.6,-4.2,-3.5730717927780296,3.687529875007114,1.228341228185826,-122.68448977939887,14.280666944469896,-37.846342205002045
2.89,8.6,-4.2,-3.5730717927780296,3.687529875007114,1.228341228185826,-122.68448977939887,14.280666944469896,-37.846342205002045
4.73,8.74,-5.73,-2.8984196769177686,3.0754353478558683,-0.8579766131362785,-123.91521633901591,13.622622983127284,-37.95538472991653
4.73,8.74,-5.73,-2.8984196769177686,3.0754353478558683,-0.8579766131362785,-123.91521633901591,13.622622983127284,-37.95538472991653
4.36,8.48,-4.69,-2.369162303920427,3.8998821288489567,0.2100834598895762,-125.64605206137207,12.03128766143814,-38.31911836146923
4.36,8.48,-4.69,-2.369162303920427,3.8998821288489567,0.2100834598895762,-125.64605206137207,12.03128766143814,-38.31911836146923
6.78,6.73,-6.56,-0.7952430295558073,1.5768985687905026,-1.6465538935701038,-126.6838681332996,10.235170717586842,-39.10859227464813
6.78,6.73,-6.56,-0.7952430295558073,1.5768985687905026,-1.6465538935701038,-126.6838681332996,10.235170717586842,-39.10859227464813
4.78,5.67,-5.41,-1.1026025397423578,1.6228300171562968,0.8391480973088026,-128.3687376178253,7.442222882076424,-39.19372713365675
4.78,5.67,-5.41,-1.1026025397423578,1.6228300171562968,0.8391480973088026,-128.3687376178253,7.442222882076424,-39.19372713365675
4.62,3.16,-5.46,-0.4558869825484518,-0.4471373773192562,2.013458405733444,-129.2975202216285,5.15836210329675,-39.37623490539532
4.62,3.16,-5.46,-0.4558869825484518,-0.4471373773192562,2.013458405733444,-129.2975202216285,5.15836210329675,-39.37623490539532
5.13,3.32,-5.8,-0.3037356078357034,-0.5946944651133466,1.4082344843389514,-129.32429015652528,2.4982938949536853,-39.96096228867753
5.13,3.32,-5.8,-0.3037356078357034,-0.5946944651133466,1.4082344843389514,-129.32429015652528,2.4982938949536853,-39.96096228867753
6.34,2.57,-6.17,0.5282066825469736,-1.664740959394376,0.7612624881999981,-129.21728949054742,0.9052827329224428,-40.31476039756773
6.34,2.57,-6.17,0.5282066825469736,-1.664740959394376,0.7612624881999981,-129.21728949054742,0.9052827329224428,-40.31476039756773
5.64,2.19,-6.05,0.0590462365293514,-1.943698645316785,1.4743784538881342,-128.60607229870925,-0.8938232239278141,-40.9501654253067
5.64,2.19,-6.05,0.0590462365293514,-1.943698645316785,1.4743784538881342,-128.60607229870925,-0.8938232239278141,-40.9501654253067
5.96,3.81,-4.81,0.736402390021014,-0.1745758734256151,1.2860259157917877,-127.636771729627,-1.7877008349543104,-41.69722676024061
5.96,3.81,-4.81,0.736402390021014,-0.1745758734256151,1.2860259157917877,-127.636771729627,-1.7877008349543104,-41.69722676024061
7.33,4.33,-5.53,1.0003753291504445,-0.5762170258337211,-0.2792769846636531,-125.97311846044452,-3.094348134689141,-43.135358011103925
7.33,4.33,-5.53,1.0003753291504445,-0.5762170258337211,-0.2792769846636531,-125.97311846044452,-3.094348134689141,-43.135358011103925
6.2,4.73,-4.49,0.7068171746246493,0.3130222719538902,0.8414156729499531,-124.60157138168796,-4.321125783265932,-44.12280269978493
6.2,4.73,-4.49,0.7068171746246493,0.3130222719538902,0.8414156729499531,-124.60157138168796,-4.321125783265932,-44.12280269978493
6.54,5.38,-4.49,0.7620667756851153,0.7231718436930517,0.2791961578716346,-123.86648635871312,-4.917487034889402,-44.96484726352389
6.54,5.38,-4.49,0.7620667756851153,0.7231718436930517,0.2791961578716346,-123.86648635871312,-4.917487034889402,-44.96484726352389
7.26,4.95,-4.23,1.4510930621127227,0.2827047924789054,0.1672824416278313,-123.5991628945627,-5.525454047712893,-45.57320299258629
7.26,4.95,-4.23,1.4510930621127227,0.2827047924789054,0.1672824416278313,-123.5991628945627,-5.525454047712893,-45.57320299258629
7.31,3.85,-4.82,1.078598227195466,-1.0050439756961465,0.3558557227337928,-122.7801400993836,-6.879625535030392,-46.56937120855181
7.31,3.85,-4.82,1.078598227195466,-1.0050439756961465,0.3558557227337928,-122.7801400993836,-6.879625535030392,-46.56937120855181
7.36,2.25,-5.43,0.716339657795185,-2.6624657101291205,0.8002559470475871,-122.3270942285192,-8.177316654862214,-47.29392563415834
7.36,2.25,-5.43,0.716339657795185,-2.6624657101291205,0.8002559470475871,-122.3270942285192,-8.177316654862214,-47.29392563415834
7.53,2.79,-5.03,1.0378819100795735,-2.054125199627238,0.6148454543742652,-122.3033398527211,-8.556479215940191,-47.619376147320615
7.53,2.79,-5.03,1.0378819100795735,-2.054125199627238,0.6148454543742652,-122.3033398527211,-8.556479215940191,-47.619376147320615
9.59,3.68,-6.04,1.4573138175189873,-2.314855958624671,-1.7911850707400614,-121.92447762133864,-8.544988083393589,-48.27150646713053
9.59,3.68,-6.04,1.4573138175189873,-2.314855958624671,-1.7911850707400614,-121.92447762133864,-8.544988083393589,-48.27150646713053
7.76,5.02,-4.6,1.2307744992854668,0.0091030897075889,-0.4433798177940122,-121.92447762133864,-8.395611151395807,-48.30917991037589
7.76,5.02,-4.6,1.2307744992854668,0.0091030897075889,-0.4433798177940122,-121.92447762133864,-8.395611151395807,-48.30917991037589
7.7,4.66,-4.4,1.3682675498994947,-0.2009971612916228,-0.1157007322128453,-121.92447762133864,-8.430081473298436,-48.3342986251064
7.7,4.66,-4.4,1.3682675498994947,-0.2009971612916228,-0.1157007322128453,-121.92447762133864,-8.430081473298436,-48.3342986251064
7.99,4.02,-4.14,1.7754443989657889,-0.6864523471668238,0.1362477146113399,-121.99534211175566,-8.476043091817116,-48.58562199629408
7.99,4.02,-4.14,1.7754443989657889,-0.6864523471668238,0.1362477146113399,-121.99534211175566,-8.476043091817116,-48.58562199629408
8.82,3.54,-5.82,1.0563364735530856,-1.7176608713263088,-1.1537420726293384,-122.61284780254854,-7.763786880218299,-48.81202590600522
8.82,3.54,-5.82,1.0563364735530856,-1.7176608713263088,-1.1537420726293384,-122.61284780254854,-7.763786880218299,-48.81202590600522
8.21,2.68,-5.51,1.01641673787074,-2.091663685114852,-0.1702453108343267,-123.09201996316364,-7.292945412680463,-48.51019892418311
8.21,2.68,-5.51,1.01641673787074,-2.091663685114852,-0.1702453108343267,-123.09201996316364,-7.292945412680463,-48.51019892418311
8.19,4.51,-6.38,0.1042228347757011,-1.226816248805903,-1.4452235992001403,-121.54785831198568,-7.568544455864769,-48.72395587995984
8.19,4.51,-6.38,0.1042228347757011,-1.226816248805903,-1.4452235992001403,-121.54785831198568,-7.568544455864769,-48.72395587995984
8.92,5.94,-6.69,0.1698987491709356,-0.5819681873966092,-2.81232568917099,-120.82438029207812,-7.94756506816392,-48.82460984436268
8.92,5.94,-6.69,0.1698987491709356,-0.5819681873966092,-2.81232568917099,-120.82438029207812,-7.94756506816392,-48.82460984436268
6.49,5.19,-3.84,0.9215663421120184,0.5789625820698685,0.7172430993463959,-120.96377821929032,-8.050949266749551,-47.92015436839679
6.49,5.19,-3.84,0.9215663421120184,0.5789625820698685,0.7172430993463959,-120.96377821929032,-8.050949266749551,-47.92015436839679
7.06,6.27,-4.29,0.8601015983886507,1.1763949281764394,-0.4615981569842287,-121.12678863705332,-8.096899901459961,-48.03303658033746
7.06,6.27,-4.29,0.8601015983886507,1.1763949281764394,-0.4615981569842287,-121.12678863705332,-8.096899901459961,-48.03303658033746
7.23,5.7,-4.85,0.5581066950248934,0.3946153068620157,-0.5769040965778469,-120.777980646449,-8.522006076442151,-48.47249577682955
7.23,5.7,-4.85,0.5581066950248934,0.3946153068620157,-0.5769040965778469,-120.777980646449,-8.522006076442151,-48.47249577682955
7.48,4.44,-5.65,0.1761347322479279,-1.081136560509498,-0.5077389927433753,-120.50027377126791,-8.935735653853007,-48.862365423932296
7.48,4.44,-5.65,0.1761347322479279,-1.081136560509498,-0.5077389927433753,-120.50027377126791,-8.935735653853007,-48.862365423932296
9.28,5.54,-5.67,1.163038250638864,-0.7363317594516228,-2.3203470548183827,-120.3388206480064,-8.901253805563371,-49.24023317275956
9.28,5.54,-5.67,1.163038250638864,-0.7363317594516228,-2.3203470548183827,-120.3388206480064,-8.901253805563371,-49.24023317275956
11.52,6.97,-5.96,2.280716990683868,-0.3411260714218955,-4.736212957884264,-120.5695899160874,-8.878266355561609,-49.21502427217554
11.52,6.97,-5.96,2.280716990683868,-0.3411260714218955,-4.736212957884264,-120.5695899160874,-8.878266355561609,-49.21502427217554
12.09,5.99,-6.74,2.339162420045988,-1.675367684742735,-4.998661962048097,-121.2668396082864,-9.844059122531188,-48.61076799855758
12.09,5.99,-6.74,2.339162420045988,-1.675367684742735,-4.998661962048097,-121.2668396082864,-9.844059122531188,-48.61076799855758
9.65,6.09,-5.47,2.0583498906679805,-0.4394686717295757,-2.671393236587832,-121.99534211175566,-11.397725602729444,-47.30643546064212
9.65,6.09,-5.47,2.0583498906679805,-0.4394686717295757,-2.671393236587832,-121.99534211175566,-11.397725602729444,-47.30643546064212
9.33,4.8,-5.29,2.3133382604716446,-1.4178710827987773,-1.6262458573583218,-122.9958904624243,-12.757459245108164,-46.05837506360943
9.33,4.8,-5.29,2.3133382604716446,-1.4178710827987773,-1.6262458573583218,-122.9958904624243,-12.757459245108164,-46.05837506360943
9.12,3.49,-5.5,2.4841361586141213,-2.3398730452474363,-0.8684875484154944,-125.62096841990898,-14.026630173419028,-43.87562138331682
9.12,3.49,-5.5,2.4841361586141213,-2.3398730452474363,-0.8684875484154944,-125.62096841990898,-14.026630173419028,-43.87562138331682
7.35,2.39,-5.38,1.6020953608040445,-2.389712499304064,0.8399580444592019,-127.7407542896587,-14.511670666824136,-42.163546289132256
7.35,2.39,-5.38,1.6020953608040445,-2.389712499304064,0.8399580444592019,-127.7407542896587,-14.511670666824136,-42.163546289132256
6.15,1.9,-4.17,1.8470473440500577,-1.9057030581908416,2.6109490638270887,-129.88954402446632,-15.031647378904806,-40.1073131219034
6.15,1.9,-4.17,1.8470473440500577,-1.9057030581908416,2.6109490638270887,-129.88954402446632,-15.031647378904806,-40.1073131219034
5.38,2.07,-5.19,0.7465690459492811,-1.7711008927910992,2.291915388106844,-130.6800872399157,-15.436288478593855,-39.096431986883005
5.38,2.07,-5.19,0.7465690459492811,-1.7711008927910992,2.291915388106844,-130.6800872399157,-15.436288478593855,-39.096431986883005
5.16,3.12,-4.84,1.0864152146920711,-0.6374087597061753,2.1778223014387432,-131.84655671079122,-15.1934809103634,-37.88268575548643
5.16,3.12,-4.84,1.0864152146920711,-0.6374087597061753,2.1778223014387432,-131.84655671079122,-15.1934809103634,-37.88268575548643
5.04,2.62,-5.42,0.6950965374631873,-1.100899768736484,2.0640883759118407,-133.06899702903365,-14.638747929971784,-37.02360533619834
5.04,2.62,-5.42,0.6950965374631873,-1.100899768736484,2.0640883759118407,-133.06899702903365,-14.638747929971784,-37.02360533619834
4.27,3.39,-5.08,0.4905450031143377,0.0068049678221702,2.370877054815855,-134.0866361818657,-13.772662665221276,-36.19078597526285
4.27,3.39,-5.08,0.4905450031143377,0.0068049678221702,2.370877054815855,-134.0866361818657,-13.772662665221276,-36.19078597526285
4.7,3.27,-4.73,1.0565627467587275,-0.0864460162731879,2.4560036169645496,-134.64810211296725,-12.907367253850758,-35.865440443720345
4.7,3.27,-4.73,1.0565627467587275,-0.0864460162731879,2.4560036169645496,-134.64810211296725,-12.907367253850758,-35.865440443720345
5.03,4.54,-4.61,1.4070408865761477,0.9326280599965008,1.7869841188544395,-134.38132917213414,-11.754779974813852,-35.97385559965812
5.03,4.54,-4.61,1.4070408865761477,0.9326280599965008,1.7869841188544395,-134.38132917213414,-11.754779974813852,-35.97385559965812
4.3,7.11,-3.91,1.2577423082111676,3.4132480115228083,1.3746856797498666,-132.86795984370113,-11.558962006616271,-36.33548075823788
4.3,7.11,-3.91,1.2577423082111676,3.4132480115228083,1.3746856797498666,-132.86795984370113,-11.558962006616271,-36.33548075823788
3.82,6.22,-4.81,0.2219020518219558,2.2658211084512168,1.36664323555401,-131.67829939723129,-11.962154211464537,-36.66126379400549
3.82,6.22,-4.81,0.2219020518219558,2.2658211084512168,1.36664323555401,-131.67829939723129,-11.962154211464537,-36.66126379400549
5.28,5.74,-5.13,1.1116339680371523,1.2313064693902884,0.6201896207492652,-131.56643317341502,-11.754779974813852,-36.769926221818416
5.28,5.74,-5.13,1.1116339680371523,1.2313064693902884,0.6201896207492652,-131.56643317341502,-11.754779974813852,-36.769926221818416
4.52,5.59,-5.95,0.058862188919572,0.8197132029747825,0.5111884456938096,-130.9830718545965,-12.273289521851868,-36.263125888125366
4.52,5.59,-5.95,0.058862188919572,0.8197132029747825,0.5111884456938096,-130.9830718545965,-12.273289521851868,-36.263125888125366
1.36,5.48,-4.61,-1.51128649544793,2.060983981801141,2.9801971762096056,-130.052143359472,-12.976563032466052,-35.16755548021839
1.36,5.48,-4.61,-1.51128649544793,2.060983981801141,2.9801971762096056,-130.052143359472,-12.976563032466052,-35.16755548021839
4.87,7.75,-6.42,0.2576650145876238,1.4488227245639802,-1.2762341667250396,-128.71188283967422,-13.426452603767608,-34.795101425948374
4.87,7.75,-6.42,0.2576650145876238,1.4488227245639802,-1.2762341667250396,-128.71188283967422,-13.426452603767608,-34.795101425948374
4.25,7.08,-5.91,0.1956623786291597,0.9768262013358432,-0.2990180534229392,-127.84492955883974,-13.98044914927855,-33.548317235556404
4.25,7.08,-5.91,0.1956623786291597,0.9768262013358432,-0.2990180534229392,-127.84492955883974,-13.98044914927855,-33.548317235556404
2.12,6.41,-5.53,-1.2288403437330715,1.219994184329252,1.2529978209704566,-127.14545121783674,-14.349961892702815,-32.592035674709635
2.12,6.41,-5.53,-1.2288403437330715,1.219994184329252,1.2529978209704566,-127.14545121783674,-14.349961892702815,-32.592035674709635
2.63,6.36,-4.87,-0.4089753605500647,0.98238310154452,1.4429748152344697,-125.821937957947,-14.569430825374988,-31.90019165418321
2.63,6.36,-4.87,-0.4089753605500647,0.98238310154452,1.4429748152344697,-125.821937957947,-14.569430825374988,-31.90019165418321
3.88,4.86,-5.57,0.0712901295292525,-1.1458926224824104,1.5373847475623883,-124.82385344491156,-14.419262116395176,-32.23403459047365
3.88,4.86,-5.57,0.0712901295292525,-1.1458926224824104,1.5373847475623883,-124.82385344491156,-14.419262116395176,-32.23403459047365
1.98,3.17,-6.37,-2.1728215199886924,-2.227279966338892,3.108570380152276,-122.44600053491276,-14.754288420181696,-33.4525819599508
1.98,3.17,-6.37,-2.1728215199886924,-2.227279966338892,3.108570380152276,-122.44600053491276,-14.754288420181696,-33.4525819599508
-1.26,7.48,-4.09,-3.5878753883134613,3.1307736209600585,2.6239272062235908,-119.06117764081604,-14.84673166768115,-34.86715957624261
-1.26,7.48,-4.09,-3.5878753883134613,3.1307736209600585,2.6239272062235908,-119.06117764081604,-14.84673166768115,-34.86715957624261
1.04,8.0,-2.64,-1.3882765855450607,3.1061202173605738,2.0300244260552667,-115.40818530642284,-14.315313760812993,-38.52541202617238
1.04,8.0,-2.64,-1.3882765855450607,3.1061202173605738,2.0300244260552667,-115.40818530642284,-14.315313760812993,-38.52541202617238
9.02,9.39,-4.64,1.816393557984052,-0.9949922375494272,-3.859834730527103,-111.44102705802788,-13.865006554805133,-44.7293144859979
9.02,9.39,-4.64,1.816393557984052,-0.9949922375494272,-3.859834730527103,-111.44102705802788,-13.865006554805133,-44.7293144859979
7.95,9.17,-6.13,-0.5786822479844151,-1.4241244200017211,-3.702802116656047,-109.57120014176904,-13.807290567361374,-47.431566664841
7.95,9.17,-6.13,-0.5786822479844151,-1.4241244200017211,-3.702802116656047,-109.57120014176904,-13.807290567361374,-47.431566664841
5.92,10.42,-5.09,-1.817120380601398,1.0588268906667482,-3.042780304025312,-107.8992703852027,-12.849707716341904,-49.70705837910808
5.92,10.42,-5.09,-1.817120380601398,1.0588268906667482,-3.042780304025312,-107.8992703852027,-12.849707716341904,-49.70705837910808
8.2,10.24,-6.68,-2.03015148158995,-0.6234552053472457,-4.760772166214705,-107.86033561317936,-11.570479767497384,-51.54513650446032
8.2,10.24,-6.68,-2.03015148158995,-0.6234552053472457,-4.760772166214705,-107.86033561317936,-11.570479767497384,-51.54513650446032
6.81,8.97,-5.64,-1.9634948597894883,0.2626723663126817,-2.632091542598109,-109.05615676372436,-9.947577287046574,-52.14396705080251
6.81,8.97,-5.64,-1.9634948597894883,0.2626723663126817,-2.632091542598109,-109.05615676372436,-9.947577287046574,-52.14396705080251
16.2,11.02,-9.49,0.3503097319819255,-4.281796081124711,-11.53542125401244,-109.82995506205258,-8.786320126014099,-51.876216427159775
16.2,11.02,-9.49,0.3503097319819255,-4.281796081124711,-11.53542125401244,-109.82995506205258,-8.786320126014099,-51.876216427159775
22.2,20.87,-11.05,3.676377326650228,0.5227674412436869,-22.39133695500184,-115.23680905302648,-5.5598717686300585,-45.37440798509372
22.2,20.87,-11.05,3.676377326650228,0.5227674412436869,-22.39133695500184,-115.23680905302648,-5.5598717686300585,-45.37440798509372
8.1,12.62,-4.2,2.6726428202699424,5.125757964867264,-4.653570801940038,-126.6328096707232,-3.919795697049856,-34.00339056621902
8.1,12.62,-4.2,2.6726428202699424,5.125757964867264,-4.653570801940038,-126.6328096707232,-3.919795697049856,-34.00339056621902
5.59,7.63,-6.67,1.989618991360776,2.089481187397808,-1.401801482552223,-139.40365501423122,-3.610231319265168,-23.776088713509264
5.59,7.63,-6.67,1.989618991360776,2.089481187397808,-1.401801482552223,-139.40365501423122,-3.610231319265168,-23.776088713509264
6.04,4.49,-8.24,3.4572778002451923,-0.1059152798907718,-0.8035013733507821,-149.54912686270868,-3.15166519950434,-15.933684759016296
6.04,4.49,-8.24,3.4572778002451923,-0.1059152798907718,-0.8035013733507821,-149.54912686270868,-3.15166519950434,-15.933684759016296
3.68,4.37,-6.73,2.49038897463847,1.256329365790214,1.4309829053948009,-155.6456486519571,-3.082884815106741,-9.98208514628972
3.68,4.37,-6.73,2.49038897463847,1.256329365790214,1.4309829053948009,-155.6456486519571,-3.082884815106741,-9.98208514628972
2.35,4.23,-5.87,2.2390923701503143,2.0724044428670463,2.837869247018914,-161.64573705685663,-3.495584654482353,-2.6931495578860725
2.35,4.23,-5.87,2.2390923701503143,2.0724044428670463,2.837869247018914,-161.64573705685663,-3.495584654482353,-2.6931495578860725
0.26,0.93,-5.52,0.5153358999980873,-0.4519720051895652,4.2449011548346505,-165.4050127335264,-3.5987664920103746,2.4639083675369537
0.26,0.93,-5.52,0.5153358999980873,-0.4519720051895652,4.2449011548346505,-165.4050127335264,-3.5987664920103746,2.4639083675369537
-0.62,0.75,-5.18,0.2587357799063072,-0.1508280037502087,4.544558523269383,-165.6781993872616,-3.988591587846416,9.349581983346614
-0.62,0.75,-5.18,0.2587357799063072,-0.1508280037502087,4.544558523269383,-165.6781993872616,-3.988591587846416,9.349581983346614
-3.55,0.23,-3.2,-2.6470303251259626,0.0107411059243116,5.820609974296912,-163.37954086931006,-4.573417240623146,14.130545861300051
-3.55,0.23,-3.2,-2.6470303251259626,0.0107411059243116,5.820609974296912,-163.37954086931006,-4.573417240623146,14.130545861300051
-3.46,-1.53,-4.15,-2.0771364148126303,-1.582004177486541,4.834953398569612,-160.12726585571855,-4.96336629149859,18.88991127772655
-3.46,-1.53,-4.15,-2.0771364148126303,-1.582004177486541,4.834953398569612,-160.12726585571855,-4.96336629149859,18.88991127772655
-4.21,-1.85,-5.23,-1.9981318722568808,-1.6617855075952823,3.3455790401809145,-156.36226771891504,-5.387788121139308,22.99205586322248
-4.21,-1.85,-5.23,-1.9981318722568808,-1.6617855075952823,3.3455790401809145,-156.36226771891504,-5.387788121139308,22.99205586322248
-5.04,-1.98,-4.6,-2.6653212115755447,-1.5650161928064807,3.4090889682177323,-153.2614432071201,-5.663127955663872,26.1233774379412
-5.04,-1.98,-4.6,-2.6653212115755447,-1.5650161928064807,3.4090889682177323,-153.2614432071201,-5.663127955663872,26.1233774379412
-6.68,-1.84,-4.32,-3.920057267183489,-1.1528284460300695,2.737382881265141,-150.61456567249238,-6.01882390838285,28.74204597594341
-6.68,-1.84,-4.32,-3.920057267183489,-1.1528284460300695,2.737382881265141,-150.61456567249238,-6.01882390838285,28.74204597594341
-5.94,-1.58,-5.65,-2.587826456449404,-0.935988763690989,1.9244181291689493,-150.29995438645182,-6.386054856968827,28.93135507220408
-5.94,-1.58,-5.65,-2.587826456449404,-0.935988763690989,1.9244181291689493,-150.29995438645182,-6.386054856968827,28.93135507220408
-4.73,-1.2,-7.53,-0.7254371473650651,-0.6954832490811328,0.8901571919801103,-151.1157235364922,-6.569694717687418,28.05646742034004
-4.73,-1.2,-7.53,-0.7254371473650651,-0.6954832490811328,0.8901571919801103,-151.1157235364922,-6.569694717687418,28.05646742034004
-4.28,-1.01,-8.17,-0.0663673863122847,-0.5461570142331074,0.5446465511862346,-151.43912137388486,-6.615607303690656,27.70226118700864
-4.28,-1.01,-8.17,-0.0663673863122847,-0.5461570142331074,0.5446465511862346,-151.43912137388486,-6.615607303690656,27.70226118700864
-5.27,-1.27,-7.52,-1.2525937259074766,-0.6536240171830628,0.6447733034940555,-151.34635737161238,-6.627085616027942,27.77308072525798
-5.27,-1.27,-7.52,-1.2525937259074766,-0.6536240171830628,0.6447733034940555,-151.34635737161238,-6.627085616027942,27.77308072525798
-5.24,-0.98,-8.51,-0.7753713365668025,-0.3598140516431704,-0.1987202149730969,-151.57882322936237,-6.730393436549607,27.537057504249983
-5.24,-0.98,-8.51,-0.7753713365668025,-0.3598140516431704,-0.1987202149730969,-151.57882322936237,-6.730393436549607,27.537057504249983
-3.13,-0.15,-9.87,1.666788872956776,0.1586974939872915,-0.412593120622466,-152.28767595523584,-6.799268354310192,26.806136930452627
-3.13,-0.15,-9.87,1.666788872956776,0.1586974939872915,-0.412593120622466,-152.28767595523584,-6.799268354310192,26.806136930452627
-3.53,-0.28,-9.18,0.9692903259403208,0.062115412693442,0.0154132068494821,-152.3835367338065,-6.89110540785609,26.71190613338563
-3.53,-0.28,-9.18,0.9692903259403208,0.062115412693442,0.0154132068494821,-152.3835367338065,-6.89110540785609,26.71190613338563
-4.17,-0.71,-9.14,0.3565975878501033,-0.2709621356266048,-0.2547623104759076,-152.1444912618588,-7.155161830094744,26.82969751246112
-4.17,-0.71,-9.14,0.3565975878501033,-0.2709621356266048,-0.2547623104759076,-152.1444912618588,-7.155161830094744,26.82969751246112
-3.76,-0.61,-9.11,0.7284694036259193,-0.21574699301495,-0.0383784693842255,-152.1444912618588,-7.017388604693049,26.888604025029306
-3.76,-0.61,-9.11,0.7284694036259193,-0.21574699301495,-0.0383784693842255,-152.1444912618588,-7.017388604693049,26.888604025029306
-4.0,-0.61,-8.63,0.3204128672343972,-0.1791850943419358,0.2822482709423521,-152.00202441389632,-7.086273935339353,27.0182238619502
-4.0,-0.61,-8.63,0.3204128672343972,-0.1791850943419358,0.2822482709423521,-152.00202441389632,-7.086273935339353,27.0182238619502
-4.08,-0.63,-8.6,0.2371553754254232,-0.1860697334325679,0.2718487235072846,-151.95469309277132,-7.22405231414402,27.041794884833607
-4.08,-0.63,-8.6,0.2371553754254232,-0.1860697334325679,0.2718487235072846,-151.95469309277132,-7.22405231414402,27.041794884833607
-4.32,-0.94,-8.68,0.0269739232485486,-0.4630019968510136,0.0766293649562825,-151.95469309277132,-7.247016388579905,27.053580833430228
-4.32,-0.94,-8.68,0.0269739232485486,-0.4630019968510136,0.0766293649562825,-151.95469309277132,-7.247016388579905,27.053580833430228
-3.22,-0.16,-9.4,1.4287383663451834,0.1139078050536432,-0.0269521727788664,-151.8602645048557,-7.281463046960031,27.136090647491407
-3.22,-0.16,-9.4,1.4287383663451834,0.1139078050536432,-0.0269521727788664,-151.8602645048557,-7.281463046960031,27.136090647491407
-4.44,-0.62,-8.4,-0.0770569621009518,-0.2162141242971242,0.2879676501657453,-151.34635737161238,-7.338875609975954,27.64325314897049
-4.44,-0.62,-8.4,-0.0770569621009518,-0.2162141242971242,0.2879676501657453,-151.34635737161238,-7.338875609975954,27.64325314897049
-4.69,-0.45,-8.67,-0.1578990201226727,-0.0387701502490034,-0.0595075486556062,-151.34635737161238,-7.407773121999347,27.60785191517117
-4.69,-0.45,-8.67,-0.1578990201226727,-0.0387701502490034,-0.0595075486556062,-151.34635737161238,-7.407773121999347,27.60785191517117
-3.56,-0.49,-9.32,1.0756217217547317,-0.2309101213452397,-0.1213819513763532,-151.7661453802759,-7.155161830094744,27.28936124283988
-3.56,-0.49,-9.32,1.0756217217547317,-0.2309101213452397,-0.1213819513763532,-151.7661453802759,-7.155161830094744,27.28936124283988
-4.3,-0.35,-8.78,0.1986660832353013,-0.0060830168746241,0.025985667538853,-151.7661453802759,-6.833706733841952,27.324738438026905
-4.3,-0.35,-8.78,0.1986660832353013,-0.0060830168746241,0.025985667538853,-151.7661453802759,-6.833706733841952,27.324738438026905
-4.36,-0.24,-8.61,0.0807517241282071,0.060854535709135,0.1532010886246517,-151.7661453802759,-6.937025592767178,27.348324709600163
-4.36,-0.24,-8.61,0.0807517241282071,0.060854535709135,0.1532010886246517,-151.7661453802759,-6.937025592767178,27.348324709600163
-3.86,-0.07,-9.09,0.7428954799749813,0.1244656869834362,-0.0404416822479358,-151.8602645048557,-6.799268354310192,27.253986698732728
-3.86,-0.07,-9.09,0.7428954799749813,0.1244656869834362,-0.0404416822479358,-151.8602645048557,-6.799268354310192,27.253986698732728
-4.28,-0.45,-8.6,0.1340416981053005,-0.1981726884793256,0.1929274947104957,-151.71920090048613,-6.7533514707706495,27.43088596976693
-4.28,-0.45,-8.6,0.1340416981053005,-0.1981726884793256,0.1929274947104957,-151.71920090048613,-6.7533514707706495,27.43088596976693
-4.37,-0.02,-8.62,0.114462616229213,0.2159336873076084,0.1452851403038462,-151.67233263341282,-6.902585349926143,27.44268161964677
-4.37,-0.02,-8.62,0.114462616229213,0.2159336873076084,0.1452851403038462,-151.67233263341282,-6.902585349926143,27.44268161964677
-3.73,-0.17,-9.18,0.8941444922896059,-0.0114505799517079,-0.0632321933763204,-151.81316645370248,-6.833706733841952,27.301153346475186
-3.73,-0.17,-9.18,0.8941444922896059,-0.0114505799517079,-0.0632321933763204,-151.81316645370248,-6.833706733841952,27.301153346475186
-4.14,-0.39,-8.68,0.2882566983384194,-0.1630199826577744,0.1876878646593418,-151.7661453802759,-6.879625535030392,27.36011828826252
-4.14,-0.39,-8.68,0.2882566983384194,-0.1630199826577744,0.1876878646593418,-151.7661453802759,-6.879625535030392,27.36011828826252
-4.44,-0.45,-8.55,-0.0567692501564801,-0.1849780584908863,0.1639760777876784,-151.8602645048557,-6.879625535030392,27.27756943376897
-4.44,-0.45,-8.55,-0.0567692501564801,-0.1849780584908863,0.1639760777876784,-151.8602645048557,-6.879625535030392,27.27756943376897
-3.73,-0.3,-9.04,0.8104967245449088,-0.1365445647091234,0.0573448636659037,-151.8602645048557,-6.89110540785609,27.27756943376897
-3.73,-0.3,-9.04,0.8104967245449088,-0.1365445647091234,0.0573448636659037,-151.8602645048557,-6.89110540785609,27.27756943376897
-4.39,-0.41,-8.49,-0.0218452647429159,-0.1854692271067513,0.2418486978189289,-151.71920090048613,-6.925545442265205,27.3719121623715
-4.39,-0.41,-8.49,-0.0218452647429159,-0.1854692271067513,0.2418486978189289,-151.71920090048613,-6.925545442265205,27.3719121623715
-4.24,-0.28,-8.67,0.1744851222570521,-0.0734846739146325,0.1532021731968402,-151.95469309277132,-6.89110540785609,27.17145638329649
-4.24,-0.28,-8.67,0.1744851222570521,-0.0734846739146325,0.1532021731968402,-151.95469309277132,-6.89110540785609,27.17145638329649
-4.05,-0.4,-8.87,0.3640195929760389,-0.2093906810143365,0.0566220370332342,-152.28767595523584,-6.799268354310192,26.8414782366778
-4.05,-0.4,-8.87,0.3640195929760389,-0.2093906810143365,0.0566220370332342,-152.28767595523584,-6.799268354310192,26.8414782366778
-3.86,-0.18,-9.18,0.6392881870640754,-0.0336196672980544,-0.1328962840036691,-152.62462859250314,-6.764830589593756,26.5117266696815
-3.86,-0.18,-9.18,0.6392881870640754,-0.0336196672980544,-0.1328962840036691,-152.62462859250314,-6.764830589593756,26.5117266696815
-3.68,0.05,-9.06,0.7351336490582633,0.1625848170496462,0.0566938618788022,-152.81901206638815,-6.604129057804274,26.29986168212807
-3.68,0.05,-9.06,0.7351336490582633,0.1625848170496462,0.0566938618788022,-152.81901206638815,-6.604129057804274,26.29986168212807
-4.18,-0.36,-8.73,0.1015675004350336,-0.1780969614494304,0.1230109363433076,-152.81901206638815,-6.627085616027942,26.32339770363258
-4.18,-0.36,-8.73,0.1015675004350336,-0.1780969614494304,0.1230109363433076,-152.81901206638815,-6.627085616027942,26.32339770363258
-4.18,-0.18,-8.81,0.1441407284423535,-0.0199974321510409,0.0547412866705165,-152.91671705681662,-6.581172764918962,26.25279302590076
-4.18,-0.18,-8.81,0.1441407284423535,-0.0199974321510409,0.0547412866705165,-152.91671705681662,-6.581172764918962,26.25279302590076
-3.61,-0.13,-9.05,0.729023714292426,-0.0453139765669038,0.0897589813908581,-153.11317220133924,-6.48935022815341,26.05280141790223
-3.61,-0.13,-9.05,0.729023714292426,-0.0453139765669038,0.0897589813908581,-153.11317220133924,-6.48935022815341,26.05280141790223
-3.97,-0.14,-8.77,0.2848950685258227,-0.0212576360954484,0.1831484068771853,-153.1625065187994,-6.3975318623814825,26.06456338881546
-3.97,-0.14,-8.77,0.2848950685258227,-0.0212576360954484,0.1831484068771853,-153.1625065187994,-6.3975318623814825,26.06456338881546
-4.12,-0.13,-8.83,0.1720624017118031,-0.008827995152603,0.0634207305832763,-153.1625065187994,-6.443440527613203,26.029278313836883
-4.12,-0.13,-8.83,0.1720624017118031,-0.008827995152603,0.0634207305832763,-153.1625065187994,-6.443440527613203,26.029278313836883
-4.04,-0.22,-9.02,0.2774498962779562,-0.1215797649766981,-0.0745766402407532,-153.36074062083046,-6.48935022815341,25.8058643261674
-4.04,-0.22,-9.02,0.2774498962779562,-0.1215797649766981,-0.0745766402407532,-153.36074062083046,-6.48935022815341,25.8058643261674
-3.76,-0.14,-9.15,0.5640274446969614,-0.0919776359164902,-0.0702479520960803,-153.5103719816942,-6.454917855397503,25.64130737095736
-3.76,-0.14,-9.15,0.5640274446969614,-0.0919776359164902,-0.0702479520960803,-153.5103719816942,-6.454917855397503,25.64130737095736
