TIME,ELAPSED_SECONDS,PSTATE,acc_x,acc_y,acc_z,mag_x,mag_y,mag_z,gyr_x,gyr_y,gyr_z,lin_x,lin_y,lin_z,eul_x,eul_y,eul_z,qua_w,qua_x,qua_y,qua_z
978894.0,526.190626,1.0,2.0,-1.0,-9.49,-21.06,-8.88,34.25,0.69,-1.69,-0.06,-0.015040797890569113,-0.11512365553275378,0.05746437666019055,-133.21309386328863,44.55589145397279,-13.564921674838883,0.0031,-0.9178,0.3791,-0.1181
978927.0,526.268158,1.0,2.02,-1.14,-9.65,-21.06,-8.88,34.25,1.25,-2.69,1.5,0.06534214211765044,-0.19918164967793334,-0.1159785365771402,-133.18424101457546,44.580659579875785,-13.507223821905177,0.0037,-0.9177,0.3793,-0.1176
978964.0,526.2762799999998,1.0,1.67,-0.88,-9.53,-21.06,-8.88,35.06,-1.63,-13.0,0.25,-0.281284550133411,-0.21893108307791564,0.0980379373661986,-133.21309386328863,44.679754048391246,-13.184178987120148,0.0041,-0.9178,0.3801,-0.1148
978999.0,526.311865,1.0,1.89,-1.14,-9.55,-20.69,-9.25,35.06,2.81,0.06,1.5,0.05391367922718682,-0.22932169523727025,0.007736546188615635,-133.21309386328863,44.69214333160206,-13.091899903813276,0.005,-0.9178,0.3802,-0.114
979034.0,526.3264849999998,1.0,2.06,-1.14,-9.68,-20.69,-9.25,35.06,-3.69,-3.0,1.31,0.15081250772573962,-0.11858800567634498,-0.15371106134829127,-133.21309386328863,44.7293144859979,-13.045763563399612,0.0049,-0.9178,0.3805,-0.1136
979068.0,526.3833070000002,1.0,1.98,-0.83,-9.69,-19.56,-8.88,33.75,-1.37,-9.69,3.25,-0.08968043625598188,0.06014864948195514,-0.11775121918286754,-133.18424101457546,44.82846183777319,-12.838176201349,0.0049,-0.9177,0.3813,-0.1118
979103.0,526.423096,1.0,1.69,-1.09,-9.47,-20.69,-9.25,35.5,2.69,-4.94,-0.75,-0.026526622872019682,-0.2611264873465732,0.12903617758049535,-133.2419635150545,44.84085774318776,-12.538402281482075,0.0066,-0.9179,0.3814,-0.1092
979138.0,526.434183,1.0,1.9,-0.94,-9.67,-20.69,-9.25,35.5,0.25,1.5,-1.69,-0.03309893066177949,-0.026610835393920042,-0.09288010623376408,-133.27085000109963,44.7912774389752,-12.572987144073346,0.0065,-0.9179999999999999,0.381,-0.1095
979173.0,526.492645,1.0,1.93,-1.25,-9.81,-20.0,-8.88,35.5,4.94,-1.25,-0.31,0.1569257320934858,-0.21434612693442684,-0.26573452663892105,-133.32867360141205,44.71692355018706,-12.619102083523115,0.0079,-0.9182,0.3804,-0.1099
979208.0,526.507558,1.0,1.56,-1.08,-9.39,-20.0,-9.25,35.06,2.75,-5.63,-0.31,-0.11892068120985776,-0.2908225391157438,0.2320283300684469,-133.3576107786115,44.7293144859979,-12.492290914481535,0.0093,-0.9183,0.3805,-0.1088
979243.0,526.550849,1.0,2.36,-0.58,-9.93,-20.0,-8.88,35.88,4.5,-5.31,-3.44,-0.031088795291120293,0.6448733185126682,-0.3960002385349757,-133.50255170239728,44.605429900527255,-12.388547751922633,0.012,-0.9188,0.3795,-0.1079
979275.0,526.601589,1.0,1.86,-1.7,-9.77,-20.0,-8.88,35.88,15.13,-21.37,2.5,0.4322862743973289,-0.3520424412095809,-0.26765864608360523,-133.64792062272215,44.506361779453115,-12.088902226339815,0.0187,-0.9193,0.3787,-0.1053
979312.0,526.619773,1.0,1.69,-1.19,-9.68,-19.56,-8.5,36.75,3.13,-24.44,6.19,0.08149038766083305,0.02787925327554077,-0.09118724173900894,-133.6770461216721,44.679754048391246,-11.259541000283244,0.0228,-0.9194,0.3801,-0.0981
979347.0,526.660579,1.0,1.42,-0.95,-9.79,-19.19,-8.5,35.06,-1.94,-26.94,8.63,-0.20525609095207345,0.11023341847242148,-0.12857614390729033,-133.64792062272215,44.89044689976561,-10.557352206642195,0.0259,-0.9193,0.3818,-0.092
979382.0,526.669805,1.0,1.24,-1.49,-9.57,-19.19,-8.5,35.06,14.63,-30.94,5.56,0.1952210859731248,-0.2107643103695553,0.04652361080472822,-133.6770461216721,45.051672965046905,-9.568049817899787,0.0324,-0.9194,0.3831,-0.0834
979417.0,526.7261139999998,1.0,0.66,-1.4,-9.21,-18.06,-8.5,36.25,0.37,-33.63,7.38,-0.0994526315503147,-0.4257338566885242,0.4777401034822457,-133.6770461216721,45.188168526204606,-8.659903302137069,0.0367,-0.9194,0.3842,-0.0755
979453.0,526.771385,1.0,0.3,-1.47,-8.86,-17.37,-8.19,36.69,-2.56,0.44,2.5,-0.17935735910325346,-0.6790114753439078,0.8480075607636426,-133.64792062272215,45.324731779489326,-8.165828301178744,0.0382,-0.9193,0.3853,-0.0712
979488.0,526.8081030000002,1.0,0.37,-1.49,-8.2,-17.37,-8.19,36.69,-6.31,23.12,-0.81,-0.03215332625653688,-0.7158909459209409,1.4950035736197782,-133.58972143720712,45.361988090099786,-8.476043091817116,0.0352,-0.9191,0.3856,-0.0739
979521.0,526.8335,1.0,1.37,-1.04,-8.86,-17.0,-7.75,36.25,-18.56,70.81,-8.81,0.03775617295843847,-0.006494787632243676,0.7813171923337272,-133.3576107786115,45.225406324165256,-10.430771068314456,0.0228,-0.9183,0.3845,-0.0909
979558.0,526.8715540000002,1.0,1.58,-0.57,-7.98,-17.25,-7.75,36.25,7.19,142.5,-37.19,-0.31363306250182,0.1347074504427615,1.6589393887361847,-133.27085000109963,44.469220271844826,-13.553381828311744,0.0104,-0.9179999999999999,0.3784,-0.11800000000000001
979593.0,526.885128,1.0,2.66,-0.41,-7.93,-21.0,-8.19,35.0,12.69,198.25,-61.31,-0.397930598238152,0.2606383973449545,1.4458893369493406,-132.61066542040177,42.384689535903355,-20.180594156388953,-0.0125,-0.9157,0.3615,-0.1752
979628.0,526.928234,1.0,5.88,-1.85,-9.48,-21.0,-8.19,35.0,23.94,180.69,-54.69,1.4455768276315393,0.28269586510413713,-1.4048481462455662,-131.4269409010407,40.400219905352074,-25.59430098947942,-0.0283,-0.9115,0.3453,-0.2215
979664.0,526.983118,1.0,4.12,-0.07,-8.07,-25.5,-9.25,31.25,-7.75,113.62,-28.06,-0.8700400547025597,0.28146140663307223,0.7917728638550319,-129.56581673326838,39.07211278567739,-30.15199174363297,-0.045,-0.9047,0.3344,-0.2601
979699.0,526.998049,1.0,4.8,-0.08,-7.81,-28.5,-9.69,26.75,13.5,128.75,-40.38,-0.7169865627678309,0.3189424253614597,0.6728279085579452,-128.0277034878583,37.95538472991653,-33.488479867763736,-0.0572,-0.8989,0.3252,-0.2881
979734.0,527.058428,1.0,6.55,-1.0,-8.44,-28.5,-9.69,26.75,18.25,124.44,-35.5,-0.1232593177554393,-0.2444704258679649,-0.9200056461677448,-125.696251455902,35.877484931095594,-38.51327351873995,-0.0682,-0.8898,0.308,-0.3298
979769.0,527.066412,1.0,6.98,-0.89,-7.96,-30.5,-11.88,24.69,8.31,82.94,-24.44,-0.16541536796582254,-0.2395741591257663,-0.8135826706301454,-123.81779521129648,34.50701040671306,-41.868944153662135,-0.0779,-0.8822,0.2966,-0.3573
979806.0,527.107449,1.0,7.76,-1.18,-7.94,-33.06,-12.69,21.69,-2.06,45.63,-5.0,0.21296877990727656,-0.32046973686512104,-1.3515552072247932,-122.7801400993836,34.015373611081245,-43.41890031609472,-0.0826,-0.8779,0.2925,-0.3699
979841.0,527.1932019999998,1.0,7.91,-1.06,-7.89,-33.06,-12.69,21.69,-3.94,11.5,0.25,0.1638156701203517,-0.22654937029797265,-1.4123356853924456,-122.18470178965723,34.09926566702287,-43.99918511445215,-0.0857,-0.8754,0.2932,-0.3746
979875.0,527.1971580000002,1.0,7.88,-1.16,-7.51,-35.0,-11.88,20.37,-1.44,12.31,5.19,0.39529966585367626,-0.18699069002872348,-1.131762711907454,-121.92447762133864,34.23113412634732,-44.196999190211535,-0.0859,-0.8743,0.2943,-0.3762
979912.0,527.218547,1.0,8.0,-2.11,-7.15,-33.88,-12.25,19.25,3.19,12.31,1.5,1.1426658872693949,-0.8060157277449528,-1.0385910446563449,-121.5009364289817,34.255115225601216,-44.69214333160206,-0.0864,-0.8725,0.2945,-0.3802
979947.0,527.250216,1.0,6.86,-1.64,-6.31,-35.0,-12.25,17.5,-15.5,0.69,11.69,0.7901286984129492,-0.6200841319682341,0.3962040855267954,-121.10347629286508,34.86715957624261,-44.580659579875785,-0.0893,-0.8708,0.2996,-0.3793
979982.0,527.305011,1.0,7.25,-2.3,-6.21,-35.0,-12.25,17.5,-15.44,31.44,15.06,1.3422720249712707,-0.9978665066789444,0.13095011596949746,-119.94836140851372,35.51632781311482,-45.324731779489326,-0.094,-0.8658,0.305,-0.3853
980017.0,527.321409,1.0,7.04,-1.39,-6.68,-35.06,-12.25,19.25,-51.13,16.69,42.94,0.36240943359543065,-0.5942374856630988,0.02750682623094569,-118.63316578204837,36.93902480540506,-45.54834570673154,-0.1009,-0.86,0.3168,-0.3871
980054.0,527.389057,1.0,7.52,-2.02,-6.96,-35.69,-11.5,17.56,-74.44,-4.94,85.31,0.8529654755090195,-0.874118455186232,-0.5654648674651899,-116.40158899740273,40.19271594298347,-45.200580565791434,-0.1098,-0.8499,0.3436,-0.3843
980088.0,527.400786,1.0,8.0,2.48,-7.64,-35.69,-11.5,17.56,-119.69,-50.81,94.94,-2.3052698179312427,2.380696301435284,-1.0348451084648662,-114.5341088647508,44.06098716195297,-43.480576858025245,-0.1201,-0.8412,0.3751,-0.3704
980123.0,527.442204,1.0,8.0,-0.16,-8.43,-36.88,-10.0,17.56,-43.31,-113.69,80.69,-0.3620907110242335,0.7962579435083428,-1.7832319495450353,-113.94309450479722,48.64849167574625,-39.40057712393039,-0.1171,-0.8384,0.4119,-0.3371
980158.0,527.463902,1.0,6.46,1.52,-8.44,-35.69,-8.5,18.87,-104.37,-235.75,99.37,-1.69965426570317,1.6265533690793634,-0.6690886142750632,-114.51291967073887,52.769914659011285,-33.58422417640036,-0.1071,-0.8411,0.4444,-0.2889
980195.0,527.502525,1.0,5.03,2.74,-9.57,-33.88,-7.69,23.87,-6.81,-174.31,2.5,-2.821965706490177,1.8112045836514787,-0.8305229095447775,-116.29293986048515,55.95178287128961,-25.93519704664329,-0.0903,-0.8494,0.4691,-0.2244
980230.0,527.5436530000002,1.0,3.31,1.71,-8.97,-33.88,-7.69,23.87,54.94,-150.19,-50.44,-2.07112211726787,1.145388433773295,0.3864781060724685,-120.06296278033024,54.993719820860264,-20.94924459772563,-0.0577,-0.8663,0.4617,-0.1818
980267.0,527.594769,1.0,1.74,1.46,-8.06,-31.19,-8.06,28.69,70.06,-130.5,-97.44,-2.162956148592164,0.684978555200319,1.745928873563292,-124.1105266335135,52.33540497698414,-17.856791554733764,-0.0309,-0.8834,0.441,-0.1552
980303.0,527.613701,1.0,2.01,-2.8,-7.79,-25.19,-7.69,32.0,155.94,-66.5,-75.69,1.112414406515876,-1.1419104247052043,1.4386887925059355,-128.31613447366578,48.296621479022534,-17.230672895970507,0.0133,-0.9,0.4091,-0.1498
980336.0,527.653427,1.0,0.48,-3.38,-6.99,-25.19,-7.69,32.0,-1.19,35.0,-86.31,0.6360070981375763,-2.6216110102622534,2.5102433034136333,-130.62518646665285,45.69752343772229,-17.62483410357088,0.0179,-0.9086,0.3883,-0.1532
980371.0,527.71203,1.0,1.73,-4.06,-7.59,-22.69,-6.19,34.56,41.38,92.06,-18.5,1.2749554327270691,-2.550040482064585,1.5026520361038411,-130.3788376016962,44.33307679780215,-21.07744476440248,0.0149,-0.9077,0.3773,-0.1829
980408.0,527.767206,1.0,4.45,-6.73,-8.93,-22.25,-6.56,33.0,-99.37,78.12,45.38,4.289077098671804,-2.9882920293109905,-1.0337479811262171,-128.3424298098244,45.67265480727474,-22.851748300506443,-0.0012,-0.9001,0.3881,-0.1981
980443.0,527.808492,1.0,4.43,-1.03,-9.36,-25.25,-6.19,32.06,-178.0,11.88,83.25,0.6778653916384922,0.3044435938470871,-0.5732928037433922,-124.84860239500851,49.9344808584857,-21.20567161915569,-0.0493,-0.8864,0.4221,-0.184
980477.0,527.817139,1.0,4.66,-0.04,-11.42,-25.25,-6.19,32.06,-91.81,-15.25,89.37,-0.20089267455809925,0.4378878789460416,-2.5181825075345774,-121.97171183603344,53.34626194049607,-19.75008736458169,-0.0667,-0.8745,0.4489,-0.1715
980514.0,527.8233740000002,1.0,4.82,-0.57,-11.57,-26.5,-9.19,31.25,-127.69,-119.25,108.12,1.0681587990989296,0.5232622100620914,-2.6836435689850138,-118.8580978383618,57.88085702604191,-15.540370148995088,-0.0793,-0.861,0.4839,-0.1352
980551.0,527.874922,1.0,4.78,4.34,-12.45,-26.75,-9.5,32.19,-158.31,-180.56,79.0,-2.2955596371888443,3.1004977243805563,-3.6768146813502782,-116.40158899740273,61.63430677668394,-9.74054901066208,-0.0897,-0.8499,0.5123,-0.0849
980586.0,527.890683,1.0,1.56,6.97,-9.44,-26.75,-9.5,32.19,-69.12,-285.88,0.12,-4.830007569778628,3.3056807629232736,-0.4827426725302964,-115.1726470817956,64.21371982866351,0.3896120513439707,-0.0687,-0.8442,0.5315,0.0034
980621.0,527.943719,1.0,-0.73,4.32,-8.84,-22.25,-11.0,33.0,138.19,-200.06,-112.56,-3.2572205867920774,1.879203943938048,0.6852462381843001,-118.56583115924386,61.034799284741574,6.225383461526625,-0.0041,-0.8597,0.5078,0.0543
980658.0,527.964136,1.0,-1.9,-2.45,-7.71,-14.06,-12.06,36.75,116.19,-145.0,-98.5,1.6202015967527088,-1.6664544945500124,1.828274463371379,-120.777980646449,58.23470667250937,7.729330710703709,0.0521,-0.8694,0.4866,0.0674
980695.0,528.004726,1.0,-2.77,0.53,-7.24,-8.06,-8.0,40.56,4.5,-119.06,-104.5,-1.2911251973937126,-0.19731518477189647,2.1473117490468883,-123.86648635871313,53.87264873756229,11.213483126166134,0.0804,-0.8824,0.45299999999999996,0.0977
980727.0,528.065034,1.0,-3.41,-0.85,-6.45,-8.06,-8.0,40.56,149.06,4.0,-134.88,-1.0265194389484162,-1.286026604294761,2.648054228865336,-126.88855686312144,50.187419272308674,10.338720083250598,0.1096,-0.8945,0.4241,0.0901
980766.0,528.098902,1.0,-2.3,-5.79,-7.75,-4.0,-7.56,41.25,71.5,16.5,-65.69,2.7303709599746915,-2.8505983173339238,0.6799987163067396,-128.76486449761614,47.39402100857085,7.22405231414402,0.1468,-0.9017,0.4019,0.063
980801.0,528.116642,1.0,-2.26,-3.01,-8.36,-2.75,-3.06,42.25,-28.81,-8.0,-46.25,0.6191390959899927,-0.8951645431620083,0.703208495794998,-130.0792914251156,45.99612491286469,7.1207175606295605,0.1465,-0.9066,0.3907,0.0621
980834.0,528.1573089999998,1.0,-2.94,-2.37,-7.54,-2.75,-3.06,42.25,56.25,19.25,-39.88,-0.5053499660775609,-1.1256651432816824,1.4646119158753503,-131.37124925693712,44.419705914934724,6.4778727055513645,0.1534,-0.9113,0.37799999999999995,0.0565
980869.0,528.18345,1.0,-2.67,-4.41,-8.01,-2.88,-3.19,42.5,24.37,52.06,-34.56,0.7963888702068004,-2.1684106185912557,0.5653914192334479,-131.98719464152978,43.6780308968355,4.779853967883568,0.1591,-0.9135,0.3720000000000001,0.0417
980905.0,528.2212910000002,1.0,-1.25,-3.89,-9.6,-3.25,-2.06,40.5,-18.75,12.56,-11.38,1.1799693947646936,-0.5555551821725989,-0.5448537877102595,-132.72485553305756,43.283258399546064,3.369477361207863,0.1544,-0.9161,0.3688,0.0294
980940.0,528.26002,1.0,-1.95,-3.0,-8.7,-3.25,-2.06,40.5,-5.94,5.75,-12.56,0.13104321949355047,-0.7519732323409721,0.43062397974667377,-133.18424101457546,42.987533038901844,3.3924056518954067,0.151,-0.9177,0.3664,0.0296
980975.0,528.27532,1.0,-1.48,-3.62,-9.61,-5.19,-1.37,42.56,5.56,5.88,0.69,0.7464042963406557,-0.5872730680236271,-0.5250919136357837,-133.0977829759083,42.99984891491943,2.87655022805785,0.153,-0.9174,0.3665,0.0251
981010.0,528.318611,1.0,-1.71,-3.31,-9.51,-4.75,-1.69,42.19,-7.56,5.56,1.56,0.3775947989231814,-0.5966090601031689,-0.3826473161660662,-133.15540493778332,43.03679967235915,2.807774138332147,0.1512,-0.9176,0.3668,0.0245
981045.0,528.340972,1.0,-1.54,-2.57,-9.16,-5.19,-1.69,41.75,-24.5,-8.0,4.63,0.10438228101179414,-0.1146290468203666,0.17036106073319246,-133.01147504963205,43.33257535076985,3.15166519950434,0.14800000000000002,-0.9171,0.3692,0.0275
981080.0,528.38195,1.0,-1.97,-2.89,-9.31,-5.19,-1.69,41.75,11.0,7.5,1.44,-0.011316338128894543,-0.5889862098467459,-0.12119302782340036,-133.06899702903365,43.283258399546064,3.0599582684028324,0.1477,-0.9173,0.3688,0.0267
981116.0,528.427332,1.0,-1.55,-3.0,-9.63,-5.88,-1.69,41.25,-3.13,2.25,3.19,0.34039702295479146,-0.3035146600531972,-0.38802550821978704,-132.92531640784813,43.480576858025245,2.9453273542124467,0.1473,-0.9168,0.3704,0.0257
981151.0,528.447128,1.0,-1.74,-2.15,-9.05,-5.88,-2.06,42.06,-17.25,-7.25,3.0,-0.2899115963279246,-0.042757970927564386,0.34796494222178964,-132.86795984370113,43.61631189309636,3.1860558160551733,0.1451,-0.9166,0.3715,0.0278
981186.0,528.484147,1.0,-1.79,-2.57,-9.26,-5.88,-2.06,42.06,8.81,3.56,1.44,-0.06886337096512263,-0.2838289241628397,0.035708439538803205,-132.7820481898819,43.665686030942155,3.1058114852451255,0.1464,-0.9163,0.3719,0.0271
981219.0,528.534745,1.0,-1.84,-2.76,-9.36,-5.56,-2.88,41.25,-1.44,-2.94,0.63,0.02301753255528305,-0.4208163159627916,-0.11480069137646788,-132.7820481898819,43.65334169783373,3.1172748668896637,0.1462,-0.9163,0.3718,0.0272
981256.0,528.591151,1.0,-2.04,-2.38,-8.66,-4.75,-2.5,42.19,-7.38,4.31,-0.37,-0.3095832870381161,-0.5152213854802666,0.6164212154522241,-132.81066902216784,43.6780308968355,3.266301709643329,0.1447,-0.9164,0.3720000000000001,0.0285
981291.0,528.600991,1.0,-1.6,-2.88,-9.46,-4.75,-2.5,42.19,9.38,7.5,-0.88,0.2548895594002705,-0.330849356234282,-0.20192482441871806,-132.7820481898819,43.71506869334832,2.968253297538604,0.1457,-0.9163,0.3723,0.0259
981323.0,528.645864,1.0,-1.78,-2.96,-9.28,-5.88,-2.5,41.69,-2.75,0.69,1.12,0.18820630727398469,-0.5681611807752514,-0.07718383402221995,-132.75344370342964,43.75211129257185,2.922401528803221,0.1453,-0.9162,0.3726,0.0255
981358.0,528.6570830000002,1.0,-1.62,-2.16,-9.4,-4.75,-3.19,41.25,-13.19,-0.37,0.25,-0.2198990539684582,0.08679211726383051,0.029425877865710607,-132.89662989290295,43.69037629572606,3.0599582684028324,0.1431,-0.9167,0.3721,0.0267
981395.0,528.704647,1.0,-1.9,-2.77,-9.11,-5.88,-2.06,40.06,7.31,-3.19,0.19,0.01761214237869391,-0.5695022296584058,0.11385076433773912,-132.83930623013015,43.6780308968355,3.140201723904295,0.1445,-0.9165,0.3720000000000001,0.0274
981430.0,528.7263690000002,1.0,-1.86,-2.93,-9.32,-5.88,-2.06,40.06,-1.06,2.63,4.38,0.14158716153958004,-0.5934231461016194,-0.11981473047469747,-132.7820481898819,43.73976322550855,3.1058114852451255,0.1445,-0.9163,0.3725,0.0271
981467.0,528.76195,1.0,-1.98,-2.35,-8.97,-6.69,-3.19,42.19,-3.56,0.56,1.37,-0.2868337466818429,-0.4062608142182836,0.3379394989552438,-132.75344370342964,43.86326796394638,3.243374149708243,0.1425,-0.9162,0.3735,0.0283
981501.0,528.81917,1.0,-1.64,-2.78,-9.41,-6.25,-2.5,41.25,7.13,8.06,-2.63,0.19518923216409867,-0.3597202272223418,-0.13309861461668324,-132.7820481898819,43.86326796394638,3.014105541619682,0.1425,-0.9163,0.3735,0.0263
981534.0,528.873833,1.0,-1.61,-3.26,-9.43,-6.25,-2.5,41.25,4.44,1.56,3.94,0.5236455304675037,-0.650520270964637,-0.2654510089993387,-132.63918862221735,43.986826321433156,2.87655022805785,0.1434,-0.9158,0.3745,0.0251
981569.0,528.885638,1.0,-1.78,-1.92,-9.37,-6.25,-2.06,42.06,-18.87,-1.88,5.88,-0.4611403125086233,0.08209804909122631,0.08902119856315771,-132.49673400768697,44.22173568720945,3.094348134689141,0.1402,-0.9153,0.3764,0.027000000000000003
981606.0,528.925862,1.0,-1.66,-2.51,-9.39,-5.56,-3.19,41.69,14.38,2.94,-1.88,0.03184525583623188,-0.2436814422120973,-0.050702851268045634,-132.66772802198363,44.098074864095786,3.0714215263829594,0.1396,-0.9159,0.3754,0.0268
981641.0,528.943307,1.0,-1.64,-2.54,-9.35,-5.56,-3.19,41.69,-2.5,-0.81,0.81,0.05772407447402018,-0.24697893425070205,-0.01675925225364594,-132.61066542040177,44.11043851170447,3.0370318442136965,0.1405,-0.9157,0.3755,0.0265
981673.0,528.9852139999998,1.0,-1.77,-2.37,-9.38,-6.25,-2.06,41.25,-2.06,-0.56,-1.44,-0.1348592804673996,-0.22306912225998385,-0.025249772738023424,-132.61066542040177,44.15989850900582,3.1172748668896637,0.1396,-0.9157,0.3759,0.0272
981710.0,529.026392,1.0,-1.96,-2.59,-8.98,-6.25,-3.19,40.56,0.31,-3.06,-1.5,-0.09025572225799973,-0.5860401622220982,0.2757260766407139,-132.61066542040177,44.0857117567441,3.2204467196467967,0.1407,-0.9157,0.3753,0.0281
981745.0,529.047424,1.0,-1.82,-2.69,-9.17,-6.25,-3.19,40.56,4.19,2.94,0.44,0.054753486300758936,-0.5028664278731156,0.09163443586135678,-132.69628364910096,43.99918511445215,3.163128706652845,0.1411,-0.9159999999999999,0.3746,0.0276
981778.0,529.0863009999998,1.0,-1.74,-2.72,-9.32,-4.38,-2.06,41.25,1.88,3.5,-1.75,0.10451452854557464,-0.4094904960814737,-0.04778018377733595,-132.66772802198363,43.97446806674141,3.094348134689141,0.1423,-0.9159,0.3744,0.027000000000000003
981813.0,529.1437540000002,1.0,-1.5,-2.8,-9.45,-5.56,-2.06,40.5,1.44,0.0,0.69,0.3096256526944463,-0.2468019530958539,-0.1550627418502497,-132.61066542040177,43.97446806674141,3.048495041051397,0.1434,-0.9157,0.3744,0.0266
981848.0,529.161755,1.0,-1.67,-2.43,-9.25,-5.88,-2.06,41.25,-3.88,-3.44,-0.06,-0.034995424569116966,-0.15436233588773418,0.09937192684692242,-132.58215838722379,43.99918511445215,3.1975194185389717,0.1436,-0.9156,0.3746,0.0279
981882.0,529.197322,1.0,-1.64,-2.7,-9.4,-5.88,-2.06,41.25,4.0,-1.94,-2.94,0.16070210040063249,-0.2542604247008152,-0.10541973701042197,-132.61066542040177,43.900329831481116,3.2319104185008167,0.1446,-0.9157,0.3738,0.0282
981919.0,529.2528900000002,1.0,-2.05,-2.61,-9.06,-5.56,-2.5,40.88,-2.94,-0.44,-0.63,-0.17075325418263446,-0.5666096173969515,0.1760738558817625,-132.63918862221735,43.86326796394638,3.2777655386010047,0.1445,-0.9158,0.3735,0.0286
981954.0,529.258742,1.0,-1.79,-2.51,-9.21,-5.19,-2.5,41.25,-2.94,2.13,2.31,-0.04958879459573495,-0.29491891870054343,0.09897964183253903,-132.63918862221735,43.92504042696694,3.300693295071686,0.1436,-0.9158,0.374,0.0288
981989.0,529.282103,1.0,-1.82,-2.51,-9.15,-5.19,-2.5,41.25,0.44,4.56,-2.94,-0.06754856107459263,-0.3280343104595227,0.15145291847659334,-132.63918862221735,43.92504042696694,3.3121572228147254,0.1438,-0.9158,0.374,0.0289
982022.0,529.362546,1.0,-1.34,-2.93,-9.71,-5.56,-2.06,41.69,6.38,2.38,1.19,0.4982287091619391,-0.11347774170134695,-0.4111526480993071,-132.55366749345725,43.949753171483536,3.1287382797377283,0.1452,-0.9155,0.3742,0.0273
982059.0,529.370357,1.0,-1.7,-2.59,-9.4,-6.25,-2.06,40.75,-5.31,-2.94,2.19,0.05392547075955624,-0.21821268020418527,-0.0881756816278223,-132.46829135766265,44.06098716195297,3.2777655386010047,0.1445,-0.9152,0.3751,0.0286
982093.0,529.420529,1.0,-1.95,-2.36,-9.14,-6.25,-2.06,40.75,-3.75,-3.5,1.5,-0.24168571743939804,-0.3139698395647897,0.1757252804401208,-132.46829135766265,44.11043851170447,3.4153340784378665,0.1436,-0.9152,0.3755,0.0298
982126.0,529.4753820000002,1.0,-1.7,-2.74,-9.48,-5.56,-3.19,40.5,3.75,-0.06,1.0,0.1705212094512889,-0.30083062675161304,-0.2007684209083376,-132.46829135766265,44.07334918943469,3.35801326652208,0.14400000000000002,-0.9152,0.3752,0.0293
982163.0,529.480228,1.0,-1.87,-2.54,-9.12,-4.75,-1.69,42.19,-3.31,0.63,0.69,-0.06268877728050726,-0.3824963934347483,0.16441651256502074,-132.46829135766265,44.0857117567441,3.40386984812725,0.1439,-0.9152,0.3753,0.0297
982198.0,529.499456,1.0,-1.81,-2.58,-9.13,-5.19,-2.88,41.25,-1.56,2.38,2.19,0.0045210633856024324,-0.3609925463677413,0.15475568119123828,-132.41145409892673,44.11043851170447,3.3924056518954067,0.1442,-0.915,0.3755,0.0296
982231.0,529.546111,1.0,-1.79,-2.59,-9.22,-5.19,-2.88,41.25,0.12,-1.25,1.37,0.025921781116362563,-0.3268988439783227,0.06944992980171705,-132.38305943270692,44.15989850900582,3.4153340784378665,0.1442,-0.9149,0.3759,0.0298
982267.0,529.596453,1.0,-1.79,-2.48,-9.35,-5.19,-3.19,40.88,-2.06,-0.25,0.37,-0.04904193824476655,-0.21157268502876608,-0.02848253023277358,-132.38305943270692,44.147532698220644,3.4726557451993814,0.1442,-0.9149,0.3758,0.0303
982302.0,529.600712,1.0,-1.82,-2.62,-9.17,-4.38,-3.19,41.75,-0.63,-1.5,0.75,0.04062026761037252,-0.3729446240789811,0.10484798690831633,-132.55366749345725,43.96211035016289,3.5414428939599265,0.1443,-0.9155,0.3743,0.0309
982335.0,529.653243,1.0,-1.82,-2.51,-9.27,-4.38,-3.19,41.75,-2.44,-1.06,1.63,-0.02548692657580309,-0.2633939089110967,0.03549991081795767,-132.49673400768697,43.99918511445215,3.6331610823402585,0.1443,-0.9153,0.3746,0.0317
982370.0,529.695347,1.0,-1.74,-2.48,-9.49,-5.88,-3.19,42.56,-0.31,3.5,0.94,0.0025282396453885077,-0.12913659604119687,-0.1543447970856402,-132.46829135766265,44.03626472561431,3.6331610823402585,0.1441,-0.9152,0.3749,0.0317
982407.0,529.70887,1.0,-1.61,-2.56,-9.51,-5.56,-2.88,41.25,-0.37,2.81,0.75,0.13962313947896274,-0.09642828743010598,-0.17117576337677498,-132.4398647310081,44.0857117567441,3.5529075421905287,0.14400000000000002,-0.9151,0.3753,0.031
982441.0,529.769896,1.0,-2.01,-2.44,-9.09,-5.56,-2.88,41.25,-3.19,-1.75,-1.5,-0.18441731871315656,-0.4028570058652336,0.19283200269092227,-132.46829135766265,44.07334918943469,3.701951248377608,0.1437,-0.9152,0.3752,0.0323
982474.0,529.825168,1.0,-1.8,-2.59,-9.37,-5.88,-2.5,41.0,0.69,2.44,0.63,0.04059413223406549,-0.27361311658504384,-0.07608686682291399,-132.38305943270692,44.12280269978493,3.621696182670093,0.1444,-0.9149,0.3756,0.0316
982509.0,529.84233,1.0,-1.76,-2.61,-9.39,-5.19,-3.56,40.5,-2.44,-0.69,-1.44,0.08532962699877368,-0.2634534261135502,-0.0931030851544623,-132.49673400768697,44.04862567408432,3.6331610823402585,0.1439,-0.9153,0.375,0.0317
982544.0,529.845279,1.0,-1.79,-2.55,-9.33,-5.19,-3.56,40.5,0.0,-4.75,1.37,0.02515261633038346,-0.2429504201024297,-0.02675441755874353,-132.41145409892673,44.06098716195297,3.6675560000932936,0.1447,-0.915,0.3751,0.032
982577.0,529.891704,1.0,-1.95,-2.32,-9.34,-5.56,-3.56,41.25,-2.06,3.06,-3.88,-0.2381605599538261,-0.19132144891624586,-0.007990882419848688,-132.49673400768697,43.986826321433156,3.7478120989556993,0.1445,-0.9153,0.3745,0.0327
982611.0,529.9476179999998,1.0,-1.64,-2.78,-9.39,-5.56,-2.88,41.38,3.44,0.81,1.75,0.2815397613249553,-0.2700628501151791,-0.11493764612704638,-132.46829135766265,43.99918511445215,3.6560909909367436,0.1453,-0.9152,0.3746,0.0319
982648.0,529.964249,1.0,-1.89,-2.32,-9.12,-6.25,-3.19,41.69,-3.31,-0.12,-0.12,-0.1827315787480499,-0.21611926630266376,0.2124433296774857,-132.46829135766265,44.0239043163285,3.7478120989556993,0.1444,-0.9152,0.3748,0.0327
982683.0,530.00295,1.0,-1.74,-2.6,-9.42,-6.25,-3.19,41.69,3.13,0.81,0.63,0.09522096114342027,-0.21308601017222145,-0.11653131048847774,-132.4398647310081,44.03626472561431,3.701951248377608,0.1448,-0.9151,0.3749,0.0323
982718.0,530.058001,1.0,-1.84,-2.43,-9.36,-5.56,-3.19,40.88,-1.75,-1.88,-1.94,-0.08851570841935598,-0.1684903515974058,-0.035294725041978836,-132.46829135766265,43.986826321433156,3.7592774051414257,0.1454,-0.9152,0.3745,0.0328
982753.0,530.073532,1.0,-1.94,-2.65,-9.09,-5.88,-3.19,39.56,2.75,-0.19,1.56,0.004456343352087777,-0.4432201377785526,0.1517167505947281,-132.41145409892673,43.99918511445215,3.793673550039814,0.1464,-0.915,0.3746,0.0331
982788.0,530.1132769999998,1.0,-1.88,-2.29,-9.2,-5.88,-3.19,39.56,-2.69,2.25,-3.5,-0.1999277823841119,-0.13984061876493614,0.14440525650615574,-132.46829135766265,43.96211035016289,3.816604503074617,0.1456,-0.9152,0.3743,0.0333
982820.0,530.132012,1.0,-1.66,-2.59,-9.5,-5.56,-2.5,41.75,2.88,3.88,1.0,0.12080543657850727,-0.09607091453178174,-0.1778317805369376,-132.41145409892673,43.986826321433156,3.6675560000932936,0.1467,-0.915,0.3745,0.032
982857.0,530.169483,1.0,-1.78,-2.38,-9.22,-5.19,-3.19,42.06,-3.75,1.56,-0.06,-0.09206075197386054,-0.12714454703946648,0.1207551480978708,-132.46829135766265,43.93739653048951,3.6790210459755386,0.1461,-0.9152,0.3741,0.0321
982892.0,530.230105,1.0,-1.68,-2.57,-9.41,-5.19,-3.19,42.06,2.88,-1.19,2.25,0.09466078398782253,-0.12773040104939684,-0.09032551177240401,-132.4398647310081,43.97446806674141,3.6446260183907717,0.1465,-0.9151,0.3744,0.0318
982925.0,530.249451,1.0,-1.89,-2.29,-9.34,-6.25,-2.88,41.25,-2.81,-4.38,1.81,-0.2121759781059012,-0.09506784890097908,0.008806183199277841,-132.38305943270692,44.0239043163285,3.8395356089996175,0.1461,-0.9149,0.3748,0.0335
982960.0,530.255746,1.0,-1.88,-2.42,-9.32,-5.56,-3.56,41.25,-1.63,0.81,-1.94,-0.11821116261365028,-0.1766477162041616,-0.0019187898588644003,-132.4398647310081,43.93739653048951,3.8395356089996175,0.1464,-0.9151,0.3741,0.0335
982994.0,530.303102,1.0,-1.82,-2.56,-9.32,-5.56,-3.56,41.25,1.5,1.88,0.56,0.0170431527578373,-0.2395897220898832,-0.025476234747648263,-132.46829135766265,43.93739653048951,3.793673550039814,0.1461,-0.9152,0.3741,0.0331
983029.0,530.3169790000002,1.0,-2.04,-2.52,-9.15,-5.88,-4.0,42.19,-0.63,0.25,1.12,-0.1494930973972911,-0.4020280675706149,0.10868499456117853,-132.46829135766265,43.93739653048951,3.873932556571698,0.1463,-0.9152,0.3741,0.0338
983062.0,530.363105,1.0,-1.87,-2.51,-9.14,-5.88,-4.0,41.25,-0.31,0.81,0.63,-0.03289188654823072,-0.2809781886850387,0.14970589840747373,-132.46829135766265,43.93739653048951,3.8853982832056495,0.1464,-0.9152,0.3741,0.0339
983099.0,530.426743,1.0,-1.7,-2.48,-9.42,-5.88,-3.19,42.06,1.88,-1.31,1.56,0.04777682238161995,-0.0667831064316896,-0.08122426052427477,-132.46829135766265,43.93739653048951,3.8395356089996175,0.1464,-0.9152,0.3741,0.0335
983134.0,530.4420230000002,1.0,-1.92,-2.57,-9.18,-5.88,-3.19,42.06,0.69,-2.06,-0.19,-0.02757993589133234,-0.3321898705649048,0.08797780483721063,-132.4398647310081,43.92504042696694,3.919795697049856,0.1469,-0.9151,0.374,0.0342
983169.0,530.496937,1.0,-1.82,-2.61,-9.39,-5.88,-2.5,41.75,3.19,2.06,1.06,0.054505643737504016,-0.2264815866660271,-0.10507715654047801,-132.41145409892673,43.92504042696694,3.8853982832056495,0.1472,-0.915,0.374,0.0339
983203.0,530.512643,1.0,-1.74,-2.61,-9.46,-5.56,-2.5,41.69,0.75,1.31,0.94,0.10012236303476207,-0.15569745085877254,-0.1581397025585236,-132.41145409892673,43.949753171483536,3.82807003686826,0.1472,-0.915,0.3742,0.0334
983236.0,530.568555,1.0,-1.89,-2.42,-9.28,-5.56,-2.5,41.69,1.25,-2.0,0.0,-0.11065877045529636,-0.1749798174402155,0.034033323796538895,-132.41145409892673,43.93739653048951,3.9541934642266323,0.1471,-0.915,0.3741,0.0345
983271.0,530.576435,1.0,-1.83,-2.45,-9.42,-5.56,-3.19,41.69,0.0,-0.19,0.37,-0.05266534511326237,-0.10478477525284982,-0.09658414407128824,-132.41145409892673,43.93739653048951,3.977125506843028,0.1475,-0.915,0.3741,0.0347
983308.0,530.614464,1.0,-1.9,-2.58,-9.16,-5.19,-2.88,42.06,-0.31,0.88,0.69,-0.0028059484723099715,-0.3155310647836313,0.10755559516974067,-132.38305943270692,43.93739653048951,3.965659465674837,0.1476,-0.9149,0.3741,0.0346
