,TIME,ELAPSED_SECONDS,PSTATE,acc_x,acc_y,acc_z,mag_x,mag_y,mag_z,gyr_x,gyr_y,gyr_z,lin_x,lin_y,lin_z,eul_x,eul_y,eul_z,qua_w,qua_x,qua_y,qua_z
0,1888819.0,1860.0206879999998,1.0,3.36,6.16,-6.86,0.88,-36.25,22.19,-0.25,0.5,0.63,-0.02070590740652678,-0.043844240748325713,-0.0062215954073163715,-119.51467199760063,-37.24119428419274,-33.991407904492696,-0.2575,-0.8639,-0.3193,-0.2923
1,1888819.0,1860.0206879999998,1.0,3.36,6.16,-6.86,0.88,-36.25,22.19,-0.25,0.5,0.63,-0.02070590740652678,-0.043844240748325713,-0.0062215954073163715,-119.51467199760063,-37.24119428419274,-33.991407904492696,-0.2575,-0.8639,-0.3193,-0.2923
2,1888856.0,1860.02395,1.0,3.31,6.07,-6.8,0.5,-37.75,21.25,-0.19,-0.19,1.06,-0.04880348343915175,-0.050781663214574994,0.10943187093405092,-119.53742748975634,-37.20491981438743,-33.991407904492696,-0.2575,-0.8640000000000001,-0.319,-0.2923
3,1888856.0,1860.02395,1.0,3.31,6.07,-6.8,0.5,-37.75,21.25,-0.19,-0.19,1.06,-0.04880348343915175,-0.050781663214574994,0.10943187093405092,-119.53742748975634,-37.20491981438743,-33.991407904492696,-0.2575,-0.8640000000000001,-0.319,-0.2923
4,1888890.0,1860.1051420000001,1.0,3.23,6.34,-6.79,0.5,-37.75,21.25,-2.75,-1.19,1.69,0.008482437011648525,0.18329165518166854,-0.02691152253104789,-119.56019073883043,-37.1323824635344,-34.00339056621902,-0.258,-0.8641,-0.3184,-0.2924
5,1888890.0,1860.1051420000001,1.0,3.23,6.34,-6.79,0.5,-37.75,21.25,-2.75,-1.19,1.69,0.008482437011648525,0.18329165518166854,-0.02691152253104789,-119.56019073883043,-37.1323824635344,-34.00339056621902,-0.258,-0.8641,-0.3184,-0.2924
6,1888925.0,1860.154275,1.0,3.14,6.18,-6.77,0.88,-36.25,21.0,0.63,-1.44,0.06,-0.09272891050507626,0.14617389840421954,0.1187743535756578,-119.58296175366009,-37.12029440520261,-33.96744372977673,-0.2579,-0.8642,-0.3183,-0.2921
7,1888925.0,1860.154275,1.0,3.14,6.18,-6.77,0.88,-36.25,21.0,0.63,-1.44,0.06,-0.09272891050507626,0.14617389840421954,0.1187743535756578,-119.58296175366009,-37.12029440520261,-33.96744372977673,-0.2579,-0.8642,-0.3183,-0.2921
8,1888962.0,1860.157277,1.0,3.15,6.13,-6.56,1.25,-36.25,20.5,-0.25,1.12,-0.19,0.02942345170142502,0.15404942135677754,0.293059561250308,-119.56019073883043,-37.12029440520261,-33.9794256257345,-0.2583,-0.8641,-0.3183,-0.2922
9,1888962.0,1860.157277,1.0,3.15,6.13,-6.56,1.25,-36.25,20.5,-0.25,1.12,-0.19,0.02942345170142502,0.15404942135677754,0.293059561250308,-119.56019073883043,-37.12029440520261,-33.9794256257345,-0.2583,-0.8641,-0.3183,-0.2922
10,1888997.0,1860.180296,1.0,3.21,6.05,-6.59,1.25,-36.25,20.5,-1.31,0.19,0.06,0.009465601938269064,0.04905427300014109,0.3023244541929522,-119.53742748975634,-37.10820677500307,-34.00339056621902,-0.2585,-0.8640000000000001,-0.3182,-0.2924
11,1888997.0,1860.180296,1.0,3.21,6.05,-6.59,1.25,-36.25,20.5,-1.31,0.19,0.06,0.009465601938269064,0.04905427300014109,0.3023244541929522,-119.53742748975634,-37.10820677500307,-34.00339056621902,-0.2585,-0.8640000000000001,-0.3182,-0.2924
12,1889030.0,1860.2178800000002,1.0,3.31,6.12,-6.84,0.88,-37.06,20.06,-2.31,1.56,-0.19,-0.08173223261828133,-0.046487362010980686,0.05025421224494764,-119.44645197451608,-37.09611957275582,-34.06330962524581,-0.259,-0.8636,-0.3181,-0.2929
13,1889030.0,1860.2178800000002,1.0,3.31,6.12,-6.84,0.88,-37.06,20.06,-2.31,1.56,-0.19,-0.08173223261828133,-0.046487362010980686,0.05025421224494764,-119.44645197451608,-37.09611957275582,-34.06330962524581,-0.259,-0.8636,-0.3181,-0.2929
14,1889067.0,1860.290346,1.0,3.24,6.1,-6.68,0.88,-36.0,20.5,-0.81,0.81,0.94,-0.032346075282667315,0.02845418153890167,0.1978964860957753,-119.44645197451608,-37.07194645139856,-34.087279935508434,-0.2593,-0.8636,-0.3179,-0.2931
15,1889067.0,1860.290346,1.0,3.24,6.1,-6.68,0.88,-36.0,20.5,-0.81,0.81,0.94,-0.032346075282667315,0.02845418153890167,0.1978964860957753,-119.44645197451608,-37.07194645139856,-34.087279935508434,-0.2593,-0.8636,-0.3179,-0.2931
16,1889101.0,1860.330493,1.0,3.4,6.39,-6.88,0.88,-36.0,20.06,-1.94,2.06,1.94,0.031121790677734795,0.06215103211111695,-0.17942373712774362,-119.42372742198721,-37.011521124582174,-34.18317656247093,-0.2594,-0.8635,-0.3174,-0.2939
17,1889101.0,1860.330493,1.0,3.4,6.39,-6.88,0.88,-36.0,20.06,-1.94,2.06,1.94,0.031121790677734795,0.06215103211111695,-0.17942373712774362,-119.42372742198721,-37.011521124582174,-34.18317656247093,-0.2594,-0.8635,-0.3174,-0.2939
18,1889134.0,1860.347569,1.0,3.33,6.25,-6.89,0.88,-36.0,20.06,-1.75,0.31,1.0,-0.07809474042131903,0.0191660665257114,-0.07348329228975814,-119.42372742198721,-36.999437339480345,-34.20715457242007,-0.2593,-0.8635,-0.3173,-0.2941
19,1889134.0,1860.347569,1.0,3.33,6.25,-6.89,0.88,-36.0,20.06,-1.75,0.31,1.0,-0.07809474042131903,0.0191660665257114,-0.07348329228975814,-119.42372742198721,-36.999437339480345,-34.20715457242007,-0.2593,-0.8635,-0.3173,-0.2941
20,1889171.0,1860.350648,1.0,3.25,6.29,-6.7,1.25,-36.0,19.69,-1.56,0.19,0.69,0.003484483398169536,0.14669485740548804,0.060108640256727235,-119.37830144711691,-36.93902480540506,-34.24312448272413,-0.2598,-0.8633,-0.3168,-0.2944
21,1889171.0,1860.350648,1.0,3.25,6.29,-6.7,1.25,-36.0,19.69,-1.56,0.19,0.69,0.003484483398169536,0.14669485740548804,0.060108640256727235,-119.37830144711691,-36.93902480540506,-34.24312448272413,-0.2598,-0.8633,-0.3168,-0.2944
22,1889206.0,1860.4071219999998,1.0,3.32,6.21,-6.74,1.25,-36.25,20.5,1.12,1.06,0.0,-0.014516696111433913,0.035304328535254566,0.059207111225495275,-119.37830144711691,-36.93902480540506,-34.267106355147284,-0.2598,-0.8633,-0.3168,-0.2946
23,1889206.0,1860.4071219999998,1.0,3.32,6.21,-6.74,1.25,-36.25,20.5,1.12,1.06,0.0,-0.014516696111433913,0.035304328535254566,0.059207111225495275,-119.37830144711691,-36.93902480540506,-34.267106355147284,-0.2598,-0.8633,-0.3168,-0.2946
24,1889241.0,1860.411977,1.0,3.43,6.22,-6.88,1.25,-36.25,20.5,1.25,0.31,-0.12,-0.038901072522217306,-0.06758286624095255,-0.08180889220091281,-119.37830144711691,-36.963188541465996,-34.30308206548676,-0.2596,-0.8633,-0.317,-0.2949
25,1889241.0,1860.411977,1.0,3.43,6.22,-6.88,1.25,-36.25,20.5,1.25,0.31,-0.12,-0.038901072522217306,-0.06758286624095255,-0.08180889220091281,-119.37830144711691,-36.963188541465996,-34.30308206548676,-0.2596,-0.8633,-0.317,-0.2949
26,1889277.0,1860.491262,1.0,3.41,6.07,-6.83,0.88,-36.69,20.06,-1.06,-0.19,0.5,-0.07393450175954575,-0.13740302254077807,0.05485251959433768,-119.37830144711691,-36.963188541465996,-34.29108977492126,-0.2594,-0.8633,-0.317,-0.2948
27,1889277.0,1860.491262,1.0,3.41,6.07,-6.83,0.88,-36.69,20.06,-1.06,-0.19,0.5,-0.07393450175954575,-0.13740302254077807,0.05485251959433768,-119.37830144711691,-36.963188541465996,-34.29108977492126,-0.2594,-0.8633,-0.317,-0.2948
28,1889312.0,1860.5018539999999,1.0,3.27,6.01,-6.57,1.69,-36.69,20.5,-3.0,-1.5,0.56,-0.01449259836720962,-0.017893060726331008,0.3210098105889312,-119.37830144711691,-36.92694357562125,-34.29108977492126,-0.2599,-0.8633,-0.3167,-0.2948
29,1889312.0,1860.5018539999999,1.0,3.27,6.01,-6.57,1.69,-36.69,20.5,-3.0,-1.5,0.56,-0.01449259836720962,-0.017893060726331008,0.3210098105889312,-119.37830144711691,-36.92694357562125,-34.29108977492126,-0.2599,-0.8633,-0.3167,-0.2948
30,1889347.0,1860.5451620000001,1.0,3.35,6.17,-6.65,1.69,-36.69,20.5,-1.94,0.31,1.19,0.03503617646554713,0.00445610767305471,0.13645596836634688,-119.3556000073112,-36.87862290728264,-34.315074743396394,-0.2605,-0.8632,-0.3163,-0.295
31,1889347.0,1860.5451620000001,1.0,3.35,6.17,-6.65,1.69,-36.69,20.5,-1.94,0.31,1.19,0.03503617646554713,0.00445610767305471,0.13645596836634688,-119.3556000073112,-36.87862290728264,-34.315074743396394,-0.2605,-0.8632,-0.3163,-0.295
32,1889382.0,1860.599939,1.0,3.35,6.19,-6.82,1.69,-36.69,21.25,-2.44,0.56,0.88,-0.08467775906088915,-0.0306549032216199,0.006502554475064315,-119.33290625430892,-36.818231622724255,-34.36304933185503,-0.261,-0.8631,-0.3158,-0.2954
33,1889382.0,1860.599939,1.0,3.35,6.19,-6.82,1.69,-36.69,21.25,-2.44,0.56,0.88,-0.08467775906088915,-0.0306549032216199,0.006502554475064315,-119.33290625430892,-36.818231622724255,-34.36304933185503,-0.261,-0.8631,-0.3158,-0.2954
34,1889417.0,1860.6097260000001,1.0,3.14,6.2,-6.47,0.88,-36.69,20.87,-1.5,-1.31,1.31,0.01935617290514735,0.21199313342021275,0.3137482176179045,-119.3556000073112,-36.75785092937251,-34.36304933185503,-0.2614,-0.8632,-0.3153,-0.2954
35,1889417.0,1860.6097260000001,1.0,3.14,6.2,-6.47,0.88,-36.69,20.87,-1.5,-1.31,1.31,0.01935617290514735,0.21199313342021275,0.3137482176179045,-119.3556000073112,-36.75785092937251,-34.36304933185503,-0.2614,-0.8632,-0.3153,-0.2954
36,1889452.0,1860.67104,1.0,3.38,6.33,-6.76,0.88,-36.69,20.87,-3.25,1.81,0.25,0.0010870937331334263,0.04268992526709869,-0.05180202800662137,-119.24220793672814,-36.72162758785172,-34.45901715267948,-0.2623,-0.8627,-0.315,-0.2962
37,1889452.0,1860.67104,1.0,3.38,6.33,-6.76,0.88,-36.69,20.87,-3.25,1.81,0.25,0.0010870937331334263,0.04268992526709869,-0.05180202800662137,-119.24220793672814,-36.72162758785172,-34.45901715267948,-0.2623,-0.8627,-0.315,-0.2962
38,1889486.0,1860.688518,1.0,3.27,6.49,-6.75,0.88,-36.69,21.25,-8.0,1.69,-4.13,-0.02698174421793109,0.19446924216206,-0.10984906465643184,-119.0385830310132,-36.74577605968171,-34.54300944397086,-0.2642,-0.8618,-0.3152,-0.2969
39,1889486.0,1860.688518,1.0,3.27,6.49,-6.75,0.88,-36.69,21.25,-8.0,1.69,-4.13,-0.02698174421793109,0.19446924216206,-0.10984906465643184,-119.0385830310132,-36.74577605968171,-34.54300944397086,-0.2642,-0.8618,-0.3152,-0.2969
40,1889521.0,1860.691646,1.0,3.39,6.52,-6.73,0.5,-36.69,19.25,-2.88,2.13,-2.31,0.05259099312300963,0.10643160100514004,-0.15735052698462404,-118.83557102370405,-36.830309031624424,-34.61501807279963,-0.2656,-0.8609,-0.3159,-0.2975
41,1889521.0,1860.691646,1.0,3.39,6.52,-6.73,0.5,-36.69,19.25,-2.88,2.13,-2.31,0.05259099312300963,0.10643160100514004,-0.15735052698462404,-118.83557102370405,-36.830309031624424,-34.61501807279963,-0.2656,-0.8609,-0.3159,-0.2975
42,1889556.0,1860.7317460000002,1.0,3.19,6.12,-6.47,1.69,-37.06,19.69,-0.75,-2.63,-1.0,-0.04544334850170284,0.047505662925290786,0.3468890033327483,-118.83557102370405,-36.842386864351504,-34.57901199780452,-0.2658,-0.8609,-0.316,-0.2972
43,1889556.0,1860.7317460000002,1.0,3.19,6.12,-6.47,1.69,-37.06,19.69,-0.75,-2.63,-1.0,-0.04544334850170284,0.047505662925290786,0.3468890033327483,-118.83557102370405,-36.842386864351504,-34.57901199780452,-0.2658,-0.8609,-0.316,-0.2972
44,1889591.0,1860.804035,1.0,3.26,6.08,-6.68,1.69,-37.06,19.69,-1.88,0.06,-0.81,-0.16129881681980165,-0.0924307018449242,0.20551260607374466,-118.81305169988,-36.842386864351504,-34.56701075551299,-0.2662,-0.8608,-0.316,-0.2971
45,1889591.0,1860.804035,1.0,3.26,6.08,-6.68,1.69,-37.06,19.69,-1.88,0.06,-0.81,-0.16129881681980165,-0.0924307018449242,0.20551260607374466,-118.81305169988,-36.842386864351504,-34.56701075551299,-0.2662,-0.8608,-0.316,-0.2971
46,1889626.0,1860.8081149999998,1.0,3.33,6.23,-6.64,0.19,-36.69,21.0,-2.69,-1.31,0.63,-0.03950001960413396,-0.04076936728627168,0.11189999769760027,-118.79053985855312,-36.818231622724255,-34.57901199780452,-0.2668,-0.8607,-0.3158,-0.2972
47,1889626.0,1860.8081149999998,1.0,3.33,6.23,-6.64,0.19,-36.69,21.0,-2.69,-1.31,0.63,-0.03950001960413396,-0.04076936728627168,0.11189999769760027,-118.79053985855312,-36.818231622724255,-34.57901199780452,-0.2668,-0.8607,-0.3158,-0.2972
48,1889662.0,1860.8453789999999,1.0,3.3,6.04,-6.54,1.25,-36.25,19.69,-0.19,-0.12,0.25,-0.06387854914079705,-0.12037820353879125,0.3132507869113379,-118.79053985855312,-36.79407807568971,-34.56701075551299,-0.267,-0.8607,-0.3156,-0.2971
49,1889662.0,1860.8453789999999,1.0,3.3,6.04,-6.54,1.25,-36.25,19.69,-0.19,-0.12,0.25,-0.06387854914079705,-0.12037820353879125,0.3132507869113379,-118.79053985855312,-36.79407807568971,-34.56701075551299,-0.267,-0.8607,-0.3156,-0.2971
50,1889697.0,1860.90529,1.0,3.24,5.62,-6.37,1.25,-36.25,19.69,-5.69,1.5,0.37,-0.15947098957766448,-0.31705898454160364,0.7218856880431623,-118.74553859011928,-36.769926221818416,-34.61501807279963,-0.2677,-0.8605,-0.3154,-0.2975
51,1889697.0,1860.90529,1.0,3.24,5.62,-6.37,1.25,-36.25,19.69,-5.69,1.5,0.37,-0.15947098957766448,-0.31705898454160364,0.7218856880431623,-118.74553859011928,-36.769926221818416,-34.61501807279963,-0.2677,-0.8605,-0.3154,-0.2975
52,1889730.0,1860.9231719999998,1.0,3.64,5.12,-6.6,1.25,-36.69,19.25,-10.5,4.13,-0.12,-0.315892373868618,-1.0170714746005394,0.7573529210172634,-118.45375451496908,-36.685408046310336,-34.87917065061918,-0.2701,-0.8592,-0.3147,-0.2997
53,1889730.0,1860.9231719999998,1.0,3.64,5.12,-6.6,1.25,-36.69,19.25,-10.5,4.13,-0.12,-0.315892373868618,-1.0170714746005394,0.7573529210172634,-118.45375451496908,-36.685408046310336,-34.87917065061918,-0.2701,-0.8592,-0.3147,-0.2997
54,1889767.0,1860.966463,1.0,3.92,4.81,-5.87,0.88,-37.06,19.69,-18.12,8.31,5.81,0.169542701869836,-1.241542692570426,1.3574354202436254,-118.1409144049607,-36.4923011370016,-35.23968756061282,-0.2731,-0.8578,-0.3131,-0.3027
55,1889767.0,1860.966463,1.0,3.92,4.81,-5.87,0.88,-37.06,19.69,-18.12,8.31,5.81,0.169542701869836,-1.241542692570426,1.3574354202436254,-118.1409144049607,-36.4923011370016,-35.23968756061282,-0.2731,-0.8578,-0.3131,-0.3027
56,1889804.0,1861.000107,1.0,4.41,4.2,-5.56,0.5,-37.5,19.69,-32.88,55.31,21.06,0.2425981914766693,-1.8729219370161303,1.7795079472307815,-117.254831475668,-36.07025258875129,-36.70955398535576,-0.2756,-0.8538,-0.3096,-0.3149
57,1889804.0,1861.000107,1.0,4.41,4.2,-5.56,0.5,-37.5,19.69,-32.88,55.31,21.06,0.2425981914766693,-1.8729219370161303,1.7795079472307815,-117.254831475668,-36.07025258875129,-36.70955398535576,-0.2756,-0.8538,-0.3096,-0.3149
58,1889837.0,1861.044795,1.0,6.18,4.52,-7.66,0.5,-37.5,19.69,-32.81,-16.81,36.06,-0.2587834052736012,-3.4420340287153723,-0.4590128083295415,-116.83785829536993,-35.23968756061282,-37.83422856646789,-0.2784,-0.8519,-0.3027,-0.3242
59,1889837.0,1861.044795,1.0,6.18,4.52,-7.66,0.5,-37.5,19.69,-32.81,-16.81,36.06,-0.2587834052736012,-3.4420340287153723,-0.4590128083295415,-116.83785829536993,-35.23968756061282,-37.83422856646789,-0.2784,-0.8519,-0.3027,-0.3242
60,1889875.0,1861.048041,1.0,6.01,5.51,-5.58,0.19,-37.75,18.0,-31.12,-17.31,44.0,1.431752869338769,-2.0274135217346685,0.2433724168161007,-117.69645604638977,-32.97426433366517,-37.81000260574194,-0.2865,-0.8558,-0.2838,-0.324
61,1889875.0,1861.048041,1.0,6.01,5.51,-5.58,0.19,-37.75,18.0,-31.12,-17.31,44.0,1.431752869338769,-2.0274135217346685,0.2433724168161007,-117.69645604638977,-32.97426433366517,-37.81000260574194,-0.2865,-0.8558,-0.2838,-0.324
62,1889910.0,1861.102809,1.0,5.77,4.12,-5.76,-1.25,-38.19,18.0,-28.25,-23.12,50.0,0.7260221959888136,-2.7833068695754695,1.1365292026462726,-118.36422556879907,-31.328533702747045,-37.95538472991653,-0.2893,-0.8588,-0.27,-0.3252
63,1889910.0,1861.102809,1.0,5.77,4.12,-5.76,-1.25,-38.19,18.0,-28.25,-23.12,50.0,0.7260221959888136,-2.7833068695754695,1.1365292026462726,-118.36422556879907,-31.328533702747045,-37.95538472991653,-0.2893,-0.8588,-0.27,-0.3252
64,1889945.0,1861.1498589999999,1.0,5.47,4.25,-5.29,-1.25,-38.19,18.0,-44.38,-18.5,61.69,0.8381393333273865,-2.2570952361847345,1.4298640081817948,-119.12900695445512,-28.576466242296,-38.31911836146923,-0.2966,-0.8622,-0.2468,-0.3282
65,1889945.0,1861.1498589999999,1.0,5.47,4.25,-5.29,-1.25,-38.19,18.0,-44.38,-18.5,61.69,0.8381393333273865,-2.2570952361847345,1.4298640081817948,-119.12900695445512,-28.576466242296,-38.31911836146923,-0.2966,-0.8622,-0.2468,-0.3282
66,1889980.0,1861.1686760000002,1.0,5.56,4.66,-4.98,-3.19,-39.0,17.56,-52.31,-24.06,73.25,1.0834986882450994,-1.789524952822192,1.2595317116060745,-119.81110097439955,-25.19492264637575,-38.85332219688672,-0.3054,-0.8652,-0.2181,-0.3326
67,1889980.0,1861.1686760000002,1.0,5.56,4.66,-4.98,-3.19,-39.0,17.56,-52.31,-24.06,73.25,1.0834986882450994,-1.789524952822192,1.2595317116060745,-119.81110097439955,-25.19492264637575,-38.85332219688672,-0.3054,-0.8652,-0.2181,-0.3326
68,1890017.0,1861.2129300000001,1.0,6.43,4.9,-5.65,-6.56,-39.0,16.0,-61.5,-27.37,81.94,1.1270724155382816,-2.2613024659251706,0.272835499615935,-120.24673960552259,-22.139049946746336,-39.2910517001401,-0.3134,-0.8671,-0.192,-0.3362
69,1890017.0,1861.2129300000001,1.0,6.43,4.9,-5.65,-6.56,-39.0,16.0,-61.5,-27.37,81.94,1.1270724155382816,-2.2613024659251706,0.272835499615935,-120.24673960552259,-22.139049946746336,-39.2910517001401,-0.3134,-0.8671,-0.192,-0.3362
70,1890052.0,1861.229266,1.0,6.29,6.1,-4.97,-6.56,-39.0,16.0,-78.06,-45.63,88.31,1.4241470030560808,-0.8780364730507664,-0.12692223085828758,-120.75479321636242,-17.427727524479447,-39.37623490539532,-0.3286,-0.8693,-0.1515,-0.3369
71,1890052.0,1861.229266,1.0,6.29,6.1,-4.97,-6.56,-39.0,16.0,-78.06,-45.63,88.31,1.4241470030560808,-0.8780364730507664,-0.12692223085828758,-120.75479321636242,-17.427727524479447,-39.37623490539532,-0.3286,-0.8693,-0.1515,-0.3369
72,1890086.0,1861.307434,1.0,6.22,6.49,-4.4,-8.75,-38.69,13.75,-82.44,-52.5,89.12,1.5896488905222372,-0.17942884603684206,-0.07309299736948027,-120.94052444578816,-13.922726077012074,-39.23022039326242,-0.3401,-0.8701,-0.1212,-0.3357
73,1890086.0,1861.307434,1.0,6.22,6.49,-4.4,-8.75,-38.69,13.75,-82.44,-52.5,89.12,1.5896488905222372,-0.17942884603684206,-0.07309299736948027,-120.94052444578816,-13.922726077012074,-39.23022039326242,-0.3401,-0.8701,-0.1212,-0.3357
74,1890123.0,1861.3180969999999,1.0,5.65,6.35,-4.22,-11.06,-39.38,11.0,-75.69,-54.44,86.56,1.0284233717631437,0.17624883798655674,0.3745409190192408,-121.01031078825766,-8.889760035755181,-38.74398218156732,-0.3557,-0.8704,-0.0775,-0.3317
75,1890123.0,1861.3180969999999,1.0,5.65,6.35,-4.22,-11.06,-39.38,11.0,-75.69,-54.44,86.56,1.0284233717631437,0.17624883798655674,0.3745409190192408,-121.01031078825766,-8.889760035755181,-38.74398218156732,-0.3557,-0.8704,-0.0775,-0.3317
76,1890158.0,1861.357945,1.0,4.76,5.08,-3.64,-14.69,-39.19,10.5,-91.31,-50.63,83.12,0.6804895326312663,-0.0785867521071606,1.9807725336469444,-120.50027377126791,-5.123950007684243,-38.343381493661,-0.3694,-0.8682,-0.0447,-0.3284
77,1890158.0,1861.357945,1.0,4.76,5.08,-3.64,-14.69,-39.19,10.5,-91.31,-50.63,83.12,0.6804895326312663,-0.0785867521071606,1.9807725336469444,-120.50027377126791,-5.123950007684243,-38.343381493661,-0.3694,-0.8682,-0.0447,-0.3284
78,1890193.0,1861.419913,1.0,4.24,4.95,-3.1,-14.69,-39.19,10.5,-94.56,-53.88,96.69,0.3492585172064296,0.3296898579798464,2.6053013009225823,-119.21955248767715,-0.02291831195802168,-38.04022025359053,-0.3868,-0.8626,-0.0002,-0.3259
79,1890193.0,1861.419913,1.0,4.24,4.95,-3.1,-14.69,-39.19,10.5,-94.56,-53.88,96.69,0.3492585172064296,0.3296898579798464,2.6053013009225823,-119.21955248767715,-0.02291831195802168,-38.04022025359053,-0.3868,-0.8626,-0.0002,-0.3259
80,1890228.0,1861.437643,1.0,4.26,4.61,-2.9,-17.0,-37.25,5.88,-67.69,-34.88,118.0,0.3076517040991681,0.3062301349530889,2.905833125642916,-118.16321281406336,4.4702044875913645,-38.10083031138289,-0.3949,-0.8579,0.039,-0.3264
81,1890228.0,1861.437643,1.0,4.26,4.61,-2.9,-17.0,-37.25,5.88,-67.69,-34.88,118.0,0.3076517040991681,0.3062301349530889,2.905833125642916,-118.16321281406336,4.4702044875913645,-38.10083031138289,-0.3949,-0.8579,0.039,-0.3264
82,1890265.0,1861.4755440000001,1.0,5.33,3.44,-3.09,-20.0,-37.38,5.38,-99.25,-25.5,114.25,1.1163681798806713,-0.6798164224807992,2.8725190725747494,-115.85999031103985,10.085614182042526,-38.780424772104546,-0.4048,-0.8474,0.0879,-0.332
83,1890265.0,1861.4755440000001,1.0,5.33,3.44,-3.09,-20.0,-37.38,5.38,-99.25,-25.5,114.25,1.1163681798806713,-0.6798164224807992,2.8725190725747494,-115.85999031103985,10.085614182042526,-38.780424772104546,-0.4048,-0.8474,0.0879,-0.332
84,1890299.0,1861.4837730000002,1.0,6.8,5.07,-2.06,-20.0,-37.38,5.38,-166.31,-19.5,92.37,1.6622905910667345,0.9041503454434174,1.2856288086353445,-112.50626800349724,14.211377245158012,-39.01132279075521,-0.4263,-0.8315,0.1237,-0.3339
85,1890299.0,1861.4837730000002,1.0,6.8,5.07,-2.06,-20.0,-37.38,5.38,-166.31,-19.5,92.37,1.6622905910667345,0.9041503454434174,1.2856288086353445,-112.50626800349724,14.211377245158012,-39.01132279075521,-0.4263,-0.8315,0.1237,-0.3339
86,1890334.0,1861.549245,1.0,7.9,6.79,-1.15,-25.19,-35.56,5.69,-220.25,-20.81,59.75,1.3639497913679643,2.0362757835542125,-0.38304194332870795,-106.1456894229273,19.447737797457524,-38.452587715507434,-0.4731,-0.7994,0.1689,-0.3293
87,1890334.0,1861.549245,1.0,7.9,6.79,-1.15,-25.19,-35.56,5.69,-220.25,-20.81,59.75,1.3639497913679643,2.0362757835542125,-0.38304194332870795,-106.1456894229273,19.447737797457524,-38.452587715507434,-0.4731,-0.7994,0.1689,-0.3293
88,1890369.0,1861.6196300000001,1.0,6.15,7.62,1.7,-28.56,-34.06,1.56,-218.88,-13.75,31.75,-0.08782452073299707,4.19072199208682,0.79515533825837,-99.10487032365977,23.65899809735879,-37.09611957275582,-0.5269,-0.7609999999999999,0.205,-0.3181
89,1890369.0,1861.6196300000001,1.0,6.15,7.62,1.7,-28.56,-34.06,1.56,-218.88,-13.75,31.75,-0.08782452073299707,4.19072199208682,0.79515533825837,-99.10487032365977,23.65899809735879,-37.09611957275582,-0.5269,-0.7609999999999999,0.205,-0.3181
90,1890406.0,1861.6233140000002,1.0,4.57,5.31,3.89,-31.69,-30.06,-5.19,-226.25,21.12,12.25,0.4139347863046317,4.975292926126438,3.538618547309037,-93.48813148907244,25.67656503656709,-36.33548075823788,-0.5682,-0.7283,0.2222,-0.3118
91,1890406.0,1861.6233140000002,1.0,4.57,5.31,3.89,-31.69,-30.06,-5.19,-226.25,21.12,12.25,0.4139347863046317,4.975292926126438,3.538618547309037,-93.48813148907244,25.67656503656709,-36.33548075823788,-0.5682,-0.7283,0.2222,-0.3118
92,1890441.0,1861.666716,1.0,4.87,6.0,6.15,-31.69,-30.06,-5.19,-248.25,32.88,12.56,-0.2294566480178366,6.43698961488695,2.319867356933756,-84.89277022411406,28.26912231018425,-35.227664546585345,-0.6271,-0.6749,0.2442,-0.3026
93,1890441.0,1861.666716,1.0,4.87,6.0,6.15,-31.69,-30.06,-5.19,-248.25,32.88,12.56,-0.2294566480178366,6.43698961488695,2.319867356933756,-84.89277022411406,28.26912231018425,-35.227664546585345,-0.6271,-0.6749,0.2442,-0.3026
94,1890478.0,1861.683702,1.0,6.37,7.81,6.52,-30.56,-28.69,-8.69,-245.5,58.44,25.0,-1.0971657553688656,5.7390265978083495,-0.6787303466967369,-77.71711737256554,29.96215210560615,-34.699045966979874,-0.6714,-0.6274,0.2585,-0.2982
95,1890478.0,1861.683702,1.0,6.37,7.81,6.52,-30.56,-28.69,-8.69,-245.5,58.44,25.0,-1.0971657553688656,5.7390265978083495,-0.6787303466967369,-77.71711737256554,29.96215210560615,-34.699045966979874,-0.6714,-0.6274,0.2585,-0.2982
96,1890514.0,1861.730091,1.0,6.97,7.03,6.92,-31.37,-26.25,-15.88,-155.25,68.69,90.19,-0.9547141609631832,4.799717950186321,-1.235968732416488,-69.59810663742078,31.90019165418321,-35.9377135193296,-0.7097,-0.5707,0.2748,-0.3085
97,1890514.0,1861.730091,1.0,6.97,7.03,6.92,-31.37,-26.25,-15.88,-155.25,68.69,90.19,-0.9547141609631832,4.799717950186321,-1.235968732416488,-69.59810663742078,31.90019165418321,-35.9377135193296,-0.7097,-0.5707,0.2748,-0.3085
98,1890551.0,1861.7475140000001,1.0,8.48,6.06,6.08,-31.37,-26.25,-15.88,-64.25,84.06,150.06,0.06693936182123705,3.1982919907733187,-1.828075929887396,-65.05440942764349,33.309024075692264,-39.351894536966725,-0.718,-0.5377,0.2866,-0.3367
99,1890551.0,1861.7475140000001,1.0,8.48,6.06,6.08,-31.37,-26.25,-15.88,-64.25,84.06,150.06,0.06693936182123705,3.1982919907733187,-1.828075929887396,-65.05440942764349,33.309024075692264,-39.351894536966725,-0.718,-0.5377,0.2866,-0.3367
100,1890584.0,1861.785584,1.0,9.74,3.99,5.37,-32.56,-21.56,-21.37,-11.94,93.31,178.63,1.4559970799590218,1.8681163751765502,-1.7698267400080765,-60.609606145201504,34.60301565627788,-46.25767230528911,-0.7090000000000001,-0.5046,0.2974,-0.3928
101,1890584.0,1861.785584,1.0,9.74,3.99,5.37,-32.56,-21.56,-21.37,-11.94,93.31,178.63,1.4559970799590218,1.8681163751765502,-1.7698267400080765,-60.609606145201504,34.60301565627788,-46.25767230528911,-0.7090000000000001,-0.5046,0.2974,-0.3928
102,1890621.0,1861.844465,1.0,10.11,3.71,6.1,-33.75,-16.25,-25.5,-50.13,82.56,158.56,0.7166725719596712,1.6625768960929557,-2.437059343543672,-55.52401793690186,36.1305141127441,-52.33540497698414,-0.7017,-0.4658,0.3101,-0.441
103,1890621.0,1861.844465,1.0,10.11,3.71,6.1,-33.75,-16.25,-25.5,-50.13,82.56,158.56,0.7166725719596712,1.6625768960929557,-2.437059343543672,-55.52401793690186,36.1305141127441,-52.33540497698414,-0.7017,-0.4658,0.3101,-0.441
104,1890658.0,1861.860698,1.0,9.56,4.44,7.41,-32.88,-11.75,-29.06,-88.56,72.31,122.5,-1.063847150776138,2.263991786050124,-2.8328860054269014,-51.214517795618676,37.49522418973963,-55.549919093881286,-0.7020000000000001,-0.4322,0.3214,-0.466
105,1890658.0,1861.860698,1.0,9.56,4.44,7.41,-32.88,-11.75,-29.06,-88.56,72.31,122.5,-1.063847150776138,2.263991786050124,-2.8328860054269014,-51.214517795618676,37.49522418973963,-55.549919093881286,-0.7020000000000001,-0.4322,0.3214,-0.466
106,1890693.0,1861.902641,1.0,8.74,5.28,8.96,-32.88,-11.75,-29.06,-111.19,91.37,98.19,-3.273155174833577,2.6779015100875947,-3.1031485539562507,-44.7912774389752,38.74398218156732,-58.74690084345127,-0.7101,-0.381,0.3317,-0.4905
107,1890693.0,1861.902641,1.0,8.74,5.28,8.96,-32.88,-11.75,-29.06,-111.19,91.37,98.19,-3.273155174833577,2.6779015100875947,-3.1031485539562507,-44.7912774389752,38.74398218156732,-58.74690084345127,-0.7101,-0.381,0.3317,-0.4905
108,1890729.0,1861.920518,1.0,11.39,7.17,9.57,-32.19,-6.19,-32.0,-198.75,169.44,43.56,-5.055488281915847,-0.20259226262523497,-5.913620182364426,-38.13720165916782,38.47686069075838,-60.0396996516268,-0.731,-0.3267,0.3295,-0.5003
109,1890729.0,1861.920518,1.0,11.39,7.17,9.57,-32.19,-6.19,-32.0,-198.75,169.44,43.56,-5.055488281915847,-0.20259226262523497,-5.913620182364426,-38.13720165916782,38.47686069075838,-60.0396996516268,-0.731,-0.3267,0.3295,-0.5003
110,1890766.0,1861.9655649999997,1.0,14.48,12.53,6.78,-28.69,-0.25,-37.69,-129.31,171.88,96.94,-9.589150424475177,-8.688291034808675,-5.8522609784573065,-27.950176987884003,37.943267133561115,-61.86127398626197,-0.7562,-0.2415,0.3251,-0.514
111,1890766.0,1861.9655649999997,1.0,14.48,12.53,6.78,-28.69,-0.25,-37.69,-129.31,171.88,96.94,-9.589150424475177,-8.688291034808675,-5.8522609784573065,-27.950176987884003,37.943267133561115,-61.86127398626197,-0.7562,-0.2415,0.3251,-0.514
112,1890801.0,1861.9826510000003,1.0,14.42,9.44,2.78,-28.69,-0.25,-37.69,122.25,146.81,68.25,-6.074294671403121,-11.095207967728877,-2.2257107159114664,-25.535549170145078,34.18317656247093,-65.65341937322533,-0.7556,-0.221,0.2939,-0.5421
113,1890801.0,1861.9826510000003,1.0,14.42,9.44,2.78,-28.69,-0.25,-37.69,122.25,146.81,68.25,-6.074294671403121,-11.095207967728877,-2.2257107159114664,-25.535549170145078,34.18317656247093,-65.65341937322533,-0.7556,-0.221,0.2939,-0.5421
114,1890836.0,1862.024087,1.0,12.64,2.69,1.18,-21.69,7.06,-38.5,171.69,-34.31,43.56,0.01740259464671734,-8.850584582021707,0.3163944867812329,-29.57087281914313,29.073389830335397,-70.0172862891219,-0.7367,-0.2552,0.251,-0.5737
115,1890836.0,1862.024087,1.0,12.64,2.69,1.18,-21.69,7.06,-38.5,171.69,-34.31,43.56,0.01740259464671734,-8.850584582021707,0.3163944867812329,-29.57087281914313,29.073389830335397,-70.0172862891219,-0.7367,-0.2552,0.251,-0.5737
116,1890873.0,1862.083522,1.0,10.71,4.81,5.17,-15.69,4.75,-43.0,87.19,-174.94,10.5,-2.7047591569412384,-3.854438722825331,-2.1263580044776287,-35.841352697842005,31.06679175207397,-69.84948599144745,-0.7112,-0.3077,0.2678,-0.5725
117,1890873.0,1862.083522,1.0,10.71,4.81,5.17,-15.69,4.75,-43.0,87.19,-174.94,10.5,-2.7047591569412384,-3.854438722825331,-2.1263580044776287,-35.841352697842005,31.06679175207397,-69.84948599144745,-0.7112,-0.3077,0.2678,-0.5725
118,1890908.0,1862.101151,1.0,5.41,2.16,10.96,-19.5,-0.37,-42.19,70.31,-85.94,-114.12,-0.8202583071080971,5.121430438553153,-1.4695828183077817,-40.47348957852153,31.56662645811723,-66.98117667091634,-0.7085,-0.3459,0.272,-0.5518
119,1890908.0,1862.101151,1.0,5.41,2.16,10.96,-19.5,-0.37,-42.19,70.31,-85.94,-114.12,-0.8202583071080971,5.121430438553153,-1.4695828183077817,-40.47348957852153,31.56662645811723,-66.98117667091634,-0.7085,-0.3459,0.272,-0.5518
120,1890942.0,1862.143707,1.0,4.74,0.11,8.72,-19.5,-0.37,-42.19,24.06,25.19,-134.88,1.6157840219623552,4.132597280802719,0.928081325429016,-42.778242722959625,28.836690473319894,-63.12118872806756,-0.7287,-0.3647,0.249,-0.5234
121,1890942.0,1862.143707,1.0,4.74,0.11,8.72,-19.5,-0.37,-42.19,24.06,25.19,-134.88,1.6157840219623552,4.132597280802719,0.928081325429016,-42.778242722959625,28.836690473319894,-63.12118872806756,-0.7287,-0.3647,0.249,-0.5234
122,1890979.0,1862.23885,1.0,5.17,0.08,5.95,-24.0,-4.5,-38.38,17.31,34.0,-66.94,2.035195344112904,1.5939173769404509,2.3598246826725937,-43.135358011103925,26.74724052277769,-61.48758848560482,-0.7416,-0.3676,0.2313,-0.5112
123,1890979.0,1862.23885,1.0,5.17,0.08,5.95,-24.0,-4.5,-38.38,17.31,34.0,-66.94,2.035195344112904,1.5939173769404509,2.3598246826725937,-43.135358011103925,26.74724052277769,-61.48758848560482,-0.7416,-0.3676,0.2313,-0.5112
124,1891016.0,1862.2503600000002,1.0,4.91,0.88,6.86,-20.69,-7.5,-38.69,42.5,-5.0,29.31,1.3981223439760906,2.2997614536473483,1.763115256642907,-44.060987161952966,25.770597576108926,-61.84791552643628,-0.7386,-0.3751,0.223,-0.5139
125,1891016.0,1862.2503600000002,1.0,4.91,0.88,6.86,-20.69,-7.5,-38.69,42.5,-5.0,29.31,1.3981223439760906,2.2997614536473483,1.763115256642907,-44.060987161952966,25.770597576108926,-61.84791552643628,-0.7386,-0.3751,0.223,-0.5139
126,1891051.0,1862.253369,1.0,5.16,1.35,7.03,-20.69,-7.5,-38.69,55.25,-0.31,60.25,1.0923459990797324,2.267560438953415,1.3488754774682032,-44.927644585005865,25.65305965168436,-63.484648540415236,-0.7266,-0.3821,0.222,-0.5261
127,1891051.0,1862.253369,1.0,5.16,1.35,7.03,-20.69,-7.5,-38.69,55.25,-0.31,60.25,1.0923459990797324,2.267560438953415,1.3488754774682032,-44.927644585005865,25.65305965168436,-63.484648540415236,-0.7266,-0.3821,0.222,-0.5261
128,1891086.0,1862.292807,1.0,5.79,0.84,6.48,-21.75,-8.56,-38.25,51.06,16.62,66.5,1.7364185375174477,1.5215826660616116,1.3870456831151134,-45.77214298203665,25.147957501678356,-66.41873200300768,-0.7081,-0.3889,0.2177,-0.5477
129,1891086.0,1862.292807,1.0,5.79,0.84,6.48,-21.75,-8.56,-38.25,51.06,16.62,66.5,1.7364185375174477,1.5215826660616116,1.3870456831151134,-45.77214298203665,25.147957501678356,-66.41873200300768,-0.7081,-0.3889,0.2177,-0.5477
130,1891121.0,1862.3053579999998,1.0,6.67,1.5,6.45,-21.75,-9.38,-37.88,24.25,24.62,61.63,1.233039567709538,0.8080121292095039,0.5239709781058899,-45.53591791274641,24.819321185763364,-69.17998997689496,-0.6941,-0.387,0.2149,-0.5677
131,1891121.0,1862.3053579999998,1.0,6.67,1.5,6.45,-21.75,-9.38,-37.88,24.25,24.62,61.63,1.233039567709538,0.8080121292095039,0.5239709781058899,-45.53591791274641,24.819321185763364,-69.17998997689496,-0.6941,-0.387,0.2149,-0.5677
132,1891158.0,1862.35737,1.0,7.78,1.85,5.94,-21.75,-10.06,-38.38,13.81,28.94,52.81,0.9541571360943492,-0.4015002622091408,-0.10106828924733867,-44.940044922743645,24.67854067669555,-70.83076596739934,-0.6873,-0.3822,0.2137,-0.5795
133,1891158.0,1862.35737,1.0,7.78,1.85,5.94,-21.75,-10.06,-38.38,13.81,28.94,52.81,0.9541571360943492,-0.4015002622091408,-0.10106828924733867,-44.940044922743645,24.67854067669555,-70.83076596739934,-0.6873,-0.3822,0.2137,-0.5795
134,1891192.0,1862.3781149999998,1.0,8.25,2.19,5.64,-21.75,-10.06,-38.38,2.69,23.87,42.94,0.4584465327638034,-1.0683884136342348,-0.3578260304803198,-44.07334918943469,24.56125248965988,-72.79731116496349,-0.6796,-0.3752,0.2127,-0.5934
135,1891192.0,1862.3781149999998,1.0,8.25,2.19,5.64,-21.75,-10.06,-38.38,2.69,23.87,42.94,0.4584465327638034,-1.0683884136342348,-0.3578260304803198,-44.07334918943469,24.56125248965988,-72.79731116496349,-0.6796,-0.3752,0.2127,-0.5934
136,1891229.0,1862.4142420000003,1.0,8.37,2.7,5.44,-19.87,-9.38,-38.5,-10.31,11.44,25.69,-0.19058465386230486,-1.3660440651516834,-0.4421597407345797,-43.38190073527359,24.79585513058625,-73.51078365135078,-0.6777,-0.3696,0.2147,-0.5984
137,1891229.0,1862.4142420000003,1.0,8.37,2.7,5.44,-19.87,-9.38,-38.5,-10.31,11.44,25.69,-0.19058465386230486,-1.3660440651516834,-0.4421597407345797,-43.38190073527359,24.79585513058625,-73.51078365135078,-0.6777,-0.3696,0.2147,-0.5984
138,1891266.0,1862.4768179999999,1.0,8.0,2.85,5.72,-19.87,-9.0,-40.06,-13.5,-2.44,7.81,-0.4935082080599345,-0.9363438034797054,-0.37768158976388655,-42.76593619701882,25.32409900412527,-73.69682949726199,-0.6778,-0.3646,0.2192,-0.5997
139,1891266.0,1862.4768179999999,1.0,8.0,2.85,5.72,-19.87,-9.0,-40.06,-13.5,-2.44,7.81,-0.4935082080599345,-0.9363438034797054,-0.37768158976388655,-42.76593619701882,25.32409900412527,-73.69682949726199,-0.6778,-0.3646,0.2192,-0.5997
140,1891299.0,1862.495212,1.0,7.38,2.86,6.31,-19.87,-9.0,-40.06,-13.38,-9.88,-1.19,-0.5874590084953952,-0.06088791735989951,-0.29836284387393697,-42.60599837478333,25.747087788934113,-73.51078365135078,-0.6784,-0.3633,0.2228,-0.5984
141,1891299.0,1862.495212,1.0,7.38,2.86,6.31,-19.87,-9.0,-40.06,-13.38,-9.88,-1.19,-0.5874590084953952,-0.06088791735989951,-0.29836284387393697,-42.60599837478333,25.747087788934113,-73.51078365135078,-0.6784,-0.3633,0.2228,-0.5984
142,1891334.0,1862.5418559999998,1.0,7.01,2.84,6.46,-20.25,-8.19,-39.69,-10.94,-9.63,-5.38,-0.6446909956243552,0.33199263369355303,-0.11360475536460868,-42.53221028877852,26.288094094940124,-72.86851051764684,-0.6812,-0.3627,0.2274,-0.5939
143,1891334.0,1862.5418559999998,1.0,7.01,2.84,6.46,-20.25,-8.19,-39.69,-10.94,-9.63,-5.38,-0.6446909956243552,0.33199263369355303,-0.11360475536460868,-42.53221028877852,26.288094094940124,-72.86851051764684,-0.6812,-0.3627,0.2274,-0.5939
144,1891368.0,1862.5596170000001,1.0,6.89,2.56,6.47,-21.75,-7.06,-40.5,0.06,-3.63,-4.13,-0.39085295756332417,0.4387842666958259,0.032126874401276595,-42.49532318150223,26.52349964582953,-72.35660000190678,-0.6838,-0.3624,0.2294,-0.5903
145,1891368.0,1862.5596170000001,1.0,6.89,2.56,6.47,-21.75,-7.06,-40.5,0.06,-3.63,-4.13,-0.39085295756332417,0.4387842666958259,0.032126874401276595,-42.49532318150223,26.52349964582953,-72.35660000190678,-0.6838,-0.3624,0.2294,-0.5903
146,1891405.0,1862.599063,1.0,6.92,2.51,6.52,-21.0,-7.5,-40.5,1.63,-0.94,-1.81,-0.31419414435602944,0.4686365303967868,-0.01060836687769573,-42.54450701803225,26.582368805630427,-72.0729272521427,-0.6852,-0.3628,0.2299,-0.5883
147,1891405.0,1862.599063,1.0,6.92,2.51,6.52,-21.0,-7.5,-40.5,1.63,-0.94,-1.81,-0.31419414435602944,0.4686365303967868,-0.01060836687769573,-42.54450701803225,26.582368805630427,-72.0729272521427,-0.6852,-0.3628,0.2299,-0.5883
148,1891440.0,1862.655697,1.0,7.11,2.42,6.12,-21.0,-7.5,-40.5,4.94,2.94,-2.0,-0.20248507121910908,0.025524642656987062,0.12051308745583532,-42.59369907468167,26.35870385587789,-72.08709874052984,-0.6855,-0.3632,0.228,-0.5884
149,1891440.0,1862.655697,1.0,7.11,2.42,6.12,-21.0,-7.5,-40.5,4.94,2.94,-2.0,-0.20248507121910908,0.025524642656987062,0.12051308745583532,-42.59369907468167,26.35870385587789,-72.08709874052984,-0.6855,-0.3632,0.228,-0.5884
150,1891477.0,1862.6684120000002,1.0,7.14,2.3,6.16,-21.37,-8.19,-40.06,2.88,-0.06,-4.06,-0.04192578426755711,0.039271136591839895,0.10036852837327004,-42.69210790112656,26.229260388868166,-71.95960119494845,-0.6862,-0.364,0.2269,-0.5875
151,1891477.0,1862.6684120000002,1.0,7.14,2.3,6.16,-21.37,-8.19,-40.06,2.88,-0.06,-4.06,-0.04192578426755711,0.039271136591839895,0.10036852837327004,-42.69210790112656,26.229260388868166,-71.95960119494845,-0.6862,-0.364,0.2269,-0.5875
152,1891510.0,1862.71803,1.0,7.01,2.16,6.3,-20.69,-7.5,-39.25,1.37,-1.0,-5.25,0.10867447548482344,0.23827007203939776,0.1408796100544354,-42.72901972322527,26.229260388868166,-71.64837292642449,-0.6879,-0.3643,0.2269,-0.5853
153,1891510.0,1862.71803,1.0,7.01,2.16,6.3,-20.69,-7.5,-39.25,1.37,-1.0,-5.25,0.10867447548482344,0.23827007203939776,0.1408796100544354,-42.72901972322527,26.229260388868166,-71.64837292642449,-0.6879,-0.3643,0.2269,-0.5853
154,1891545.0,1862.7382510000002,1.0,6.95,2.15,6.24,-20.69,-7.5,-39.25,-0.63,-0.19,-4.75,0.1166438984526863,0.222460466361458,0.2254441499068083,-42.72901972322527,26.170433719349266,-71.5071072040017,-0.6890000000000001,-0.3643,0.2264,-0.5843
155,1891545.0,1862.7382510000002,1.0,6.95,2.15,6.24,-20.69,-7.5,-39.25,-0.63,-0.19,-4.75,0.1166438984526863,0.222460466361458,0.2254441499068083,-42.72901972322527,26.170433719349266,-71.5071072040017,-0.6890000000000001,-0.3643,0.2264,-0.5843
156,1891579.0,1862.80602,1.0,6.95,2.17,6.21,-20.69,-7.06,-39.25,-0.94,0.5,-1.56,0.09414903013889032,0.18838043459673812,0.2394587312950041,-42.59369907468167,26.26455976697084,-71.1967628126257,-0.6911,-0.3632,0.2272,-0.5821
157,1891579.0,1862.80602,1.0,6.95,2.17,6.21,-20.69,-7.06,-39.25,-0.94,0.5,-1.56,0.09414903013889032,0.18838043459673812,0.2394587312950041,-42.59369907468167,26.26455976697084,-71.1967628126257,-0.6911,-0.3632,0.2272,-0.5821
158,1891616.0,1862.810425,1.0,6.94,2.32,6.34,-21.0,-7.88,-40.06,-1.31,1.56,1.75,-0.049660766010943824,0.2685489906753806,0.1284778973802876,-42.43385492531204,26.32339770363258,-71.06997715893745,-0.6924,-0.3619,0.2277,-0.5812
159,1891616.0,1862.810425,1.0,6.94,2.32,6.34,-21.0,-7.88,-40.06,-1.31,1.56,1.75,-0.049660766010943824,0.2685489906753806,0.1284778973802876,-42.43385492531204,26.32339770363258,-71.06997715893745,-0.6924,-0.3619,0.2277,-0.5812
160,1891651.0,1862.8530039999998,1.0,7.03,2.41,6.21,-21.0,-7.88,-40.06,-0.25,3.0,3.5,-0.13873111724328036,0.09209826300010128,0.12339788167421163,-42.36010990852977,26.288094094940124,-71.16857955140104,-0.6923,-0.3613,0.2274,-0.5819
161,1891651.0,1862.8530039999998,1.0,7.03,2.41,6.21,-21.0,-7.88,-40.06,-0.25,3.0,3.5,-0.13873111724328036,0.09209826300010128,0.12339788167421163,-42.36010990852977,26.288094094940124,-71.16857955140104,-0.6923,-0.3613,0.2274,-0.5819
162,1891684.0,1862.871582,1.0,7.11,2.42,6.02,-19.87,-7.5,-40.5,0.69,2.63,4.69,-0.1665324899871763,-0.1191029108516295,0.1833978768139186,-42.22495842729175,26.32339770363258,-71.18267056189946,-0.6926,-0.3602,0.2277,-0.5820000000000001
163,1891684.0,1862.871582,1.0,7.11,2.42,6.02,-19.87,-7.5,-40.5,0.69,2.63,4.69,-0.1665324899871763,-0.1191029108516295,0.1833978768139186,-42.22495842729175,26.32339770363258,-71.18267056189946,-0.6926,-0.3602,0.2277,-0.5820000000000001
164,1891719.0,1862.920796,1.0,7.12,2.38,6.17,-20.69,-7.5,-40.06,1.75,1.88,4.38,-0.11957032552628033,-0.014108736728967397,0.09000428860342602,-42.138984987118995,26.38224270571989,-71.12631395587046,-0.6931,-0.3595,0.2282,-0.5816
165,1891719.0,1862.920796,1.0,7.12,2.38,6.17,-20.69,-7.5,-40.06,1.75,1.88,4.38,-0.11957032552628033,-0.014108736728967397,0.09000428860342602,-42.138984987118995,26.38224270571989,-71.12631395587046,-0.6931,-0.3595,0.2282,-0.5816
166,1891753.0,1862.940139,1.0,7.19,2.34,6.23,-20.69,-7.5,-40.06,1.63,1.25,3.94,-0.06792101399761917,-0.013664444490844918,0.009721909071989998,-42.12670509670736,26.35870385587789,-71.26724268861088,-0.6924,-0.3594,0.228,-0.5826
167,1891753.0,1862.940139,1.0,7.19,2.34,6.23,-20.69,-7.5,-40.06,1.63,1.25,3.94,-0.06792101399761917,-0.013664444490844918,0.009721909071989998,-42.12670509670736,26.35870385587789,-71.26724268861088,-0.6924,-0.3594,0.228,-0.5826
168,1891786.0,1863.0882969999998,1.0,7.19,2.27,6.39,-21.37,-8.56,-39.25,0.88,-0.69,1.56,0.010157331766959876,0.11370032782293048,-0.07606567252970997,-42.12670509670736,26.35870385587789,-71.35185958052234,-0.6919,-0.3594,0.228,-0.5832
169,1891786.0,1863.0882969999998,1.0,7.19,2.27,6.39,-21.37,-8.56,-39.25,0.88,-0.69,1.56,0.010157331766959876,0.11370032782293048,-0.07606567252970997,-42.12670509670736,26.35870385587789,-71.35185958052234,-0.6919,-0.3594,0.228,-0.5832
170,1891821.0,1863.092034,1.0,6.99,2.22,6.49,-19.5,-8.19,-39.69,0.94,-1.37,0.75,0.02603363852991536,0.326979406706323,0.01885113011843309,-42.151265384526,26.370473139201327,-71.35185958052234,-0.6917,-0.3596,0.2281,-0.5832
171,1891821.0,1863.092034,1.0,6.99,2.22,6.49,-19.5,-8.19,-39.69,0.94,-1.37,0.75,0.02603363852991536,0.326979406706323,0.01885113011843309,-42.151265384526,26.370473139201327,-71.35185958052234,-0.6917,-0.3596,0.2281,-0.5832
172,1891858.0,1863.0953710000001,1.0,6.98,2.24,6.36,-19.87,-7.88,-41.0,1.19,0.69,0.56,-0.007671384138361771,0.22876328824907266,0.1043199443991849,-42.12670509670736,26.370473139201327,-71.30954553159043,-0.6921,-0.3594,0.2281,-0.5829
173,1891858.0,1863.0953710000001,1.0,6.98,2.24,6.36,-19.87,-7.88,-41.0,1.19,0.69,0.56,-0.007671384138361771,0.22876328824907266,0.1043199443991849,-42.12670509670736,26.370473139201327,-71.30954553159043,-0.6921,-0.3594,0.2281,-0.5829
174,1891891.0,1863.101073,1.0,6.9,2.24,6.34,-19.87,-7.88,-41.0,0.63,-0.69,-0.63,-0.023646163591691804,0.26112879249347554,0.17573869251313567,-42.12670509670736,26.335166138238048,-71.3236489687373,-0.6921,-0.3594,0.2278,-0.583
175,1891891.0,1863.101073,1.0,6.9,2.24,6.34,-19.87,-7.88,-41.0,0.63,-0.69,-0.63,-0.023646163591691804,0.26112879249347554,0.17573869251313567,-42.12670509670736,26.335166138238048,-71.3236489687373,-0.6921,-0.3594,0.2278,-0.583
176,1891928.0,1863.1465899999998,1.0,7.01,2.21,6.23,-20.25,-8.19,-41.25,0.94,1.88,-1.5,0.0275934503981905,0.0976172454836024,0.17198293388508826,-42.10214683605518,26.27632678993584,-71.26724268861088,-0.6927,-0.3592,0.2273,-0.5826
177,1891928.0,1863.1465899999998,1.0,7.01,2.21,6.23,-20.25,-8.19,-41.25,0.94,1.88,-1.5,0.0275934503981905,0.0976172454836024,0.17198293388508826,-42.10214683605518,26.27632678993584,-71.26724268861088,-0.6927,-0.3592,0.2273,-0.5826
178,1891962.0,1863.1644190000002,1.0,7.06,2.21,6.27,-20.25,-7.88,-40.5,-0.44,1.31,-3.63,0.05236654927998097,0.0851642209343193,0.10971209156781292,-42.053036389733045,26.25279302590076,-71.12631395587046,-0.6938,-0.3588,0.2271,-0.5816
179,1891962.0,1863.1644190000002,1.0,7.06,2.21,6.27,-20.25,-7.88,-40.5,-0.44,1.31,-3.63,0.05236654927998097,0.0851642209343193,0.10971209156781292,-42.053036389733045,26.25279302590076,-71.12631395587046,-0.6938,-0.3588,0.2271,-0.5816
180,1891997.0,1863.209277,1.0,7.01,2.12,6.25,-20.25,-7.88,-40.5,-1.25,0.94,-3.88,0.14276850598467286,0.09597751071569594,0.1802589072209564,-42.028484200807156,26.1821984911941,-70.9995839667978,-0.6948,-0.3586,0.2265,-0.5807
181,1891997.0,1863.209277,1.0,7.01,2.12,6.25,-20.25,-7.88,-40.5,-1.25,0.94,-3.88,0.14276850598467286,0.09597751071569594,0.1802589072209564,-42.028484200807156,26.1821984911941,-70.9995839667978,-0.6948,-0.3586,0.2265,-0.5807
182,1892032.0,1863.227107,1.0,7.12,2.12,6.09,-20.25,-8.19,-40.06,-1.81,1.25,-2.75,0.15616778377125207,-0.1080438767944818,0.20244060286588628,-41.96711256530092,26.170433719349266,-70.9010852783508,-0.6958,-0.3581,0.2264,-0.58
183,1892032.0,1863.227107,1.0,7.12,2.12,6.09,-20.25,-8.19,-40.06,-1.81,1.25,-2.75,0.15616778377125207,-0.1080438767944818,0.20244060286588628,-41.96711256530092,26.170433719349266,-70.9010852783508,-0.6958,-0.3581,0.2264,-0.58
184,1892069.0,1863.2683769999999,1.0,7.07,2.22,6.37,-20.69,-7.88,-40.5,-4.31,-0.37,-1.37,0.06832286237070773,0.12328416807271815,0.03575787080421655,-41.832139296563675,26.288094094940124,-70.66212462929855,-0.6974,-0.35700000000000004,0.2274,-0.5783
185,1892069.0,1863.2683769999999,1.0,7.07,2.22,6.37,-20.69,-7.88,-40.5,-4.31,-0.37,-1.37,0.06832286237070773,0.12328416807271815,0.03575787080421655,-41.832139296563675,26.288094094940124,-70.66212462929855,-0.6974,-0.35700000000000004,0.2274,-0.5783
186,1892102.0,1863.2854079999997,1.0,7.06,2.42,6.32,-20.69,-7.88,-40.5,-4.38,-0.06,-0.06,-0.14489233716261676,0.07199140394598612,0.028295156347132533,-41.74627885444266,26.35870385587789,-70.61999179043644,-0.6978,-0.3563,0.228,-0.578
187,1892102.0,1863.2854079999997,1.0,7.06,2.42,6.32,-20.69,-7.88,-40.5,-4.38,-0.06,-0.06,-0.14489233716261676,0.07199140394598612,0.028295156347132533,-41.74627885444266,26.35870385587789,-70.61999179043644,-0.6978,-0.3563,0.228,-0.578
188,1892136.0,1863.3241620000001,1.0,6.99,2.5,6.22,-20.25,-7.5,-40.19,-3.19,-0.63,-0.75,-0.2574213848768394,0.027606226672304945,0.12514845701313604,-41.611404826079344,26.48818157203767,-70.39546823502994,-0.6993,-0.3552,0.2291,-0.5764
189,1892136.0,1863.3241620000001,1.0,6.99,2.5,6.22,-20.25,-7.5,-40.19,-3.19,-0.63,-0.75,-0.2574213848768394,0.027606226672304945,0.12514845701313604,-41.611404826079344,26.48818157203767,-70.39546823502994,-0.6993,-0.3552,0.2291,-0.5764
190,1892171.0,1863.40032,1.0,7.01,2.52,6.39,-20.25,-7.06,-41.0,-1.37,0.0,-0.81,-0.25373684060526136,0.13452756279134406,-0.003554888307329307,-41.52560730818473,26.558820285317804,-70.14324952507593,-0.701,-0.3545,0.2297,-0.5746
191,1892171.0,1863.40032,1.0,7.01,2.52,6.39,-20.25,-7.06,-41.0,-1.37,0.0,-0.81,-0.25373684060526136,0.13452756279134406,-0.003554888307329307,-41.52560730818473,26.558820285317804,-70.14324952507593,-0.701,-0.3545,0.2297,-0.5746
192,1892206.0,1863.4483870000001,1.0,7.06,2.46,6.33,-20.25,-7.06,-41.0,-0.31,0.63,-1.06,-0.1793185860877078,0.055104843563945634,0.012319583840900705,-41.48884440066444,26.558820285317804,-69.97532009784457,-0.7021,-0.3542,0.2297,-0.5734
193,1892206.0,1863.4483870000001,1.0,7.06,2.46,6.33,-20.25,-7.06,-41.0,-0.31,0.63,-1.06,-0.1793185860877078,0.055104843563945634,0.012319583840900705,-41.48884440066444,26.558820285317804,-69.97532009784457,-0.7021,-0.3542,0.2297,-0.5734
194,1892239.0,1863.465126,1.0,7.03,2.45,6.31,-20.69,-7.5,-40.5,-0.5,0.25,-1.56,-0.16935877046068626,0.0565625529601852,0.04921087467256236,-41.501098206620334,26.52349964582953,-69.93336466039091,-0.7025,-0.3543,0.2294,-0.5731
195,1892239.0,1863.465126,1.0,7.03,2.45,6.31,-20.69,-7.5,-40.5,-0.5,0.25,-1.56,-0.16935877046068626,0.0565625529601852,0.04921087467256236,-41.501098206620334,26.52349964582953,-69.93336466039091,-0.7025,-0.3543,0.2294,-0.5731
196,1892274.0,1863.502068,1.0,7.02,2.39,6.38,-19.19,-7.06,-40.06,1.0,0.63,-1.37,-0.09552753122808166,0.11814106990927885,0.02535063956847416,-41.48884440066444,26.5117266696815,-69.76565017151245,-0.7034,-0.3542,0.2293,-0.5719
197,1892274.0,1863.502068,1.0,7.02,2.39,6.38,-19.19,-7.06,-40.06,1.0,0.63,-1.37,-0.09552753122808166,0.11814106990927885,0.02535063956847416,-41.48884440066444,26.5117266696815,-69.76565017151245,-0.7034,-0.3542,0.2293,-0.5719
198,1892311.0,1863.5075550000001,1.0,6.98,2.35,6.32,-20.25,-7.88,-40.06,1.06,0.88,-0.5,-0.06424172717931631,0.10036149319823597,0.10247045862855764,-41.501098206620334,26.48818157203767,-69.72374829540703,-0.7037,-0.3543,0.2291,-0.5716
199,1892311.0,1863.5075550000001,1.0,6.98,2.35,6.32,-20.25,-7.88,-40.06,1.06,0.88,-0.5,-0.06424172717931631,0.10036149319823597,0.10247045862855764,-41.501098206620334,26.48818157203767,-69.72374829540703,-0.7037,-0.3543,0.2291,-0.5716
200,1892345.0,1863.5619530000001,1.0,7.01,2.28,6.18,-20.25,-7.88,-40.06,1.88,0.5,-0.44,0.0073672880714519265,-0.02034688066083312,0.18737602908546516,-41.53786260419432,26.42932380663794,-69.75168169297477,-0.7036,-0.3546,0.2286,-0.5718
201,1892345.0,1863.5619530000001,1.0,7.01,2.28,6.18,-20.25,-7.88,-40.06,1.88,0.5,-0.44,0.0073672880714519265,-0.02034688066083312,0.18737602908546516,-41.53786260419432,26.42932380663794,-69.75168169297477,-0.7036,-0.3546,0.2286,-0.5718
202,1892380.0,1863.578843,1.0,6.99,2.23,6.23,-20.25,-7.06,-41.0,1.37,0.06,-0.12,0.058128368543558524,0.03736572911202285,0.1816240314605686,-41.51335250906026,26.48818157203767,-69.58415236536644,-0.7045,-0.3544,0.2291,-0.5706
203,1892380.0,1863.578843,1.0,6.99,2.23,6.23,-20.25,-7.06,-41.0,1.37,0.06,-0.12,0.058128368543558524,0.03736572911202285,0.1816240314605686,-41.51335250906026,26.48818157203767,-69.58415236536644,-0.7045,-0.3544,0.2291,-0.5706
204,1892417.0,1863.621884,1.0,7.03,2.26,6.36,-20.69,-7.88,-40.5,0.56,0.12,0.25,0.051011967201257225,0.10718220848191362,0.06170209078123179,-41.501098206620334,26.499953978465857,-69.52834707781919,-0.7048,-0.3543,0.2292,-0.5702
205,1892417.0,1863.621884,1.0,7.03,2.26,6.36,-20.69,-7.88,-40.5,0.56,0.12,0.25,0.051011967201257225,0.10718220848191362,0.06170209078123179,-41.501098206620334,26.499953978465857,-69.52834707781919,-0.7048,-0.3543,0.2292,-0.5702
206,1892452.0,1863.626653,1.0,7.08,2.26,6.33,-20.69,-7.88,-40.5,-0.63,0.44,0.19,0.05969853340467157,0.0509138875013635,0.044644885210884055,-41.48884440066444,26.499953978465857,-69.52834707781919,-0.7048,-0.3542,0.2292,-0.5702
207,1892452.0,1863.626653,1.0,7.08,2.26,6.33,-20.69,-7.88,-40.5,-0.63,0.44,0.19,0.05969853340467157,0.0509138875013635,0.044644885210884055,-41.48884440066444,26.499953978465857,-69.52834707781919,-0.7048,-0.3542,0.2292,-0.5702
208,1892485.0,1863.691461,1.0,7.06,2.27,6.24,-20.25,-8.19,-41.0,-0.06,-0.12,-0.63,0.04057707931620569,-0.006859228194042721,0.11477678314337858,-41.48884440066444,26.499953978465857,-69.5004515073649,-0.7051,-0.3542,0.2292,-0.57
209,1892485.0,1863.691461,1.0,7.06,2.27,6.24,-20.25,-8.19,-41.0,-0.06,-0.12,-0.63,0.04057707931620569,-0.006859228194042721,0.11477678314337858,-41.48884440066444,26.499953978465857,-69.5004515073649,-0.7051,-0.3542,0.2292,-0.57
210,1892521.0,1863.710688,1.0,6.99,2.29,6.42,-20.25,-7.06,-40.06,-0.81,-0.5,-1.12,0.019527244104846853,0.17376245253644051,0.04498900932703975,-41.43983413767325,26.582368805630427,-69.29138458685418,-0.7063,-0.3538,0.2299,-0.5685
211,1892521.0,1863.710688,1.0,6.99,2.29,6.42,-20.25,-7.06,-40.06,-0.81,-0.5,-1.12,0.019527244104846853,0.17376245253644051,0.04498900932703975,-41.43983413767325,26.582368805630427,-69.29138458685418,-0.7063,-0.3538,0.2299,-0.5685
212,1892556.0,1863.754964,1.0,7.04,2.22,6.33,-20.25,-7.06,-40.06,-1.63,-0.75,-1.5,0.09524780767623377,0.07886644138352095,0.0832962607001484,-41.378582455790294,26.65302123047702,-69.06866999114753,-0.7076,-0.3533,0.2305,-0.5669
213,1892556.0,1863.754964,1.0,7.04,2.22,6.33,-20.25,-7.06,-40.06,-1.63,-0.75,-1.5,0.09524780767623377,0.07886644138352095,0.0832962607001484,-41.378582455790294,26.65302123047702,-69.06866999114753,-0.7076,-0.3533,0.2305,-0.5669
214,1892591.0,1863.8127960000002,1.0,7.0,2.33,6.3,-20.25,-7.06,-40.06,-2.75,0.0,-1.12,-0.026609074525091536,0.06864563976620963,0.10543977996590036,-41.341837382049434,26.688351311037593,-69.01303790274106,-0.7079,-0.353,0.2308,-0.5665
215,1892591.0,1863.8127960000002,1.0,7.0,2.33,6.3,-20.25,-7.06,-40.06,-2.75,0.0,-1.12,-0.026609074525091536,0.06864563976620963,0.10543977996590036,-41.341837382049434,26.688351311037593,-69.01303790274106,-0.7079,-0.353,0.2308,-0.5665
216,1892628.0,1863.829921,1.0,7.02,2.41,6.26,-20.25,-8.19,-40.06,-1.88,-1.06,-1.5,-0.10414469931680803,0.012445857018776874,0.09762847451931478,-41.29285086382844,26.723683975588173,-68.94352388945018,-0.7085,-0.3526,0.2311,-0.5660000000000001
217,1892628.0,1863.829921,1.0,7.02,2.41,6.26,-20.25,-8.19,-40.06,-1.88,-1.06,-1.5,-0.10414469931680803,0.012445857018776874,0.09762847451931478,-41.29285086382844,26.723683975588173,-68.94352388945018,-0.7085,-0.3526,0.2311,-0.5660000000000001
218,1892663.0,1863.8733579999998,1.0,6.96,2.46,6.39,-20.69,-7.5,-40.5,-1.12,-0.12,-1.75,-0.15409422246580662,0.1445960876134138,0.04546938789935595,-41.26836056402613,26.770798221316568,-68.77680821232158,-0.7094,-0.3524,0.2315,-0.5648
219,1892663.0,1863.8733579999998,1.0,6.96,2.46,6.39,-20.69,-7.5,-40.5,-1.12,-0.12,-1.75,-0.15409422246580662,0.1445960876134138,0.04546938789935595,-41.26836056402613,26.770798221316568,-68.77680821232158,-0.7094,-0.3524,0.2315,-0.5648
220,1892696.0,1863.895141,1.0,6.99,2.38,6.26,-20.69,-7.5,-40.5,-0.31,-0.06,-1.81,-0.06795449842994783,0.033091461178325066,0.12644405480749832,-41.280605467484456,26.73546210533703,-68.70739234130575,-0.7098,-0.3525,0.2312,-0.5643
221,1892696.0,1863.895141,1.0,6.99,2.38,6.26,-20.69,-7.5,-40.5,-0.31,-0.06,-1.81,-0.06795449842994783,0.033091461178325066,0.12644405480749832,-41.280605467484456,26.73546210533703,-68.70739234130575,-0.7098,-0.3525,0.2312,-0.5643
222,1892730.0,1863.9448949999999,1.0,7.03,2.38,6.19,-20.69,-7.06,-39.69,-0.37,0.44,-1.63,-0.05626356531259269,-0.0476251653136972,0.14249115119959122,-41.24387223496928,26.78257750270593,-68.51318055335086,-0.711,-0.3522,0.2316,-0.5629
223,1892730.0,1863.9448949999999,1.0,7.03,2.38,6.19,-20.69,-7.06,-39.69,-0.37,0.44,-1.63,-0.05626356531259269,-0.0476251653136972,0.14249115119959122,-41.24387223496928,26.78257750270593,-68.51318055335086,-0.711,-0.3522,0.2316,-0.5629
224,1892767.0,1864.0087190000002,1.0,7.0,2.34,6.34,-20.25,-7.5,-40.19,-0.31,-0.12,-1.12,-0.008494107779681627,0.08853799103977678,0.07714390388825265,-41.23162880897231,26.78257750270593,-68.40230300517993,-0.7116,-0.3521,0.2316,-0.5621
225,1892767.0,1864.0087190000002,1.0,7.0,2.34,6.34,-20.25,-7.5,-40.19,-0.31,-0.12,-1.12,-0.008494107779681627,0.08853799103977678,0.07714390388825265,-41.23162880897231,26.78257750270593,-68.40230300517993,-0.7116,-0.3521,0.2316,-0.5621
226,1892802.0,1864.0279030000002,1.0,7.02,2.34,6.35,-20.25,-7.5,-40.19,-0.37,0.0,-0.56,-0.0010743476497230287,0.08411557908875666,0.05619239970596901,-41.24387223496928,26.78257750270593,-68.40230300517993,-0.7117,-0.3522,0.2316,-0.5621
227,1892802.0,1864.0279030000002,1.0,7.02,2.34,6.35,-20.25,-7.5,-40.19,-0.37,0.0,-0.56,-0.0010743476497230287,0.08411557908875666,0.05619239970596901,-41.24387223496928,26.78257750270593,-68.40230300517993,-0.7117,-0.3522,0.2316,-0.5621
228,1892837.0,1864.0721649999998,1.0,7.01,2.36,6.25,-19.5,-8.19,-39.69,-0.06,0.06,-0.44,-0.029572573177783168,0.011924728395060313,0.12309779723017655,-41.24387223496928,26.78257750270593,-68.40230300517993,-0.7117,-0.3522,0.2316,-0.5621
229,1892837.0,1864.0721649999998,1.0,7.01,2.36,6.25,-19.5,-8.19,-39.69,-0.06,0.06,-0.44,-0.029572573177783168,0.011924728395060313,0.12309779723017655,-41.24387223496928,26.78257750270593,-68.40230300517993,-0.7117,-0.3522,0.2316,-0.5621
230,1892872.0,1864.080335,1.0,7.0,2.35,6.39,-19.87,-8.19,-39.25,-0.25,0.06,-0.69,-0.009805664111633305,0.1243709660613701,0.04247897979801252,-41.24387223496928,26.759019228055678,-68.38844844007662,-0.7117,-0.3522,0.2314,-0.562
231,1892872.0,1864.080335,1.0,7.0,2.35,6.39,-19.87,-8.19,-39.25,-0.25,0.06,-0.69,-0.009805664111633305,0.1243709660613701,0.04247897979801252,-41.24387223496928,26.759019228055678,-68.38844844007662,-0.7117,-0.3522,0.2314,-0.562
232,1892907.0,1864.1535629999998,1.0,6.99,2.36,6.35,-20.69,-8.19,-39.69,-0.31,0.44,-0.25,-0.02359658609735349,0.09883960450674234,0.07310624997218618,-41.24387223496928,26.759019228055678,-68.37459501300991,-0.7118,-0.3522,0.2314,-0.5619
233,1892907.0,1864.1535629999998,1.0,6.99,2.36,6.35,-20.69,-8.19,-39.69,-0.31,0.44,-0.25,-0.02359658609735349,0.09883960450674234,0.07310624997218618,-41.24387223496928,26.759019228055678,-68.37459501300991,-0.7118,-0.3522,0.2314,-0.5619
234,1892941.0,1864.157597,1.0,7.09,2.38,6.23,-20.69,-8.19,-39.69,-0.25,0.5,-0.56,-0.02531199922996019,-0.06071205704086169,0.07314737510566438,-41.23162880897231,26.759019228055678,-68.37459501300991,-0.7119,-0.3521,0.2314,-0.5619
235,1892941.0,1864.157597,1.0,7.09,2.38,6.23,-20.69,-8.19,-39.69,-0.25,0.5,-0.56,-0.02531199922996019,-0.06071205704086169,0.07314737510566438,-41.23162880897231,26.759019228055678,-68.37459501300991,-0.7119,-0.3521,0.2314,-0.5619
236,1892978.0,1864.205084,1.0,7.05,2.4,6.24,-20.69,-8.19,-40.5,-1.12,-0.81,-1.37,-0.05070801776873113,-0.02964110947391574,0.09085615175665927,-41.23162880897231,26.759019228055678,-68.31919267545712,-0.7121,-0.3521,0.2314,-0.5615
237,1892978.0,1864.205084,1.0,7.05,2.4,6.24,-20.69,-8.19,-40.5,-1.12,-0.81,-1.37,-0.05070801776873113,-0.02964110947391574,0.09085615175665927,-41.23162880897231,26.759019228055678,-68.31919267545712,-0.7121,-0.3521,0.2314,-0.5615
238,1893013.0,1864.215123,1.0,6.95,2.37,6.42,-19.87,-7.5,-39.69,-0.75,-0.63,-2.0,-0.03287972718347665,0.17451070420383874,0.054508443518232134,-41.219385875064134,26.78257750270593,-68.22228228779733,-0.7127,-0.35200000000000004,0.2316,-0.5608
239,1893013.0,1864.215123,1.0,6.95,2.37,6.42,-19.87,-7.5,-39.69,-0.75,-0.63,-2.0,-0.03287972718347665,0.17451070420383874,0.054508443518232134,-41.219385875064134,26.78257750270593,-68.22228228779733,-0.7127,-0.35200000000000004,0.2316,-0.5608
240,1893048.0,1864.279436,1.0,6.94,2.36,6.29,-19.87,-7.5,-39.69,-0.44,0.12,-1.37,-0.02740677216179499,0.08244376683455812,0.1479879863383875,-41.23162880897231,26.770798221316568,-68.16692984371839,-0.7131,-0.3521,0.2315,-0.5604
241,1893048.0,1864.279436,1.0,6.94,2.36,6.29,-19.87,-7.5,-39.69,-0.44,0.12,-1.37,-0.02740677216179499,0.08244376683455812,0.1479879863383875,-41.23162880897231,26.770798221316568,-68.16692984371839,-0.7131,-0.3521,0.2315,-0.5604
242,1893083.0,1864.2990309999998,1.0,7.02,2.35,6.21,-19.87,-7.5,-39.25,-0.44,-0.06,-1.44,0.0030707357956494268,-0.029544102074879893,0.14403556514779048,-41.219385875064134,26.770798221316568,-68.08393507833873,-0.7135,-0.35200000000000004,0.2315,-0.5598
243,1893083.0,1864.2990309999998,1.0,7.02,2.35,6.21,-19.87,-7.5,-39.25,-0.44,-0.06,-1.44,0.0030707357956494268,-0.029544102074879893,0.14403556514779048,-41.219385875064134,26.770798221316568,-68.08393507833873,-0.7135,-0.35200000000000004,0.2315,-0.5598
244,1893120.0,1864.3024649999998,1.0,7.0,2.34,6.37,-21.0,-8.19,-40.06,-0.94,-0.94,-1.69,0.025177969017232904,0.10610539722659418,0.05777274594886528,-41.23162880897231,26.759019228055678,-68.0148037838229,-0.7139,-0.3521,0.2314,-0.5593
245,1893120.0,1864.3024649999998,1.0,7.0,2.34,6.37,-21.0,-8.19,-40.06,-0.94,-0.94,-1.69,0.025177969017232904,0.10610539722659418,0.05777274594886528,-41.23162880897231,26.759019228055678,-68.0148037838229,-0.7139,-0.3521,0.2314,-0.5593
246,1893152.0,1864.348654,1.0,6.99,2.38,6.39,-21.0,-8.19,-40.06,-0.56,0.0,-0.75,-0.013567415111787271,0.12076340306188404,0.04233578313212583,-41.219385875064134,26.759019228055678,-67.98715914500032,-0.7141,-0.35200000000000004,0.2314,-0.5591
247,1893152.0,1864.348654,1.0,6.99,2.38,6.39,-21.0,-8.19,-40.06,-0.56,0.0,-0.75,-0.013567415111787271,0.12076340306188404,0.04233578313212583,-41.219385875064134,26.759019228055678,-67.98715914500032,-0.7141,-0.35200000000000004,0.2314,-0.5591
248,1893187.0,1864.4061600000002,1.0,7.03,2.44,6.2,-19.87,-7.88,-40.06,-0.88,0.0,-1.37,-0.06903881293175274,-0.05935705003115399,0.12128937775569605,-41.20714343304567,26.759019228055678,-67.93188335325443,-0.7145,-0.3519,0.2314,-0.5587
249,1893187.0,1864.4061600000002,1.0,7.03,2.44,6.2,-19.87,-7.88,-40.06,-0.88,0.0,-1.37,-0.06903881293175274,-0.05935705003115399,0.12128937775569605,-41.20714343304567,26.759019228055678,-67.93188335325443,-0.7145,-0.3519,0.2314,-0.5587
250,1893222.0,1864.413307,1.0,6.97,2.39,6.32,-20.69,-7.5,-40.5,-0.06,-0.63,-1.88,-0.025697607134346656,0.07597922031088622,0.09948940634190606,-41.182660023882,26.794357072369408,-67.79377236455424,-0.7153,-0.3517,0.2317,-0.5577
251,1893222.0,1864.413307,1.0,6.97,2.39,6.32,-20.69,-7.5,-40.5,-0.06,-0.63,-1.88,-0.025697607134346656,0.07597922031088622,0.09948940634190606,-41.182660023882,26.794357072369408,-67.79377236455424,-0.7153,-0.3517,0.2317,-0.5577
