,TIME,ELAPSED_SECONDS,PSTATE,acc_x,acc_y,acc_z,mag_x,mag_y,mag_z,gyr_x,gyr_y,gyr_z,lin_x,lin_y,lin_z,eul_x,eul_y,eul_z,qua_w,qua_x,qua_y,qua_z
0,1696870.0,1667.740714,1.0,3.44,6.93,-6.36,-7.19,-39.88,13.5,-0.37,4.13,1.25,-0.10113373858738683,-0.10363971527720528,-0.20769624807513945,-127.09397976921673,-11.697182904814724,-27.312945744821853,-0.3638,-0.8953,-0.1019,-0.2361
1,1696870.0,1667.740714,1.0,3.44,6.93,-6.36,-7.19,-39.88,13.5,-0.37,4.13,1.25,-0.10113373858738683,-0.10363971527720528,-0.20769624807513945,-127.09397976921673,-11.697182904814724,-27.312945744821853,-0.3638,-0.8953,-0.1019,-0.2361
2,1696903.0,1667.762091,1.0,3.46,7.05,-6.21,-7.56,-39.5,14.25,0.06,4.13,1.25,-0.0272585261242308,0.06538159666438181,-0.20500232214798508,-127.01685959928787,-11.697182904814724,-27.43088596976693,-0.3638,-0.895,-0.1019,-0.2371
3,1696903.0,1667.762091,1.0,3.46,7.05,-6.21,-7.56,-39.5,14.25,0.06,4.13,1.25,-0.0272585261242308,0.06538159666438181,-0.20500232214798508,-127.01685959928787,-11.697182904814724,-27.43088596976693,-0.3638,-0.895,-0.1019,-0.2371
4,1696940.0,1667.8126619999998,1.0,3.55,6.81,-6.37,-7.56,-39.19,13.5,2.56,1.5,0.37,-0.04104807672125765,-0.2197064978874592,-0.16859656889159425,-127.04255474483057,-11.743260322870698,-27.52525947842401,-0.363,-0.8951,-0.1023,-0.2379
5,1696940.0,1667.8126619999998,1.0,3.55,6.81,-6.37,-7.56,-39.19,13.5,2.56,1.5,0.37,-0.04104807672125765,-0.2197064978874592,-0.16859656889159425,-127.04255474483057,-11.743260322870698,-27.52525947842401,-0.363,-0.8951,-0.1023,-0.2379
6,1696972.0,1667.832058,1.0,3.36,6.76,-6.26,-7.56,-39.19,13.5,-1.94,0.06,0.0,-0.15369372844335855,-0.1257695832021266,0.0017858882553376532,-127.01685959928787,-11.743260322870698,-27.537057504249983,-0.3632,-0.895,-0.1023,-0.23800000000000002
7,1696972.0,1667.832058,1.0,3.36,6.76,-6.26,-7.56,-39.19,13.5,-1.94,0.06,0.0,-0.15369372844335855,-0.1257695832021266,0.0017858882553376532,-127.01685959928787,-11.743260322870698,-27.537057504249983,-0.3632,-0.895,-0.1023,-0.23800000000000002
8,1697009.0,1667.876146,1.0,3.34,6.72,-6.16,-7.19,-39.19,12.69,-1.94,-0.5,1.0,-0.12102346447717145,-0.08644636706790187,0.09905089689182134,-127.01685959928787,-11.720221376139571,-27.52525947842401,-0.3632,-0.895,-0.1021,-0.2379
9,1697009.0,1667.876146,1.0,3.34,6.72,-6.16,-7.19,-39.19,12.69,-1.94,-0.5,1.0,-0.12102346447717145,-0.08644636706790187,0.09905089689182134,-127.01685959928787,-11.720221376139571,-27.52525947842401,-0.3632,-0.895,-0.1021,-0.2379
10,1697044.0,1667.88375,1.0,3.43,6.75,-6.25,-6.88,-39.5,13.88,-1.75,0.31,0.19,-0.09021239046092976,-0.15622433327918506,-0.009528262557113363,-126.99117600895984,-11.697182904814724,-27.52525947842401,-0.3635,-0.8949,-0.1019,-0.2379
11,1697044.0,1667.88375,1.0,3.43,6.75,-6.25,-6.88,-39.5,13.88,-1.75,0.31,0.19,-0.09021239046092976,-0.15622433327918506,-0.009528262557113363,-126.99117600895984,-11.697182904814724,-27.52525947842401,-0.3635,-0.8949,-0.1019,-0.2379
12,1697079.0,1667.9462449999999,1.0,3.25,6.84,-5.99,-6.88,-39.5,13.88,-1.25,0.75,0.69,-0.1174028100486224,0.11864995719209134,0.1526177456592741,-126.9655039569828,-11.662626087112969,-27.513461750107517,-0.3641,-0.8948,-0.1016,-0.2378
13,1697079.0,1667.9462449999999,1.0,3.25,6.84,-5.99,-6.88,-39.5,13.88,-1.25,0.75,0.69,-0.1174028100486224,0.11864995719209134,0.1526177456592741,-126.9655039569828,-11.662626087112969,-27.513461750107517,-0.3641,-0.8948,-0.1016,-0.2378
14,1697114.0,1667.96471,1.0,3.32,6.81,-6.05,-7.56,-38.75,13.06,-1.25,-0.37,0.56,-0.08918606285969599,0.035682710923815815,0.1117145907085728,-126.93984342653314,-11.662626087112969,-27.52525947842401,-0.3641,-0.8947,-0.1016,-0.2379
15,1697114.0,1667.96471,1.0,3.32,6.81,-6.05,-7.56,-38.75,13.06,-1.25,-0.37,0.56,-0.08918606285969599,0.035682710923815815,0.1117145907085728,-126.93984342653314,-11.662626087112969,-27.52525947842401,-0.3641,-0.8947,-0.1016,-0.2379
16,1697150.0,1668.008489,1.0,3.56,6.91,-6.23,-8.0,-39.19,14.25,1.94,2.31,-0.5,0.020047690872995017,-0.08836661310078853,-0.1545943716525553,-126.88855686312144,-11.697182904814724,-27.59605210118816,-0.3641,-0.8945,-0.1019,-0.2385
17,1697150.0,1668.008489,1.0,3.56,6.91,-6.23,-8.0,-39.19,14.25,1.94,2.31,-0.5,0.020047690872995017,-0.08836661310078853,-0.1545943716525553,-126.88855686312144,-11.697182904814724,-27.59605210118816,-0.3641,-0.8945,-0.1019,-0.2385
18,1697183.0,1668.029112,1.0,3.46,6.87,-6.06,-8.0,-39.19,14.25,-0.44,0.63,0.06,0.0190127916641597,0.0293012854897845,0.01426112146674541,-126.93984342653314,-11.708702081111404,-27.60785191517117,-0.3637,-0.8947,-0.102,-0.2386
19,1697183.0,1668.029112,1.0,3.46,6.87,-6.06,-8.0,-39.19,14.25,-0.44,0.63,0.06,0.0190127916641597,0.0293012854897845,0.01426112146674541,-126.93984342653314,-11.708702081111404,-27.60785191517117,-0.3637,-0.8947,-0.102,-0.2386
20,1697218.0,1668.106763,1.0,3.84,6.81,-6.56,-8.0,-39.5,13.06,0.81,2.44,0.0,0.08954541938947924,-0.4426306323470559,-0.3890039633892268,-126.93984342653314,-11.731740790019305,-27.666855466190324,-0.3633,-0.8947,-0.1022,-0.2391
21,1697218.0,1668.106763,1.0,3.84,6.81,-6.56,-8.0,-39.5,13.06,0.81,2.44,0.0,0.08954541938947924,-0.4426306323470559,-0.3890039633892268,-126.93984342653314,-11.731740790019305,-27.666855466190324,-0.3633,-0.8947,-0.1022,-0.2391
22,1697253.0,1668.110941,1.0,3.63,6.53,-6.32,-8.0,-39.19,14.25,1.63,-1.06,-0.5,0.028034191734256145,-0.4174862712703322,0.029885745023070957,-126.9655039569828,-11.720221376139571,-27.65505415801313,-0.363,-0.8948,-0.1021,-0.239
23,1697253.0,1668.110941,1.0,3.63,6.53,-6.32,-8.0,-39.19,14.25,1.63,-1.06,-0.5,0.028034191734256145,-0.4174862712703322,0.029885745023070957,-126.9655039569828,-11.720221376139571,-27.65505415801313,-0.363,-0.8948,-0.1021,-0.239
24,1697290.0,1668.160629,1.0,3.61,6.27,-6.22,-7.56,-39.5,12.69,2.25,-1.37,1.0,0.06778385329160691,-0.5236473368611816,0.2801291861965094,-127.068261462492,-11.708702081111404,-27.60785191517117,-0.3624,-0.8952,-0.102,-0.2386
25,1697290.0,1668.160629,1.0,3.61,6.27,-6.22,-7.56,-39.5,12.69,2.25,-1.37,1.0,0.06778385329160691,-0.5236473368611816,0.2801291861965094,-127.068261462492,-11.708702081111404,-27.60785191517117,-0.3624,-0.8952,-0.102,-0.2386
26,1697323.0,1668.183465,1.0,3.76,5.85,-6.36,-7.56,-39.5,12.69,-2.56,-3.81,3.25,0.1267211246738195,-0.9570811617393103,0.4323426972492968,-127.1197096819897,-11.605033754368794,-27.560654449020664,-0.3624,-0.8954,-0.1011,-0.2382
27,1697323.0,1668.183465,1.0,3.76,5.85,-6.36,-7.56,-39.5,12.69,-2.56,-3.81,3.25,0.1267211246738195,-0.9570811617393103,0.4323426972492968,-127.1197096819897,-11.605033754368794,-27.560654449020664,-0.3624,-0.8954,-0.1011,-0.2382
28,1697359.0,1668.18705,1.0,4.18,5.1,-6.41,-6.88,-39.5,13.5,-8.88,-6.56,6.63,0.4618945764621637,-1.6857985806677298,0.7780711225878125,-127.09397976921673,-11.30560069930953,-27.466273808985672,-0.3639,-0.8953,-0.0985,-0.2374
29,1697359.0,1668.18705,1.0,4.18,5.1,-6.41,-6.88,-39.5,13.5,-8.88,-6.56,6.63,0.4618945764621637,-1.6857985806677298,0.7780711225878125,-127.09397976921673,-11.30560069930953,-27.466273808985672,-0.3639,-0.8953,-0.0985,-0.2374
30,1697394.0,1668.226741,1.0,4.6,4.36,-6.67,-7.56,-39.19,13.5,-21.06,-11.63,9.69,0.6968130943222578,-2.561814393695516,0.9969928827317284,-126.86293079671191,-10.8450849117299,-27.36011828826252,-0.3676,-0.8944,-0.0945,-0.2365
31,1697394.0,1668.226741,1.0,4.6,4.36,-6.67,-7.56,-39.19,13.5,-21.06,-11.63,9.69,0.6968130943222578,-2.561814393695516,0.9969928827317284,-126.86293079671191,-10.8450849117299,-27.36011828826252,-0.3676,-0.8944,-0.0945,-0.2365
32,1697429.0,1668.316501,1.0,4.7,4.05,-6.55,-7.56,-39.19,13.5,-31.69,-16.37,27.25,0.8464870231184234,-2.8052496071903814,1.2738289916200447,-126.45446035214495,-9.729048380447908,-27.195035005738163,-0.3746,-0.8928,-0.0848,-0.2351
33,1697429.0,1668.316501,1.0,4.7,4.05,-6.55,-7.56,-39.19,13.5,-31.69,-16.37,27.25,0.8464870231184234,-2.8052496071903814,1.2738289916200447,-126.45446035214495,-9.729048380447908,-27.195035005738163,-0.3746,-0.8928,-0.0848,-0.2351
34,1697464.0,1668.3268289999999,1.0,4.35,3.48,-5.78,-8.0,-39.19,13.5,-13.88,-14.25,40.06,0.8987125891379619,-2.564809794826786,2.2531497253931656,-126.45446035214495,-8.027974436112627,-27.289361242839874,-0.3772,-0.8928,-0.07,-0.2359
35,1697464.0,1668.3268289999999,1.0,4.35,3.48,-5.78,-8.0,-39.19,13.5,-13.88,-14.25,40.06,0.8987125891379619,-2.564809794826786,2.2531497253931656,-126.45446035214495,-8.027974436112627,-27.289361242839874,-0.3772,-0.8928,-0.07,-0.2359
36,1697501.0,1668.37191,1.0,3.38,1.98,-3.95,-8.38,-40.25,11.75,-16.56,3.38,58.94,0.944760909979414,-2.101250106446837,4.7431062988819725,-126.40360438507471,-6.46639524800481,-27.82029976108695,-0.3771,-0.8926,-0.0564,-0.2404
37,1697501.0,1668.37191,1.0,3.38,1.98,-3.95,-8.38,-40.25,11.75,-16.56,3.38,58.94,0.944760909979414,-2.101250106446837,4.7431062988819725,-126.40360438507471,-6.46639524800481,-27.82029976108695,-0.3771,-0.8926,-0.0564,-0.2404
38,1697536.0,1668.436227,1.0,4.11,3.2,-3.44,-8.38,-40.25,11.75,-48.75,39.75,77.06,1.5227988981203875,-1.087657720095038,3.851502294039971,-125.27091255577452,-4.6078223124450055,-29.381288812129693,-0.3812,-0.8881,-0.0402,-0.2536
39,1697536.0,1668.436227,1.0,4.11,3.2,-3.44,-8.38,-40.25,11.75,-48.75,39.75,77.06,1.5227988981203875,-1.087657720095038,3.851502294039971,-125.27091255577452,-4.6078223124450055,-29.381288812129693,-0.3812,-0.8881,-0.0402,-0.2536
40,1697570.0,1668.449093,1.0,6.29,3.87,-3.91,-11.0,-38.38,11.0,-94.94,98.06,70.5,2.501117006851893,-1.624966400950992,2.0006908716278393,-121.57133213564484,-2.1773706400327653,-33.22530683110648,-0.3951,-0.8728,-0.019,-0.2859
41,1697570.0,1668.449093,1.0,6.29,3.87,-3.91,-11.0,-38.38,11.0,-94.94,98.06,70.5,2.501117006851893,-1.624966400950992,2.0006908716278393,-121.57133213564484,-2.1773706400327653,-33.22530683110648,-0.3951,-0.8728,-0.019,-0.2859
42,1697605.0,1668.499217,1.0,7.03,5.86,-3.69,-14.69,-39.25,9.75,-155.31,118.12,62.81,1.8435298218111933,-0.9674949432595156,0.16082440905859485,-114.5341088647508,-0.04583662483277591,-38.209956332458226,-0.4304,-0.8412,-0.0004,-0.3273
43,1697605.0,1668.499217,1.0,7.03,5.86,-3.69,-14.69,-39.25,9.75,-155.31,118.12,62.81,1.8435298218111933,-0.9674949432595156,0.16082440905859485,-114.5341088647508,-0.04583662483277591,-38.209956332458226,-0.4304,-0.8412,-0.0004,-0.3273
44,1697642.0,1668.504022,1.0,7.43,7.0,-2.96,-17.69,-38.88,2.25,-177.0,88.56,46.25,1.4429895684640808,-0.5179856641193537,-0.7107627976927215,-108.70148376565115,1.638715147453804,-41.47659109099214,-0.4627,-0.8126,0.0143,-0.3541
45,1697642.0,1668.504022,1.0,7.43,7.0,-2.96,-17.69,-38.88,2.25,-177.0,88.56,46.25,1.4429895684640808,-0.5179856641193537,-0.7107627976927215,-108.70148376565115,1.638715147453804,-41.47659109099214,-0.4627,-0.8126,0.0143,-0.3541
46,1697677.0,1668.5214230000001,1.0,7.96,6.77,-2.42,-17.69,-38.88,2.25,-190.38,44.94,25.56,1.4943297155763813,-1.2994570360709092,-0.7351378043788745,-101.68262407663977,4.206454848857137,-43.591628016640854,-0.5095,-0.7754,0.0367,-0.3713
47,1697677.0,1668.5214230000001,1.0,7.96,6.77,-2.42,-17.69,-38.88,2.25,-190.38,44.94,25.56,1.4943297155763813,-1.2994570360709092,-0.7351378043788745,-101.68262407663977,4.206454848857137,-43.591628016640854,-0.5095,-0.7754,0.0367,-0.3713
48,1697714.0,1668.565478,1.0,6.61,6.48,-0.59,-19.56,-38.88,-2.69,-203.63,-19.31,1.75,1.3086884470137805,-0.03342154237176187,0.6242310622059843,-97.1287952916504,6.638563994932457,-43.24627621237414,-0.5466,-0.7497,0.0579,-0.3685
49,1697714.0,1668.565478,1.0,6.61,6.48,-0.59,-19.56,-38.88,-2.69,-203.63,-19.31,1.75,1.3086884470137805,-0.03342154237176187,0.6242310622059843,-97.1287952916504,6.638563994932457,-43.24627621237414,-0.5466,-0.7497,0.0579,-0.3685
50,1697751.0,1668.625403,1.0,4.76,6.08,2.29,-21.06,-37.06,-8.38,-230.0,-63.31,-17.87,1.0595327437440225,2.325935060344145,2.168880923889088,-90.97540577406771,10.68394626499923,-40.6200807923672,-0.6019,-0.7131,0.0931,-0.3471
51,1697751.0,1668.625403,1.0,4.76,6.08,2.29,-21.06,-37.06,-8.38,-230.0,-63.31,-17.87,1.0595327437440225,2.325935060344145,2.168880923889088,-90.97540577406771,10.68394626499923,-40.6200807923672,-0.6019,-0.7131,0.0931,-0.3471
52,1697785.0,1668.632909,1.0,3.76,5.88,5.09,-21.06,-37.06,-8.38,-258.56,-53.63,-22.56,0.8834421451701228,4.7000036996601136,2.6129308506782465,-85.6404088628468,13.772662665221276,-38.10083031138289,-0.6459,-0.6797,0.1199,-0.3264
53,1697785.0,1668.632909,1.0,3.76,5.88,5.09,-21.06,-37.06,-8.38,-258.56,-53.63,-22.56,0.8834421451701228,4.7000036996601136,2.6129308506782465,-85.6404088628468,13.772662665221276,-38.10083031138289,-0.6459,-0.6797,0.1199,-0.3264
54,1697820.0,1668.651263,1.0,3.63,6.38,6.51,-22.19,-33.56,-14.19,-273.38,-46.75,-13.63,-0.12957793819419414,5.2359323984331265,1.510288057740507,-77.18832949283414,17.93799404290059,-34.80711013090355,-0.705,-0.6238,0.1559,-0.2991
55,1697820.0,1668.651263,1.0,3.63,6.38,6.51,-22.19,-33.56,-14.19,-273.38,-46.75,-13.63,-0.12957793819419414,5.2359323984331265,1.510288057740507,-77.18832949283414,17.93799404290059,-34.80711013090355,-0.705,-0.6238,0.1559,-0.2991
56,1697855.0,1668.712034,1.0,3.61,7.19,8.74,-23.0,-29.19,-19.25,-252.25,-30.56,0.06,-1.4876053807805427,6.120358759735773,-0.2652931532946248,-68.76292273675115,21.71884947041321,-32.34140081327868,-0.7537,-0.5647,0.1884,-0.2785
57,1697855.0,1668.712034,1.0,3.61,7.19,8.74,-23.0,-29.19,-19.25,-252.25,-30.56,0.06,-1.4876053807805427,6.120358759735773,-0.2652931532946248,-68.76292273675115,21.71884947041321,-32.34140081327868,-0.7537,-0.5647,0.1884,-0.2785
58,1697892.0,1668.7571070000001,1.0,3.98,7.89,9.53,-22.56,-25.0,-23.06,-177.38,-13.31,51.06,-2.4532913454956007,5.722743353984259,-1.6014598381171528,-63.40381821677742,24.31503217113493,-31.757201337874307,-0.7776,-0.5255,0.2106,-0.2736
59,1697892.0,1668.7571070000001,1.0,3.98,7.89,9.53,-22.56,-25.0,-23.06,-177.38,-13.31,51.06,-2.4532913454956007,5.722743353984259,-1.6014598381171528,-63.40381821677742,24.31503217113493,-31.757201337874307,-0.7776,-0.5255,0.2106,-0.2736
60,1697927.0,1668.816863,1.0,4.84,7.75,9.06,-22.56,-25.0,-23.06,-96.56,2.25,93.81,-2.624298577591126,4.402653755171809,-1.99595127631722,-58.65487400856189,27.277569433768978,-33.500446588735926,-0.7883,-0.4898,0.2358,-0.2882
61,1697927.0,1668.816863,1.0,4.84,7.75,9.06,-22.56,-25.0,-23.06,-96.56,2.25,93.81,-2.624298577591126,4.402653755171809,-1.99595127631722,-58.65487400856189,27.277569433768978,-33.500446588735926,-0.7883,-0.4898,0.2358,-0.2882
62,1697964.0,1668.8313890000002,1.0,5.51,6.69,7.09,-26.5,-19.87,-27.37,-0.69,23.0,119.75,-1.74676044069444,2.6496499499029054,-0.9317150108293716,-56.90108617541996,28.74204597594341,-36.383725666731316,-0.7836,-0.4764,0.2482,-0.3122
63,1697964.0,1668.8313890000002,1.0,5.51,6.69,7.09,-26.5,-19.87,-27.37,-0.69,23.0,119.75,-1.74676044069444,2.6496499499029054,-0.9317150108293716,-56.90108617541996,28.74204597594341,-36.383725666731316,-0.7836,-0.4764,0.2482,-0.3122
64,1698000.0,1668.875716,1.0,6.11,4.38,6.06,-26.75,-16.06,-30.5,27.06,34.63,126.5,-0.033594709350630365,2.265004241053102,0.4200250909331036,-55.92583364179144,29.8198276164604,-41.219385875064134,-0.7681,-0.4689,0.2573,-0.35200000000000004
65,1698000.0,1668.875716,1.0,6.11,4.38,6.06,-26.75,-16.06,-30.5,27.06,34.63,126.5,-0.033594709350630365,2.265004241053102,0.4200250909331036,-55.92583364179144,29.8198276164604,-41.219385875064134,-0.7681,-0.4689,0.2573,-0.35200000000000004
66,1698035.0,1668.884852,1.0,6.53,2.72,5.66,-26.75,-16.06,-30.5,21.5,42.13,125.19,1.2450161788296128,2.1255151254243194,1.0884494880798368,-54.993719820860264,30.38941055279805,-44.989651826175965,-0.7561,-0.4617,0.2621,-0.3826
67,1698035.0,1668.884852,1.0,6.53,2.72,5.66,-26.75,-16.06,-30.5,21.5,42.13,125.19,1.2450161788296128,2.1255151254243194,1.0884494880798368,-54.993719820860264,30.38941055279805,-44.989651826175965,-0.7561,-0.4617,0.2621,-0.3826
68,1698070.0,1668.94288,1.0,6.78,1.87,5.99,-27.56,-13.19,-31.69,-9.06,46.88,133.06,1.604080164244501,2.2374507127246734,0.9881387234406064,-52.85947382737936,31.304732073341746,-50.0103350226896,-0.7419,-0.4451,0.2698,-0.4227
69,1698070.0,1668.94288,1.0,6.78,1.87,5.99,-27.56,-13.19,-31.69,-9.06,46.88,133.06,1.604080164244501,2.2374507127246734,0.9881387234406064,-52.85947382737936,31.304732073341746,-50.0103350226896,-0.7419,-0.4451,0.2698,-0.4227
70,1698105.0,1668.962381,1.0,7.14,1.98,7.98,-27.19,-11.38,-33.25,-34.75,83.44,127.25,1.197354453486398,3.4030926422291863,-0.4678671556196186,-50.12416021166318,31.864439303449732,-53.88550274467078,-0.7347,-0.4236,0.2745,-0.4531
71,1698105.0,1668.962381,1.0,7.14,1.98,7.98,-27.19,-11.38,-33.25,-34.75,83.44,127.25,1.197354453486398,3.4030926422291863,-0.4678671556196186,-50.12416021166318,31.864439303449732,-53.88550274467078,-0.7347,-0.4236,0.2745,-0.4531
72,1698142.0,1669.0049689999998,1.0,13.98,0.14,8.06,-28.0,-8.38,-34.5,-186.06,136.44,85.87,4.773959137356663,-0.7351633024578965,-5.5911566319059895,-42.987533038901844,31.935947193238352,-57.63221366567701,-0.7468,-0.3664,0.2751,-0.48200000000000004
73,1698142.0,1669.0049689999998,1.0,13.98,0.14,8.06,-28.0,-8.38,-34.5,-186.06,136.44,85.87,4.773959137356663,-0.7351633024578965,-5.5911566319059895,-42.987533038901844,31.935947193238352,-57.63221366567701,-0.7468,-0.3664,0.2751,-0.48200000000000004
74,1698177.0,1669.019282,1.0,17.08,8.57,6.45,-28.0,-8.38,-34.5,-343.19,4.13,162.94,-4.497209401992711,-8.178013948292724,-8.072639567993411,-31.06679175207397,38.74398218156732,-59.23402251666461,-0.7576,-0.2678,0.3317,-0.4942
75,1698177.0,1669.019282,1.0,17.08,8.57,6.45,-28.0,-8.38,-34.5,-343.19,4.13,162.94,-4.497209401992711,-8.178013948292724,-8.072639567993411,-31.06679175207397,38.74398218156732,-59.23402251666461,-0.7576,-0.2678,0.3317,-0.4942
76,1698213.0,1669.07498,1.0,13.41,13.66,3.97,-23.37,-1.75,-37.88,30.0,35.13,105.44,-10.855612755868382,-10.274148307126248,-2.794228868467963,-26.841478236677798,40.92570257127247,-62.04839058120868,-0.7471,-0.2321,0.3496,-0.5154
77,1698213.0,1669.07498,1.0,13.41,13.66,3.97,-23.37,-1.75,-37.88,30.0,35.13,105.44,-10.855612755868382,-10.274148307126248,-2.794228868467963,-26.841478236677798,40.92570257127247,-62.04839058120868,-0.7471,-0.2321,0.3496,-0.5154
78,1698250.0,1669.093108,1.0,12.72,4.43,2.83,-21.5,10.88,-37.75,171.06,-52.19,12.5,-2.2166527468629926,-6.735729080520481,-1.9894766674131432,-32.055155405875595,37.822115366775535,-65.81713593554738,-0.7235,-0.2761,0.3241,-0.5433
79,1698250.0,1669.093108,1.0,12.72,4.43,2.83,-21.5,10.88,-37.75,171.06,-52.19,12.5,-2.2166527468629926,-6.735729080520481,-1.9894766674131432,-32.055155405875595,37.822115366775535,-65.81713593554738,-0.7235,-0.2761,0.3241,-0.5433
80,1698287.0,1669.1355529999998,1.0,10.08,3.87,6.04,-21.5,10.88,-37.75,71.06,-87.69,-33.69,-2.486664671338501,-1.8940898570072695,-2.1638897717019923,-35.781140493411314,37.62836370499113,-65.84443673875893,-0.7115,-0.3072,0.3225,-0.5435
81,1698287.0,1669.1355529999998,1.0,10.08,3.87,6.04,-21.5,10.88,-37.75,71.06,-87.69,-33.69,-2.486664671338501,-1.8940898570072695,-2.1638897717019923,-35.781140493411314,37.62836370499113,-65.84443673875893,-0.7115,-0.3072,0.3225,-0.5435
82,1698320.0,1669.1999130000002,1.0,7.56,3.08,8.29,-22.25,6.69,-41.19,44.5,-66.75,-106.81,-1.947581820064637,2.2104724922505024,-1.4487858607366968,-40.02193352838936,37.74944537405314,-62.66450299518854,-0.7126,-0.3422,0.3235,-0.52
83,1698320.0,1669.1999130000002,1.0,7.56,3.08,8.29,-22.25,6.69,-41.19,44.5,-66.75,-106.81,-1.947581820064637,2.2104724922505024,-1.4487858607366968,-40.02193352838936,37.74944537405314,-62.66450299518854,-0.7126,-0.3422,0.3235,-0.52
84,1698357.0,1669.217009,1.0,5.58,1.29,8.54,-25.06,2.88,-37.25,43.56,-21.5,-104.81,-0.16395193397720265,4.170448037729323,0.4091725231477792,-43.35723698802017,36.21489761998581,-59.3790692419753,-0.7222,-0.3694,0.3108,-0.4953
85,1698357.0,1669.217009,1.0,5.58,1.29,8.54,-25.06,2.88,-37.25,43.56,-21.5,-104.81,-0.16395193397720265,4.170448037729323,0.4091725231477792,-43.35723698802017,36.21489761998581,-59.3790692419753,-0.7222,-0.3694,0.3108,-0.4953
86,1698394.0,1669.259381,1.0,5.24,0.8,7.48,-26.87,-1.25,-35.56,53.63,6.69,-49.63,0.6369823249612907,3.639063464878284,1.4162107614216648,-45.10129990098643,34.63902408126335,-58.33966779766776,-0.7258,-0.3835,0.2977,-0.4874
87,1698394.0,1669.259381,1.0,5.24,0.8,7.48,-26.87,-1.25,-35.56,53.63,6.69,-49.63,0.6369823249612907,3.639063464878284,1.4162107614216648,-45.10129990098643,34.63902408126335,-58.33966779766776,-0.7258,-0.3835,0.2977,-0.4874
88,1698426.0,1669.31113,1.0,5.55,1.31,6.96,-26.87,-1.25,-35.56,55.63,9.94,-6.5,0.6123434990664434,2.9861972112527164,1.3409626885847246,-46.781534903600594,33.0340215452869,-58.77320186377301,-0.7216,-0.397,0.2843,-0.4907
89,1698426.0,1669.31113,1.0,5.55,1.31,6.96,-26.87,-1.25,-35.56,55.63,9.94,-6.5,0.6123434990664434,2.9861972112527164,1.3409626885847246,-46.781534903600594,33.0340215452869,-58.77320186377301,-0.7216,-0.397,0.2843,-0.4907
90,1698463.0,1669.317514,1.0,6.25,1.31,6.17,-27.25,-4.56,-36.5,61.38,22.81,18.94,1.035944758948059,1.9582827031928167,1.2078450068172906,-47.75718944121001,31.840606172111105,-59.9867685475142,-0.7148,-0.4048,0.2743,-0.4999
91,1698463.0,1669.317514,1.0,6.25,1.31,6.17,-27.25,-4.56,-36.5,61.38,22.81,18.94,1.035944758948059,1.9582827031928167,1.2078450068172906,-47.75718944121001,31.840606172111105,-59.9867685475142,-0.7148,-0.4048,0.2743,-0.4999
92,1698500.0,1669.374364,1.0,6.82,1.54,5.93,-26.87,-6.88,-36.5,48.44,30.5,19.31,1.1432964885548338,1.3418927731816486,0.8099229882172683,-48.30917991037589,30.48441543516209,-61.38095442802087,-0.7091,-0.4092,0.2629,-0.5104
93,1698500.0,1669.374364,1.0,6.82,1.54,5.93,-26.87,-6.88,-36.5,48.44,30.5,19.31,1.1432964885548338,1.3418927731816486,0.8099229882172683,-48.30917991037589,30.48441543516209,-61.38095442802087,-0.7091,-0.4092,0.2629,-0.5104
94,1698535.0,1669.391552,1.0,7.46,0.93,5.44,-26.87,-6.88,-36.5,38.25,40.94,11.38,1.998078275205212,0.5372026033868449,0.7607008198936143,-48.485062871877595,29.19178700040293,-62.58402657079336,-0.7057,-0.4106,0.252,-0.5194
95,1698535.0,1669.391552,1.0,7.46,0.93,5.44,-26.87,-6.88,-36.5,38.25,40.94,11.38,1.998078275205212,0.5372026033868449,0.7607008198936143,-48.485062871877595,29.19178700040293,-62.58402657079336,-0.7057,-0.4106,0.252,-0.5194
96,1698568.0,1669.4333279999998,1.0,7.89,0.89,5.04,-25.37,-8.25,-36.5,11.19,38.81,8.88,2.1840865668064646,-0.2429468423876797,0.6624418494563233,-47.92015436839679,28.032845198788678,-63.525076929588316,-0.7066,-0.4061,0.2422,-0.5264
97,1698568.0,1669.4333279999998,1.0,7.89,0.89,5.04,-25.37,-8.25,-36.5,11.19,38.81,8.88,2.1840865668064646,-0.2429468423876797,0.6624418494563233,-47.92015436839679,28.032845198788678,-63.525076929588316,-0.7066,-0.4061,0.2422,-0.5264
98,1698605.0,1669.461842,1.0,8.57,1.68,4.75,-23.87,-9.06,-37.25,-7.81,27.81,14.25,1.5897073311890175,-1.0967650871550043,0.054740600053658994,-47.0813498800656,27.761276718209416,-63.929848409462785,-0.7090000000000001,-0.3994,0.2399,-0.5294
99,1698605.0,1669.461842,1.0,8.57,1.68,4.75,-23.87,-9.06,-37.25,-7.81,27.81,14.25,1.5897073311890175,-1.0967650871550043,0.054740600053658994,-47.0813498800656,27.761276718209416,-63.929848409462785,-0.7090000000000001,-0.3994,0.2399,-0.5294
100,1698639.0,1669.506345,1.0,8.58,1.85,4.56,-23.87,-9.06,-37.25,-8.38,9.56,16.94,1.3078692314182108,-1.3649020063711907,0.09794150780015264,-46.30751972941107,27.961985822582488,-64.36259051293125,-0.7095,-0.3932,0.2416,-0.5326
101,1698639.0,1669.506345,1.0,8.58,1.85,4.56,-23.87,-9.06,-37.25,-8.38,9.56,16.94,1.3078692314182108,-1.3649020063711907,0.09794150780015264,-46.30751972941107,27.961985822582488,-64.36259051293125,-0.7095,-0.3932,0.2416,-0.5326
102,1698674.0,1669.633582,1.0,7.9,2.37,5.21,-22.37,-9.06,-37.75,-17.62,-12.31,17.69,0.5314186644838752,-0.4934318288747972,0.07807768782122437,-45.95878171202678,28.588291341239625,-64.5657923959142,-0.7081,-0.3904,0.2469,-0.5341
103,1698674.0,1669.633582,1.0,7.9,2.37,5.21,-22.37,-9.06,-37.75,-17.62,-12.31,17.69,0.5314186644838752,-0.4934318288747972,0.07807768782122437,-45.95878171202678,28.588291341239625,-64.5657923959142,-0.7081,-0.3904,0.2469,-0.5341
104,1698711.0,1669.643851,1.0,7.4,2.69,5.89,-21.25,-8.25,-39.0,-24.81,-13.56,12.13,-0.056157107020519785,0.35652108381481185,-0.01973993202115132,-45.39924946360132,29.80796936990455,-64.26784056455223,-0.7086,-0.3859,0.2572,-0.5319
105,1698711.0,1669.643851,1.0,7.4,2.69,5.89,-21.25,-8.25,-39.0,-24.81,-13.56,12.13,-0.056157107020519785,0.35652108381481185,-0.01973993202115132,-45.39924946360132,29.80796936990455,-64.26784056455223,-0.7086,-0.3859,0.2572,-0.5319
106,1698746.0,1669.6478650000001,1.0,7.16,3.23,6.15,-22.37,-8.0,-39.0,-28.25,-10.06,9.13,-0.7668919355729413,0.633045012372057,-0.11968521353495908,-44.81606648541226,30.686372188368548,-63.94335613096246,-0.7101,-0.3812,0.2646,-0.5295
107,1698746.0,1669.6478650000001,1.0,7.16,3.23,6.15,-22.37,-8.0,-39.0,-28.25,-10.06,9.13,-0.7668919355729413,0.633045012372057,-0.11968521353495908,-44.81606648541226,30.686372188368548,-63.94335613096246,-0.7101,-0.3812,0.2646,-0.5295
108,1698781.0,1669.6930519999999,1.0,7.1,3.34,6.23,-22.37,-8.0,-39.0,-20.0,-7.75,7.75,-1.0274995304773922,0.7155228543966754,-0.1337107459540814,-44.258844501305305,31.507090202315183,-63.79482577106735,-0.7108,-0.3767,0.2715,-0.5284
109,1698781.0,1669.6930519999999,1.0,7.1,3.34,6.23,-22.37,-8.0,-39.0,-20.0,-7.75,7.75,-1.0274995304773922,0.7155228543966754,-0.1337107459540814,-44.258844501305305,31.507090202315183,-63.79482577106735,-0.7108,-0.3767,0.2715,-0.5284
110,1698816.0,1669.710127,1.0,7.19,3.49,6.29,-23.56,-6.5,-36.5,-11.56,-2.63,8.06,-1.1887414833688257,0.6605183846451494,-0.2725815753366767,-43.887975339090566,31.804859125621785,-63.49812368940196,-0.713,-0.3737,0.27399999999999997,-0.5262
111,1698816.0,1669.710127,1.0,7.19,3.49,6.29,-23.56,-6.5,-36.5,-11.56,-2.63,8.06,-1.1887414833688257,0.6605183846451494,-0.2725815753366767,-43.887975339090566,31.804859125621785,-63.49812368940196,-0.713,-0.3737,0.27399999999999997,-0.5262
112,1698852.0,1669.713536,1.0,7.46,3.45,6.21,-23.87,-5.38,-37.25,-0.88,2.88,5.13,-1.0243803684254194,0.3783490000543943,-0.4366745040339541,-43.65334169783373,31.495183998739208,-63.26917919273301,-0.7162,-0.3718,0.2714,-0.5245
113,1698852.0,1669.713536,1.0,7.46,3.45,6.21,-23.87,-5.38,-37.25,-0.88,2.88,5.13,-1.0243803684254194,0.3783490000543943,-0.4366745040339541,-43.65334169783373,31.495183998739208,-63.26917919273301,-0.7162,-0.3718,0.2714,-0.5245
114,1698885.0,1669.75616,1.0,7.55,3.04,6.03,-23.87,-5.38,-37.25,7.0,2.94,-0.12,-0.5936194251167939,0.2481417848245553,-0.30230848407481226,-43.71506869334832,31.36423874673959,-63.390349920821656,-0.7158,-0.3723,0.2703,-0.5254
115,1698885.0,1669.75616,1.0,7.55,3.04,6.03,-23.87,-5.38,-37.25,7.0,2.94,-0.12,-0.5936194251167939,0.2481417848245553,-0.30230848407481226,-43.71506869334832,31.36423874673959,-63.390349920821656,-0.7158,-0.3723,0.2703,-0.5254
116,1698920.0,1669.7630869999998,1.0,7.55,2.67,5.8,-23.19,-4.25,-37.25,11.13,4.06,-4.63,-0.17931901817024887,0.118501547299392,-0.0789558020239749,-43.83856273356188,31.16195134015795,-63.05395914548726,-0.7177,-0.3733,0.2686,-0.5229
117,1698920.0,1669.7630869999998,1.0,7.55,2.67,5.8,-23.19,-4.25,-37.25,11.13,4.06,-4.63,-0.17931901817024887,0.118501547299392,-0.0789558020239749,-43.83856273356188,31.16195134015795,-63.05395914548726,-0.7177,-0.3733,0.2686,-0.5229
118,1698955.0,1669.825368,1.0,7.54,2.11,5.77,-23.19,-5.75,-37.69,15.13,2.88,-4.44,0.4130203171641,0.20505454725547434,0.09150888675519477,-44.098074864095786,30.888426648702456,-62.91957249352721,-0.7181,-0.3754,0.2663,-0.5219
119,1698955.0,1669.825368,1.0,7.54,2.11,5.77,-23.19,-5.75,-37.69,15.13,2.88,-4.44,0.4130203171641,0.20505454725547434,0.09150888675519477,-44.098074864095786,30.888426648702456,-62.91957249352721,-0.7181,-0.3754,0.2663,-0.5219
120,1698992.0,1669.833436,1.0,7.47,1.82,5.74,-23.87,-5.75,-38.06,12.5,1.5,-2.31,0.7358313244472208,0.2845524880680861,0.24430289568003086,-44.419705914934724,30.61508221704001,-62.74501384121864,-0.7186,-0.37799999999999995,0.264,-0.5206
121,1698992.0,1669.833436,1.0,7.47,1.82,5.74,-23.87,-5.75,-38.06,12.5,1.5,-2.31,0.7358313244472208,0.2845524880680861,0.24430289568003086,-44.419705914934724,30.61508221704001,-62.74501384121864,-0.7186,-0.37799999999999995,0.264,-0.5206
122,1699026.0,1669.8993150000001,1.0,7.42,1.75,5.68,-23.87,-5.75,-38.06,8.19,0.44,-0.56,0.8154643917722755,0.2817018793842594,0.3389701428806813,-44.617815884427785,30.4369103155404,-62.81213256780961,-0.7179,-0.3796,0.2625,-0.5211
123,1699026.0,1669.8993150000001,1.0,7.42,1.75,5.68,-23.87,-5.75,-38.06,8.19,0.44,-0.56,0.8154643917722755,0.2817018793842594,0.3389701428806813,-44.617815884427785,30.4369103155404,-62.81213256780961,-0.7179,-0.3796,0.2625,-0.5211
124,1699063.0,1669.921431,1.0,7.3,1.81,5.62,-23.56,-6.88,-38.06,2.69,-1.0,2.31,0.6624889396291993,0.27549928994662753,0.4452554166001583,-44.345450751183655,30.674489682178663,-62.94644210281149,-0.7177,-0.3774,0.2645,-0.5221
125,1699063.0,1669.921431,1.0,7.3,1.81,5.62,-23.56,-6.88,-38.06,2.69,-1.0,2.31,0.6624889396291993,0.27549928994662753,0.4452554166001583,-44.345450751183655,30.674489682178663,-62.94644210281149,-0.7177,-0.3774,0.2645,-0.5221
126,1699098.0,1669.9704179999999,1.0,7.29,1.79,5.8,-23.56,-7.19,-37.75,0.81,-1.69,4.56,0.6161266456845327,0.4142517254846228,0.3495371496417796,-43.99918511445215,30.94787313807167,-63.04051613304179,-0.7177,-0.3746,0.2668,-0.5228
127,1699098.0,1669.9704179999999,1.0,7.29,1.79,5.8,-23.56,-7.19,-37.75,0.81,-1.69,4.56,0.6161266456845327,0.4142517254846228,0.3495371496417796,-43.99918511445215,30.94787313807167,-63.04051613304179,-0.7177,-0.3746,0.2668,-0.5228
128,1699131.0,1669.988502,1.0,7.31,2.14,5.79,-23.56,-7.19,-37.75,-4.81,-0.31,5.81,0.2164428325344896,0.3108558596969453,0.2465076822969561,-43.628654629122934,31.209539394286914,-63.242263086553784,-0.7173,-0.3716,0.26899999999999996,-0.5243
129,1699131.0,1669.988502,1.0,7.31,2.14,5.79,-23.56,-7.19,-37.75,-4.81,-0.31,5.81,0.2164428325344896,0.3108558596969453,0.2465076822969561,-43.628654629122934,31.209539394286914,-63.242263086553784,-0.7173,-0.3716,0.26899999999999996,-0.5243
130,1699166.0,1670.036619,1.0,7.66,1.94,5.49,-23.56,-6.88,-36.88,-4.81,-0.44,9.06,0.4705985173299088,-0.09672816569530428,0.19683831103085048,-43.41890031609472,31.43565821002521,-63.242263086553784,-0.7175,-0.3699,0.2709,-0.5243
131,1699166.0,1670.036619,1.0,7.66,1.94,5.49,-23.56,-6.88,-36.88,-4.81,-0.44,9.06,0.4705985173299088,-0.09672816569530428,0.19683831103085048,-43.41890031609472,31.43565821002521,-63.242263086553784,-0.7175,-0.3699,0.2709,-0.5243
132,1699203.0,1670.055643,1.0,7.55,2.15,5.82,-22.37,-6.06,-38.19,-14.13,-4.06,12.69,0.12659529109597778,0.194898876780234,0.03713680536731445,-42.97521768410124,32.007467853657644,-63.30956065668752,-0.7172,-0.3663,0.2757,-0.5248
133,1699203.0,1670.055643,1.0,7.55,2.15,5.82,-22.37,-6.06,-38.19,-14.13,-4.06,12.69,0.12659529109597778,0.194898876780234,0.03713680536731445,-42.97521768410124,32.007467853657644,-63.30956065668752,-0.7172,-0.3663,0.2757,-0.5248
134,1699237.0,1670.104085,1.0,8.05,2.2,5.22,-22.37,-6.06,-38.19,-7.38,-0.81,14.25,0.1477469685504289,-0.5921936228539393,-0.017726700144155668,-42.61829818967321,32.3533321925502,-63.525076929588316,-0.7164,-0.3634,0.2786,-0.5264
135,1699237.0,1670.104085,1.0,8.05,2.2,5.22,-22.37,-6.06,-38.19,-7.38,-0.81,14.25,0.1477469685504289,-0.5921936228539393,-0.017726700144155668,-42.61829818967321,32.3533321925502,-63.525076929588316,-0.7164,-0.3634,0.2786,-0.5264
136,1699270.0,1670.123034,1.0,7.91,2.34,5.61,-23.19,-5.75,-37.25,-25.25,-15.13,12.81,-0.17576655966716606,-0.19262896345264546,-0.16570178876787978,-42.18810962075827,33.18943360011411,-63.53855502158924,-0.7153,-0.3599,0.2856,-0.5265
137,1699270.0,1670.123034,1.0,7.91,2.34,5.61,-23.19,-5.75,-37.25,-25.25,-15.13,12.81,-0.17576655966716606,-0.19262896345264546,-0.16570178876787978,-42.18810962075827,33.18943360011411,-63.53855502158924,-0.7153,-0.3599,0.2856,-0.5265
138,1699307.0,1670.166551,1.0,7.35,2.62,6.46,-23.19,-4.56,-36.56,-8.69,-2.38,7.5,-0.7244124540359298,0.7622864341974547,-0.268698430137599,-41.80760523510253,33.78776111254545,-63.33648650708331,-0.7159,-0.3568,0.2906,-0.525
139,1699307.0,1670.166551,1.0,7.35,2.62,6.46,-23.19,-4.56,-36.56,-8.69,-2.38,7.5,-0.7244124540359298,0.7622864341974547,-0.268698430137599,-41.80760523510253,33.78776111254545,-63.33648650708331,-0.7159,-0.3568,0.2906,-0.525
140,1699344.0,1670.233825,1.0,7.19,2.31,6.12,-23.56,-4.25,-37.88,-9.81,8.56,-1.0,-0.4839136442162351,0.556714640046392,0.11425626086107775,-41.31734313597096,33.751834870470574,-63.32302309417771,-0.7181,-0.3528,0.2903,-0.5249
141,1699344.0,1670.233825,1.0,7.19,2.31,6.12,-23.56,-4.25,-37.88,-9.81,8.56,-1.0,-0.4839136442162351,0.556714640046392,0.11425626086107775,-41.31734313597096,33.751834870470574,-63.32302309417771,-0.7181,-0.3528,0.2903,-0.5249
142,1699377.0,1670.2481599999999,1.0,6.74,2.33,6.49,-23.56,-4.25,-37.88,-1.12,5.06,-5.31,-0.6434222319855416,1.0669388762735648,0.24504713930332397,-41.145938594336435,33.67999263161277,-63.242263086553784,-0.7195,-0.3514,0.2897,-0.5243
143,1699377.0,1670.2481599999999,1.0,6.74,2.33,6.49,-23.56,-4.25,-37.88,-1.12,5.06,-5.31,-0.6434222319855416,1.0669388762735648,0.24504713930332397,-41.145938594336435,33.67999263161277,-63.242263086553784,-0.7195,-0.3514,0.2897,-0.5243
144,1699414.0,1670.2567470000001,1.0,6.67,2.14,6.53,-23.87,-3.88,-38.19,7.75,13.38,-5.06,-0.4254799645115499,1.1293736378373922,0.3064983177394911,-41.109221581061185,33.285102998046874,-63.134637551415004,-0.7216,-0.3511,0.2864,-0.5235
145,1699414.0,1670.2567470000001,1.0,6.67,2.14,6.53,-23.87,-3.88,-38.19,7.75,13.38,-5.06,-0.4254799645115499,1.1293736378373922,0.3064983177394911,-41.109221581061185,33.285102998046874,-63.134637551415004,-0.7216,-0.3511,0.2864,-0.5235
146,1699448.0,1670.301357,1.0,6.94,2.02,6.46,-23.87,-4.25,-38.19,9.13,20.62,-7.31,-0.1437587287740476,0.8143984288901736,0.14788772800456051,-40.80341749737214,32.436861947325646,-63.26917919273301,-0.7248,-0.3486,0.2793,-0.5245
147,1699448.0,1670.301357,1.0,6.94,2.02,6.46,-23.87,-4.25,-38.19,9.13,20.62,-7.31,-0.1437587287740476,0.8143984288901736,0.14788772800456051,-40.80341749737214,32.436861947325646,-63.26917919273301,-0.7248,-0.3486,0.2793,-0.5245
148,1699483.0,1670.365564,1.0,7.25,1.95,6.21,-23.87,-4.25,-38.19,6.75,29.31,-5.25,0.1304239964133509,0.2930103452553709,0.0687737161928954,-40.52234562197142,31.328533702747045,-63.63292917864976,-0.7275,-0.3463,0.27,-0.5272
149,1699483.0,1670.365564,1.0,7.25,1.95,6.21,-23.87,-4.25,-38.19,6.75,29.31,-5.25,0.1304239964133509,0.2930103452553709,0.0687737161928954,-40.52234562197142,31.328533702747045,-63.63292917864976,-0.7275,-0.3463,0.27,-0.5272
150,1699518.0,1670.383489,1.0,7.7,1.88,5.73,-22.75,-5.0,-37.75,5.69,29.81,-3.0,0.4266728341337076,-0.5098729431188909,0.04881828006920408,-40.09511461656773,30.270684516880635,-64.03793803426306,-0.7302,-0.3428,0.2611,-0.5302
151,1699518.0,1670.383489,1.0,7.7,1.88,5.73,-22.75,-5.0,-37.75,5.69,29.81,-3.0,0.4266728341337076,-0.5098729431188909,0.04881828006920408,-40.09511461656773,30.270684516880635,-64.03793803426306,-0.7302,-0.3428,0.2611,-0.5302
152,1699555.0,1670.430957,1.0,7.84,1.89,5.58,-21.25,-5.0,-39.06,3.44,19.5,-1.88,0.5000159891584142,-0.8163328672162289,0.046645662885774535,-39.79030547860814,29.713115141941444,-64.24077819073915,-0.7319,-0.3403,0.2564,-0.5317
153,1699555.0,1670.430957,1.0,7.84,1.89,5.58,-21.25,-5.0,-39.06,3.44,19.5,-1.88,0.5000159891584142,-0.8163328672162289,0.046645662885774535,-39.79030547860814,29.713115141941444,-64.24077819073915,-0.7319,-0.3403,0.2564,-0.5317
154,1699590.0,1670.4472640000001,1.0,7.8,1.92,5.69,-21.25,-5.0,-39.06,0.37,7.5,-0.5,0.4640070605767326,-0.7422782693665835,0.001742023962636452,-39.71719501771099,29.55902139879445,-64.36259051293125,-0.7321,-0.3397,0.2551,-0.5326
155,1699590.0,1670.4472640000001,1.0,7.8,1.92,5.69,-21.25,-5.0,-39.06,0.37,7.5,-0.5,0.4640070605767326,-0.7422782693665835,0.001742023962636452,-39.71719501771099,29.55902139879445,-64.36259051293125,-0.7321,-0.3397,0.2551,-0.5326
156,1699624.0,1670.504825,1.0,7.35,2.04,6.14,-20.87,-5.38,-39.06,-0.63,-3.5,1.44,0.1818238935969716,-0.11399009872274644,0.0169796108035154,-39.76593345094053,29.796111449943446,-64.32197736057384,-0.7313,-0.3401,0.2571,-0.5323
157,1699624.0,1670.504825,1.0,7.35,2.04,6.14,-20.87,-5.38,-39.06,-0.63,-3.5,1.44,0.1818238935969716,-0.11399009872274644,0.0169796108035154,-39.76593345094053,29.796111449943446,-64.32197736057384,-0.7313,-0.3401,0.2571,-0.5323
158,1699659.0,1670.509689,1.0,7.1,2.26,6.3,-20.56,-5.38,-40.25,-2.44,-6.63,2.56,-0.13390947272972653,0.15020147878752696,0.051286974008437625,-39.802492195876724,30.06892651053725,-64.24077819073915,-0.7308,-0.3404,0.2594,-0.5317
159,1699659.0,1670.509689,1.0,7.1,2.26,6.3,-20.56,-5.38,-40.25,-2.44,-6.63,2.56,-0.13390947272972653,0.15020147878752696,0.051286974008437625,-39.802492195876724,30.06892651053725,-64.24077819073915,-0.7308,-0.3404,0.2594,-0.5317
160,1699696.0,1670.550853,1.0,6.82,2.17,6.61,-20.19,-5.38,-40.25,0.31,-5.5,1.56,-0.15130887379326285,0.6062296018921463,0.08435647971883498,-39.88781236546699,30.235073199393444,-64.20019215099853,-0.7302,-0.3411,0.2608,-0.5314
161,1699696.0,1670.550853,1.0,6.82,2.17,6.61,-20.19,-5.38,-40.25,0.31,-5.5,1.56,-0.15130887379326285,0.6062296018921463,0.08435647971883498,-39.88781236546699,30.235073199393444,-64.20019215099853,-0.7302,-0.3411,0.2608,-0.5314
162,1699729.0,1670.568429,1.0,6.81,2.33,6.54,-20.19,-5.38,-40.25,-1.37,-1.31,1.63,-0.3162716665200853,0.5250520414875923,0.10093557051638946,-39.85124375899717,30.28255562108873,-64.22724850843996,-0.7301,-0.3408,0.2612,-0.5316
163,1699729.0,1670.568429,1.0,6.81,2.33,6.54,-20.19,-5.38,-40.25,-1.37,-1.31,1.63,-0.3162716665200853,0.5250520414875923,0.10093557051638946,-39.85124375899717,30.28255562108873,-64.22724850843996,-0.7301,-0.3408,0.2612,-0.5316
164,1699766.0,1670.6153800000002,1.0,7.09,2.29,6.32,-20.56,-4.56,-39.0,2.38,1.31,1.06,-0.17656820836510012,0.16972840419607205,0.03963326321676775,-39.75374814015767,30.17572764472251,-64.14609145323304,-0.7312,-0.34,0.2603,-0.531
165,1699766.0,1670.6153800000002,1.0,7.09,2.29,6.32,-20.56,-4.56,-39.0,2.38,1.31,1.06,-0.17656820836510012,0.16972840419607205,0.03963326321676775,-39.75374814015767,30.17572764472251,-64.14609145323304,-0.7312,-0.34,0.2603,-0.531
166,1699801.0,1670.679967,1.0,7.16,2.25,6.35,-20.56,-5.0,-39.38,2.13,0.56,0.06,-0.0994362072152668,0.15339624583821032,-0.022753951026603048,-39.802492195876724,30.057061369867114,-64.15961512656168,-0.7313,-0.3404,0.2593,-0.5311
167,1699801.0,1670.679967,1.0,7.16,2.25,6.35,-20.56,-5.0,-39.38,2.13,0.56,0.06,-0.0994362072152668,0.15339624583821032,-0.022753951026603048,-39.802492195876724,30.057061369867114,-64.15961512656168,-0.7313,-0.3404,0.2593,-0.5311
168,1699835.0,1670.697744,1.0,7.25,2.05,6.19,-20.56,-5.0,-39.38,4.38,0.75,-0.25,0.13390011692346815,0.018045845136492208,0.05663230226420346,-39.87562235967538,29.97401461191905,-64.20019215099853,-0.731,-0.341,0.2586,-0.5314
169,1699835.0,1670.697744,1.0,7.25,2.05,6.19,-20.56,-5.0,-39.38,4.38,0.75,-0.25,0.13390011692346815,0.018045845136492208,0.05663230226420346,-39.87562235967538,29.97401461191905,-64.20019215099853,-0.731,-0.341,0.2586,-0.5314
170,1699868.0,1670.7414609999998,1.0,7.24,2.03,6.13,-20.87,-5.0,-38.69,3.31,-1.31,0.12,0.16217674703971818,-0.0073757672168133235,0.1066992629716097,-39.96096228867753,29.96215210560615,-64.14609145323304,-0.731,-0.3417,0.2585,-0.531
171,1699868.0,1670.7414609999998,1.0,7.24,2.03,6.13,-20.87,-5.0,-38.69,3.31,-1.31,0.12,0.16217674703971818,-0.0073757672168133235,0.1066992629716097,-39.96096228867753,29.96215210560615,-64.14609145323304,-0.731,-0.3417,0.2585,-0.531
172,1699905.0,1670.758494,1.0,7.13,1.94,6.3,-21.25,-5.0,-39.06,3.56,-2.31,1.19,0.21116738349965905,0.2244634607185112,0.10121211750607273,-40.009738335861776,30.045196559032803,-64.05145371860036,-0.7311,-0.3421,0.2592,-0.5303
173,1699905.0,1670.758494,1.0,7.13,1.94,6.3,-21.25,-5.0,-39.06,3.56,-2.31,1.19,0.21116738349965905,0.2244634607185112,0.10121211750607273,-40.009738335861776,30.045196559032803,-64.05145371860036,-0.7311,-0.3421,0.2592,-0.5303
174,1699940.0,1670.800748,1.0,7.07,2.05,6.3,-21.25,-5.0,-39.06,0.81,-1.75,1.69,0.08233982887683644,0.2429006996478995,0.12101014490053785,-40.0341291935956,30.06892651053725,-64.11904710633912,-0.7307,-0.3423,0.2594,-0.5308
175,1699940.0,1670.800748,1.0,7.07,2.05,6.3,-21.25,-5.0,-39.06,0.81,-1.75,1.69,0.08233982887683644,0.2429006996478995,0.12101014490053785,-40.0341291935956,30.06892651053725,-64.11904710633912,-0.7307,-0.3423,0.2594,-0.5308
176,1699973.0,1670.860897,1.0,7.06,2.15,6.22,-21.69,-5.38,-38.69,0.88,-2.19,1.5,-0.025640093317577103,0.17396554481770732,0.15659411545554924,-40.009738335861776,30.16385952856291,-64.06497040012911,-0.7307,-0.3421,0.2602,-0.5304
177,1699973.0,1670.860897,1.0,7.06,2.15,6.22,-21.69,-5.38,-38.69,0.88,-2.19,1.5,-0.025640093317577103,0.17396554481770732,0.15659411545554924,-40.009738335861776,30.16385952856291,-64.06497040012911,-0.7307,-0.3421,0.2602,-0.5304
178,1700007.0,1670.8768289999998,1.0,7.04,2.12,6.32,-20.56,-6.5,-38.69,1.12,-1.94,1.31,-0.007186595167856469,0.2746549625338241,0.11526655879794312,-40.0463253316736,30.16385952856291,-64.13256877996223,-0.7302,-0.3424,0.2602,-0.5309
179,1700007.0,1670.8768289999998,1.0,7.04,2.12,6.32,-20.56,-6.5,-38.69,1.12,-1.94,1.31,-0.007186595167856469,0.2746549625338241,0.11526655879794312,-40.0463253316736,30.16385952856291,-64.13256877996223,-0.7302,-0.3424,0.2602,-0.5309
180,1700042.0,1670.925049,1.0,7.12,2.18,6.36,-21.25,-5.75,-39.88,-0.12,-0.5,1.12,-0.046354464698268094,0.2452733294225289,0.017161134003133682,-40.0341291935956,30.17572764472251,-64.17313980035841,-0.73,-0.3423,0.2603,-0.5312
181,1700042.0,1670.925049,1.0,7.12,2.18,6.36,-21.25,-5.75,-39.88,-0.12,-0.5,1.12,-0.046354464698268094,0.2452733294225289,0.017161134003133682,-40.0341291935956,30.17572764472251,-64.17313980035841,-0.73,-0.3423,0.2603,-0.5312
182,1700077.0,1670.9429480000001,1.0,7.24,2.23,6.12,-21.25,-5.75,-39.88,0.81,0.25,1.12,-0.05764787431584861,-0.02503540489656864,0.06801816841869979,-40.02193352838936,30.17572764472251,-64.21371982866351,-0.7299,-0.3422,0.2603,-0.5315
183,1700077.0,1670.9429480000001,1.0,7.24,2.23,6.12,-21.25,-5.75,-39.88,0.81,0.25,1.12,-0.05764787431584861,-0.02503540489656864,0.06801816841869979,-40.02193352838936,30.17572764472251,-64.21371982866351,-0.7299,-0.3422,0.2603,-0.5315
184,1700114.0,1670.9462449999999,1.0,7.22,2.23,6.3,-20.56,-5.38,-39.06,-0.75,-1.37,0.0,-0.06679640523737017,0.1302905092940405,-0.0305174085295139,-40.0341291935956,30.187596092266823,-64.20019215099853,-0.7298,-0.3423,0.2604,-0.5314
185,1700114.0,1670.9462449999999,1.0,7.22,2.23,6.3,-20.56,-5.38,-39.06,-0.75,-1.37,0.0,-0.06679640523737017,0.1302905092940405,-0.0305174085295139,-40.0341291935956,30.187596092266823,-64.20019215099853,-0.7298,-0.3423,0.2604,-0.5314
186,1700149.0,1671.026567,1.0,7.28,2.23,6.23,-21.25,-5.38,-39.5,2.19,-0.44,0.0,-0.04307535956089459,0.043815626111853634,-0.03105423952189845,-40.05852194281655,30.187596092266823,-64.15961512656168,-0.7299,-0.3425,0.2604,-0.5311
187,1700149.0,1671.026567,1.0,7.28,2.23,6.23,-21.25,-5.38,-39.5,2.19,-0.44,0.0,-0.04307535956089459,0.043815626111853634,-0.03105423952189845,-40.05852194281655,30.187596092266823,-64.15961512656168,-0.7299,-0.3425,0.2604,-0.5311
188,1700182.0,1671.030834,1.0,7.22,2.13,6.14,-21.25,-5.38,-39.5,2.25,-1.88,-0.37,0.04497370815691215,0.04354941711573357,0.09269195943571697,-40.16831276292925,30.17572764472251,-64.15961512656168,-0.7296,-0.3434,0.2603,-0.5311
189,1700182.0,1671.030834,1.0,7.22,2.13,6.14,-21.25,-5.38,-39.5,2.25,-1.88,-0.37,0.04497370815691215,0.04354941711573357,0.09269195943571697,-40.16831276292925,30.17572764472251,-64.15961512656168,-0.7296,-0.3434,0.2603,-0.5311
190,1700218.0,1671.0903779999999,1.0,7.16,2.07,6.14,-21.69,-5.75,-39.88,1.56,-1.31,-0.75,0.08882583383546394,0.09951850037907196,0.15096224410577366,-40.21712102458852,30.187596092266823,-64.11904710633912,-0.7296,-0.3438,0.2604,-0.5308
191,1700218.0,1671.0903779999999,1.0,7.16,2.07,6.14,-21.69,-5.75,-39.88,1.56,-1.31,-0.75,0.08882583383546394,0.09951850037907196,0.15096224410577366,-40.21712102458852,30.187596092266823,-64.11904710633912,-0.7296,-0.3438,0.2604,-0.5308
192,1700253.0,1671.110259,1.0,7.19,2.06,6.25,-21.69,-6.5,-39.06,1.25,-0.88,0.75,0.1074553720700937,0.17493229090283435,0.061905157952425675,-40.265936898659355,30.17572764472251,-64.15961512656168,-0.7292,-0.3442,0.2603,-0.5311
193,1700253.0,1671.110259,1.0,7.19,2.06,6.25,-21.69,-6.5,-39.06,1.25,-0.88,0.75,0.1074553720700937,0.17493229090283435,0.061905157952425675,-40.265936898659355,30.17572764472251,-64.15961512656168,-0.7292,-0.3442,0.2603,-0.5311
194,1700288.0,1671.156162,1.0,7.16,2.1,6.26,-21.69,-6.5,-39.06,0.12,-1.0,0.5,0.057846512631943625,0.1967772933208316,0.06903568858831655,-40.27814205807221,30.19946487135094,-64.15961512656168,-0.7291,-0.3443,0.2605,-0.5311
195,1700288.0,1671.156162,1.0,7.16,2.1,6.26,-21.69,-6.5,-39.06,0.12,-1.0,0.5,0.057846512631943625,0.1967772933208316,0.06903568858831655,-40.27814205807221,30.19946487135094,-64.15961512656168,-0.7291,-0.3443,0.2605,-0.5311
