acc_x,acc_y,acc_z,lin_x,lin_y,lin_z,eul_x,eul_y,eul_z
7.4,2.41,5.87,0.0308013694160442,-0.0760988411629506,0.0589189695490777,-38.683253582612885,34.087279935508434,-53.87264873756229
7.4,2.41,5.87,0.0308013694160442,-0.0760988411629506,0.0589189695490777,-38.683253582612885,34.087279935508434,-53.87264873756229
7.31,2.42,5.94,-0.0280103891347267,0.0212064299397041,0.0816890383596025,-38.683253582612885,34.09926566702287,-53.87264873756229
7.31,2.42,5.94,-0.0280103891347267,0.0212064299397041,0.0816890383596025,-38.683253582612885,34.09926566702287,-53.87264873756229
7.34,2.51,5.9,-0.093763759590933,-0.0619935298932665,0.0612374812997931,-38.64682184617822,34.12323828365854,-53.85979546306142
7.34,2.51,5.9,-0.093763759590933,-0.0619935298932665,0.0612374812997931,-38.64682184617822,34.12323828365854,-53.85979546306142
7.32,2.54,6.03,-0.1475478547384505,0.0372916935222782,-0.0102608664669201,-38.64682184617822,34.111251783016854,-53.85979546306142
7.32,2.54,6.03,-0.1475478547384505,0.0372916935222782,-0.0102608664669201,-38.64682184617822,34.111251783016854,-53.85979546306142
7.37,2.46,5.96,-0.0378769037686779,-0.016252245137053,0.0143876870975869,-38.64682184617822,34.07529458830543,-53.84694292088121
7.37,2.46,5.96,-0.0378769037686779,-0.016252245137053,0.0143876870975869,-38.64682184617822,34.07529458830543,-53.84694292088121
7.43,2.43,5.79,0.0451911676937411,-0.1690413416160179,0.0802281099529143,-38.64682184617822,34.05132504616154,-53.82124003233572
7.43,2.43,5.79,0.0451911676937411,-0.1690413416160179,0.0802281099529143,-38.64682184617822,34.05132504616154,-53.82124003233572
7.4,2.36,5.93,0.0761037573281284,-0.0183392335053427,0.034834821097208,-38.65896530684754,34.039340850884635,-53.82124003233572
7.4,2.36,5.93,0.0761037573281284,-0.0183392335053427,0.034834821097208,-38.65896530684754,34.039340850884635,-53.82124003233572
7.38,2.37,5.94,0.0584754900895603,-0.0012093780549389,0.0413297720472272,-38.67110921893018,34.05132504616154,-53.79554006963272
7.38,2.37,5.94,0.0584754900895603,-0.0012093780549389,0.0413297720472272,-38.67110921893018,34.05132504616154,-53.79554006963272
7.34,2.39,5.82,0.0450432777114733,-0.0796965824029496,0.1396070416861032,-38.683253582612885,34.05132504616154,-53.76984303048103
7.34,2.39,5.82,0.0450432777114733,-0.0796965824029496,0.1396070416861032,-38.683253582612885,34.05132504616154,-53.76984303048103
7.33,2.39,6.0,0.0128560069017966,0.0644558499082237,0.0374801188637761,-38.67110921893018,34.05132504616154,-53.75699560652143
7.33,2.39,6.0,0.0128560069017966,0.0644558499082237,0.0374801188637761,-38.67110921893018,34.05132504616154,-53.75699560652143
7.38,2.45,5.99,-0.0198048973605378,0.0099180185143556,-0.00897577724667,-38.67110921893018,34.06330962524581,-53.75699560652143
7.38,2.45,5.99,-0.0198048973605378,0.0099180185143556,-0.00897577724667,-38.67110921893018,34.06330962524581,-53.75699560652143
7.42,2.45,5.88,0.0163558349149817,-0.0952800157619186,0.0278998648722677,-38.683253582612885,34.05132504616154,-53.75699560652143
7.42,2.45,5.88,0.0163558349149817,-0.0952800157619186,0.0278998648722677,-38.683253582612885,34.05132504616154,-53.75699560652143
7.51,3.01,5.73,-0.4254622908877837,-0.4638541293229439,-0.0876373005458379,-38.69539839808244,34.05132504616154,-53.78269118475608
7.51,3.01,5.73,-0.4254622908877837,-0.4638541293229439,-0.0876373005458379,-38.69539839808244,34.05132504616154,-53.78269118475608
7.35,2.05,5.88,0.3750159426641613,0.1116576163187359,0.1813554268731234,-38.95054421712168,33.90753998612701,-53.82124003233572
7.35,2.05,5.88,0.3750159426641613,0.1116576163187359,0.1813554268731234,-38.95054421712168,33.90753998612701,-53.82124003233572
7.18,2.77,6.02,-0.3573808544108816,0.0420794821049268,0.0426237688755524,-38.93838987087892,33.919519970596944,-53.73130294840485
7.18,2.77,6.02,-0.3573808544108816,0.0420794821049268,0.0426237688755524,-38.93838987087892,33.919519970596944,-53.73130294840485
7.29,2.28,5.84,0.1711028265482945,0.037081713963476,0.193250561235546,-39.05995387185956,33.83566809114509,-53.74414891259134
7.29,2.28,5.84,0.1711028265482945,0.037081713963476,0.193250561235546,-39.05995387185956,33.83566809114509,-53.74414891259134
7.23,2.46,5.97,-0.0317861907508338,0.1046348058351696,0.1136916695682934,-39.07211278567739,33.83566809114509,-53.71845771367622
7.23,2.46,5.97,-0.0317861907508338,0.1046348058351696,0.1136916695682934,-39.07211278567739,33.83566809114509,-53.71845771367622
7.26,2.45,5.91,0.0010997318515428,0.0402849432333369,0.1300506017641431,-39.04779541564693,33.811713840931375,-53.71845771367622
7.26,2.45,5.91,0.0010997318515428,0.0402849432333369,0.1300506017641431,-39.04779541564693,33.811713840931375,-53.71845771367622
7.36,2.52,5.85,-0.0076475292834781,-0.0897260966691628,0.0734906597409281,-39.02347987528319,33.775785318620265,-53.73130294840485
7.36,2.52,5.85,-0.0076475292834781,-0.0897260966691628,0.0734906597409281,-39.02347987528319,33.775785318620265,-53.73130294840485
7.48,2.44,5.87,0.1148440161049304,-0.1092220763913238,-0.0084292859759234,-39.02347987528319,33.73986021591224,-53.75699560652143
7.48,2.44,5.87,0.1148440161049304,-0.1092220763913238,-0.0084292859759234,-39.02347987528319,33.73986021591224,-53.75699560652143
7.44,2.48,5.87,0.0640188120263898,-0.0994345207020859,0.0114004182997202,-39.04779541564693,33.73986021591224,-53.74414891259134
7.44,2.48,5.87,0.0640188120263898,-0.0994345207020859,0.0114004182997202,-39.04779541564693,33.73986021591224,-53.74414891259134
7.39,2.47,5.85,0.0558491604639428,-0.0836112008411873,0.0636838172418272,-39.07211278567739,33.73986021591224,-53.75699560652143
7.39,2.47,5.85,0.0558491604639428,-0.0836112008411873,0.0636838172418272,-39.07211278567739,33.73986021591224,-53.75699560652143
7.44,2.62,5.97,-0.074784961626507,-0.0704351760883048,-0.0851822921228269,-39.07211278567739,33.73986021591224,-53.75699560652143
7.44,2.62,5.97,-0.074784961626507,-0.0704351760883048,-0.0851822921228269,-39.07211278567739,33.73986021591224,-53.75699560652143
7.3,2.53,5.95,-0.0432875474812801,0.0277462404454482,0.0552010648737812,-39.14507588885785,33.71591204499429,-53.74414891259134
7.3,2.53,5.95,-0.0432875474812801,0.0277462404454482,0.0552010648737812,-39.14507588885785,33.71591204499429,-53.74414891259134
7.18,2.54,6.02,-0.1045662324971741,0.1425137978525257,0.1003038429518721,-39.181563633405815,33.69196539056284,-53.70561320811986
7.18,2.54,6.02,-0.1045662324971741,0.1425137978525257,0.1003038429518721,-39.181563633405815,33.69196539056284,-53.70561320811986
7.32,2.47,5.8,0.0589062198286987,-0.0785236248126002,0.1467502025066647,-39.19372713365675,33.632105380362496,-53.70561320811986
7.32,2.47,5.8,0.0589062198286987,-0.0785236248126002,0.1467502025066647,-39.19372713365675,33.632105380362496,-53.70561320811986
7.4,2.56,5.95,-0.0029842396567609,-0.0412706234531028,-0.0276973514999223,-39.181563633405815,33.58422417640036,-53.70561320811986
7.4,2.56,5.95,-0.0029842396567609,-0.0412706234531028,-0.0276973514999223,-39.181563633405815,33.58422417640036,-53.70561320811986
7.44,2.64,5.87,-0.0452048856993301,-0.1527588727089262,-0.0297477779021111,-39.181563633405815,33.58422417640036,-53.692769431450216
7.44,2.64,5.87,-0.0452048856993301,-0.1527588727089262,-0.0297477779021111,-39.181563633405815,33.58422417640036,-53.692769431450216
7.4,2.75,5.92,-0.1602511217593305,-0.1286591531753131,-0.058777836656608,-39.21805551339583,33.57225481905068,-53.64140160793269
7.4,2.75,5.92,-0.1602511217593305,-0.1286591531753131,-0.058777836656608,-39.21805551339583,33.57225481905068,-53.64140160793269
8.27,3.49,6.0,-0.4394314931517449,-0.7905954642574915,-0.952293199716312,-39.20589109359036,33.46454755353707,-53.57720819427434
8.27,3.49,6.0,-0.4394314931517449,-0.7905954642574915,-0.952293199716312,-39.20589109359036,33.46454755353707,-53.57720819427434
8.83,4.03,5.69,-0.4932230731944582,-1.5555826961241142,-1.325411510591282,-39.32755601712488,32.8547775548023,-53.21805950342704
8.83,4.03,5.69,-0.4932230731944582,-1.5555826961241142,-1.325411510591282,-39.32755601712488,32.8547775548023,-53.21805950342704
8.73,3.35,5.45,0.2942108624907325,-1.3797763312608269,-0.9240329812498372,-39.96096228867753,32.2936788968098,-52.47589269472505
8.73,3.35,5.45,0.2942108624907325,-1.3797763312608269,-0.9240329812498372,-39.96096228867753,32.2936788968098,-52.47589269472505
8.83,4.87,6.58,-0.8500608939471164,-1.014319399636129,-2.1612551062457737,-40.766741444761,31.85252256097231,-50.85897732637935
8.83,4.87,6.58,-0.8500608939471164,-1.014319399636129,-2.1612551062457737,-40.766741444761,31.85252256097231,-50.85897732637935
9.48,6.61,6.25,-1.4836298546493556,-2.2595762561492023,-3.0509608821600214,-41.62366360590611,30.4369103155404,-49.2528385760365
9.48,6.61,6.25,-1.4836298546493556,-2.2595762561492023,-3.0509608821600214,-41.62366360590611,30.4369103155404,-49.2528385760365
9.01,4.54,4.89,1.1892537158269618,-2.076734296247364,-1.1467353334109325,-44.24647435383947,27.20682475697043,-45.93388911170107
9.01,4.54,4.89,1.1892537158269618,-2.076734296247364,-1.1467353334109325,-44.24647435383947,27.20682475697043,-45.93388911170107
8.38,8.84,6.82,-2.1019338632801903,-1.919978469179675,-3.86002321304942,-45.54834570673154,26.241026566581308,-42.59369907468167
8.38,8.84,6.82,-2.1019338632801903,-1.919978469179675,-3.86002321304942,-45.54834570673154,26.241026566581308,-42.59369907468167
6.62,7.38,7.33,-1.0931701478203968,0.3715238651438182,-2.4687175727264066,-49.366315839864654,23.740958889771715,-38.40404714248387
6.62,7.38,7.33,-1.0931701478203968,0.3715238651438182,-2.4687175727264066,-49.366315839864654,23.740958889771715,-38.40404714248387
4.88,6.51,6.07,-0.9673214414518516,0.7985109638016836,-0.2663867551000276,-52.96186978619433,21.473869337236096,-36.263125888125366
4.88,6.51,6.07,-0.9673214414518516,0.7985109638016836,-0.2663867551000276,-52.96186978619433,21.473869337236096,-36.263125888125366
4.31,9.21,6.85,-2.6820198199290948,1.223650098544164,-2.0942806409978,-56.84895982984303,20.21551264575777,-34.48301299993159
4.31,9.21,6.85,-2.6820198199290948,1.223650098544164,-2.0942806409978,-56.84895982984303,20.21551264575777,-34.48301299993159
4.63,10.42,6.61,-2.7187629567183165,1.4771631066738085,-3.0047401330596504,-61.687686660703456,18.69245669557365,-34.435022863600715
4.63,10.42,6.61,-2.7187629567183165,1.4771631066738085,-3.0047401330596504,-61.687686660703456,18.69245669557365,-34.435022863600715
4.4,10.16,5.97,-2.322194554139568,1.923499215665963,-2.405395824515111,-66.07666398061995,17.137959104392678,-34.75907767623433
4.4,10.16,5.97,-2.322194554139568,1.923499215665963,-2.405395824515111,-66.07666398061995,17.137959104392678,-34.75907767623433
3.6,10.29,5.39,-2.3787095043558786,2.695744374676309,-1.81104785113592,-71.94544116064459,14.592535930080526,-34.80711013090355
3.6,10.29,5.39,-2.3787095043558786,2.695744374676309,-1.81104785113592,-71.94544116064459,14.592535930080526,-34.80711013090355
3.27,10.76,5.27,-2.3789484807612933,3.458910958214029,-1.881803238518364,-76.32588599826201,12.596044357776794,-35.01131860953798
3.27,10.76,5.27,-2.3789484807612933,3.458910958214029,-1.881803238518364,-76.32588599826201,12.596044357776794,-35.01131860953798
3.72,9.59,3.6,-0.9591018764193088,2.75068425358616,-0.6947956018075025,-82.29503842028417,8.92424161449454,-35.75705847207751
3.72,9.59,3.6,-0.9591018764193088,2.75068425358616,-0.6947956018075025,-82.29503842028417,8.92424161449454,-35.75705847207751
3.52,9.91,2.54,-1.0655216550658786,2.500901699260845,-0.6652292149842882,-86.4554864472463,6.2024314124588535,-36.27518399341682
3.52,9.91,2.54,-1.0655216550658786,2.500901699260845,-0.6652292149842882,-86.4554864472463,6.2024314124588535,-36.27518399341682
3.75,9.53,1.61,-0.3209840775587309,2.441293448768111,-0.2637301079679037,-92.52254534707764,2.555603608821701,-36.85446512108432
3.75,9.53,1.61,-0.3209840775587309,2.441293448768111,-0.2637301079679037,-92.52254534707764,2.555603608821701,-36.85446512108432
2.64,6.7,0.42,-0.1268284598480851,1.5796706367519997,2.7692815130472184,-97.26741602219175,-0.3666936147093117,-37.05986053192884
2.64,6.7,0.42,-0.1268284598480851,1.5796706367519997,2.7692815130472184,-97.26741602219175,-0.3666936147093117,-37.05986053192884
2.74,5.93,-0.49,0.1865823131732145,1.1727324314542034,3.3644077129832786,-103.66360039479626,-3.782208130568333,-37.73733524113148
2.74,5.93,-0.49,0.1865823131732145,1.1727324314542034,3.3644077129832786,-103.66360039479626,-3.782208130568333,-37.73733524113148
3.13,5.1,-1.32,0.4707470786682146,0.5084320715790921,3.718202413257124,-108.62287531550987,-5.491036825631306,-38.270597450084026
3.13,5.1,-1.32,0.4707470786682146,0.5084320715790921,3.718202413257124,-108.62287531550987,-5.491036825631306,-38.270597450084026
4.0,2.71,-2.87,0.8385495823877542,-1.6617644097715574,4.504162504088869,-115.1512723286105,-7.212570385921347,-39.096431986883005
4.0,2.71,-2.87,0.8385495823877542,-1.6617644097715574,4.504162504088869,-115.1512723286105,-7.212570385921347,-39.096431986883005
3.38,1.04,-3.78,0.0161167888963572,-2.745824679853946,5.418645091545517,-119.06117764081604,-8.326672787534774,-39.72937892373464
3.38,1.04,-3.78,0.0161167888963572,-2.745824679853946,5.418645091545517,-119.06117764081604,-8.326672787534774,-39.72937892373464
3.5,-0.24,-3.65,0.2685736878716615,-3.3204243091607983,5.994465510587523,-122.82802018843608,-8.76333445653462,-40.21712102458852
3.5,-0.24,-3.65,0.2685736878716615,-3.3204243091607983,5.994465510587523,-122.82802018843608,-8.76333445653462,-40.21712102458852
4.7,2.38,-2.84,1.3792834174717483,-0.9693278239703652,4.064004196542824,-124.23291484122736,-6.982946893042854,-41.21938587506413
4.7,2.38,-2.84,1.3792834174717483,-0.9693278239703652,4.064004196542824,-124.23291484122736,-6.982946893042854,-41.21938587506413
6.87,3.62,-3.59,2.1011074297264347,-0.8056709153081638,1.552824102576741,-123.81779521129648,-6.168003805570946,-43.18464974314042
6.87,3.62,-3.59,2.1011074297264347,-0.8056709153081638,1.552824102576741,-123.81779521129648,-6.168003805570946,-43.18464974314042
7.03,3.02,-3.44,2.03274419838285,-1.0442914261003162,1.7349521339179024,-122.92389068833596,-5.571344453661866,-45.87166763185487
7.03,3.02,-3.44,2.03274419838285,-1.0442914261003162,1.7349521339179024,-122.92389068833596,-5.571344453661866,-45.87166763185487
6.58,2.68,-1.1,3.155254200502983,0.0095186988455402,3.3465354248101304,-121.90087366081208,-4.699571210920838,-48.4850628718776
6.58,2.68,-1.1,3.155254200502983,0.0095186988455402,3.3465354248101304,-121.90087366081208,-4.699571210920838,-48.4850628718776
8.82,4.46,-3.38,1.5898706887007648,0.0812125432306292,-0.5168240139176081,-116.83785829536993,-4.332593112917143,-55.03247866420509
8.82,4.46,-3.38,1.5898706887007648,0.0812125432306292,-0.5168240139176081,-116.83785829536993,-4.332593112917143,-55.03247866420509
8.56,1.58,-2.54,2.128369815805653,-1.7865454751791838,1.1753177046770915,-115.23680905302648,-3.724881599063971,-58.10358051110581
8.56,1.58,-2.54,2.128369815805653,-1.7865454751791838,1.1753177046770915,-115.23680905302648,-3.724881599063971,-58.10358051110581
9.14,4.95,-1.46,2.2445049047657992,1.9919721935518528,-0.2515777023637984,-113.69123402259356,-0.9511208605830096,-60.82208696099747
9.14,4.95,-1.46,2.2445049047657992,1.9919721935518528,-0.2515777023637984,-113.69123402259356,-0.9511208605830096,-60.82208696099747
9.54,1.84,-2.67,1.5815456408585853,-1.1290629098551408,-0.0802115005708774,-111.9308545002648,-0.3552344019497601,-63.390349920821656
9.54,1.84,-2.67,1.5815456408585853,-1.1290629098551408,-0.0802115005708774,-111.9308545002648,-0.3552344019497601,-63.390349920821656
10.99,3.9,-2.96,0.8763532791190356,0.8481622312559487,-2.16265765581904,-109.5116049915234,1.5355728478655368,-66.59687161580996
10.99,3.9,-2.96,0.8763532791190356,0.8481622312559487,-2.16265765581904,-109.5116049915234,1.5355728478655368,-66.59687161580996
9.06,2.04,-1.02,1.906087784701789,0.3035114142703311,0.665517128281186,-107.99668693087187,2.670224968889185,-68.69351261670525
9.06,2.04,-1.02,1.906087784701789,0.3035114142703311,0.665517128281186,-107.99668693087187,2.670224968889185,-68.69351261670525
9.07,1.48,-1.29,0.8579247496138319,-0.3672771190486118,0.5736400551432671,-102.42963728896297,2.509755787270372,-74.60167100356149
9.07,1.48,-1.29,0.8579247496138319,-0.3672771190486118,0.5736400551432671,-102.42963728896297,2.509755787270372,-74.60167100356149
8.96,2.32,0.87,1.9913556301488908,0.8147878227698264,0.7627833734878458,-97.87613706345994,1.5011923619341792,-79.25593194400129
8.96,2.32,0.87,1.9913556301488908,0.8147878227698264,0.7627833734878458,-97.87613706345994,1.5011923619341792,-79.25593194400129
11.41,4.35,0.89,0.5544221748343283,1.5557578288645069,-2.3249176493179906,-89.70757138501837,-2.337829975144579,-87.54552779768291
11.41,4.35,0.89,0.5544221748343283,1.5557578288645069,-2.3249176493179906,-89.70757138501837,-2.337829975144579,-87.54552779768291
9.31,4.8,1.38,0.4721192376707109,2.066691180652101,-0.5435379687876232,-87.18108511627749,-3.2892294003721183,-89.06279291382195
9.31,4.8,1.38,0.4721192376707109,2.066691180652101,-0.5435379687876232,-87.18108511627749,-3.2892294003721183,-89.06279291382195
9.56,4.33,1.23,0.196199453518061,1.0356191289217769,-0.7073596440059653,-85.28160489303416,-4.89454770282183,-90.12861881978974
9.56,4.33,1.23,0.196199453518061,1.0356191289217769,-0.7073596440059653,-85.28160489303416,-4.89454770282183,-90.12861881978974
10.41,5.53,2.59,1.0361558461563978,0.9899890586177168,-2.1768137199055744,-82.59974558341173,-8.970218312913039,-90.94271968197992
10.41,5.53,2.59,1.0361558461563978,0.9899890586177168,-2.1768137199055744,-82.59974558341173,-8.970218312913039,-90.94271968197992
9.2,7.47,2.67,0.585230276876862,1.9770904660830424,-2.164917099254387,-79.91212851792643,-13.34568808643722,-90.926380189859
9.2,7.47,2.67,0.585230276876862,1.9770904660830424,-2.164917099254387,-79.91212851792643,-13.34568808643722,-90.926380189859
7.96,8.32,2.63,0.4212846349236831,1.5743326350122473,-1.891422320289042,-76.44252722312795,-20.157316215575328,-89.70757138501837
7.96,8.32,2.63,0.4212846349236831,1.5743326350122473,-1.891422320289042,-76.44252722312795,-20.157316215575328,-89.70757138501837
6.9,11.22,3.39,0.7432157756737294,3.3735847996576345,-3.3484651994313097,-74.3282126664446,-24.54952511022461,-88.62957889033545
6.9,11.22,3.39,0.7432157756737294,3.3735847996576345,-3.3484651994313097,-74.3282126664446,-24.54952511022461,-88.62957889033545
8.19,11.44,3.59,1.1696269777143415,1.603724437493936,-4.5772938493616016,-72.91124580679356,-29.310216034057568,-87.60902244316307
8.19,11.44,3.59,1.1696269777143415,1.603724437493936,-4.5772938493616016,-72.91124580679356,-29.310216034057568,-87.60902244316307
6.21,11.65,3.26,1.5052929765169816,2.802428771896345,-3.414344139371522,-73.13936663783453,-32.2936788968098,-86.4554864472463
6.21,11.65,3.26,1.5052929765169816,2.802428771896345,-3.414344139371522,-73.13936663783453,-32.2936788968098,-86.4554864472463
6.58,9.84,2.67,1.7478798428195148,1.2084652173451316,-2.1405433052718355,-74.08395810619946,-35.76909927860193,-85.60916725031366
6.58,9.84,2.67,1.7478798428195148,1.2084652173451316,-2.1405433052718355,-74.08395810619946,-35.76909927860193,-85.60916725031366
5.93,8.79,2.19,1.87342935617003,0.9424810033171512,-0.8153597912695698,-74.77463787425259,-38.683253582612885,-84.81514815252169
5.93,8.79,2.19,1.87342935617003,0.9424810033171512,-0.8153597912695698,-74.77463787425259,-38.683253582612885,-84.81514815252169
6.47,7.9,1.29,1.4027168740831426,0.0531029149962432,-0.38965155750512,-75.45402498067408,-42.10214683605518,-83.96444589128727
6.47,7.9,1.29,1.4027168740831426,0.0531029149962432,-0.38965155750512,-75.45402498067408,-42.10214683605518,-83.96444589128727
5.94,6.71,0.62,1.2030571459128852,-0.0928308301336233,0.90518180982796,-76.66148200858531,-45.02686284001362,-82.70656128258872
5.94,6.71,0.62,1.2030571459128852,-0.0928308301336233,0.90518180982796,-76.66148200858531,-45.02686284001362,-82.70656128258872
6.86,4.89,-0.47,-0.0819011957506969,-1.3637589184028611,1.4804231350502306,-77.82016535805077,-46.70663424071843,-81.77865358515048
6.86,4.89,-0.47,-0.0819011957506969,-1.3637589184028611,1.4804231350502306,-77.82016535805077,-46.70663424071843,-81.77865358515048
7.69,3.53,-0.82,-0.6494457434834838,-2.3616845598341616,1.666007134346689,-79.27081086102143,-47.895076146413096,-80.57148847643886
7.69,3.53,-0.82,-0.6494457434834838,-2.3616845598341616,1.666007134346689,-79.27081086102143,-47.895076146413096,-80.57148847643886
6.92,4.34,-1.2,-0.0946230584630389,-0.8974832933025814,1.6000934617770497,-80.8421541496524,-49.03863296676083,-78.89931607211645
6.92,4.34,-1.2,-0.0946230584630389,-0.8974832933025814,1.6000934617770497,-80.8421541496524,-49.03863296676083,-78.89931607211645
7.38,4.26,-1.35,0.0997906403135432,-0.8625160483851946,1.2229090967350478,-81.99103761990294,-49.959762980286655,-77.39373685475255
7.38,4.26,-1.35,0.0997906403135432,-0.8625160483851946,1.2229090967350478,-81.99103761990294,-49.959762980286655,-77.39373685475255
7.88,2.92,-1.9,-0.8255429939835541,-1.4851333859864884,1.360132516982933,-82.79818739316053,-50.70676349859697,-76.02014547215987
7.88,2.92,-1.9,-0.8255429939835541,-1.4851333859864884,1.360132516982933,-82.79818739316053,-50.70676349859697,-76.02014547215987
7.39,2.91,-2.01,-0.4832624063114581,-0.8994304703720339,1.6778258368376324,-83.8257817667832,-51.18910455675295,-74.37135736152693
7.39,2.91,-2.01,-0.4832624063114581,-0.8994304703720339,1.6778258368376324,-83.8257817667832,-51.18910455675295,-74.37135736152693
7.53,3.69,-2.25,0.1591866015647371,-0.1525497925626722,1.1273131482197112,-84.55159136755906,-51.58331440676472,-72.95399287323656
7.53,3.69,-2.25,0.1591866015647371,-0.1525497925626722,1.1273131482197112,-84.55159136755906,-51.58331440676472,-72.95399287323656
6.83,2.75,-2.57,-0.1807551360100506,0.023587152763872,2.010300134387858,-85.65603262918377,-52.22052340718582,-70.54979476235701
6.83,2.75,-2.57,-0.1807551360100506,0.023587152763872,2.010300134387858,-85.65603262918377,-52.22052340718582,-70.54979476235701
6.82,2.1,-3.18,-0.7567681941312115,0.182738944388016,2.033059556803541,-86.4397606253599,-52.46311757943749,-68.91572639057479
6.82,2.1,-3.18,-0.7567681941312115,0.182738944388016,2.033059556803541,-86.4397606253599,-52.46311757943749,-68.91572639057479
7.11,2.22,-3.38,-0.4432236916831935,0.4126361623937727,1.6495558999778783,-86.86507311557956,-53.10273871771935,-67.02240272652745
7.11,2.22,-3.38,-0.4432236916831935,0.4126361623937727,1.6495558999778783,-86.86507311557956,-53.10273871771935,-67.02240272652745
7.64,0.71,-3.7,-1.5490761071382495,-0.2733113352675869,1.4347109099021969,-87.24438704610047,-53.3975630858556,-65.55798771264952
7.64,0.71,-3.7,-1.5490761071382495,-0.2733113352675869,1.4347109099021969,-87.24438704610047,-53.3975630858556,-65.55798771264952
7.91,0.36,-3.5,-1.314903806537434,-0.5473754943793111,1.2673814102608087,-88.15009751242157,-53.3975630858556,-63.47117437163232
7.91,0.36,-3.5,-1.314903806537434,-0.5473754943793111,1.2673814102608087,-88.15009751242157,-53.3975630858556,-63.47117437163232
7.99,0.14,-3.53,-1.1885983292890536,-0.5547943907882342,1.1695186940882287,-89.23974978700055,-52.85947382737936,-61.95480935564663
7.99,0.14,-3.53,-1.1885983292890536,-0.5547943907882342,1.1695186940882287,-89.23974978700055,-52.85947382737936,-61.95480935564663
8.32,0.17,-3.59,-0.7244065662629979,-0.4355486514530291,0.7830735195254999,-90.50238041567628,-52.06743571130708,-59.99999999999999
8.32,0.17,-3.59,-0.7244065662629979,-0.4355486514530291,0.7830735195254999,-90.50238041567628,-52.06743571130708,-59.99999999999999
8.7,-1.17,-3.65,-1.5079645754762998,-1.0472977189982524,0.4787021910288534,-91.38478587581724,-51.37976979085595,-58.52347906562028
8.7,-1.17,-3.65,-1.5079645754762998,-1.0472977189982524,0.4787021910288534,-91.38478587581724,-51.37976979085595,-58.52347906562028
9.26,-1.18,-3.85,-1.1242007586341214,-0.9351735477518764,-0.1845522845036864,-92.58886357052629,-50.30132682508742,-57.03145830719132
9.26,-1.18,-3.85,-1.1242007586341214,-0.9351735477518764,-0.1845522845036864,-92.58886357052629,-50.30132682508742,-57.03145830719132
8.89,-0.71,-4.07,-0.7587939260347809,-0.3854178694243169,0.0405461277415675,-92.88779417994404,-50.35196946524382,-56.28940782045202
8.89,-0.71,-4.07,-0.7587939260347809,-0.3854178694243169,0.0405461277415675,-92.88779417994404,-50.35196946524382,-56.28940782045202
8.46,-0.56,-4.18,-0.7040083528108179,-0.0862161693792165,0.380381437556526,-92.85453921675224,-50.7701742654686,-55.75723957043542
8.46,-0.56,-4.18,-0.7040083528108179,-0.0862161693792165,0.380381437556526,-92.85453921675224,-50.7701742654686,-55.75723957043542
8.61,0.21,-4.09,0.0433751973607356,0.1796914574114445,0.2740674762351372,-92.754835123964,-50.808228717792346,-55.744276234982536
8.61,0.21,-4.09,0.0433751973607356,0.1796914574114445,0.2740674762351372,-92.754835123964,-50.808228717792346,-55.744276234982536
9.6,0.36,-4.37,0.2990736372188207,0.1430965396837575,-0.742121413764318,-92.70501720124948,-50.85897732637935,-55.49811986129514
9.6,0.36,-4.37,0.2990736372188207,0.1430965396837575,-0.742121413764318,-92.70501720124948,-50.85897732637935,-55.49811986129514
8.95,-0.35,-4.14,-0.2979417326180969,-0.1578927250541202,-0.0549371243598262,-92.754835123964,-51.04937993737921,-55.09709191896828
8.95,-0.35,-4.14,-0.2979417326180969,-0.1578927250541202,-0.0549371243598262,-92.754835123964,-51.04937993737921,-55.09709191896828
8.29,-0.2,-4.29,-0.4046050008704663,0.2447051534746833,0.4822404111234189,-92.53912114130168,-51.40520334224811,-55.14879620852955
8.29,-0.2,-4.29,-0.4046050008704663,0.2447051534746833,0.4822404111234189,-92.53912114130168,-51.40520334224811,-55.14879620852955
9.15,0.0,-4.34,-0.1225607170742271,0.0685309127550737,-0.3194737591008749,-92.32383080569312,-51.49424218516168,-55.34279598100365
9.15,0.0,-4.34,-0.1225607170742271,0.0685309127550737,-0.3194737591008749,-92.32383080569312,-51.49424218516168,-55.34279598100365
8.81,-0.35,-4.29,-0.4615391828385249,-0.0090688948091977,0.012284306508068,-92.2907466103262,-51.57058775662223,-55.23930804894636
8.81,-0.35,-4.29,-0.4615391828385249,-0.0090688948091977,0.012284306508068,-92.2907466103262,-51.57058775662223,-55.23930804894636
9.2,-0.02,-4.29,-0.0915446138217714,0.0101487744515713,-0.3440158198394752,-92.14199055285606,-51.736087563875465,-55.17465292180053
9.2,-0.02,-4.29,-0.0915446138217714,0.0101487744515713,-0.3440158198394752,-92.14199055285606,-51.736087563875465,-55.17465292180053
9.07,0.16,-4.31,0.058023975808896,0.1550498182423918,-0.235221975488157,-92.27420824035876,-51.64695790877244,-55.07124433789578
9.07,0.16,-4.31,0.058023975808896,0.1550498182423918,-0.235221975488157,-92.27420824035876,-51.64695790877244,-55.07124433789578
8.75,0.25,-4.42,0.0402701706814572,0.3889650877016189,0.0082580669375875,-92.34037663402384,-51.69788502797172,-54.96788438262905
8.75,0.25,-4.42,0.0402701706814572,0.3889650877016189,0.0082580669375875,-92.34037663402384,-51.69788502797172,-54.96788438262905
8.93,0.17,-4.21,0.11334098411734,0.0916198708932696,-0.0663768722705686,-92.4065848525884,-51.82525084646464,-54.774215005307816
8.93,0.17,-4.21,0.11334098411734,0.0916198708932696,-0.0663768722705686,-92.4065848525884,-51.82525084646464,-54.774215005307816
8.59,-0.38,-4.35,-0.4859666342041198,0.0427458093855888,0.1828768716360382,-92.52254534707764,-51.91444784867411,-54.60650529245762
8.59,-0.38,-4.35,-0.4859666342041198,0.0427458093855888,0.1828768716360382,-92.52254534707764,-51.91444784867411,-54.60650529245762
8.38,-0.16,-4.36,-0.3362654305033712,0.2111466315989196,0.3672674640386121,-92.605449400739,-51.93993891277072,-54.55492780539657
8.38,-0.16,-4.36,-0.3362654305033712,0.2111466315989196,0.3672674640386121,-92.605449400739,-51.93993891277072,-54.55492780539657
8.55,-0.58,-4.43,-0.6946443130936104,0.0110540532542438,0.1847402578441634,-92.6220377436676,-51.91444784867411,-54.51625254499015
8.55,-0.58,-4.43,-0.6946443130936104,0.0110540532542438,0.1847402578441634,-92.6220377436676,-51.91444784867411,-54.51625254499015
8.84,-0.61,-4.37,-0.6320043014494345,-0.1666271863448702,-0.0517173061881894,-92.80467578226568,-51.723352699323634,-54.55492780539657
8.84,-0.61,-4.37,-0.6320043014494345,-0.1666271863448702,-0.0517173061881894,-92.80467578226568,-51.723352699323634,-54.55492780539657
8.45,-0.85,-4.22,-0.8220909663499654,-0.2625225737449279,0.3626758184745072,-93.17087251757091,-51.41792113681584,-54.46469598924939
8.45,-0.85,-4.22,-0.8220909663499654,-0.2625225737449279,0.3626758184745072,-93.17087251757091,-51.41792113681584,-54.46469598924939
8.23,-1.2,-3.93,-1.1531581192513278,-0.6251927492301266,0.7018622277169566,-93.20422442477208,-51.23993373594613,-55.09709191896828
8.23,-1.2,-3.93,-1.1531581192513278,-0.6251927492301266,0.7018622277169566,-93.20422442477208,-51.23993373594613,-55.09709191896828
8.08,-1.94,-3.71,-1.9306602231736345,-1.1715598797770443,0.9910899752056592,-92.78805970081837,-51.34162455414572,-56.2114472624779
8.08,-1.94,-3.71,-1.9306602231736345,-1.1715598797770443,0.9910899752056592,-92.78805970081837,-51.34162455414572,-56.2114472624779
7.44,-2.41,-3.58,-2.848695469357112,-1.446430403099826,1.820983264413501,-91.40119221425032,-52.08018919976154,-58.720603220456965
7.44,-2.41,-3.58,-2.848695469357112,-1.446430403099826,1.820983264413501,-91.40119221425032,-52.08018919976154,-58.720603220456965
7.25,-1.9,-3.48,-2.790576073180247,-1.367258380487027,2.149875894622337,-90.1610712534398,-52.47589269472505,-61.15455226396579
7.25,-1.9,-3.48,-2.790576073180247,-1.367258380487027,2.149875894622337,-90.1610712534398,-52.47589269472505,-61.15455226396579
7.01,-1.36,-3.19,-2.641575216506851,-1.4249720973969782,2.584646476241732,-89.04671926027092,-52.016428687631496,-64.37613024312793
7.01,-1.36,-3.19,-2.641575216506851,-1.4249720973969782,2.584646476241732,-89.04671926027092,-52.016428687631496,-64.37613024312793
7.58,-0.04,-2.87,-1.6830192172652496,-1.3140817648506204,1.9877283716932563,-88.50152621211956,-51.17639894970855,-66.73402593846353
7.58,-0.04,-2.87,-1.6830192172652496,-1.3140817648506204,1.9877283716932563,-88.50152621211956,-51.17639894970855,-66.73402593846353
6.43,0.01,-2.68,-2.0069043429357647,-1.208881386238867,3.246288672122491,-87.0703867564452,-50.75749078075491,-69.96133375784342
6.43,0.01,-2.68,-2.0069043429357647,-1.208881386238867,3.246288672122491,-87.0703867564452,-50.75749078075491,-69.96133375784342
5.88,1.23,-1.73,-0.7754040911626032,-0.9840253333731516,3.6820567368772834,-85.93759911863056,-50.111510359679706,-72.42759839996175
5.88,1.23,-1.73,-0.7754040911626032,-0.9840253333731516,3.6820567368772834,-85.93759911863056,-50.111510359679706,-72.42759839996175
7.47,4.28,-1.04,1.013737546978041,-0.4667222244436722,1.2069170651317744,-83.90279877211277,-49.517699264874096,-75.67150643533657
7.47,4.28,-1.04,1.013737546978041,-0.4667222244436722,1.2069170651317744,-83.90279877211277,-49.517699264874096,-75.67150643533657
5.26,1.95,-0.6,-0.2723877115606715,-1.4942393614660918,4.373128704814331,-80.91743568101406,-50.9605066250118,-77.73183393976127
5.26,1.95,-0.6,-0.2723877115606715,-1.4942393614660918,4.373128704814331,-80.91743568101406,-50.9605066250118,-77.73183393976127
8.19,4.58,-0.25,0.5669976891155498,-1.8236616466627364,0.6160149936998902,-79.94203028891886,-49.39154002007115,-79.68807312130106
8.19,4.58,-0.25,0.5669976891155498,-1.8236616466627364,0.6160149936998902,-79.94203028891886,-49.39154002007115,-79.68807312130106
7.82,7.56,1.49,2.7950904784864607,-0.4881046286997721,-0.7987883732364498,-79.22617890812475,-46.04592388413568,-81.82413572126305
7.82,7.56,1.49,2.7950904784864607,-0.4881046286997721,-0.7987883732364498,-79.22617890812475,-46.04592388413568,-81.82413572126305
7.1,6.86,0.59,1.286461316066838,-0.3997955924979864,0.0085440214711525,-78.12975943011051,-44.15989850900582,-82.84402467387862
7.1,6.86,0.59,1.286461316066838,-0.3997955924979864,0.0085440214711525,-78.12975943011051,-44.15989850900582,-82.84402467387862
7.72,7.64,0.94,1.2299242727824655,-0.3108408699609817,-1.0211967036055878,-78.57321863854627,-39.48578948035391,-83.51817693642106
7.72,7.64,0.94,1.2299242727824655,-0.3108408699609817,-1.0211967036055878,-78.57321863854627,-39.48578948035391,-83.51817693642106
6.73,8.78,2.48,2.4999672237241293,0.918226072077168,-1.213273990702605,-78.3956670621913,-36.21489761998581,-83.51817693642106
6.73,8.78,2.48,2.4999672237241293,0.918226072077168,-1.213273990702605,-78.3956670621913,-36.21489761998581,-83.51817693642106
6.69,12.76,4.13,3.066957366060889,3.5403667905632217,-4.430279988696366,-77.45247883989401,-31.578534757977327,-83.073454311338
6.69,12.76,4.13,3.066957366060889,3.5403667905632217,-4.430279988696366,-77.45247883989401,-31.578534757977327,-83.073454311338
6.3,12.62,5.46,3.346570835949372,4.196122879350098,-4.334036561174032,-77.51124498215967,-26.47640945025204,-82.08216411124334
6.3,12.62,5.46,3.346570835949372,4.196122879350098,-4.334036561174032,-77.51124498215967,-26.47640945025204,-82.08216411124334
6.89,11.84,3.75,1.2601255937513351,3.172523327389083,-3.9798426368219193,-76.85151070141964,-23.998630403703213,-82.53874730166079
6.89,11.84,3.75,1.2601255937513351,3.172523327389083,-3.9798426368219193,-76.85151070141964,-23.998630403703213,-82.53874730166079
8.67,10.97,3.51,0.8215145268423896,1.8257875703766104,-4.469957217054242,-76.70531264449292,-21.0191686635752,-83.99528064351469
8.67,10.97,3.51,0.8215145268423896,1.8257875703766104,-4.469957217054242,-76.70531264449292,-21.0191686635752,-83.99528064351469
8.36,8.82,2.74,0.5411847323145731,0.7121968165462578,-2.6187069276705675,-77.21765539082577,-19.250121718432275,-83.87198638988208
8.36,8.82,2.74,0.5411847323145731,0.7121968165462578,-2.6187069276705675,-77.21765539082577,-19.250121718432275,-83.87198638988208
8.09,13.68,3.07,-0.7288637141466636,4.2605986153194015,-5.792435137447599,-77.92328819790765,-17.3929494210965,-82.46253949499255
8.09,13.68,3.07,-0.7288637141466636,4.2605986153194015,-5.792435137447599,-77.92328819790765,-17.3929494210965,-82.46253949499255
5.56,6.39,1.64,0.1199245055505985,0.8736287948159411,1.2242441110993312,-78.7658205194529,-17.416134643761747,-81.93032160430613
5.56,6.39,1.64,0.1199245055505985,0.8736287948159411,1.2242441110993312,-78.7658205194529,-17.416134643761747,-81.93032160430613
6.05,6.15,1.23,-0.1000455230640513,0.2786897628074039,1.097446654720871,-79.09236926487023,-17.485694626999518,-81.71803504011511
6.05,6.15,1.23,-0.1000455230640513,0.2786897628074039,1.097446654720871,-79.09236926487023,-17.485694626999518,-81.71803504011511
6.24,6.91,1.56,-0.0184957221473615,0.7391479667850978,0.3953473169778601,-79.07750949309555,-17.207493384994194,-81.56660985214896
6.24,6.91,1.56,-0.0184957221473615,0.7391479667850978,0.3953473169778601,-79.07750949309555,-17.207493384994194,-81.56660985214896
6.41,7.27,1.62,-0.0944077296952409,0.9519069337301702,0.0265497770937841,-79.10723062788524,-16.813549410004512,-81.82413572126305
6.41,7.27,1.62,-0.0944077296952409,0.9519069337301702,0.0265497770937841,-79.10723062788524,-16.813549410004512,-81.82413572126305
6.85,6.79,1.5,-0.0322349557735638,0.3928444978032419,0.0536384595489156,-79.22617890812475,-16.581911426258042,-82.17335373167707
6.85,6.79,1.5,-0.0322349557735638,0.3928444978032419,0.0536384595489156,-79.22617890812475,-16.581911426258042,-82.17335373167707
6.98,6.46,1.26,-0.1636623626295184,0.1207809422278503,0.2150793989434092,-79.38989987649909,-16.269308165184984,-82.50825884494826
6.98,6.46,1.26,-0.1636623626295184,0.1207809422278503,0.2150793989434092,-79.38989987649909,-16.269308165184984,-82.50825884494826
7.13,7.05,1.33,-0.2794660408078306,0.491742005043506,-0.292280068700892,-79.43458474445285,-16.13041264048083,-82.69129653429431
7.13,7.05,1.33,-0.2794660408078306,0.491742005043506,-0.292280068700892,-79.43458474445285,-16.13041264048083,-82.69129653429431
7.41,6.64,1.15,-0.3018259318301737,0.0319560531681353,-0.2047475007258974,-79.50909171234422,-16.16513427708501,-82.96633660527758
7.41,6.64,1.15,-0.3018259318301737,0.0319560531681353,-0.2047475007258974,-79.50909171234422,-16.16513427708501,-82.96633660527758
7.03,6.75,1.62,0.0893266479842085,0.543781679585726,-0.0576351862112574,-79.6731491009361,-16.0609738361326,-83.0428402073519
7.03,6.75,1.62,0.0893266479842085,0.543781679585726,-0.0576351862112574,-79.6731491009361,-16.0609738361326,-83.0428402073519
7.17,6.55,1.51,0.0564730131160944,0.3516884660218737,-0.0149906990714523,-79.80752374562414,-15.945255673236543,-83.24196162167489
7.17,6.55,1.51,0.0564730131160944,0.3516884660218737,-0.0149906990714523,-79.80752374562414,-15.945255673236543,-83.24196162167489
7.48,6.71,1.6,0.1280679086095252,0.3423253359293188,-0.3619738978125877,-79.92707858608141,-15.979969398223384,-83.44139093704848
7.48,6.71,1.6,0.1280679086095252,0.3423253359293188,-0.3619738978125877,-79.92707858608141,-15.979969398223384,-83.44139093704848
8.71,7.89,1.74,0.1049148952412599,0.5499420122413436,-2.060546663404901,-80.4963997494357,-16.072546557241562,-83.44139093704848
8.71,7.89,1.74,0.1049148952412599,0.5499420122413436,-2.060546663404901,-80.4963997494357,-16.072546557241562,-83.44139093704848
7.92,7.94,2.11,0.5555409484874864,1.2611457369019852,-1.521323591284876,-81.33979509600317,-16.29245975343786,-82.92045611576899
7.92,7.94,2.11,0.5555409484874864,1.2611457369019852,-1.521323591284876,-81.33979509600317,-16.29245975343786,-82.92045611576899
8.9,8.17,1.61,0.4241215922698592,0.718591510868511,-2.352903738335888,-82.63025542276526,-17.114782424924247,-81.96067611888428
8.9,8.17,1.61,0.4241215922698592,0.718591510868511,-2.352903738335888,-82.63025542276526,-17.114782424924247,-81.96067611888428
9.27,8.7,2.11,1.2495835292135298,1.0209166896126225,-2.9789383758389736,-84.304040393457,-17.868391355752113,-80.42135265062157
9.27,8.7,2.11,1.2495835292135298,1.0209166896126225,-2.9789383758389736,-84.304040393457,-17.868391355752113,-80.42135265062157
8.02,9.09,2.09,1.7892914376754976,2.0439040089786378,-2.190745240348722,-87.67255085031937,-18.901528010085144,-76.64687474214496
8.02,9.09,2.09,1.7892914376754976,2.0439040089786378,-2.190745240348722,-87.67255085031937,-18.901528010085144,-76.64687474214496
8.26,8.6,0.99,1.6228338917919578,1.3075779055806054,-1.9757245561108672,-91.04080642783411,-19.796614956633128,-73.25355342465495
8.26,8.6,0.99,1.6228338917919578,1.3075779055806054,-1.9757245561108672,-91.04080642783411,-19.796614956633128,-73.25355342465495
7.57,8.51,-0.12,1.6182408578405605,1.382089213720591,-1.3831009324976815,-96.610649179952,-21.007514103633174,-67.06363860553823
7.57,8.51,-0.12,1.6182408578405605,1.382089213720591,-1.3831009324976815,-96.610649179952,-21.007514103633174,-67.06363860553823
5.69,6.17,-1.13,0.991982716075113,0.5389986979843,1.413357994202782,-100.70777770605255,-22.50113074326324,-62.30262894881712
5.69,6.17,-1.13,0.991982716075113,0.5389986979843,1.413357994202782,-100.70777770605255,-22.50113074326324,-62.30262894881712
5.99,9.02,-2.71,0.6467638190597005,1.96239350891522,-1.162183496708877,-105.140661692498,-24.42054113976365,-57.37080402823785
5.99,9.02,-2.71,0.6467638190597005,1.96239350891522,-1.162183496708877,-105.140661692498,-24.42054113976365,-57.37080402823785
6.48,5.33,-4.87,0.239575855308041,-1.2598212759617289,0.1904317328126534,-113.06525678920109,-25.8058643261674,-49.934480858485706
6.48,5.33,-4.87,0.239575855308041,-1.2598212759617289,0.1904317328126534,-113.06525678920109,-25.8058643261674,-49.934480858485706
5.79,6.2,-8.09,-1.52682874801666,-0.8108869483401255,-1.7874630032116503,-118.29715573552454,-26.29986168212807,-44.84085774318776
5.79,6.2,-8.09,-1.52682874801666,-0.8108869483401255,-1.7874630032116503,-118.29715573552454,-26.29986168212807,-44.84085774318776
5.65,7.2,-8.07,0.2876237606573171,0.3759895578254846,-2.386106227560341,-126.17530318519164,-25.31235434951457,-37.07194645139856
5.65,7.2,-8.07,0.2876237606573171,0.3759895578254846,-2.386106227560341,-126.17530318519164,-25.31235434951457,-37.07194645139856
2.59,4.72,-7.22,-0.5393153444669999,0.5710210036442067,0.834583684338952,-135.03608676528202,-23.56534364989273,-28.399126966206964
2.59,4.72,-7.22,-0.5393153444669999,0.5710210036442067,0.834583684338952,-135.03608676528202,-23.56534364989273,-28.399126966206964
0.99,2.43,-7.35,-1.3375922498226829,-0.2716719410165616,2.1226054055381383,-142.99145809873448,-22.88682192770989,-20.192233442293944
0.99,2.43,-7.35,-1.3375922498226829,-0.2716719410165616,2.1226054055381383,-142.99145809873448,-22.88682192770989,-20.192233442293944
0.92,0.47,-9.19,-2.0930769535096894,-2.0242715871015458,1.0291359209261302,-147.0728095954594,-22.55955209306089,-16.5471716366683
0.92,0.47,-9.19,-2.0930769535096894,-2.0242715871015458,1.0291359209261302,-147.0728095954594,-22.55955209306089,-16.5471716366683
0.26,-1.04,-8.5,-2.4140115548531496,-2.5449845545991887,1.990333615034058,-150.34469905459454,-22.74654042115177,-13.2187858542384
0.26,-1.04,-8.5,-2.4140115548531496,-2.5449845545991887,1.990333615034058,-150.34469905459454,-22.74654042115177,-13.2187858542384
0.52,-0.95,-8.94,-2.0139377445403333,-2.381810739792538,1.3587193444533592,-151.6255402012684,-23.050527648721737,-11.823900394126868
0.52,-0.95,-8.94,-2.0139377445403333,-2.381810739792538,1.3587193444533592,-151.6255402012684,-23.050527648721737,-11.823900394126868
-0.31,-0.16,-7.56,-2.12107407773518,-0.9756366167815664,2.607728000925772,-151.7661453802759,-23.40148673707778,-11.869983070722633
-0.31,-0.16,-7.56,-2.12107407773518,-0.9756366167815664,2.607728000925772,-151.7661453802759,-23.40148673707778,-11.869983070722633
1.54,0.02,-9.88,-0.8254574989154098,-1.5748694300200956,-0.0333096643417452,-152.52794284369597,-23.448298031292182,-11.535926836248436
1.54,0.02,-9.88,-0.8254574989154098,-1.5748694300200956,-0.0333096643417452,-152.52794284369597,-23.448298031292182,-11.535926836248436
0.18,-0.5,-7.99,-1.6529531708283682,-1.2070271194557574,2.0649879466714784,-152.91671705681662,-23.79950985538602,-10.430771068314456
0.18,-0.5,-7.99,-1.6529531708283682,-1.2070271194557574,2.0649879466714784,-152.91671705681662,-23.79950985538602,-10.430771068314456
-0.25,0.26,-7.49,-1.5681260288365046,-0.221592150668028,2.477115384729548,-152.81901206638815,-24.2915885788112,-9.98208514628972
-0.25,0.26,-7.49,-1.5681260288365046,-0.221592150668028,2.477115384729548,-152.81901206638815,-24.2915885788112,-9.98208514628972
0.95,0.35,-8.8,-0.7570210339806641,-0.612055400008516,1.0022586331063614,-152.7702885732456,-24.361922456785425,-10.4537848668845
0.95,0.35,-8.8,-0.7570210339806641,-0.612055400008516,1.0022586331063614,-152.7702885732456,-24.361922456785425,-10.4537848668845
1.84,0.6,-10.29,-0.0758986202341677,-0.7641140492764884,-0.6355752953642444,-152.67309729035,-24.748926188008948,-10.10862175233956
1.84,0.6,-10.29,-0.0758986202341677,-0.7641140492764884,-0.6355752953642444,-152.67309729035,-24.748926188008948,-10.10862175233956
0.41,0.29,-8.37,-1.0590505898620093,-0.3390018788573232,1.495657906739165,-152.47972490837182,-25.15969838503005,-9.74054901066208
0.41,0.29,-8.37,-1.0590505898620093,-0.3390018788573232,1.495657906739165,-152.47972490837182,-25.15969838503005,-9.74054901066208
0.54,2.1,-8.18,-0.2248619736256192,1.235487531006077,1.4378383965794903,-152.3835367338065,-25.05404008221464,-10.166142467644526
0.54,2.1,-8.18,-0.2248619736256192,1.235487531006077,1.4378383965794903,-152.3835367338065,-25.05404008221464,-10.166142467644526
2.67,0.76,-11.12,0.395641426878983,-0.8952821476911714,-1.6127561902255962,-151.6255402012684,-25.570799441600013,-11.075320376717384
2.67,0.76,-11.12,0.395641426878983,-0.8952821476911714,-1.6127561902255962,-151.6255402012684,-25.570799441600013,-11.075320376717384
1.19,0.84,-9.2,-0.4468759204616729,-0.1415304765838508,0.5038562779018125,-151.43912137388486,-25.923438140144057,-10.810553401892458
1.19,0.84,-9.2,-0.4468759204616729,-0.1415304765838508,0.5038562779018125,-151.43912137388486,-25.923438140144057,-10.810553401892458
1.29,1.4,-9.18,-0.1340203144924691,0.267613111128865,0.436115235214416,-151.1157235364922,-26.1821984911941,-10.868106466869214
1.29,1.4,-9.18,-0.1340203144924691,0.267613111128865,0.436115235214416,-151.1157235364922,-26.1821984911941,-10.868106466869214
1.83,1.0,-10.07,-0.0811371748212147,-0.3568133651267402,-0.4705043231251054,-150.7504119288671,-26.39401255557817,-11.259541000283244
1.83,1.0,-10.07,-0.0811371748212147,-0.3568133651267402,-0.4705043231251054,-150.7504119288671,-26.39401255557817,-11.259541000283244
1.34,1.24,-9.31,-0.1058340164361917,0.0870454519770739,0.3203165539179409,-150.65977940351803,-26.8414782366778,-10.419264327291232
1.34,1.24,-9.31,-0.1058340164361917,0.0870454519770739,0.3203165539179409,-150.65977940351803,-26.8414782366778,-10.419264327291232
0.65,0.43,-8.91,-0.8780358644502151,-0.2397429686932614,0.9090617689285416,-150.43438697810743,-27.41909061621704,-9.80955486143351
0.65,0.43,-8.91,-0.8780358644502151,-0.2397429686932614,0.9090617689285416,-150.43438697810743,-27.41909061621704,-9.80955486143351
0.71,0.01,-9.33,-1.10056195501618,-0.5768588723765161,0.5325410279999687,-150.29995438645182,-27.60785191517117,-9.959079806154524
0.71,0.01,-9.33,-1.10056195501618,-0.5768588723765161,0.5325410279999687,-150.29995438645182,-27.60785191517117,-9.959079806154524
1.23,0.2,-9.85,-0.7351455171591117,-0.6208280051230809,-0.0751278591028725,-149.81204156148604,-27.985604401100783,-10.442277914805905
1.23,0.2,-9.85,-0.7351455171591117,-0.6208280051230809,-0.0751278591028725,-149.81204156148604,-27.985604401100783,-10.442277914805905
1.06,0.67,-9.44,-0.6197257249701362,-0.0980937358686762,0.3044177546382016,-149.63651807466178,-28.05646742034004,-10.660928195342471
1.06,0.67,-9.44,-0.6197257249701362,-0.0980937358686762,0.3044177546382016,-149.63651807466178,-28.05646742034004,-10.660928195342471
0.91,0.66,-9.27,-0.7493384340059912,-0.008078186446611,0.498856133877629,-149.54912686270868,-28.09190303440269,-10.868106466869214
0.91,0.66,-9.27,-0.7493384340059912,-0.008078186446611,0.498856133877629,-149.54912686270868,-28.09190303440269,-10.868106466869214
1.38,0.66,-9.92,-0.5159283262828858,-0.2340515528092785,-0.2145993149689892,-149.20198320614296,-28.387306821530828,-11.121372822035768
1.38,0.66,-9.92,-0.5159283262828858,-0.2340515528092785,-0.2145993149689892,-149.20198320614296,-28.387306821530828,-11.121372822035768
1.43,1.13,-9.62,-0.2520336648716291,0.0915466015035384,0.0191938314378852,-148.90133503664836,-28.517345406099267,-11.3631779010396
1.43,1.13,-9.62,-0.2520336648716291,0.0915466015035384,0.0191938314378852,-148.90133503664836,-28.517345406099267,-11.3631779010396
1.37,0.93,-9.52,-0.4051673105021375,-0.0598684645557808,0.152404549554264,-148.60349534227024,-28.76570522000204,-11.524409426521869
1.37,0.93,-9.52,-0.4051673105021375,-0.0598684645557808,0.152404549554264,-148.60349534227024,-28.76570522000204,-11.524409426521869
1.65,0.89,-10.04,-0.3608423045362375,-0.2133974745488948,-0.3982730447423304,-148.26644461114088,-28.966859495010613,-11.92758912667584
1.65,0.89,-10.04,-0.3608423045362375,-0.2133974745488948,-0.3982730447423304,-148.26644461114088,-28.966859495010613,-11.92758912667584
1.93,0.92,-10.46,-0.2418691220679944,-0.350897366540268,-0.8611178248987574,-147.89138385145154,-29.2983716924918,-12.123472436717575
1.93,0.92,-10.46,-0.2418691220679944,-0.350897366540268,-0.8611178248987574,-147.89138385145154,-29.2983716924918,-12.123472436717575
1.29,0.75,-9.42,-0.6324977427586388,-0.2238599956827774,0.2928267250101744,-147.7673081897566,-29.404982305122267,-12.00824269100582
1.29,0.75,-9.42,-0.6324977427586388,-0.2238599956827774,0.2928267250101744,-147.7673081897566,-29.404982305122267,-12.00824269100582
1.57,0.97,-9.69,-0.3878777565687721,-0.1946408460885862,-0.0479715445847066,-147.56154217602332,-29.535319528051428,-12.204140573704526
1.57,0.97,-9.69,-0.3878777565687721,-0.1946408460885862,-0.0479715445847066,-147.56154217602332,-29.535319528051428,-12.204140573704526
1.71,0.89,-9.89,-0.416018723829466,-0.3086356635598957,-0.2561514215029721,-147.23493252348757,-29.72497078004789,-12.596044357776794
1.71,0.89,-9.89,-0.416018723829466,-0.3086356635598957,-0.2561514215029721,-147.23493252348757,-29.72497078004789,-12.596044357776794
1.82,0.7,-10.04,-0.5009750413767466,-0.522350402009895,-0.3953191268616223,-146.992038514199,-29.879123753551497,-12.88430304585338
1.82,0.7,-10.04,-0.5009750413767466,-0.522350402009895,-0.3953191268616223,-146.992038514199,-29.879123753551497,-12.88430304585338
1.54,1.11,-9.61,-0.4692222001023283,-0.050420779844485,0.0223212917088186,-146.871240884656,-29.9147053648035,-13.022696190101502
1.54,1.11,-9.61,-0.4692222001023283,-0.050420779844485,0.0223212917088186,-146.871240884656,-29.9147053648035,-13.022696190101502
1.69,1.16,-9.84,-0.4010344143266305,-0.0972571164958172,-0.2361092051097504,-146.71084020226166,-30.009604103998093,-13.161108413553292
1.69,1.16,-9.84,-0.4010344143266305,-0.0972571164958172,-0.2361092051097504,-146.71084020226166,-30.009604103998093,-13.161108413553292
1.71,1.3,-9.61,-0.2521498503606859,0.017257526974643,-0.0372477356901566,-146.63092085313292,-30.10452391311007,-13.114968872872083
1.71,1.3,-9.61,-0.2521498503606859,0.017257526974643,-0.0372477356901566,-146.63092085313292,-30.10452391311007,-13.114968872872083
1.8,0.86,-9.8,-0.4220264135583567,-0.3948649664639456,-0.1776163909031662,-146.59103083752737,-30.21133398212997,-13.057297449093689
1.8,0.86,-9.8,-0.4220264135583567,-0.3948649664639456,-0.1776163909031662,-146.59103083752737,-30.21133398212997,-13.057297449093689
1.55,1.06,-9.54,-0.4864758520467994,-0.0944005161925969,0.096236528477899,-146.5113892939378,-30.270684516880635,-13.138038375794716
1.55,1.06,-9.54,-0.4864758520467994,-0.0944005161925969,0.096236528477899,-146.5113892939378,-30.270684516880635,-13.138038375794716
1.87,1.11,-9.93,-0.3035114418164369,-0.1961452502882219,-0.3522528859161689,-146.23408088100356,-30.50817000692102,-13.264930228136947
1.87,1.11,-9.93,-0.3035114418164369,-0.1961452502882219,-0.3522528859161689,-146.23408088100356,-30.50817000692102,-13.264930228136947
1.42,1.09,-9.27,-0.5131753155113542,0.0212858709739555,0.379370540513996,-146.19464572787078,-30.57944178497209,-13.161108413553292
1.42,1.09,-9.27,-0.5131753155113542,0.0212858709739555,0.379370540513996,-146.19464572787078,-30.57944178497209,-13.161108413553292
1.7,1.03,-9.59,-0.3831689209951582,-0.1697873418622736,0.0217967135921366,-146.19464572787078,-30.62696303514804,-13.161108413553292
1.7,1.03,-9.59,-0.3831689209951582,-0.1697873418622736,0.0217967135921366,-146.19464572787078,-30.62696303514804,-13.161108413553292
1.56,1.01,-9.55,-0.5029714739111715,-0.0886381250814547,0.0909223906434242,-146.07660730478975,-30.74578979374247,-13.2187858542384
1.56,1.01,-9.55,-0.5029714739111715,-0.0886381250814547,0.0909223906434242,-146.07660730478975,-30.74578979374247,-13.2187858542384
1.85,0.92,-9.71,-0.3562606215495868,-0.2768323574902619,-0.1104787283860293,-145.9981360073074,-30.805215870860085,-13.34568808643722
1.85,0.92,-9.71,-0.3562606215495868,-0.2768323574902619,-0.1104787283860293,-145.9981360073074,-30.805215870860085,-13.34568808643722
1.6,0.89,-9.46,-0.5478346890434469,-0.1454847670115669,0.1877929298461716,-145.84171829017612,-30.876538373720194,-13.553381828311744
1.6,0.89,-9.46,-0.5478346890434469,-0.1454847670115669,0.1877929298461716,-145.84171829017612,-30.876538373720194,-13.553381828311744
1.66,0.79,-9.58,-0.6916539195864231,-0.1684677927345892,0.0778611001249522,-145.4536804163923,-30.99543647635929,-14.349961892702815
1.66,0.79,-9.58,-0.6916539195864231,-0.1684677927345892,0.0778611001249522,-145.4536804163923,-30.99543647635929,-14.349961892702815
2.38,1.23,-9.99,-0.0835627751608565,-0.0929336420701649,-0.5355828633994175,-145.03166189361892,-31.185744677827834,-15.008530771963963
2.38,1.23,-9.99,-0.0835627751608565,-0.0929336420701649,-0.5355828633994175,-145.03166189361892,-31.185744677827834,-15.008530771963963
2.45,0.86,-10.04,-0.2390725957465312,-0.3896404376712895,-0.5535973244268799,-144.9174197897038,-31.26903222594612,-15.158799741488714
2.45,0.86,-10.04,-0.2390725957465312,-0.3896404376712895,-0.5535973244268799,-144.9174197897038,-31.26903222594612,-15.158799741488714
1.87,1.06,-9.47,-0.4701860648724889,0.0703403691737059,0.1074037768719247,-144.841458151918,-31.328533702747045,-15.205041610922963
1.87,1.06,-9.47,-0.4701860648724889,0.0703403691737059,0.1074037768719247,-144.841458151918,-31.328533702747045,-15.205041610922963
