acc_x,acc_y,acc_z,lin_x,lin_y,lin_z,eul_x,eul_y,eul_z
8.31,1.72,5.15,-0.2602108439310635,0.1204124298021206,-0.1157887709599823,-54.50336228612648,-15.713868313956253,-122.0899512562803
8.31,1.72,5.15,-0.2602108439310635,0.1204124298021206,-0.1157887709599823,-54.50336228612648,-15.713868313956253,-122.0899512562803
8.09,1.6,5.26,-0.0770285659036,-0.038201311213313,0.0256322993792483,-54.52914355096097,-15.760140597334962,-122.06628574219845
8.09,1.6,5.26,-0.0770285659036,-0.038201311213313,0.0256322993792483,-54.52914355096097,-15.760140597334962,-122.06628574219845
8.29,1.76,5.12,-0.2557801459117293,0.1653719154972478,-0.089982187088804,-54.52914355096097,-15.748572284340511,-122.04262905399636
8.29,1.76,5.12,-0.2557801459117293,0.1653719154972478,-0.089982187088804,-54.52914355096097,-15.748572284340511,-122.04262905399636
8.1,1.57,5.33,-0.0157321688387784,-0.096776659403341,-0.0154774058657132,-54.63229852978135,-15.852692930840096,-121.92447762133864
8.1,1.57,5.33,-0.0157321688387784,-0.096776659403341,-0.0154774058657132,-54.63229852978135,-15.852692930840096,-121.92447762133864
7.95,1.64,5.47,0.2102852065226899,-0.0817961276299912,0.0208393782159035,-54.70969624515614,-15.875832638109523,-121.8301142376418
7.95,1.64,5.47,0.2102852065226899,-0.0817961276299912,0.0208393782159035,-54.70969624515614,-15.875832638109523,-121.8301142376418
8.03,1.57,5.33,0.0364220587221835,-0.1105661843181406,0.0423707868412623,-54.69679474885505,-15.945255673236543,-121.80654521371449
8.03,1.57,5.33,0.0364220587221835,-0.1105661843181406,0.0423707868412623,-54.69679474885505,-15.945255673236543,-121.80654521371449
8.14,1.52,5.26,-0.0936907008619113,-0.1382988904590005,-0.0020041110118587,-54.69679474885505,-15.979969398223384,-121.80654521371449
8.14,1.52,5.26,-0.0936907008619113,-0.1382988904590005,-0.0020041110118587,-54.69679474885505,-15.979969398223384,-121.80654521371449
8.07,1.55,5.35,0.0354189229917106,-0.1404057091986298,0.002113716385228,-54.76130974847422,-15.979969398223384,-121.73589034408552
8.07,1.55,5.35,0.0354189229917106,-0.1404057091986298,0.002113716385228,-54.76130974847422,-15.979969398223384,-121.73589034408552
8.17,1.62,5.22,-0.1037035325570971,-0.0294862891899927,-0.022392483176322,-54.76130974847422,-15.968397992715149,-121.73589034408552
8.17,1.62,5.22,-0.1037035325570971,-0.0294862891899927,-0.022392483176322,-54.76130974847422,-15.968397992715149,-121.73589034408552
8.41,1.84,5.09,-0.2800677642613601,0.2217346752536497,-0.1880583890032454,-54.78712101513374,-15.945255673236543,-121.73589034408552
8.41,1.84,5.09,-0.2800677642613601,0.2217346752536497,-0.1880583890032454,-54.78712101513374,-15.945255673236543,-121.73589034408552
8.26,1.75,5.23,-0.0902059137922472,0.0682372532072714,-0.1246241665101397,-54.91622259305462,-16.026256661631813,-121.59481456130888
8.26,1.75,5.23,-0.0902059137922472,0.0682372532072714,-0.1246241665101397,-54.91622259305462,-16.026256661631813,-121.59481456130888
8.03,1.72,5.23,0.0590915186803878,0.0069702006943357,0.0707032248413366,-55.110016849983474,-16.13041264048083,-121.40719542947475
8.03,1.72,5.23,0.0590915186803878,0.0069702006943357,0.0707032248413366,-55.110016849983474,-16.13041264048083,-121.40719542947475
7.92,1.71,5.13,0.0548814075913456,0.0108376248791094,0.2168496591697621,-55.213443709052655,-16.19985740781584,-121.29021101561548
7.92,1.71,5.13,0.0548814075913456,0.0108376248791094,0.2168496591697621,-55.213443709052655,-16.19985740781584,-121.29021101561548
7.86,1.62,5.25,0.1663217926637619,-0.1274501811062881,0.2190228945780798,-55.265175443686026,-16.257732621833743,-121.2201221874496
7.86,1.62,5.25,0.1663217926637619,-0.1274501811062881,0.2190228945780798,-55.265175443686026,-16.257732621833743,-121.2201221874496
8.34,2.06,5.25,0.0100043662479939,0.2890583169184904,-0.2570493795560225,-55.265175443686026,-16.234582036054892,-121.2668396082864
8.34,2.06,5.25,0.0100043662479939,0.2890583169184904,-0.2570493795560225,-55.265175443686026,-16.234582036054892,-121.2668396082864
8.8,2.53,4.92,-0.3665673786546079,0.8069398215612871,-0.5500761468711701,-55.36867561916026,-16.38507281218067,-121.10347629286508
8.8,2.53,4.92,-0.3665673786546079,0.8069398215612871,-0.5500761468711701,-55.36867561916026,-16.38507281218067,-121.10347629286508
9.36,1.87,4.75,-0.906061287363412,0.1225844942106626,-0.8156391123015716,-55.770203681703904,-17.103194349757633,-120.47718468766024
9.36,1.87,4.75,-0.906061287363412,0.1225844942106626,-0.8156391123015716,-55.770203681703904,-17.103194349757633,-120.47718468766024
10.78,3.84,4.66,-0.992655262314574,1.8741273240912188,-2.365937329869272,-56.92715416608731,-17.520477052231193,-119.24220793672814
10.78,3.84,4.66,-0.992655262314574,1.8741273240912188,-2.365937329869272,-56.92715416608731,-17.520477052231193,-119.24220793672814
13.41,4.85,2.78,-3.111635886456153,3.048264475848828,-4.0535377979844185,-59.10225237254154,-18.76214012304259,-116.77224597329428
13.41,4.85,2.78,-3.111635886456153,3.048264475848828,-4.0535377979844185,-59.10225237254154,-18.76214012304259,-116.77224597329428
12.28,4.78,3.92,-0.7670188919510679,1.7984502949117882,-3.801820103436386,-63.24226308655378,-21.0191686635752,-112.17693391272267
12.28,4.78,3.92,-0.7670188919510679,1.7984502949117882,-3.801820103436386,-63.24226308655378,-21.0191686635752,-112.17693391272267
12.46,7.15,5.33,1.7063347915385332,2.7284010976867483,-5.17424613572322,-66.52833488574433,-22.62966555670664,-108.58359923261342
12.46,7.15,5.33,1.7063347915385332,2.7284010976867483,-5.17424613572322,-66.52833488574433,-22.62966555670664,-108.58359923261342
11.31,5.93,4.77,2.090091501656992,0.7387533163463638,-3.643987942205138,-69.2356779378902,-27.65505415801313,-103.81206807438303
11.31,5.93,4.77,2.090091501656992,0.7387533163463638,-3.643987942205138,-69.2356779378902,-27.65505415801313,-103.81206807438303
10.6,6.36,4.43,2.8786780552327667,0.1279927564259391,-3.0047250436330515,-71.3377536515333,-33.380796277367786,-98.84027760077332
10.6,6.36,4.43,2.8786780552327667,0.1279927564259391,-3.0047250436330515,-71.3377536515333,-33.380796277367786,-98.84027760077332
11.17,6.82,3.52,2.4993534400719,-0.2518369693166345,-3.5110641628166146,-72.11544554429472,-38.028099568652365,-95.34364080956615
11.17,6.82,3.52,2.4993534400719,-0.2518369693166345,-3.5110641628166146,-72.11544554429472,-38.028099568652365,-95.34364080956615
13.66,10.35,2.71,2.487741953406671,0.1734112180850822,-7.364350801429793,-71.11222790088254,-44.0239043163285,-92.43970392561262
13.66,10.35,2.71,2.487741953406671,0.1734112180850822,-7.364350801429793,-71.11222790088254,-44.0239043163285,-92.43970392561262
12.08,7.8,1.89,1.1360333018191535,-2.281965387148905,-4.470624330523044,-69.38891628677108,-51.69788502797172,-88.38959436761328
12.08,7.8,1.89,1.1360333018191535,-2.281965387148905,-4.470624330523044,-69.38891628677108,-51.69788502797172,-88.38959436761328
12.39,9.49,0.35,0.4455291636082357,-3.35445031029447,-5.432899431664305,-66.40503646948389,-62.838986778788296,-81.70288473795871
12.39,9.49,0.35,0.4455291636082357,-3.35445031029447,-5.432899431664305,-66.40503646948389,-62.838986778788296,-81.70288473795871
12.19,9.78,0.6,0.4194060020266528,-5.823786701889227,-4.702385359263628,-63.36341626073271,-72.12962086079537,-75.45402498067408
12.19,9.78,0.6,0.4194060020266528,-5.823786701889227,-4.702385359263628,-63.36341626073271,-72.12962086079537,-75.45402498067408
11.27,9.99,-1.34,-1.174081918966392,-7.291979784326347,-3.3864225182776178,-58.05115338810375,-85.43747913251065,-65.55798771264952
11.27,9.99,-1.34,-1.174081918966392,-7.291979784326347,-3.3864225182776178,-58.05115338810375,-85.43747913251065,-65.55798771264952
6.13,8.62,0.98,2.045878825328088,-7.212701555287154,2.281158912606936,-53.89835748467391,-98.4534931114122,-52.92346596535568
6.13,8.62,0.98,2.045878825328088,-7.212701555287154,2.281158912606936,-53.89835748467391,-98.4534931114122,-52.92346596535568
4.52,7.39,-0.46,1.3435151178281433,-6.147195110058567,3.83496184613268,-50.97320080007504,-107.452610813999,-43.22162404932176
4.52,7.39,-0.46,1.3435151178281433,-6.147195110058567,3.83496184613268,-50.97320080007504,-107.452610813999,-43.22162404932176
2.18,5.78,-0.65,1.7985490771432604,-4.6707231164155845,6.1279455015538105,-47.619376147320615,-118.31950504112476,-29.61828173729524
2.18,5.78,-0.65,1.7985490771432604,-4.6707231164155845,6.1279455015538105,-47.619376147320615,-118.31950504112476,-29.61828173729524
0.01,2.6,-1.39,0.9643323443338064,-1.4897824934575974,7.452332423321158,-45.57320299258629,-124.9229107357918,-18.901528010085144
0.01,2.6,-1.39,0.9643323443338064,-1.4897824934575974,7.452332423321158,-45.57320299258629,-124.9229107357918,-18.901528010085144
-1.14,1.19,-1.79,0.831274220782392,-0.1939065549666394,7.528233133444716,-43.34490590574986,-130.3788376016962,-4.96336629149859
-1.14,1.19,-1.79,0.831274220782392,-0.1939065549666394,7.528233133444716,-43.34490590574986,-130.3788376016962,-4.96336629149859
-3.86,-2.25,-2.39,0.2949818805840538,3.5784865709700138,6.23151090459205,-42.42156281061413,-131.31561745343842,5.628708719478254
-3.86,-2.25,-2.39,0.2949818805840538,3.5784865709700138,6.23151090459205,-42.42156281061413,-131.31561745343842,5.628708719478254
-4.63,-6.32,-3.32,-1.9266952629371847,5.879368019247848,3.9651966655958737,-41.48884440066444,-129.97078188553854,17.033669594732867
-4.63,-6.32,-3.32,-1.9266952629371847,5.879368019247848,3.9651966655958737,-41.48884440066444,-129.97078188553854,17.033669594732867
-2.27,-1.85,-5.19,-0.6014941923318411,0.2038068679392947,3.8814354471612695,-39.98534936807032,-129.72743673627951,21.368908312577144
-2.27,-1.85,-5.19,-0.6014941923318411,0.2038068679392947,3.8814354471612695,-39.98534936807032,-129.72743673627951,21.368908312577144
-3.55,-3.82,-2.8,-0.3764614227029003,3.016711161442084,4.728005440115222,-39.02347987528319,-128.57965137649458,26.170433719349266
-3.55,-3.82,-2.8,-0.3764614227029003,3.016711161442084,4.728005440115222,-39.02347987528319,-128.57965137649458,26.170433719349266
-4.53,-7.75,-2.17,-1.8833302525473408,5.888786566968976,2.9460698548136097,-39.76593345094053,-125.49571017669872,32.86672457746944
-4.53,-7.75,-2.17,-1.8833302525473408,5.888786566968976,2.9460698548136097,-39.76593345094053,-125.49571017669872,32.86672457746944
-1.35,-6.45,-5.59,-2.945897316199813,1.284147822304789,1.78506952151095,-40.461276767806375,-124.87336158426491,34.42302630295278
-1.35,-6.45,-5.59,-2.945897316199813,1.284147822304789,1.78506952151095,-40.461276767806375,-124.87336158426491,34.42302630295278
-2.69,-6.89,-4.61,-2.028894714456341,2.8032841592126347,1.8075572914261928,-40.607862210384674,-124.40467458524144,35.504295540348124
-2.69,-6.89,-4.61,-2.028894714456341,2.8032841592126347,1.8075572914261928,-40.607862210384674,-124.40467458524144,35.504295540348124
-0.94,-4.06,-6.05,-1.2772469350946436,-0.5658068260421882,2.5942854153165973,-41.07250897869503,-124.60157138168796,34.90319398604888
-0.94,-4.06,-6.05,-1.2772469350946436,-0.5658068260421882,2.5942854153165973,-41.07250897869503,-124.60157138168796,34.90319398604888
-1.71,-4.3,-6.58,-0.6528919990965352,-0.1099346503898099,1.7896588929724135,-41.20714343304567,-125.19616916396942,34.15920009515199
-1.71,-4.3,-6.58,-0.6528919990965352,-0.1099346503898099,1.7896588929724135,-41.20714343304567,-125.19616916396942,34.15920009515199
-2.8,-3.66,-4.69,0.4390942695257137,1.3804806783689116,3.3931354160047484,-40.80341749737214,-126.3527930632596,33.105742400688804
-2.8,-3.66,-4.69,0.4390942695257137,1.3804806783689116,3.3931354160047484,-40.80341749737214,-126.3527930632596,33.105742400688804
0.34,-2.89,-6.63,-0.2693100364163035,-1.2437813640196964,2.678881764233439,-41.280605467484456,-128.1324147334415,29.49976914452507
0.34,-2.89,-6.63,-0.2693100364163035,-1.2437813640196964,2.678881764233439,-41.280605467484456,-128.1324147334415,29.49976914452507
-2.43,-9.05,-6.16,-1.4690017822969426,4.566346146351052,-0.3295976605158639,-41.04803635831072,-126.81171301116376,30.93598315774567
-2.43,-9.05,-6.16,-1.4690017822969426,4.566346146351052,-0.3295976605158639,-41.04803635831072,-126.81171301116376,30.93598315774567
0.13,-2.14,-8.01,0.9825516021270492,-1.9589153834532431,1.8095353409727928,-42.163546289132256,-127.48115670522915,28.81302746748213
0.13,-2.14,-8.01,0.9825516021270492,-1.9589153834532431,1.8095353409727928,-42.163546289132256,-127.48115670522915,28.81302746748213
0.55,-4.91,-9.63,-0.5073546178950896,-1.3825105521854528,-0.9161647361034096,-43.22162404932176,-126.04885559306123,29.713115141941444
0.55,-4.91,-9.63,-0.5073546178950896,-1.3825105521854528,-0.9161647361034096,-43.22162404932176,-126.04885559306123,29.713115141941444
0.86,-6.87,-12.13,-1.5757853869501268,-1.9417536122613472,-3.93452510708398,-43.24627621237414,-125.49571017669872,31.10247401988412
0.86,-6.87,-12.13,-1.5757853869501268,-1.9417536122613472,-3.93452510708398,-43.24627621237414,-125.49571017669872,31.10247401988412
-3.41,-7.62,-6.97,-2.190400998927592,2.0332235552115248,-0.6500007753883619,-44.11043851170447,-121.3603761475579,35.612600576556765
-3.41,-7.62,-6.97,-2.190400998927592,2.0332235552115248,-0.6500007753883619,-44.11043851170447,-121.3603761475579,35.612600576556765
-3.09,-2.2,-6.17,0.6786152402958938,-0.9005901004407106,2.6522514350173125,-44.03626472561431,-120.04002661398825,35.829309438989284
-3.09,-2.2,-6.17,0.6786152402958938,-0.9005901004407106,2.6522514350173125,-44.03626472561431,-120.04002661398825,35.829309438989284
-6.71,-6.43,-2.77,0.219710064476238,5.4295784951772745,1.7746325166850934,-44.6673653156106,-118.81305169988,37.74944537405314
-6.71,-6.43,-2.77,0.219710064476238,5.4295784951772745,1.7746325166850934,-44.6673653156106,-118.81305169988,37.74944537405314
-3.87,-4.49,-4.38,0.182116436676084,2.005587700694488,2.716808564656369,-45.461363019955,-119.06117764081604,37.71311628724267
-3.87,-4.49,-4.38,0.182116436676084,2.005587700694488,2.716808564656369,-45.461363019955,-119.06117764081604,37.71311628724267
-0.08,-5.37,-9.78,-0.3853360264298189,-1.7455321424494576,-1.2068114761396045,-46.60679955433233,-120.777980646449,33.919519970596944
-0.08,-5.37,-9.78,-0.3853360264298189,-1.7455321424494576,-1.2068114761396045,-46.60679955433233,-120.777980646449,33.919519970596944
4.99,-5.78,-14.23,-1.5538769228387943,-6.211031136923268,-5.019339300037915,-47.24389230544818,-121.03358960360973,31.20953939428692
4.99,-5.78,-14.23,-1.5538769228387943,-6.211031136923268,-5.019339300037915,-47.24389230544818,-121.03358960360973,31.20953939428692
2.76,-5.72,-11.3,-1.580607911394107,-3.963958420103797,-2.4332320367733384,-47.26890777482772,-120.47718468766024,32.902567850463264
2.76,-5.72,-11.3,-1.580607911394107,-3.963958420103797,-2.4332320367733384,-47.26890777482772,-120.47718468766024,32.902567850463264
-4.88,-5.96,-4.17,-0.0262842806105378,3.583305659303404,1.813895175247964,-45.8343416064403,-118.92572331092975,37.77366695276425
-4.88,-5.96,-4.17,-0.0262842806105378,3.583305659303404,1.813895175247964,-45.8343416064403,-118.92572331092975,37.77366695276425
3.42,-2.73,-11.16,-2.9308312601681035,-7.517090503305465,0.9410717058594428,-45.461363019955,-119.19690467351394,37.180738981785375
3.42,-2.73,-11.16,-2.9308312601681035,-7.517090503305465,0.9410717058594428,-45.461363019955,-119.19690467351394,37.180738981785375
-2.14,-5.55,-6.19,-1.570546354098409,0.3839555472308729,1.3755075929842793,-44.803671685885895,-119.71975142044464,37.37423381555307
-2.14,-5.55,-6.19,-1.570546354098409,0.3839555472308729,1.3755075929842793,-44.803671685885895,-119.71975142044464,37.37423381555307
0.19,-5.18,-8.49,-2.4747253221233,-2.4331263335566184,0.4844061271443341,-45.225406324165256,-120.20074735368748,36.48023552286196
0.19,-5.18,-8.49,-2.4747253221233,-2.4331263335566184,0.4844061271443341,-45.225406324165256,-120.20074735368748,36.48023552286196
-0.98,-6.19,-8.71,-2.3348095437455,-1.4076138956025577,-0.5715910607646588,-45.51106402154343,-119.62852711601612,36.914862771096224
-0.98,-6.19,-8.71,-2.3348095437455,-1.4076138956025577,-0.5715910607646588,-45.51106402154343,-119.62852711601612,36.914862771096224
-2.76,-7.71,-7.24,-2.882683059662672,0.9479259917149144,-0.6943439858931999,-45.16334612512468,-118.6107135023718,37.94326713356112
-2.76,-7.71,-7.24,-2.882683059662672,0.9479259917149144,-0.6943439858931999,-45.16334612512468,-118.6107135023718,37.94326713356112
-5.09,-5.86,-5.17,-1.093014213518222,2.32553368906168,0.8415056626183439,-44.69214333160206,-117.254831475668,37.446822845384496
-5.09,-5.86,-5.17,-1.093014213518222,2.32553368906168,0.8415056626183439,-44.69214333160206,-117.254831475668,37.446822845384496
-7.08,-3.71,-3.69,1.24108489446117,3.17550770034414,1.6898489595780166,-45.051672965046905,-116.05449328856253,35.92566698091841
-7.08,-3.71,-3.69,1.24108489446117,3.17550770034414,1.6898489595780166,-45.051672965046905,-116.05449328856253,35.92566698091841
-6.76,-3.82,-4.68,0.1091994117108643,2.4875847348147344,1.0892881470310254,-46.84396830154976,-114.38591221182236,33.40472333858408
-6.76,-3.82,-4.68,0.1091994117108643,2.4875847348147344,1.0892881470310254,-46.84396830154976,-114.38591221182236,33.40472333858408
-7.67,-3.42,-3.89,0.5869096889738592,3.528576489943565,1.2707209368220391,-48.72395587995984,-113.37759496408128,30.94787313807167
-7.67,-3.42,-3.89,0.5869096889738592,3.528576489943565,1.2707209368220391,-48.72395587995984,-113.37759496408128,30.94787313807167
-7.85,-3.78,-4.01,-0.2808086838644505,4.317322683115276,1.2466925624349852,-52.19500183844674,-112.25913519470078,26.52349964582953
-7.85,-3.78,-4.01,-0.2808086838644505,4.317322683115276,1.2466925624349852,-52.19500183844674,-112.25913519470078,26.52349964582953
-4.42,0.54,-6.28,0.617878531842373,-0.4977839180637139,2.149180620968475,-57.00537744006553,-110.591135376776,19.57563811342796
-4.42,0.54,-6.28,0.617878531842373,-0.4977839180637139,2.149180620968475,-57.00537744006553,-110.591135376776,19.57563811342796
-4.92,1.74,-6.27,1.4991188975611198,-0.1297017236647315,1.7889994717059725,-61.1146263962974,-108.05519160220844,15.771709071970363
-4.92,1.74,-6.27,1.4991188975611198,-0.1297017236647315,1.7889994717059725,-61.1146263962974,-108.05519160220844,15.771709071970363
-4.1,1.32,-6.15,0.5846776780283518,0.1481615323094776,2.322593601685039,-67.14613988325526,-103.92358004914206,12.07737906844118
-4.1,1.32,-6.15,0.5846776780283518,0.1481615323094776,2.322593601685039,-67.14613988325526,-103.92358004914206,12.07737906844118
-2.91,2.16,-7.93,0.3362152169453229,-1.357825665111301,1.2007294338397791,-71.71905293720884,-100.51042463462828,8.912747665103913
-2.91,2.16,-7.93,0.3362152169453229,-1.357825665111301,1.2007294338397791,-71.71905293720884,-100.51042463462828,8.912747665103913
-2.1,2.72,-9.07,0.0291659904494456,-1.8735374886197864,0.2902270047912783,-76.35503755065555,-96.99036426880296,4.206454848857137
-2.1,2.72,-9.07,0.0291659904494456,-1.8735374886197864,0.2902270047912783,-76.35503755065555,-96.99036426880296,4.206454848857137
-1.63,2.76,-7.82,0.1683800351879245,-1.4254163088720953,1.477980447775492,-79.70299876376654,-94.0413918640216,1.2490727279396536
-1.63,2.76,-7.82,0.1683800351879245,-1.4254163088720953,1.477980447775492,-79.70299876376654,-94.0413918640216,1.2490727279396536
-0.85,4.09,-9.52,0.5995616444323261,-2.122913151023029,-0.352816796428792,-85.49988365909948,-88.74173969605336,-2.280522559802512
-0.85,4.09,-9.52,0.5995616444323261,-2.122913151023029,-0.352816796428792,-85.49988365909948,-88.74173969605336,-2.280522559802512
0.01,4.31,-9.62,0.7003209148706759,-2.512676270894333,-0.4069002433717532,-88.87005513080322,-85.59354940204219,-4.263789782102698
0.01,4.31,-9.62,0.7003209148706759,-2.512676270894333,-0.4069002433717532,-88.87005513080322,-85.59354940204219,-4.263789782102698
0.0,4.7,-8.85,1.1875098070069037,-1.7086759596916574,0.0044692771692798,-92.32383080569312,-82.38637607932448,-6.845186330854816
0.0,4.7,-8.85,1.1875098070069037,-1.7086759596916574,0.0044692771692798,-92.32383080569312,-82.38637607932448,-6.845186330854816
0.55,4.78,-10.14,1.1112929949329056,-1.7297989844851085,-1.2270856934397971,-96.59342299000927,-79.06265131180031,-8.246248510013665
0.55,4.78,-10.14,1.1112929949329056,-1.7297989844851085,-1.2270856934397971,-96.59342299000927,-79.06265131180031,-8.246248510013665
3.71,4.36,-13.33,0.9931102437775934,-4.247278136796979,-4.029424604901143,-101.71892470333574,-75.20793134376436,-9.188627520029687
3.71,4.36,-13.33,0.9931102437775934,-4.247278136796979,-4.029424604901143,-101.71892470333574,-75.20793134376436,-9.188627520029687
1.68,3.99,-10.54,1.3143541050859553,-1.776887096878539,-1.3714198482068074,-103.55241005030376,-73.9261202682898,-8.544988083393589
1.68,3.99,-10.54,1.3143541050859553,-1.776887096878539,-1.3714198482068074,-103.55241005030376,-73.9261202682898,-8.544988083393589
0.95,3.11,-9.97,0.7374406836556628,-0.9370251109122544,-0.6122590206033305,-104.67057274431014,-73.33924904872958,-8.246248510013665
0.95,3.11,-9.97,0.7374406836556628,-0.9370251109122544,-0.6122590206033305,-104.67057274431014,-73.33924904872958,-8.246248510013665
0.96,2.99,-9.82,0.821663828333447,-0.6962552305497904,-0.4468468282601261,-105.25385814101205,-73.06804274776655,-8.430081473298436
0.96,2.99,-9.82,0.821663828333447,-0.6962552305497904,-0.4468468282601261,-105.25385814101205,-73.06804274776655,-8.430081473298436
1.06,1.63,-10.43,-0.3963599177055429,-1.11773769989202,-0.7365450209543472,-105.4428449688075,-73.11083313213125,-8.004999928704901
1.06,1.63,-10.43,-0.3963599177055429,-1.11773769989202,-0.7365450209543472,-105.4428449688075,-73.11083313213125,-8.004999928704901
0.69,1.11,-10.05,-0.7259617326649589,-0.8342833632247304,-0.2674579422722356,-105.55643382820686,-73.22499880394925,-7.361841150905901
0.69,1.11,-10.05,-0.7259617326649589,-0.8342833632247304,-0.2674579422722356,-105.55643382820686,-73.22499880394925,-7.361841150905901
0.06,1.58,-9.47,-0.3504519913243153,-0.0624008076499942,0.2121625441229788,-105.5943297282315,-73.18217678230073,-7.407773121999347
0.06,1.58,-9.47,-0.3504519913243153,-0.0624008076499942,0.2121625441229788,-105.5943297282315,-73.18217678230073,-7.407773121999347
0.25,2.23,-9.54,0.2008090554393896,0.0346019011664939,0.0084114628092883,-105.40501487729964,-73.26783271865594,-8.246248510013665
0.25,2.23,-9.54,0.2008090554393896,0.0346019011664939,0.0084114628092883,-105.40501487729964,-73.26783271865594,-8.246248510013665
0.79,1.39,-9.99,-0.5700499311110528,-0.6292346343183273,-0.2747887292198836,-105.25385814101205,-73.39640598031606,-8.774827247055486
0.79,1.39,-9.99,-0.5700499311110528,-0.6292346343183273,-0.2747887292198836,-105.25385814101205,-73.39640598031606,-8.774827247055486
0.85,1.88,-9.84,-0.200542020055174,-0.4918067001816964,-0.2332906904547283,-104.98995994505609,-73.49648178219452,-9.60254790532585
0.85,1.88,-9.84,-0.200542020055174,-0.4918067001816964,-0.2332906904547283,-104.98995994505609,-73.49648178219452,-9.60254790532585
1.43,2.41,-9.98,0.205308549837698,-0.8277214199374193,-0.5241837345221274,-104.53939520886964,-73.68251024872158,-10.833574298853826
1.43,2.41,-9.98,0.205308549837698,-0.8277214199374193,-0.5241837345221274,-104.53939520886964,-73.68251024872158,-10.833574298853826
1.13,2.53,-9.66,0.1691735192661138,-0.4487336706450451,-0.2314483464602759,-104.25895173526337,-73.73979529168805,-11.697182904814724
1.13,2.53,-9.66,0.1691735192661138,-0.4487336706450451,-0.2314483464602759,-104.25895173526337,-73.73979529168805,-11.697182904814724
1.5,2.83,-9.79,0.4488376396522036,-0.6889806919519945,-0.4611078068120005,-104.16566658300285,-73.7541199081015,-12.100425506938455
1.5,2.83,-9.79,0.4488376396522036,-0.6889806919519945,-0.4611078068120005,-104.16566658300285,-73.7541199081015,-12.100425506938455
1.15,3.12,-9.23,0.6388374139391324,-0.3064940410258439,0.0215721688651218,-103.45985596974184,-74.24196019139418,-12.67674864442774
1.15,3.12,-9.23,0.6388374139391324,-0.3064940410258439,0.0215721688651218,-103.45985596974184,-74.24196019139418,-12.67674864442774
1.63,1.94,-10.25,-0.5763611996155159,-0.9340040742860584,-0.6947043963050241,-103.21965750009808,-74.55846036977005,-12.941964550756788
1.63,1.94,-10.25,-0.5763611996155159,-0.9340040742860584,-0.6947043963050241,-103.21965750009808,-74.55846036977005,-12.941964550756788
0.86,2.71,-8.3,0.3532116187631319,-0.0066657744378484,1.0402997263786045,-102.53946443897644,-75.00557127858174,-13.738036026791262
0.86,2.71,-8.3,0.3532116187631319,-0.0066657744378484,1.0402997263786045,-102.53946443897644,-75.00557127858174,-13.738036026791262
1.54,2.19,-9.39,-0.2828773692894723,-0.6996895077282625,0.0716505142928305,-102.2651416958551,-75.28026949834307,-13.991994191085649
1.54,2.19,-9.39,-0.2828773692894723,-0.6996895077282625,0.0716505142928305,-102.2651416958551,-75.28026949834307,-13.991994191085649
1.84,2.45,-9.48,-0.0379174300919127,-0.8420701366862461,-0.1204835315586692,-102.19212653307552,-75.28026949834307,-14.46546520944767
1.84,2.45,-9.48,-0.0379174300919127,-0.8420701366862461,-0.1204835315586692,-102.19212653307552,-75.28026949834307,-14.46546520944767
1.83,2.89,-9.76,0.2396202359102473,-0.7007678949073228,-0.5088774465249449,-102.13740297255076,-75.25133001282822,-14.73117911928188
1.83,2.89,-9.76,0.2396202359102473,-0.7007678949073228,-0.5088774465249449,-102.13740297255076,-75.25133001282822,-14.73117911928188
1.34,2.8,-9.18,0.2059386786332062,-0.3276664816505854,0.1237669614909844,-102.10093856551023,-75.28026949834307,-14.569430825374988
1.34,2.8,-9.18,0.2059386786332062,-0.3276664816505854,0.1237669614909844,-102.10093856551023,-75.28026949834307,-14.569430825374988
1.31,2.26,-9.48,-0.3711131916888492,-0.4164184575225047,-0.0108329089328744,-102.1556405634774,-75.25133001282822,-14.488567642103208
1.31,2.26,-9.48,-0.3711131916888492,-0.4164184575225047,-0.0108329089328744,-102.1556405634774,-75.25133001282822,-14.488567642103208
1.5,2.59,-9.5,-0.031099671026473,-0.506974956168051,-0.1407169483074994,-102.22862690361036,-75.15008613528076,-14.54632631618216
1.5,2.59,-9.5,-0.031099671026473,-0.506974956168051,-0.1407169483074994,-102.22862690361036,-75.15008613528076,-14.54632631618216
1.71,2.42,-9.66,-0.1729313251859273,-0.7595885443949971,-0.2675358231816123,-102.30167093062992,-75.12117195535056,-14.430812668433536
1.71,2.42,-9.66,-0.1729313251859273,-0.7595885443949971,-0.2675358231816123,-102.30167093062992,-75.12117195535056,-14.430812668433536
1.44,2.51,-9.39,-0.0855396300690182,-0.5328739985120333,-0.0042892146418633,-102.42963728896297,-74.97668509466439,-14.315313760812993
1.44,2.51,-9.39,-0.0855396300690182,-0.5328739985120333,-0.0042892146418633,-102.42963728896297,-74.97668509466439,-14.315313760812993
1.44,2.88,-9.33,0.2671200006240448,-0.4796851475102242,-0.0480670971329608,-102.5761026611454,-74.8034850768004,-14.211377245158012
1.44,2.88,-9.33,0.2671200006240448,-0.4796851475102242,-0.0480670971329608,-102.5761026611454,-74.8034850768004,-14.211377245158012
1.21,3.05,-8.99,0.4660010890087245,-0.2490179855422374,0.251152470937523,-102.75951351944929,-74.63048498986646,-14.118999098561428
1.21,3.05,-8.99,0.4660010890087245,-0.2490179855422374,0.251152470937523,-102.75951351944929,-74.63048498986646,-14.118999098561428
1.48,2.97,-9.43,0.3078080348681111,-0.5063543656429534,-0.1725814067800293,-102.74115590851989,-74.60167100356149,-14.25756979612918
1.48,2.97,-9.43,0.3078080348681111,-0.5063543656429534,-0.1725814067800293,-102.74115590851989,-74.60167100356149,-14.25756979612918
1.28,2.9,-9.25,0.2623354533292413,-0.3611871387114893,0.0387626152705902,-102.94329258700417,-74.42890280024764,-14.08435967436596
1.28,2.9,-9.25,0.2623354533292413,-0.3611871387114893,0.0387626152705902,-102.94329258700417,-74.42890280024764,-14.08435967436596
1.22,2.78,-9.2,0.1624205536801053,-0.3291732035906532,0.1256343215817441,-102.8513568589136,-74.54405958152292,-14.061267443693245
1.22,2.78,-9.2,0.1624205536801053,-0.3291732035906532,0.1256343215817441,-102.8513568589136,-74.54405958152292,-14.061267443693245
1.34,2.51,-9.45,-0.1039011617078501,-0.4732663417493535,-0.0505008823981683,-102.75951351944929,-74.65930449968721,-14.061267443693245
1.34,2.51,-9.45,-0.1039011617078501,-0.4732663417493535,-0.0505008823981683,-102.75951351944929,-74.65930449968721,-14.061267443693245
1.6,2.7,-9.71,0.0513851090395034,-0.6446324927450942,-0.3774507712937645,-102.68610514129892,-74.74579622029077,-14.188281840563285
1.6,2.7,-9.71,0.0513851090395034,-0.6446324927450942,-0.3774507712937645,-102.68610514129892,-74.74579622029077,-14.188281840563285
1.23,2.64,-9.12,0.0942259513445071,-0.3117597793504421,0.2384303479397172,-102.66776223181776,-74.77463787425259,-14.142092768246476
1.23,2.64,-9.12,0.0942259513445071,-0.3117597793504421,0.2384303479397172,-102.66776223181776,-74.77463787425259,-14.142092768246476
1.32,2.39,-9.37,-0.1644631504389206,-0.4485392809783495,0.0586674197135987,-102.74115590851989,-74.74579622029077,-14.049721543626418
1.32,2.39,-9.37,-0.1644631504389206,-0.4485392809783495,0.0586674197135987,-102.74115590851989,-74.74579622029077,-14.049721543626418
1.53,2.89,-9.45,0.3099678967704465,-0.5144508972693658,-0.1750713033259163,-102.7962397901978,-74.65930449968721,-14.153639819523336
1.53,2.89,-9.45,0.3099678967704465,-0.5144508972693658,-0.1750713033259163,-102.7962397901978,-74.65930449968721,-14.153639819523336
1.34,2.58,-9.24,0.0584601970796388,-0.4077755827777159,0.1288454204764164,-102.81460845539635,-74.68812953802521,-14.08435967436596
1.34,2.58,-9.24,0.0584601970796388,-0.4077755827777159,0.1288454204764164,-102.81460845539635,-74.68812953802521,-14.08435967436596
1.33,2.67,-9.22,0.1366399248688731,-0.3481724544741953,0.1233496600912307,-102.8513568589136,-74.61607730658687,-14.222925164993963
1.33,2.67,-9.22,0.1366399248688731,-0.3481724544741953,0.1233496600912307,-102.8513568589136,-74.61607730658687,-14.222925164993963
1.27,2.54,-9.31,-0.0121915008790404,-0.3301488815476938,0.0787800849919282,-102.92489803406494,-74.57286253577672,-14.130545861300051
1.27,2.54,-9.31,-0.0121915008790404,-0.3301488815476938,0.0787800849919282,-102.92489803406494,-74.57286253577672,-14.130545861300051
1.12,2.71,-9.22,0.1319064461635406,-0.1513275926060393,0.1336669725582258,-102.9800928228657,-74.50086547711395,-14.118999098561428
1.12,2.71,-9.22,0.1319064461635406,-0.1513275926060393,0.1336669725582258,-102.9800928228657,-74.50086547711395,-14.118999098561428
1.47,2.6,-9.56,0.0266343832966661,-0.4836073211961445,-0.1973449304521324,-103.03532104245024,-74.4576837501471,-14.153639819523336
1.47,2.6,-9.56,0.0266343832966661,-0.4836073211961445,-0.1973449304521324,-103.03532104245024,-74.4576837501471,-14.153639819523336
1.41,2.76,-9.32,0.2258172782048389,-0.3900071284139628,-0.0048229269692452,-103.07215846453477,-74.44329258880299,-14.176734355559056
1.41,2.76,-9.32,0.2258172782048389,-0.3900071284139628,-0.0048229269692452,-103.07215846453477,-74.44329258880299,-14.176734355559056
1.41,2.86,-9.42,0.2803458561010129,-0.3404529137404293,-0.1286204046992427,-102.88812004458934,-74.57286253577672,-14.303764676023915
1.41,2.86,-9.42,0.2803458561010129,-0.3404529137404293,-0.1286204046992427,-102.88812004458934,-74.57286253577672,-14.303764676023915
1.22,2.31,-9.12,-0.1616777288647427,-0.2934359445752657,0.325792672815906,-102.92489803406494,-74.60167100356149,-14.222925164993963
1.22,2.31,-9.12,-0.1616777288647427,-0.2934359445752657,0.325792672815906,-102.92489803406494,-74.60167100356149,-14.222925164993963
1.5,2.44,-9.57,-0.1071367862225746,-0.4862882006957749,-0.1703508266463522,-102.83298081073578,-74.68812953802521,-14.349961892702815
1.5,2.44,-9.57,-0.1071367862225746,-0.4862882006957749,-0.1703508266463522,-102.83298081073578,-74.68812953802521,-14.349961892702815
1.29,2.88,-9.28,0.3061990430870829,-0.1843280395686022,0.0112855187853586,-102.7962397901978,-74.65930449968721,-14.477016351828802
1.29,2.88,-9.28,0.3061990430870829,-0.1843280395686022,0.0112855187853586,-102.7962397901978,-74.65930449968721,-14.477016351828802
1.25,2.55,-9.34,-0.011797838560487,-0.2233341378053572,0.0470095007861051,-102.83298081073578,-74.64489405402493,-14.419262116395176
1.25,2.55,-9.34,-0.011797838560487,-0.2233341378053572,0.0470095007861051,-102.83298081073578,-74.64489405402493,-14.419262116395176
1.14,2.68,-9.09,0.1433920290924564,-0.0892750367468948,0.2629835822228888,-102.81460845539635,-74.64489405402493,-14.488567642103208
1.14,2.68,-9.09,0.1433920290924564,-0.0892750367468948,0.2629835822228888,-102.81460845539635,-74.64489405402493,-14.488567642103208
1.53,2.66,-9.49,0.11295588098086,-0.4256056537721571,-0.1574204933490417,-102.77787481244587,-74.70254413195292,-14.54632631618216
1.53,2.66,-9.49,0.11295588098086,-0.4256056537721571,-0.1574204933490417,-102.77787481244587,-74.70254413195292,-14.54632631618216
1.66,2.34,-9.65,-0.1855127998192916,-0.6239254052411999,-0.2397424913273145,-102.74115590851989,-74.77463787425259,-14.488567642103208
1.66,2.34,-9.65,-0.1855127998192916,-0.6239254052411999,-0.2397424913273145,-102.74115590851989,-74.77463787425259,-14.488567642103208
1.25,2.73,-9.05,0.241542498191865,-0.172410821146683,0.2761814002763323,-102.66776223181776,-74.81791076036653,-14.477016351828802
1.25,2.73,-9.05,0.241542498191865,-0.172410821146683,0.2761814002763323,-102.66776223181776,-74.81791076036653,-14.477016351828802
1.19,2.61,-9.26,0.0589874724542733,-0.1306043463055797,0.1135976952396689,-102.61275550473172,-74.87562739127625,-14.488567642103208
1.19,2.61,-9.26,0.0589874724542733,-0.1306043463055797,0.1135976952396689,-102.61275550473172,-74.87562739127625,-14.488567642103208
1.16,2.81,-9.14,0.2662654830982851,-0.0364303687637395,0.1780947853926591,-102.48453447446366,-75.00557127858174,-14.604088706058509
1.16,2.81,-9.14,0.2662654830982851,-0.0364303687637395,0.1780947853926591,-102.48453447446366,-75.00557127858174,-14.604088706058509
1.34,2.55,-9.35,0.0245983723975017,-0.2241356679273392,0.0255581323996256,-102.3747728112858,-75.13562834382228,-14.673408500442047
1.34,2.55,-9.35,0.0245983723975017,-0.2241356679273392,0.0255581323996256,-102.3747728112858,-75.13562834382228,-14.673408500442047
1.54,2.49,-9.6,-0.0368997320237917,-0.3595722189190473,-0.2233572895864934,-102.28340450662311,-75.23686238255408,-14.800508833176536
1.54,2.49,-9.6,-0.0368997320237917,-0.3595722189190473,-0.2233572895864934,-102.28340450662311,-75.23686238255408,-14.800508833176536
1.48,2.51,-9.5,0.0064296554718987,-0.2741370804879804,-0.1263912020001232,-102.22862690361036,-75.29474135486807,-14.858287755594214
1.48,2.51,-9.5,0.0064296554718987,-0.2741370804879804,-0.1263912020001232,-102.22862690361036,-75.29474135486807,-14.858287755594214
1.64,2.62,-9.51,0.1474364023636698,-0.353279195544792,-0.1857249087618431,-102.17388174945586,-75.36712180089249,-15.008530771963963
1.64,2.62,-9.51,0.1474364023636698,-0.353279195544792,-0.1857249087618431,-102.17388174945586,-75.36712180089249,-15.008530771963963
1.64,2.52,-9.3,0.134237360496078,-0.3672112994589358,0.0405281395788055,-102.1556405634774,-75.41056702241764,-14.996972698908555
1.64,2.52,-9.3,0.134237360496078,-0.3672112994589358,0.0405281395788055,-102.1556405634774,-75.41056702241764,-14.996972698908555
1.68,2.23,-9.53,-0.1502989922342613,-0.4379531313260136,-0.1131185087755497,-102.08271174423224,-75.526483262398,-14.89295693159816
1.68,2.23,-9.53,-0.1502989922342613,-0.4379531313260136,-0.1131185087755497,-102.08271174423224,-75.526483262398,-14.89295693159816
