acc_x,acc_y,acc_z,lin_x,lin_y,lin_z,eul_x,eul_y,eul_z
0.19,0.58,-9.81,-0.1035987575604434,-0.1028842316281343,-0.0212328916666582,-143.83109490597238,-35.9015751355927,-2.486832027635776
0.19,0.58,-9.81,-0.1035987575604434,-0.1028842316281343,-0.0212328916666582,-143.83109490597238,-35.9015751355927,-2.486832027635776
0.25,0.81,-9.97,0.0614192641667077,0.0594537747580736,-0.1989580736083329,-143.75733722307018,-35.9377135193296,-2.5670656278548973
0.25,0.81,-9.97,0.0614192641667077,0.0594537747580736,-0.1989580736083329,-143.75733722307018,-35.9377135193296,-2.5670656278548973
0.37,0.72,-9.95,0.1094365395067158,-0.0502672205875878,-0.1754989094460608,-143.75733722307018,-35.97385559965812,-2.6129139620146145
0.37,0.72,-9.95,0.1094365395067158,-0.0502672205875878,-0.1754989094460608,-143.75733722307018,-35.97385559965812,-2.6129139620146145
0.45,0.75,-9.99,0.1884358468517572,-0.0390730657153981,-0.2197184964775207,-143.72051272987528,-36.02205079852741,-2.681687249969397
0.45,0.75,-9.99,0.1884358468517572,-0.0390730657153981,-0.2197184964775207,-143.72051272987528,-36.02205079852741,-2.681687249969397
0.47,0.65,-10.11,0.147445000072148,-0.1096037573463058,-0.3334558667219678,-143.68372432172094,-36.08230406752302,-2.681687249969397
0.47,0.65,-10.11,0.147445000072148,-0.1096037573463058,-0.3334558667219678,-143.68372432172094,-36.08230406752302,-2.681687249969397
0.32,0.55,-9.9,0.0110385969759636,-0.0588845482757145,-0.1135975150245691,-143.61025532246643,-36.16667598822457,-2.578527672575933
0.32,0.55,-9.9,0.0110385969759636,-0.0588845482757145,-0.1135975150245691,-143.61025532246643,-36.16667598822457,-2.578527672575933
0.34,0.74,-9.93,0.1671231497232504,0.1007100229917062,-0.154776973285287,-143.57357451370328,-36.23901092380315,-2.452446574526375
0.34,0.74,-9.93,0.1671231497232504,0.1007100229917062,-0.154776973285287,-143.57357451370328,-36.23901092380315,-2.452446574526375
0.01,0.42,-9.65,-0.192830719453688,0.1079964778986972,0.1500381161974573,-143.53692935464713,-36.311360803930285,-2.1200647857418087
0.01,0.42,-9.65,-0.192830719453688,0.1079964778986972,0.1500381161974573,-143.53692935464713,-36.311360803930285,-2.1200647857418087
0.29,0.17,-10.03,-0.0990503511189242,-0.2160110393432953,-0.2261675633181444,-143.5003197378201,-36.39578793652754,-2.0283765158457068
0.29,0.17,-10.03,-0.0990503511189242,-0.2160110393432953,-0.2261675633181444,-143.5003197378201,-36.39578793652754,-2.0283765158457068
0.16,0.39,-9.72,-0.0167972331913788,0.0806866195896059,0.077862433073875,-143.46374555627918,-36.44404119171296,-1.856464464018338
0.16,0.39,-9.72,-0.0167972331913788,0.0806866195896059,0.077862433073875,-143.46374555627918,-36.44404119171296,-1.856464464018338
0.22,0.15,-9.87,-0.0714747002433545,-0.0881676634173452,-0.0662886623412486,-143.46374555627918,-36.4923011370016,-1.7189378496716434
0.22,0.15,-9.87,-0.0714747002433545,-0.0881676634173452,-0.0662886623412486,-143.46374555627918,-36.4923011370016,-1.7189378496716434
0.31,0.08,-10.13,0.0114491784375807,-0.0986642598722004,-0.3279212430342593,-143.42720670361226,-36.52850049317351,-1.5699534720315549
0.31,0.08,-10.13,0.0114491784375807,-0.0986642598722004,-0.3279212430342593,-143.42720670361226,-36.52850049317351,-1.5699534720315549
0.19,0.1,-9.82,-0.015997760058225,0.0404803293581425,-0.0156005269723298,-143.42720670361226,-36.54056778374004,-1.3980517025844337
0.19,0.1,-9.82,-0.015997760058225,0.0404803293581425,-0.0156005269723298,-143.42720670361226,-36.54056778374004,-1.3980517025844337
-0.21,0.04,-9.57,-0.3248256781460516,0.2832759014238821,0.2439703001203988,-143.3907030739344,-36.57677217345314,-1.2605325708995527
-0.21,0.04,-9.57,-0.3248256781460516,0.2832759014238821,0.2439703001203988,-143.3907030739344,-36.57677217345314,-1.2605325708995527
-0.43,-0.51,-9.4,-0.8096992254052905,0.0632543580140206,0.4180725757801653,-143.2814024718206,-36.673335709404434,-1.3407518310456548
-0.43,-0.51,-9.4,-0.8096992254052905,0.0632543580140206,0.4180725757801653,-143.2814024718206,-36.673335709404434,-1.3407518310456548
-0.13,0.44,-9.23,-0.068669227140469,0.6226550548699744,0.5865098047595385,-143.20870960086745,-36.74577605968171,-1.7189378496716434
-0.13,0.44,-9.23,-0.068669227140469,0.6226550548699744,0.5865098047595385,-143.20870960086745,-36.74577605968171,-1.7189378496716434
0.03,-0.18,-9.02,-0.3235778056582015,0.1287416892299921,0.7915280939390712,-143.09992952909138,-36.80615463747225,-2.0283765158457068
0.03,-0.18,-9.02,-0.3235778056582015,0.1287416892299921,0.7915280939390712,-143.09992952909138,-36.80615463747225,-2.0283765158457068
0.2,-0.48,-8.87,-0.4623870301156288,-0.0629386231314172,0.9336833617160992,-142.88329260111254,-36.92694357562125,-2.9453273542124467
0.2,-0.48,-8.87,-0.4623870301156288,-0.0629386231314172,0.9336833617160992,-142.88329260111254,-36.92694357562125,-2.9453273542124467
0.61,-0.24,-9.06,-0.1958997357509249,0.0496111663609178,0.7252149798225691,-142.38248796926192,-37.24119428419274,-4.435801047006329
0.61,-0.24,-9.06,-0.1958997357509249,0.0496111663609178,0.7252149798225691,-142.38248796926192,-37.24119428419274,-4.435801047006329
1.9,-0.48,-10.0,0.3647120879556961,-0.6299931280237159,-0.3575269834818364,-141.85294621850556,-37.42262477199783,-6.225383461526625
1.9,-0.48,-10.0,0.3647120879556961,-0.6299931280237159,-0.3575269834818364,-141.85294621850556,-37.42262477199783,-6.225383461526625
1.74,-0.48,-9.72,-0.1349195895228366,-0.3033510275100458,-0.0739458756783282,-140.8829393690889,-37.77366695276425,-8.855279263547427
1.74,-0.48,-9.72,-0.1349195895228366,-0.3033510275100458,-0.0739458756783282,-140.8829393690889,-37.77366695276425,-8.855279263547427
2.63,-0.62,-10.55,-0.1592178813399433,-0.5559070721495085,-1.0685243431264515,-139.76858389100772,-37.94326713356112,-11.985198208002226
2.63,-0.62,-10.55,-0.1592178813399433,-0.5559070721495085,-1.0685243431264515,-139.76858389100772,-37.94326713356112,-11.985198208002226
3.6,-0.02,-10.8,0.5523354528136121,-0.4793352217784788,-1.5540525879884657,-139.2059212883253,-37.822115366775535,-13.968904250085991
3.6,-0.02,-10.8,0.5523354528136121,-0.4793352217784788,-1.5540525879884657,-139.2059212883253,-37.822115366775535,-13.968904250085991
3.38,-0.41,-10.21,0.0266584466155062,-0.6565752542184051,-0.9360125313640086,-138.94369485234358,-37.54363247388456,-15.343782195666376
3.38,-0.41,-10.21,0.0266584466155062,-0.6565752542184051,-0.9360125313640086,-138.94369485234358,-37.54363247388456,-15.343782195666376
3.3,0.14,-9.82,0.1356756217057035,-0.1832582123859436,-0.5514390396476063,-138.9763854221543,-36.842386864351504,-16.813549410004512
3.3,0.14,-9.82,0.1356756217057035,-0.1832582123859436,-0.5514390396476063,-138.9763854221543,-36.842386864351504,-16.813549410004512
3.47,0.49,-9.71,0.2087901145723407,-0.0403877700700154,-0.5141966472516479,-139.14021367291954,-35.97385559965812,-18.35575126897081
3.47,0.49,-9.71,0.2087901145723407,-0.0403877700700154,-0.5141966472516479,-139.14021367291954,-35.97385559965812,-18.35575126897081
3.93,0.79,-10.18,0.3935227597686933,-0.0488010794267161,-1.1269751212573969,-139.3046731473042,-35.33588611084891,-19.30823806837105
3.93,0.79,-10.18,0.3935227597686933,-0.0488010794267161,-1.1269751212573969,-139.3046731473042,-35.33588611084891,-19.30823806837105
3.89,1.32,-10.22,0.579663739032749,0.1786517911519906,-1.1913031498896984,-140.17034192327273,-34.44701981345315,-19.296614397760404
3.89,1.32,-10.22,0.579663739032749,0.1786517911519906,-1.1913031498896984,-140.17034192327273,-34.44701981345315,-19.296614397760404
3.15,1.32,-9.76,0.2014803879446728,0.3609499838412546,-0.5254175937799896,-141.08884000838947,-33.811713840931375,-18.72729753587516
3.15,1.32,-9.76,0.2014803879446728,0.3609499838412546,-0.5254175937799896,-141.08884000838947,-33.811713840931375,-18.72729753587516
3.2,1.7,-9.91,0.5105380563341536,0.4416872984809938,-0.7234194785644785,-142.06390845011202,-33.23726531919248,-17.763999776816537
3.2,1.7,-9.91,0.5105380563341536,0.4416872984809938,-0.7234194785644785,-142.06390845011202,-33.23726531919248,-17.763999776816537
2.91,1.25,-9.9,0.2326702589246529,0.0776175623138485,-0.584713724970479,-143.13615512462272,-32.711441879621354,-16.51243337847321
2.91,1.25,-9.9,0.2326702589246529,0.0776175623138485,-0.584713724970479,-143.13615512462272,-32.711441879621354,-16.51243337847321
2.51,1.5,-9.92,0.3770798299996021,0.2834177681386913,-0.5245641188976808,-144.61452078820068,-32.114772865183184,-14.32686299177392
2.51,1.5,-9.92,0.3770798299996021,0.2834177681386913,-0.5245641188976808,-144.61452078820068,-32.114772865183184,-14.32686299177392
1.88,1.16,-9.62,0.0592893918239889,0.1893314554434746,-0.0617358035646731,-145.7248595525418,-31.721461697138416,-12.423127669242316
1.88,1.16,-9.62,0.0592893918239889,0.1893314554434746,-0.0617358035646731,-145.7248595525418,-31.721461697138416,-12.423127669242316
1.28,1.56,-9.34,0.1948219819408317,0.6746904701099388,0.2769890844744385,-146.71084020226166,-31.55471850803617,-10.016593913069029
1.28,1.56,-9.34,0.1948219819408317,0.6746904701099388,0.2769890844744385,-146.71084020226166,-31.55471850803617,-10.016593913069029
0.42,0.92,-8.67,-0.4981102850345714,0.5329789387714483,1.1084019238200131,-147.27558529764082,-31.459467480314125,-8.41859128124216
0.42,0.92,-8.67,-0.4981102850345714,0.5329789387714483,1.1084019238200131,-147.27558529764082,-31.459467480314125,-8.41859128124216
0.29,0.4,-8.78,-0.7115523804024408,0.1924248775821241,1.043707236496914,-147.4795905833761,-31.59044340777591,-7.338875609975954
0.29,0.4,-8.78,-0.7115523804024408,0.1924248775821241,1.043707236496914,-147.4795905833761,-31.59044340777591,-7.338875609975954
0.65,0.35,-9.05,-0.4434649196626357,0.0134256687746679,0.7374351157640664,-147.27558529764082,-31.804859125621785,-7.269980754447582
0.65,0.35,-9.05,-0.4434649196626357,0.0134256687746679,0.7374351157640664,-147.27558529764082,-31.804859125621785,-7.269980754447582
0.87,0.25,-9.22,-0.3770803908247074,-0.0902713937130092,0.5504379532536312,-146.992038514199,-32.01938920775377,-7.694875241065197
0.87,0.25,-9.22,-0.3770803908247074,-0.0902713937130092,0.5504379532536312,-146.992038514199,-32.01938920775377,-7.694875241065197
1.12,0.29,-9.51,-0.268772724688237,-0.0979331230725038,0.2308069391583629,-146.67085725236174,-32.21017938044361,-8.315183354403652
1.12,0.29,-9.51,-0.268772724688237,-0.0979331230725038,0.2308069391583629,-146.67085725236174,-32.21017938044361,-8.315183354403652
1.91,0.41,-10.1,0.1800734057818166,-0.3370291370830893,-0.4734368152602286,-146.1159090950019,-32.460730842800366,-9.430066128049686
1.91,0.41,-10.1,0.1800734057818166,-0.3370291370830893,-0.4734368152602286,-146.1159090950019,-32.460730842800366,-9.430066128049686
1.56,1.03,-9.69,0.194736670140297,0.3390103311824467,-0.0542703234107051,-145.84171829017612,-32.592035674709635,-9.91307033213892
1.56,1.03,-9.69,0.194736670140297,0.3390103311824467,-0.0542703234107051,-145.84171829017612,-32.592035674709635,-9.91307033213892
1.27,0.85,-9.64,-0.2561760467783939,0.3713582852983844,0.0567029818364002,-145.18454955392758,-33.01011755272957,-10.67243717618693
1.27,0.85,-9.64,-0.2561760467783939,0.3713582852983844,0.0567029818364002,-145.18454955392758,-33.01011755272957,-10.67243717618693
1.59,0.67,-9.6,-0.2093137607070532,0.127235644483467,0.0559064980740302,-144.690009668053,-33.2731430190265,-11.524409426521869
1.59,0.67,-9.6,-0.2093137607070532,0.127235644483467,0.0559064980740302,-144.690009668053,-33.2731430190265,-11.524409426521869
1.73,0.53,-9.3,-0.3541782027248945,0.0644792846947238,0.3391159904196872,-143.64697188895283,-33.727885940809074,-13.172643633299913
1.73,0.53,-9.3,-0.3541782027248945,0.0644792846947238,0.3391159904196872,-143.64697188895283,-33.727885940809074,-13.172643633299913
2.69,0.4,-10.11,-0.0771124180507809,-0.4117008086136644,-0.6543612378856185,-142.73954322436268,-34.05132504616154,-14.627194705880914
2.69,0.4,-10.11,-0.0771124180507809,-0.4117008086136644,-0.6543612378856185,-142.73954322436268,-34.05132504616154,-14.627194705880914
2.42,0.56,-9.48,-0.3130202894738353,-0.084142070739154,0.0119913326288152,-141.95828650840244,-34.14721243955784,-16.24615724549883
2.42,0.56,-9.48,-0.3130202894738353,-0.084142070739154,0.0119913326288152,-141.95828650840244,-34.14721243955784,-16.24615724549883
2.85,0.66,-9.5,-0.1412498301300292,-0.1905295642555738,-0.1307463879193644,-141.29579335128196,-34.20715457242007,-17.520477052231193
2.85,0.66,-9.5,-0.1412498301300292,-0.1905295642555738,-0.1307463879193644,-141.29579335128196,-34.20715457242007,-17.520477052231193
3.59,0.93,-9.68,0.2245888531192013,-0.3143444453974997,-0.5522180567281243,-140.54206620040912,-34.12323828365854,-19.23849904872923
3.59,0.93,-9.68,0.2245888531192013,-0.3143444453974997,-0.5522180567281243,-140.54206620040912,-34.12323828365854,-19.23849904872923
3.36,0.97,-9.62,-0.1301011652394315,-0.1545786875283191,-0.4273169296009254,-140.06953899210683,-33.90753998612701,-20.4134200209308
3.36,0.97,-9.62,-0.1301011652394315,-0.1545786875283191,-0.4273169296009254,-140.06953899210683,-33.90753998612701,-20.4134200209308
3.4,0.93,-9.06,-0.2406038107531354,-0.2913984952555105,0.0924492236512879,-139.40365501423122,-33.58422417640036,-22.104021805228783
3.4,0.93,-9.06,-0.2406038107531354,-0.2913984952555105,0.0924492236512879,-139.40365501423122,-33.58422417640036,-22.104021805228783
4.76,1.23,-10.04,0.3128149596892533,-0.6704928146015197,-1.3479313989841124,-138.87838831455554,-33.18943360011411,-23.5419325351228
4.76,1.23,-10.04,0.3128149596892533,-0.6704928146015197,-1.3479313989841124,-138.87838831455554,-33.18943360011411,-23.5419325351228
4.62,1.27,-9.97,-0.0377611265207936,-0.6540713369304592,-1.2354949358143212,-138.48861330559183,-32.556220911511176,-24.88972570037191
4.62,1.27,-9.97,-0.0377611265207936,-0.6540713369304592,-1.2354949358143212,-138.48861330559183,-32.556220911511176,-24.88972570037191
4.25,1.5,-9.45,-0.117595212540849,-0.4263430518329369,-0.6537229841789713,-138.61814821881748,-31.82869013670581,-25.418065988790868
4.25,1.5,-9.45,-0.117595212540849,-0.4263430518329369,-0.6537229841789713,-138.61814821881748,-31.82869013670581,-25.418065988790868
4.39,2.08,-9.46,0.1027479513670401,-0.2439825880510162,-0.8244372141666592,-138.91102916961097,-30.817102104618424,-25.89992116016652
4.39,2.08,-9.46,0.1027479513670401,-0.2439825880510162,-0.8244372141666592,-138.91102916961097,-30.817102104618424,-25.89992116016652
4.13,2.64,-9.46,0.1095187976132849,0.1181864110802028,-0.8466188694693795,-139.70199765652578,-29.523469077350697,-25.72357910404833
4.13,2.64,-9.46,0.1095187976132849,0.1181864110802028,-0.8466188694693795,-139.70199765652578,-29.523469077350697,-25.72357910404833
3.77,2.93,-9.08,0.1510192575935018,0.4129031640802383,-0.442784333704882,-140.50813431460048,-28.576466242296,-25.28886585104528
3.77,2.93,-9.08,0.1510192575935018,0.4129031640802383,-0.442784333704882,-140.50813431460048,-28.576466242296,-25.28886585104528
3.61,2.98,-9.02,0.1235321120380459,0.37864815743672,-0.347869456388139,-141.5038163967487,-27.50166431915293,-24.631622257728548
3.61,2.98,-9.02,0.1235321120380459,0.37864815743672,-0.347869456388139,-141.5038163967487,-27.50166431915293,-24.631622257728548
3.46,2.35,-9.03,-0.1685947321993559,-0.1895243740951391,-0.1417496867786969,-142.5249164652642,-26.54704645350268,-23.91663071897709
3.46,2.35,-9.03,-0.1685947321993559,-0.1895243740951391,-0.1417496867786969,-142.5249164652642,-26.54704645350268,-23.91663071897709
3.51,3.16,-9.23,0.1779025364948652,0.2911400715770209,-0.5558877271318431,-143.68372432172094,-25.18318095723705,-23.073918065630973
3.51,3.16,-9.23,0.1779025364948652,0.2911400715770209,-0.5558877271318431,-143.68372432172094,-25.18318095723705,-23.073918065630973
3.41,2.55,-9.57,-0.1287840018240198,-0.3939819574015322,-0.6596622874351663,-144.7656551188059,-24.20954412674289,-22.01062364188303
3.41,2.55,-9.57,-0.1287840018240198,-0.3939819574015322,-0.6596622874351663,-144.7656551188059,-24.20954412674289,-22.01062364188303
3.18,3.44,-9.28,0.3823648193613638,0.2197466232254128,-0.5793939324362487,-146.5113892939378,-22.606293449751373,-19.889680039418103
3.18,3.44,-9.28,0.3823648193613638,0.2197466232254128,-0.5793939324362487,-146.5113892939378,-22.606293449751373,-19.889680039418103
2.5,3.5,-9.01,0.1589724746533044,0.4363539497577313,-0.1665351974599112,-147.84997349806363,-21.62551192117329,-18.112030016161896
2.5,3.5,-9.01,0.1589724746533044,0.4363539497577313,-0.1665351974599112,-147.84997349806363,-21.62551192117329,-18.112030016161896
2.3,3.52,-9.27,0.2313506684299455,0.3196028252779393,-0.3647624339882771,-149.46197984083236,-20.623036118505983,-15.86426270309298
2.3,3.52,-9.27,0.2313506684299455,0.3196028252779393,-0.3647624339882771,-149.46197984083236,-20.623036118505983,-15.86426270309298
1.93,3.64,-9.11,0.2681565189881765,0.5337868234267817,-0.1738191126449617,-150.56941987552764,-20.18059415638896,-14.072813487232237
1.93,3.64,-9.11,0.2681565189881765,0.5337868234267817,-0.1738191126449617,-150.56941987552764,-20.18059415638896,-14.072813487232237
1.49,3.49,-9.32,0.1548760693446804,0.4926324270240079,-0.2430229645789374,-152.1444912618588,-19.6570420373131,-11.708702081111404
1.49,3.49,-9.32,0.1548760693446804,0.4926324270240079,-0.2430229645789374,-152.1444912618588,-19.6570420373131,-11.708702081111404
0.75,3.29,-9.11,-0.2869989179392135,0.6512349682027259,0.1178820371838966,-152.81901206638815,-19.81987998842397,-10.292697102933529
0.75,3.29,-9.11,-0.2869989179392135,0.6512349682027259,0.1178820371838966,-152.81901206638815,-19.81987998842397,-10.292697102933529
0.92,2.7,-9.43,-0.1046005425693111,0.1051159162164507,-0.0442032305913606,-153.61058909469406,-20.23879269230359,-8.866772764864926
0.92,2.7,-9.43,-0.1046005425693111,0.1051159162164507,-0.0442032305913606,-153.61058909469406,-20.23879269230359,-8.866772764864926
0.63,2.78,-9.28,-0.1372185773465991,0.3738983575197181,0.1069040713544939,-154.01525359440276,-20.52986483879688,-7.913105112625811
0.63,2.78,-9.28,-0.1372185773465991,0.3738983575197181,0.1069040713544939,-154.01525359440276,-20.52986483879688,-7.913105112625811
0.46,2.59,-9.39,-0.1645415444299712,0.3656689264674245,0.063395291414535,-154.27134430279995,-21.170698001897183,-6.902585349926143
0.46,2.59,-9.39,-0.1645415444299712,0.3656689264674245,0.063395291414535,-154.27134430279995,-21.170698001897183,-6.902585349926143
0.76,1.96,-9.66,-0.0300519380059923,-0.212035764615266,-0.0771214317737065,-154.52996593229264,-21.61384574972068,-6.443440527613203
0.76,1.96,-9.66,-0.0300519380059923,-0.212035764615266,-0.0771214317737065,-154.52996593229264,-21.61384574972068,-6.443440527613203
0.24,1.72,-9.42,-0.4419444317577895,-0.1129704202419156,0.2387702555953605,-154.58200075536982,-22.022297601396428,-5.869654220523909
0.24,1.72,-9.42,-0.4419444317577895,-0.1129704202419156,0.2387702555953605,-154.58200075536982,-22.022297601396428,-5.869654220523909
0.39,1.61,-9.66,-0.3076804727446123,-0.2464948803960401,0.0135721895958464,-154.68638599830706,-22.22079043012782,-5.5598717686300585
0.39,1.61,-9.66,-0.3076804727446123,-0.2464948803960401,0.0135721895958464,-154.68638599830706,-22.22079043012782,-5.5598717686300585
0.41,1.77,-9.68,-0.1732405618834508,-0.0402959757151474,-0.0407742288051853,-154.73873772257048,-22.466080778094224,-5.318958088351593
0.41,1.77,-9.68,-0.1732405618834508,-0.0402959757151474,-0.0407742288051853,-154.73873772257048,-22.466080778094224,-5.318958088351593
0.28,1.68,-9.64,-0.2802761156684677,-0.0120419957280094,0.0213702242692779,-154.73873772257048,-22.64135196781312,-5.15836210329675
0.28,1.68,-9.64,-0.2802761156684677,-0.0120419957280094,0.0213702242692779,-154.73873772257048,-22.64135196781312,-5.15836210329675
0.06,1.22,-9.63,-0.6070646916714941,-0.2821976881078637,0.122604516579738,-154.79119639620873,-22.79329707445838,-4.96336629149859
0.06,1.22,-9.63,-0.6070646916714941,-0.2821976881078637,0.122604516579738,-154.79119639620873,-22.79329707445838,-4.96336629149859
0.43,1.79,-9.68,-0.0638869173967839,0.0762479317032229,-0.0463447079401451,-154.73873772257048,-22.851748300506443,-4.997776256010228
0.43,1.79,-9.68,-0.0638869173967839,0.0762479317032229,-0.0463447079401451,-154.73873772257048,-22.851748300506443,-4.997776256010228
0.65,1.57,-9.86,0.0292835518184721,-0.2319896144574541,-0.1959658224924716,-154.63414056108863,-22.96866884885643,-5.0321866714644
0.65,1.57,-9.86,0.0292835518184721,-0.2319896144574541,-0.1959658224924716,-154.63414056108863,-22.96866884885643,-5.0321866714644
0.2,1.89,-9.54,-0.2274912052517236,0.2564425028826945,0.0852208358159405,-154.47803544959174,-23.038832805407413,-5.0321866714644
0.2,1.89,-9.54,-0.2274912052517236,0.2564425028826945,0.0852208358159405,-154.47803544959174,-23.038832805407413,-5.0321866714644
0.52,1.65,-10.09,-0.115518361888574,-0.1823742645175978,-0.4283094594071671,-154.3228637180319,-23.190884791431422,-5.15836210329675
0.52,1.65,-10.09,-0.115518361888574,-0.1823742645175978,-0.4283094594071671,-154.3228637180319,-23.190884791431422,-5.15836210329675
0.67,1.99,-9.89,0.1681277980384246,0.0663819615555988,-0.3021791349051313,-154.16860854190614,-23.272776070440536,-5.181303758795194
0.67,1.99,-9.89,0.1681277980384246,0.0663819615555988,-0.3021791349051313,-154.16860854190614,-23.272776070440536,-5.181303758795194
0.45,1.79,-9.64,-0.0588398844939359,0.0179894374454657,-0.0082577554571621,-154.11739099299157,-23.35467940290321,-5.078067932263361
0.45,1.79,-9.64,-0.0588398844939359,0.0179894374454657,-0.0082577554571621,-154.11739099299157,-23.35467940290321,-5.078067932263361
0.44,1.72,-9.76,-0.0986391903478602,-0.0515562065877729,-0.1128868978440618,-154.0662728728033,-23.448298031292182,-5.0321866714644
0.44,1.72,-9.76,-0.0986391903478602,-0.0515562065877729,-0.1128868978440618,-154.0662728728033,-23.448298031292182,-5.0321866714644
0.43,1.68,-9.68,-0.1061475787124748,-0.0799878966570531,-0.0265607995263614,-154.01525359440276,-23.5419325351228,-4.986306217889054
0.43,1.68,-9.68,-0.1061475787124748,-0.0799878966570531,-0.0265607995263614,-154.01525359440276,-23.5419325351228,-4.986306217889054
0.37,1.72,-9.72,-0.1476913327259406,-0.0264273630057531,-0.0701505378625633,-153.91350924378722,-23.58875576239612,-4.974836229757033
0.37,1.72,-9.72,-0.1476913327259406,-0.0264273630057531,-0.0701505378625633,-153.91350924378722,-23.58875576239612,-4.974836229757033
0.34,1.93,-9.73,-0.093948776952804,0.1612742337406861,-0.1169866443376186,-153.8627830260387,-23.63558298502357,-4.96336629149859
0.34,1.93,-9.73,-0.093948776952804,0.1612742337406861,-0.1169866443376186,-153.8627830260387,-23.63558298502357,-4.96336629149859
0.45,1.95,-9.89,-0.0002998281516071,0.1224661474885422,-0.2830527683090072,-153.91350924378722,-23.63558298502357,-4.9518964029981625
0.45,1.95,-9.89,-0.0002998281516071,0.1224661474885422,-0.2830527683090072,-153.91350924378722,-23.63558298502357,-4.9518964029981625
0.35,1.61,-9.67,-0.1848955188905016,-0.0984118940961109,-0.0004713282081194,-153.8627830260387,-23.71754026504909,-4.89454770282183
0.35,1.61,-9.67,-0.1848955188905016,-0.0984118940961109,-0.0004713282081194,-153.8627830260387,-23.71754026504909,-4.89454770282183
0.34,2.04,-9.5,-0.010840203606616,0.2995241335129557,0.0887609399505322,-153.8627830260387,-23.71754026504909,-4.906017344265486
0.34,2.04,-9.5,-0.010840203606616,0.2995241335129557,0.0887609399505322,-153.8627830260387,-23.71754026504909,-4.906017344265486
0.53,1.55,-9.94,-0.0853858560983268,-0.2557708164534518,-0.2638162526135837,-153.76161968319718,-23.82293200606416,-4.96336629149859
0.53,1.55,-9.94,-0.0853858560983268,-0.2557708164534518,-0.2638162526135837,-153.76161968319718,-23.82293200606416,-4.96336629149859
0.42,1.75,-9.75,-0.0840715438041074,-0.0096463618443013,-0.1076951081362676,-153.71118144535646,-23.91663071897709,-4.96336629149859
0.42,1.75,-9.75,-0.0840715438041074,-0.0096463618443013,-0.1076951081362676,-153.71118144535646,-23.91663071897709,-4.96336629149859
0.08,1.66,-9.52,-0.3958173435180699,0.0769866896312559,0.1510919280815308,-153.61058909469406,-24.01034566150753,-4.928956774809122
0.08,1.66,-9.52,-0.3958173435180699,0.0769866896312559,0.1510919280815308,-153.61058909469406,-24.01034566150753,-4.928956774809122
0.51,1.77,-9.92,-0.0402044752340939,-0.0563334450699644,-0.2826815013006563,-153.36074062083046,-24.18610517042096,-5.123950007684243
0.51,1.77,-9.92,-0.0402044752340939,-0.0563334450699644,-0.2826815013006563,-153.36074062083046,-24.18610517042096,-5.123950007684243
0.46,2.0,-9.81,2.90547287081222e-05,0.1906197208228676,-0.2138970968999149,-153.3110465719337,-24.279867169785643,-5.250129975900072
0.46,2.0,-9.81,2.90547287081222e-05,0.1906197208228676,-0.2138970968999149,-153.3110465719337,-24.279867169785643,-5.250129975900072
0.63,1.87,-9.88,0.0927475843276624,0.0048733927841912,-0.2680497044896679,-153.2614432071201,-24.33847679675364,-5.273072468222583
0.63,1.87,-9.88,0.0927475843276624,0.0048733927841912,-0.2680497044896679,-153.2614432071201,-24.33847679675364,-5.273072468222583
0.56,1.77,-9.98,-0.0120965463644927,-0.0626871452707351,-0.3443511326658779,-153.21193002249612,-24.44399042905254,-5.2271876941715805
0.56,1.77,-9.98,-0.0120965463644927,-0.0626871452707351,-0.3443511326658779,-153.21193002249612,-24.44399042905254,-5.2271876941715805
0.4,1.75,-9.74,-0.1306166561811875,0.0175100222080147,-0.0965178107689528,-153.21193002249612,-24.40881688456287,-5.192774664418371
0.4,1.75,-9.74,-0.1306166561811875,0.0175100222080147,-0.0965178107689528,-153.21193002249612,-24.40881688456287,-5.192774664418371
0.26,1.68,-9.46,-0.2451524434920776,0.0674953758361597,0.1984792764079888,-153.21193002249612,-24.479166312304468,-5.181303758795194
0.26,1.68,-9.46,-0.2451524434920776,0.0674953758361597,0.1984792764079888,-153.21193002249612,-24.479166312304468,-5.181303758795194
0.44,1.78,-9.71,-0.1117859901273901,0.0820328277743777,-0.0739812808230322,-153.01476916887475,-24.67854067669555,-5.468092286497271
0.44,1.78,-9.71,-0.1117859901273901,0.0820328277743777,-0.0739812808230322,-153.01476916887475,-24.67854067669555,-5.468092286497271
0.85,1.55,-10.09,0.0900877142288766,-0.3245726853633215,-0.4314961591276916,-152.8678214061549,-24.831054609816945,-5.6516548202737225
0.85,1.55,-10.09,0.0900877142288766,-0.3245726853633215,-0.4314961591276916,-152.8678214061549,-24.831054609816945,-5.6516548202737225
0.55,2.01,-9.5,0.0886243765407153,0.2905124287623326,0.0855210404286168,-152.81901206638815,-24.8662564695287,-5.628708719478254
0.55,2.01,-9.5,0.0886243765407153,0.2905124287623326,0.0855210404286168,-152.81901206638815,-24.8662564695287,-5.628708719478254
0.56,1.68,-9.71,-0.0490591483472974,-0.012452815573151,-0.0633823265604238,-152.8678214061549,-24.901460713527147,-5.571344453661866
0.56,1.68,-9.71,-0.0490591483472974,-0.012452815573151,-0.0633823265604238,-152.8678214061549,-24.901460713527147,-5.571344453661866
0.62,1.44,-10.01,-0.1222772555348245,-0.267498592166461,-0.3211134636659949,-152.91671705681662,-24.924931536010146,-5.548399139371833
0.62,1.44,-10.01,-0.1222772555348245,-0.267498592166461,-0.3211134636659949,-152.91671705681662,-24.924931536010146,-5.548399139371833
0.48,1.72,-9.73,-0.0819121786906524,0.0697637577870128,-0.0852721293478424,-152.965699486827,-24.88972570037191,-5.445147966752272
0.48,1.72,-9.73,-0.0819121786906524,0.0697637577870128,-0.0852721293478424,-152.965699486827,-24.88972570037191,-5.445147966752272
0.42,1.6,-9.77,-0.1817189225723613,-0.0129449302223395,-0.1007265781845951,-153.01476916887475,-24.8662564695287,-5.3992599817249625
0.42,1.6,-9.77,-0.1817189225723613,-0.0129449302223395,-0.1007265781845951,-153.01476916887475,-24.8662564695287,-5.3992599817249625
0.41,1.6,-9.72,-0.1863171888426057,-0.0085886017540125,-0.0509213104730665,-152.8678214061549,-24.995350383000986,-5.410731896463338
0.41,1.6,-9.72,-0.1863171888426057,-0.0085886017540125,-0.0509213104730665,-152.8678214061549,-24.995350383000986,-5.410731896463338
0.58,1.78,-9.81,0.010346059144549,0.054777921422797,-0.1802310115263115,-152.67309729035,-25.10099664997855,-5.513981585080581
0.58,1.78,-9.81,0.010346059144549,0.054777921422797,-0.1802310115263115,-152.67309729035,-25.10099664997855,-5.513981585080581
0.49,1.58,-9.7,-0.1392863472073475,-0.0652928525096986,-0.0321932326616938,-152.62462859250314,-25.19492264637575,-5.525454047712893
0.49,1.58,-9.7,-0.1392863472073475,-0.0652928525096986,-0.0321932326616938,-152.62462859250314,-25.19492264637575,-5.525454047712893
0.59,1.67,-9.85,-0.033321705905257,-0.0621007039510072,-0.2010736755660058,-152.52794284369597,-25.265378432632104,-5.525454047712893
0.59,1.67,-9.85,-0.033321705905257,-0.0621007039510072,-0.2010736755660058,-152.52794284369597,-25.265378432632104,-5.525454047712893
0.55,1.69,-9.63,-0.0278533310308138,-0.005505181208801,0.0140663835619783,-152.47972490837182,-25.31235434951457,-5.491036825631306
0.55,1.69,-9.63,-0.0278533310308138,-0.005505181208801,0.0140663835619783,-152.47972490837182,-25.31235434951457,-5.491036825631306
0.48,1.58,-9.63,-0.1314858475407415,-0.0605882274526286,0.0371699453302198,-152.47972490837182,-25.34758912480893,-5.479564528582773
0.48,1.58,-9.63,-0.1314858475407415,-0.0605882274526286,0.0371699453302198,-152.47972490837182,-25.34758912480893,-5.479564528582773
