TIME,ELAPSED_SECONDS,PSTATE,acc_x,acc_y,acc_z,mag_x,mag_y,mag_z,gyr_x,gyr_y,gyr_z,lin_x,lin_y,lin_z,eul_x,eul_y,eul_z,qua_w,qua_x,qua_y,qua_z
1304012.0,553.253973,1.0,0.47,-0.14,-10.46,3.69,-13.88,42.38,11.25,-5.94,-4.44,0.39643170770632763,-0.0647393322937252,-0.657132811200702,-162.6046318184389,-17.346581127291522,-0.22918327084134968,0.0098,-0.9885,-0.1508,-0.002
1304047.0,553.285255,1.0,-0.09,-0.77,-9.74,4.38,-14.56,42.38,10.81,-5.56,-2.19,-0.26348406186321693,-0.4493816414403468,0.04974309824673995,-162.45372607444324,-17.462507245696997,0.08021409786913415,0.0135,-0.9883,-0.1518,0.0007
1304082.0,553.33111,1.0,-0.1,-0.37,-9.73,4.0,-13.88,43.25,-10.06,4.19,0.63,-0.1754608457094841,-0.10914884293567592,0.07129689794413707,-162.52901727888843,-17.439320584956544,-0.011459155921715059,0.0111,-0.9884,-0.1516,-0.0001
1304117.0,553.348999,1.0,-0.16,-0.48,-9.79,4.38,-12.75,42.38,0.81,-1.0,0.44,-0.26836514094351127,-0.2002283197578538,0.009303993499399255,-162.52901727888843,-17.450913825320043,-0.022918311958021676,0.0108,-0.9884,-0.1517,-0.0002
1304154.0,553.394579,1.0,-0.24,-0.38,-9.75,4.38,-12.75,42.38,-11.31,3.31,2.94,-0.3275633818989905,-0.11572120311322255,0.052481104907554865,-162.6046318184389,-17.36976491594495,-0.06875493954099557,0.009,-0.9885,-0.151,-0.0006
1304188.0,553.413973,1.0,-0.1,0.01,-10.02,4.38,-13.5,42.0,-7.38,4.13,1.37,-0.12043579890175497,0.17530870898823234,-0.21159645708497976,-162.68057392822612,-17.31180678552449,-0.27502000568243146,0.0065,-0.9886,-0.1505,-0.0024
1304225.0,553.462344,1.0,0.4,-0.35,-10.33,4.38,-14.25,42.38,11.75,-0.81,-2.13,0.2511287366620938,-0.2695277000900071,-0.5304525522874002,-162.6046318184389,-17.346581127291522,-0.29793838914592274,0.0086,-0.9885,-0.1508,-0.0026
1304262.0,553.483353,1.0,-0.18,-0.61,-9.69,4.38,-14.25,42.38,15.94,-10.19,-3.63,-0.2992872853079748,-0.2834418493368804,0.1045529154054794,-162.52901727888843,-17.42772752447945,0.10313241704642769,0.0129,-0.9884,-0.1515,0.0009
1304295.0,553.527255,1.0,0.0,-0.3,-10.24,3.25,-13.06,43.25,-2.13,-0.25,0.69,-0.01820014532314196,-0.02154281041898838,-0.4377047704103578,-162.45372607444324,-17.42772752447945,0.1718874029970642,0.0133,-0.9883,-0.1515,0.0015
1304332.0,553.574377,1.0,-0.21,-0.29,-9.85,4.75,-13.5,42.38,23.81,-18.06,-3.94,-0.10153950429256436,0.127017819267289,-0.048513935859036295,-162.3040971793563,-17.54366623938741,0.7677691897415189,0.0185,-0.9881,-0.1525,0.0067
1304367.0,553.598333,1.0,-0.59,-1.14,-9.32,4.38,-13.06,43.25,17.0,-10.5,-0.94,-0.6347907061815661,-0.4810169852238988,0.43244265114795866,-162.15571301144445,-17.601642377536205,1.2490727279396536,0.0248,-0.9879,-0.153,0.0109
1304401.0,553.647931,1.0,0.19,-0.17,-10.51,4.38,-13.06,43.25,-20.06,2.88,-1.25,0.4170751905754227,0.18035191554226182,-0.6966171808331456,-162.15571301144445,-17.636430239406277,1.2146932735575866,0.0209,-0.9879,-0.1533,0.0106
1304438.0,553.676462,1.0,-0.34,-0.33,-10.4,5.19,-11.56,44.06,17.12,-37.0,-4.63,0.023727441220476098,0.17667624044206207,-0.6026113817982495,-161.9354035928643,-17.763999776816537,2.1086036789736795,0.0217,-0.9876,-0.1544,0.0184
1304473.0,553.734273,1.0,-1.05,-0.55,-9.33,5.19,-12.38,43.25,25.69,-43.75,-12.94,-0.43884162663761495,0.25277960390294174,0.4153018274221818,-161.14943788464134,-18.08882279446736,3.9771255068430276,0.0298,-0.9865,-0.1572,0.0347
1304508.0,553.753356,1.0,-1.33,-1.7,-8.8,5.19,-12.38,43.25,48.06,-29.0,-1.12,-0.8832456060582818,-0.6634689136189325,0.8133977406646711,-160.52975543717122,-18.239683153744327,5.250129975900072,0.0377,-0.9856,-0.1585,0.0458
1304543.0,553.77433,1.0,-0.47,-1.99,-10.19,8.5,-10.5,43.25,3.0,-5.75,-1.0,0.06584341563796528,-1.046309216416852,-0.5334661341765567,-159.99488438452414,-18.51827857520288,5.674601147870104,0.0421,-0.9848,-0.1609,0.0495
1304578.0,553.803346,1.0,-0.88,-1.24,-9.36,7.75,-10.88,43.25,-9.13,4.0,9.63,-0.18177454858608783,-0.3119554917396986,0.33082593110447256,-160.32749140960402,-18.262895263137004,5.6860743970082765,0.0396,-0.9853,-0.1587,0.0496
1304614.0,553.870846,1.0,-1.21,-1.71,-8.13,8.88,-10.5,43.69,5.13,46.06,19.19,-0.9787651587771734,-0.6913759871090929,1.497070106382461,-161.36053358743408,-17.578451378167774,4.149120969117045,0.0408,-0.9868,-0.1528,0.0362
1304647.0,553.897808,1.0,0.2,-1.53,-7.48,8.88,-10.5,43.69,-118.69,200.13,22.25,-0.28485162679281567,-1.0978319092511564,2.2538409431163657,-162.8334582675195,-16.83671699887327,-0.7219315974960596,0.0276,-0.9888,-0.1464,-0.0063
1304686.0,553.91617,1.0,1.78,-0.63,-6.81,5.19,-12.38,43.69,-246.56,298.69,57.63,0.07705719131240985,-1.249271563860906,2.8514517462479505,-160.66576217664587,-14.777398324484167,-11.985198208002227,-0.027,-0.9858,-0.1286,-0.1044
1304721.0,553.968984,1.0,5.23,3.22,-10.04,-3.5,-16.87,42.06,-257.19,278.94,91.19,1.5027882836925084,0.7004500550611411,-1.8455556750969428,-153.71118144535646,-11.800859775906506,-21.42721774773248,-0.0812,-0.9738,-0.1028,-0.1859
1304756.0,553.992031,1.0,5.08,5.62,-9.39,-3.5,-16.87,42.06,-55.44,183.25,35.94,-0.1560122761899927,2.559514785194627,-1.982643627442151,-145.22287322309495,-8.188805090876484,-30.55568318057679,-0.1213,-0.9543,-0.0714,-0.2635
1304791.0,554.031971,1.0,5.87,1.87,-8.44,-16.5,-24.75,35.0,78.19,108.56,18.5,-0.026467178354849796,-0.48565038524812576,-0.6313020592776386,-142.1344807161217,-8.68288738926451,-35.03535067049245,-0.0946,-0.9459,-0.0757,-0.301
1304827.0,554.068447,1.0,6.74,2.97,-8.9,-18.75,-25.19,34.0,-12.25,47.81,6.5,0.17246579175609833,0.45267706894376836,-1.7356131672443844,-140.6780748758918,-8.671395302011163,-36.74577605968171,-0.0904,-0.9417,-0.0756,-0.3152
1304864.0,554.096374,1.0,6.97,2.95,-8.65,-22.37,-24.37,32.06,15.25,-26.81,-5.88,0.6103637099587713,0.4351078343721478,-1.6626148985901992,-141.1577066587393,-8.855279263547427,-36.251068198312964,-0.0888,-0.9431,-0.0772,-0.3111
1304899.0,554.148359,1.0,4.75,1.6,-7.79,-22.37,-24.37,32.06,51.06,-78.31,-9.88,-0.3525915123286718,-0.22152644068714902,0.5528288832120687,-143.53692935464713,-9.430066128049688,-33.83566809114509,-0.0803,-0.9498,-0.0822,-0.291
1304934.0,554.175262,1.0,4.5,1.8,-8.71,-19.37,-24.0,32.06,38.75,-77.56,-7.44,-0.4981381009427932,0.0683507009432194,-0.14831291374657596,-146.59103083752737,-9.878564278366849,-30.745789793742468,-0.0704,-0.9578,-0.0861,-0.2651
1304971.0,554.219943,1.0,4.49,2.06,-9.83,-18.69,-22.5,36.19,45.81,-88.56,-21.75,-0.5567460600690157,0.3331512815694737,-1.1756832697649564,-148.90133503664836,-10.465291924669184,-28.257305549296962,-0.0627,-0.9634,-0.0912,-0.2441
1305004.0,554.239004,1.0,3.47,1.68,-8.77,-18.69,-22.5,36.19,82.56,-82.0,-36.0,-0.288222298090665,0.44447957393850435,0.24131854650426732,-152.1444912618588,-12.042810329741007,-24.373645675055762,-0.0472,-0.9706,-0.1049,-0.2111
1305040.0,554.285039,1.0,3.89,-1.11,-9.12,-14.88,-21.69,37.0,83.31,-33.94,-28.19,-0.29999228752978646,-2.0997177664739066,0.057814688611440346,-153.36074062083046,-13.426452603767608,-22.62966555670664,-0.0288,-0.9731,-0.1169,-0.1962
1305077.0,554.320993,1.0,4.43,-0.02,-10.76,-13.5,-19.0,37.75,-8.06,-44.5,-0.94,0.07952589666917742,-1.0673098814609667,-1.7803006449580927,-154.37448496866148,-14.003539375629764,-21.194013524886017,-0.0211,-0.9751,-0.1219,-0.1839
1305112.0,554.347645,1.0,4.13,0.16,-10.69,-13.5,-19.0,37.75,-10.56,-88.44,8.06,0.26881749475329997,-0.9935993142586297,-1.6082130108827553,-156.13951067883627,-13.714952301602874,-19.157145947707967,-0.0273,-0.9784,-0.1194,-0.1664
1305147.0,554.392915,1.0,3.32,0.13,-9.9,-10.5,-18.25,39.88,14.5,-91.25,27.75,0.49008664954088577,-0.8281386468256732,-0.5915854973127779,-159.73268910086296,-12.826644816909523,-15.332219618835126,-0.0255,-0.9844,-0.1117,-0.1334
1305182.0,554.414402,1.0,6.8,-0.21,-14.61,-8.56,-19.75,41.5,57.25,-143.56,16.06,3.950068294757206,-1.7839542290798152,-5.715935730969635,-164.19211217641143,-12.111948910357556,-9.947577287046574,-0.0141,-0.9905,-0.1055,-0.0867
1305219.0,554.464481,1.0,0.09,-1.31,-6.91,-3.69,-16.0,41.88,28.06,-264.63,97.25,-0.3860100839538838,-1.2860212429257942,2.902343693220912,-169.4938307856925,-10.327214181692755,-1.993993752612486,-0.0002,-0.9958,-0.09,-0.0174
1305253.0,554.483353,1.0,-2.18,-0.69,-6.46,-3.69,-16.0,41.88,-55.5,-126.81,93.12,-1.7823535501766896,-0.6826139501224642,3.2250579420499816,-171.73489373084854,-6.741872419794731,4.194987989089829,-0.0173,-0.9974,-0.0588,0.0366
1305288.0,554.526375,1.0,-1.28,2.66,-9.42,3.75,-14.19,42.38,-180.88,-53.63,46.69,-0.1860185037996377,1.6111501033685482,0.06909422554305955,-170.0069733247971,-5.0321866714644,5.3992599817249625,-0.0579,-0.9962,-0.0439,0.0471
1305327.0,554.569342,1.0,-3.42,3.9,-8.44,7.5,-17.87,39.5,58.5,-75.56,19.81,-1.843585605163188,2.7772353984021847,0.47776176729525943,-167.233021952493,-4.412865642375664,8.453062112264227,-0.0742,-0.9938,-0.0385,0.0737
1305362.0,554.607125,1.0,-3.61,1.23,-7.73,7.5,-17.87,39.5,65.81,-28.5,11.06,-2.176352520460181,0.5296464440947407,1.483137258918596,-167.7591504670043,-3.7592774051414257,9.775051491876123,-0.0552,-0.9943,-0.0328,0.0852
1305397.0,554.63537,1.0,-2.76,0.75,-9.15,9.0,-20.19,39.56,-9.56,1.81,4.63,-1.114067191196722,-0.10422621706450452,0.2855895974410796,-167.7591504670043,-3.8166045030746174,9.92457255015729,-0.0524,-0.9943,-0.0333,0.0865
1305432.0,554.67,1.0,-2.76,1.38,-9.21,9.75,-19.37,40.5,-33.63,4.06,5.5,-1.0943279630543823,0.33943732002632715,0.16127138560384857,-167.33650576248203,-3.896864048753203,9.717547848465047,-0.0618,-0.9939,-0.034,0.0847
1305468.0,554.717584,1.0,-2.94,2.0,-9.03,9.75,-19.25,39.19,-7.31,9.94,-22.0,-1.2756692245609864,0.9264608550160968,0.23069896035747028,-166.92746455946425,-4.642227799866185,9.464560757916416,-0.0665,-0.9935,-0.0405,0.0825
1305501.0,554.741088,1.0,-2.23,0.66,-9.69,9.75,-19.25,39.19,37.44,21.62,-18.31,-0.6875506360810338,-0.3063913221771948,-0.13004957684739082,-167.7591504670043,-5.353372863141336,8.866772764864926,-0.0559,-0.9943,-0.0467,0.0773
1305538.0,554.777906,1.0,-1.94,-0.26,-9.78,10.88,-20.06,38.88,20.75,6.63,-4.13,-0.5270408560411872,-1.05411313418309,-0.09742357789743039,-168.30883818145554,-5.823757869537402,8.579461739762628,-0.0465,-0.9948,-0.0508,0.0748
1305575.0,554.801524,1.0,-2.26,0.34,-9.41,9.0,-18.87,40.56,-24.81,12.44,-10.44,-0.910425009769741,-0.4759328105785531,0.1777396638612032,-168.08593042045837,-6.386054856968827,8.1313637329408,-0.0519,-0.9946,-0.0557,0.0709
1305610.0,554.840095,1.0,-1.74,0.86,-9.7,9.0,-18.87,40.56,-19.81,22.87,1.75,-0.41940334770950394,-0.14987296635899214,-0.07559867759786876,-168.08593042045837,-6.558216736441544,7.453706284964303,-0.0576,-0.9946,-0.0572,0.065
1305643.0,554.884373,1.0,-1.49,1.44,-10.31,9.0,-18.56,40.19,-2.5,12.25,-1.81,-0.1282875521949215,0.2993908520919065,-0.704473033322154,-168.1968599368726,-6.799268354310191,6.89110540785609,-0.0591,-0.9947,-0.0593,0.0601
1305679.0,554.911308,1.0,-1.73,0.57,-9.57,7.88,-18.87,41.0,16.56,6.88,-15.63,-0.5695575953461152,-0.34112456653811807,0.08749683855183576,-168.30883818145554,-7.224052314144023,6.776309776380446,-0.0545,-0.9948,-0.063,0.0591
1305714.0,554.950008,1.0,-1.51,0.39,-10.0,8.56,-18.87,41.06,-6.06,7.94,-5.81,-0.38491876675371317,-0.5741815249278449,-0.29059482814160553,-168.08593042045837,-7.763786880218298,6.454917855397503,-0.0541,-0.9946,-0.0677,0.0563
1305749.0,554.987991,1.0,-1.73,0.46,-9.83,8.56,-18.87,41.06,2.06,8.81,-4.81,-0.638913770947489,-0.44905085414886936,-0.15445147140775894,-168.1968599368726,-7.867159619602529,6.282764679968378,-0.0539,-0.9947,-0.0686,0.0548
