TIME,ELAPSED_SECONDS,PSTATE,acc_x,acc_y,acc_z,mag_x,mag_y,mag_z,gyr_x,gyr_y,gyr_z,lin_x,lin_y,lin_z,eul_x,eul_y,eul_z,qua_w,qua_x,qua_y,qua_z
1148213.0,397.167932,1.0,0.5,-1.17,-9.6,2.0,-12.38,43.19,4.88,1.56,-2.63,-0.18774390559962761,-0.32500508593210614,0.12997578206600835,-163.9440511277747,-14.858287755594212,-2.899475820391489,0.0455,-0.9902,-0.1293,-0.0253
1148246.0,397.196976,1.0,0.62,-1.0,-9.96,2.0,-12.38,43.19,-3.81,0.0,0.12,-0.04743087119751754,-0.16849261470065613,-0.22107958107910264,-163.9440511277747,-14.869843995469047,-2.922401528803222,0.0449,-0.9902,-0.1294,-0.0255
1148282.0,397.223864,1.0,0.3,-0.9,-9.54,1.56,-12.38,44.0,-0.69,1.75,-0.25,-0.31080900682960927,-0.035376888661821385,0.22470102095496536,-163.9440511277747,-14.869843995469047,-2.899475820391489,0.0447,-0.9902,-0.1294,-0.0253
1148317.0,397.276133,1.0,0.6,-0.96,-9.64,0.88,-12.75,44.0,0.06,8.75,-0.12,-0.08905239598307846,-0.14926721689676845,0.10196098031834744,-164.02631287450075,-14.777398324484167,-3.1975194185389713,0.0449,-0.9903,-0.1286,-0.0279
1148352.0,397.300247,1.0,0.88,-1.03,-9.86,0.88,-12.75,44.0,-7.88,9.44,1.31,0.09641751201580345,-0.278400755469355,-0.14162103987073316,-164.02631287450075,-14.742733694368157,-3.5185137037623337,0.0439,-0.9903,-0.1283,-0.0307
1148385.0,397.335288,1.0,0.68,-0.83,-9.83,2.0,-12.38,42.75,-12.75,7.44,2.06,-0.10875168127879264,-0.09935571329577533,-0.08063989734065302,-164.10899767779725,-14.673408500442049,-3.8510012195838605,0.0404,-0.9904,-0.1277,-0.0336
1148422.0,397.377407,1.0,0.72,-0.49,-9.76,1.56,-12.75,44.0,-4.44,2.19,1.37,-0.004990702440021422,0.18017945109746655,0.009527439865752996,-164.19211217641143,-14.638747929971785,-3.9771255068430276,0.0386,-0.9905,-0.1274,-0.0347
1148456.0,397.410081,1.0,0.75,-0.63,-9.77,1.56,-12.75,44.0,-1.5,1.88,0.06,-0.02688401194094525,0.03253687305722787,-0.012235812646650857,-164.19211217641143,-14.627194705880914,-4.057388916858228,0.0382,-0.9905,-0.1273,-0.0354
1148491.0,397.452945,1.0,0.55,-0.66,-9.65,0.06,-12.75,43.56,-0.81,3.0,-1.37,-0.2288305721394661,0.036675745873959865,0.12125421774520895,-164.19211217641143,-14.604088706058507,-4.103254614165427,0.0378,-0.9905,-0.1271,-0.0358
1148526.0,397.480061,1.0,0.91,-0.66,-9.99,0.88,-13.19,43.69,0.81,2.44,-2.5,0.07911390029482696,-0.02450003755217421,-0.24605812960070317,-164.10899767779725,-14.661854827129085,-4.206454848857137,0.0377,-0.9904,-0.1276,-0.0367
1148561.0,397.536008,1.0,0.86,-1.03,-9.76,0.88,-13.19,43.69,4.75,-1.06,-0.75,-0.03774398211106861,-0.35058122445096673,-0.03884481726930922,-163.9440511277747,-14.754288420181698,-4.160587661476331,0.0397,-0.9902,-0.1284,-0.0363
1148596.0,397.55579,1.0,1.14,-0.66,-10.41,0.88,-13.19,43.69,-8.94,-12.31,3.19,0.32379487288402253,-0.040799649553701654,-0.6812855580061772,-164.19211217641143,-14.684962323742262,-3.9427275023832014,0.0383,-0.9905,-0.1278,-0.0344
1148633.0,397.575379,1.0,1.06,-0.19,-11.16,0.5,-12.38,43.19,-8.69,-58.19,1.81,0.5720728650997867,0.34191593107593166,-1.38536171072891,-164.61437509688025,-14.661854827129085,-2.578527672575933,0.0329,-0.991,-0.1276,-0.0225
1148667.0,397.624056,1.0,0.85,0.4,-11.1,0.88,-13.5,42.75,28.25,-116.87,-11.63,1.0643415953546462,0.8780379737639206,-1.2472509532846132,-164.61437509688025,-14.916070477056888,0.2406424508273681,0.0326,-0.991,-0.1298,0.0021
1148702.0,397.654422,1.0,-1.31,-1.62,-8.13,0.88,-13.5,42.75,83.25,-108.12,-12.81,-0.8097384292773645,-0.4715458426216729,1.4664240921209046,-162.45372607444324,-15.551935573755918,5.410731896463338,0.0515,-0.9883,-0.1353,0.0472
1148737.0,397.701251,1.0,-1.49,-2.22,-8.66,5.0,-12.38,42.0,32.13,-64.5,-13.81,-0.6098954674112087,-0.7941986763449834,0.7987992029828117,-160.26052613773837,-16.257732621833746,8.395611151395808,0.0627,-0.9852,-0.1414,0.0732
1148772.0,397.719941,1.0,-1.3,-1.72,-9.76,8.38,-9.75,43.25,-10.13,-58.06,2.38,0.15076966505182554,-0.34553993155150603,-0.18153655531641277,-159.5382246114638,-16.38507281218067,10.005090889774307,0.0602,-0.9841,-0.1425,0.0872
1148809.0,397.760124,1.0,-2.15,-1.24,-8.95,8.38,-9.75,43.25,23.06,-54.25,-1.63,-0.31603621234154244,0.27324744123953615,0.5282850067296447,-158.1644488297919,-16.50085429879803,12.215665087929846,0.0621,-0.9819,-0.1435,0.1064
1148844.0,397.808017,1.0,-2.25,-2.29,-8.78,11.0,-9.75,42.38,15.0,-11.19,-2.81,-0.6089337763274931,-0.6319674656437053,0.4994046084560875,-157.508647592303,-16.59349169701811,12.89583508427226,0.0671,-0.9808,-0.1443,0.1123
1148878.0,397.845411,1.0,-1.87,-1.72,-9.51,13.56,-8.25,43.56,-13.0,8.25,4.0,0.03861003179625522,-0.16529562773885317,-0.03543243314874367,-157.7449126837509,-16.55875139620892,12.722868211864098,0.0652,-0.9812,-0.144,0.1108
1148913.0,397.864406,1.0,-1.96,-1.64,-9.39,13.25,-8.69,41.19,7.38,-4.56,0.69,-0.0350271473485988,-0.06732383429054592,0.07538386448171153,-157.6856148741907,-16.524012627926176,12.815113562902273,0.0657,-0.9811,-0.1437,0.1116
1148948.0,397.903355,1.0,-2.16,-1.87,-9.15,13.25,-8.69,41.19,-0.37,-0.56,-0.44,-0.3302070202802544,-0.2472293745006037,0.22986343246380514,-157.62647223808008,-16.524012627926176,12.872771138472864,0.0659,-0.981,-0.1437,0.1121
1148983.0,397.941802,1.0,-1.97,-1.85,-9.29,13.25,-8.25,43.56,-18.94,15.69,7.06,-0.18638733244548222,-0.32246007830784923,0.13872471790345564,-158.1040290229696,-16.38507281218067,12.480763390340037,0.0629,-0.9818,-0.1425,0.1087
1149020.0,397.964773,1.0,-1.78,-1.5,-9.29,13.56,-8.69,42.38,-22.0,24.75,8.25,-0.09461343761348373,-0.14673486361101162,0.23105512671802764,-159.09143242656373,-16.13041264048083,11.489857897732717,0.0566,-0.9834,-0.1403,0.1001
1149054.0,398.010118,1.0,-1.71,-2.1,-8.4,13.56,-8.69,42.38,-22.12,76.31,7.88,-0.6380431442190895,-0.8304842022359394,1.0432433030612138,-160.32749140960402,-15.864262703092981,9.76355056625781,0.054,-0.9853,-0.138,0.0851
1149087.0,398.040926,1.0,-1.44,-1.4,-7.5,12.06,-10.19,42.38,-72.44,131.75,13.25,-1.0581651914424763,-0.4721578616050944,2.1293488217639895,-163.37954086931006,-15.28597088065223,4.733977821845079,0.0386,-0.9895,-0.133,0.0413
1149124.0,398.074526,1.0,1.01,0.49,-9.77,8.75,-11.25,43.19,-148.0,208.63,11.06,0.8928967175699705,0.45131645728223946,0.023391396286255528,-164.87335484809628,-14.950741939900693,-1.3980517025844337,0.0107,-0.9913,-0.1301,-0.0122
1149161.0,398.111456,1.0,1.89,1.28,-11.32,2.75,-15.38,41.5,-65.56,137.69,15.69,0.4260833145807168,0.6492417853888479,-1.7150615965094804,-163.53886738912243,-13.96890425008599,-8.453062112264227,-0.015,-0.9897,-0.1216,-0.0737
1149196.0,398.148847,1.0,1.93,1.3,-10.35,2.75,-15.38,41.5,-15.69,60.44,-10.19,0.05073958451350924,0.6272665857155759,-0.7830318708121773,-161.64573705685663,-14.107452479907948,-11.466824127666603,-0.0201,-0.9872,-0.1228,-0.0999
1149233.0,398.191286,1.0,2.08,-0.54,-9.05,-2.06,-19.25,41.19,8.94,64.06,-4.31,-0.23905016437668447,-1.0398879641110428,0.566412554944355,-160.3946831522595,-14.419262116395174,-13.10343432167045,-0.0143,-0.9854,-0.1255,-0.1141
1149270.0,398.219212,1.0,2.46,-0.55,-8.76,-5.5,-18.87,41.56,-48.25,90.31,18.62,-0.35901463034277703,-1.2163673224510894,0.7798422014439144,-158.3467074683401,-13.611082444309167,-16.5471716366683,-0.0228,-0.9822,-0.1185,-0.1439
1149304.0,398.247124,1.0,3.66,2.21,-10.73,-5.5,-18.87,41.56,-67.44,46.69,14.88,0.3058540725057026,0.8545752434483507,-1.7080690343324,-156.814109146573,-12.745928771149693,-18.762140123042595,-0.0399,-0.9796,-0.111,-0.163
1149337.0,398.28992,1.0,3.62,2.48,-10.73,-7.69,-19.19,40.38,22.37,-0.19,-1.75,0.27738663950035125,1.1951546593644093,-1.7208112119246035,-156.64365853086989,-12.67674864442774,-19.029325032716933,-0.0372,-0.9793,-0.1104,-0.1653
1149374.0,398.331348,1.0,3.47,-0.1,-10.61,-10.69,-21.0,39.88,73.44,-62.0,-20.06,-0.022856349640707263,-0.9569359402963982,-1.315703671478449,-157.7449126837509,-13.461068017168213,-17.485694626999514,-0.0201,-0.9812,-0.1172,-0.152
1149411.0,398.364259,1.0,2.3,-0.43,-9.32,-10.69,-21.0,39.88,37.63,-93.12,-4.63,-0.17402070593921426,-0.8729718088956174,0.2387381580786947,-160.12726585571855,-14.188281840563283,-13.84191973651236,-0.0092,-0.985,-0.1235,-0.1205
1149444.0,398.399867,1.0,2.78,-0.09,-11.3,-7.69,-19.5,40.69,-2.81,-116.69,-5.31,0.47413123534241697,-0.7622750805190168,-1.7959633380929496,-161.9354035928643,-14.303764676023915,-10.879617409371034,-0.0113,-0.9876,-0.1245,-0.0948
1149480.0,398.477716,1.0,0.81,-0.12,-8.86,-5.5,-17.69,40.69,9.69,-145.44,15.5,-0.09527884748590665,-0.5175227390792294,0.9244660255623103,-164.87335484809628,-14.003539375629764,-5.296015172064578,-0.0173,-0.9913,-0.1219,-0.0462
1149517.0,398.479742,1.0,-0.14,0.02,-8.63,0.5,-18.0,41.19,-15.94,-112.19,25.56,-0.4497120670444008,-0.30048511339969164,1.1924542886535363,-166.05072408085044,-13.611082444309167,-1.8220825674649566,-0.0225,-0.9926,-0.1185,-0.0159
1149550.0,398.508856,1.0,0.52,1.16,-11.17,0.5,-18.0,41.19,11.75,-129.06,10.19,1.1706187155922056,0.34478760993462176,-1.3690232829275608,-166.72765058183754,-12.653689634339962,2.4639083675369537,-0.0279,-0.9933,-0.1102,0.0215
1149587.0,398.544415,1.0,-1.07,-1.47,-8.8,3.06,-18.0,41.19,94.37,-102.75,17.94,-0.28076766338179404,-1.4554952534914563,0.9438906618331888,-166.14541230093116,-11.881504040605066,7.051830951076286,-0.0071,-0.9927,-0.1035,0.0615
1149624.0,398.585164,1.0,-2.1,-1.17,-8.24,8.0,-16.5,41.19,-23.31,-39.56,53.63,-1.0293466326346719,-0.9743341589150865,1.3409770523451634,-166.14541230093116,-10.79904311756863,8.68288738926451,-0.006,-0.9927,-0.0941,0.0757
1149659.0,398.609082,1.0,-2.18,0.25,-8.47,8.0,-16.5,41.19,-69.25,5.13,60.69,-0.8836168346946532,-0.016342351959037896,1.1017804307889474,-167.44083871780595,-8.671395302011163,8.487533709607298,-0.0289,-0.994,-0.0756,0.074
1149693.0,398.65295,1.0,-1.02,0.51,-8.22,9.06,-15.38,41.19,-61.88,99.75,46.94,-0.11394633488109118,-0.15106578756596872,1.5100786985168249,-169.1248093860893,-7.442222882076424,6.099150260471114,-0.0443,-0.9955,-0.0649,0.0532
1149728.0,398.687013,1.0,-0.2,1.82,-9.3,8.38,-18.37,39.06,-94.87,112.31,55.25,0.16733973413989567,0.4690060136092593,0.34121653012782893,-169.8762554971796,-5.7319679651977244,1.535572847865537,-0.0718,-0.9961,-0.05,0.0134
1149765.0,398.709951,1.0,0.07,2.73,-8.74,3.19,-21.5,40.0,-61.56,91.37,59.25,-0.0130703059725381,1.1048434796669817,0.7168452687343638,-168.7678701513817,-3.9771255068430276,-1.3865917007687605,-0.0906,-0.9952,-0.0347,-0.0121
1149800.0,398.74093,1.0,-0.17,1.89,-8.11,3.19,-21.5,40.0,-29.75,133.69,49.75,-1.046126226174089,0.23613039554548643,1.546930733874163,-166.4334221875333,-2.4295230620087382,-6.409008932036036,-0.1019,-0.993,-0.0212,-0.0559
1149835.0,398.792718,1.0,3.24,2.99,-11.24,-0.5,-24.06,38.25,-115.06,159.88,57.0,0.9028241408684974,0.050983177804849816,-2.233184271544026,-161.71772704701445,-1.1230152546764245,-11.524409426521864,-0.1229,-0.9873,-0.0098,-0.1004
1149874.0,398.833329,1.0,3.5,4.22,-11.27,-6.88,-26.37,35.75,37.75,-5.88,8.38,0.565569310845867,1.028990915805007,-2.6710344426287715,-159.3455716366145,0.13750990383378794,-13.93427040697098,-0.1324,-0.9838,0.0012,-0.1213
1149908.0,398.852409,1.0,1.54,2.2,-8.7,-6.88,-26.37,35.75,35.13,-1.06,10.56,-0.6019562809649903,0.029992554334134124,0.7215881354615252,-160.59764077497124,0.28647919598176924,-13.599542044193303,-0.1204,-0.9857,0.0025,-0.1184
1149941.0,398.924243,1.0,3.01,2.93,-10.67,-8.75,-26.75,35.38,-6.06,1.19,0.75,0.23503121311608233,0.23842311671004665,-1.655540660876282,-160.12726585571855,0.32085678452705746,-14.142092768246478,-0.1202,-0.985,0.0028,-0.1231
1149976.0,398.940988,1.0,2.5,1.84,-9.67,-10.56,-25.56,36.56,32.5,-55.44,-18.31,0.23429566089269782,-0.47817896017039446,-0.33538877064849437,-161.4314273445042,0.10313241704642769,-12.953497246186647,-0.1156,-0.9869,0.0009,-0.1128
1150013.0,398.962929,1.0,1.73,1.32,-9.6,-8.75,-25.25,36.19,-0.31,-36.06,-9.44,-0.15578792524766938,-0.8125430093056744,-0.0020606176283681776,-163.30044367130742,-0.29793838914592274,-11.040782220655421,-0.1085,-0.9894,-0.0026,-0.0962
1150048.0,399.0038,1.0,3.05,3.75,-12.1,-8.75,-25.25,36.19,-2.56,-70.31,-14.0,1.19551825498023,0.9714014513563174,-3.1317469378865415,-164.78654130633294,-0.5385823103159236,-8.522006076442151,-0.1092,-0.9912,-0.0047,-0.0743
1150085.0,399.041468,1.0,0.39,1.12,-8.92,-7.25,-25.25,37.0,124.0,-171.0,-50.63,-0.21008895469206745,-0.4327979107677456,0.821025447440979,-169.24641346971597,-1.5928739664684124,-3.8853982832056504,-0.0862,-0.9956,-0.0139,-0.0339
1150121.0,399.086268,1.0,-0.69,-0.7,-9.11,-2.38,-23.37,37.88,98.31,-124.37,-23.12,-0.4920460344859964,-1.6159201128474219,0.8008245026432022,-173.3172743700655,-2.681687249969397,1.5928739664684124,-0.052,-0.9983,-0.0234,0.0139
1150156.0,399.107399,1.0,-0.91,0.18,-9.14,-2.38,-23.37,37.88,52.0,-110.62,1.75,-0.12361042882988948,-0.543925566922513,0.6366464318691474,-172.75138501198413,-2.5212177047006765,4.96336629149859,-0.0407,-0.998,-0.022,0.0433
1150189.0,399.149971,1.0,-2.45,-1.47,-7.62,2.5,-20.37,39.06,61.19,-76.31,10.19,-1.4028854495022567,-1.751267876768949,1.9840690167584674,-171.12155545031425,-2.085681528609333,8.188805090876484,-0.0227,-0.997,-0.0182,0.0714
1150226.0,399.174355,1.0,-2.04,-0.38,-9.45,7.38,-18.87,41.19,-9.0,-29.56,40.13,-0.4952087038532901,-0.7908854118624572,0.176604901199525,-170.27366439531403,-0.985499555804114,9.315090195791667,-0.0226,-0.9964,-0.0086,0.0812
1150263.0,399.230878,1.0,-1.35,0.02,-9.72,7.69,-18.5,41.25,55.44,-43.13,49.19,0.4125965055112564,-0.2763551204648971,0.005900438306634115,-169.4938307856925,0.9969591404369118,10.304202691653051,-0.0147,-0.9958,0.0087,0.0898
1150298.0,399.240926,1.0,-2.52,-0.68,-8.36,7.69,-18.5,41.25,26.94,-13.13,59.31,-0.8279344124269659,-0.8285809737691769,1.1273425288576782,-168.53606406960452,2.7275366438036484,11.09834637461124,-0.004,-0.995,0.0238,0.0967
1150334.0,399.285235,1.0,-1.96,0.16,-8.69,7.38,-16.56,41.25,-43.19,42.63,77.56,-0.37155324132468637,-0.20631979123083208,0.9070612267696561,-168.1968599368726,5.548399139371832,10.292697102933527,-0.0143,-0.9947,0.0484,0.0897
1150369.0,399.33579,1.0,-1.56,-0.65,-7.59,6.56,-18.5,42.06,-72.19,103.06,80.87,-0.3570389952687356,-1.2729998575071542,2.144000685393187,-168.30883818145554,7.602997386301145,8.039461810968866,-0.0323,-0.9948,0.0663,0.0701
1150404.0,399.351831,1.0,0.15,2.57,-8.28,6.56,-18.5,42.06,-211.81,195.25,124.12,0.0697043460817956,1.1257870141711446,1.2093513019867128,-164.87335484809628,11.224997424028942,1.9137679978932431,-0.0861,-0.9913,0.0978,0.0167
1150439.0,399.39993,1.0,1.8,7.45,-12.21,1.0,-19.56,40.69,-191.25,213.19,115.44,-0.9847309742818204,3.322310728849087,-4.186889806970365,-155.75453926974473,14.73117911928188,-5.869654220523909,-0.158,-0.9777,0.1282,-0.0512
1150476.0,399.431042,1.0,2.72,1.85,-10.89,-7.56,-26.5,36.19,149.5,29.69,19.37,0.7635175594399012,-0.8442468026188314,-1.5122407704198118,-156.13951067883627,14.950741939900693,-9.21161989509871,-0.1391,-0.9784,0.1301,-0.0803
1150513.0,399.473319,1.0,1.2,1.52,-8.61,-13.19,-26.06,36.56,35.13,18.75,39.06,-0.4934559226303983,-0.3333857769933909,1.0016596436100755,-157.21671751944734,16.072546557241566,-9.844059122531188,-0.11,-0.9803,0.1398,-0.0858
1150547.0,399.505613,1.0,2.58,2.47,-10.08,-13.19,-26.06,36.56,-16.87,42.94,0.94,0.12000396157579507,0.4622929580900262,-0.8767756804690947,-156.30638493987288,16.327188391573927,-11.00624507066077,-0.1131,-0.9787,0.142,-0.0959
1150584.0,399.539058,1.0,2.26,1.7,-9.49,-12.38,-24.19,36.0,9.19,14.06,2.13,-0.004107369159894736,-0.2769068973787128,-0.09188553308279523,-155.8091656213749,16.10726571114575,-11.92758912667584,-0.116,-0.9778,0.1401,-0.1039
1150619.0,399.578989,1.0,1.54,1.62,-8.81,-13.5,-24.19,34.56,13.75,3.13,3.31,-0.5872055497613301,-0.2804260116368693,0.7408543430084435,-155.91878451766874,16.234582036054892,-12.146519858742266,-0.1115,-0.978,0.1412,-0.1058
1150654.0,399.611888,1.0,2.87,1.74,-10.11,-13.5,-24.19,34.56,-1.81,24.25,-8.13,0.2589212655291857,-0.19611463190096878,-0.8409365260354242,-155.70003388404493,15.875832638109523,-12.94196455075679,-0.112,-0.9776,0.1381,-0.1127
1150689.0,399.647827,1.0,2.28,1.84,-9.39,-14.69,-22.69,36.19,5.63,-15.75,-3.69,-0.14203391548843425,-0.03494080622298823,-0.02873029294808127,-156.02889725740354,15.713868313956251,-12.67674864442774,-0.1106,-0.9782,0.1367,-0.1104
1150726.0,399.67535,1.0,1.89,1.45,-9.23,-14.69,-22.69,35.75,2.0,6.25,-19.75,-0.33791875479017774,-0.4437287420327721,0.2905365223950209,-156.41828103776766,15.28597088065223,-12.538402281482076,-0.1099,-0.9789,0.133,-0.1092
1150760.0,399.726051,1.0,2.36,1.61,-9.6,-14.69,-22.69,35.75,-3.13,11.81,-13.25,-0.05295338511617054,-0.3134524847414123,-0.20437609520194222,-156.5307030363511,14.719624694799501,-12.861239362009448,-0.1111,-0.9791,0.1281,-0.112
1150795.0,399.758099,1.0,2.11,1.51,-9.44,-14.69,-23.5,37.0,7.75,-5.63,-5.63,-0.22056111270273426,-0.3846544413617656,0.02660941949605089,-156.75715530060586,14.661854827129085,-12.780520582262026,-0.1091,-0.9795,0.1276,-0.1113
1150832.0,399.789925,1.0,2.21,1.52,-9.49,-14.69,-23.5,36.56,-7.69,3.63,-9.44,-0.12963141590459126,-0.40648430623077025,-0.045891103938551225,-156.814109146573,14.349961892702815,-12.780520582262026,-0.111,-0.9796,0.1249,-0.1113
1150867.0,399.855879,1.0,2.43,1.71,-9.47,-15.06,-23.5,35.75,0.19,-0.37,3.69,0.03344531250453131,-0.17192625941793646,-0.11701982382999532,-156.814109146573,14.419262116395174,-12.757459245108164,-0.111,-0.9796,0.1255,-0.1111
1150900.0,399.864855,1.0,2.36,1.68,-9.57,-15.06,-23.5,35.75,-0.88,-1.37,-8.13,-0.029933604448311613,-0.2459226363772326,-0.18912540945383682,-156.92843283344135,14.2344732300193,-12.699808169946314,-0.1112,-0.9798,0.1239,-0.1106
1150937.0,399.90076,1.0,2.07,1.79,-9.41,-14.0,-23.87,35.75,-2.5,1.12,-1.75,-0.2973798179409335,-0.1806459807798939,0.012976926351404572,-156.98580474112185,14.118999098561428,-12.688278342697656,-0.1119,-0.9799,0.1229,-0.1105
