TIME,ELAPSED_SECONDS,PSTATE,acc_x,acc_y,acc_z,mag_x,mag_y,mag_z,gyr_x,gyr_y,gyr_z,lin_x,lin_y,lin_z,eul_x,eul_y,eul_z,qua_w,qua_x,qua_y,qua_z
2075834.0,549.905322,1.0,-1.98,-0.44,-9.67,27.19,-7.25,38.0,0.0,-2.56,0.81,0.04713961808532252,0.16073784918071224,-0.07236013261184482,-115.79527299684045,-62.95987835378689,10.937173775974522,-0.0256,-0.8471,-0.5222,0.0953
2075871.0,549.951862,1.0,-1.91,-0.49,-9.54,27.19,-8.38,38.5,-0.19,-0.06,0.81,0.019925907631143436,0.08408279967344454,0.06538041944715367,-115.85999031103984,-62.8792753053861,10.994732910342313,-0.0259,-0.8474,-0.5216,0.0958
2075906.0,549.984396,1.0,-1.88,-0.43,-9.57,27.19,-8.38,38.5,0.44,0.0,-1.06,0.08879568506900637,0.08168593170149274,0.04500860447254418,-115.85999031103984,-62.8792753053861,10.98322086133136,-0.0259,-0.8474,-0.5216,0.0957
2075938.0,550.071274,1.0,-1.77,-0.78,-9.85,27.19,-8.0,38.88,1.31,-0.25,-0.69,-0.12902306639755334,-0.20632567410228642,-0.22851730127323755,-115.8168389585576,-62.9195724935272,10.994732910342313,-0.0254,-0.8472,-0.5219,0.0958
2075973.0,550.076261,1.0,-1.93,-0.56,-9.49,28.0,-7.69,38.88,0.69,-0.19,0.12,-0.04927897179292784,0.07942619933988765,0.10665705867280195,-115.8168389585576,-62.9195724935272,11.029269725697887,-0.0256,-0.8472,-0.5219,0.0961
2076010.0,550.079253,1.0,-1.76,-0.64,-9.74,28.0,-7.25,39.25,-1.19,1.37,0.25,-0.009887186826860184,-0.12724360118620104,-0.11093596178998233,-115.8168389585576,-62.933006816189014,10.994732910342313,-0.0249,-0.8472,-0.522,0.0958
2076045.0,550.140671,1.0,-1.85,-0.55,-9.69,28.0,-7.25,39.25,-0.25,1.0,-0.56,0.017970318199989954,0.0013000802848393833,-0.0736726352915742,-115.8168389585576,-62.933006816189014,10.960197096754332,-0.025,-0.8472,-0.522,0.0955
2076080.0,550.144974,1.0,-1.87,-0.75,-9.63,27.56,-8.0,38.75,-0.56,-0.75,0.69,-0.17389880819646486,-0.0585320083880915,-0.030149947569428903,-115.83841139442427,-62.9195724935272,10.960197096754332,-0.0247,-0.8473,-0.5219,0.0955
2076114.0,550.19186,1.0,-2.03,-0.55,-9.4,27.56,-7.25,37.19,-2.13,-0.06,0.88,-0.10046240568511755,0.19638238203079605,0.1767620845010942,-115.8168389585576,-62.9195724935272,10.971708923508501,-0.0252,-0.8472,-0.5219,0.0956
2076149.0,550.219708,1.0,-1.81,-0.75,-9.98,27.56,-7.25,37.19,-0.37,-2.69,2.5,-0.10061471910733677,-0.18107646020576879,-0.36173669572800726,-115.90316761296934,-62.838986778788296,11.01775734240615,-0.0255,-0.8476,-0.5213,0.096
2076184.0,550.263313,1.0,-1.88,-0.35,-9.91,28.0,-7.69,38.75,-0.31,3.06,0.25,0.21086475943504612,0.0744162523977383,-0.2836918314052941,-115.92476601153636,-62.81213256780961,10.994732910342313,-0.0255,-0.8477,-0.5211,0.0958
2076221.0,550.29427,1.0,-1.77,-0.39,-10.08,28.0,-8.38,39.25,0.0,-3.63,-0.12,0.24705903258612505,-0.0678158181344814,-0.4317953336055087,-115.94637091735842,-62.78528219858726,11.00624507066077,-0.0256,-0.8478,-0.5209,0.0959
2076256.0,550.324189,1.0,-1.98,-0.38,-9.54,28.0,-8.38,39.25,3.31,-4.31,-1.06,0.1093791934369377,0.18469952850990148,0.05830027934413451,-115.92476601153636,-62.78528219858726,11.144399719947117,-0.0257,-0.8477,-0.5209,0.0971
2076291.0,550.372719,1.0,-1.99,-0.48,-9.29,26.5,-7.25,39.69,3.88,-6.25,-3.13,0.015726355311429296,0.16914058052988099,0.29530182291350293,-115.8168389585576,-62.85241532591269,11.363177901039602,-0.0255,-0.8472,-0.5214,0.099
2076325.0,550.392932,1.0,-2.19,-0.69,-8.27,28.37,-7.69,38.75,4.19,-9.0,-3.63,-0.3606636559773635,0.37326584819088027,1.2395212899926946,-115.68754007027454,-62.9195724935272,11.685663847129462,-0.0256,-0.8466,-0.5219,0.1018
2076362.0,550.448826,1.0,-2.24,-1.0,-7.56,28.37,-7.25,39.69,-17.19,0.63,-10.06,-0.7802827923784459,0.3621952622823333,1.9053100278245019,-115.3224465772307,-63.25572065292905,11.639588800101585,-0.028,-0.8449,-0.5244,0.1014
2076395.0,550.469,1.0,-1.94,-0.7,-6.38,28.37,-7.25,39.69,-32.81,20.56,-13.31,-0.6965855517211389,0.4365087190568979,3.1521606351185225,-114.87396927454428,-63.92984840946278,10.453784866884499,-0.0336,-0.8428,-0.5294,0.0911
2076434.0,550.515874,1.0,-2.13,1.03,-2.07,28.0,-7.25,38.75,-49.19,117.25,-38.19,0.21586001844011848,2.0821280736726333,7.461261516770981,-114.30136176070127,-64.9864667273305,7.763786880218298,-0.0327,-0.8401,-0.5372,0.0677
2076469.0,550.552667,1.0,0.0,-0.52,-1.34,27.56,-8.38,39.25,-68.81,249.31,-64.56,-0.5108401871881312,-0.2055960719172503,8.478955547813882,-112.38260211278737,-67.60060461724802,-0.893823223927814,-0.0086,-0.8309,-0.5563,-0.0078
2076504.0,550.582954,1.0,2.92,-1.18,-3.25,27.56,-8.38,39.25,-136.44,389.0,-87.37,-0.6083434070625535,-2.6645727989558807,6.199536181703168,-109.09565995624818,-69.66789572403633,-11.351662230904266,0.0162,-0.8146,-0.5712,-0.0989
2076538.0,550.624882,1.0,8.38,-0.16,-6.38,20.37,-9.88,42.69,-178.19,471.5,-85.06,-0.5826322901087835,-4.885070417819662,0.4926268828145002,-101.21199312357183,-70.67617134909206,-29.59457663056109,0.0547,-0.7728,-0.5784,-0.2554
2076575.0,550.656773,1.0,14.05,0.14,-9.7,6.88,-14.0,45.56,-184.75,452.44,-24.31,-3.0007056232823457,-5.3778426881378,-6.117754974253968,-94.175947342697,-68.63800520067795,-43.69037629572606,0.0854,-0.7324,-0.5638,-0.3721
2076612.0,550.69866,1.0,15.65,2.77,-10.41,-10.69,-19.69,41.75,-267.25,283.44,35.19,-4.396782617323977,-1.620263405574891,-8.60548048814701,-87.35524570014306,-61.72773131964304,-60.10588340609847,0.0951,-0.6906,-0.513,-0.5008
2076647.0,550.721995,1.0,17.2,6.02,-8.94,-10.69,-19.69,41.75,-192.94,113.75,81.81,-2.864002769611343,0.04858132061195408,-10.288103742978445,-86.1570415333954,-53.89835748467391,-69.04085162488089,0.0833,-0.683,-0.4532,-0.5667
2076684.0,550.772965,1.0,16.59,11.19,-8.47,-22.37,-27.87,32.56,-173.81,-38.69,109.12,0.5739746836169566,4.009324229616563,-11.542377431814698,-88.66161388971881,-48.20872972254528,-71.39418485009088,0.0668,-0.6988,-0.4084,-0.5835
2076721.0,550.790947,1.0,17.02,12.4,-11.21,-26.75,-30.5,27.56,-31.75,-189.31,63.19,-0.06544475857033127,5.906490423321039,-13.306410979947954,-94.6144322101244,-43.752111292571854,-68.74903841235427,0.045,-0.735,-0.3726,-0.5646
2076758.0,550.82997,1.0,16.93,10.4,-11.33,-26.75,-30.5,27.56,111.56,-460.19,64.75,2.1728841120356943,2.694664006125814,-12.802444641974342,-104.25895173526338,-43.752111292571854,-58.28718053424962,0.0305,-0.7894,-0.3726,-0.487
2076792.0,550.867415,1.0,16.11,8.65,-8.82,-27.56,-31.25,27.56,221.81,-726.31,106.75,10.449249560997899,-2.2334565214732427,-7.455211301107537,-123.57491843142249,-44.34545075118365,-33.01011755272957,0.0166,-0.8812,-0.3774,-0.2841
2076827.0,550.901984,1.0,12.5,7.44,-1.19,-16.19,-27.06,36.75,197.0,-834.31,111.0,14.252572292726713,-2.746125329497204,8.276068830870864,-138.4239905330992,-41.51335250906026,-1.0542572154525014,-0.0154,-0.9349,-0.3544,-0.0092
2076864.0,550.941842,1.0,-3.54,1.88,4.28,9.56,-19.56,43.5,67.31,-416.94,-1.31,-2.29252091644424,4.327926151545654,13.031212462479656,-136.9320256088512,-39.98534936807033,14.73117911928188,-0.0377,-0.9302,-0.3419,0.1282
2076899.0,550.972126,1.0,-3.4,-1.13,-0.03,9.56,-19.56,43.5,26.31,-183.63,-38.81,-3.037319823112286,1.2332008413419102,8.360377557808432,-132.29797094336487,-40.66895994437227,23.12070182440919,-0.0512,-0.9146,-0.3475,0.2004
2076936.0,551.025909,1.0,-5.52,-0.11,-0.28,27.0,-15.06,36.25,-6.5,-39.38,-39.75,-3.575881649611412,3.2594077461442232,7.132658307352585,-130.24247093533856,-41.53786260419432,25.30060996520192,-0.0571,-0.9072,-0.3546,0.219
2076973.0,551.037876,1.0,-3.31,-2.0,-6.29,32.19,-13.56,33.5,3.69,3.44,-30.5,-1.2452127335378045,-0.9378503694826231,2.5893040935953024,-129.0838339340417,-43.03679967235915,25.159698385030055,-0.0527,-0.9029,-0.3668,0.2178
2077007.0,551.090735,1.0,-4.46,-1.33,-5.85,32.19,-13.56,33.5,-7.06,-15.31,-10.25,-1.62587254831179,0.38253042093238815,2.5201413069627474,-128.47409395200594,-43.45590465390316,25.53554917014508,-0.0541,-0.9006,-0.3702,0.221
2077040.0,551.110563,1.0,-4.74,-1.11,-6.78,32.56,-12.06,34.25,-8.31,9.69,-7.56,-1.3279530419410963,0.4801398046525949,1.580222677863885,-128.2110774660985,-43.801508905676954,25.44156044788708,-0.0555,-0.8996,-0.373,0.2202
2077075.0,551.146351,1.0,-4.19,-1.66,-8.28,33.25,-12.88,32.19,-9.88,24.81,-5.69,-0.9301897440874967,-0.5998982969306967,0.44476081707681736,-128.31613447366576,-44.11043851170447,24.76065802803315,-0.0549,-0.9,-0.3755,0.2144
2077112.0,551.206625,1.0,-4.61,-1.16,-8.44,33.0,-12.5,33.5,-14.31,7.13,7.25,-0.9056064903254153,-0.02557890276280589,0.16245368281452421,-128.60607229870925,-44.11043851170447,24.150948661500916,-0.058,-0.9011,-0.3755,0.2092
2077147.0,551.224376,1.0,-4.3,-0.87,-9.23,33.0,-12.5,33.5,-11.5,14.94,9.06,-0.37790856604490397,-0.23483771555268484,-0.40323914548360307,-129.05718198573572,-43.92504042696693,23.471705166170008,-0.0605,-0.9028,-0.374,0.2034
2077184.0,551.261935,1.0,-4.29,-0.25,-9.17,31.75,-12.88,33.0,-8.06,21.5,5.44,-0.06810933910024364,0.23855370974839973,-0.3172797333344146,-129.45833846115224,-43.8262109221212,22.851748300506443,-0.0614,-0.9043,-0.3732,0.1981
2077220.0,551.289854,1.0,-4.17,-0.16,-9.1,32.19,-13.25,34.19,-8.75,22.06,0.12,-0.09593767542607834,0.30960596821964637,-0.19932022316559816,-129.83545382657297,-43.90032983148112,21.92891239364033,-0.0612,-0.9057,-0.3738,0.1902
2077255.0,551.339819,1.0,-4.05,0.01,-9.22,32.19,-13.25,34.19,-9.81,1.25,0.88,0.07842747794322302,0.32378746614168796,-0.25814064896399636,-129.94368889359723,-43.937396530489515,21.613845749720685,-0.0623,-0.9061,-0.3741,0.1875
2077288.0,551.366413,1.0,-3.68,-0.44,-9.63,31.5,-12.88,34.69,0.44,5.75,-2.5,0.09403773164380502,-0.3275048086648007,-0.5062932028557565,-129.94368889359723,-44.03626472561431,21.42721774773248,-0.0623,-0.9061,-0.3749,0.1859
2077325.0,551.408325,1.0,-4.06,-0.33,-8.81,30.69,-13.69,34.25,-2.81,9.19,-3.38,-0.3316373165596018,0.22812749894631335,0.10888868439268506,-129.94368889359723,-44.122802699784934,21.275624852029367,-0.0618,-0.9061,-0.3756,0.1846
2077362.0,551.432703,1.0,-3.04,-0.86,-10.55,31.06,-13.69,33.5,-3.88,12.25,-4.19,0.3864121802035658,-1.2135365239147113,-1.132349713507418,-129.97078188553854,-44.33307679780215,20.844373279203694,-0.0615,-0.9062,-0.3773,0.1809
2077394.0,551.486092,1.0,-4.09,-0.18,-8.61,31.06,-13.69,33.5,-2.0,-7.31,-1.06,-0.3444660194601903,0.39223972536087814,0.2871914461070304,-129.83545382657297,-44.33307679780215,21.05413366331596,-0.0637,-0.9057,-0.3773,0.1827
2077433.0,551.512758,1.0,-3.96,-0.45,-8.63,31.5,-14.38,34.69,-1.5,6.25,-3.75,-0.44919794091415044,0.13218321716542797,0.3123491406961243,-129.7274367362795,-44.48160022735979,20.97255174185992,-0.063,-0.9053,-0.3785,0.182
