TIME,ELAPSED_SECONDS,PSTATE,acc_x,acc_y,acc_z,mag_x,mag_y,mag_z,gyr_x,gyr_y,gyr_z,lin_x,lin_y,lin_z,eul_x,eul_y,eul_z,qua_w,qua_x,qua_y,qua_z
1260527.0,505.119604,1.0,2.15,1.94,-9.21,12.88,-14.56,46.5,0.56,-8.63,0.69,0.18408205115939158,0.08840727600984602,0.154266980662781,-105.17837759673446,-72.2714443625658,-16.81354941000451,-0.005,-0.7943,-0.5897,-0.1462
1260562.0,505.161,1.0,2.04,2.13,-9.19,12.88,-14.56,46.5,3.94,0.94,-2.56,0.35551309446462276,0.22734183487118842,0.16421637929088284,-105.17837759673446,-72.31401640199768,-16.66297690980209,-0.0052,-0.7943,-0.59,-0.1449
1260597.0,505.191574,1.0,2.29,1.44,-9.51,13.25,-14.56,45.56,0.0,-2.06,-2.5,-0.29022567401462573,-0.1705118244900149,-0.07487289760296889,-105.08411822562071,-72.42759839996174,-16.59349169701811,-0.005,-0.7938,-0.5908,-0.1443
1260634.0,505.231393,1.0,2.15,1.79,-9.32,13.19,-14.25,45.25,0.5,0.75,0.31,0.039219047575622445,0.033437547690343926,0.07595918193822904,-105.08411822562071,-72.42759839996174,-16.616652750638245,-0.0053,-0.7938,-0.5908,-0.1445
1260666.0,505.2603,1.0,2.21,1.77,-9.35,13.19,-14.25,45.25,-3.63,-0.81,-1.19,0.022186545531223567,-0.026451592560757013,0.0373968007811154,-105.06527849471128,-72.42759839996174,-16.63981448789728,-0.0056,-0.7937,-0.5908,-0.1447
1260701.0,505.309564,1.0,2.26,1.85,-9.6,13.25,-15.0,44.38,0.12,-1.81,-0.44,0.0322261639964192,-0.0208528575272175,-0.22772225902483,-105.02761115129579,-72.47021290272461,-16.686140017359815,-0.0066,-0.7935,-0.5911,-0.1451
1260736.0,505.340578,1.0,2.02,1.76,-9.2,13.25,-15.0,45.19,0.0,-2.0,-0.44,-0.015327076172298115,0.09907335169430168,0.22500350517876377,-105.04644280430534,-72.45600677848147,-16.616652750638245,-0.0071,-0.7936,-0.591,-0.1445
1260773.0,505.364544,1.0,2.31,1.8,-9.49,13.25,-14.19,46.06,1.25,1.0,-1.0,0.0313797666468798,-0.11112411080927485,-0.12425462859462222,-105.00878353257924,-72.48442031771654,-16.616652750638245,-0.0068,-0.7934,-0.5912,-0.1445
1260806.0,505.402538,1.0,2.35,1.81,-9.64,13.25,-14.19,46.06,-4.5,-2.81,0.37,0.0063020026943367835,-0.13449504283431518,-0.2784911179127807,-105.02761115129579,-72.48442031771654,-16.616652750638245,-0.0076,-0.7935,-0.5912,-0.1445
1260843.0,505.43273,1.0,2.28,1.85,-9.53,13.69,-15.0,46.88,-0.12,-6.5,0.63,0.04811948232957586,-0.1093485748257,-0.16468528694146123,-105.08411822562071,-72.45600677848147,-16.51243337847321,-0.0092,-0.7938,-0.591,-0.1436
1260877.0,505.480748,1.0,2.33,1.44,-9.66,13.56,-14.56,45.56,-0.44,-11.88,3.75,-0.3314338052770416,-0.30268517228914615,-0.22413428235777566,-105.23498190512574,-72.37079710684985,-16.269308165184984,-0.0104,-0.7946,-0.5904,-0.1415
1260910.0,505.498998,1.0,2.91,0.98,-11.86,13.56,-14.56,45.56,-5.5,-44.69,13.5,-1.080584731344335,-0.8658329971103615,-2.3658916351516517,-105.76506603938064,-72.00208892273058,-15.540370148995088,-0.0165,-0.7974,-0.5878,-0.1352
1260947.0,505.547216,1.0,2.82,2.11,-14.1,14.38,-15.25,45.56,-15.94,-123.06,33.69,-0.4142030543781452,-0.7681836132517295,-4.70034244385532,-107.06613098760812,-71.12631395587047,-13.576461659580188,-0.032,-0.8042,-0.5816,-0.1182
1260984.0,505.573692,1.0,1.93,5.46,-13.73,16.69,-15.69,43.56,28.0,-280.06,57.56,3.2905848967895452,-0.6192090271902497,-4.71361278059962,-110.3098558920654,-68.65188033330544,-6.546738821065048,-0.0724,-0.8207,-0.5639,-0.0571
1261019.0,505.616571,1.0,-2.92,10.06,-8.91,16.69,-15.69,43.56,87.62,-345.0,7.63,7.301256241481378,4.648223021101528,-0.8799668660774476,-111.84900177480623,-66.7203056449738,2.2117544130994498,-0.1058,-0.8283,-0.5499,0.0193
1261053.0,505.658031,1.0,-5.13,3.29,-1.05,24.19,-16.5,39.75,198.63,-211.81,-89.37,1.3277392692903636,5.383614314533858,7.068529231091069,-109.6507287204531,-66.98117667091635,14.93918463283386,-0.1021,-0.8174,-0.5518,0.13
1261090.0,505.691576,1.0,-6.06,2.43,1.76,33.5,-13.06,34.88,70.94,-43.5,-155.63,0.39725814314466223,6.736974965269609,9.380675487809633,-104.40841146453569,-71.18267056189946,20.087487431641748,-0.0807,-0.7902,-0.582,0.1744
1261125.0,505.728229,1.0,-1.35,-8.15,3.42,37.25,-4.88,32.75,22.44,225.38,-172.56,-8.729984073262951,0.2973423119784284,11.714624221545602,-100.43876117788851,-76.69070095907627,17.26544349477142,-0.0447,-0.7685,-0.6204,0.1501
1261160.0,505.759083,1.0,3.99,-5.41,1.66,37.25,-4.88,32.75,-166.38,457.31,-109.06,-4.875485802333463,-4.718868351481324,11.187128059453595,-98.01579456165285,-81.89997406921937,2.0054546535892377,0.0193,-0.7548,-0.6554,0.0175
1261197.0,505.80701,1.0,15.13,-7.93,-12.41,32.38,-0.37,39.38,-189.81,670.69,-77.87,-7.451141706927425,-11.243302241148596,-6.437688767012636,-94.2938229499655,-82.59974558341173,-15.644464720667997,0.0921,-0.7331,-0.66,-0.1361
1261234.0,505.826168,1.0,17.87,3.17,-34.32,13.56,-3.75,48.5,-323.88,-129.63,157.0,-4.784983072403998,0.10307749308279313,-28.720502918782195,-95.78703781823206,-75.71504118189102,-29.938428078623787,0.079,-0.7419,-0.6137,-0.2583
1261271.0,505.87031,1.0,8.36,11.0,-8.12,13.56,-3.75,48.5,-14.56,-490.31,195.06,10.436654838855084,-2.346460135320766,-2.1262608187379524,-108.6425203865957,-68.29149832235983,-18.193261198253683,-0.0145,-0.8123,-0.5613,-0.1581
1261305.0,505.896069,1.0,1.57,16.73,-11.08,0.75,-15.0,47.19,108.31,-280.75,19.37,13.58527004778012,5.306915106622143,-4.064229199964009,-113.14842081555734,-65.74890233219018,-8.889760035755181,-0.0524,-0.8346,-0.5428,-0.0775
1261340.0,505.947086,1.0,3.22,7.24,-10.21,15.38,-16.87,42.69,206.94,-303.81,-85.62,8.086670246643205,-1.5516521490728548,-0.154687256128474,-111.7059670825154,-67.79377236455424,4.860139072417077,-0.0481,-0.8276,-0.5577,0.0424
1261377.0,505.971637,1.0,-0.57,-4.29,0.98,26.25,-12.0,41.25,249.31,-293.94,-84.5,-4.354196035564981,-0.759086874570333,10.199287238077643,-108.07470230594727,-69.17998997689496,16.466118077182383,-0.0455,-0.8094,-0.5677,0.1432
1261412.0,506.006056,1.0,-3.71,-10.1,6.14,26.25,-12.0,41.25,92.44,-197.56,39.88,-12.113317384006987,1.3328247993026485,12.03483760625714,-106.4131295533326,-67.13238693393745,25.99399574998519,-0.0486,-0.8008,-0.5529,0.2249
1261447.0,506.052597,1.0,-5.45,-2.68,9.87,35.56,-1.5,33.75,-104.12,73.75,59.75,-6.7712506301141495,6.976703941622094,16.113595934058214,-107.86033561317936,-66.06299509195857,24.338476796753636,-0.0707,-0.8083,-0.5451,0.2108
1261484.0,506.07851,1.0,1.02,-0.82,9.11,39.38,-3.38,32.56,-134.44,486.81,18.25,-1.4489117959229747,0.39151370615302594,18.886973321640568,-112.23857664220154,-66.29551072464068,11.455307417011953,-0.0424,-0.8302,-0.5468,0.0998
1261520.0,506.119996,1.0,8.6,3.93,4.59,39.38,-3.38,32.56,-258.31,728.19,-17.5,7.3882030368568685,-6.719334759458054,13.083538200185927,-112.42380191368638,-67.00865961711182,-7.763786880218298,0.0032,-0.8311,-0.552,-0.0677
1261553.0,506.161298,1.0,22.16,9.69,-7.56,28.87,-7.56,40.19,-327.25,881.06,-60.13,8.767475944060687,-9.122156283533243,-12.148598354530455,-99.67174578184968,-64.34905178938227,-41.83213929656367,0.0709,-0.7642,-0.5325,-0.357
1261590.0,506.191225,1.0,26.79,12.1,-21.27,1.88,-18.06,44.69,-163.31,243.31,-14.69,-3.5629442506590667,3.5885460996244545,-26.123208963786176,-88.4215640397331,-59.682687797892946,-60.86195284242213,0.0983,-0.6973,-0.4976,-0.5065
1261627.0,506.245049,1.0,17.22,16.28,-15.62,-20.56,-27.19,36.88,-14.63,-203.0,1.06,3.1188964005349895,5.949848004562398,-17.769118238896525,-93.17087251757091,-57.78921694693311,-58.12979906907963,0.0538,-0.7264,-0.4832,-0.4858
1261662.0,506.270981,1.0,9.28,19.18,-9.78,-20.56,-27.19,36.88,132.31,-397.63,-0.81,12.021648997141572,6.369424388982631,-9.286531723918044,-101.91883135691955,-60.79551422894158,-43.92504042696693,0.0287,-0.7767,-0.506,-0.374
1261697.0,506.307882,1.0,3.92,6.41,-1.77,-15.06,-28.56,38.5,486.94,-310.31,-145.25,6.222304949301272,-0.4126360098785149,5.256918948470422,-104.1470212508077,-68.30534493133662,-28.41094741939909,0.0494,-0.7888,-0.5614,-0.2454
1261735.0,506.347172,1.0,2.44,-9.69,5.18,0.0,-19.5,46.19,446.56,-199.13,-165.69,-9.191043617637831,-5.317279520978751,13.53939104572751,-97.85869361521178,-79.58363899911447,-10.764512919793646,0.1149,-0.7539,-0.64,-0.0938
1261770.0,506.363129,1.0,-0.14,-15.9,4.94,0.0,-19.5,46.19,180.63,-104.81,-45.06,-16.42097243413651,-2.2224275822658486,11.433204628321148,-94.26013087807388,-83.19598327143912,-1.7303983035632713,0.1478,-0.7329,-0.6639,-0.0151
1261805.0,506.411989,1.0,5.55,-14.79,-3.74,10.75,0.37,50.0,-65.94,113.0,10.69,-13.34849401198078,-5.349347772842407,2.274294059306592,-93.77278810820258,-83.45674446527083,-3.9771255068430276,0.1509,-0.73,-0.6656,-0.0347
1261840.0,506.440914,1.0,12.85,-21.23,-10.25,14.19,6.56,47.0,-131.31,37.56,180.5,-17.369381323032645,-13.020131481886486,-5.994573644055945,-100.13478976112897,-77.21765539082577,-7.924591684679524,0.1334,-0.7668,-0.624,-0.0691
1261877.0,506.493771,1.0,8.03,-0.41,-6.28,10.88,1.37,49.06,-405.5,-74.56,328.19,1.8827298819710334,-6.113929179599726,1.8591599447452953,-111.0756633938936,-67.2562029587362,-11.743260322870698,0.0553,-0.8245,-0.5538,-0.1023
1261912.0,506.522519,1.0,7.15,12.86,-9.49,10.88,1.37,49.06,-340.81,-104.31,296.31,11.339773567002064,1.9898970049804703,-3.384712528514294,-123.14014055583445,-53.962642188164594,-15.470980940849387,-0.0516,-0.8794,-0.4537,-0.1346
1261948.0,506.549477,1.0,2.42,17.65,-8.78,12.38,-15.75,43.5,-89.87,-94.44,128.63,11.190275177354046,9.050945294002961,-3.880038085145342,-127.89708982203929,-48.03303658033746,-15.28597088065223,-0.0973,-0.8984,-0.407,-0.133
1261985.0,506.607974,1.0,0.63,9.76,-7.99,11.19,-26.25,39.88,26.12,-44.38,-13.88,4.829632206581918,5.231630001166145,-0.6240403069760969,-129.80842917390055,-46.46958798664574,-13.161108413553293,-0.1057,-0.9056,-0.3945,-0.1146
1262020.0,506.616063,1.0,1.29,1.9,-8.94,11.19,-26.25,39.88,59.25,-13.25,-28.19,-0.1505146970461304,-0.4875182778743717,0.5905026891812586,-129.56581673326838,-47.48163594860579,-11.835420883076138,-0.0937,-0.9047,-0.4026,-0.1031
1262055.0,506.649304,1.0,0.16,2.68,-8.93,13.0,-27.5,37.75,24.56,-23.19,-29.87,-0.11247972764043929,0.8191932087484215,0.5185301257945412,-128.95070405160266,-48.51019892418311,-10.603384906468607,-0.0911,-0.9024,-0.4108,-0.0924
1262090.0,506.677212,1.0,0.14,2.02,-8.55,14.19,-25.56,40.56,31.06,-6.06,-45.19,-0.30384155883878616,0.4712273363596974,1.0380625935479326,-127.7407542896587,-50.17476615256416,-9.637046865121436,-0.0843,-0.8978,-0.424,-0.084
1262127.0,506.733608,1.0,0.83,2.19,-10.18,16.0,-23.69,41.0,-6.75,-8.5,-6.81,-0.014187230557470232,-0.061698963205604196,-0.6390855873307668,-127.35180399190799,-50.744807961971084,-9.280599254023052,-0.0809,-0.8963,-0.4285,-0.0809
1262159.0,506.753609,1.0,0.57,3.32,-10.12,16.0,-23.69,41.0,-5.38,-11.69,-9.88,0.6852223300516589,0.7072215129022497,-0.8137081902912691,-127.01685959928787,-50.98589564550729,-9.016196458354324,-0.0867,-0.895,-0.4304,-0.0786
1262196.0,506.799958,1.0,0.45,2.26,-9.68,16.37,-24.25,39.0,6.25,-1.88,-20.87,-0.0474511140558857,0.1672785759237363,-0.14233317768261955,-126.53082829262021,-51.54513650446031,-8.76333445653462,-0.0863,-0.8931,-0.4348,-0.0764
1262233.0,506.83902,1.0,0.69,2.26,-10.0,16.75,-22.75,39.75,6.19,-5.06,-16.69,0.08888867996423405,-0.04184012896104311,-0.4682732700873604,-125.92268154117137,-52.271574905386615,-8.556479215940191,-0.0842,-0.8907,-0.4405,-0.0746
1262268.0,506.862957,1.0,0.9,1.47,-10.25,16.75,-22.75,39.75,8.13,-9.13,-17.12,-0.38732318213919487,-0.7200475107850909,-0.5550541231058972,-125.4957101766987,-52.795499446887185,-8.22327089407658,-0.0834,-0.889,-0.4446,-0.0717
1262303.0,506.900866,1.0,0.51,1.79,-9.51,16.37,-23.19,41.0,4.94,-24.12,-10.19,-0.1068054478393265,-0.25519515840511087,0.12017654329562433,-125.22107317255427,-53.15398523212066,-7.3733240323499585,-0.0852,-0.8879,-0.4474,-0.0643
1262338.0,506.939051,1.0,-0.23,2.42,-8.57,18.56,-22.5,40.69,-6.31,-13.81,-8.44,0.17488183166573307,0.7214482504432701,0.9295373631745765,-125.07180537967443,-53.32061569458452,-6.902585349926142,-0.0878,-0.8873,-0.4487,-0.0602
1262374.0,506.984604,1.0,0.22,1.36,-9.24,18.56,-22.75,39.75,-3.94,5.81,-8.31,-0.5315158423731396,-0.32749054032473246,0.4853925282151845,-124.65089633148652,-53.744148912591335,-6.994427393261249,-0.0881,-0.8856,-0.452,-0.061
1262409.0,507.005009,1.0,0.16,2.14,-9.57,18.56,-22.75,39.75,5.13,-16.25,-7.56,0.008964954806841396,0.08678198622534944,-0.0006171278217017573,-124.45383854948406,-53.92406916451298,-6.764830589593756,-0.0898,-0.8848,-0.4534,-0.059
1262446.0,507.050386,1.0,-0.09,1.63,-9.28,18.56,-22.06,40.69,-5.13,-14.25,-6.44,-0.38802877816979053,-0.029081907801031093,0.3921936742236305,-124.25742213626366,-54.194219445668104,-6.087674884576737,-0.0901,-0.884,-0.4555,-0.0531
1262481.0,507.083809,1.0,-0.28,1.75,-8.8,19.37,-21.69,40.19,-3.81,-0.88,-6.31,-0.3340091556285148,0.19820731143279957,0.8383696884993093,-123.89084648839561,-54.516252544990145,-6.064724315991071,-0.0929,-0.8825,-0.458,-0.0529
