TIME,ELAPSED_SECONDS,PSTATE,acc_x,acc_y,acc_z,mag_x,mag_y,mag_z,gyr_x,gyr_y,gyr_z,lin_x,lin_y,lin_z,eul_x,eul_y,eul_z,qua_w,qua_x,qua_y,qua_z
1195145.0,439.626058,1.0,3.02,0.81,-9.6,9.56,-6.0,47.38,0.81,2.44,-2.56,-0.0014776770681237394,-0.07300072273223868,-0.2894467066956654,-93.17087251757091,-84.11869444886841,-15.690733139619654,0.0701,-0.7264,-0.6699,-0.1365
1195182.0,439.660969,1.0,2.79,1.03,-9.13,10.38,-6.06,48.19,1.06,1.56,-3.19,0.24656130582314617,0.03181367472324931,0.20768675324405628,-93.10419946060927,-84.195889005568,-15.702300646279072,0.07,-0.726,-0.6704,-0.1366
1195216.0,439.702536,1.0,3.3,0.63,-9.62,10.38,-6.06,48.19,5.44,0.37,-1.37,-0.1544975213911659,-0.34149938968104043,-0.37621839170238225,-92.98762003555102,-84.28858454106421,-15.667598608855753,0.071,-0.7253,-0.671,-0.1363
1195249.0,439.724479,1.0,2.81,0.75,-9.15,9.69,-5.69,47.69,1.63,-6.69,0.31,-0.00014657156306996377,-0.03001317923753033,0.20559801661875987,-93.02091568320621,-84.31949813314749,-15.459416628401117,0.0704,-0.7255,-0.6712,-0.1345
1195284.0,439.770527,1.0,2.82,0.84,-9.24,10.38,-6.75,47.25,-3.13,3.63,-1.25,0.07154534145064351,0.004344453217679123,0.10971943461782807,-93.15420041095278,-84.18044633707882,-15.551935573755918,0.0703,-0.7263,-0.6703,-0.1353
1195321.0,439.792567,1.0,2.59,0.95,-8.89,10.0,-5.69,46.88,-1.31,3.63,-0.81,0.184477086172254,0.15526353936550819,0.5015674405585653,-93.10419946060927,-84.18044633707882,-15.713868313956251,0.0705,-0.726,-0.6703,-0.1367
1195354.0,439.846973,1.0,3.15,0.77,-9.36,10.0,-5.69,46.88,-0.88,10.81,-1.88,-0.012826695348717054,-0.21212376036780167,-0.0968765933996405,-92.98762003555102,-84.195889005568,-15.922114008308865,0.0722,-0.7253,-0.6704,-0.1385
1195390.0,439.87505,1.0,3.38,0.97,-9.58,10.38,-5.38,47.25,-0.94,6.0,1.12,0.1615926679045303,-0.29320954733169957,-0.3928409662704766,-92.93769566525509,-84.16500554813028,-16.19985740781584,0.0737,-0.725,-0.6702,-0.1409
1195427.0,439.91395,1.0,3.14,0.97,-9.46,9.69,-6.5,47.69,1.69,-2.63,2.5,0.16702048286708004,-0.0970441941030582,-0.20608122493027814,-93.05422153236404,-84.02612286771038,-16.188282864682783,0.0739,-0.7257,-0.6693,-0.1408
1195460.0,439.938922,1.0,2.84,1.06,-9.28,9.69,-6.5,47.69,2.19,1.75,2.19,0.27239475501214594,0.13644800637765742,0.04884373839603917,-93.17087251757091,-83.94903131476774,-16.095692494623034,0.0741,-0.7264,-0.6688,-0.14
1195495.0,439.98395,1.0,2.65,1.23,-9.27,10.0,-5.38,47.69,0.5,6.13,-0.25,0.43409630311844194,0.3527776019349527,0.10327902063453287,-93.15420041095278,-83.91820775613573,-16.165134277085013,0.0751,-0.7263,-0.6686,-0.1406
1195532.0,440.039732,1.0,2.9,0.79,-9.52,10.0,-6.06,47.25,5.75,15.31,-2.63,-0.007567448373036134,0.2298106891150858,-0.17391259841566153,-92.95433457722173,-83.97986233388389,-16.454539675361612,0.0784,-0.7251,-0.669,-0.1431
1195565.0,440.0427,1.0,2.71,1.12,-9.42,10.0,-6.06,47.25,4.81,16.25,-3.0,0.318669200112611,0.47298852525659296,-0.04269677000841732,-92.78805970081835,-84.04154678419287,-16.69772182857332,0.0809,-0.7241,-0.6694,-0.1452
1195599.0,440.083925,1.0,2.61,1.11,-9.69,9.69,-6.5,47.25,10.38,26.56,-5.19,0.29321615295381687,0.764819923548973,-0.2566185928673068,-92.43970392561262,-84.18044633707882,-17.05684380992257,0.0859,-0.722,-0.6703,-0.1483
1195634.0,440.106848,1.0,4.77,1.37,-12.02,7.0,-5.0,47.38,39.44,24.19,0.88,0.5797395940654089,-0.3133252239639708,-3.180879761548221,-92.10896087538232,-84.304040393457,-17.137959104392674,0.0951,-0.72,-0.6711,-0.149
1195671.0,440.150016,1.0,10.81,-1.7,-17.26,7.38,-4.56,47.69,110.56,-67.75,32.25,-1.237769037734128,-5.074413439456827,-9.951182777273088,-92.97097603348082,-84.22677998503734,-13.011162702254632,0.1073,-0.7252,-0.6706,-0.1133
1195706.0,440.180054,1.0,6.55,-0.29,-10.44,7.38,-4.56,47.69,102.25,-399.06,111.37,1.0448747543040433,-4.8309546263705805,-1.4871675187031759,-96.30102081146676,-82.90516622575333,-3.7478120989556993,0.0757,-0.7449,-0.662,-0.0327
1195743.0,440.217582,1.0,-2.67,-3.2,-0.08,11.88,0.25,46.0,42.69,-316.25,138.81,-3.5821928190594576,1.9739334570828282,9.002422846710651,-100.42085372385361,-78.69171147031696,9.91307033213892,0.0133,-0.7684,-0.634,0.0864
1195778.0,440.255725,1.0,-3.95,-0.73,-0.17,27.56,0.56,41.5,-33.63,-84.5,101.81,-1.5637148598943942,3.556168248012045,8.770907160885773,-102.94329258700417,-75.49749569312627,13.011162702254632,-0.0186,-0.7823,-0.6122,0.1133
1195812.0,440.287853,1.0,-3.8,0.84,5.87,27.56,0.56,41.5,-125.37,277.94,9.56,-0.6991778254039898,4.473053353605721,15.20159615953301,-105.40501487729965,-74.0696024369717,7.4651897628112485,-0.016,-0.7955,-0.6023,0.0651
1195847.0,440.329928,1.0,3.33,4.64,0.97,31.0,-2.25,39.5,-224.63,615.94,-90.31,5.318952069458096,-2.2763795954457944,9.512975315620364,-101.75523946512085,-76.2239014164758,-14.303764676023915,0.0408,-0.7758,-0.6172,-0.1245
1195884.0,440.368062,1.0,13.53,5.68,-11.78,18.87,-6.75,45.25,-161.5,728.88,-132.75,2.9007502201926076,-3.8694055132102916,-8.37864760917842,-92.32383080569309,-76.34046104575957,-34.09926566702287,0.109,-0.7213,-0.618,-0.2932
1195921.0,440.402515,1.0,20.72,2.8,-18.09,-8.38,-14.69,44.75,-120.37,624.25,-185.88,-7.369676950320559,3.4561349702147526,-16.615868667143985,-75.42505159244898,-74.61607730658687,-56.22443872055198,0.1908,-0.6117,-0.6061,-0.4712
1195956.0,440.427115,1.0,15.84,6.03,-10.42,-8.38,-14.69,44.75,-52.5,-227.25,46.88,-1.2444439303656694,0.3069852045602395,-10.047821017590904,-76.34046104575957,-74.05524812454561,-56.692657696890706,0.1735,-0.618,-0.6022,-0.4748
1195995.0,440.472542,1.0,13.72,7.29,-13.13,-23.06,-19.87,39.19,109.12,-443.31,108.56,1.4708595330047523,-0.35593069702475444,-10.478548682120037,-87.815613588484,-73.99784443066719,-44.55589145397279,0.1149,-0.6935,-0.6018,-0.3791
1196029.0,440.514682,1.0,13.3,0.55,-12.2,-12.5,-18.37,44.06,270.5,-517.19,128.81,0.33726046567839507,-7.230430502079255,-6.735406405806758,-99.10487032365977,-75.32368929866719,-23.214281072524358,0.0839,-0.761,-0.611,-0.2012
1196066.0,440.57153,1.0,-0.17,-2.6,3.6,-12.5,-18.37,44.06,195.06,-608.81,183.94,-2.4736349757032476,-1.0181066120288365,13.355380608755862,-106.81586235047911,-72.7688405556102,-4.75691579950709,0.0417,-0.8029,-0.5932,-0.0415
1196099.0,440.579509,1.0,-3.0,-2.83,0.7,5.88,-8.69,47.69,-5.0,-289.75,159.63,-3.81820053166538,1.6979441345672366,9.999601848601989,-112.6714672903495,-66.76146977168455,7.4651897628112485,-0.0193,-0.8323,-0.5502,0.0651
1196136.0,440.610675,1.0,-2.13,-0.59,-2.22,26.06,-6.5,40.56,-17.25,-52.06,105.19,-1.2715786616346931,1.2730831836088146,7.242328078928511,-115.60146959454927,-63.40381821677742,8.809306149715168,-0.0441,-0.8462,-0.5255,0.0768
1196173.0,440.668016,1.0,-2.3,-1.25,-0.71,28.75,-9.38,39.06,-96.44,134.13,107.94,-2.205015790832585,1.2342016295745224,8.821128970425015,-119.8568228996601,-59.44503417297447,6.087674884576737,-0.0494,-0.8654,-0.4958,0.0531
1196208.0,440.700022,1.0,-0.71,5.52,-1.26,28.75,-9.38,39.06,-183.13,349.88,49.94,4.034137789424907,3.4951716415778513,7.788827537085114,-121.22012218744959,-57.84157774874587,-7.9131051126258125,-0.0478,-0.8713,-0.4836,-0.069
1196244.0,440.722961,1.0,6.83,9.36,-2.66,23.0,-15.0,41.06,-224.88,672.38,-97.94,9.326908782589436,-0.5257676119952848,2.4536614253160423,-113.75411958451244,-59.431839453257375,-26.417553105892512,-0.027,-0.8375,-0.4957,-0.2285
1196281.0,440.761664,1.0,15.5,9.72,-16.17,6.69,-22.56,42.69,-151.94,783.06,-144.31,-1.4242133869418074,2.075689871542015,-14.480392384482181,-93.5048551721208,-61.55426474750001,-53.98836120988355,0.0404,-0.7284,-0.5117,-0.4539
1196316.0,440.793556,1.0,11.73,5.17,-10.47,6.69,-22.56,42.69,-21.94,67.75,-26.62,-3.4460462337147906,1.2274869606959715,-6.335243975504282,-85.98458949996679,-62.34280299111539,-61.76778434348221,0.0601,-0.6819,-0.5176,-0.5133
1196351.0,440.840525,1.0,5.15,7.09,-2.95,-15.5,-29.0,35.69,-24.62,-110.81,21.44,3.4011578974968417,1.5211098106886674,1.3442951326996724,-89.09494687724344,-61.607622397034135,-59.194482438730184,0.0414,-0.7015,-0.5121,-0.4939
1196386.0,440.870287,1.0,7.99,5.31,-5.68,-15.5,-29.87,35.75,14.13,74.75,-22.31,0.16510308418222763,0.3875190764149783,-1.334318087962913,-88.24583799153994,-61.95480935564663,-59.76196847937517,0.0458,-0.6962,-0.5147,-0.4982
1196425.0,440.906977,1.0,9.34,4.61,-6.69,-17.0,-30.5,35.56,8.13,41.5,-17.19,-1.452727571129771,0.11479905816811575,-2.486445776911653,-85.43747913251065,-62.75843566799939,-62.03501902225592,0.0557,-0.6784,-0.5207,-0.5153
1196457.0,440.936169,1.0,7.82,5.26,-4.83,-17.0,-30.5,35.56,-1.5,-23.31,-0.69,0.3911889339493744,0.1729817999551043,-0.7747463405044002,-85.71854745258325,-62.933006816189014,-61.58094172163548,0.0536,-0.6802,-0.522,-0.5119
1196494.0,440.978058,1.0,7.63,4.54,-5.01,-17.19,-30.5,35.56,12.44,-17.0,-2.81,-0.18393953460163637,0.009060022062306994,-0.3862241856068618,-85.93759911863056,-63.28263870636261,-60.9683017245208,0.0538,-0.6816,-0.5246,-0.5073
1196531.0,441.023221,1.0,7.14,4.61,-4.78,-18.37,-29.37,35.56,5.13,-20.87,-2.88,0.12582280317044203,0.10638869519411026,0.05713975241642011,-86.37687760452374,-63.578995190034604,-60.18533311886691,0.0513,-0.6844,-0.5268,-0.5014
1196566.0,441.054709,1.0,6.83,4.86,-4.66,-18.37,-29.37,35.56,12.63,-14.19,-2.19,0.4709021321962399,0.2773022344124121,0.23139780213685945,-86.66010715009038,-63.821822370076546,-59.643059256884456,0.0502,-0.6862,-0.5286,-0.4973
1196599.0,441.097252,1.0,6.95,4.22,-5.06,-16.87,-29.75,35.19,17.37,-6.19,-1.37,-0.19604159563504897,0.10475251978771682,0.23246102116847744,-86.78619903924594,-64.24077819073914,-59.02323151633205,0.0522,-0.687,-0.5317,-0.4926
1196636.0,441.103892,1.0,6.81,4.42,-4.8,-16.5,-29.75,35.56,11.63,-9.75,-3.25,0.1675595458019563,0.07514237663274048,0.376974638576117,-86.88085409815075,-64.52513383249247,-58.62858825496232,0.0518,-0.6876,-0.5338,-0.4896
1196670.0,441.150985,1.0,6.96,4.17,-5.0,-16.5,-29.75,35.56,9.13,-3.06,1.0,-0.11273075218048456,-0.036122853325366244,0.27688153917260827,-86.94399862291918,-64.72851792100349,-58.313422489419004,0.0531,-0.688,-0.5353,-0.4872
