TIME,ELAPSED_SECONDS,PSTATE,acc_x,acc_y,acc_z,mag_x,mag_y,mag_z,gyr_x,gyr_y,gyr_z,lin_x,lin_y,lin_z,eul_x,eul_y,eul_z,qua_w,qua_x,qua_y,qua_z
1817401.0,291.014026,1.0,-0.85,-0.2,-9.72,23.37,-12.88,41.88,-2.19,0.94,0.75,0.022103026612590948,0.02642825046706286,0.047566385039433,-123.18829850358513,-56.52346006643046,4.997776256010228,-0.0099,-0.8796,-0.4735,0.0436
1817436.0,291.06136,1.0,-0.93,-0.08,-9.67,23.37,-12.88,41.88,-1.12,0.69,0.0,0.06794433938096756,0.15717615814520491,0.09321192576197745,-123.18829850358513,-56.53647049567268,4.974836229757033,-0.0103,-0.8796,-0.4736,0.0434
1817470.0,291.084066,1.0,-0.88,0.11,-9.91,23.37,-13.25,40.19,-0.63,-0.19,-0.63,0.2607734767015195,0.2018899817335648,-0.1374858412445601,-123.18829850358513,-56.53647049567268,4.940426564140192,-0.0107,-0.8796,-0.4736,0.0431
1817505.0,291.12587,1.0,-0.83,-0.24,-9.8,23.37,-12.88,41.06,1.94,1.56,-3.31,-0.01239053248946731,-0.024675007526517856,-0.031324263978749656,-123.11607559607697,-56.614549763799054,4.928956774809122,-0.0107,-0.8793,-0.4742,0.043
1817540.0,291.146332,1.0,-0.83,-0.24,-9.85,24.19,-13.69,41.88,-1.0,0.5,-2.81,-0.01190905841506018,-0.02076924354040305,-0.08114180671045546,-122.99589046242427,-56.71870005631495,4.89454770282183,-0.0105,-0.8788,-0.475,0.0427
1817575.0,291.188015,1.0,-0.9,-0.23,-9.7,24.19,-13.69,41.88,-0.44,-0.06,-2.19,-0.051949384277277855,0.050750814541944286,0.06254277479478354,-122.92389068833597,-56.796846315050196,4.89454770282183,-0.0106,-0.8785,-0.4756,0.0427
1817612.0,291.225516,1.0,-0.74,-0.33,-9.83,23.0,-13.19,41.38,1.31,-1.81,-1.88,-0.02926580817718588,-0.14158829614281962,-0.05562642417647545,-122.85197400573631,-56.87502139751708,4.940426564140192,-0.0102,-0.8782,-0.4762,0.0431
1817645.0,291.250451,1.0,-0.78,-0.36,-9.76,23.37,-13.56,40.56,-0.25,0.12,-0.75,-0.07095654316681022,-0.11881584928774923,0.009892987450397683,-122.82802018843608,-56.90108617541996,4.986306217889055,-0.0099,-0.8781,-0.4764,0.0435
1817681.0,291.302213,1.0,-0.83,-0.18,-9.82,23.37,-13.56,40.56,0.63,-3.06,0.94,0.05999049614640051,0.011348587055195966,-0.04981855369325672,-122.82802018843608,-56.88805338503149,5.020716482682319,-0.0101,-0.8781,-0.4763,0.0438
1817716.0,291.321175,1.0,-0.8,-0.33,-9.97,23.75,-12.75,40.19,2.13,-5.94,1.0,-0.00784246335686345,-0.12643230176400366,-0.20003543369077725,-122.85197400573631,-56.84895982984303,5.238658808769412,-0.0103,-0.8782,-0.476,0.0457
1817753.0,291.365321,1.0,-0.97,-0.38,-9.61,24.19,-12.06,41.06,8.5,-10.88,3.06,-0.12177116819793998,-0.015143303264847266,0.1411266068793786,-122.89990924402274,-56.7707943628713,5.548399139371832,-0.0103,-0.8784,-0.4754,0.0484
1817788.0,291.400993,1.0,-1.06,-0.58,-9.37,24.19,-12.06,41.06,15.56,-17.87,6.06,-0.26272225804574834,-0.06122708780173225,0.36291513190641034,-122.99589046242427,-56.60153456365382,6.122101196043245,-0.0091,-0.8788,-0.4741,0.0534
1817823.0,291.437406,1.0,-1.12,-1.12,-8.54,24.19,-12.38,41.06,17.81,-11.81,20.5,-0.6821439246789865,-0.2953255656378111,1.1528726469417254,-123.45383923298036,-56.04262977353804,7.005907963772472,-0.007,-0.8807,-0.4698,0.0611
1817858.0,291.483345,1.0,-2.21,-4.27,-4.08,23.37,-11.69,40.56,5.38,58.25,41.25,-4.391241166720109,-0.8581072386321713,5.363221933438139,-125.09665734949911,-54.567821054447855,5.582817194583069,0.0002,-0.8874,-0.4584,0.0487
1817894.0,291.510538,1.0,-0.6,-0.49,1.47,23.75,-11.69,41.88,-212.0,424.06,9.31,-0.6510573193722001,0.13040675005073807,11.329843502623053,-126.04885559306123,-53.744148912591335,-4.481672390551605,0.0042,-0.8912,-0.452,-0.0391
1817927.0,291.547351,1.0,7.24,11.14,-4.3,23.75,-11.69,41.88,-369.25,659.13,-79.62,9.724563562327841,2.0258950451362683,-0.00843088547098958,-116.24952660685355,-53.79554006963272,-31.626171458397582,-0.0046,-0.8492,-0.4524,-0.2725
1817964.0,291.58594,1.0,13.89,6.45,-10.26,9.06,-19.25,43.56,-75.87,633.06,-87.5,1.3612820548920759,-1.4071189369642476,-8.522810643026718,-102.81460845539634,-54.438922188166046,-50.07356471942518,0.0292,-0.7816,-0.4574,-0.4232
1818001.0,291.613895,1.0,14.01,8.37,-11.61,-11.06,-29.0,37.0,-57.94,298.94,-93.62,-2.9106156657557998,3.8001849913351498,-9.641126491874028,-86.89663713906471,-55.097091918968275,-67.54545388216583,0.0641,-0.6877,-0.4625,-0.5559
1818038.0,291.676925,1.0,5.58,9.55,-2.65,-11.06,-29.0,37.0,57.25,21.69,-23.75,4.49021909011062,3.7951772446383973,0.07032819941303359,-84.42775523713395,-56.2374309655145,-69.06866999114752,0.071,-0.6719,-0.4713,-0.5669
1818073.0,291.685009,1.0,7.65,8.0,-4.83,-22.87,-32.75,29.5,197.81,-0.5,-24.31,2.3391857394987765,2.859232329684089,-1.6913672447694204,-82.58449333969774,-60.384097284445964,-66.61058219226842,0.0999,-0.6599,-0.5029,-0.5491
1818107.0,291.756296,1.0,10.76,4.79,-8.25,-22.75,-31.69,30.37,274.25,-206.31,9.13,-0.33626030312546984,0.5862377995282966,-4.557452974113845,-85.31276410779734,-67.4627610420609,-55.355735416873515,0.13,-0.6776,-0.5553,-0.4645
1818144.0,291.75829,1.0,10.44,-0.3,-7.97,-18.56,-24.87,38.38,301.75,-326.69,13.5,-2.738269919991312,-2.7387241900899144,-2.7474635750751872,-89.17537067204427,-73.26783271865594,-42.49532318150223,0.1405,-0.702,-0.5967,-0.3624
1818179.0,291.799412,1.0,7.68,-0.39,-7.77,-18.56,-24.87,38.38,221.69,-340.88,59.94,-0.8460974283806224,-2.9209929247872175,-0.6937937751473502,-94.5468548563841,-77.32034327545834,-26.54704645350268,0.1319,-0.7346,-0.6247,-0.2296
1818216.0,291.830886,1.0,4.82,-1.23,-8.66,-7.25,-14.06,46.56,203.56,-300.88,95.5,-0.814686106267076,-1.5335205856457346,-0.028262361666277158,-98.31321925058506,-77.74655203029215,-15.713868313956251,0.1235,-0.7565,-0.6276,-0.1367
1818253.0,291.864785,1.0,2.55,-1.37,-7.77,5.5,-6.19,47.88,133.69,-281.06,151.19,0.12440070506586354,-1.1092829039777754,1.5904272727656785,-103.03532104245026,-75.3381653872281,-2.750461504037132,0.115,-0.7828,-0.6111,-0.024
1818288.0,291.904995,1.0,-0.06,0.41,-6.38,5.5,-6.19,47.88,107.81,-235.69,129.5,1.5875569761297963,0.8006321105342127,3.665416323357891,-106.47054675108937,-72.11544554429472,5.559871768630059,0.0968,-0.8011,-0.5886,0.0485
1818322.0,291.938075,1.0,-0.23,-3.08,-8.44,16.69,-0.88,46.25,147.56,-166.0,38.69,-0.19840723588060782,-0.7165239151553999,0.8500810113883119,-107.1239903435057,-69.84948599144745,14.523222401516826,0.0952,-0.8045,-0.5725,0.1264
1818357.0,291.985384,1.0,-2.19,-5.55,-4.08,25.75,3.19,41.5,106.81,-119.12,26.06,-3.7806826782466514,-0.06248761639047973,3.6464930389962005,-106.18384425288782,-68.4854543216403,21.228988473912292,0.1004,-0.7996,-0.5627,0.1842
1818394.0,292.012895,1.0,-2.48,-8.36,-2.46,30.69,6.19,39.06,17.37,30.06,33.38,-6.835718015885112,-0.8334536909539558,3.9185336498979613,-106.79664141842294,-67.38010802744758,22.139049946746336,0.1048,-0.8028,-0.5547,0.192
1818429.0,292.051379,1.0,1.6,-13.29,-5.41,30.69,6.19,39.06,-36.25,140.5,78.25,-8.501531347843471,-6.7636067809691705,0.29719217875369175,-110.99470186962544,-64.28137325688984,18.077219464225532,0.1144,-0.8241,-0.532,0.1571
1818466.0,292.095296,1.0,3.41,-5.76,-11.09,30.19,6.06,38.75,-216.13,40.75,238.06,0.11053850251429176,-5.610165630568778,-1.8684355601595808,-118.07406258134459,-59.089080085565726,14.01508470303339,0.0819,-0.8575,-0.4931,0.122
1818503.0,292.121233,1.0,0.93,3.03,-9.53,26.75,-1.75,40.69,-232.69,-12.94,252.75,4.427689047461878,0.4560965390876883,0.8036368573894475,-128.5268474503853,-50.27600944578726,10.338720083250598,-0.0023,-0.9008,-0.4248,0.0901
1818537.0,292.158218,1.0,-0.92,11.15,-12.17,26.75,-1.75,40.69,-178.0,-35.38,181.69,8.391555702975502,6.567193339355661,-2.8318453426973296,-133.93995871664828,-44.69214333160207,8.476043091817116,-0.0555,-0.9203,-0.3802,0.0739
1818572.0,292.181385,1.0,-1.96,7.54,-9.62,25.0,-14.56,38.69,-1.44,-52.0,43.0,4.440075825122392,4.784764539851608,-0.7113990094571427,-136.43524351543036,-41.31734313597096,9.085166406176855,-0.0836,-0.9286,-0.3528,0.0792
1818607.0,292.241332,1.0,-2.93,4.27,-7.8,22.69,-22.06,36.56,1.5,-33.56,-0.56,1.5197515187887354,3.2619139053082074,1.1632668084773474,-136.3735243727286,-40.92570257127247,10.453784866884499,-0.0869,-0.9284,-0.3496,0.0911
1818644.0,292.254881,1.0,-2.69,2.22,-8.45,23.87,-21.69,37.75,12.5,12.88,-29.44,0.4693676296170155,1.4936889035637386,0.8002307621653415,-135.8217429117077,-41.57463147554045,10.580368342525214,-0.0837,-0.9266,-0.3549,0.0922
1818679.0,292.302409,1.0,-2.23,0.98,-9.5,23.87,-21.69,37.75,10.88,10.13,-38.38,0.1366583673646118,0.1979170387783079,0.0022911052843177515,-134.7075870499225,-42.962902850309234,10.419264327291232,-0.0771,-0.9229,-0.3662,0.0908
1818716.0,292.330913,1.0,-2.51,-0.59,-8.65,24.87,-22.06,36.06,19.0,0.44,-33.06,-1.1419759631126105,-0.48131766329996356,0.8660166775407632,-133.82293398949477,-43.887975339090566,10.822063795614435,-0.0719,-0.9199,-0.3737,0.0943
1818753.0,292.370847,1.0,-2.66,-0.41,-8.78,26.06,-20.19,37.0,1.19,9.5,-14.69,-1.0939822285636387,-0.19260703292813203,0.6908282918678381,-133.21309386328863,-44.6302024176685,10.68394626499923,-0.0685,-0.9178,-0.3797,0.0931
1818787.0,292.407381,1.0,-2.22,0.48,-9.75,26.06,-20.19,37.0,-9.0,16.0,-11.75,-0.11285118308436082,-0.02205974340900002,-0.20374849247757254,-132.95401941873996,-45.026862840013614,10.200656128703407,-0.0685,-0.9169,-0.3829,0.0889
1818822.0,292.432934,1.0,-1.84,0.7,-10.39,25.69,-20.19,36.56,2.0,2.81,-10.81,0.33791929053186975,-0.21503124377063423,-0.7606236369079067,-132.58215838722379,-45.51106402154344,9.890066196362191,-0.0677,-0.9156,-0.3868,0.0862
1818857.0,292.47839,1.0,-1.9,0.27,-9.39,25.25,-19.87,36.19,-4.94,0.75,-1.56,-0.11864104711550827,-0.27763305459670445,0.2273053361446138,-132.46829135766268,-45.64778844933024,9.878564278366849,-0.0677,-0.9152,-0.3879,0.0861
1818894.0,292.506412,1.0,-1.97,0.9,-9.56,25.69,-20.56,38.25,-4.69,8.94,-6.25,0.2553231792303855,0.16560739227270643,0.009105191948732383,-132.29797094336487,-45.846783043563605,9.60254790532585,-0.0692,-0.9146,-0.3895,0.0837
1818929.0,292.56732,1.0,-2.09,0.91,-9.79,25.69,-20.56,38.25,-3.25,10.5,-14.69,0.15728674226258388,0.23590185859743118,-0.24123093051558264,-131.98719464152975,-46.245211896711545,9.269102460835224,-0.0693,-0.9135,-0.3927,0.0808
1818963.0,292.601592,1.0,-1.9,0.41,-9.84,24.56,-19.5,36.56,1.69,6.63,-10.69,-0.09532946572266077,-0.1982756079994092,-0.22107651582787646,-131.53850453910292,-46.79402040546467,9.016196458354324,-0.0678,-0.9119,-0.3971,0.0786
1819000.0,292.621539,1.0,-2.02,0.62,-9.71,24.87,-19.87,37.38,0.63,3.94,-8.06,-0.035776446202834156,0.07556710338251665,-0.13024637959375696,-131.34342588798637,-47.03135704516996,8.935735653853005,-0.067,-0.9112,-0.399,0.0779
1819033.0,292.64502,1.0,-1.99,0.55,-9.6,24.87,-19.87,37.38,0.81,-0.06,-6.56,-0.06670593743253439,0.04249611674455117,-0.012532470958205977,-131.0660093808112,-47.33145690842095,8.935735653853005,-0.0663,-0.9102,-0.4014,0.0779
1819068.0,292.682892,1.0,-1.99,0.68,-9.6,25.69,-19.87,37.75,3.56,2.5,-7.25,0.04191814588787479,0.14922275708793192,-0.019767222864718548,-130.84513444406196,-47.58180340274293,8.935735653853005,-0.0653,-0.9094,-0.4034,0.0779
