TIME,ELAPSED_SECONDS,PSTATE,acc_x,acc_y,acc_z,mag_x,mag_y,mag_z,gyr_x,gyr_y,gyr_z,lin_x,lin_y,lin_z,eul_x,eul_y,eul_z,qua_w,qua_x,qua_y,qua_z
624357.0,416.609659,1.0,0.2,0.8,-9.77,20.75,-9.25,39.19,0.5,-0.06,-0.44,0.004873826370750178,0.012596280658579345,0.001920652408090362,-105.49962088989867,-74.28508028194616,-3.782208130568333,-0.0257,-0.796,-0.6038,-0.033
624392.0,416.630042,1.0,0.29,0.64,-9.72,22.69,-9.69,37.06,1.44,2.88,1.5,-0.11005522961201664,-0.10035800701365878,0.062425242900882694,-105.51855441871267,-74.27070555325551,-3.793673550039814,-0.0247,-0.7961,-0.6037,-0.0331
624427.0,416.657001,1.0,0.38,0.97,-10.12,22.69,-9.69,37.06,-3.38,2.5,0.5,0.1604580111450713,-0.08954262284986969,-0.365170650471212,-105.53749206374759,-74.24196019139418,-3.9885915878464155,-0.0255,-0.7962,-0.6035,-0.0348
624459.0,416.692442,1.0,0.26,0.79,-9.87,22.0,-9.25,38.38,1.12,0.69,1.06,-0.018195988955477665,-0.016519598254487317,-0.0982980568481242,-105.55643382820686,-74.21322028612757,-3.9885915878464155,-0.0251,-0.7963,-0.6033,-0.0348
624496.0,416.722482,1.0,0.38,0.59,-9.81,21.19,-10.38,39.56,-4.69,1.37,3.0,-0.1818232928642257,-0.17576021506182887,-0.02516817554481854,-105.70811662886264,-74.05524812454561,-4.068855279934243,-0.025,-0.7971,-0.6022,-0.0355
624531.0,416.773256,1.0,0.4,0.98,-9.93,21.19,-10.38,39.56,-7.31,0.12,5.38,0.150007313667197,-0.0961665283178289,-0.17801573324704023,-105.82205287348602,-73.92612026828976,-4.206454848857137,-0.0265,-0.7977,-0.6013,-0.0367
624564.0,416.809321,1.0,0.59,1.09,-10.34,22.0,-9.69,40.0,-3.88,1.19,2.44,0.2400538561929824,-0.2490227515198937,-0.601623719275084,-105.93613916476912,-73.79710182057963,-4.332593112917143,-0.0275,-0.7983,-0.6004,-0.0378
624599.0,416.840237,1.0,0.36,0.47,-9.71,21.19,-10.06,39.19,2.81,-0.37,1.75,-0.3439035750459618,-0.19900267106451786,0.08673599482588834,-105.99323879892165,-73.73979529168804,-4.275256896440698,-0.027,-0.7986,-0.6,-0.0373
624635.0,416.882122,1.0,0.35,0.6,-9.77,21.19,-10.06,39.19,-8.75,1.25,5.94,-0.2651035088570436,-0.15062779842915017,0.016735220190518874,-106.24110823664704,-73.49648178219451,-4.4587366294239885,-0.0281,-0.7999,-0.5983,-0.0389
624670.0,416.905024,1.0,0.27,1.37,-10.08,21.19,-10.06,39.19,-8.88,-0.63,7.69,0.36934705083006353,0.13795497044887456,-0.3619659914794475,-106.45140340836083,-73.25355342465495,-4.642227799866185,-0.0299,-0.801,-0.5966,-0.0405
624707.0,416.96198,1.0,0.11,1.38,-9.88,21.19,-10.75,39.19,-2.75,-2.0,5.0,0.33396947186500003,0.2747225651947732,-0.16049060822034455,-106.75821257049073,-72.93974254153213,-4.642227799866185,-0.0314,-0.8026,-0.5944,-0.0405
624742.0,416.972433,1.0,-0.28,1.72,-9.54,21.19,-11.19,39.56,-5.56,0.06,3.88,0.5549107684425851,0.7404538529327558,0.15303916618535496,-106.89278954728871,-72.7688405556102,-4.71104003397371,-0.0325,-0.8033,-0.5932,-0.0411
624775.0,417.012897,1.0,-0.5,1.87,-9.53,21.19,-11.19,39.56,-9.88,4.94,1.06,0.5868343188826397,1.0064368475408279,0.15209095496362934,-106.98904660999506,-72.66923443071872,-4.96336629149859,-0.0335,-0.8038,-0.5925,-0.0433
624809.0,417.048251,1.0,-0.97,3.23,-9.95,20.75,-11.19,38.69,-10.81,3.88,-4.63,1.6336339151268995,1.8570935228650807,-0.40406710893410747,-106.91203223110698,-72.69768682108878,-5.250129975900072,-0.0352,-0.8034,-0.5927,-0.0458
624846.0,417.09228,1.0,-1.26,4.09,-9.85,21.19,-11.56,38.38,4.0,4.88,-15.75,2.3624590564417502,2.386457435030733,-0.3944189693493847,-106.45140340836083,-73.12509922631307,-5.468092286497271,-0.0353,-0.801,-0.5957,-0.0477
624881.0,417.114169,1.0,-0.53,5.48,-10.11,21.19,-11.56,38.38,26.25,-0.81,-40.0,3.9828189520366695,2.049814967272253,-0.7980099094569812,-105.57537971529776,-74.05524812454561,-5.204245622111723,-0.0315,-0.7964,-0.6022,-0.0454
624916.0,417.179321,1.0,0.66,3.58,-10.58,20.75,-10.75,38.75,92.5,4.13,-72.31,2.915977374792881,0.39891482146618795,-0.9880868154536611,-103.10901079937443,-76.74915654963284,-3.77074274897392,-0.0127,-0.7832,-0.6208,-0.0329
624951.0,417.184025,1.0,2.17,-2.17,-9.35,21.56,-9.25,39.19,77.06,-0.25,-63.38,-1.934368384429484,-2.2570668257207176,0.42559631197802616,-101.10372013014187,-78.85480334917152,-2.18883187578443,0.0044,-0.7722,-0.6351,-0.0191
624988.0,417.230466,1.0,1.83,-3.38,-8.12,22.25,-5.69,39.56,-0.19,4.06,-33.06,-3.0857854372129228,-2.095843545396844,1.6339473828296533,-99.42333079065405,-80.54144798375754,-1.4782721132478738,0.0103,-0.7628,-0.6464,-0.0129
625020.0,417.270431,1.0,1.02,-2.18,-6.72,22.25,-5.69,39.56,2.06,19.25,-17.62,-2.0548917168170613,-1.0707765001837477,3.055201435520604,-98.75223846738031,-81.20389126609984,-1.856464464018338,0.0125,-0.759,-0.6508,-0.0162
625057.0,417.29154,1.0,0.15,-1.89,-4.4,22.0,-5.0,39.19,10.06,59.81,-7.63,-1.8722662276704325,-0.12343347815326289,5.398250817848306,-98.38333132200674,-81.47583755660963,-2.8192367490322434,0.0242,-0.7569,-0.6526,-0.0246
625092.0,417.340425,1.0,0.08,-2.5,-3.2,22.0,-3.0,41.19,-23.5,125.81,2.25,-2.517905573983793,-0.0650389848210331,6.620379225104244,-98.17314373529331,-81.40024126031591,-5.215716631990905,0.0392,-0.7557,-0.6521,-0.0455
625127.0,417.368251,1.0,1.47,-0.5,-3.77,22.0,-3.0,41.19,-93.37,226.94,5.25,-0.5962260591630623,-0.6010316466493882,5.818282483571654,-97.75409683092421,-80.42135265062156,-12.515346343653171,0.0629,-0.7533,-0.6456,-0.109
625162.0,417.408098,1.0,4.63,2.54,-6.63,17.5,-4.19,41.69,-125.62,288.19,-8.44,1.7674192137846785,-1.088277151556237,1.5885430303782595,-95.54805066002703,-78.61764169313197,-23.62387580431868,0.092,-0.7405,-0.6335,-0.2047
625199.0,417.437049,1.0,7.7,3.13,-10.92,8.75,-7.88,43.69,-81.06,268.5,-25.75,0.8489950744131107,-0.2395536715328137,-3.8884265387447723,-92.39002905922057,-77.29099637299755,-31.828690136705813,0.1181,-0.7217,-0.6245,-0.2742
625233.0,417.474177,1.0,11.36,2.31,-12.74,8.75,-7.88,43.69,-27.31,188.38,-13.0,-0.9203578563389216,-0.7677677397751295,-7.376387394885567,-89.48149018225166,-76.25303259821837,-37.41052638436744,0.143,-0.7039,-0.6174,-0.3207
625268.0,417.509314,1.0,13.31,2.85,-16.25,-3.19,-11.25,44.19,-8.94,-46.06,15.88,-1.6245026050852562,0.6973809441771484,-11.317169519792577,-88.78984149659983,-75.39608386757837,-39.461440774465245,0.1509,-0.6996,-0.6115,-0.3376
625303.0,417.543001,1.0,9.89,1.8,-10.84,-8.75,-13.38,43.88,44.63,-149.19,15.56,-0.5035642372299849,-1.542755254819498,-4.8877036531114495,-91.46684165640444,-76.20933800398176,-34.63902408126335,0.1331,-0.7161,-0.6171,-0.2977
625340.0,417.590033,1.0,7.58,-1.75,-7.6,-5.25,-12.69,43.5,22.19,-204.38,48.69,-2.6883596716665448,-3.1289824550772405,-0.2562070034347492,-94.32752570299763,-76.6030617698578,-29.55902139879445,0.1144,-0.7333,-0.6198,-0.2551
625375.0,417.613288,1.0,5.37,-0.6,-5.66,-5.25,-12.69,43.5,-17.81,-182.69,58.25,-0.9369081644045636,-2.872106296390423,2.5882216036171313,-99.08720853255561,-75.16454533036487,-24.03377694135321,0.0757,-0.7609,-0.6099,-0.2082
625410.0,417.659349,1.0,3.47,-2.0,-3.63,1.37,-10.38,43.75,-44.19,-140.25,94.37,-1.9105585637504716,-2.66651291061274,5.510456932641956,-102.90650718749764,-72.88275430640832,-20.879328419459103,0.0511,-0.7821,-0.594,-0.1812
625446.0,417.697051,1.0,2.62,-1.78,-3.85,7.38,-11.19,43.38,-61.31,-90.44,110.81,-1.7484140517136102,-2.1766607416849406,5.6762146331920444,-107.9382233400721,-68.79069483955587,-18.715683728517142,0.0215,-0.8087,-0.5649,-0.1626
625481.0,417.718992,1.0,1.21,0.09,-2.29,7.38,-11.19,43.38,-132.0,-31.31,140.56,-0.10049752701099846,-0.6396540943409035,7.297259060616979,-112.13586614925855,-64.43029923866771,-19.05256341690962,-0.0029,-0.8297,-0.5331,-0.1655
625516.0,417.746518,1.0,1.3,5.01,-3.73,10.38,-13.06,41.38,-150.13,28.75,147.44,3.2882636610461646,2.065972658159866,4.744824334177525,-117.27684633570153,-57.579905543790595,-22.431032941974188,-0.0346,-0.8539,-0.4816,-0.1945
625551.0,417.78912,1.0,1.83,8.9,-4.63,9.19,-19.37,40.06,-113.87,85.81,119.94,5.6124668683804275,4.4101277757235815,2.5233273617308836,-119.67412364784862,-53.10273871771934,-25.99399574998519,-0.0466,-0.8646,-0.447,-0.2249
625588.0,417.866362,1.0,2.46,13.86,-6.03,5.06,-23.87,38.0,-99.0,141.25,68.56,7.593022791488773,8.03971033115863,-0.7867990454711364,-119.92546492630352,-48.8371944099726,-32.19825231317595,-0.0531,-0.8657,-0.4134,-0.2773
625623.0,417.870324,1.0,4.67,14.23,-5.98,5.06,-23.87,38.0,-23.19,230.56,-8.56,7.874715757671433,7.3742923881215745,-2.1796281341988504,-114.95918116675217,-48.58562199629408,-40.27814205807221,-0.0345,-0.8432,-0.4114,-0.3443
625659.0,417.916384,1.0,10.64,11.21,-11.81,-0.5,-26.87,34.69,38.19,293.81,-113.44,3.197010225442911,3.449012175495887,-9.067492116443193,-107.37517302657601,-51.443358765022325,-47.50667419847937,-0.0081,-0.8058,-0.434,-0.4028
625696.0,417.946095,1.0,12.55,8.92,-15.27,-7.69,-28.19,35.5,95.06,111.06,-131.75,-0.9773354818163877,2.479715309780091,-11.713982596148865,-99.67174578184968,-57.4491925846356,-50.922428119417354,0.0174,-0.7642,-0.4806,-0.4299
625731.0,417.973024,1.0,10.73,3.9,-8.86,-7.69,-28.19,35.5,206.25,-2.5,-184.25,-0.7588530618862634,-2.20772876987186,-4.454926901210678,-95.76994903311295,-64.22724850843994,-48.09577032776433,0.0333,-0.7418,-0.5316,-0.4075
625766.0,418.014466,1.0,10.33,-4.56,-6.88,-10.25,-26.19,36.25,188.56,0.81,-119.31,-6.962967796285922,-5.906491279122564,0.24279407064105563,-90.92638018985899,-72.28563375882278,-43.949753171483536,0.0624,-0.7128,-0.5898,-0.3742
625801.0,418.03702,1.0,7.6,1.24,-8.3,-6.88,-22.75,40.0,-24.44,-25.81,-19.94,-2.606651884764532,-1.3971540864124892,-1.1222532574396258,-90.07995743217866,-73.53939139013687,-43.5175891368055,0.0584,-0.7076,-0.5986,-0.3707
625838.0,418.082354,1.0,6.55,2.49,-7.42,-5.38,-20.19,41.19,17.5,-38.5,-16.56,-1.0439215043455325,-0.9410392499671532,-0.3019440181009454,-90.29097328332108,-74.3282126664446,-42.26181180963939,0.051,-0.7089,-0.6041,-0.3605
625872.0,418.106021,1.0,6.11,0.8,-6.44,-5.38,-20.19,41.19,33.5,-54.13,-7.19,-1.9524691446310887,-1.719936061717097,1.2816641241836262,-90.6000857125261,-75.29474135486807,-40.4124303196771,0.05,-0.7108,-0.6108,-0.3454
625909.0,418.159388,1.0,5.08,2.4,-5.76,-3.06,-19.75,42.5,-4.38,-22.81,3.19,-0.15137766531048724,-0.9881470475826124,1.8226253122376352,-91.27000879817415,-75.49749569312627,-39.14507588885785,0.0433,-0.7149,-0.6122,-0.335
625944.0,418.169363,1.0,5.0,2.79,-6.84,-0.37,-19.06,42.06,-11.38,12.81,-4.25,-0.29129358604048594,-0.309660068406841,0.8966018133308644,-91.18809708858042,-75.48300403742995,-39.31538744994931,0.0424,-0.7144,-0.6121,-0.3364
625977.0,418.224423,1.0,5.58,2.86,-7.94,-0.37,-19.06,42.06,-6.5,10.38,-1.12,-0.7983541729744816,-0.1692257369178169,-0.2776741352337968,-90.71418173754832,-75.42505159244898,-40.13171155486349,0.0427,-0.7115,-0.6117,-0.3431
626012.0,418.253036,1.0,5.09,4.13,-7.9,-0.37,-19.75,42.0,-6.38,-20.0,3.94,0.34514175078221543,0.48948270809997046,-0.4410953056922775,-91.02445270227788,-75.23686238255408,-39.98534936807033,0.0397,-0.7134,-0.6104,-0.3419
626049.0,418.293739,1.0,5.04,3.82,-7.45,-1.88,-19.37,42.5,9.13,9.19,-19.56,0.25891433389450524,0.19114449608800538,0.03971971718753231,-90.58379565299512,-75.81667229763627,-39.81467938235784,0.0393,-0.7107,-0.6144,-0.3405
626083.0,418.317047,1.0,4.43,2.19,-5.85,-1.88,-19.37,42.5,0.06,-15.38,-0.44,-0.5082648655483903,-0.48257430947913116,2.1808851949276704,-90.40475908773536,-76.18021553240146,-39.534492464525485,0.0388,-0.7096,-0.6169,-0.3382
626118.0,418.352413,1.0,4.33,4.78,-7.28,-1.19,-19.75,41.25,-31.44,11.69,-4.25,0.9825187810187965,0.8974234917444529,0.17207746555870607,-90.46983065734315,-75.54097917727157,-40.4979166397379,0.0294,-0.71,-0.6125,-0.3461
626153.0,418.395428,1.0,5.01,3.01,-7.21,-0.06,-20.56,41.19,6.06,0.56,1.37,-0.5664451101221748,-0.12530493521017072,0.5434033439710984,-90.37223725523552,-75.54097917727157,-40.656739432367544,0.0302,-0.7094,-0.6125,-0.3474
626188.0,418.422497,1.0,4.7,4.38,-7.31,-0.37,-21.25,41.19,-25.37,-1.81,2.63,0.5167079210245102,0.51491994735602,0.10209589524251328,-90.6326728543478,-75.07781120147469,-40.98686336329807,0.0253,-0.711,-0.6093,-0.3501
626223.0,418.475063,1.0,5.14,4.05,-7.69,-0.37,-21.25,41.19,-1.81,-7.13,2.13,0.02076500464270703,0.22146272589130253,-0.2883350458345415,-90.73049055841388,-74.91892947359993,-41.0847460230468,0.0233,-0.7116,-0.6082,-0.3509
626259.0,418.49805,1.0,4.97,4.24,-7.5,-1.19,-21.25,41.19,-9.13,-6.88,2.19,0.2733526837574005,0.28092920177733194,-0.1319040746061937,-91.00810135237641,-74.76021635401273,-40.91347187505044,0.0206,-0.7133,-0.6071,-0.3495
626294.0,418.538924,1.0,4.92,3.75,-7.39,0.25,-21.69,40.38,1.12,-0.31,-1.06,-0.11825652363831018,0.13456720096937114,0.17083622725406578,-91.02445270227788,-74.74579622029076,-40.92570257127247,0.0197,-0.7134,-0.607,-0.3496
626331.0,418.56247,1.0,4.81,3.99,-7.24,0.25,-21.69,40.38,0.56,-7.31,1.81,0.17436934023302086,0.20628897169815988,0.24627133629936004,-91.13897874666816,-74.71696010988838,-40.80341749737213,0.0192,-0.7141,-0.6068,-0.3486
626364.0,418.605082,1.0,4.92,3.72,-7.22,0.25,-22.37,40.75,2.19,-4.0,4.69,-0.018958629346226274,0.016889655560067107,0.31072691112083817,-91.36838194343346,-74.61607730658687,-40.595644110417574,0.0192,-0.7155,-0.6061,-0.3469
626401.0,418.647772,1.0,5.29,4.08,-7.83,0.25,-21.25,42.06,0.69,2.06,4.38,0.02422812973842392,0.08636630773770736,-0.4856458497420384,-91.36838194343346,-74.58726608016605,-40.632299856561154,0.02,-0.7155,-0.6059,-0.3472
626434.0,418.67071,1.0,5.14,3.84,-7.43,0.25,-21.25,42.06,1.25,-4.19,4.19,0.012099064845578766,-0.02975483688943284,-0.010124840155571135,-91.49968085011842,-74.50086547711395,-40.57120935574602,0.0201,-0.7163,-0.6053,-0.3467
626468.0,418.721039,1.0,5.19,3.97,-7.65,-0.06,-21.69,40.38,0.12,-3.75,5.75,0.040302458984933676,0.053236960902813935,-0.253918648828634,-91.74628360102051,-74.29945637663063,-40.47348957852154,0.0196,-0.7178,-0.6039,-0.3459
626503.0,418.740388,1.0,5.26,3.58,-7.69,-0.37,-22.37,40.5,-0.63,-8.0,7.56,-0.2919842054355395,-0.10325353519616873,-0.16953082891673077,-92.00993104367019,-74.12703326079642,-40.3269674651333,0.0195,-0.7194,-0.6027,-0.3447
626538.0,418.771568,1.0,5.04,4.05,-7.69,-0.37,-21.69,40.88,-4.69,-9.13,7.13,0.11399379625149031,0.17621872558457793,-0.23805767992625881,-92.4562672082187,-73.76844586798647,-40.19271594298347,0.0167,-0.7221,-0.6002,-0.3436
