TIME,ELAPSED_SECONDS,PSTATE,acc_x,acc_y,acc_z,mag_x,mag_y,mag_z,gyr_x,gyr_y,gyr_z,lin_x,lin_y,lin_z,eul_x,eul_y,eul_z,qua_w,qua_x,qua_y,qua_z
1119352.0,363.687067,1.0,1.69,0.51,-9.97,17.5,-8.56,44.75,5.06,8.5,-3.31,0.10700586483062013,-0.1859994625681903,-0.3161487209474938,-104.53939520886966,-74.76021635401273,-8.269226458088283,0.0269,-0.7909,-0.6071,-0.0721
1119387.0,363.740151,1.0,1.39,0.21,-9.68,16.75,-9.25,43.56,-7.06,2.5,2.31,-0.24935469130233567,0.005397208999142672,0.028286481084345283,-104.67057274431012,-74.60167100356148,-8.41859128124216,0.0272,-0.7916,-0.606,-0.0734
1119422.0,363.76291,1.0,1.28,0.81,-9.63,16.37,-8.56,43.5,-5.63,5.81,0.25,0.26180130468661433,0.2772819437570743,0.0657067807562548,-104.72685126814747,-74.50086547711395,-8.671395302011163,0.0264,-0.7919,-0.6053,-0.0756
1119459.0,363.802578,1.0,1.46,0.6,-9.56,17.5,-8.56,44.38,-3.44,6.56,-2.19,0.08980667884078009,0.07568214293889408,0.11792423374591543,-104.65182119248134,-74.54405958152292,-8.901253805563371,0.0272,-0.7915,-0.6056,-0.0776
1119492.0,363.863615,1.0,1.72,0.61,-9.99,17.5,-8.56,44.38,-3.75,5.94,-0.69,0.0979031960343627,-0.08151862939158291,-0.34787459139611343,-104.59559036293443,-74.55846036977005,-9.13114820216436,0.0275,-0.7912,-0.6057,-0.0796
1119528.0,363.873596,1.0,1.4,0.64,-9.56,16.0,-9.25,44.0,0.63,-0.12,-1.12,0.07229392200729445,0.17018747507483067,0.12527562379863078,-104.63307361365906,-74.515262135817,-9.188627520029689,0.027,-0.7914,-0.6054,-0.0801
1119563.0,363.909467,1.0,1.5,0.65,-9.55,16.37,-9.69,46.0,-2.13,2.75,-0.75,0.09948024938669608,0.08352904446545709,0.11860961100942369,-104.67057274431012,-74.47207628489996,-9.257605761151561,0.027,-0.7916,-0.6051,-0.0807
1119598.0,363.931576,1.0,1.41,0.8,-9.58,16.37,-9.69,46.0,-2.31,4.13,-2.31,0.1874744404881462,0.22165275299966236,0.09479006529895706,-104.61433000481748,-74.50086547711395,-9.430066128049688,0.0264,-0.7913,-0.6053,-0.0822
1119633.0,363.983676,1.0,1.38,0.58,-9.53,15.56,-9.25,45.19,-2.31,8.06,-3.5,-0.05000426697104843,0.20875165680578683,0.1621892935081366,-104.53939520886966,-74.55846036977005,-9.62554711472919,0.0267,-0.7909,-0.6057,-0.0839
1119668.0,364.011573,1.0,1.39,0.37,-9.6,16.75,-9.25,45.19,-4.88,15.38,-2.81,-0.28863122072442315,0.2187110740155862,0.10624498348001588,-104.37102298797173,-74.63048498986647,-10.005090889774307,0.0284,-0.79,-0.6062,-0.0872
1119703.0,364.052379,1.0,1.18,0.15,-10.55,16.75,-9.25,45.19,-4.56,22.06,-3.5,-0.7091938730495371,0.5966744077965622,-0.7696642777391798,-104.20296893682894,-74.67371632747869,-10.557352206642195,0.0302,-0.7891,-0.6065,-0.092
1119735.0,364.075144,1.0,2.56,0.03,-13.39,15.25,-8.88,44.38,4.63,-12.25,10.06,-0.8118456437381643,-0.21697856387705655,-3.7999817269764193,-104.25895173526338,-74.55846036977005,-10.833574298853826,0.032,-0.7894,-0.6057,-0.0944
1119772.0,364.119317,1.0,4.18,1.8,-14.99,14.5,-9.25,44.75,37.88,-80.81,30.5,1.4929439006388163,-1.4177615062414235,-5.7231140297901995,-105.25385814101203,-73.94046239689769,-8.889760035755181,0.028,-0.7947,-0.6014,-0.0775
1119809.0,364.156042,1.0,3.5,1.44,-14.06,16.37,-8.56,44.75,92.69,-168.44,27.75,2.1595962942511813,-2.0141986624946315,-4.451202138167988,-106.71980105429783,-73.13936663783451,-2.9682532975386033,0.0212,-0.8024,-0.5958,-0.0259
1119842.0,364.191576,1.0,1.06,-0.46,-8.85,16.37,-8.56,44.75,81.06,-230.44,49.44,0.6294644616582676,-1.6535580930546392,1.0586662251863572,-108.15279095507611,-71.54947374195105,5.777862453568277,0.0012,-0.8098,-0.5846,0.0504
1119881.0,364.234608,1.0,-2.32,0.18,-2.98,22.0,-6.69,41.0,64.5,-172.44,30.56,-0.13947217373343013,1.8036163089746342,6.486602451732837,-108.54434186923865,-70.21327111376787,11.466824127666603,-0.0153,-0.8118,-0.5751,0.0999
1119916.0,364.261047,1.0,-2.67,-1.52,-0.75,29.06,-4.88,40.19,42.56,-85.75,19.06,-2.116278404339878,1.756807895680565,8.24562734385465,-108.60323493215935,-69.05476022725051,15.690733139619654,-0.0224,-0.8121,-0.5668,0.1365
1119950.0,364.28803,1.0,-2.39,-0.14,-0.61,29.06,-4.88,40.19,-9.56,46.69,5.63,-0.7926526122362987,2.0178764622490437,8.62188149121178,-109.01667267342908,-68.73515523864087,15.401597439742238,-0.0221,-0.8142,-0.5645,0.134
1119983.0,364.326648,1.0,-1.75,-0.27,-1.18,33.19,-3.38,36.5,-29.87,151.88,-19.06,-0.661000016358357,1.4059987314874092,8.352673884161074,-109.47189924933485,-69.51439870357002,10.522828803347641,-0.0023,-0.8165,-0.5701,0.0917
1120020.0,364.369916,1.0,-0.03,-0.68,1.82,30.5,-4.06,39.0,-138.06,397.94,-57.38,-0.7404631556208288,-0.2436997976300666,11.586544582216348,-108.97720765299682,-70.9151528268418,1.3522117780748235,0.0255,-0.814,-0.5801,0.0118
1120057.0,364.395052,1.0,6.85,4.83,0.23,21.19,-5.56,44.38,-291.75,679.0,-114.5,6.124053062692316,-4.685543486475098,6.513330045656102,-102.00984028062227,-72.00208892273058,-24.467440757791284,0.0753,-0.7772,-0.5878,-0.2119
1120092.0,364.441576,1.0,18.36,11.88,-12.24,21.19,-5.56,44.38,-209.31,826.19,-170.25,5.659408728796611,-1.2964869141489443,-14.572271520893024,-88.21391588431884,-70.45156998938437,-48.17107106166801,0.1279,-0.696,-0.5768,-0.4081
1120131.0,364.478825,1.0,21.92,4.42,-15.07,-3.56,-15.69,45.56,-38.81,351.94,-114.87,-8.062360174887583,5.104661758748315,-15.413748028959807,-69.40285407677958,-69.20783162339399,-67.82138560708218,0.205,-0.5693,-0.5679,-0.5579
1120165.0,364.511572,1.0,16.34,8.62,-6.95,-27.56,-23.56,33.69,-82.81,-89.56,2.44,-0.2189308210515204,1.5429473951995898,-9.870084552034806,-69.97532009784457,-67.91806721211006,-69.47256064706727,0.1858,-0.5734,-0.5586,-0.5698
1120200.0,364.551264,1.0,14.91,6.32,-6.44,-27.56,-23.56,33.69,54.56,-101.81,6.44,-1.1411912377308306,0.18810355373743048,-7.582611042723981,-72.10127150439342,-68.84625287494748,-66.8438272739107,0.1752,-0.5885,-0.5653,-0.5508
1120235.0,364.574145,1.0,17.1,4.35,-11.29,-28.25,-26.19,33.69,74.69,-272.81,38.44,-3.760016943430533,-0.4269840975659185,-10.796178863181412,-78.4400339000036,-71.57772437161505,-58.09047248173242,0.1499,-0.6323,-0.5848,-0.4855
1120272.0,364.61416,1.0,11.15,4.06,-6.94,-24.37,-24.56,36.19,165.25,-504.81,118.19,0.9697369721808125,-3.00599040059376,-3.5721889599517844,-88.2298758601719,-73.49648178219451,-44.64258950046725,0.1148,-0.6961,-0.5983,-0.3798
1120309.0,364.662106,1.0,9.43,2.14,-6.5,-10.06,-17.75,44.19,201.94,-476.56,117.94,2.12214231915102,-5.306420601333889,-0.3468179976354655,-99.2816642471814,-74.3425928628069,-25.359334591166075,0.0784,-0.762,-0.6042,-0.2195
1120344.0,364.687053,1.0,2.31,-2.69,-2.24,-10.06,-17.75,44.19,103.5,-485.44,145.13,-2.0022076659309036,-2.7891524593074455,7.398000373917629,-108.17232459490296,-71.26724268861088,-7.407773121999346,0.0213,-0.8099,-0.5826,-0.0646
1120380.0,364.725153,1.0,0.31,0.81,-9.18,7.5,-10.69,46.69,0.19,-423.69,148.88,0.855437541177291,-0.7664065810545683,0.6575818744660769,-112.96142996660548,-66.80264364391536,2.6931495578860725,-0.0367,-0.8337,-0.5505,0.0235
1120417.0,364.762655,1.0,-4.67,2.59,-3.92,23.87,-10.25,41.19,68.31,-324.56,102.56,0.7049289338750393,4.0298783104560005,4.596414304649731,-115.6229775841169,-61.26106146367893,14.800508833176536,-0.0878,-0.8463,-0.5095,0.1288
1120452.0,364.794567,1.0,-4.51,1.51,-5.81,23.87,-10.25,41.19,60.06,-236.94,92.12,0.46421762486859075,2.1989254115785246,2.642466234135563,-116.40158899740273,-57.4753286330549,21.718849470413215,-0.1048,-0.8499,-0.4808,0.1884
1120487.0,364.839141,1.0,-7.19,2.96,-0.7,34.75,-11.5,34.25,22.37,-115.62,48.25,-0.750165785004592,6.52387592235507,5.584802744979485,-116.40158899740273,-54.50336228612648,26.5588202853178,-0.1233,-0.8499,-0.4579,0.2297
1120522.0,364.878899,1.0,-5.38,3.57,2.2,39.19,-13.25,27.56,-35.0,174.88,-22.81,-0.15238794033345648,6.798754985036764,9.274664502943297,-117.29886813726063,-55.25224136431043,23.77608871350926,-0.1151,-0.854,-0.4637,0.206
1120561.0,364.922987,1.0,0.51,5.81,-1.06,37.25,-14.06,31.0,-92.37,499.0,-106.06,5.394758612710817,2.1622613221592166,8.640028602426339,-118.09633929648312,-60.22506994607292,9.76355056625781,-0.0745,-0.8576,-0.5017,0.0851
1120595.0,364.939167,1.0,5.81,4.35,-8.72,37.25,-14.06,31.0,-80.25,606.88,-161.75,4.848111171761522,-2.584123079034938,-0.11983608414075597,-111.86945684906632,-66.99491759872723,-10.902639624835572,0.0074,-0.8284,-0.5519,-0.095
1120632.0,365.005231,1.0,11.07,-4.6,-24.2,25.25,-12.56,40.5,67.81,198.94,-72.69,-5.773509189574471,-4.403280584830199,-16.2053205468301,-106.14568942292729,-70.08725387641728,-19.017706136871343,0.0637,-0.7994,-0.5742,-0.1652
1120669.0,365.012212,1.0,3.19,0.84,-7.37,7.38,-12.56,46.25,123.69,-164.25,19.31,0.9208785381960989,-0.8449800251196791,1.8293953672934222,-107.04685331847435,-70.70426845211382,-13.634163660769715,0.0667,-0.8041,-0.5786,-0.1187
1120704.0,365.063075,1.0,3.48,-6.52,-4.62,7.38,-12.56,46.25,64.31,9.56,-7.63,-5.38742582235316,-4.111372785133426,4.326006166442981,-106.89278954728871,-71.29544333954917,-10.534336497867198,0.0815,-0.8033,-0.5828,-0.0918
1120737.0,365.07305,1.0,4.91,-2.43,-9.48,11.06,-8.06,46.69,-124.81,101.5,0.12,-2.0445916030324813,-2.635755497907543,-0.6219567205576038,-106.6622162163593,-70.52172446832354,-15.32065719904219,0.0748,-0.8021,-0.5773,-0.1333
1120774.0,365.116056,1.0,7.7,-3.6,-14.56,10.0,-8.06,47.56,-83.25,62.38,34.75,-3.789165127562999,-3.787951166066678,-6.178882634215059,-106.98904660999506,-69.13823625091533,-19.006087438353557,0.0677,-0.8038,-0.5674,-0.1651
1120811.0,365.163111,1.0,6.12,-1.38,-12.19,6.25,-12.19,46.25,-94.44,-148.38,118.62,-1.7422519166944155,-3.190731811177475,-3.412226229389349,-111.52245118481589,-65.19037198254591,-18.28610812832939,0.0339,-0.8267,-0.5387,-0.1589
1120845.0,365.188916,1.0,1.52,3.64,-6.51,6.25,-12.19,46.25,-107.87,-100.19,119.0,2.1254126838041727,1.3517031618520716,2.6236409170485206,-117.23282354978821,-60.02646555170329,-16.628233533749977,-0.0095,-0.8537,-0.5002,-0.1446
1120882.0,365.236998,1.0,2.25,6.03,-10.76,8.88,-16.0,45.88,-91.81,-10.94,68.12,2.8452076446181214,2.344768747774082,-2.176999401516577,-119.4919242535424,-57.21411483330134,-17.682816604505923,-0.0327,-0.8638,-0.4788,-0.1537
1120919.0,365.267527,1.0,1.73,5.58,-9.18,10.38,-20.75,42.06,-38.13,-34.63,45.56,2.417989900395372,2.2850702039114794,-0.5535372089640358,-121.59481456130888,-54.800027778247525,-17.77559810564146,-0.0495,-0.8729,-0.4602,-0.1545
1120954.0,365.302523,1.0,0.81,5.24,-8.18,10.38,-20.75,42.06,-16.81,-2.44,22.37,1.868535714578219,2.749194098570502,0.6427749412854364,-122.49362599915797,-53.744148912591335,-17.79879531415178,-0.0561,-0.8767,-0.452,-0.1547
1120989.0,365.328546,1.0,1.22,3.89,-8.78,10.75,-23.06,40.06,-1.0,19.75,2.69,0.782146838971177,1.7449075037102895,0.317053373916103,-122.51745226375391,-53.525866533741606,-18.40218382722317,-0.0536,-0.8768,-0.4503,-0.1599
1121024.0,365.370055,1.0,2.17,3.56,-9.62,10.75,-23.75,41.0,3.44,7.44,1.69,0.7338103010356544,0.8903359987449633,-0.6142772260885074,-122.42220131273352,-53.525866533741606,-18.73891153732938,-0.0515,-0.8764,-0.4503,-0.1628
1121060.0,365.407026,1.0,1.83,2.89,-9.22,9.19,-23.75,40.5,15.19,0.75,-8.06,0.22149521703105324,0.7761962102238407,0.005738852965425423,-122.32709422851921,-53.744148912591335,-18.553110733389566,-0.0486,-0.876,-0.452,-0.1612
1121095.0,365.432468,1.0,1.68,2.39,-8.99,9.19,-23.75,40.5,1.94,3.13,-7.38,-0.14495524311081753,0.6120875199362461,0.37484546187300616,-122.08995125628032,-54.02694525714765,-18.49505809550988,-0.0466,-0.875,-0.4542,-0.1607
1121130.0,365.490443,1.0,2.54,2.22,-9.91,8.75,-23.5,42.06,6.69,21.87,-8.81,-0.1745240702908819,-0.056424038281786104,-0.6601765332331322,-121.6183055994286,-54.361618663998435,-18.97123252547226,-0.0445,-0.873,-0.4568,-0.1648
1121167.0,365.511575,1.0,3.06,2.34,-10.31,9.19,-22.69,42.19,2.75,3.81,-5.44,0.039860147784434696,-0.3262956216486952,-1.1945882183057694,-121.24347666895369,-54.69679474885505,-19.215254308568724,-0.0422,-0.8714,-0.4594,-0.1669
1121200.0,365.553246,1.0,2.34,2.23,-9.14,9.19,-22.69,42.19,6.31,-10.19,-5.31,0.01948276763839707,0.06509097460702645,0.11214209156081445,-121.19677615362598,-54.89039623695748,-18.820214993044136,-0.0424,-0.8712,-0.4609,-0.1635
1121234.0,365.594623,1.0,2.34,2.18,-9.18,8.75,-22.69,41.75,1.0,6.75,-5.94,-0.026058841654978515,0.040315224508789105,0.08563690364813858,-121.01031078825766,-55.11001684998347,-18.796984460560502,-0.0419,-0.8704,-0.4626,-0.1633
1121271.0,365.617581,1.0,2.59,2.25,-9.47,8.75,-22.69,41.38,2.56,-2.56,-4.44,0.04280305128324491,-0.08656941153985948,-0.26520055666467535,-120.75479321636242,-55.31691940731036,-18.959614614971,-0.0414,-0.8693,-0.4642,-0.1647
1121306.0,365.65486,1.0,2.38,2.12,-8.84,8.75,-22.69,41.38,6.25,-8.75,-3.81,0.08014556253278782,-0.06265362617309567,0.4101585690491003,-120.75479321636242,-55.43338813739566,-18.657617598655083,-0.0413,-0.8693,-0.4651,-0.1621
1121339.0,365.693741,1.0,2.57,1.97,-9.34,9.19,-22.0,42.19,-3.81,3.13,-4.06,-0.09574467529826225,-0.2719472474979502,-0.07455830929752061,-120.5002737712679,-55.73131367504011,-18.611168175342147,-0.0411,-0.8682,-0.4674,-0.1617
1121374.0,365.72201,1.0,2.34,2.12,-9.27,10.25,-22.25,42.06,-0.5,2.31,-3.25,-0.08840338506888612,-0.004534553028211374,0.014047471594325955,-120.29276401197048,-55.89988753147071,-18.70407011512631,-0.0413,-0.8673,-0.4687,-0.1625
