acc_x,acc_y,acc_z,lin_x,lin_y,lin_z,eul_x,eul_y,eul_z
9.44,-1.31,2.44,0.1007490537753382,-0.130110597376231,-0.0298240054866063,-76.32588599826201,-0.8823637238721431,-102.28340450662311
9.44,-1.31,2.44,0.1007490537753382,-0.130110597376231,-0.0298240054866063,-76.32588599826201,-0.8823637238721431,-102.28340450662311
9.5,-1.22,2.3,-0.1968138414994855,0.0459307767019748,-0.0415759659060324,-75.3236892986672,-0.3093975852894872,-103.34891599443549
9.5,-1.22,2.3,-0.1968138414994855,0.0459307767019748,-0.0415759659060324,-75.3236892986672,-0.3093975852894872,-103.34891599443549
9.55,-1.07,2.22,-0.4400140517639399,0.2688167345534248,-0.0427116644671112,-74.2563321899432,0.3666936147093117,-104.50195155237604
9.55,-1.07,2.22,-0.4400140517639399,0.2688167345534248,-0.0427116644671112,-74.2563321899432,0.3666936147093117,-104.50195155237604
9.26,-1.37,2.79,0.0279784664546587,-0.0978622391312918,0.0394477297709698,-73.62524665323141,0.8479852761926534,-105.19724163612636
9.26,-1.37,2.79,0.0279784664546587,-0.0978622391312918,0.0394477297709698,-73.62524665323141,0.8479852761926534,-105.19724163612636
9.1,-1.3,3.16,0.2656289722687361,-0.02533165720528,0.0899427616278032,-72.58390841157699,1.4095117183833985,-106.26020470831196
9.1,-1.3,3.16,0.2656289722687361,-0.02533165720528,0.0899427616278032,-72.58390841157699,1.4095117183833985,-106.26020470831196
9.38,-1.31,2.74,-0.3601032156223969,0.0990848080129617,-0.0456902232626657,-71.69077715376791,1.8450038134157023,-107.1625852400296
9.38,-1.31,2.74,-0.3601032156223969,0.0990848080129617,-0.0456902232626657,-71.69077715376791,1.8450038134157023,-107.1625852400296
9.32,-1.36,2.65,-0.5376499063461303,0.0853150735601553,0.0374046905388105,-71.05589605083351,2.2919839967771853,-107.8408750363796
9.32,-1.36,2.65,-0.5376499063461303,0.0853150735601553,0.0374046905388105,-71.05589605083351,2.2919839967771853,-107.8408750363796
9.25,-1.24,3.02,-0.1645684102488037,0.1755176430101807,0.0003963424944828,-70.97143532628913,2.4639083675369537,-107.9382233400721
9.25,-1.24,3.02,-0.1645684102488037,0.1755176430101807,0.0003963424944828,-70.97143532628913,2.4639083675369537,-107.9382233400721
9.28,-1.3,3.03,-0.1607804636844465,0.1183874453703996,-0.0396403702499075,-71.04181617810505,2.509755787270372,-107.8992703852027
9.28,-1.3,3.03,-0.1607804636844465,0.1183874453703996,-0.0396403702499075,-71.04181617810505,2.509755787270372,-107.8992703852027
9.05,-1.28,3.09,-0.0192729253457853,0.0808574182499115,0.1587439768122447,-71.11222790088254,2.452446574526375,-107.82141899407463
9.05,-1.28,3.09,-0.0192729253457853,0.0808574182499115,0.1587439768122447,-71.11222790088254,2.452446574526375,-107.82141899407463
9.15,-1.34,3.1,-0.0408255774550968,0.0146908373310749,0.0533829857363183,-71.18267056189946,2.142987063023817,-107.74364009530142
9.15,-1.34,3.1,-0.0408255774550968,0.0146908373310749,0.0533829857363183,-71.18267056189946,2.142987063023817,-107.74364009530142
9.16,-1.43,3.29,0.1291726279933915,-0.1063033650022034,-0.029335666254628,-71.22495103692498,1.9825328715837247,-107.68535335119316
9.16,-1.43,3.29,0.1291726279933915,-0.1063033650022034,-0.029335666254628,-71.22495103692498,1.9825328715837247,-107.68535335119316
9.12,-1.42,3.16,0.0193857156506444,-0.1092324868955548,0.0514415215596049,-71.23904701158034,1.856464464018338,-107.68535335119316
9.12,-1.42,3.16,0.0193857156506444,-0.1092324868955548,0.0514415215596049,-71.23904701158034,1.856464464018338,-107.68535335119316
9.18,-1.41,3.01,-0.1472793300025926,-0.0761633090278515,0.0448311147044986,-71.18267056189946,1.925228761643688,-107.74364009530142
9.18,-1.41,3.01,-0.1472793300025926,-0.0761633090278515,0.0448311147044986,-71.18267056189946,1.925228761643688,-107.74364009530142
9.14,-1.24,3.17,0.0325876425144405,0.0680941897517956,0.0536811583150527,-71.1544897805901,1.925228761643688,-107.7825204980392
9.14,-1.24,3.17,0.0325876425144405,0.0680941897517956,0.0536811583150527,-71.1544897805901,1.925228761643688,-107.7825204980392
9.15,-1.35,3.25,0.0804724593848447,-0.0499780392941829,0.003664415043298,-71.0981430834236,1.8908465277120163,-107.8408750363796
9.15,-1.35,3.25,0.0804724593848447,-0.0499780392941829,0.003664415043298,-71.0981430834236,1.8908465277120163,-107.8408750363796
9.24,-1.37,3.0,-0.2063756455581614,-0.0306843049528618,-0.0020689564361564,-70.97143532628913,1.959611168911186,-107.9771945077934
9.24,-1.37,3.0,-0.2063756455581614,-0.0306843049528618,-0.0020689564361564,-70.97143532628913,1.959611168911186,-107.9771945077934
9.31,-1.17,3.03,-0.1740783725952308,0.1721580363580261,-0.050629458892903,-70.97143532628913,2.0398374773549266,-107.99668693087187
9.31,-1.17,3.03,-0.1740783725952308,0.1721580363580261,-0.050629458892903,-70.97143532628913,2.0398374773549266,-107.99668693087187
9.31,-1.39,3.15,-0.0715580872987797,-0.0711891683715914,-0.1190999234288945,-71.08405950295473,1.9366895446536667,-107.8992703852027
9.31,-1.39,3.15,-0.0715580872987797,-0.0711891683715914,-0.1190999234288945,-71.08405950295473,1.9366895446536667,-107.8992703852027
9.32,-1.27,3.36,0.1677780922154555,0.0107071597979655,-0.1801731119060896,-71.26724268861088,1.856464464018338,-107.74364009530142
9.32,-1.27,3.36,0.1677780922154555,0.0107071597979655,-0.1801731119060896,-71.26724268861088,1.856464464018338,-107.74364009530142
10.93,-0.56,2.51,-1.0321315786158003,0.9217754647402212,-1.3362237046161916,-71.36596675624855,1.5011923619341792,-107.74364009530142
10.93,-0.56,2.51,-1.0321315786158003,0.9217754647402212,-1.3362237046161916,-71.36596675624855,1.5011923619341792,-107.74364009530142
11.85,-1.46,2.38,-1.4487858209357858,-0.0533232891903259,-2.2812231078666336,-71.91712490112356,1.100095864564908,-107.39452579488425
11.85,-1.46,2.38,-1.4487858209357858,-0.0533232891903259,-2.2812231078666336,-71.91712490112356,1.100095864564908,-107.39452579488425
11.35,-0.36,3.59,0.1867661007669258,0.5399851167646086,-2.089304543342749,-73.19644946904657,1.0313379546174166,-106.47054675108936
11.35,-0.36,3.59,0.1867661007669258,0.5399851167646086,-2.089304543342749,-73.19644946904657,1.0313379546174166,-106.47054675108936
8.88,-3.37,1.09,-1.7606000493525005,-2.7817633084777893,0.8310452648399949,-72.91124580679356,0.206264917630254,-106.87355122081516
8.88,-3.37,1.09,-1.7606000493525005,-2.7817633084777893,0.8310452648399949,-72.91124580679356,0.206264917630254,-106.87355122081516
11.01,-5.39,4.38,-0.0159439244135116,-4.714773560084079,-2.327073915946267,-70.21327111376787,-0.1145915781247664,-109.47189924933484
11.01,-5.39,4.38,-0.0159439244135116,-4.714773560084079,-2.327073915946267,-70.21327111376787,-0.1145915781247664,-109.47189924933484
10.78,0.15,9.28,4.003409001216658,1.227110782934352,-3.7880627772301168,-65.39450949953873,3.025568677774776,-114.28023924222178
10.78,0.15,9.28,4.003409001216658,1.227110782934352,-3.7880627772301168,-65.39450949953873,3.025568677774776,-114.28023924222178
9.43,1.41,12.04,4.666737431994715,3.348488811736254,-4.437077897516738,-55.549919093881286,6.650042440520529,-123.76914279530573
9.43,1.41,12.04,4.666737431994715,3.348488811736254,-4.437077897516738,-55.549919093881286,6.650042440520529,-123.76914279530573
13.49,-2.79,6.6,-3.900893245173824,-0.4774964236206052,-4.954082673386736,-49.013444327725786,6.512305468988996,-130.10645331555745
13.49,-2.79,6.6,-3.900893245173824,-0.4774964236206052,-4.954082673386736,-49.013444327725786,6.512305468988996,-130.10645331555745
13.28,-1.09,12.01,0.0075823021913263,1.6599994021176787,-8.054787357997318,-47.59432704723895,5.686074397008276,-131.1213744286973
13.28,-1.09,12.01,0.0075823021913263,1.6599994021176787,-8.054787357997318,-47.59432704723895,5.686074397008276,-131.1213744286973
12.76,3.22,9.27,-1.2993620789652764,5.996171162045872,-5.075436197277462,-46.88143541316104,5.938500516393254,-131.4269409010407
12.76,3.22,9.27,-1.2993620789652764,5.996171162045872,-5.075436197277462,-46.88143541316104,5.938500516393254,-131.4269409010407
11.24,3.69,6.9,-2.369653549283012,5.942996500467409,-2.302405894321516,-45.01445861245965,5.0665975409818325,-133.3865649159552
11.24,3.69,6.9,-2.369653549283012,5.942996500467409,-2.302405894321516,-45.01445861245965,5.0665975409818325,-133.3865649159552
9.59,2.2,7.29,-1.0561317429099069,3.5202380063795102,-1.874305017465796,-45.52349068442483,1.7647797695524667,-133.27085000109963
9.59,2.2,7.29,-1.0561317429099069,3.5202380063795102,-1.874305017465796,-45.52349068442483,1.7647797695524667,-133.27085000109963
7.48,2.82,5.13,-0.4869864266320415,3.0597827262722403,0.8277706774852938,-48.93789354543228,-3.6331610823402585,-129.86249210271768
7.48,2.82,5.13,-0.4869864266320415,3.0597827262722403,0.8277706774852938,-48.93789354543228,-3.6331610823402585,-129.86249210271768
5.95,1.1,5.21,1.1381440051148162,0.2158967181980256,1.9063578009296045,-55.35573541687352,-10.603384906468609,-122.3270942285192
5.95,1.1,5.21,1.1381440051148162,0.2158967181980256,1.9063578009296045,-55.35573541687352,-10.603384906468609,-122.3270942285192
7.89,0.51,-1.45,-4.632176817761639,1.2376540240382423,3.354840141845965,-61.63430677668394,-15.563501157916,-114.66137227839891
7.89,0.51,-1.45,-4.632176817761639,1.2376540240382423,3.354840141845965,-61.63430677668394,-15.563501157916,-114.66137227839891
9.25,0.94,-3.02,-4.4269573296077,1.6730100172928764,1.252727725167805,-75.06336041857055,-21.497196482057948,-99.2816642471814
9.25,0.94,-3.02,-4.4269573296077,1.6730100172928764,1.252727725167805,-75.06336041857055,-21.497196482057948,-99.2816642471814
8.62,0.79,1.02,1.1725254275124355,-1.0082921151025688,1.2289212136336012,-87.62490137692915,-25.60605217391993,-85.03261129904976
8.62,0.79,1.02,1.1725254275124355,-1.0082921151025688,1.2289212136336012,-87.62490137692915,-25.60605217391993,-85.03261129904976
7.34,0.83,2.88,4.62564996642222,-2.5661519002046345,3.900964026870864,-102.92489803406494,-29.21547025317705,-67.69716119258844
7.34,0.83,2.88,4.62564996642222,-2.5661519002046345,3.900964026870864,-102.92489803406494,-29.21547025317705,-67.69716119258844
7.22,1.63,0.2,3.815752381332429,-1.1750546620198916,3.570899820140223,-111.25813232752796,-31.031112572318907,-58.11668937344475
7.22,1.63,0.2,3.815752381332429,-1.1750546620198916,3.570899820140223,-111.25813232752796,-31.031112572318907,-58.11668937344475
6.92,0.4,-1.55,2.640946786554513,-2.1114830678783267,3.5603759646529665,-118.8580978383618,-33.991407904492696,-48.20872972254528
6.92,0.4,-1.55,2.640946786554513,-2.1114830678783267,3.5603759646529665,-118.8580978383618,-33.991407904492696,-48.20872972254528
6.89,1.32,-1.9,3.6245703627305614,-1.7716832763144523,3.7611452192523314,-124.08607855408228,-36.10640826375515,-40.4124303196771
6.89,1.32,-1.9,3.6245703627305614,-1.7716832763144523,3.7611452192523314,-124.08607855408228,-36.10640826375515,-40.4124303196771
6.36,0.9,-4.7,2.44596670342456,-1.7024407595710405,2.4263693585955286,-128.57965137649458,-39.278884517127096,-31.28093182906108
6.36,0.9,-4.7,2.44596670342456,-1.7024407595710405,2.4263693585955286,-128.57965137649458,-39.278884517127096,-31.28093182906108
5.85,-1.38,-5.45,0.8391467683437062,-3.3982897511593846,2.4870284613995635,-129.78141812262746,-42.138984987119,-25.512050354420897
5.85,-1.38,-5.45,0.8391467683437062,-3.3982897511593846,2.4870284613995635,-129.78141812262746,-42.138984987119,-25.512050354420897
5.64,-1.44,-7.92,0.6643247073382752,-3.274767047379432,0.563048241560935,-131.31561745343842,-44.37020029186166,-18.460228812044047
5.64,-1.44,-7.92,0.6643247073382752,-3.274767047379432,0.563048241560935,-131.31561745343842,-44.37020029186166,-18.460228812044047
3.76,-0.67,-6.86,0.9356781529756412,-2.260828904742749,2.3461366760038667,-132.32631788342704,-45.95878171202678,-11.535926836248436
3.76,-0.67,-6.86,0.9356781529756412,-2.260828904742749,2.3461366760038667,-132.32631788342704,-45.95878171202678,-11.535926836248436
2.9,-1.49,-8.38,0.0730043665458483,-2.3876143019501703,1.137828378372971,-132.269639855159,-47.0813498800656,-6.971466463000762
2.9,-1.49,-8.38,0.0730043665458483,-2.3876143019501703,1.137828378372971,-132.269639855159,-47.0813498800656,-6.971466463000762
1.09,-1.93,-7.89,-0.7488378671375369,-1.758523329561365,1.8372122815577927,-132.09998463629478,-47.81985609667796,-1.3407518310456548
1.09,-1.93,-7.89,-0.7488378671375369,-1.758523329561365,1.8372122815577927,-132.09998463629478,-47.81985609667796,-1.3407518310456548
-0.42,-1.74,-7.97,-1.212718732971274,-0.7174687794479142,1.7605669886696995,-131.48269259246572,-48.42223359833176,2.0398374773549266
-0.42,-1.74,-7.97,-1.212718732971274,-0.7174687794479142,1.7605669886696995,-131.48269259246572,-48.42223359833176,2.0398374773549266
-0.87,-2.46,-8.19,-1.6421531346275944,-1.0136353275026164,1.4304649193519232,-130.81759051018483,-48.83719440997261,5.078067932263361
-0.87,-2.46,-8.19,-1.6421531346275944,-1.0136353275026164,1.4304649193519232,-130.81759051018483,-48.83719440997261,5.078067932263361
-1.55,-1.68,-7.36,-1.3950000506448208,-0.0722667218823528,2.2275173069005216,-131.09368455172458,-48.371981330891565,6.592650878252481
-1.55,-1.68,-7.36,-1.3950000506448208,-0.0722667218823528,2.2275173069005216,-131.09368455172458,-48.371981330891565,6.592650878252481
-0.65,-1.08,-8.38,-0.2119916149524662,-0.3609361839296025,1.3427215606569425,-131.0660093808112,-48.34685890896744,6.730393436549607
-0.65,-1.08,-8.38,-0.2119916149524662,-0.3609361839296025,1.3427215606569425,-131.0660093808112,-48.34685890896744,6.730393436549607
0.42,-1.26,-10.81,0.5268987594675474,-1.2325645442302902,-1.0018310376656512,-130.87269286132403,-48.66106748213056,5.961449757231111
0.42,-1.26,-10.81,0.5268987594675474,-1.2325645442302902,-1.0018310376656512,-130.87269286132403,-48.66106748213056,5.961449757231111
-0.36,-0.7,-9.08,0.2222933615199005,-0.2941181199625365,0.700054577289384,-131.03834889093932,-48.522767881927,5.915551513947968
-0.36,-0.7,-9.08,0.2222933615199005,-0.2941181199625365,0.700054577289384,-131.03834889093932,-48.522767881927,5.915551513947968
0.1,-0.33,-10.15,0.8344335306575633,-0.4105746960127672,-0.306536891475325,-131.1767984012427,-48.44736344772761,5.502509177758649
0.1,-0.33,-10.15,0.8344335306575633,-0.4105746960127672,-0.306536891475325,-131.1767984012427,-48.44736344772761,5.502509177758649
-0.36,-0.55,-9.59,0.2341627312889988,-0.210067343962218,0.1992965909556581,-130.90026578643878,-48.774277851992856,5.101008867683621
-0.36,-0.55,-9.59,0.2341627312889988,-0.210067343962218,0.1992965909556581,-130.90026578643878,-48.774277851992856,5.101008867683621
-0.52,-0.71,-9.35,-0.0495019541225164,-0.1727066515522378,0.4170428746167616,-130.54294242265092,-49.164614087930325,4.860139072417077
-0.52,-0.71,-9.35,-0.0495019541225164,-0.1727066515522378,0.4170428746167616,-130.54294242265092,-49.164614087930325,4.860139072417077
0.03,-0.32,-9.99,0.5503560923144759,-0.3046385950226068,-0.1687048056234577,-130.57034285366944,-49.20242077437143,4.206454848857137
0.03,-0.32,-9.99,0.5503560923144759,-0.3046385950226068,-0.1687048056234577,-130.57034285366944,-49.20242077437143,4.206454848857137
0.22,-0.72,-10.37,0.3117046290920609,-0.6891278858383613,-0.5630965244413062,-130.24247093533856,-49.58080290531658,3.724881599063971
0.22,-0.72,-10.37,0.3117046290920609,-0.6891278858383613,-0.5630965244413062,-130.24247093533856,-49.58080290531658,3.724881599063971
-0.17,-0.7,-9.83,-0.0435882981694716,-0.3486016905586904,-0.043445274747464,-129.9436888935972,-49.90920133357593,3.243374149708243
-0.17,-0.7,-9.83,-0.0435882981694716,-0.3486016905586904,-0.043445274747464,-129.9436888935972,-49.90920133357593,3.243374149708243
-0.16,-0.69,-9.85,-0.0702614928199112,-0.3282852629453934,-0.0630760402079868,-129.99788861220236,-49.88392440352733,2.968253297538604
-0.16,-0.69,-9.85,-0.0702614928199112,-0.3282852629453934,-0.0630760402079868,-129.99788861220236,-49.88392440352733,2.968253297538604
0.13,-0.72,-10.13,0.0603954839749429,-0.5247365685881561,-0.3359928468669757,-129.78141812262746,-50.12416021166318,2.6243761106355543
0.13,-0.72,-10.13,0.0603954839749429,-0.5247365685881561,-0.3359928468669757,-129.78141812262746,-50.12416021166318,2.6243761106355543
0.51,-0.38,-10.36,0.5297453865265416,-0.6040027976258916,-0.5417146266409603,-129.51205087236005,-50.415287564554994,2.4180613422720283
0.51,-0.38,-10.36,0.5297453865265416,-0.6040027976258916,-0.5417146266409603,-129.51205087236005,-50.415287564554994,2.4180613422720283
0.02,-0.45,-9.65,0.1186596971058296,-0.2934654408448253,0.151330330961974,-129.24401990955522,-50.681403847895496,2.4180613422720283
0.02,-0.45,-9.65,0.1186596971058296,-0.2934654408448253,0.151330330961974,-129.24401990955522,-50.681403847895496,2.4180613422720283
0.0,-0.41,-9.78,0.1193090574408991,-0.247809128446306,0.0219243531220421,-129.24401990955522,-50.681403847895496,2.280522559802512
0.0,-0.41,-9.78,0.1193090574408991,-0.247809128446306,0.0219243531220421,-129.24401990955522,-50.681403847895496,2.280522559802512
0.11,-0.4,-9.93,0.1712027082905726,-0.2896132502691044,-0.1263160121205739,-129.03054304377298,-50.89704579606666,2.0283765158457068
0.11,-0.4,-9.93,0.1712027082905726,-0.2896132502691044,-0.1263160121205739,-129.03054304377298,-50.89704579606666,2.0283765158457068
0.26,-0.56,-10.03,0.1345746980792269,-0.4640868754904824,-0.2307108594408103,-128.76486449761614,-51.163694017238186,1.8793858210517669
0.26,-0.56,-10.03,0.1345746980792269,-0.4640868754904824,-0.2307108594408103,-128.76486449761614,-51.163694017238186,1.8793858210517669
0.21,-0.42,-9.91,0.1802521847107177,-0.299014540367286,-0.1083234974207592,-128.81789729217328,-51.138286174965344,1.638715147453804
0.21,-0.42,-9.91,0.1802521847107177,-0.299014540367286,-0.1083234974207592,-128.81789729217328,-51.138286174965344,1.638715147453804
0.63,-0.4,-10.34,0.4610063321930637,-0.5528154014932571,-0.5352245057919642,-128.57965137649458,-51.35433895468569,1.4438918508267422
0.63,-0.4,-10.34,0.4610063321930637,-0.5528154014932571,-0.5352245057919642,-128.57965137649458,-51.35433895468569,1.4438918508267422
0.46,-0.37,-10.12,0.3638720490169977,-0.3999839891153347,-0.3161218506541239,-128.2635811405088,-51.65968866130368,1.4095117183833985
0.46,-0.37,-10.12,0.3638720490169977,-0.3999839891153347,-0.3161218506541239,-128.2635811405088,-51.65968866130368,1.4095117183833985
0.3,-0.64,-9.88,0.0601190090296041,-0.4363614962228365,-0.0888022054005936,-128.2635811405088,-51.65968866130368,1.4668120111410634
0.3,-0.64,-9.88,0.0601190090296041,-0.4363614962228365,-0.0888022054005936,-128.2635811405088,-51.65968866130368,1.4668120111410634
0.37,-0.7,-10.07,0.0743081003250965,-0.5129602333531552,-0.281122306372918,-127.9231881746902,-52.00367866289412,1.5126525087430307
0.37,-0.7,-10.07,0.0743081003250965,-0.5129602333531552,-0.281122306372918,-127.9231881746902,-52.00367866289412,1.5126525087430307
0.19,-0.34,-9.74,0.2344220111515917,-0.1679365522752954,0.063131968246914,-127.7928177632481,-52.1184538275471,1.5470330404085568
0.19,-0.34,-9.74,0.2344220111515917,-0.1679365522752954,0.063131968246914,-127.7928177632481,-52.1184538275471,1.5470330404085568
0.19,-0.64,-9.79,0.004685656007496,-0.3381563464007793,-0.0002571745385999,-127.6627493662712,-52.27157490538662,1.5470330404085568
0.19,-0.64,-9.79,0.004685656007496,-0.3381563464007793,-0.0002571745385999,-127.6627493662712,-52.27157490538662,1.5470330404085568
0.11,-0.59,-9.78,-0.0094952360028944,-0.2358100559128505,0.0110947090517825,-127.6627493662712,-52.258810985064926,1.5011923619341792
0.11,-0.59,-9.78,-0.0094952360028944,-0.2358100559128505,0.0110947090517825,-127.6627493662712,-52.258810985064926,1.5011923619341792
0.13,-0.42,-9.69,0.1098059974858933,-0.1425745148224643,0.1083503990060563,-127.42938014555916,-52.50144503161559,1.3636717386286217
0.13,-0.42,-9.69,0.1098059974858933,-0.1425745148224643,0.1083503990060563,-127.42938014555916,-52.50144503161559,1.3636717386286217
0.31,-0.69,-9.9,-0.008234250093964,-0.4104017144492313,-0.113718069275583,-127.14545121783674,-52.78270669863224,1.1803139285143014
0.31,-0.69,-9.9,-0.008234250093964,-0.4104017144492313,-0.113718069275583,-127.14545121783674,-52.78270669863224,1.1803139285143014
0.59,-0.6,-10.12,0.2328117092790851,-0.5653330192214852,-0.3298532079805714,-127.1197096819897,-52.821087070408176,1.1230152546764245
0.59,-0.6,-10.12,0.2328117092790851,-0.5653330192214852,-0.3298532079805714,-127.1197096819897,-52.821087070408176,1.1230152546764245
0.51,-0.49,-10.15,0.2706458559444623,-0.4381366983059966,-0.3549191236273952,-127.04255474483055,-52.88506854972636,1.1230152546764245
0.51,-0.49,-10.15,0.2706458559444623,-0.4381366983059966,-0.3549191236273952,-127.04255474483055,-52.88506854972636,1.1230152546764245
0.12,-0.47,-9.57,0.0284481673169908,-0.1458864571849712,0.2255170897755345,-126.83731618493428,-53.10273871771935,1.1573944243672372
0.12,-0.47,-9.57,0.0284481673169908,-0.1458864571849712,0.2255170897755345,-126.83731618493428,-53.10273871771935,1.1573944243672372
0.22,-0.53,-9.85,0.0269733608304528,-0.2567151784303734,-0.0566744778304357,-126.78612125881504,-53.153985232120654,1.0427975798203954
0.22,-0.53,-9.85,0.0269733608304528,-0.2567151784303734,-0.0566744778304357,-126.78612125881504,-53.153985232120654,1.0427975798203954
0.31,-0.62,-9.89,0.0031394952992851,-0.3829188919151878,-0.1002144517720005,-126.58179643384616,-53.35908614472047,1.0198783397289315
0.31,-0.62,-9.89,0.0031394952992851,-0.3829188919151878,-0.1002144517720005,-126.58179643384616,-53.35908614472047,1.0198783397289315
0.32,-0.6,-9.8,0.0097054179678355,-0.3617128392768681,-0.0102471486292134,-126.5308282926202,-53.3975630858556,0.9052827329224428
0.32,-0.6,-9.8,0.0097054179678355,-0.3617128392768681,-0.0102471486292134,-126.5308282926202,-53.3975630858556,0.9052827329224428
0.44,-0.26,-10.03,0.3483631270245049,-0.2479141478363165,-0.2272566024670705,-126.5308282926202,-53.42321798982236,0.8365258107465946
0.44,-0.26,-10.03,0.3483631270245049,-0.2479141478363165,-0.2272566024670705,-126.5308282926202,-53.42321798982236,0.8365258107465946
0.32,-0.57,-9.91,0.0322691297511872,-0.3344657325263082,-0.1191996551696146,-126.37819315148278,-53.56437169079451,0.8709042326408071
0.32,-0.57,-9.91,0.0322691297511872,-0.3344657325263082,-0.1191996551696146,-126.37819315148278,-53.56437169079451,0.8709042326408071
0.31,-0.43,-9.71,0.119219987848443,-0.2511297310351853,0.0861654208914224,-126.17530318519164,-53.78269118475608,0.8136069048374162
0.31,-0.43,-9.71,0.119219987848443,-0.2511297310351853,0.0861654208914224,-126.17530318519164,-53.78269118475608,0.8136069048374162
0.5,-0.32,-10.09,0.3000609106273188,-0.3232806800204007,-0.2911692225766771,-126.09940169684566,-53.84694292088121,0.6417160846123932
0.5,-0.32,-10.09,0.3000609106273188,-0.3232806800204007,-0.2911692225766771,-126.09940169684566,-53.84694292088121,0.6417160846123932
0.32,-0.4,-10.01,0.1031473994122472,-0.2153868022460777,-0.2136029478757546,-125.97311846044452,-53.98836120988355,0.4927452222969898
0.32,-0.4,-10.01,0.1031473994122472,-0.2153868022460777,-0.2136029478757546,-125.97311846044452,-53.98836120988355,0.4927452222969898
0.47,-0.27,-10.05,0.2839569942558142,-0.2473629840766168,-0.250908350788821,-125.696251455902,-54.25858892916724,0.4010712754482724
0.47,-0.27,-10.05,0.2839569942558142,-0.2473629840766168,-0.250908350788821,-125.696251455902,-54.25858892916724,0.4010712754482724
0.4,-0.48,-9.87,0.0722872311636601,-0.3013054753186058,-0.078252102031854,-125.3457502614118,-54.59360979768476,0.3896120513439707
0.4,-0.48,-9.87,0.0722872311636601,-0.3013054753186058,-0.078252102031854,-125.3457502614118,-54.59360979768476,0.3896120513439707
0.41,-0.15,-9.87,0.3493073974297036,-0.1135598665280358,-0.0661706961746766,-125.27091255577452,-54.67099400962296,0.3896120513439707
0.41,-0.15,-9.87,0.3493073974297036,-0.1135598665280358,-0.0661706961746766,-125.27091255577452,-54.67099400962296,0.3896120513439707
0.41,-0.45,-9.88,0.1096017812116736,-0.2741832701979436,-0.0876822656912441,-125.07180537967444,-54.89039623695746,0.3896120513439707
0.41,-0.45,-9.88,0.1096017812116736,-0.2741832701979436,-0.0876822656912441,-125.07180537967444,-54.89039623695746,0.3896120513439707
0.54,-0.3,-9.94,0.3119753486365235,-0.2884495339079847,-0.1434589566009982,-124.9229107357918,-55.01955829122679,0.4010712754482724
0.54,-0.3,-9.94,0.3119753486365235,-0.2884495339079847,-0.1434589566009982,-124.9229107357918,-55.01955829122679,0.4010712754482724
0.43,-0.34,-10.06,0.2243042108037818,-0.2006574330548476,-0.2637782041815661,-124.70026179828332,-55.23930804894636,0.3896120513439707
0.43,-0.34,-10.06,0.2243042108037818,-0.2006574330548476,-0.2637782041815661,-124.70026179828332,-55.23930804894636,0.3896120513439707
0.26,-0.71,-9.9,-0.1769471263485138,-0.2676790470313872,-0.1169953807185919,-124.57692406667049,-55.36867561916026,0.3896120513439707
0.26,-0.71,-9.9,-0.1769471263485138,-0.2676790470313872,-0.1169953807185919,-124.57692406667049,-55.36867561916026,0.3896120513439707
0.29,-0.69,-9.68,-0.1397015944827573,-0.2826489150901599,0.1028778955399385,-124.33100356461244,-55.60173066165572,0.43544897228424
0.29,-0.69,-9.68,-0.1397015944827573,-0.2826489150901599,0.1028778955399385,-124.33100356461244,-55.60173066165572,0.43544897228424
0.25,-0.48,-9.79,0.0025493077672206,-0.1190955780319452,0.0024259233928578,-124.30646648477428,-55.62764107730477,0.3552344019497601
0.25,-0.48,-9.79,0.0025493077672206,-0.1190955780319452,0.0024259233928578,-124.30646648477428,-55.62764107730477,0.3552344019497601
0.26,-0.49,-9.88,-0.0101175084353702,-0.1097373003444847,-0.0882959503797273,-124.20841744814189,-55.71835189030318,0.2406424508273681
0.26,-0.49,-9.88,-0.0101175084353702,-0.1097373003444847,-0.0882959503797273,-124.20841744814189,-55.71835189030318,0.2406424508273681
0.47,-0.76,-9.87,-0.119750452688722,-0.4107325626248441,-0.0944791573779841,-124.0372118533993,-55.87394453787317,0.1604282350432163
0.47,-0.76,-9.87,-0.119750452688722,-0.4107325626248441,-0.0944791573779841,-124.0372118533993,-55.87394453787317,0.1604282350432163
0.38,-0.69,-9.72,-0.1320791907359433,-0.2859240053441589,0.0598709140381892,-123.96398525409832,-55.96475865649774,0.0343774682235114
0.38,-0.69,-9.72,-0.1320791907359433,-0.2859240053441589,0.0598709140381892,-123.96398525409832,-55.96475865649774,0.0343774682235114
0.41,-0.28,-9.93,0.192054831905039,-0.0665398655397106,-0.1336763219994861,-123.96398525409832,-55.96475865649774,-0.1718874029970642
0.41,-0.28,-9.93,0.192054831905039,-0.0665398655397106,-0.1336763219994861,-123.96398525409832,-55.96475865649774,-0.1718874029970642
0.33,-0.45,-9.83,-0.0253362940657704,-0.0772147945000914,-0.0388411481202055,-123.69623657185858,-56.2114472624779,-0.3781528311358495
0.33,-0.45,-9.83,-0.0253362940657704,-0.0772147945000914,-0.0388411481202055,-123.69623657185858,-56.2114472624779,-0.3781528311358495
0.65,-0.65,-10.0,-0.0251899695144228,-0.4161242334423518,-0.2268541778920827,-123.5991628945627,-56.28940782045202,-0.5271230305187238
0.65,-0.65,-10.0,-0.0251899695144228,-0.4161242334423518,-0.2268541778920827,-123.5991628945627,-56.28940782045202,-0.5271230305187238
0.52,-0.57,-9.92,-0.0547621864401094,-0.255488390279515,-0.1398783785534245,-123.62341692773376,-56.28940782045202,-0.6760941207657828
0.52,-0.57,-9.92,-0.0547621864401094,-0.255488390279515,-0.1398783785534245,-123.62341692773376,-56.28940782045202,-0.6760941207657828
0.53,-0.55,-9.92,-0.0471954340209661,-0.2335844470985369,-0.1398574723282255,-123.5991628945627,-56.28940782045202,-0.8021474641450599
0.53,-0.55,-9.92,-0.0471954340209661,-0.2335844470985369,-0.1398574723282255,-123.5991628945627,-56.28940782045202,-0.8021474641450599
0.6,-0.37,-9.82,0.111651654207829,-0.1841331285529546,-0.0362626227495255,-123.62341692773376,-56.27641242483391,-0.985499555804114
0.6,-0.37,-9.82,0.111651654207829,-0.1841331285529546,-0.0362626227495255,-123.62341692773376,-56.27641242483391,-0.985499555804114
0.73,-0.23,-10.12,0.2655298902202865,-0.1829734014749718,-0.3371271373267195,-123.6476805433651,-56.2374309655145,-1.2146932735575866
0.73,-0.23,-10.12,0.2655298902202865,-0.1829734014749718,-0.3371271373267195,-123.6476805433651,-56.2374309655145,-1.2146932735575866
0.72,-0.32,-10.03,0.1653756579303879,-0.2130429047507568,-0.2506341071782128,-123.5506835259097,-56.34139729043255,-1.3522117780748235
0.72,-0.32,-10.03,0.1653756579303879,-0.2130429047507568,-0.2506341071782128,-123.5506835259097,-56.34139729043255,-1.3522117780748235
0.66,-0.37,-9.82,0.0593243547324355,-0.1797318649731866,-0.0406378031287815,-123.502242338284,-56.38039768350901,-1.5699534720315549
0.66,-0.37,-9.82,0.0593243547324355,-0.1797318649731866,-0.0406378031287815,-123.502242338284,-56.38039768350901,-1.5699534720315549
