acc_x,acc_y,acc_z,lin_x,lin_y,lin_z,eul_x,eul_y,eul_z
-0.07,0.52,-9.92,0.0843706804893873,0.0236452875460229,-0.1268298781016632,-125.5457815403515,-54.38738352787694,-0.6417160846123932
-0.07,0.52,-9.92,0.0843706804893873,0.0236452875460229,-0.1268298781016632,-125.5457815403515,-54.38738352787694,-0.6417160846123932
-0.17,0.29,-9.91,-0.1496524993190047,-0.0250174294576645,-0.1078887314625429,-125.49571017669872,-54.42603640579737,-0.5958787923837214
-0.17,0.29,-9.91,-0.1496524993190047,-0.0250174294576645,-0.1078887314625429,-125.49571017669872,-54.42603640579737,-0.5958787923837214
-0.11,0.27,-9.81,-0.1281192598812413,-0.0820875420545432,-0.0065017409386332,-125.49571017669872,-54.42603640579737,-0.5958787923837214
-0.11,0.27,-9.81,-0.1281192598812413,-0.0820875420545432,-0.0065017409386332,-125.49571017669872,-54.42603640579737,-0.5958787923837214
-0.03,0.57,-9.81,0.1532902679896414,0.0275438604420868,-0.0187071654923389,-125.57083317422124,-54.36161866399844,-0.6417160846123932
-0.03,0.57,-9.81,0.1532902679896414,0.0275438604420868,-0.0187071654923389,-125.57083317422124,-54.36161866399844,-0.6417160846123932
-0.08,0.67,-9.83,0.2002836361009105,0.1168617848684447,-0.0437525191028402,-125.5457815403515,-54.36161866399844,-0.6417160846123932
-0.08,0.67,-9.83,0.2002836361009105,0.1168617848684447,-0.0437525191028402,-125.5457815403515,-54.36161866399844,-0.6417160846123932
-0.1,0.47,-9.81,0.0321263041223337,0.0191613861973001,-0.0150403199939272,-125.5457815403515,-54.37450072399204,-0.6187974261216272
-0.1,0.47,-9.81,0.0321263041223337,0.0191613861973001,-0.0150403199939272,-125.5457815403515,-54.37450072399204,-0.6187974261216272
-0.11,0.34,-9.71,-0.077117998448481,-0.0422985078400192,0.0904746387506048,-125.52074054609028,-54.40026707594486,-0.6302567522155992
-0.11,0.34,-9.71,-0.077117998448481,-0.0422985078400192,0.0904746387506048,-125.52074054609028,-54.40026707594486,-0.6302567522155992
-0.04,0.26,-9.8,-0.1040675621732731,-0.1487152162015364,0.0048004945763686,-125.57083317422124,-54.36161866399844,-0.6302567522155992
-0.04,0.26,-9.8,-0.1040675621732731,-0.1487152162015364,0.0048004945763686,-125.57083317422124,-54.36161866399844,-0.6302567522155992
0.01,0.43,-9.99,0.0465904187521944,-0.10014427318427,-0.1919949310608526,-125.62096841990898,-54.28434190943172,-0.6760941207657828
0.01,0.43,-9.99,0.0465904187521944,-0.10014427318427,-0.1919949310608526,-125.62096841990898,-54.28434190943172,-0.6760941207657828
0.06,-0.29,-9.84,-0.5079100457187,-0.5597345354996408,-0.0087473243688389,-125.696251455902,-54.24571355108697,-0.687553479519944
0.06,-0.29,-9.84,-0.5079100457187,-0.5597345354996408,-0.0087473243688389,-125.696251455902,-54.24571355108697,-0.687553479519944
0.43,-0.47,-10.33,-0.485356513523393,-1.0045089471665818,-0.4826692597879276,-125.821937957947,-54.104133233092014,-0.8021474641450599
0.43,-0.47,-10.33,-0.485356513523393,-1.0045089471665818,-0.4826692597879276,-125.821937957947,-54.104133233092014,-0.8021474641450599
0.92,-1.85,-10.82,-1.3803483607637277,-2.335150602681019,-0.8696325958165492,-126.12469119973764,-53.74414891259134,-0.8479852761926534
0.92,-1.85,-10.82,-1.3803483607637277,-2.335150602681019,-0.8696325958165492,-126.12469119973764,-53.74414891259134,-0.8479852761926534
1.14,-2.91,-9.81,-2.1798925287761746,-3.33273446649232,0.3121911139528315,-126.73497195223707,-52.97467248448692,-1.0886361860699356
1.14,-2.91,-9.81,-2.1798925287761746,-3.33273446649232,0.3121911139528315,-126.73497195223707,-52.97467248448692,-1.0886361860699356
1.43,-2.95,-9.22,-2.151767960958893,-3.796961748208216,1.0482953528739518,-127.76677999527551,-51.68515222063561,-1.7533192633889718
1.43,-2.95,-9.22,-2.151767960958893,-3.796961748208216,1.0482953528739518,-127.76677999527551,-51.68515222063561,-1.7533192633889718
1.43,-2.33,-8.89,-1.9078968899824271,-3.80207807994554,1.535614289087306,-129.75442065073912,-48.93789354543228,-3.2204467196467967
1.43,-2.33,-8.89,-1.9078968899824271,-3.80207807994554,1.535614289087306,-129.75442065073912,-48.93789354543228,-3.2204467196467967
2.23,-3.16,-8.47,-2.1240139155204885,-5.157140201494999,2.350654437447708,-131.2600452849924,-46.51947492912967,-4.906017344265486
2.23,-3.16,-8.47,-2.1240139155204885,-5.157140201494999,2.350654437447708,-131.2600452849924,-46.51947492912967,-4.906017344265486
2.74,-2.56,-7.67,-1.3895690435096058,-5.393793464749762,3.3362412082046515,-133.41553604515124,-42.18810962075827,-7.5455762164051485
2.74,-2.56,-7.67,-1.3895690435096058,-5.393793464749762,3.3362412082046515,-133.41553604515124,-42.18810962075827,-7.5455762164051485
2.76,-0.96,-6.52,-0.1857006211743384,-4.3022004277542685,4.105230285689672,-134.9462708023221,-38.015979325491685,-9.45306245260688
2.76,-0.96,-6.52,-0.1857006211743384,-4.3022004277542685,4.105230285689672,-134.9462708023221,-38.015979325491685,-9.45306245260688
2.09,0.12,-5.71,-0.0674580048000348,-3.2743929491419284,4.682159758795708,-135.4877437505904,-31.935947193238352,-11.962154211464537
2.09,0.12,-5.71,-0.0674580048000348,-3.2743929491419284,4.682159758795708,-135.4877437505904,-31.935947193238352,-11.962154211464537
0.95,-0.03,-3.09,-0.2599431788269849,-1.9274395958378896,7.224227465212637,-134.8267795347168,-27.336531426237315,-13.253393932396618
0.95,-0.03,-3.09,-0.2599431788269849,-1.9274395958378896,7.224227465212637,-134.8267795347168,-27.336531426237315,-13.253393932396618
1.15,1.88,0.78,1.7584811261573656,1.3224551889158285,9.0166143031749,-132.81066902216784,-20.09912503821932,-13.922726077012074
1.15,1.88,0.78,1.7584811261573656,1.3224551889158285,9.0166143031749,-132.81066902216784,-20.09912503821932,-13.922726077012074
5.8,8.85,-0.74,5.767293772200339,3.485874126497857,1.6153677976001877,-127.48115670522915,-11.869983070722633,-16.801965875210325
5.8,8.85,-0.74,5.767293772200339,3.485874126497857,1.6153677976001877,-127.48115670522915,-11.869983070722633,-16.801965875210325
3.44,5.22,0.31,3.2230673436080464,2.334326099797565,4.975412212603144,-121.8536919796764,-8.165828301178744,-18.51827857520288
3.44,5.22,0.31,3.2230673436080464,2.334326099797565,4.975412212603144,-121.8536919796764,-8.165828301178744,-18.51827857520288
0.0,4.64,4.35,0.6750091739229263,5.950277458342238,7.664067263239497,-115.1512723286105,-1.9710720103882065,-20.22715256357965
0.0,4.64,4.35,0.6750091739229263,5.950277458342238,7.664067263239497,-115.1512723286105,-1.9710720103882065,-20.22715256357965
4.78,7.21,7.93,4.773609820097319,9.396546900086015,4.645743525362597,-110.65153929836842,4.045922594423996,-24.22126399043484
4.78,7.21,7.93,4.773609820097319,9.396546900086015,4.645743525362597,-110.65153929836842,4.045922594423996,-24.22126399043484
10.07,9.0,4.38,5.7103790076969325,5.690800013286258,-1.880764889411406,-102.61275550473172,10.465291924669184,-32.795047946580326
10.07,9.0,4.38,5.7103790076969325,5.690800013286258,-1.880764889411406,-102.61275550473172,10.465291924669184,-32.795047946580326
8.11,9.07,10.16,4.461607157834836,11.208639704039816,-0.4755218306094875,-97.63220528770944,15.332219618835126,-38.82902123966127
8.11,9.07,10.16,4.461607157834836,11.208639704039816,-0.4755218306094875,-97.63220528770944,15.332219618835126,-38.82902123966127
14.65,11.0,5.62,3.0230228654303017,6.424551719228082,-7.992040063093097,-91.18809708858042,20.14567756040377,-51.163694017238186
14.65,11.0,5.62,3.0230228654303017,6.424551719228082,-7.992040063093097,-91.18809708858042,20.14567756040377,-51.163694017238186
15.3,7.01,-0.07,0.8139321271979472,-0.4439952909873144,-6.997378763183433,-86.59711027164688,21.100756747738608,-62.32941069730318
15.3,7.01,-0.07,0.8139321271979472,-0.4439952909873144,-6.997378763183433,-86.59711027164688,21.100756747738608,-62.32941069730318
12.93,6.17,2.26,0.405994753982301,1.929825439665972,-4.5624954871943215,-84.11869444886841,21.53218888989049,-69.207831623394
12.93,6.17,2.26,0.405994753982301,1.929825439665972,-4.5624954871943215,-84.11869444886841,21.53218888989049,-69.207831623394
16.85,1.64,0.0,1.1197123686821735,-3.7161937282449498,-6.672071078578067,-79.52399794108469,20.25043303206116,-78.49921150262162
16.85,1.64,0.0,1.1197123686821735,-3.7161937282449498,-6.672071078578067,-79.52399794108469,20.25043303206116,-78.49921150262162
14.72,9.94,1.97,-5.507249813296474,3.189802190712737,-6.892399717815392,-74.61607730658687,22.033971792326973,-82.90516622575332
14.72,9.94,1.97,-5.507249813296474,3.189802190712737,-6.892399717815392,-74.61607730658687,22.033971792326973,-82.90516622575332
13.19,8.43,3.02,-4.992251299975091,3.227521858069246,-4.985980922644633,-70.14324952507593,23.10900551875196,-87.11781645834128
13.19,8.43,3.02,-4.992251299975091,3.227521858069246,-4.985980922644633,-70.14324952507593,23.10900551875196,-87.11781645834128
13.54,3.63,0.66,-3.4440381398088653,-1.8636577062224555,-3.669606202876951,-67.64197933171232,21.497196482057948,-90.77943113369116
13.54,3.63,0.66,-3.4440381398088653,-1.8636577062224555,-3.669606202876951,-67.64197933171232,21.497196482057948,-90.77943113369116
10.9,4.41,2.51,-3.1298196122987774,0.4527169377182303,-1.7932412309026855,-64.70138684078718,20.436707276203283,-93.94058643018808
10.9,4.41,2.51,-3.1298196122987774,0.4527169377182303,-1.7932412309026855,-64.70138684078718,20.436707276203283,-93.94058643018808
10.49,3.43,3.12,-2.2196968824700885,0.0543337420040908,-1.4454339667340044,-62.89270673851754,18.55311073338957,-96.54176184653711
10.49,3.43,3.12,-2.2196968824700885,0.0543337420040908,-1.4454339667340044,-62.89270673851754,18.55311073338957,-96.54176184653711
6.92,4.09,7.23,0.5386621994609633,4.287261068504506,-0.1037806447983147,-61.91471716129068,17.381357078894993,-97.597406347569
6.92,4.09,7.23,0.5386621994609633,4.287261068504506,-0.1037806447983147,-61.91471716129068,17.381357078894993,-97.597406347569
18.41,-0.95,-4.63,-6.230730912650078,-12.20539354418248,-3.364297601663866,-58.73375160745704,13.922726077012074,-100.42085372385358
18.41,-0.95,-4.63,-6.230730912650078,-12.20539354418248,-3.364297601663866,-58.73375160745704,13.922726077012074,-100.42085372385358
11.12,3.74,1.44,-4.122549230147514,-2.1418604087182564,-1.0622331916888026,-58.60230588655673,13.045763563399612,-101.04963023736497
11.12,3.74,1.44,-4.122549230147514,-2.1418604087182564,-1.0622331916888026,-58.60230588655673,13.045763563399612,-101.04963023736497
7.96,4.11,4.91,-1.113543353378298,2.0693815359461114,-0.1351547284601348,-60.94170906130724,13.103434321670449,-101.48322239715056
7.96,4.11,4.91,-1.113543353378298,2.0693815359461114,-0.1351547284601348,-60.94170906130724,13.103434321670449,-101.48322239715056
6.62,2.66,6.59,1.7476849246766497,2.651292049840776,0.6281780209334915,-63.28263870636261,11.858462221253813,-101.70077262436088
6.62,2.66,6.59,1.7476849246766497,2.651292049840776,0.6281780209334915,-63.28263870636261,11.858462221253813,-101.70077262436088
7.09,2.31,4.4,0.6007046044642846,1.1209557736050564,1.2423746581046409,-65.70797477306883,10.039600263356236,-101.30231586461944
7.09,2.31,4.4,0.6007046044642846,1.1209557736050564,1.2423746581046409,-65.70797477306883,10.039600263356236,-101.30231586461944
9.19,-1.14,0.9,-0.3850781392816826,-4.065687114665423,1.446769431936186,-67.90425219273371,8.372631359788455,-100.31347946564678
9.19,-1.14,0.9,-0.3850781392816826,-4.065687114665423,1.446769431936186,-67.90425219273371,8.372631359788455,-100.31347946564678
8.99,3.02,3.24,-0.2730254610886574,0.7245887226257162,-0.1852731522585777,-70.9995839667978,9.17713147157167,-97.58001140346656
8.99,3.02,3.24,-0.2730254610886574,0.7245887226257162,-0.1852731522585777,-70.9995839667978,9.17713147157167,-97.58001140346656
9.17,2.03,3.16,0.4081392158631191,-0.1193026008108426,-0.0935817785956132,-72.34240418316186,9.154139652218912,-96.2495069125742
9.17,2.03,3.16,0.4081392158631191,-0.1193026008108426,-0.0935817785956132,-72.34240418316186,9.154139652218912,-96.2495069125742
8.71,2.02,4.08,1.3529559697690254,0.4566266885309422,0.0828697571526912,-72.91124580679356,9.039186076064473,-95.46283114085506
8.71,2.02,4.08,1.3529559697690254,0.4566266885309422,0.0828697571526912,-72.91124580679356,9.039186076064473,-95.46283114085506
8.93,2.68,2.73,-0.3028607055043889,0.2526894567399691,0.0997131282822358,-72.08709874052984,9.21161989509871,-96.30102081146676
8.93,2.68,2.73,-0.3028607055043889,0.2526894567399691,0.0997131282822358,-72.08709874052984,9.21161989509871,-96.30102081146676
9.3,3.47,2.66,-1.0112234002768323,0.7672166193988015,-0.3911588770897705,-71.2954433395492,9.476059158737444,-97.31944790610486
9.3,3.47,2.66,-1.0112234002768323,0.7672166193988015,-0.3911588770897705,-71.2954433395492,9.476059158737444,-97.31944790610486
9.85,3.68,1.46,-2.3865253677162217,0.2169080780626784,-0.5352041642646519,-70.39546823502994,9.729048380447908,-98.38333132200674
9.85,3.68,1.46,-2.3865253677162217,0.2169080780626784,-0.5352041642646519,-70.39546823502994,9.729048380447908,-98.38333132200674
9.59,2.81,1.79,-1.5917240257663918,-0.232951971747751,-0.2173436155534762,-70.46559845800101,9.614047461503418,-98.43594799577524
9.59,2.81,1.79,-1.5917240257663918,-0.232951971747751,-0.2173436155534762,-70.46559845800101,9.614047461503418,-98.43594799577524
9.23,2.4,2.58,-0.5346065886528704,-0.04861211289291,-0.0584973713193477,-71.22495103692498,9.23461264182475,-97.96340007132606
9.23,2.4,2.58,-0.5346065886528704,-0.04861211289291,-0.0584973713193477,-71.22495103692498,9.23461264182475,-97.96340007132606
8.92,2.48,2.88,-0.1634183070634297,0.3003397874685545,0.1167433715035262,-71.9737624996918,9.039186076064473,-97.45833109591425
8.92,2.48,2.88,-0.1634183070634297,0.3003397874685545,0.1167433715035262,-71.9737624996918,9.039186076064473,-97.45833109591425
8.89,2.49,2.73,-0.1283435017193531,0.3097286474893288,0.1851794205879908,-72.99675173267174,8.970218312913039,-96.59342299000927
8.89,2.49,2.73,-0.1283435017193531,0.3097286474893288,0.1851794205879908,-72.99675173267174,8.970218312913039,-96.59342299000927
8.91,2.71,2.7,-0.1429525579056106,0.5035368483448139,0.12428380115443,-73.78277317194505,8.751841754333862,-96.0094493123457
8.91,2.71,2.7,-0.1429525579056106,0.5035368483448139,0.12428380115443,-73.78277317194505,8.751841754333862,-96.0094493123457
9.06,2.44,2.74,0.1402247799498449,0.2678705284449956,0.036625312667903,-74.5296601704127,8.476043091817116,-95.4287628527733
9.06,2.44,2.74,0.1402247799498449,0.2678705284449956,0.036625312667903,-74.5296601704127,8.476043091817116,-95.4287628527733
8.99,2.73,2.55,-0.1175616652141341,0.4564001243417959,0.0827938625731992,-74.8034850768004,8.476043091817116,-95.17360460220829
8.99,2.73,2.55,-0.1175616652141341,0.4564001243417959,0.0827938625731992,-74.8034850768004,8.476043091817116,-95.17360460220829
9.06,2.79,2.23,-0.4142027700075792,0.3234109907895577,0.0822250094746159,-74.84676629523163,8.430081473298436,-95.0717153411954
9.06,2.79,2.23,-0.4142027700075792,0.3234109907895577,0.0822250094746159,-74.84676629523163,8.430081473298436,-95.0717153411954
9.12,2.73,2.36,-0.264685768710769,0.3133614085289742,0.00722929918882,-74.93336628710402,8.315183354403652,-95.0717153411954
9.12,2.73,2.36,-0.264685768710769,0.3133614085289742,0.00722929918882,-74.93336628710402,8.315183354403652,-95.0717153411954
9.06,2.57,2.47,-0.0666855260459143,0.2454982536339609,0.0739893335594672,-75.02001646610674,8.188805090876484,-95.03777424913532
9.06,2.57,2.47,-0.0666855260459143,0.2454982536339609,0.0739893335594672,-75.02001646610674,8.188805090876484,-95.03777424913532
9.03,2.46,2.48,-0.0169963437104571,0.1576459766385376,0.1258567024261818,-74.90449405354882,8.142851840335263,-95.1566161753118
9.03,2.46,2.48,-0.0169963437104571,0.1576459766385376,0.1258567024261818,-74.90449405354882,8.142851840335263,-95.1566161753118
9.07,2.61,2.4,-0.2078706039470272,0.2188501100128759,0.0728997237004218,-74.64489405402493,8.154340029708836,-95.39470569781707
9.07,2.61,2.4,-0.2078706039470272,0.2188501100128759,0.0728997237004218,-74.64489405402493,8.154340029708836,-95.39470569781707
9.31,2.75,1.89,-0.7841251298888371,0.0262770068531708,-0.0521104342324747,-74.40012733902506,8.280715556970401,-95.58215802399698
9.31,2.75,1.89,-0.7841251298888371,0.0262770068531708,-0.0521104342324747,-74.40012733902506,8.280715556970401,-95.58215802399698
9.15,2.66,2.24,-0.4342055159653816,0.1728442506294603,0.029263312600877,-74.3425928628069,8.384121213370948,-95.59921590362794
9.15,2.66,2.24,-0.4342055159653816,0.1728442506294603,0.029263312600877,-74.3425928628069,8.384121213370948,-95.59921590362794
9.1,2.74,2.27,-0.4337966174630774,0.2703377926120756,0.049127877423837,-74.40012733902506,8.510515201802361,-95.46283114085506
9.1,2.74,2.27,-0.4337966174630774,0.2703377926120756,0.049127877423837,-74.40012733902506,8.510515201802361,-95.46283114085506
9.29,2.69,1.9,-0.7012187888149736,0.002316729676254,-0.0248548107080974,-74.63048498986646,8.556479215940191,-95.17360460220829
9.29,2.69,1.9,-0.7012187888149736,0.002316729676254,-0.0248548107080974,-74.63048498986646,8.556479215940191,-95.17360460220829
9.26,2.59,2.08,-0.3856053682364672,0.0511409929463879,-0.0234462914321298,-75.29474135486807,8.544988083393589,-94.5806381366887
9.26,2.59,2.08,-0.3856053682364672,0.0511409929463879,-0.0234462914321298,-75.29474135486807,8.544988083393589,-94.5806381366887
9.15,2.62,2.14,-0.2618405342797346,0.1761210405394793,0.0564232891133542,-75.78762767861531,8.648411389524659,-94.09183027952132
9.15,2.62,2.14,-0.2618405342797346,0.1761210405394793,0.0564232891133542,-75.78762767861531,8.648411389524659,-94.09183027952132
9.19,2.66,2.09,-0.2688000997713637,0.204324396602046,0.0196280807788049,-76.1656564719778,8.809306149715164,-93.67223499425867
9.19,2.66,2.09,-0.2688000997713637,0.204324396602046,0.0196280807788049,-76.1656564719778,8.809306149715164,-93.67223499425867
8.97,2.47,2.55,0.2445967383945285,0.3433882215004622,0.1688827811416029,-76.20933800398176,8.92424161449454,-93.571775871417
8.97,2.47,2.55,0.2445967383945285,0.3433882215004622,0.1688827811416029,-76.20933800398176,8.92424161449454,-93.571775871417
