,TIME,ELAPSED_SECONDS,PSTATE,acc_x,acc_y,acc_z,mag_x,mag_y,mag_z,gyr_x,gyr_y,gyr_z,lin_x,lin_y,lin_z,eul_x,eul_y,eul_z,qua_w,qua_x,qua_y,qua_z
0,1595901.0,1557.220233,1.0,-0.71,4.88,-8.51,10.38,-27.37,25.56,0.5,0.19,0.19,0.17393103005437716,0.0857142519187426,-0.027016715106949363,-134.14543141113884,-34.591013631336175,-4.137654318321577,-0.2494,-0.9209999999999999,-0.2973,-0.0361
1,1595901.0,1557.220233,1.0,-0.71,4.88,-8.51,10.38,-27.37,25.56,0.5,0.19,0.19,0.17393103005437716,0.0857142519187426,-0.027016715106949363,-134.14543141113884,-34.591013631336175,-4.137654318321577,-0.2494,-0.9209999999999999,-0.2973,-0.0361
2,1595936.0,1557.280868,1.0,-0.78,4.73,-8.53,11.06,-27.37,24.37,1.0,-0.31,-1.06,0.0348179142690625,0.00820026007146879,0.021921057991399092,-134.0866361818657,-34.61501807279963,-4.126187708974658,-0.2495,-0.9208,-0.2975,-0.036000000000000004
3,1595936.0,1557.280868,1.0,-0.78,4.73,-8.53,11.06,-27.37,24.37,1.0,-0.31,-1.06,0.0348179142690625,0.00820026007146879,0.021921057991399092,-134.0866361818657,-34.61501807279963,-4.126187708974658,-0.2495,-0.9208,-0.2975,-0.036000000000000004
4,1595973.0,1557.288473,1.0,-0.92,4.7,-8.3,11.5,-28.06,25.19,0.19,0.88,-0.37,-0.04545749844719885,0.1689353965452698,0.2256378171651896,-134.0866361818657,-34.62702088107143,-4.126187708974658,-0.2494,-0.9208,-0.2976,-0.036000000000000004
5,1595973.0,1557.288473,1.0,-0.92,4.7,-8.3,11.5,-28.06,25.19,0.19,0.88,-0.37,-0.04545749844719885,0.1689353965452698,0.2256378171651896,-134.0866361818657,-34.62702088107143,-4.126187708974658,-0.2494,-0.9208,-0.2976,-0.036000000000000004
6,1596008.0,1557.350115,1.0,-0.8,4.85,-8.68,11.5,-28.06,25.19,-1.88,1.63,0.37,0.04103003294550589,0.03857901481120907,-0.1684052978924715,-134.0866361818657,-34.63902408126335,-4.183521171347446,-0.2496,-0.9208,-0.2977,-0.0365
7,1596008.0,1557.350115,1.0,-0.8,4.85,-8.68,11.5,-28.06,25.19,-1.88,1.63,0.37,0.04103003294550589,0.03857901481120907,-0.1684052978924715,-134.0866361818657,-34.63902408126335,-4.183521171347446,-0.2496,-0.9208,-0.2977,-0.0365
8,1596041.0,1557.3667990000001,1.0,-0.9,4.65,-8.41,11.5,-27.0,25.06,-0.44,1.12,0.19,-0.08990344247195699,0.0761633548272469,0.15539533988387788,-134.0866361818657,-34.63902408126335,-4.194987989089829,-0.2495,-0.9208,-0.2977,-0.0366
9,1596041.0,1557.3667990000001,1.0,-0.9,4.65,-8.41,11.5,-27.0,25.06,-0.44,1.12,0.19,-0.08990344247195699,0.0761633548272469,0.15539533988387788,-134.0866361818657,-34.63902408126335,-4.194987989089829,-0.2495,-0.9208,-0.2977,-0.0366
10,1596078.0,1557.369891,1.0,-0.78,4.71,-8.58,11.06,-27.0,25.06,0.56,1.5,0.19,-0.002006516771261791,-0.024931935889050738,-0.012121530719275242,-134.05726525899885,-34.65102767354547,-4.229388694927676,-0.2496,-0.9207,-0.2978,-0.0369
11,1596078.0,1557.369891,1.0,-0.78,4.71,-8.58,11.06,-27.0,25.06,0.56,1.5,0.19,-0.002006516771261791,-0.024931935889050738,-0.012121530719275242,-134.05726525899885,-34.65102767354547,-4.229388694927676,-0.2496,-0.9207,-0.2978,-0.0369
12,1596112.0,1557.40675,1.0,-0.86,4.78,-8.34,11.06,-27.0,26.0,0.88,1.06,0.31,0.019773811652166462,0.17672681719494676,0.15719526781658288,-134.05726525899885,-34.63902408126335,-4.240855681461491,-0.2495,-0.9207,-0.2977,-0.037000000000000005
13,1596112.0,1557.40675,1.0,-0.86,4.78,-8.34,11.06,-27.0,26.0,0.88,1.06,0.31,0.019773811652166462,0.17672681719494676,0.15719526781658288,-134.05726525899885,-34.63902408126335,-4.240855681461491,-0.2495,-0.9207,-0.2977,-0.037000000000000005
14,1596147.0,1557.463904,1.0,-0.81,4.73,-8.49,11.06,-27.0,26.0,-1.25,2.0,0.37,-0.004315487391677309,0.051913676321783335,0.054399677803623085,-134.05726525899885,-34.65102767354547,-4.2867240536107065,-0.2494,-0.9207,-0.2978,-0.0374
15,1596147.0,1557.463904,1.0,-0.81,4.73,-8.49,11.06,-27.0,26.0,-1.25,2.0,0.37,-0.004315487391677309,0.051913676321783335,0.054399677803623085,-134.05726525899885,-34.65102767354547,-4.2867240536107065,-0.2494,-0.9207,-0.2978,-0.0374
16,1596184.0,1557.480511,1.0,-0.68,4.8,-8.69,10.38,-27.37,25.56,-1.19,1.94,0.12,0.08339303956276106,-0.05821879017812925,-0.14363422576072438,-134.05726525899885,-34.675036035061034,-4.3669953627837845,-0.2495,-0.9207,-0.298,-0.0381
17,1596184.0,1557.480511,1.0,-0.68,4.8,-8.69,10.38,-27.37,25.56,-1.19,1.94,0.12,0.08339303956276106,-0.05821879017812925,-0.14363422576072438,-134.05726525899885,-34.675036035061034,-4.3669953627837845,-0.2495,-0.9207,-0.298,-0.0381
18,1596219.0,1557.521103,1.0,-0.61,4.81,-8.75,11.06,-27.37,25.56,2.06,-0.63,0.19,0.13042280474644252,-0.11231232054534156,-0.19540358087306944,-134.05726525899885,-34.675036035061034,-4.389930414609093,-0.2493,-0.9207,-0.298,-0.0383
19,1596219.0,1557.521103,1.0,-0.61,4.81,-8.75,11.06,-27.37,25.56,2.06,-0.63,0.19,0.13042280474644252,-0.11231232054534156,-0.19540358087306944,-134.05726525899885,-34.675036035061034,-4.389930414609093,-0.2493,-0.9207,-0.298,-0.0383
20,1596252.0,1557.527343,1.0,-0.82,4.82,-8.46,11.06,-27.37,25.56,0.19,-1.19,-0.37,0.03630706986149074,0.1352733738723355,0.03645128600245329,-134.05726525899885,-34.65102767354547,-4.3211257832659316,-0.2494,-0.9207,-0.2978,-0.0377
21,1596252.0,1557.527343,1.0,-0.82,4.82,-8.46,11.06,-27.37,25.56,0.19,-1.19,-0.37,0.03630706986149074,0.1352733738723355,0.03645128600245329,-134.05726525899885,-34.65102767354547,-4.3211257832659316,-0.2494,-0.9207,-0.2978,-0.0377
22,1596289.0,1557.59194,1.0,-0.88,4.74,-8.46,10.69,-27.0,25.19,-0.69,1.81,-0.31,-0.05903568032688316,0.11041666157939467,0.07022750766258135,-134.02791208505093,-34.675036035061034,-4.344060485976967,-0.2496,-0.9206,-0.298,-0.0379
23,1596289.0,1557.59194,1.0,-0.88,4.74,-8.46,10.69,-27.0,25.19,-0.69,1.81,-0.31,-0.05903568032688316,0.11041666157939467,0.07022750766258135,-134.02791208505093,-34.675036035061034,-4.344060485976967,-0.2496,-0.9206,-0.298,-0.0379
24,1596325.0,1557.635792,1.0,-0.75,4.84,-8.46,10.38,-27.37,24.37,0.94,-1.19,0.37,0.09805459092562152,0.11116583954885463,0.032309743322015194,-134.02791208505093,-34.675036035061034,-4.3669953627837845,-0.2494,-0.9206,-0.298,-0.0381
25,1596325.0,1557.635792,1.0,-0.75,4.84,-8.46,10.38,-27.37,24.37,0.94,-1.19,0.37,0.09805459092562152,0.11116583954885463,0.032309743322015194,-134.02791208505093,-34.675036035061034,-4.3669953627837845,-0.2494,-0.9206,-0.298,-0.0381
26,1596360.0,1557.6441220000002,1.0,-0.74,4.73,-8.51,10.38,-27.37,24.37,-1.12,0.31,-0.31,0.03767656442683653,0.002710776430022932,0.04247194303155055,-134.02791208505093,-34.675036035061034,-4.355527902560735,-0.2496,-0.9206,-0.298,-0.038
27,1596360.0,1557.6441220000002,1.0,-0.74,4.73,-8.51,10.38,-27.37,24.37,-1.12,0.31,-0.31,0.03767656442683653,0.002710776430022932,0.04247194303155055,-134.02791208505093,-34.675036035061034,-4.355527902560735,-0.2496,-0.9206,-0.298,-0.038
28,1596395.0,1557.687083,1.0,-0.76,4.81,-8.49,10.69,-28.06,25.56,0.81,-1.0,-0.06,0.06750927015349573,0.07223558216467918,0.019718687320185783,-133.99857662596108,-34.66303165808797,-4.344060485976967,-0.2499,-0.9205,-0.2979,-0.0379
29,1596395.0,1557.687083,1.0,-0.76,4.81,-8.49,10.69,-28.06,25.56,0.81,-1.0,-0.06,0.06750927015349573,0.07223558216467918,0.019718687320185783,-133.99857662596108,-34.66303165808797,-4.344060485976967,-0.2499,-0.9205,-0.2979,-0.0379
30,1596428.0,1557.763289,1.0,-0.82,4.9,-8.4,10.69,-28.06,25.56,-0.37,-0.94,0.25,0.08628897136685615,0.204270968370166,0.04994832448990394,-133.99857662596108,-34.66303165808797,-4.332593112917143,-0.2501,-0.9205,-0.2979,-0.0378
31,1596428.0,1557.763289,1.0,-0.82,4.9,-8.4,10.69,-28.06,25.56,-0.37,-0.94,0.25,0.08628897136685615,0.204270968370166,0.04994832448990394,-133.99857662596108,-34.66303165808797,-4.332593112917143,-0.2501,-0.9205,-0.2979,-0.0378
32,1596465.0,1557.803163,1.0,-0.82,4.66,-8.28,10.69,-27.37,24.75,-1.44,1.69,-0.56,-0.01763653241292834,0.09002916321981536,0.2705090770430445,-133.9692588477758,-34.675036035061034,-4.355527902560735,-0.2501,-0.9204,-0.298,-0.038
33,1596465.0,1557.803163,1.0,-0.82,4.66,-8.28,10.69,-27.37,24.75,-1.44,1.69,-0.56,-0.01763653241292834,0.09002916321981536,0.2705090770430445,-133.9692588477758,-34.675036035061034,-4.355527902560735,-0.2501,-0.9204,-0.298,-0.038
34,1596499.0,1557.8183960000001,1.0,-0.73,4.71,-8.51,10.69,-27.37,24.75,0.37,0.31,0.0,0.02797033246248265,-0.02800288507267057,0.052905411436615424,-133.93995871664828,-34.675036035061034,-4.378462866761455,-0.2502,-0.9203,-0.298,-0.0382
35,1596499.0,1557.8183960000001,1.0,-0.73,4.71,-8.51,10.69,-27.37,24.75,0.37,0.31,0.0,0.02797033246248265,-0.02800288507267057,0.052905411436615424,-133.93995871664828,-34.675036035061034,-4.378462866761455,-0.2502,-0.9203,-0.298,-0.0382
36,1596536.0,1557.8216949999999,1.0,-0.74,4.93,-8.48,11.06,-27.0,24.37,-1.5,0.75,0.81,0.13941634779351753,0.14174154066783196,-0.028154137226984236,-133.9692588477758,-34.66303165808797,-4.389930414609093,-0.2504,-0.9204,-0.2979,-0.0383
37,1596536.0,1557.8216949999999,1.0,-0.74,4.93,-8.48,11.06,-27.0,24.37,-1.5,0.75,0.81,0.13941634779351753,0.14174154066783196,-0.028154137226984236,-133.9692588477758,-34.66303165808797,-4.389930414609093,-0.2504,-0.9204,-0.2979,-0.0383
38,1596571.0,1557.858868,1.0,-0.61,4.87,-8.71,10.69,-27.37,24.0,0.94,1.88,-0.69,0.15655143718427855,-0.06873343776956498,-0.1895426433041454,-133.93995871664828,-34.687040804634904,-4.447268815934101,-0.2502,-0.9203,-0.2981,-0.0388
39,1596571.0,1557.858868,1.0,-0.61,4.87,-8.71,10.69,-27.37,24.0,0.94,1.88,-0.69,0.15655143718427855,-0.06873343776956498,-0.1895426433041454,-133.93995871664828,-34.687040804634904,-4.447268815934101,-0.2502,-0.9203,-0.2981,-0.0388
40,1596606.0,1557.914927,1.0,-0.61,4.57,-8.87,10.69,-27.37,24.0,-0.63,1.81,-3.25,-0.03514414044158848,-0.3558692295714581,-0.18364639104050084,-133.85216386873807,-34.75907767623433,-4.435801047006329,-0.2505,-0.92,-0.2987,-0.0387
41,1596606.0,1557.914927,1.0,-0.61,4.57,-8.87,10.69,-27.37,24.0,-0.63,1.81,-3.25,-0.03514414044158848,-0.3558692295714581,-0.18364639104050084,-133.85216386873807,-34.75907767623433,-4.435801047006329,-0.2505,-0.92,-0.2987,-0.0387
42,1596639.0,1557.9815039999999,1.0,-0.82,4.15,-9.36,11.5,-27.37,24.75,-1.69,-1.0,-4.5,-0.5379829749114513,-0.7585915943992371,-0.4227005713516494,-133.706188934986,-34.91520624744418,-4.435801047006329,-0.2512,-0.9195,-0.3,-0.0387
43,1596639.0,1557.9815039999999,1.0,-0.82,4.15,-9.36,11.5,-27.37,24.75,-1.69,-1.0,-4.5,-0.5379829749114513,-0.7585915943992371,-0.4227005713516494,-133.706188934986,-34.91520624744418,-4.435801047006329,-0.2512,-0.9195,-0.3,-0.0387
44,1596676.0,1558.0220630000001,1.0,-0.5,4.09,-11.14,11.06,-27.0,26.0,-22.75,-1.06,-13.44,-0.7385806694105066,-1.8615208138575725,-1.9009090476558408,-133.18424101457546,-35.10745640434998,-4.4702044875913645,-0.2554,-0.9177,-0.3016,-0.039
45,1596676.0,1558.0220630000001,1.0,-0.5,4.09,-11.14,11.06,-27.0,26.0,-22.75,-1.06,-13.44,-0.7385806694105066,-1.8615208138575725,-1.9009090476558408,-133.18424101457546,-35.10745640434998,-4.4702044875913645,-0.2554,-0.9177,-0.3016,-0.039
46,1596712.0,1558.029699,1.0,-0.07,4.06,-12.57,11.06,-27.0,26.0,-34.31,-8.06,-28.81,-0.7898922906350418,-3.0539008334067517,-3.0207877748992717,-131.6503100355004,-35.997952375875286,-4.3669953627837845,-0.266,-0.9123,-0.309,-0.0381
47,1596712.0,1558.029699,1.0,-0.07,4.06,-12.57,11.06,-27.0,26.0,-34.31,-8.06,-28.81,-0.7898922906350418,-3.0539008334067517,-3.0207877748992717,-131.6503100355004,-35.997952375875286,-4.3669953627837845,-0.266,-0.9123,-0.309,-0.0381
48,1596745.0,1558.047298,1.0,0.25,3.62,-13.02,11.06,-27.37,25.19,-17.31,-15.75,-62.31,-0.845453137269718,-4.010082863516864,-3.0732469103176143,-129.9436888935972,-37.362137156703376,-3.8395356089996184,-0.2743,-0.9061,-0.3203,-0.0335
49,1596745.0,1558.047298,1.0,0.25,3.62,-13.02,11.06,-27.37,25.19,-17.31,-15.75,-62.31,-0.845453137269718,-4.010082863516864,-3.0732469103176143,-129.9436888935972,-37.362137156703376,-3.8395356089996184,-0.2743,-0.9061,-0.3203,-0.0335
50,1596782.0,1558.088447,1.0,0.24,2.83,-12.38,12.19,-28.06,24.75,27.5,-42.5,-85.87,-0.6742172269722501,-4.392562331630445,-2.092162011860479,-128.10621848828742,-39.9000028418168,-1.3636717386286217,-0.2736,-0.8992,-0.3412,-0.0119
51,1596782.0,1558.088447,1.0,0.24,2.83,-12.38,12.19,-28.06,24.75,27.5,-42.5,-85.87,-0.6742172269722501,-4.392562331630445,-2.092162011860479,-128.10621848828742,-39.9000028418168,-1.3636717386286217,-0.2736,-0.8992,-0.3412,-0.0119
52,1596819.0,1558.10453,1.0,-0.56,-2.74,-9.46,14.06,-27.0,25.06,102.5,-124.44,-32.88,-3.5029371040376005,-5.9383318088449455,2.7512657458847785,-128.44773606463812,-40.73006975326216,2.5670656278548973,-0.26,-0.9005,-0.348,0.0224
53,1596819.0,1558.10453,1.0,-0.56,-2.74,-9.46,14.06,-27.0,25.06,102.5,-124.44,-32.88,-3.5029371040376005,-5.9383318088449455,2.7512657458847785,-128.44773606463812,-40.73006975326216,2.5670656278548973,-0.26,-0.9005,-0.348,0.0224
54,1596852.0,1558.14296,1.0,-1.44,-1.44,-8.7,14.06,-27.0,25.06,60.19,-136.19,17.37,-2.340977435772091,-4.515306660355128,2.460288287685628,-130.02500909601727,-38.707543665525726,8.269226458088282,-0.2518,-0.9064,-0.3314,0.0721
55,1596852.0,1558.14296,1.0,-1.44,-1.44,-8.7,14.06,-27.0,25.06,60.19,-136.19,17.37,-2.340977435772091,-4.515306660355128,2.460288287685628,-130.02500909601727,-38.707543665525726,8.269226458088282,-0.2518,-0.9064,-0.3314,0.0721
56,1596889.0,1558.2016859999999,1.0,-1.73,-1.44,-5.86,17.75,-25.5,23.56,77.56,-157.25,118.19,-1.927965310213409,-3.134634611180576,4.721070817939954,-132.92531640784813,-34.77108519878443,12.434654560583265,-0.2418,-0.9168,-0.2988,0.1083
57,1596889.0,1558.2016859999999,1.0,-1.73,-1.44,-5.86,17.75,-25.5,23.56,77.56,-157.25,118.19,-1.927965310213409,-3.134634611180576,4.721070817939954,-132.92531640784813,-34.77108519878443,12.434654560583265,-0.2418,-0.9168,-0.2988,0.1083
58,1596925.0,1558.256703,1.0,-2.48,-1.52,-3.02,19.25,-23.25,24.37,88.31,-110.44,145.19,-2.4070945605554708,-1.759444718944232,6.858523466500545,-136.68295663578678,-28.174596802852534,16.686140017359815,-0.2366,-0.9294,-0.2434,0.1451
59,1596925.0,1558.256703,1.0,-2.48,-1.52,-3.02,19.25,-23.25,24.37,88.31,-110.44,145.19,-2.4070945605554708,-1.759444718944232,6.858523466500545,-136.68295663578678,-28.174596802852534,16.686140017359815,-0.2366,-0.9294,-0.2434,0.1451
60,1596960.0,1558.2637300000001,1.0,-2.78,-1.03,-0.98,19.25,-23.25,24.37,76.37,-89.75,191.63,-2.664709764304781,-0.5269462405377059,8.266731323055682,-140.17034192327273,-22.244146955349766,18.669230437467,-0.2291,-0.9402,-0.1929,0.1622
61,1596960.0,1558.2637300000001,1.0,-2.78,-1.03,-0.98,19.25,-23.25,24.37,76.37,-89.75,191.63,-2.664709764304781,-0.5269462405377059,8.266731323055682,-140.17034192327273,-22.244146955349766,18.669230437467,-0.2291,-0.9402,-0.1929,0.1622
62,1596995.0,1558.280182,1.0,-1.38,1.1,0.74,19.25,-24.0,23.56,37.13,-27.12,210.44,-1.1211089623894506,1.5145226702735912,9.472979839995538,-143.97904817901198,-13.807290567361374,19.284990927591146,-0.2303,-0.951,-0.1202,0.1675
63,1596995.0,1558.280182,1.0,-1.38,1.1,0.74,19.25,-24.0,23.56,37.13,-27.12,210.44,-1.1211089623894506,1.5145226702735912,9.472979839995538,-143.97904817901198,-13.807290567361374,19.284990927591146,-0.2303,-0.951,-0.1202,0.1675
64,1597030.0,1558.3181140000002,1.0,1.96,4.7,-2.34,17.06,-25.87,22.75,-0.56,39.69,222.44,3.2230766339918206,2.977274442975027,6.320274532179054,-147.27558529764082,-5.812283928177061,16.234582036054892,-0.2386,-0.9595,-0.0507,0.1412
65,1597030.0,1558.3181140000002,1.0,1.96,4.7,-2.34,17.06,-25.87,22.75,-0.56,39.69,222.44,3.2230766339918206,2.977274442975027,6.320274532179054,-147.27558529764082,-5.812283928177061,16.234582036054892,-0.2386,-0.9595,-0.0507,0.1412
66,1597067.0,1558.371621,1.0,0.77,3.62,-0.01,11.06,-27.69,24.0,58.75,90.0,212.63,0.9489899367225152,3.250486361494064,8.31294436844454,-149.81204156148604,-0.12605074034902247,12.619102083523115,-0.23600000000000002,-0.9655,-0.0011,0.1099
67,1597067.0,1558.371621,1.0,0.77,3.62,-0.01,11.06,-27.69,24.0,58.75,90.0,212.63,0.9489899367225152,3.250486361494064,8.31294436844454,-149.81204156148604,-0.12605074034902247,12.619102083523115,-0.23600000000000002,-0.9655,-0.0011,0.1099
68,1597102.0,1558.433415,1.0,2.19,3.18,3.05,11.06,-27.69,24.0,50.38,163.38,223.88,1.5129063588864504,4.456881442020481,11.241335387468066,-152.47972490837182,7.005907963772472,4.883078110442899,-0.2261,-0.9713,0.0611,0.0426
69,1597102.0,1558.433415,1.0,2.19,3.18,3.05,11.06,-27.69,24.0,50.38,163.38,223.88,1.5129063588864504,4.456881442020481,11.241335387468066,-152.47972490837182,7.005907963772472,4.883078110442899,-0.2261,-0.9713,0.0611,0.0426
70,1597138.0,1558.444501,1.0,13.23,8.97,-4.39,3.69,-27.75,25.56,-30.69,346.63,193.56,10.915857264539776,7.993042423262787,0.2295297125589215,-150.12163073433226,11.121372822035768,-4.860139072417077,-0.2351,-0.9662,0.0969,-0.0424
71,1597138.0,1558.444501,1.0,13.23,8.97,-4.39,3.69,-27.75,25.56,-30.69,346.63,193.56,10.915857264539776,7.993042423262787,0.2295297125589215,-150.12163073433226,11.121372822035768,-4.860139072417077,-0.2351,-0.9662,0.0969,-0.0424
72,1597175.0,1558.497442,1.0,10.74,8.91,-7.45,-6.38,-26.37,24.37,-18.87,355.5,147.19,4.9211934509466095,5.108298204696967,-4.332845905804072,-141.39967008106163,13.634163660769715,-20.4250635419962,-0.2523,-0.9438,0.1187,-0.1773
73,1597175.0,1558.497442,1.0,10.74,8.91,-7.45,-6.38,-26.37,24.37,-18.87,355.5,147.19,4.9211934509466095,5.108298204696967,-4.332845905804072,-141.39967008106163,13.634163660769715,-20.4250635419962,-0.2523,-0.9438,0.1187,-0.1773
74,1597210.0,1558.552749,1.0,8.18,5.91,-0.99,-6.38,-26.37,24.37,79.37,281.5,146.69,4.205916752616105,5.457374836704403,2.3670314505198693,-135.54829362030736,15.008530771963965,-30.17572764472251,-0.2416,-0.9257,0.1306,-0.2603
75,1597210.0,1558.552749,1.0,8.18,5.91,-0.99,-6.38,-26.37,24.37,79.37,281.5,146.69,4.205916752616105,5.457374836704403,2.3670314505198693,-135.54829362030736,15.008530771963965,-30.17572764472251,-0.2416,-0.9257,0.1306,-0.2603
76,1597245.0,1558.568383,1.0,13.22,6.8,0.35,-18.0,-25.37,19.19,124.5,274.56,136.25,6.743236084170488,7.633212291670631,-1.028189049262771,-128.3424298098244,16.616652750638245,-41.84440708007335,-0.2036,-0.9001,0.1445,-0.3571
77,1597245.0,1558.568383,1.0,13.22,6.8,0.35,-18.0,-25.37,19.19,124.5,274.56,136.25,6.743236084170488,7.633212291670631,-1.028189049262771,-128.3424298098244,16.616652750638245,-41.84440708007335,-0.2036,-0.9001,0.1445,-0.3571
78,1597282.0,1558.572682,1.0,16.75,4.06,-2.81,-25.19,-21.87,16.75,185.94,337.31,92.31,5.233892750272894,4.0069900131406735,-6.3640827512772775,-118.8580978383618,15.031647378904806,-55.65355458403448,-0.1539,-0.861,0.1308,-0.4668
79,1597282.0,1558.572682,1.0,16.75,4.06,-2.81,-25.19,-21.87,16.75,185.94,337.31,92.31,5.233892750272894,4.0069900131406735,-6.3640827512772775,-118.8580978383618,15.031647378904806,-55.65355458403448,-0.1539,-0.861,0.1308,-0.4668
80,1597319.0,1558.611719,1.0,14.14,3.6,-2.91,-30.5,-16.25,12.88,151.06,251.38,76.0,2.0046149548561494,3.3949225633011766,-4.5399077638664105,-111.82855209706509,13.264930228136947,-64.76922217655454,-0.1179,-0.8282,0.1155,-0.5356
81,1597319.0,1558.611719,1.0,14.14,3.6,-2.91,-30.5,-16.25,12.88,151.06,251.38,76.0,2.0046149548561494,3.3949225633011766,-4.5399077638664105,-111.82855209706509,13.264930228136947,-64.76922217655454,-0.1179,-0.8282,0.1155,-0.5356
82,1597353.0,1558.666309,1.0,13.02,4.64,-0.17,-30.5,-16.25,12.88,213.25,224.44,57.56,2.129052254320589,5.331388260501845,-2.768020401809963,-104.09110859790351,9.959079806154524,-74.58726608016605,-0.0604,-0.7885,0.0868,-0.6059
83,1597353.0,1558.666309,1.0,13.02,4.64,-0.17,-30.5,-16.25,12.88,213.25,224.44,57.56,2.129052254320589,5.331388260501845,-2.768020401809963,-104.09110859790351,9.959079806154524,-74.58726608016605,-0.0604,-0.7885,0.0868,-0.6059
84,1597388.0,1558.686738,1.0,16.73,0.77,-2.88,-34.25,-11.88,8.19,274.19,192.44,-55.44,-0.3998600763958208,1.19328314229378,-7.140219541647572,-98.55882930624523,4.1720543955147065,-81.26427589274175,-0.0138,-0.7579,0.0364,-0.6512
85,1597388.0,1558.686738,1.0,16.73,0.77,-2.88,-34.25,-11.88,8.19,274.19,192.44,-55.44,-0.3998600763958208,1.19328314229378,-7.140219541647572,-98.55882930624523,4.1720543955147065,-81.26427589274175,-0.0138,-0.7579,0.0364,-0.6512
86,1597425.0,1558.727323,1.0,16.68,-7.36,-0.39,-35.75,-10.75,3.75,224.94,190.94,-35.81,-0.8319516260727133,-7.364376576005265,-6.855220067272159,-91.05716253041412,-4.573417240623146,-88.59755263252764,0.0369,-0.7136,-0.0399,-0.6984
87,1597425.0,1558.727323,1.0,16.68,-7.36,-0.39,-35.75,-10.75,3.75,224.94,190.94,-35.81,-0.8319516260727133,-7.364376576005265,-6.855220067272159,-91.05716253041412,-4.573417240623146,-88.59755263252764,0.0369,-0.7136,-0.0399,-0.6984
88,1597462.0,1558.743905,1.0,14.66,3.5,-2.39,-35.75,-10.75,3.75,18.69,163.63,29.56,-2.782870846105935,4.020065234399383,-4.649227882891344,-86.01592640293836,-5.502509177758649,-93.38784380135635,0.0549,-0.6821,-0.048,-0.7277
89,1597462.0,1558.743905,1.0,14.66,3.5,-2.39,-35.75,-10.75,3.75,18.69,163.63,29.56,-2.782870846105935,4.020065234399383,-4.649227882891344,-86.01592640293836,-5.502509177758649,-93.38784380135635,0.0549,-0.6821,-0.048,-0.7277
90,1597497.0,1558.787933,1.0,13.97,0.74,-2.39,-35.75,-11.56,1.06,210.56,115.94,-16.75,-4.312857975211162,1.6992189027628797,-3.60724247035143,-80.16650253253808,-8.69437956401469,-98.33074261459299,0.0854,-0.6439,-0.0758,-0.7566
91,1597497.0,1558.787933,1.0,13.97,0.74,-2.39,-35.75,-11.56,1.06,210.56,115.94,-16.75,-4.312857975211162,1.6992189027628797,-3.60724247035143,-80.16650253253808,-8.69437956401469,-98.33074261459299,0.0854,-0.6439,-0.0758,-0.7566
92,1597532.0,1558.849612,1.0,12.35,-3.88,1.82,-35.69,-10.5,-3.25,217.88,70.37,2.25,-2.3002989149659774,-3.706036342862409,-2.516629576768078,-76.03469006904194,-14.904513628099544,-99.88518184221613,0.1343,-0.6159,-0.1297,-0.7654
93,1597532.0,1558.849612,1.0,12.35,-3.88,1.82,-35.69,-10.5,-3.25,217.88,70.37,2.25,-2.3002989149659774,-3.706036342862409,-2.516629576768078,-76.03469006904194,-14.904513628099544,-99.88518184221613,0.1343,-0.6159,-0.1297,-0.7654
94,1597569.0,1558.86724,1.0,11.38,4.7,2.61,-35.38,-12.06,-3.19,115.19,55.5,54.44,1.7739279316759684,4.052856118647274,-1.9761356203345724,-73.84009584056888,-16.767216307875252,-100.38504889165013,0.1667,-0.6007,-0.1458,-0.7682
95,1597569.0,1558.86724,1.0,11.38,4.7,2.61,-35.38,-12.06,-3.19,115.19,55.5,54.44,1.7739279316759684,4.052856118647274,-1.9761356203345724,-73.84009584056888,-16.767216307875252,-100.38504889165013,0.1667,-0.6007,-0.1458,-0.7682
96,1597601.0,1558.910266,1.0,16.44,-16.08,2.35,-35.38,-12.06,-3.19,279.88,106.25,-181.38,-11.66241349372824,-14.108449373716011,-4.3107955115150975,-68.18076625802583,-25.265378432632104,-102.06448850767781,0.1827,-0.5605,-0.2187,-0.7775
97,1597601.0,1558.910266,1.0,16.44,-16.08,2.35,-35.38,-12.06,-3.19,279.88,106.25,-181.38,-11.66241349372824,-14.108449373716011,-4.3107955115150975,-68.18076625802583,-25.265378432632104,-102.06448850767781,0.1827,-0.5605,-0.2187,-0.7775
98,1597638.0,1558.927384,1.0,13.8,-1.57,-0.56,-33.75,-11.25,-4.0,-166.44,-6.81,154.75,-5.5355868005587965,-0.13868610401010706,-2.943116466019436,-67.51788517086389,-24.725463298356363,-102.48453447446366,0.1927,-0.5557,-0.2141,-0.7798
99,1597638.0,1558.927384,1.0,13.8,-1.57,-0.56,-33.75,-11.25,-4.0,-166.44,-6.81,154.75,-5.5355868005587965,-0.13868610401010706,-2.943116466019436,-67.51788517086389,-24.725463298356363,-102.48453447446366,0.1927,-0.5557,-0.2141,-0.7798
100,1597677.0,1559.044997,1.0,9.43,8.86,2.14,-34.06,-15.38,-4.38,14.13,6.25,94.69,3.97199164510731,8.055878055864184,0.2499658930388602,-71.93128239622219,-16.998909587512788,-100.58214202852676,0.2034,-0.5873,-0.1478,-0.7693
101,1597677.0,1559.044997,1.0,9.43,8.86,2.14,-34.06,-15.38,-4.38,14.13,6.25,94.69,3.97199164510731,8.055878055864184,0.2499658930388602,-71.93128239622219,-16.998909587512788,-100.58214202852676,0.2034,-0.5873,-0.1478,-0.7693
102,1597712.0,1559.055053,1.0,8.45,4.14,3.14,-34.06,-15.38,-4.38,60.94,10.56,19.37,2.8265446577984146,3.3432393507485227,0.905240227324784,-71.11222790088254,-17.717608294742977,-100.27771483475884,0.221,-0.5815,-0.154,-0.7676
103,1597712.0,1559.055053,1.0,8.45,4.14,3.14,-34.06,-15.38,-4.38,60.94,10.56,19.37,2.8265446577984146,3.3432393507485227,0.905240227324784,-71.11222790088254,-17.717608294742977,-100.27771483475884,0.221,-0.5815,-0.154,-0.7676
104,1597747.0,1559.0577230000001,1.0,8.78,2.14,3.38,-35.25,-9.75,-3.69,84.37,27.0,-14.75,1.8375042276098796,1.4352598034933783,0.4441712945506797,-69.86346279099202,-19.6570420373131,-100.0812477423364,0.2355,-0.5726,-0.1707,-0.7665
105,1597747.0,1559.0577230000001,1.0,8.78,2.14,3.38,-35.25,-9.75,-3.69,84.37,27.0,-14.75,1.8375042276098796,1.4352598034933783,0.4441712945506797,-69.86346279099202,-19.6570420373131,-100.0812477423364,0.2355,-0.5726,-0.1707,-0.7665
106,1597782.0,1559.102723,1.0,10.06,-4.4,1.99,-35.56,-9.38,-4.75,61.06,33.44,-48.25,-3.7189571788828255,-3.1438999092834483,-0.23371607211328185,-67.62818664851126,-22.174080183171977,-101.12175699059144,0.2383,-0.5565,-0.1923,-0.7723
107,1597782.0,1559.102723,1.0,10.06,-4.4,1.99,-35.56,-9.38,-4.75,61.06,33.44,-48.25,-3.7189571788828255,-3.1438999092834483,-0.23371607211328185,-67.62818664851126,-22.174080183171977,-101.12175699059144,0.2383,-0.5565,-0.1923,-0.7723
108,1597818.0,1559.163136,1.0,9.39,-0.95,3.21,-34.88,-11.69,-5.19,-59.06,-6.56,-2.81,-0.5977152915293211,-1.1596604758984914,-0.07649848673796633,-67.80757842682634,-21.497196482057948,-101.7734021529752,0.2282,-0.5578,-0.1865,-0.7759
109,1597818.0,1559.163136,1.0,9.39,-0.95,3.21,-34.88,-11.69,-5.19,-59.06,-6.56,-2.81,-0.5977152915293211,-1.1596604758984914,-0.07649848673796633,-67.80757842682634,-21.497196482057948,-101.7734021529752,0.2282,-0.5578,-0.1865,-0.7759
110,1597851.0,1559.180175,1.0,9.23,1.95,3.04,-34.88,-11.69,-5.19,-68.69,-2.06,15.44,1.0140499478691478,1.5217386227549965,0.06534545352152142,-68.73515523864087,-19.180388694494322,-102.22862690361036,0.2186,-0.5645,-0.1666,-0.7784
111,1597851.0,1559.180175,1.0,9.23,1.95,3.04,-34.88,-11.69,-5.19,-68.69,-2.06,15.44,1.0140499478691478,1.5217386227549965,0.06534545352152142,-68.73515523864087,-19.180388694494322,-102.22862690361036,0.2186,-0.5645,-0.1666,-0.7784
112,1597888.0,1559.183501,1.0,9.41,2.4,2.56,-35.25,-10.56,-4.38,-40.13,9.5,4.81,0.7970526033309808,2.3103262152444466,0.06556176886906506,-68.92962456147485,-17.90319186690899,-102.66776223181776,0.2141,-0.5659,-0.1556,-0.7808
113,1597888.0,1559.183501,1.0,9.41,2.4,2.56,-35.25,-10.56,-4.38,-40.13,9.5,4.81,0.7970526033309808,2.3103262152444466,0.06556176886906506,-68.92962456147485,-17.90319186690899,-102.66776223181776,0.2141,-0.5659,-0.1556,-0.7808
114,1597925.0,1559.219185,1.0,9.45,0.65,2.57,-34.5,-9.75,-6.0,-5.31,12.56,-7.75,-0.18166756137631115,0.8375273931452978,0.029357697788981337,-68.59638668148234,-17.474100846214462,-103.33043920857978,0.21,-0.5635,-0.1519,-0.7844
115,1597925.0,1559.219185,1.0,9.45,0.65,2.57,-34.5,-9.75,-6.0,-5.31,12.56,-7.75,-0.18166756137631115,0.8375273931452978,0.029357697788981337,-68.59638668148234,-17.474100846214462,-103.33043920857978,0.21,-0.5635,-0.1519,-0.7844
116,1597958.0,1559.272894,1.0,9.26,-0.12,2.96,-34.5,-9.75,-6.0,-6.38,8.75,-8.19,-0.2559543856847045,-0.054076053738454366,0.08784538560112587,-68.2776528480455,-17.566856150665245,-103.66360039479626,0.2089,-0.5612,-0.1527,-0.7862
117,1597958.0,1559.272894,1.0,9.26,-0.12,2.96,-34.5,-9.75,-6.0,-6.38,8.75,-8.19,-0.2559543856847045,-0.054076053738454366,0.08784538560112587,-68.2776528480455,-17.566856150665245,-103.66360039479626,0.2089,-0.5612,-0.1527,-0.7862
118,1597992.0,1559.330073,1.0,8.9,0.02,3.05,-35.25,-10.56,-7.19,-26.31,11.56,-6.25,-0.06953687372876177,0.018772216575936085,0.3987962475718252,-68.07010656639203,-16.709303811577858,-104.46452369149223,0.2017,-0.5597,-0.1453,-0.7905
119,1597992.0,1559.330073,1.0,8.9,0.02,3.05,-35.25,-10.56,-7.19,-26.31,11.56,-6.25,-0.06953687372876177,0.018772216575936085,0.3987962475718252,-68.07010656639203,-16.709303811577858,-104.46452369149223,0.2017,-0.5597,-0.1453,-0.7905
120,1598027.0,1559.338532,1.0,8.94,0.83,2.84,-34.5,-9.75,-6.38,-27.0,19.94,0.69,0.06320628978839485,0.9204512635992728,0.43505064683355776,-67.71095944217275,-15.945255673236543,-105.17837759673445,0.1989,-0.5571,-0.1387,-0.7943
121,1598027.0,1559.338532,1.0,8.94,0.83,2.84,-34.5,-9.75,-6.38,-27.0,19.94,0.69,0.06320628978839485,0.9204512635992728,0.43505064683355776,-67.71095944217275,-15.945255673236543,-105.17837759673445,0.1989,-0.5571,-0.1387,-0.7943
122,1598064.0,1559.351042,1.0,9.04,1.45,3.09,-34.5,-9.75,-6.38,-23.0,20.44,-5.25,0.40709381581137616,1.4660429267139792,0.26426074142539235,-67.14613988325526,-15.135679738336453,-106.1456894229273,0.1942,-0.5529999999999999,-0.1317,-0.7994
123,1598064.0,1559.351042,1.0,9.04,1.45,3.09,-34.5,-9.75,-6.38,-23.0,20.44,-5.25,0.40709381581137616,1.4660429267139792,0.26426074142539235,-67.14613988325526,-15.135679738336453,-106.1456894229273,0.1942,-0.5529999999999999,-0.1317,-0.7994
124,1598097.0,1559.389926,1.0,9.28,0.49,2.91,-35.25,-10.56,-6.75,-10.94,21.75,-13.69,-0.3795958277762576,0.7456472423766408,0.10476785283541012,-66.51463076702889,-14.93918463283386,-106.95053068480223,0.191,-0.5484,-0.13,-0.8036
125,1598097.0,1559.389926,1.0,9.28,0.49,2.91,-35.25,-10.56,-6.75,-10.94,21.75,-13.69,-0.3795958277762576,0.7456472423766408,0.10476785283541012,-66.51463076702889,-14.93918463283386,-106.95053068480223,0.191,-0.5484,-0.13,-0.8036
126,1598134.0,1559.441915,1.0,9.17,-0.09,3.23,-35.25,-10.19,-6.75,-12.63,10.25,-8.56,-0.4249212739364083,0.08242443105551478,0.0936407791600722,-66.09033392975714,-14.7196246947995,-107.58829882460172,0.1873,-0.5453,-0.1281,-0.8069
127,1598134.0,1559.441915,1.0,9.17,-0.09,3.23,-35.25,-10.19,-6.75,-12.63,10.25,-8.56,-0.4249212739364083,0.08242443105551478,0.0936407791600722,-66.09033392975714,-14.7196246947995,-107.58829882460172,0.1873,-0.5453,-0.1281,-0.8069
128,1598169.0,1559.4997,1.0,9.0,0.04,3.88,-34.5,-10.88,-7.56,-17.62,9.38,2.75,0.2083732544229541,-0.04860280078412038,0.008169589518118414,-65.96734252761773,-14.292215737283833,-107.8992703852027,0.1854,-0.5444,-0.1244,-0.8085
129,1598169.0,1559.4997,1.0,9.0,0.04,3.88,-34.5,-10.88,-7.56,-17.62,9.38,2.75,0.2083732544229541,-0.04860280078412038,0.008169589518118414,-65.96734252761773,-14.292215737283833,-107.8992703852027,0.1854,-0.5444,-0.1244,-0.8085
130,1598203.0,1559.5121609999999,1.0,9.01,0.53,3.69,-34.5,-10.88,-7.56,-19.75,15.06,7.88,0.21059158785323115,0.5951870725232139,0.0763620529849316,-65.65341937322533,-13.426452603767608,-108.48549085474319,0.1843,-0.5421,-0.1169,-0.8115
131,1598203.0,1559.5121609999999,1.0,9.01,0.53,3.69,-34.5,-10.88,-7.56,-19.75,15.06,7.88,0.21059158785323115,0.5951870725232139,0.0763620529849316,-65.65341937322533,-13.426452603767608,-108.48549085474319,0.1843,-0.5421,-0.1169,-0.8115
132,1598238.0,1559.5708949999998,1.0,8.8,0.76,3.64,-34.06,-10.88,-8.75,-15.13,21.12,3.19,0.2675376538506238,0.8785317456658874,0.297506738084687,-65.21757686713724,-12.815113562902274,-109.09565995624818,0.1833,-0.5389,-0.1116,-0.8146
133,1598238.0,1559.5708949999998,1.0,8.8,0.76,3.64,-34.06,-10.88,-8.75,-15.13,21.12,3.19,0.2675376538506238,0.8785317456658874,0.297506738084687,-65.21757686713724,-12.815113562902274,-109.09565995624818,0.1833,-0.5389,-0.1116,-0.8146
134,1598275.0,1559.631392,1.0,8.69,0.42,4.03,-34.5,-10.56,-9.56,-7.38,23.12,0.0,0.3578922285634875,0.4781026831437975,0.2370768132217851,-64.4302992386677,-12.365495103087909,-110.02956467321043,0.1815,-0.5331,-0.1077,-0.8193
135,1598275.0,1559.631392,1.0,8.69,0.42,4.03,-34.5,-10.56,-9.56,-7.38,23.12,0.0,0.3578922285634875,0.4781026831437975,0.2370768132217851,-64.4302992386677,-12.365495103087909,-110.02956467321043,0.1815,-0.5331,-0.1077,-0.8193
136,1598310.0,1559.648282,1.0,8.78,0.38,3.98,-34.5,-10.56,-9.56,-9.13,25.06,-0.31,0.16490380391671902,0.5398776686317479,0.17573421600694772,-63.808323575638354,-12.042810329741009,-110.7321495345978,0.18100000000000002,-0.5285,-0.1049,-0.8228
137,1598310.0,1559.648282,1.0,8.78,0.38,3.98,-34.5,-10.56,-9.56,-9.13,25.06,-0.31,0.16490380391671902,0.5398776686317479,0.17573421600694772,-63.808323575638354,-12.042810329741009,-110.7321495345978,0.18100000000000002,-0.5285,-0.1049,-0.8228
138,1598345.0,1559.6511779999998,1.0,8.99,0.43,3.68,-33.38,-10.56,-10.0,-8.75,26.12,-0.44,-0.2897993083643058,0.7714680048375406,0.11808697556837801,-63.00019289675618,-11.789339646395064,-111.68555504305651,0.1784,-0.5225,-0.1027,-0.8275
139,1598345.0,1559.6511779999998,1.0,8.99,0.43,3.68,-33.38,-10.56,-10.0,-8.75,26.12,-0.44,-0.2897993083643058,0.7714680048375406,0.11808697556837801,-63.00019289675618,-11.789339646395064,-111.68555504305651,0.1784,-0.5225,-0.1027,-0.8275
140,1598380.0,1559.695325,1.0,8.96,0.54,3.8,-34.5,-10.56,-10.75,-9.31,19.75,-2.94,-0.2110767904592497,0.8167256719235317,0.0957486121086326,-62.62426048552695,-11.731740790019305,-112.15639729539848,0.1756,-0.5197,-0.1022,-0.8298
141,1598380.0,1559.695325,1.0,8.96,0.54,3.8,-34.5,-10.56,-10.75,-9.31,19.75,-2.94,-0.2110767904592497,0.8167256719235317,0.0957486121086326,-62.62426048552695,-11.731740790019305,-112.15639729539848,0.1756,-0.5197,-0.1022,-0.8298
142,1598414.0,1559.712792,1.0,8.8,0.39,3.99,-34.5,-10.56,-10.75,-4.94,12.13,-4.56,-0.11606722771266828,0.5402849105674487,0.15228204481700836,-62.34280299111539,-11.858462221253813,-112.54753437473772,0.1721,-0.5176,-0.1033,-0.8317
143,1598414.0,1559.712792,1.0,8.8,0.39,3.99,-34.5,-10.56,-10.75,-4.94,12.13,-4.56,-0.11606722771266828,0.5402849105674487,0.15228204481700836,-62.34280299111539,-11.858462221253813,-112.54753437473772,0.1721,-0.5176,-0.1033,-0.8317
144,1598447.0,1559.757795,1.0,8.68,0.19,4.3,-33.38,-9.75,-11.19,-1.69,6.81,-2.94,0.07123157844611724,0.2302414622801721,0.1210723233056914,-62.14201779296097,-11.800859775906506,-112.8163105430652,0.1709,-0.5161,-0.1028,-0.833
145,1598447.0,1559.757795,1.0,8.68,0.19,4.3,-33.38,-9.75,-11.19,-1.69,6.81,-2.94,0.07123157844611724,0.2302414622801721,0.1210723233056914,-62.14201779296097,-11.800859775906506,-112.8163105430652,0.1709,-0.5161,-0.1028,-0.833
146,1598482.0,1559.77501,1.0,8.69,0.25,4.39,-33.75,-10.19,-12.0,-1.0,5.63,0.37,0.13015537777192449,0.27115457807163323,0.07216312228385569,-61.92808029086676,-11.731740790019305,-113.02370899765695,0.1707,-0.5145,-0.1022,-0.8340000000000001
147,1598482.0,1559.77501,1.0,8.69,0.25,4.39,-33.75,-10.19,-12.0,-1.0,5.63,0.37,0.13015537777192449,0.27115457807163323,0.07216312228385569,-61.92808029086676,-11.731740790019305,-113.02370899765695,0.1707,-0.5145,-0.1022,-0.8340000000000001
148,1598519.0,1559.8336960000001,1.0,8.74,0.45,4.28,-33.0,-10.19,-12.25,-5.19,0.19,-2.25,0.09166728457849148,0.4968838712153021,0.07766220437274463,-61.94144435552603,-11.662626087112969,-113.10682738081556,0.1691,-0.5146,-0.1016,-0.8344
149,1598519.0,1559.8336960000001,1.0,8.74,0.45,4.28,-33.0,-10.19,-12.25,-5.19,0.19,-2.25,0.09166728457849148,0.4968838712153021,0.07766220437274463,-61.94144435552603,-11.662626087112969,-113.10682738081556,0.1691,-0.5146,-0.1016,-0.8344
150,1598554.0,1559.869442,1.0,8.62,0.43,4.42,-33.0,-10.19,-12.25,-1.94,0.69,-2.5,0.2317703165417019,0.3797052558084508,0.12017456054930165,-61.901354966419795,-11.754779974813852,-113.21085389304196,0.1672,-0.5143,-0.1024,-0.8349
151,1598554.0,1559.869442,1.0,8.62,0.43,4.42,-33.0,-10.19,-12.25,-1.94,0.69,-2.5,0.2317703165417019,0.3797052558084508,0.12017456054930165,-61.901354966419795,-11.754779974813852,-113.21085389304196,0.1672,-0.5143,-0.1024,-0.8349
152,1598588.0,1559.876244,1.0,8.69,0.2,4.06,-33.38,-10.56,-12.0,-2.31,1.5,-3.31,-0.2012146360669628,0.28738036902297115,0.2193341507264055,-61.821201404862826,-11.800859775906506,-113.31502385151421,0.166,-0.5137,-0.1028,-0.8354
153,1598588.0,1559.876244,1.0,8.69,0.2,4.06,-33.38,-10.56,-12.0,-2.31,1.5,-3.31,-0.2012146360669628,0.28738036902297115,0.2193341507264055,-61.821201404862826,-11.800859775906506,-113.31502385151421,0.166,-0.5137,-0.1028,-0.8354
154,1598625.0,1559.932958,1.0,8.66,0.35,4.41,-33.0,-9.75,-13.19,-4.63,-1.63,-2.38,0.15637150937279795,0.28444773096126064,0.0875534658869892,-61.88799370587642,-11.720221376139571,-113.39846355737878,0.1632,-0.5142,-0.1021,-0.8358
155,1598625.0,1559.932958,1.0,8.66,0.35,4.41,-33.0,-9.75,-13.19,-4.63,-1.63,-2.38,0.15637150937279795,0.28444773096126064,0.0875534658869892,-61.88799370587642,-11.720221376139571,-113.39846355737878,0.1632,-0.5142,-0.1021,-0.8358
156,1598658.0,1559.950279,1.0,8.63,0.43,4.24,-33.0,-9.75,-13.19,-4.31,0.37,-3.75,0.05413624758979689,0.3940016300096153,0.1899337214438628,-61.914717161290675,-11.708702081111404,-113.46110408162376,0.1613,-0.5144,-0.102,-0.8361
157,1598658.0,1559.950279,1.0,8.63,0.43,4.24,-33.0,-9.75,-13.19,-4.31,0.37,-3.75,0.05413624758979689,0.3940016300096153,0.1899337214438628,-61.914717161290675,-11.708702081111404,-113.46110408162376,0.1613,-0.5144,-0.102,-0.8361
158,1598693.0,1560.036206,1.0,8.62,0.32,4.17,-33.0,-9.75,-10.75,-2.38,-2.19,-2.0,-0.03425438716050505,0.2907528402167729,0.2301167325348814,-61.96817529160685,-11.846941492078386,-113.37759496408128,0.1611,-0.5148,-0.1032,-0.8357
159,1598693.0,1560.036206,1.0,8.62,0.32,4.17,-33.0,-9.75,-10.75,-2.38,-2.19,-2.0,-0.03425438716050505,0.2907528402167729,0.2301167325348814,-61.96817529160685,-11.846941492078386,-113.37759496408128,0.1611,-0.5148,-0.1032,-0.8357
160,1598730.0,1560.086221,1.0,8.51,0.42,4.57,-33.0,-10.19,-12.25,-5.38,-1.12,-2.81,0.3810531571324071,0.2195297975891648,0.14807840998681066,-62.00827871831106,-11.812380025110386,-113.39846355737878,0.1595,-0.5151,-0.1029,-0.8358
161,1598730.0,1560.086221,1.0,8.51,0.42,4.57,-33.0,-10.19,-12.25,-5.38,-1.12,-2.81,0.3810531571324071,0.2195297975891648,0.14807840998681066,-62.00827871831106,-11.812380025110386,-113.39846355737878,0.1595,-0.5151,-0.1029,-0.8358
162,1598763.0,1560.10273,1.0,8.69,0.31,4.29,-33.0,-10.19,-12.25,-4.31,2.69,-3.81,0.014215690833361966,0.2298288584944258,0.1131843344117982,-61.94144435552603,-11.789339646395064,-113.54470605704358,0.1578,-0.5146,-0.1027,-0.8365
163,1598763.0,1560.10273,1.0,8.69,0.31,4.29,-33.0,-10.19,-12.25,-4.31,2.69,-3.81,0.014215690833361966,0.2298288584944258,0.1131843344117982,-61.94144435552603,-11.789339646395064,-113.54470605704358,0.1578,-0.5146,-0.1027,-0.8365
164,1598797.0,1560.143157,1.0,8.8,0.25,4.17,-33.75,-10.19,-13.19,-1.25,0.69,1.0,-0.16094944142995424,0.2279722313830813,0.06942637419055764,-61.92808029086676,-11.720221376139571,-113.62840124543837,0.1564,-0.5145,-0.1021,-0.8369
165,1598797.0,1560.143157,1.0,8.8,0.25,4.17,-33.75,-10.19,-13.19,-1.25,0.69,1.0,-0.16094944142995424,0.2279722313830813,0.06942637419055764,-61.92808029086676,-11.720221376139571,-113.62840124543837,0.1564,-0.5145,-0.1021,-0.8369
166,1598832.0,1560.1591210000001,1.0,8.72,0.45,4.2,-33.0,-10.19,-11.56,-6.25,-3.31,-0.88,-0.015185585261895672,0.3892846345786308,0.12526957821710027,-62.02164840141652,-11.674144907935558,-113.56562110150705,0.1558,-0.5152,-0.1017,-0.8366
167,1598832.0,1560.1591210000001,1.0,8.72,0.45,4.2,-33.0,-10.19,-11.56,-6.25,-3.31,-0.88,-0.015185585261895672,0.3892846345786308,0.12526957821710027,-62.02164840141652,-11.674144907935558,-113.56562110150705,0.1558,-0.5152,-0.1017,-0.8366
168,1598867.0,1560.162118,1.0,8.58,0.39,4.49,-33.0,-10.56,-12.0,-4.31,-3.94,-2.06,0.2847851618540391,0.2014384894033036,0.12125274709525867,-62.19553975386646,-11.628070333672753,-113.48199585621887,0.1541,-0.5165,-0.1013,-0.8362
169,1598867.0,1560.162118,1.0,8.58,0.39,4.49,-33.0,-10.56,-12.0,-4.31,-3.94,-2.06,0.2847851618540391,0.2014384894033036,0.12125274709525867,-62.19553975386646,-11.628070333672753,-113.48199585621887,0.1541,-0.5165,-0.1013,-0.8362
170,1598900.0,1560.1977,1.0,8.69,0.28,4.3,-33.0,-10.56,-12.0,-1.25,1.56,1.5,0.03763360633613092,0.18276705039675434,0.10872857750108088,-62.182157850572864,-11.593515641253694,-113.52379683838042,0.154,-0.5164,-0.10099999999999999,-0.8364
171,1598900.0,1560.1977,1.0,8.69,0.28,4.3,-33.0,-10.56,-12.0,-1.25,1.56,1.5,0.03763360633613092,0.18276705039675434,0.10872857750108088,-62.182157850572864,-11.593515641253694,-113.52379683838042,0.154,-0.5164,-0.10099999999999999,-0.8364
172,1598937.0,1560.2536189999998,1.0,8.7,0.44,4.24,-32.56,-10.19,-12.25,-6.69,0.0,-1.0,0.039184589688097626,0.3642597608024115,0.12538048641908972,-62.182157850572864,-11.455307417011952,-113.58654197734043,0.1531,-0.5164,-0.0998,-0.8367
173,1598937.0,1560.2536189999998,1.0,8.7,0.44,4.24,-32.56,-10.19,-12.25,-6.69,0.0,-1.0,0.039184589688097626,0.3642597608024115,0.12538048641908972,-62.182157850572864,-11.455307417011952,-113.58654197734043,0.1531,-0.5164,-0.0998,-0.8367
174,1598971.0,1560.316079,1.0,8.55,0.3,4.47,-33.0,-9.75,-12.75,-2.88,-0.44,-2.5,0.23898425295857895,0.12589633020468285,0.15779324694998564,-62.182157850572864,-11.420757981123572,-113.62840124543837,0.1515,-0.5164,-0.0995,-0.8369
175,1598971.0,1560.316079,1.0,8.55,0.3,4.47,-33.0,-9.75,-12.75,-2.88,-0.44,-2.5,0.23898425295857895,0.12589633020468285,0.15779324694998564,-62.182157850572864,-11.420757981123572,-113.62840124543837,0.1515,-0.5164,-0.0995,-0.8369
176,1599006.0,1560.356896,1.0,8.64,0.23,4.37,-33.0,-9.75,-12.75,-3.75,2.75,-0.69,0.07849911009897009,0.11055494823223601,0.12259013374891305,-62.115262460964935,-11.34014667578332,-113.75411958451244,0.1505,-0.5159,-0.0988,-0.8375
177,1599006.0,1560.356896,1.0,8.64,0.23,4.37,-33.0,-9.75,-12.75,-3.75,2.75,-0.69,0.07849911009897009,0.11055494823223601,0.12259013374891305,-62.115262460964935,-11.34014667578332,-113.75411958451244,0.1505,-0.5159,-0.0988,-0.8375
178,1599041.0,1560.373075,1.0,8.69,0.38,4.12,-33.0,-10.19,-12.25,-6.44,1.12,-1.94,-0.10700942375950004,0.3429329387609673,0.18865405579522765,-62.08851089054388,-11.224997424028942,-113.85904656766621,0.1492,-0.5157,-0.0978,-0.838
179,1599041.0,1560.373075,1.0,8.69,0.38,4.12,-33.0,-10.19,-12.25,-6.44,1.12,-1.94,-0.10700942375950004,0.3429329387609673,0.18865405579522765,-62.08851089054388,-11.224997424028942,-113.85904656766621,0.1492,-0.5157,-0.0978,-0.838
180,1599078.0,1560.412504,1.0,8.65,0.32,4.43,-33.38,-10.19,-12.25,-3.25,0.81,-0.88,0.14177658553266012,0.17895421730621253,0.08565854912920834,-62.075136514972755,-11.178940913568928,-113.9220736351645,0.1481,-0.5156,-0.0974,-0.8383
181,1599078.0,1560.412504,1.0,8.65,0.32,4.43,-33.38,-10.19,-12.25,-3.25,0.81,-0.88,0.14177658553266012,0.17895421730621253,0.08565854912920834,-62.075136514972755,-11.178940913568928,-113.9220736351645,0.1481,-0.5156,-0.0974,-0.8383
182,1599111.0,1560.419379,1.0,8.7,0.32,4.21,-33.38,-10.19,-12.25,-4.25,-1.69,-0.63,-0.05710490987224701,0.2563531080141335,0.13982414487672126,-62.12863965657575,-11.109859542072414,-113.9220736351645,0.1473,-0.516,-0.0968,-0.8383
183,1599111.0,1560.419379,1.0,8.7,0.32,4.21,-33.38,-10.19,-12.25,-4.25,-1.69,-0.63,-0.05710490987224701,0.2563531080141335,0.13982414487672126,-62.12863965657575,-11.109859542072414,-113.9220736351645,0.1473,-0.516,-0.0968,-0.8383
184,1599145.0,1560.435735,1.0,8.6,0.32,4.35,-33.38,-10.19,-12.75,-4.13,-1.88,-1.44,0.11157033743568573,0.19120293058161875,0.1663235792224622,-62.208922599840776,-11.052294827398207,-113.90105869290855,0.146,-0.5166,-0.0963,-0.8382
185,1599145.0,1560.435735,1.0,8.6,0.32,4.35,-33.38,-10.19,-12.75,-4.13,-1.88,-1.44,0.11157033743568573,0.19120293058161875,0.1663235792224622,-62.208922599840776,-11.052294827398207,-113.90105869290855,0.146,-0.5166,-0.0963,-0.8382
186,1599180.0,1560.476109,1.0,8.57,0.27,4.37,-33.0,-9.75,-11.19,-6.38,-1.25,-4.38,0.12365886197673533,0.12428847711097354,0.18459404192575413,-62.22230638887762,-11.075320376717384,-113.90105869290855,0.1454,-0.5167,-0.0965,-0.8382
187,1599180.0,1560.476109,1.0,8.57,0.27,4.37,-33.0,-9.75,-11.19,-6.38,-1.25,-4.38,0.12365886197673533,0.12428847711097354,0.18459404192575413,-62.22230638887762,-11.075320376717384,-113.90105869290855,0.1454,-0.5167,-0.0965,-0.8382
188,1599215.0,1560.5355710000001,1.0,8.62,0.19,4.56,-33.0,-9.75,-11.19,-0.25,0.44,0.75,0.2342107695081214,-0.006189585409963283,0.055793268180027056,-62.235691121359,-11.063807546045703,-113.9220736351645,0.1449,-0.5168,-0.0964,-0.8383
189,1599215.0,1560.5355710000001,1.0,8.62,0.19,4.56,-33.0,-9.75,-11.19,-0.25,0.44,0.75,0.2342107695081214,-0.006189585409963283,0.055793268180027056,-62.235691121359,-11.063807546045703,-113.9220736351645,0.1449,-0.5168,-0.0964,-0.8383
190,1599248.0,1560.553047,1.0,8.71,0.42,4.15,-33.0,-10.19,-12.0,-4.56,2.0,0.69,-0.08169419865977326,0.3683176532448776,0.15674491423808945,-62.15539687050149,-10.925662281710132,-114.02723737175656,0.1445,-0.5162,-0.0952,-0.8388
191,1599248.0,1560.553047,1.0,8.71,0.42,4.15,-33.0,-10.19,-12.0,-4.56,2.0,0.69,-0.08169419865977326,0.3683176532448776,0.15674491423808945,-62.15539687050149,-10.925662281710132,-114.02723737175656,0.1445,-0.5162,-0.0952,-0.8388
192,1599285.0,1560.640225,1.0,8.61,0.28,4.39,-33.0,-9.75,-12.0,-2.81,-0.63,-1.81,0.11306230187983275,0.1476932889946423,0.13979924040515002,-62.15539687050149,-10.902639624835572,-114.04828796434656,0.1441,-0.5162,-0.095,-0.8389
193,1599285.0,1560.640225,1.0,8.61,0.28,4.39,-33.0,-9.75,-12.0,-2.81,-0.63,-1.81,0.11306230187983275,0.1476932889946423,0.13979924040515002,-62.15539687050149,-10.902639624835572,-114.04828796434656,0.1441,-0.5162,-0.095,-0.8389
194,1599320.0,1560.651901,1.0,8.62,0.19,4.43,-33.0,-9.06,-12.0,-2.25,1.25,0.25,0.1103673796332822,0.053095978123058114,0.11384855466851818,-62.14201779296097,-10.925662281710132,-114.04828796434656,0.1445,-0.5161,-0.0952,-0.8389
195,1599320.0,1560.651901,1.0,8.62,0.19,4.43,-33.0,-9.06,-12.0,-2.25,1.25,0.25,0.1103673796332822,0.053095978123058114,0.11384855466851818,-62.14201779296097,-10.925662281710132,-114.04828796434656,0.1445,-0.5161,-0.0952,-0.8389
196,1599354.0,1560.6555779999999,1.0,8.8,0.38,4.16,-33.0,-9.06,-12.0,-2.69,1.44,1.25,-0.13190704635574002,0.35127722120352745,0.07272967748938086,-62.115262460964935,-10.8450849117299,-114.09040704091221,0.1443,-0.5159,-0.0945,-0.8391
197,1599354.0,1560.6555779999999,1.0,8.8,0.38,4.16,-33.0,-9.06,-12.0,-2.69,1.44,1.25,-0.13190704635574002,0.35127722120352745,0.07272967748938086,-62.115262460964935,-10.8450849117299,-114.09040704091221,0.1443,-0.5159,-0.0945,-0.8391
