acc_x,acc_y,acc_z,lin_x,lin_y,lin_z,eul_x,eul_y,eul_z
1.52,-0.01,-9.59,-0.0301995033764707,-0.0021784342049421,0.096980425579856,-118.74553859011928,-60.43713492448142,-7.890132207309978
1.52,-0.01,-9.59,-0.0301995033764707,-0.0021784342049421,0.096980425579856,-118.74553859011928,-60.43713492448142,-7.890132207309978
1.66,0.04,-9.82,0.0552619662883206,-0.0599234464684057,-0.1524139768828352,-118.72304914641389,-60.43713492448142,-7.94756506816392
1.66,0.04,-9.82,0.0552619662883206,-0.0599234464684057,-0.1524139768828352,-118.72304914641389,-60.43713492448142,-7.94756506816392
1.58,0.08,-9.72,0.0506327459900812,0.0153812181061144,-0.041111153844211,-118.72304914641389,-60.43713492448142,-7.993512795919138
1.58,0.08,-9.72,0.0506327459900812,0.0153812181061144,-0.041111153844211,-118.72304914641389,-60.43713492448142,-7.993512795919138
1.75,0.12,-9.95,0.1439684428391827,-0.0766486333690741,-0.2954684943787473,-118.72304914641389,-60.43713492448142,-8.027974436112627
1.75,0.12,-9.95,0.1439684428391827,-0.0766486333690741,-0.2954684943787473,-118.72304914641389,-60.43713492448142,-8.027974436112627
1.62,0.06,-9.78,0.0361113547675452,-0.0208742195539554,-0.1067076671587337,-118.72304914641389,-60.45039656824655,-8.050949266749551
1.62,0.06,-9.78,0.0361113547675452,-0.0208742195539554,-0.1067076671587337,-118.72304914641389,-60.45039656824655,-8.050949266749551
1.48,0.0,-9.72,-0.0766927650818412,0.0583754375101649,-0.0249068720360678,-118.70056715200867,-60.45039656824655,-8.027974436112627
1.48,0.0,-9.72,-0.0766927650818412,0.0583754375101649,-0.0249068720360678,-118.70056715200867,-60.45039656824655,-8.027974436112627
1.68,-0.06,-9.93,-0.0474633493434028,-0.1066419827955568,-0.2639644161105963,-118.67809259864173,-60.47692253879284,-8.039461810968866
1.68,-0.06,-9.93,-0.0474633493434028,-0.1066419827955568,-0.2639644161105963,-118.67809259864173,-60.47692253879284,-8.039461810968866
1.67,-0.11,-9.8,-0.0823303610394624,-0.1353080993497182,-0.1339693685253564,-118.67809259864173,-60.47692253879284,-8.039461810968866
1.67,-0.11,-9.8,-0.0823303610394624,-0.1353080993497182,-0.1339693685253564,-118.67809259864173,-60.47692253879284,-8.039461810968866
1.45,0.08,-9.58,-0.0076896467177565,0.1117885214641502,0.1178552248072577,-118.72304914641389,-60.45039656824655,-8.039461810968866
1.45,0.08,-9.58,-0.0076896467177565,0.1117885214641502,0.1178552248072577,-118.72304914641389,-60.45039656824655,-8.039461810968866
1.67,0.21,-9.87,0.1802176988808164,0.024013089008481,-0.2041863762757767,-118.72304914641389,-60.45039656824655,-8.073924421552888
1.67,0.21,-9.87,0.1802176988808164,0.024013089008481,-0.2041863762757767,-118.72304914641389,-60.45039656824655,-8.073924421552888
1.59,0.13,-9.46,0.1052613273962135,-0.0028698776832009,0.2136571501769086,-118.70056715200867,-60.46365910623083,-8.073924421552888
1.59,0.13,-9.46,0.1052613273962135,-0.0028698776832009,0.2136571501769086,-118.70056715200867,-60.46365910623083,-8.073924421552888
1.75,0.11,-9.93,0.1218866285052342,-0.0811180321068837,-0.2759123486621053,-118.65562547806576,-60.49018686629133,-8.108387763620353
1.75,0.11,-9.93,0.1218866285052342,-0.0811180321068837,-0.2759123486621053,-118.65562547806576,-60.49018686629133,-8.108387763620353
1.54,-0.06,-9.7,-0.1006938589179666,-0.0132026794576084,-0.0144948638145709,-118.65562547806576,-60.49018686629133,-8.073924421552888
1.54,-0.06,-9.7,-0.1006938589179666,-0.0132026794576084,-0.0144948638145709,-118.65562547806576,-60.49018686629133,-8.073924421552888
1.7,0.2,-9.83,0.1827619890990257,-0.0068181702501335,-0.1695943618776194,-118.65562547806576,-60.49018686629133,-8.119875707408232
1.7,0.2,-9.83,0.1827619890990257,-0.0068181702501335,-0.1695943618776194,-118.65562547806576,-60.49018686629133,-8.119875707408232
1.7,0.07,-9.8,0.0723553597680177,-0.0774027356853138,-0.1393880814885957,-118.63316578204837,-60.503452089085286,-8.108387763620353
1.7,0.07,-9.8,0.0723553597680177,-0.0774027356853138,-0.1393880814885957,-118.63316578204837,-60.503452089085286,-8.108387763620353
1.48,0.06,-9.61,-0.0184970462834445,0.0759018391233653,0.0834819581477734,-118.63316578204837,-60.51671820753376,-8.050949266749551
1.48,0.06,-9.61,-0.0184970462834445,0.0759018391233653,0.0834819581477734,-118.63316578204837,-60.51671820753376,-8.050949266749551
1.64,0.04,-9.97,0.0097042147612686,-0.0215283991837639,-0.2973859439307453,-118.6107135023718,-60.55652194040018,-8.062436803571838
1.64,0.04,-9.97,0.0097042147612686,-0.0215283991837639,-0.2973859439307453,-118.6107135023718,-60.55652194040018,-8.062436803571838
1.56,-0.08,-9.54,-0.09212879416558,-0.0673611657576656,0.1402869425396975,-118.6107135023718,-60.55652194040018,-8.039461810968866
1.56,-0.08,-9.54,-0.09212879416558,-0.0673611657576656,0.1402869425396975,-118.6107135023718,-60.55652194040018,-8.039461810968866
1.63,0.11,-9.72,0.0857026726785884,-0.0104238234518264,-0.0493099428873673,-118.6107135023718,-60.55652194040018,-8.073924421552888
1.63,0.11,-9.72,0.0857026726785884,-0.0104238234518264,-0.0493099428873673,-118.6107135023718,-60.55652194040018,-8.073924421552888
1.53,0.05,-9.73,-0.010554512392682,0.0448146952531571,-0.0429276683753077,-118.6107135023718,-60.55652194040018,-8.039461810968866
1.53,0.05,-9.73,-0.010554512392682,0.0448146952531571,-0.0429276683753077,-118.6107135023718,-60.55652194040018,-8.039461810968866
1.61,0.01,-9.74,-0.0077263426814088,-0.0422810646788167,-0.0654294473706702,-118.6107135023718,-60.55652194040018,-8.039461810968866
1.61,0.01,-9.74,-0.0077263426814088,-0.0422810646788167,-0.0654294473706702,-118.6107135023718,-60.55652194040018,-8.039461810968866
1.6,0.02,-9.77,-0.0091816552549411,-0.0254159754180369,-0.0934797832604346,-118.58826863083308,-60.56979164506137,-8.050949266749551
1.6,0.02,-9.77,-0.0091816552549411,-0.0254159754180369,-0.0934797832604346,-118.58826863083308,-60.56979164506137,-8.050949266749551
1.58,0.05,-9.82,0.0032880878624161,0.013345663801233,-0.1397619702401193,-118.58826863083308,-60.56979164506137,-8.050949266749551
1.58,0.05,-9.82,0.0032880878624161,0.013345663801233,-0.1397619702401193,-118.58826863083308,-60.56979164506137,-8.050949266749551
1.58,0.05,-9.64,0.0109634763288325,-0.0118115816656529,0.0379120933548744,-118.58826863083308,-60.56979164506137,-8.085412120809869
1.58,0.05,-9.64,0.0109634763288325,-0.0118115816656529,0.0379120933548744,-118.58826863083308,-60.56979164506137,-8.085412120809869
1.73,0.11,-9.74,0.1227599464305495,-0.0976561409185224,-0.0851644581109738,-118.56583115924386,-60.56979164506137,-8.108387763620353
1.73,0.11,-9.74,0.1227599464305495,-0.0976561409185224,-0.0851644581109738,-118.56583115924386,-60.56979164506137,-8.108387763620353
1.5,0.0,-9.67,-0.077384700932732,0.0272166073303378,0.0213461792519194,-118.54340107943032,-60.609606145201504,-8.073924421552888
1.5,0.0,-9.67,-0.077384700932732,0.0272166073303378,0.0213461792519194,-118.54340107943032,-60.609606145201504,-8.073924421552888
1.63,0.12,-9.88,0.0613064582319535,-0.0007264868196331,-0.2074371271622173,-118.52097838323344,-60.63615363736209,-8.119875707408232
1.63,0.12,-9.88,0.0613064582319535,-0.0007264868196331,-0.2074371271622173,-118.52097838323344,-60.63615363736209,-8.119875707408232
1.78,0.25,-9.95,0.2228835017921088,-0.0636224773809115,-0.3017462686966716,-118.47615510912564,-60.675981620918215,-8.188805090876484
1.78,0.25,-9.95,0.2228835017921088,-0.0636224773809115,-0.3017462686966716,-118.47615510912564,-60.675981620918215,-8.188805090876484
1.77,-0.09,-9.91,-0.0845138889958237,-0.2390067434910624,-0.2573866244928062,-118.36422556879909,-60.80880014298898,-8.188805090876484
1.77,-0.09,-9.91,-0.0845138889958237,-0.2390067434910624,-0.2573866244928062,-118.36422556879909,-60.80880014298898,-8.188805090876484
1.77,0.13,-10.35,0.0399474639543219,-0.1149310204099143,-0.6937069015853528,-118.29715573552454,-60.88853462317393,-8.211782210366408
1.77,0.13,-10.35,0.0399474639543219,-0.1149310204099143,-0.6937069015853528,-118.29715573552454,-60.88853462317393,-8.211782210366408
1.27,0.05,-10.23,-0.2573377656537905,0.2149263314165597,-0.4965477534371416,-118.29715573552454,-60.92841409128425,-8.073924421552888
1.27,0.05,-10.23,-0.2573377656537905,0.2149263314165597,-0.4965477534371416,-118.29715573552454,-60.92841409128425,-8.073924421552888
1.92,0.89,-11.55,0.6528630705651424,0.1446806164271232,-1.916567874385958,-118.29715573552454,-60.98159941844144,-7.94756506816392
1.92,0.89,-11.55,0.6528630705651424,0.1446806164271232,-1.916567874385958,-118.29715573552454,-60.98159941844144,-7.94756506816392
1.48,2.13,-11.08,1.6049254411486085,0.8416994424635825,-1.4276482147043996,-118.00727569803878,-61.40760741658022,-7.247016388579905
1.48,2.13,-11.08,1.6049254411486085,0.8416994424635825,-1.4276482147043996,-118.00727569803878,-61.40760741658022,-7.247016388579905
0.6,1.94,-9.8,1.3061759890550344,1.1739605610150536,-0.0462338868017386,-117.07896160834984,-62.5438012405264,-5.915551513947968
0.6,1.94,-9.8,1.3061759890550344,1.1739605610150536,-0.0462338868017386,-117.07896160834984,-62.5438012405264,-5.915551513947968
0.05,2.6,-8.92,1.8686569102048864,1.7663127074331435,0.8782032833810476,-115.83841139442428,-63.88933120446288,-4.940426564140192
0.05,2.6,-8.92,1.8686569102048864,1.7663127074331435,0.8782032833810476,-115.83841139442428,-63.88933120446288,-4.940426564140192
0.01,2.12,-8.03,1.7346378195408714,1.469186410035742,1.818663837794608,-113.06525678920109,-66.72030564497379,-3.82807003686826
0.01,2.12,-8.03,1.7346378195408714,1.469186410035742,1.818663837794608,-113.06525678920109,-66.72030564497379,-3.82807003686826
0.24,1.2,-7.83,1.2013364479567628,0.9627778676119584,2.032568091732811,-110.7321495345978,-68.98522882076507,-3.1860558160551733
0.24,1.2,-7.83,1.2013364479567628,0.9627778676119584,2.032568091732811,-110.7321495345978,-68.98522882076507,-3.1860558160551733
0.92,0.07,-7.47,0.558500404544999,0.0214245635467619,2.300664502665228,-108.01618391845108,-71.56359842931408,-2.6473004867786654
0.92,0.07,-7.47,0.558500404544999,0.0214245635467619,2.300664502665228,-108.01618391845108,-71.56359842931408,-2.6473004867786654
1.16,-2.75,-6.09,-1.917933889021752,-0.8178626800383211,3.353059508347897,-104.35233464317456,-74.73137747245855,-2.4295230620087382
1.16,-2.75,-6.09,-1.917933889021752,-0.8178626800383211,3.353059508347897,-104.35233464317456,-74.73137747245855,-2.4295230620087382
2.17,-3.04,-7.05,-1.8308812225025424,-1.0833815805666431,2.1172314068958027,-101.53756251878842,-76.69070095907627,-4.206454848857137
2.17,-3.04,-7.05,-1.8308812225025424,-1.0833815805666431,2.1172314068958027,-101.53756251878842,-76.69070095907627,-4.206454848857137
3.31,-3.23,-7.32,-1.8703341559864424,-1.5973358090628762,1.5047364580486065,-99.33476502563386,-78.05598509412033,-6.6729995322127
3.31,-3.23,-7.32,-1.8703341559864424,-1.5973358090628762,1.5047364580486065,-99.33476502563386,-78.05598509412033,-6.6729995322127
4.29,-2.94,-7.51,-1.5410254185851908,-1.8016973063111248,0.9846928772462517,-97.45833109591425,-78.7806470501436,-9.648546712798437
4.29,-2.94,-7.51,-1.5410254185851908,-1.8016973063111248,0.9846928772462517,-97.45833109591425,-78.7806470501436,-9.648546712798437
4.93,-2.3,-7.41,-1.0157197789091086,-1.4203902311291037,0.7814738287529313,-95.4287628527733,-78.57321863854627,-14.280666944469896
4.93,-2.3,-7.41,-1.0157197789091086,-1.4203902311291037,0.7814738287529313,-95.4287628527733,-78.57321863854627,-14.280666944469896
7.05,-2.77,-8.75,-1.4273793154646408,-1.4777879991149925,-1.582670915640911,-92.9709760334808,-77.8790835134503,-19.889680039418103
7.05,-2.77,-8.75,-1.4273793154646408,-1.4777879991149925,-1.582670915640911,-92.9709760334808,-77.8790835134503,-19.889680039418103
6.92,-3.02,-7.18,-1.913292454222736,-1.5253770226811314,-0.3211205801074914,-91.69691933728232,-76.77839320064767,-23.43659483600268
6.92,-3.02,-7.18,-1.913292454222736,-1.5253770226811314,-0.3211205801074914,-91.69691933728232,-76.77839320064767,-23.43659483600268
7.3,-3.13,-7.04,-2.163930665989548,-1.0638675702892395,-0.5294077526287548,-90.84471821404394,-74.29945637663062,-28.03284519878868
7.3,-3.13,-7.04,-2.163930665989548,-1.0638675702892395,-0.5294077526287548,-90.84471821404394,-74.29945637663062,-28.03284519878868
8.91,-3.33,-8.14,-2.378395077802566,-0.8051273016612639,-2.458406334236882,-90.33972471015196,-72.08709874052984,-31.697637029521523
8.91,-3.33,-8.14,-2.378395077802566,-0.8051273016612639,-2.458406334236882,-90.33972471015196,-72.08709874052984,-31.697637029521523
9.94,-2.39,-8.61,-1.5625289544304644,-0.295804228627035,-3.464325967308989,-91.25362166916472,-68.2499653014806,-35.745018073663594
9.94,-2.39,-8.61,-1.5625289544304644,-0.295804228627035,-3.464325967308989,-91.25362166916472,-68.2499653014806,-35.745018073663594
9.68,-1.6,-7.85,-0.8740762022593263,-0.2325700705438682,-2.7259794908503188,-92.754835123964,-65.19037198254591,-38.10083031138289
9.68,-1.6,-7.85,-0.8740762022593263,-0.2325700705438682,-2.7259794908503188,-92.754835123964,-65.19037198254591,-38.10083031138289
9.39,-0.12,-8.23,0.1213690992444542,0.9558429575058648,-2.642889500814279,-95.51395447808784,-60.609606145201504,-41.24387223496928
9.39,-0.12,-8.23,0.1213690992444542,0.9558429575058648,-2.642889500814279,-95.51395447808784,-60.609606145201504,-41.24387223496928
10.33,1.15,-9.32,1.0563759172107925,1.801766478085054,-3.996665090223296,-98.10318002956836,-57.38386674901364,-42.71671526594671
10.33,1.15,-9.32,1.0563759172107925,1.801766478085054,-3.996665090223296,-98.10318002956836,-57.38386674901364,-42.71671526594671
9.94,0.46,-9.15,0.4838036978911031,1.3480705897568448,-3.635311897987196,-101.86426876300013,-54.31009785710634,-42.38468953590336
9.94,0.46,-9.15,0.4838036978911031,1.3480705897568448,-3.635311897987196,-101.86426876300013,-54.31009785710634,-42.38468953590336
8.02,2.13,-7.74,1.963423465104924,1.9560193570919264,-1.1971610021645258,-105.08411822562071,-52.258810985064926,-41.280605467484456
8.02,2.13,-7.74,1.963423465104924,1.9560193570919264,-1.1971610021645258,-105.08411822562071,-52.258810985064926,-41.280605467484456
8.31,3.98,-7.98,3.7969929524461454,2.6343510203933054,-1.4725316733496712,-108.85892668852873,-50.31398649954689,-39.33972504606741
8.31,3.98,-7.98,3.7969929524461454,2.6343510203933054,-1.4725316733496712,-108.85892668852873,-50.31398649954689,-39.33972504606741
7.57,2.78,-8.07,2.780414515801429,2.099511660509984,-1.0570301272728615,-111.25813232752796,-49.84601386938241,-37.011521124582174
7.57,2.78,-8.07,2.780414515801429,2.099511660509984,-1.0570301272728615,-111.25813232752796,-49.84601386938241,-37.011521124582174
6.06,3.05,-7.57,3.0791698706354227,2.2381984720974986,0.381143090169024,-114.11147553645674,-50.45328632935345,-32.49653690025889
6.06,3.05,-7.57,3.0791698706354227,2.2381984720974986,0.381143090169024,-114.11147553645674,-50.45328632935345,-32.49653690025889
5.25,2.11,-7.65,2.566614799406297,1.625432246667584,0.7895796064097542,-115.70907375985723,-52.36094189671525,-27.20682475697043
5.25,2.11,-7.65,2.566614799406297,1.625432246667584,0.7895796064097542,-115.70907375985723,-52.36094189671525,-27.20682475697043
5.19,1.58,-7.4,2.6398292000709462,0.7499762907656471,1.051003972564775,-116.07613737802976,-54.36161866399844,-23.050527648721737
5.19,1.58,-7.4,2.6398292000709462,0.7499762907656471,1.051003972564775,-116.07613737802976,-54.36161866399844,-23.050527648721737
4.23,3.04,-7.14,3.838049164987325,1.5278686848819971,1.993257914042898,-115.5369840524082,-56.90108617541996,-19.30823806837105
4.23,3.04,-7.14,3.838049164987325,1.5278686848819971,1.993257914042898,-115.5369840524082,-56.90108617541996,-19.30823806837105
5.25,1.51,-8.13,3.279638204771368,-0.2755778748441326,0.5812757484749973,-112.21802358107666,-62.04839058120868,-15.043205913037664
5.25,1.51,-8.13,3.279638204771368,-0.2755778748441326,0.5812757484749973,-112.21802358107666,-62.04839058120868,-15.043205913037664
5.2,-1.91,-8.01,0.3448440647204,-2.102730005908772,0.3036079032144645,-107.25914966329704,-68.18076625802583,-10.879617409371033
5.2,-1.91,-8.01,0.3448440647204,-2.102730005908772,0.3036079032144645,-107.25914966329704,-68.18076625802583,-10.879617409371033
4.28,-4.44,-6.64,-2.234556594369201,-2.667925678127646,1.4394205061622554,-104.27762048457956,-71.64837292642449,-7.5111244261256385
4.28,-4.44,-6.64,-2.234556594369201,-2.667925678127646,1.4394205061622554,-104.27762048457956,-71.64837292642449,-7.5111244261256385
4.09,-5.73,-6.04,-3.56668258144896,-2.8765085722509145,1.741473387119438,-100.90554181397611,-75.07781120147467,-5.364844561963229
4.09,-5.73,-6.04,-3.56668258144896,-2.8765085722509145,1.741473387119438,-100.90554181397611,-75.07781120147467,-5.364844561963229
4.2,-5.21,-6.36,-3.004076266101753,-2.6318865558445657,1.4830450751727309,-99.7250605850298,-76.04923610928397,-5.284543793645802
4.2,-5.21,-6.36,-3.004076266101753,-2.6318865558445657,1.4830450751727309,-99.7250605850298,-76.04923610928397,-5.284543793645802
4.7,-4.44,-7.07,-2.2728813388822147,-2.262961682738508,0.7788310584273272,-98.89313900458244,-76.02014547215987,-8.338162304521468
4.7,-4.44,-7.07,-2.2728813388822147,-2.262961682738508,0.7788310584273272,-98.89313900458244,-76.02014547215987,-8.338162304521468
3.91,-2.5,-7.12,-0.8246055139608954,-0.8291896515539032,1.3885165805238504,-98.9107658058666,-75.07781120147467,-11.593515641253694
3.91,-2.5,-7.12,-0.8246055139608954,-0.8291896515539032,1.3885165805238504,-98.9107658058666,-75.07781120147467,-11.593515641253694
4.05,-1.36,-8.25,0.0278660557809898,0.2630097118367324,0.5198502619624232,-99.10487032365975,-73.52508685379959,-15.760140597334962
4.05,-1.36,-8.25,0.0278660557809898,0.2630097118367324,0.5198502619624232,-99.10487032365975,-73.52508685379959,-15.760140597334962
3.92,-1.61,-8.09,-0.4697275335268088,0.5717800464727723,0.7039567928935231,-98.9989474081356,-72.59812617311991,-18.228077382152183
3.92,-1.61,-8.09,-0.4697275335268088,0.5717800464727723,0.7039567928935231,-98.9989474081356,-72.59812617311991,-18.228077382152183
4.28,-0.96,-9.24,-0.0357185253873219,1.2885981593099545,-0.3400656740872154,-98.9989474081356,-71.69077715376791,-20.64633108966224
4.28,-0.96,-9.24,-0.0357185253873219,1.2885981593099545,-0.3400656740872154,-98.9989474081356,-71.69077715376791,-20.64633108966224
3.51,-1.06,-9.54,-0.4265814930633525,2.087221684262727,-0.1891908285906254,-98.9107658058666,-71.64837292642449,-21.194013524886014
3.51,-1.06,-9.54,-0.4265814930633525,2.087221684262727,-0.1891908285906254,-98.9107658058666,-71.64837292642449,-21.194013524886014
3.52,-2.46,-8.64,-1.6809750770305394,1.016001013431183,0.3602927798272919,-99.42333079065403,-72.04458809955408,-19.85477908376032
3.52,-2.46,-8.64,-1.6809750770305394,1.016001013431183,0.3602927798272919,-99.42333079065403,-72.04458809955408,-19.85477908376032
3.48,-2.02,-6.0,-1.1748078836248013,-0.4021783263250423,2.6898474152427547,-100.0812477423364,-72.12962086079537,-18.796984460560505
3.48,-2.02,-6.0,-1.1748078836248013,-0.4021783263250423,2.6898474152427547,-100.0812477423364,-72.12962086079537,-18.796984460560505
5.38,-2.48,-7.78,-1.229299240517652,-1.1093865582559184,0.1691562987504991,-100.61802099879914,-71.1544897805901,-19.81987998842397
5.38,-2.48,-7.78,-1.229299240517652,-1.1093865582559184,0.1691562987504991,-100.61802099879914,-71.1544897805901,-19.81987998842397
5.69,-2.78,-6.07,-1.4189328303829518,-2.1391335615474274,1.418555029822155,-101.21199312357184,-69.76565017151245,-21.368908312577144
5.69,-2.78,-6.07,-1.4189328303829518,-2.1391335615474274,1.418555029822155,-101.21199312357184,-69.76565017151245,-21.368908312577144
7.04,-1.87,-6.93,-0.4304867389314364,-2.0153335281004767,-0.03390445277949,-102.08271174423224,-66.8300983122929,-25.277122006902648
7.04,-1.87,-6.93,-0.4304867389314364,-2.0153335281004767,-0.03390445277949,-102.08271174423224,-66.8300983122929,-25.277122006902648
8.12,-0.87,-8.21,0.4536604066527184,-1.218796529828731,-1.700049233677445,-102.68610514129892,-64.11904710633912,-28.6474215027532
8.12,-0.87,-8.21,0.4536604066527184,-1.218796529828731,-1.700049233677445,-102.68610514129892,-64.11904710633912,-28.6474215027532
8.0,-0.59,-7.39,0.5412731711379877,-0.8816076193022024,-1.0510657523944484,-103.5709322566378,-60.54325313283169,-32.580097056893266
8.0,-0.59,-7.39,0.5412731711379877,-0.8816076193022024,-1.0510657523944484,-103.5709322566378,-60.54325313283169,-32.580097056893266
8.13,0.5,-7.79,1.2721872128938918,0.1582468979153335,-1.3910058982069768,-104.31496972568996,-57.907047347217045,-35.15553486649333
8.13,0.5,-7.79,1.2721872128938918,0.1582468979153335,-1.3910058982069768,-104.31496972568996,-57.907047347217045,-35.15553486649333
8.62,0.78,-8.78,1.2016987422749803,1.0884984433712144,-2.4151457465993165,-105.27273844868162,-54.96788438262905,-37.54363247388456
8.62,0.78,-8.78,1.2016987422749803,1.0884984433712144,-2.4151457465993165,-105.27273844868162,-54.96788438262905,-37.54363247388456
8.03,1.27,-8.02,1.546368977500245,1.3548998814504605,-1.4266571397816945,-106.03132620370606,-53.34626194049607,-38.56183024539064
8.03,1.27,-8.02,1.546368977500245,1.3548998814504605,-1.4266571397816945,-106.03132620370606,-53.34626194049607,-38.56183024539064
8.14,2.07,-8.45,1.9650617533987849,2.192247960202642,-1.7380276129226164,-106.85431724818577,-51.48152030899618,-39.82686703824351
8.14,2.07,-8.45,1.9650617533987849,2.192247960202642,-1.7380276129226164,-106.85431724818577,-51.48152030899618,-39.82686703824351
7.66,1.37,-8.02,1.2509479751046275,1.8831750685339093,-1.1369180116145845,-107.3364808253328,-50.541973215859535,-40.42464121289
7.66,1.37,-8.02,1.2509479751046275,1.8831750685339093,-1.1369180116145845,-107.3364808253328,-50.541973215859535,-40.42464121289
7.02,1.35,-7.46,1.1450457894516983,1.8624216784064889,-0.2916050785697877,-107.627107150319,-50.08621261381583,-40.66895994437228
7.02,1.35,-7.46,1.1450457894516983,1.8624216784064889,-0.2916050785697877,-107.627107150319,-50.08621261381583,-40.66895994437228
7.09,0.46,-7.35,0.4505441731920796,1.2712272312142396,-0.3266214991073877,-107.74364009530142,-49.89656254432079,-40.79119166160576
7.09,0.46,-7.35,0.4505441731920796,1.2712272312142396,-0.3266214991073877,-107.74364009530142,-49.89656254432079,-40.79119166160576
7.2,0.14,-6.76,0.4537926888716529,0.6518654139990876,-0.0384677584403938,-107.82141899407463,-49.833378319901584,-40.77896631080099
7.2,0.14,-6.76,0.4537926888716529,0.6518654139990876,-0.0384677584403938,-107.82141899407463,-49.833378319901584,-40.77896631080099
7.33,-0.75,-6.65,-0.2017285782800243,0.036464014523841,-0.1166496506378838,-107.66593345101973,-49.947121594647854,-40.81564381829703
7.33,-0.75,-6.65,-0.2017285782800243,0.036464014523841,-0.1166496506378838,-107.66593345101973,-49.947121594647854,-40.81564381829703
7.33,-0.46,-6.77,-0.0547667409171415,0.263097066896597,-0.1783978485323096,-107.72420666963671,-49.808109162272245,-41.096983557102725
7.33,-0.46,-6.77,-0.0547667409171415,0.263097066896597,-0.1783978485323096,-107.72420666963671,-49.808109162272245,-41.096983557102725
7.85,-0.23,-6.93,0.2466099304352153,0.2092250742120791,-0.662146894129318,-107.80196748253584,-49.65654846766405,-41.29285086382844
7.85,-0.23,-6.93,0.2466099304352153,0.2092250742120791,-0.662146894129318,-107.80196748253584,-49.65654846766405,-41.29285086382844
7.68,-0.4,-6.71,0.1000975644117562,0.0082516110008115,-0.3990548942498205,-107.95770664544784,-49.643922599586496,-41.30509675325747
7.68,-0.4,-6.71,0.1000975644117562,0.0082516110008115,-0.3990548942498205,-107.95770664544784,-49.643922599586496,-41.30509675325747
7.27,-0.16,-6.53,0.1994648086209424,0.2092739878818776,0.0375242362421293,-108.035685474304,-49.69442993487328,-41.25611615325416
7.27,-0.16,-6.53,0.1994648086209424,0.2092739878818776,0.0375242362421293,-108.035685474304,-49.69442993487328,-41.25611615325416
7.35,-0.36,-6.66,-0.0121996848310073,0.1147596745666676,-0.1177835548575956,-108.07470230594728,-49.66917497940315,-41.35408524581363
7.35,-0.36,-6.66,-0.0121996848310073,0.1147596745666676,-0.1177835548575956,-108.07470230594728,-49.66917497940315,-41.35408524581363
7.31,-0.29,-6.55,0.0681523657802025,0.0992490154100516,-0.0121179923694469,-108.32875958573808,-49.39154002007115,-41.43983413767325
7.31,-0.29,-6.55,0.0681523657802025,0.0992490154100516,-0.0121179923694469,-108.32875958573808,-49.39154002007115,-41.43983413767325
7.33,-0.58,-6.56,-0.1879085470057352,-0.07267300582826,-0.0451675486651286,-108.27006185000631,-49.42938107897726,-41.53786260419432
7.33,-0.58,-6.56,-0.1879085470057352,-0.07267300582826,-0.0451675486651286,-108.27006185000631,-49.42938107897726,-41.53786260419432
7.5,-0.5,-6.71,-0.133245071563708,-0.0148315856201761,-0.2683748523252767,-108.28962313901592,-49.27805128980349,-41.68496498644351
7.5,-0.5,-6.71,-0.133245071563708,-0.0148315856201761,-0.2683748523252767,-108.28962313901592,-49.27805128980349,-41.68496498644351
7.37,-0.72,-6.4,-0.2628029184987204,-0.2428741806164423,0.025686511753129,-108.28962313901592,-49.1016156188802,-41.90575353350423
7.37,-0.72,-6.4,-0.2628029184987204,-0.2428741806164423,0.025686511753129,-108.28962313901592,-49.1016156188802,-41.90575353350423
7.34,0.16,-6.42,0.4163756508234283,0.2756510860314793,0.0666167456332047,-108.36791454974384,-48.98825821247561,-42.02848420080716
7.34,0.16,-6.42,0.4163756508234283,0.2756510860314793,0.0666167456332047,-108.36791454974384,-48.98825821247561,-42.02848420080716
7.34,-0.09,-6.52,0.1498231657211288,0.2018658337706134,-0.0081807781728659,-108.42668178324712,-48.82460984436268,-42.18810962075827
7.34,-0.09,-6.52,0.1498231657211288,0.2018658337706134,-0.0081807781728659,-108.42668178324712,-48.82460984436268,-42.18810962075827
7.35,-0.64,-6.29,-0.1992680624331481,-0.2466917664437356,0.116673972596061,-108.58359923261342,-48.53533746105607,-42.29866977331948
7.35,-0.64,-6.29,-0.1992680624331481,-0.2466917664437356,0.116673972596061,-108.58359923261342,-48.53533746105607,-42.29866977331948
7.4,-0.13,-6.48,0.144944908997796,0.1704529056181167,-0.0278421973796909,-108.62287531550987,-48.30917991037589,-42.47073434166396
7.4,-0.13,-6.48,0.144944908997796,0.1704529056181167,-0.0278421973796909,-108.62287531550987,-48.30917991037589,-42.47073434166396
7.76,-0.07,-6.66,0.254491199035176,0.1589203507075809,-0.4152910364052005,-108.60323493215937,-48.1836233337003,-42.59369907468167
7.76,-0.07,-6.66,0.254491199035176,0.1589203507075809,-0.4152910364052005,-108.60323493215937,-48.1836233337003,-42.59369907468167
7.67,-0.58,-6.34,-0.0628189160025678,-0.2676864340600105,-0.1575508087358681,-108.60323493215937,-48.04558210494044,-42.69210790112656
7.67,-0.58,-6.34,-0.0628189160025678,-0.2676864340600105,-0.1575508087358681,-108.60323493215937,-48.04558210494044,-42.69210790112656
7.39,-0.35,-6.53,-0.0764206992569622,0.144668650730346,-0.0598960450058694,-108.7211476270906,-47.81985609667796,-42.815165407712406
7.39,-0.35,-6.53,-0.0764206992569622,0.144668650730346,-0.0598960450058694,-108.7211476270906,-47.81985609667796,-42.815165407712406
7.79,0.08,-6.69,0.3456158816644201,0.3179141610589797,-0.4513264207439799,-108.74081619599784,-47.619376147320615,-42.99984891491943
7.79,0.08,-6.69,0.3456158816644201,0.3179141610589797,-0.4513264207439799,-108.74081619599784,-47.619376147320615,-42.99984891491943
7.58,0.24,-6.61,0.4130400054717368,0.4585611493526005,-0.2345262073068088,-108.9180458077566,-47.4190508458531,-43.07375512826057
7.58,0.24,-6.61,0.4130400054717368,0.4585611493526005,-0.2345262073068088,-108.9180458077566,-47.4190508458531,-43.07375512826057
7.5,0.62,-6.74,0.6108863841374388,0.7622556990848713,-0.2485866493727116,-108.87862832095404,-47.60685129535253,-43.04911763533004
7.5,0.62,-6.74,0.6108863841374388,0.7622556990848713,-0.2485866493727116,-108.87862832095404,-47.60685129535253,-43.04911763533004
7.65,0.19,-6.89,0.263962661941768,0.5019529764419981,-0.4748414736404651,-108.76048947633528,-47.85746338279603,-42.93827474491775
7.65,0.19,-6.89,0.263962661941768,0.5019529764419981,-0.4748414736404651,-108.76048947633528,-47.85746338279603,-42.93827474491775
7.62,-0.29,-6.96,-0.1548290283178798,0.2444875982851327,-0.5135415576347171,-108.6425203865957,-48.221283839840105,-42.74132469735878
7.62,-0.29,-6.96,-0.1548290283178798,0.2444875982851327,-0.5135415576347171,-108.6425203865957,-48.221283839840105,-42.74132469735878
7.48,-0.24,-6.81,-0.0889321862034906,0.2331677563441472,-0.3087750461193437,-108.60323493215937,-48.397106226699925,-42.56910201801789
7.48,-0.24,-6.81,-0.0889321862034906,0.2331677563441472,-0.3087750461193437,-108.60323493215937,-48.397106226699925,-42.56910201801789
7.2,-0.76,-6.38,-0.4315343546869781,-0.2066553093894408,0.1685448084270202,-108.56396821294662,-48.56047848444357,-42.446147551916006
7.2,-0.76,-6.38,-0.4315343546869781,-0.2066553093894408,0.1685448084270202,-108.56396821294662,-48.56047848444357,-42.446147551916006
6.89,-0.87,-6.18,-0.5535331141373135,-0.2423530005678839,0.5299983349503083,-108.70148376565116,-48.44736344772761,-42.42156281061413
6.89,-0.87,-6.18,-0.5535331141373135,-0.2423530005678839,0.5299983349503083,-108.70148376565116,-48.44736344772761,-42.42156281061413
6.94,-1.69,-5.71,-1.0063679949276705,-0.9938632083427408,0.7720908307937933,-108.7211476270906,-48.10831891577421,-42.66750260124336
6.94,-1.69,-5.71,-1.0063679949276705,-0.9938632083427408,0.7720908307937933,-108.7211476270906,-48.10831891577421,-42.66750260124336
7.8,-1.71,-5.29,-0.4841489333083256,-1.63512260499331,0.3811434418877866,-108.99693778149953,-47.30643546064212,-43.07375512826057
7.8,-1.71,-5.29,-0.4841489333083256,-1.63512260499331,0.3811434418877866,-108.99693778149953,-47.30643546064212,-43.07375512826057
8.13,-1.0,-5.61,0.047921779673743,-1.048975482624638,-0.0658549475746195,-109.33308208171762,-46.04592388413568,-43.93739653048951
8.13,-1.0,-5.61,0.047921779673743,-1.048975482624638,-0.0658549475746195,-109.33308208171762,-46.04592388413568,-43.93739653048951
8.68,-0.44,-6.29,0.349843630245363,-0.3958884203979756,-0.9088052769806064,-109.5116049915234,-44.878048779944685,-44.82846183777319
8.68,-0.44,-6.29,0.349843630245363,-0.3958884203979756,-0.9088052769806064,-109.5116049915234,-44.878048779944685,-44.82846183777319
8.19,-0.17,-6.05,0.413514743383582,0.0102677628717298,-0.3686337862169768,-110.00958136957878,-43.24627621237414,-45.78458156617274
8.19,-0.17,-6.05,0.413514743383582,0.0102677628717298,-0.3686337862169768,-110.00958136957878,-43.24627621237414,-45.78458156617274
7.86,0.38,-6.3,0.5227769793505821,0.7076166724717581,-0.2352613158153839,-110.37004645806756,-42.43385492531204,-46.24521189671154
7.86,0.38,-6.3,0.5227769793505821,0.7076166724717581,-0.2352613158153839,-110.37004645806756,-42.43385492531204,-46.24521189671154
8.17,1.08,-6.97,0.7907093590837966,1.467696683865261,-0.8571600674021855,-110.91382347990452,-41.51335250906026,-46.64423316662803
8.17,1.08,-6.97,0.7907093590837966,1.467696683865261,-0.8571600674021855,-110.91382347990452,-41.51335250906026,-46.64423316662803
8.07,1.43,-7.19,0.8824608825744613,1.8670678699310577,-0.8985459514899592,-111.21754699943544,-41.158178579890034,-46.68167205165904
8.07,1.43,-7.19,0.8824608825744613,1.8670678699310577,-0.8985459514899592,-111.21754699943544,-41.158178579890034,-46.68167205165904
7.9,1.12,-6.95,0.7298661598700249,1.5329251493806542,-0.6376946838503432,-111.42068428698192,-41.25611615325416,-46.44464801216442
7.9,1.12,-6.95,0.7298661598700249,1.5329251493806542,-0.6376946838503432,-111.42068428698192,-41.25611615325416,-46.44464801216442
8.02,0.88,-7.18,0.5482933131945499,1.315124027196958,-0.8992840197759211,-111.6447470313604,-41.81987201497412,-45.8343416064403
8.02,0.88,-7.18,0.5482933131945499,1.315124027196958,-0.8992840197759211,-111.6447470313604,-41.81987201497412,-45.8343416064403
7.5,0.21,-6.79,0.1010276253746281,0.7076238693685177,-0.2872720265668356,-111.82855209706509,-42.64289936464318,-45.002054941253824
7.5,0.21,-6.79,0.1010276253746281,0.7076238693685177,-0.2872720265668356,-111.82855209706509,-42.64289936464318,-45.002054941253824
7.22,-0.02,-7.01,-0.2330689012801522,0.6950693685888789,-0.2298562377355981,-112.01279388618184,-43.27093047786308,-44.30833052387342
7.22,-0.02,-7.01,-0.2330689012801522,0.6950693685888789,-0.2298562377355981,-112.01279388618184,-43.27093047786308,-44.30833052387342
6.66,-0.12,-5.75,0.1295404544378122,0.0352779537489311,1.0081004185835631,-112.11534046927385,-44.0857117567441,-43.45590465390315
6.66,-0.12,-5.75,0.1295404544378122,0.0352779537489311,1.0081004185835631,-112.11534046927385,-44.0857117567441,-43.45590465390315
7.58,-0.65,-6.59,-0.2681471728434632,-0.3077974161715378,-0.2502062604968262,-112.03329231056664,-44.37020029186166,-43.33257535076985
7.58,-0.65,-6.59,-0.2681471728434632,-0.3077974161715378,-0.2502062604968262,-112.03329231056664,-44.37020029186166,-43.33257535076985
7.25,-0.83,-6.12,-0.3272237885910679,-0.5761970160945156,0.3057699570343022,-112.01279388618184,-44.617815884427785,-43.18464974314042
7.25,-0.83,-6.12,-0.3272237885910679,-0.5761970160945156,0.3057699570343022,-112.01279388618184,-44.617815884427785,-43.18464974314042
7.17,-0.21,-6.23,0.0432109385808164,-0.1056472987609544,0.3064988715678058,-112.05379617607242,-44.679754048391246,-43.19697398702748
7.17,-0.21,-6.23,0.0432109385808164,-0.1056472987609544,0.3064988715678058,-112.05379617607242,-44.679754048391246,-43.19697398702748
7.35,-0.1,-6.5,0.0445437309290409,0.0263586091006102,-0.0055781404256602,-112.01279388618184,-44.617815884427785,-43.38190073527359
7.35,-0.1,-6.5,0.0445437309290409,0.0263586091006102,-0.0055781404256602,-112.01279388618184,-44.617815884427785,-43.38190073527359
7.62,0.06,-6.61,0.2043977646527681,0.0632234207409561,-0.2787019697070967,-112.03329231056664,-44.469220271844826,-43.56694626623634
7.62,0.06,-6.61,0.2043977646527681,0.0632234207409561,-0.2787019697070967,-112.03329231056664,-44.469220271844826,-43.56694626623634
7.39,0.01,-6.42,0.1347934474546923,0.0389564958483423,0.0184472478112969,-112.0743054876913,-44.32070338877077,-43.7274156925049
7.39,0.01,-6.42,0.1347934474546923,0.0389564958483423,0.0184472478112969,-112.0743054876913,-44.32070338877077,-43.7274156925049
7.53,-0.32,-6.69,-0.1957010370504008,-0.0804625712574029,-0.2687967334567407,-111.99230089793316,-44.33307679780215,-43.80150890567696
7.53,-0.32,-6.69,-0.1957010370504008,-0.0804625712574029,-0.2687967334567407,-111.99230089793316,-44.33307679780215,-43.80150890567696
7.42,0.25,-6.5,0.2599558447548236,0.2331993922228601,-0.0547363630954382,-112.09482025042286,-44.13516742855202,-43.93739653048951
7.42,0.25,-6.5,0.2599558447548236,0.2331993922228601,-0.0547363630954382,-112.09482025042286,-44.13516742855202,-43.93739653048951
7.45,0.28,-6.5,0.2692547213435644,0.243149225763132,-0.0776446308295053,-112.03329231056664,-44.098074864095786,-44.098074864095786
7.45,0.28,-6.5,0.2692547213435644,0.243149225763132,-0.0776446308295053,-112.03329231056664,-44.098074864095786,-44.098074864095786
7.27,0.0,-6.5,-0.0453523234050532,0.1429099675604208,0.0557310736662532,-111.91038320685794,-44.15989850900582,-44.20936716761421
7.27,0.0,-6.5,-0.0453523234050532,0.1429099675604208,0.0557310736662532,-111.91038320685794,-44.15989850900582,-44.20936716761421
7.53,-0.01,-6.71,-0.0614123719300447,0.1421418540783081,-0.2780475271394796,-111.86945684906637,-44.0857117567441,-44.345450751183655
7.53,-0.01,-6.71,-0.0614123719300447,0.1421418540783081,-0.2780475271394796,-111.86945684906637,-44.0857117567441,-44.345450751183655
7.68,0.2,-6.55,0.2166610867337377,0.11423820045683,-0.2861646523678765,-111.78766891146807,-44.11043851170447,-44.469220271844826
7.68,0.2,-6.55,0.2166610867337377,0.11423820045683,-0.2861646523678765,-111.78766891146807,-44.11043851170447,-44.469220271844826
7.67,0.4,-6.57,0.3187199679025275,0.2637404276413237,-0.2919963730981188,-111.68555504305652,-44.11043851170447,-44.65497713304196
7.67,0.4,-6.57,0.3187199679025275,0.2637404276413237,-0.2919963730981188,-111.68555504305652,-44.11043851170447,-44.65497713304196
7.45,-0.01,-6.54,-0.0926241486036548,0.097484820028701,-0.1057723818882667,-111.52245118481588,-44.15989850900582,-44.7912774389752
7.45,-0.01,-6.54,-0.0926241486036548,0.097484820028701,-0.1057723818882667,-111.52245118481588,-44.15989850900582,-44.7912774389752
7.53,-0.13,-6.41,-0.1026406505129518,-0.0784639660920911,-0.0821926169540887,-111.38001462419376,-44.18463175478608,-44.91524480207666
7.53,-0.13,-6.41,-0.1026406505129518,-0.0784639660920911,-0.0821926169540887,-111.38001462419376,-44.18463175478608,-44.91524480207666
7.67,0.05,-6.56,-0.0004204491327294,0.0663816424500429,-0.2859509185327536,-111.3393661020306,-44.12280269978493,-45.03926762413592
7.67,0.05,-6.56,-0.0004204491327294,0.0663816424500429,-0.2859509185327536,-111.3393661020306,-44.12280269978493,-45.03926762413592
7.51,-0.06,-6.55,-0.1549385648034904,0.068895999453763,-0.1571568719940526,-111.3393661020306,-44.0857117567441,-45.10129990098643
7.51,-0.06,-6.55,-0.1549385648034904,0.068895999453763,-0.1571568719940526,-111.3393661020306,-44.0857117567441,-45.10129990098643
7.57,-0.04,-6.39,-0.0504666782768927,-0.0343099429283906,-0.099654858129492,-111.35968772291412,-43.96211035016289,-45.225406324165256
7.57,-0.04,-6.39,-0.0504666782768927,-0.0343099429283906,-0.099654858129492,-111.35968772291412,-43.96211035016289,-45.225406324165256
7.62,0.33,-6.48,0.1852212918719504,0.2401799952316157,-0.1969346896463992,-111.3393661020306,-43.90032983148112,-45.33714998751986
7.62,0.33,-6.48,0.1852212918719504,0.2401799952316157,-0.1969346896463992,-111.3393661020306,-43.90032983148112,-45.33714998751986
