acc_x,acc_y,acc_z,lin_x,lin_y,lin_z,eul_x,eul_y,eul_z
-1.1,2.61,-9.44,0.1809021658579513,-0.0873430499203784,-0.0470470522752783,-29.02603985005446,-146.9114591288739,-12.480763390340035
-1.1,2.61,-9.44,0.1809021658579513,-0.0873430499203784,-0.0470470522752783,-29.02603985005446,-146.9114591288739,-12.480763390340035
-1.15,2.27,-9.36,0.0852554858180219,0.2059521218789992,0.1094692124911134,-29.02603985005446,-146.9114591288739,-12.434654560583263
-1.15,2.27,-9.36,0.0852554858180219,0.2059521218789992,0.1094692124911134,-29.02603985005446,-146.9114591288739,-12.434654560583263
-1.06,2.45,-9.66,0.0391080458194866,0.0651457512425763,-0.2151226272275419,-29.037876869982465,-146.9114591288739,-12.457708722341447
-1.06,2.45,-9.66,0.0391080458194866,0.0651457512425763,-0.2151226272275419,-29.037876869982465,-146.9114591288739,-12.457708722341447
-0.96,2.4,-9.46,-0.024884802632965,0.0190972431260985,-9.339635247940235e-05,-29.0497142065708,-146.951724947316,-12.423127669242316
-0.96,2.4,-9.46,-0.024884802632965,0.0190972431260985,-9.339635247940235e-05,-29.0497142065708,-146.951724947316,-12.423127669242316
-1.06,2.41,-9.37,0.0795489603818588,0.0398134407841843,0.0741946647397817,-29.02603985005446,-146.951724947316,-12.400074265032766
-1.06,2.41,-9.37,0.0795489603818588,0.0398134407841843,0.0741946647397817,-29.02603985005446,-146.951724947316,-12.400074265032766
-1.24,2.14,-9.25,0.1343113906229943,0.3310285318734077,0.2383648578528081,-29.0023667595726,-146.951724947316,-12.353968967121856
-1.24,2.14,-9.25,0.1343113906229943,0.3310285318734077,0.2383648578528081,-29.0023667595726,-146.951724947316,-12.353968967121856
-1.09,2.06,-9.45,-0.0615163054567216,0.3583861132343695,0.0802953314716248,-29.0023667595726,-147.03240000479886,-12.342442956629045
-1.09,2.06,-9.45,-0.0615163054567216,0.3583861132343695,0.0802953314716248,-29.0023667595726,-147.03240000479886,-12.342442956629045
-1.14,2.5,-9.45,0.1865160355423252,0.0138668602525622,-0.0329190697648087,-29.037876869982465,-146.951724947316,-12.365495103087907
-1.14,2.5,-9.45,0.1865160355423252,0.0138668602525622,-0.0329190697648087,-29.037876869982465,-146.951724947316,-12.365495103087907
-0.82,2.68,-10.02,-0.119926426931528,-0.2005331480329237,-0.5953019374328701,-29.0497142065708,-146.951724947316,-12.377021364647929
-0.82,2.68,-10.02,-0.119926426931528,-0.2005331480329237,-0.5953019374328701,-29.0497142065708,-146.951724947316,-12.377021364647929
-1.07,2.29,-9.42,0.0211781166785224,0.1287934529844434,0.0542982972647916,-29.02603985005446,-146.992038514199,-12.250239375241623
-1.07,2.29,-9.42,0.0211781166785224,0.1287934529844434,0.0542982972647916,-29.02603985005446,-146.992038514199,-12.250239375241623
-1.24,2.23,-9.36,0.1463652056373316,0.2388498792433199,0.1091437245823758,-29.014203146635065,-147.03240000479886,-12.169567773976445
-1.24,2.23,-9.36,0.1463652056373316,0.2388498792433199,0.1091437245823758,-29.014203146635065,-147.03240000479886,-12.169567773976445
-1.06,2.36,-9.65,-0.008519456336738,0.0837553382328128,-0.1837760400736279,-29.014203146635065,-147.03240000479886,-12.158043754647911
-1.06,2.36,-9.65,-0.008519456336738,0.0837553382328128,-0.1837760400736279,-29.014203146635065,-147.03240000479886,-12.158043754647911
-1.06,2.32,-9.58,-0.0179018031873871,0.0861892332286782,-0.1067071983217733,-28.978694933911964,-147.0728095954594,-12.054333120262198
-1.06,2.32,-9.58,-0.0179018031873871,0.0861892332286782,-0.1067071983217733,-28.978694933911964,-147.0728095954594,-12.054333120262198
-1.22,2.06,-9.31,0.0562542551132635,0.3280285973811668,0.1994999179995193,-28.966859495010613,-147.113267463602,-11.962154211464537
-1.22,2.06,-9.31,0.0562542551132635,0.3280285973811668,0.1994999179995193,-28.966859495010613,-147.113267463602,-11.962154211464537
-0.89,2.36,-9.76,-0.170114144711739,-0.0172737379709999,-0.2725395902272574,-28.943189564308163,-147.15377378773437,-11.962154211464537
-0.89,2.36,-9.76,-0.170114144711739,-0.0172737379709999,-0.2725395902272574,-28.943189564308163,-147.15377378773437,-11.962154211464537
-1.24,2.33,-9.02,0.2686535758930549,0.050943629844679,0.4123895180494301,-28.90768703373302,-147.23493252348757,-11.89302513102135
-1.24,2.33,-9.02,0.2686535758930549,0.050943629844679,0.4123895180494301,-28.90768703373302,-147.23493252348757,-11.89302513102135
-0.96,2.38,-9.83,-0.0959468480377986,-0.0039043732431935,-0.3523695864670504,-28.84852244729204,-147.31628725286762,-11.858462221253813
-0.96,2.38,-9.83,-0.0959468480377986,-0.0039043732431935,-0.3523695864670504,-28.84852244729204,-147.31628725286762,-11.858462221253813
-1.08,2.1,-9.45,-0.0299999969998119,0.2192258958184887,0.068583456441031,-28.801196435314267,-147.39783944401512,-11.754779974813852
-1.08,2.1,-9.45,-0.0299999969998119,0.2192258958184887,0.068583456441031,-28.801196435314267,-147.39783944401512,-11.754779974813852
-1.07,2.04,-9.67,-0.103832808469505,0.2704663622027489,-0.1297209016321527,-28.76570522000204,-147.52054122823532,-11.581997645669874
-1.07,2.04,-9.67,-0.103832808469505,0.2704663622027489,-0.1297209016321527,-28.76570522000204,-147.52054122823532,-11.581997645669874
-1.11,1.63,-9.56,-0.2290449369339289,0.5893815585933349,0.0658713968669317,-28.730216823306154,-147.6025936178383,-11.37469368630907
-1.11,1.63,-9.56,-0.2290449369339289,0.5893815585933349,0.0658713968669317,-28.730216823306154,-147.6025936178383,-11.37469368630907
-0.9,1.98,-9.67,-0.262822967388138,0.1977103767917567,-0.0994660246951593,-28.83669047331989,-147.52054122823532,-11.328631235557037
-0.9,1.98,-9.67,-0.262822967388138,0.1977103767917567,-0.0994660246951593,-28.83669047331989,-147.52054122823532,-11.328631235557037
-0.74,1.49,-9.86,-0.6422653353369374,0.5590946752860231,-0.1563921249280753,-29.0023667595726,-147.4795905833761,-11.248026360967865
-0.74,1.49,-9.86,-0.6422653353369374,0.5590946752860231,-0.1563921249280753,-29.0023667595726,-147.4795905833761,-11.248026360967865
-0.57,0.85,-10.2,-1.1420756047832978,1.0399672748230786,-0.3275264036479974,-29.393135398012305,-147.1943287474599,-11.052294827398208
-0.57,0.85,-10.2,-1.1420756047832978,1.0399672748230786,-0.3275264036479974,-29.393135398012305,-147.1943287474599,-11.052294827398208
-0.68,0.79,-9.86,-1.0468038803274666,1.0899738465232651,0.0075552127236484,-30.22320342475908,-146.35265556905202,-11.063807546045703
-0.68,0.79,-9.86,-1.0468038803274666,1.0899738465232651,0.0075552127236484,-30.22320342475908,-146.35265556905202,-11.063807546045703
-0.2,0.65,-10.56,-1.7454771714046282,1.051271719595896,-0.5771950111547426,-30.99543647635929,-145.53094905314887,-11.167427069301608
-0.2,0.65,-10.56,-1.7454771714046282,1.051271719595896,-0.5771950111547426,-30.99543647635929,-145.53094905314887,-11.167427069301608
-0.21,1.01,-10.73,-1.7682981238125588,0.7769916062587949,-0.7983726680155865,-32.38912849332685,-143.86802831777294,-11.478340954533572
-0.21,1.01,-10.73,-1.7682981238125588,0.7769916062587949,-0.7983726680155865,-32.38912849332685,-143.86802831777294,-11.478340954533572
-1.01,2.11,-9.7,-0.4647046155734476,0.1777295149384898,-0.1590241788894761,-33.62013451285477,-142.38248796926192,-11.720221376139571
-1.01,2.11,-9.7,-0.4647046155734476,0.1777295149384898,-0.1590241788894761,-33.62013451285477,-142.38248796926192,-11.720221376139571
-1.14,2.76,-9.54,-0.1338494894838262,-0.2749609639099713,-0.185110644775806,-35.31183406453793,-140.44035437538835,-11.950632395319571
-1.14,2.76,-9.54,-0.1338494894838262,-0.2749609639099713,-0.185110644775806,-35.31183406453793,-140.44035437538835,-11.950632395319571
-1.42,2.81,-9.13,0.119199090459196,-0.2240244537589741,0.1523760956117623,-36.52850049317351,-139.07460705159409,-11.858462221253813
-1.42,2.81,-9.13,0.119199090459196,-0.2240244537589741,0.1523760956117623,-36.52850049317351,-139.07460705159409,-11.858462221253813
-1.71,3.11,-9.05,0.3845013630823479,-0.3531990875758166,0.0996366021353676,-38.270597450084026,-137.11973135242658,-11.501374957383891
-1.71,3.11,-9.05,0.3845013630823479,-0.3531990875758166,0.0996366021353676,-38.270597450084026,-137.11973135242658,-11.501374957383891
-2.19,3.38,-8.19,1.0148369192750248,-0.3181817172349557,0.7421331114894052,-39.70501157955701,-135.397065246721,-11.605033754368794
-2.19,3.38,-8.19,1.0148369192750248,-0.3181817172349557,0.7421331114894052,-39.70501157955701,-135.397065246721,-11.605033754368794
-1.96,3.21,-8.71,0.4987904478911424,-0.2579557352886292,0.3359337162269345,-40.5589927006499,-134.38132917213414,-11.800859775906506
-1.96,3.21,-8.71,0.4987904478911424,-0.2579557352886292,0.3359337162269345,-40.5589927006499,-134.38132917213414,-11.800859775906506
-2.27,3.75,-8.69,0.8929544996594652,-0.4060903571382617,0.1231990199321355,-41.51335250906026,-133.01147504963205,-12.158043754647911
-2.27,3.75,-8.69,0.8929544996594652,-0.4060903571382617,0.1231990199321355,-41.51335250906026,-133.01147504963205,-12.158043754647911
-2.47,3.37,-8.15,0.90862214814286,-0.0287194356716924,0.6932597973411134,-42.08986846540722,-132.24132459051677,-12.250239375241623
-2.47,3.37,-8.15,0.90862214814286,-0.0287194356716924,0.6932597973411134,-42.08986846540722,-132.24132459051677,-12.250239375241623
-2.21,2.85,-8.4,0.2300364609708219,0.2539322921051723,0.6715965454410053,-42.80285732809909,-131.31561745343842,-12.688278342697654
-2.21,2.85,-8.4,0.2300364609708219,0.2539322921051723,0.6715965454410053,-42.80285732809909,-131.31561745343842,-12.688278342697654
-2.09,4.54,-9.09,0.8354693728779659,-0.855219423139066,-0.497639915625852,-43.32024532286975,-130.40615307468192,-13.414914406298776
-2.09,4.54,-9.09,0.8354693728779659,-0.855219423139066,-0.497639915625852,-43.32024532286975,-130.40615307468192,-13.414914406298776
-2.4,3.47,-8.29,0.5779505218301219,0.0676202811515338,0.5229868925895804,-43.75211129257185,-129.72743673627951,-13.680327762024126
-2.4,3.47,-8.29,0.5779505218301219,0.0676202811515338,0.5229868925895804,-43.75211129257185,-129.72743673627951,-13.680327762024126
-2.19,4.03,-8.81,0.503505010586577,-0.3544973192304315,-0.1066700470363439,-44.011544446012536,-129.16386802241826,-14.176734355559056
-2.19,4.03,-8.81,0.503505010586577,-0.3544973192304315,-0.1066700470363439,-44.011544446012536,-129.16386802241826,-14.176734355559056
-2.34,3.98,-7.52,1.0321064861181166,-0.2954342041582605,1.0480042809218322,-44.11043851170447,-128.87098138309108,-14.523222401516824
-2.34,3.98,-7.52,1.0321064861181166,-0.2954342041582605,1.0480042809218322,-44.11043851170447,-128.87098138309108,-14.523222401516824
-2.15,4.36,-7.13,1.2913971079522528,-0.6147267580679778,1.296455846956965,-44.098074864095786,-128.73836728652063,-15.32065719904219
-2.15,4.36,-7.13,1.2913971079522528,-0.6147267580679778,1.296455846956965,-44.098074864095786,-128.73836728652063,-15.32065719904219
-2.24,3.55,-5.99,1.3456025438279895,0.0083699585399359,2.6171101164026007,-43.86326796394638,-128.92411693093345,-16.327188391573927
-2.24,3.55,-5.99,1.3456025438279895,0.0083699585399359,2.6171101164026007,-43.86326796394638,-128.92411693093345,-16.327188391573927
-1.57,3.89,-7.52,0.6526374643292053,-0.0396315984095962,1.22062101818533,-43.41890031609472,-129.19057220176188,-18.98285063278348
-1.57,3.89,-7.52,0.6526374643292053,-0.0396315984095962,1.22062101818533,-43.41890031609472,-129.19057220176188,-18.98285063278348
-1.23,5.06,-8.05,1.0394918886856366,-0.688535009772294,0.3006321084917669,-42.80285732809909,-129.56581673326838,-20.518219394705007
-1.23,5.06,-8.05,1.0394918886856366,-0.688535009772294,0.3006321084917669,-42.80285732809909,-129.56581673326838,-20.518219394705007
-0.93,4.42,-7.36,0.8412649062297716,-0.3290152995254707,1.2185813993061032,-41.68496498644351,-130.35153620627273,-22.290862814695288
-0.93,4.42,-7.36,0.8412649062297716,-0.3290152995254707,1.2185813993061032,-41.68496498644351,-130.35153620627273,-22.290862814695288
-0.28,4.85,-7.82,0.6260462905798105,-0.6947141025695509,0.6481163642184384,-40.766741444761,-130.9830718545965,-23.55363796786013
-0.28,4.85,-7.82,0.6260462905798105,-0.6947141025695509,0.6481163642184384,-40.766741444761,-130.9830718545965,-23.55363796786013
0.15,4.74,-8.98,0.1301760040697569,-0.1793851430549939,-0.346249840854119,-39.351894536966725,-131.87465337051762,-25.18318095723705
0.15,4.74,-8.98,0.1301760040697569,-0.1793851430549939,-0.346249840854119,-39.351894536966725,-131.87465337051762,-25.18318095723705
0.2,4.5,-8.13,0.4194321985763216,-0.1749372493950218,0.5233115062483282,-37.83422856646789,-133.12658560187518,-25.86464777060069
0.2,4.5,-8.13,0.4194321985763216,-0.1749372493950218,0.5233115062483282,-37.83422856646789,-133.12658560187518,-25.86464777060069
1.36,3.29,-9.35,-1.2333372092463877,0.6132129919037383,-0.1028933373515652,-36.69748080490138,-133.93995871664828,-26.46463761296408
1.36,3.29,-9.35,-1.2333372092463877,0.6132129919037383,-0.1028933373515652,-36.69748080490138,-133.93995871664828,-26.46463761296408
1.47,4.74,-10.15,-0.4320419908848981,0.2537429320919737,-1.4805088206477208,-35.44414023991489,-134.20429804752106,-27.961985822582488
1.47,4.74,-10.15,-0.4320419908848981,0.2537429320919737,-1.4805088206477208,-35.44414023991489,-134.20429804752106,-27.961985822582488
1.05,4.47,-8.48,0.2111070608969621,0.0735260373602537,0.1659120754078387,-34.675036035061034,-134.588690989807,-28.375486985220768
1.05,4.47,-8.48,0.2111070608969621,0.0735260373602537,0.1659120754078387,-34.675036035061034,-134.588690989807,-28.375486985220768
1.51,4.4,-8.29,0.0074200337604372,-0.0245333100215847,0.3006759278810147,-33.51241368583526,-135.00612922505886,-29.13258444192844
1.51,4.4,-8.29,0.0074200337604372,-0.0245333100215847,0.3006759278810147,-33.51241368583526,-135.00612922505886,-29.13258444192844
2.11,4.72,-9.43,-0.3050525254009592,0.1627365304929298,-0.9421108485066636,-32.60397465615993,-135.18615927411605,-29.8198276164604
2.11,4.72,-9.43,-0.3050525254009592,0.1627365304929298,-0.9421108485066636,-32.60397465615993,-135.18615927411605,-29.8198276164604
2.19,3.39,-8.77,-0.8365421971452034,0.9240733704820076,0.2333858984324753,-31.340435037267948,-135.57859793518082,-30.413159765182687
2.19,3.39,-8.77,-0.8365421971452034,0.9240733704820076,0.2333858984324753,-31.340435037267948,-135.57859793518082,-30.413159765182687
2.35,4.45,-9.34,-0.3581379098985108,0.5471154039930934,-0.7826371323903096,-30.62696303514804,-135.54829362030736,-31.09057958723377
2.35,4.45,-9.34,-0.3581379098985108,0.5471154039930934,-0.7826371323903096,-30.62696303514804,-135.54829362030736,-31.09057958723377
2.45,4.71,-9.03,-0.1738852125251463,0.3573095496182712,-0.6608995613164748,-29.74868303296809,-135.397065246721,-31.924028325694472
2.45,4.71,-9.03,-0.1738852125251463,0.3573095496182712,-0.6608995613164748,-29.74868303296809,-135.397065246721,-31.924028325694472
3.35,3.97,-10.39,-1.2492296249500623,1.3883706508688096,-1.6583991616893332,-29.10890564472929,-135.24632190274465,-32.472665833224625
3.35,3.97,-10.39,-1.2492296249500623,1.3883706508688096,-1.6583991616893332,-29.10890564472929,-135.24632190274465,-32.472665833224625
3.78,3.53,-11.13,-1.7170225584408314,2.105680466396691,-2.1618145342349884,-28.588291341239625,-135.03608676528202,-33.02206936424729
3.78,3.53,-11.13,-1.7170225584408314,2.105680466396691,-2.1618145342349884,-28.588291341239625,-135.03608676528202,-33.02206936424729
3.06,3.77,-9.56,-0.9434759601437434,1.3907057067248152,-0.7832456911724996,-28.70655945606141,-134.7969534952698,-33.20139097173225
3.06,3.77,-9.56,-0.9434759601437434,1.3907057067248152,-0.7832456911724996,-28.70655945606141,-134.7969534952698,-33.20139097173225
3.05,4.14,-9.2,-0.7412381831906445,0.9804938587322912,-0.6609809520716503,-29.1681050221712,-134.2337582296838,-33.524381159227765
3.05,4.14,-9.2,-0.7412381831906445,0.9804938587322912,-0.6609809520716503,-29.1681050221712,-134.2337582296838,-33.524381159227765
3.09,4.04,-9.53,-0.8246900369352768,1.260412241623112,-0.8901648214384981,-29.665695841620533,-133.706188934986,-33.775785318620265
3.09,4.04,-9.53,-0.8246900369352768,1.260412241623112,-0.8901648214384981,-29.665695841620533,-133.706188934986,-33.775785318620265
2.98,3.75,-9.37,-0.8325109990870668,1.3296112988937228,-0.5990628170180248,-30.710138215163173,-133.32867360141205,-33.3449084936511
2.98,3.75,-9.37,-0.8325109990870668,1.3296112988937228,-0.5990628170180248,-30.710138215163173,-133.32867360141205,-33.3449084936511
2.96,4.48,-8.82,-0.4471844443173718,0.514969286778469,-0.4967102628674276,-32.031310917714855,-132.3546807037213,-33.488479867763736
2.96,4.48,-8.82,-0.4471844443173718,0.514969286778469,-0.4967102628674276,-32.031310917714855,-132.3546807037213,-33.488479867763736
2.97,5.0,-8.73,-0.1999530840651179,0.1039849152500349,-0.6806282885538621,-33.09378799906577,-131.56643317341502,-33.62013451285477
2.97,5.0,-8.73,-0.1999530840651179,0.1039849152500349,-0.6806282885538621,-33.09378799906577,-131.56643317341502,-33.62013451285477
2.62,4.65,-8.27,-0.1538123577826012,0.2058448966734816,-0.0327488453109658,-34.49501150829637,-130.6800872399157,-33.6081640231361
2.62,4.65,-8.27,-0.1538123577826012,0.2058448966734816,-0.0327488453109658,-34.49501150829637,-130.6800872399157,-33.6081640231361
2.85,4.82,-8.49,-0.3185278926647653,0.0759943227559305,-0.3583765540481192,-35.63667282414923,-129.86249210271768,-33.67999263161277
2.85,4.82,-8.49,-0.3185278926647653,0.0759943227559305,-0.3583765540481192,-35.63667282414923,-129.86249210271768,-33.67999263161277
2.54,5.14,-8.09,0.07109413949083,-0.2054502043856669,-0.1065752994092683,-37.24119428419274,-128.63250588646886,-33.811713840931375
2.54,5.14,-8.09,0.07109413949083,-0.2054502043856669,-0.1065752994092683,-37.24119428419274,-128.63250588646886,-33.811713840931375
2.35,4.8,-7.67,-0.015284216771695,-0.1326006987078818,0.4592662244497596,-38.306987464775865,-127.7928177632481,-33.94348108559176
2.35,4.8,-7.67,-0.015284216771695,-0.1326006987078818,0.4592662244497596,-38.306987464775865,-127.7928177632481,-33.94348108559176
2.27,5.77,-7.74,0.5386036276959316,-0.6365535092644983,-0.0755615825393967,-39.82686703824351,-126.505361092403,-34.14721243955784
2.27,5.77,-7.74,0.5386036276959316,-0.6365535092644983,-0.0755615825393967,-39.82686703824351,-126.505361092403,-34.14721243955784
1.72,5.58,-7.27,0.8467366022799646,-0.4336382450283116,0.5307298300757175,-40.74229316618828,-125.67114640173416,-34.32706780881908
1.72,5.58,-7.27,0.8467366022799646,-0.4336382450283116,0.5307298300757175,-40.74229316618828,-125.67114640173416,-34.32706780881908
2.3,6.21,-7.97,0.5975417888424183,-0.7540087926337851,-0.5107825561749113,-41.84440708007335,-124.60157138168796,-34.60301565627788
2.3,6.21,-7.97,0.5975417888424183,-0.7540087926337851,-0.5107825561749113,-41.84440708007335,-124.60157138168796,-34.60301565627788
1.93,5.86,-7.59,0.7077521297034906,-0.5657116707598244,0.0674684518171009,-42.74132469735878,-124.0372118533993,-34.375043949019776
1.93,5.86,-7.59,0.7077521297034906,-0.5657116707598244,0.0674684518171009,-42.74132469735878,-124.0372118533993,-34.375043949019776
1.88,5.39,-7.95,0.2896259054855105,-0.1214909755447188,0.0245052056446795,-43.49291375439449,-123.45383923298036,-34.30308206548676
1.88,5.39,-7.95,0.2896259054855105,-0.1214909755447188,0.0245052056446795,-43.49291375439449,-123.45383923298036,-34.30308206548676
1.59,5.6,-7.74,0.6182198410078799,-0.1704699891699452,0.1430872920244041,-44.03626472561431,-122.9958904624243,-34.32706780881908
1.59,5.6,-7.74,0.6182198410078799,-0.1704699891699452,0.1430872920244041,-44.03626472561431,-122.9958904624243,-34.32706780881908
1.68,5.2,-8.07,0.1462229744378581,0.1159829027137813,0.0622943615791289,-44.7912774389752,-122.3984110822012,-34.23113412634732
1.68,5.2,-8.07,0.1462229744378581,0.1159829027137813,0.0622943615791289,-44.7912774389752,-122.3984110822012,-34.23113412634732
1.44,5.72,-7.73,0.7004715133771795,-0.179718476104346,0.1101588342074055,-45.21299316503786,-122.01898118079964,-34.24312448272413
1.44,5.72,-7.73,0.7004715133771795,-0.179718476104346,0.1101588342074055,-45.21299316503786,-122.01898118079964,-34.24312448272413
1.39,5.82,-7.59,0.8007914505175353,-0.2657411262744618,0.1785289628201898,-45.57320299258629,-121.6418052604753,-34.30308206548676
1.39,5.82,-7.59,0.8007914505175353,-0.2657411262744618,0.1785289628201898,-45.57320299258629,-121.6418052604753,-34.30308206548676
1.14,5.64,-7.35,0.8973010273713159,-0.1281511221677025,0.5163255623839724,-45.70995860569551,-121.5243930799012,-34.27909787153104
1.14,5.64,-7.35,0.8973010273713159,-0.1281511221677025,0.5163255623839724,-45.70995860569551,-121.5243930799012,-34.27909787153104
1.42,5.74,-8.01,0.5825570200696502,-0.0518951634736772,-0.1322651425281655,-45.821900740364754,-121.45404882910115,-34.267106355147284
1.42,5.74,-8.01,0.5825570200696502,-0.0518951634736772,-0.1322651425281655,-45.821900740364754,-121.45404882910115,-34.267106355147284
1.45,5.38,-7.87,0.3738999919904475,0.0346707457053159,0.1711532958657624,-45.87166763185487,-121.47748834883792,-34.17118813606689
1.45,5.38,-7.87,0.3738999919904475,0.0346707457053159,0.1711532958657624,-45.87166763185487,-121.47748834883792,-34.17118813606689
1.54,5.21,-7.97,0.1699390700654451,0.1012103351032385,0.1631300419901862,-45.85922505196,-121.5009364289817,-34.12323828365854
1.54,5.21,-7.97,0.1699390700654451,0.1012103351032385,0.1631300419901862,-45.85922505196,-121.5009364289817,-34.12323828365854
1.45,5.72,-7.91,0.5896149694342554,-0.1367519688090359,-0.0433577709028174,-45.87166763185487,-121.5243930799012,-34.09926566702287
1.45,5.72,-7.91,0.5896149694342554,-0.1367519688090359,-0.0433577709028174,-45.87166763185487,-121.5243930799012,-34.09926566702287
1.74,5.39,-8.17,0.1129314322921963,-0.0412468866370643,-0.1338804277962548,-45.77214298203665,-121.6418052604753,-34.05132504616154
1.74,5.39,-8.17,0.1129314322921963,-0.0412468866370643,-0.1338804277962548,-45.77214298203665,-121.6418052604753,-34.05132504616154
1.82,5.14,-8.38,-0.1635848784093718,0.1542288877841526,-0.1886415634176792,-45.598062543777615,-121.73589034408552,-34.13522516911611
1.82,5.14,-8.38,-0.1635848784093718,0.1542288877841526,-0.1886415634176792,-45.598062543777615,-121.73589034408552,-34.13522516911611
1.57,5.17,-8.11,0.1057725858396158,0.1779727707962286,0.0638045299671343,-45.49863792387894,-121.8301142376418,-34.13522516911611
1.57,5.17,-8.11,0.1057725858396158,0.1779727707962286,0.0638045299671343,-45.49863792387894,-121.8301142376418,-34.13522516911611
1.65,5.25,-8.19,0.0760563265655411,0.1168804089139783,-0.0595374300664612,-45.3868284428534,-121.92447762133864,-34.13522516911611
1.65,5.25,-8.19,0.0760563265655411,0.1168804089139783,-0.0595374300664612,-45.3868284428534,-121.92447762133864,-34.13522516911611
1.79,5.31,-8.26,-0.0020105734359175,0.0243108871521697,-0.1746928424416101,-45.20058056579144,-122.06628574219845,-34.14721243955784
1.79,5.31,-8.26,-0.0020105734359175,0.0243108871521697,-0.1746928424416101,-45.20058056579144,-122.06628574219845,-34.14721243955784
1.68,5.35,-7.83,0.2285704261797587,-0.1429538661533729,0.1795466063292021,-45.1509357631892,-122.16100086287558,-34.07529458830543
1.68,5.35,-7.83,0.2285704261797587,-0.1429538661533729,0.1795466063292021,-45.1509357631892,-122.16100086287558,-34.07529458830543
1.78,5.24,-8.54,-0.0910421223813726,0.209741997030338,-0.3671064167142326,-44.989651826175965,-122.27959441275604,-34.111251783016854
1.78,5.24,-8.54,-0.0910421223813726,0.209741997030338,-0.3671064167142326,-44.989651826175965,-122.27959441275604,-34.111251783016854
1.9,5.16,-8.85,-0.3075313130290173,0.3250246708198365,-0.6028592802141777,-44.89044689976561,-122.37462983210789,-34.111251783016854
1.9,5.16,-8.85,-0.3075313130290173,0.3250246708198365,-0.6028592802141777,-44.89044689976561,-122.37462983210789,-34.111251783016854
1.55,5.32,-8.02,0.2593919475485654,0.0336443724188035,0.0620677168155872,-44.91524480207666,-122.44600053491276,-33.94348108559176
1.55,5.32,-8.02,0.2593919475485654,0.0336443724188035,0.0620677168155872,-44.91524480207666,-122.44600053491276,-33.94348108559176
1.6,5.33,-8.22,0.1786288217027034,0.08122092287562,-0.1180059086823934,-44.85325420187507,-122.541287565057,-33.883581162404816
1.6,5.33,-8.22,0.1786288217027034,0.08122092287562,-0.1180059086823934,-44.85325420187507,-122.541287565057,-33.883581162404816
1.71,5.06,-8.38,-0.104938697076839,0.2113215084844056,-0.1279577471588027,-44.803671685885895,-122.6606000192726,-33.751834870470574
1.71,5.06,-8.38,-0.104938697076839,0.2113215084844056,-0.1279577471588027,-44.803671685885895,-122.6606000192726,-33.751834870470574
1.58,5.27,-8.08,0.2020623198330256,0.0165891649433609,0.0334931088767316,-44.82846183777319,-122.70838865597604,-33.632105380362496
1.58,5.27,-8.08,0.2020623198330256,0.0165891649433609,0.0334931088767316,-44.82846183777319,-122.70838865597604,-33.632105380362496
1.39,5.1,-7.79,0.3002246261692899,0.0759511982643306,0.3975960311185531,-44.7912774389752,-122.82802018843608,-33.524381159227765
1.39,5.1,-7.79,0.3002246261692899,0.0759511982643306,0.3975960311185531,-44.7912774389752,-122.82802018843608,-33.524381159227765
1.77,5.35,-8.62,-0.0154819948019307,0.0951349499574507,-0.4914328142491407,-44.754098011748425,-122.85197400573632,-33.56028583882476
1.77,5.35,-8.62,-0.0154819948019307,0.0951349499574507,-0.4914328142491407,-44.754098011748425,-122.85197400573632,-33.56028583882476
1.55,5.03,-8.05,0.0830159359569167,0.1153363682394519,0.1897011139687041,-44.71692355018706,-122.97188128580086,-33.416687431310486
1.55,5.03,-8.05,0.0830159359569167,0.1153363682394519,0.1897011139687041,-44.71692355018706,-122.97188128580086,-33.416687431310486
1.41,5.0,-8.03,0.1655978371575392,0.2057040658925464,0.2463538124541333,-44.69214333160206,-123.01990890666336,-33.356870714029654
1.41,5.0,-8.03,0.1655978371575392,0.2057040658925464,0.2463538124541333,-44.69214333160206,-123.01990890666336,-33.356870714029654
1.62,5.01,-8.32,-0.0525897621598665,0.1953742250514358,-0.0374326504607065,-44.679754048391246,-123.0439366303148,-33.3449084936511
1.62,5.01,-8.32,-0.0525897621598665,0.1953742250514358,-0.0374326504607065,-44.679754048391246,-123.0439366303148,-33.3449084936511
1.63,5.14,-8.12,0.0733310397561396,0.0300621140014429,0.0596187171985516,-44.6673653156106,-122.9958904624243,-33.40472333858408
1.63,5.14,-8.12,0.0733310397561396,0.0300621140014429,0.0596187171985516,-44.6673653156106,-122.9958904624243,-33.40472333858408
1.58,5.06,-7.87,0.1204987894027644,-0.0081331178622492,0.3186410468978646,-44.64258950046725,-122.9958904624243,-33.440616741828144
1.58,5.06,-7.87,0.1204987894027644,-0.0081331178622492,0.3186410468978646,-44.64258950046725,-122.9958904624243,-33.440616741828144
1.71,5.22,-8.5,-0.0160915052515604,0.1498326636242213,-0.3126281973997553,-44.605429900527255,-122.97188128580086,-33.548317235556404
1.71,5.22,-8.5,-0.0160915052515604,0.1498326636242213,-0.3126281973997553,-44.605429900527255,-122.97188128580086,-33.548317235556404
1.67,5.19,-8.32,0.0344501279590848,0.1030711816538976,-0.1399870960338205,-44.5682752426895,-122.9958904624243,-33.548317235556404
1.67,5.19,-8.32,0.0344501279590848,0.1030711816538976,-0.1399870960338205,-44.5682752426895,-122.9958904624243,-33.548317235556404
1.49,5.4,-7.9,0.3845248878963709,-0.096850243866065,0.1302425757101648,-44.50636177945312,-123.01990890666336,-33.596193911040075
1.49,5.4,-7.9,0.3845248878963709,-0.096850243866065,0.1302425757101648,-44.50636177945312,-123.01990890666336,-33.596193911040075
1.67,5.28,-8.39,0.0430380911864283,0.0891321353725405,-0.2456931688910746,-44.40732869091076,-123.09201996316364,-33.632105380362496
1.67,5.28,-8.39,0.0430380911864283,0.0891321353725405,-0.2456931688910746,-44.40732869091076,-123.09201996316364,-33.632105380362496
