acc_x,acc_y,acc_z,lin_x,lin_y,lin_z,eul_x,eul_y,eul_z
1.48,7.03,-6.6,0.0528326398714099,0.1945090879788864,0.0531544765039289,-36.08230406752302,-118.25247900079262,-47.93269439397731
1.48,7.03,-6.6,0.0528326398714099,0.1945090879788864,0.0531544765039289,-36.08230406752302,-118.25247900079262,-47.93269439397731
1.46,6.97,-6.45,0.0828233055450703,0.1360109584575903,0.1999002208479439,-36.07025258875129,-118.25247900079262,-47.95777627551156
1.46,6.97,-6.45,0.0828233055450703,0.1360109584575903,0.1999002208479439,-36.07025258875129,-118.25247900079262,-47.95777627551156
1.75,7.36,-6.83,-0.0824215294948757,0.0700534406012582,-0.3849788789837572,-35.997952375875286,-118.1409144049607,-48.12086811718631
1.75,7.36,-6.83,-0.0824215294948757,0.0700534406012582,-0.3849788789837572,-35.997952375875286,-118.1409144049607,-48.12086811718631
1.53,7.14,-6.46,0.1078043298823866,0.0487487120278862,0.0579012705714792,-35.997952375875286,-118.16321281406336,-48.10831891577421
1.53,7.14,-6.46,0.1078043298823866,0.0487487120278862,0.0579012705714792,-35.997952375875286,-118.16321281406336,-48.10831891577421
1.63,7.23,-6.71,-0.012970943780901,0.1187504683843059,-0.1903310483403437,-35.997952375875286,-118.1409144049607,-48.12086811718631
1.63,7.23,-6.71,-0.012970943780901,0.1187504683843059,-0.1903310483403437,-35.997952375875286,-118.1409144049607,-48.12086811718631
1.66,7.22,-6.65,-0.0233090592060668,0.0678654999073207,-0.1483161456823278,-35.98590378205003,-118.1409144049607,-48.13341793224112
1.66,7.22,-6.65,-0.0233090592060668,0.0678654999073207,-0.1483161456823278,-35.98590378205003,-118.1409144049607,-48.13341793224112
1.53,7.22,-6.55,0.1093915344619108,0.0709572951164894,-0.060203528580315,-35.997952375875286,-118.1409144049607,-48.12086811718631
1.53,7.22,-6.55,0.1093915344619108,0.0709572951164894,-0.060203528580315,-35.997952375875286,-118.1409144049607,-48.12086811718631
1.59,7.1,-6.8,-0.0834796768519137,0.2554439005095195,-0.1485435971755571,-35.97385559965812,-118.18551847027427,-48.09577032776433
1.59,7.1,-6.8,-0.0834796768519137,0.2554439005095195,-0.1485435971755571,-35.97385559965812,-118.18551847027427,-48.09577032776433
1.59,7.2,-6.54,0.0403866918566205,0.0251656092132601,-0.0491825679383328,-35.997952375875286,-118.18551847027427,-48.070674990989744
1.59,7.2,-6.54,0.0403866918566205,0.0251656092132601,-0.0491825679383328,-35.997952375875286,-118.18551847027427,-48.070674990989744
1.55,7.16,-6.36,0.1064790069539696,-0.0620173220103796,0.106004863059427,-35.98590378205003,-118.20783138151,-48.03303658033746
1.55,7.16,-6.36,0.1064790069539696,-0.0620173220103796,0.106004863059427,-35.98590378205003,-118.20783138151,-48.03303658033746
1.42,6.95,-6.48,0.0646314599678642,0.1885375725111484,0.2009445934130358,-35.94976046847315,-118.25247900079262,-48.02049166769566
1.42,6.95,-6.48,0.0646314599678642,0.1885375725111484,0.2009445934130358,-35.94976046847315,-118.25247900079262,-48.02049166769566
1.49,7.23,-6.78,0.0430138714300148,0.2147043926361718,-0.214001267789305,-35.9377135193296,-118.25247900079262,-48.02049166769566
1.49,7.23,-6.78,0.0430138714300148,0.2147043926361718,-0.214001267789305,-35.9377135193296,-118.25247900079262,-48.02049166769566
1.57,7.26,-6.6,0.0505244681210087,0.0242237235341682,-0.1296149164230353,-35.97385559965812,-118.27481372474286,-47.97031813194389
1.57,7.26,-6.6,0.0505244681210087,0.0242237235341682,-0.1296149164230353,-35.97385559965812,-118.27481372474286,-47.97031813194389
1.55,7.35,-6.68,0.0766069748996275,0.0411300520211668,-0.2452075243691905,-35.9377135193296,-118.29715573552454,-47.95777627551156
1.55,7.35,-6.68,0.0766069748996275,0.0411300520211668,-0.2452075243691905,-35.9377135193296,-118.29715573552454,-47.95777627551156
1.44,7.35,-6.78,0.124952759267198,0.1543982593771509,-0.2940949223041382,-35.91362085306447,-118.36422556879909,-47.88253794953186
1.44,7.35,-6.78,0.124952759267198,0.1543982593771509,-0.2940949223041382,-35.91362085306447,-118.36422556879909,-47.88253794953186
1.59,7.8,-6.84,0.1940480915847848,-0.1223007791522072,-0.6862565495491317,-35.9377135193296,-118.38659680691794,-47.81985609667796
1.59,7.8,-6.84,0.1940480915847848,-0.1223007791522072,-0.6862565495491317,-35.9377135193296,-118.38659680691794,-47.81985609667796
1.37,7.47,-6.72,0.2411880862741622,0.0380424527007141,-0.3312285294967889,-35.877484931095594,-118.6107135023718,-47.60685129535253
1.37,7.47,-6.72,0.2411880862741622,0.0380424527007141,-0.3312285294967889,-35.877484931095594,-118.6107135023718,-47.60685129535253
1.36,7.65,-7.14,0.1710457844446615,0.1884033622411993,-0.7426128895444606,-35.73297808318577,-118.83557102370403,-47.4190508458531
1.36,7.65,-7.14,0.1710457844446615,0.1884033622411993,-0.7426128895444606,-35.73297808318577,-118.83557102370403,-47.4190508458531
1.49,7.73,-7.23,0.0552535475206749,0.0748110799588763,-0.8815327430018165,-35.612600576556765,-119.10638959402516,-47.15635695640368
1.49,7.73,-7.23,0.0552535475206749,0.0748110799588763,-0.8815327430018165,-35.612600576556765,-119.10638959402516,-47.15635695640368
1.56,8.1,-7.3,0.1002437300792283,-0.2001555661397116,-1.2062283223970651,-35.45617049212599,-119.4919242535424,-46.769049990136345
1.56,8.1,-7.3,0.1002437300792283,-0.2001555661397116,-1.2062283223970651,-35.45617049212599,-119.4919242535424,-46.769049990136345
1.1,7.58,-6.78,0.3472274589394421,-0.1175235197750756,-0.4158947572538487,-35.227664546585345,-119.94836140851372,-46.33244691855332
1.1,7.58,-6.78,0.3472274589394421,-0.1175235197750756,-0.4158947572538487,-35.227664546585345,-119.94836140851372,-46.33244691855332
0.85,7.24,-6.55,0.4015838086778016,-0.0950045411496725,0.0152096268082821,-34.78309311529889,-120.70844309282911,-45.685088838323495
0.85,7.24,-6.55,0.4015838086778016,-0.0950045411496725,0.0152096268082821,-34.78309311529889,-120.70844309282911,-45.685088838323495
0.7,7.33,-6.78,0.4413008770766318,-0.0253738951335349,-0.1929454768849101,-34.471014881449136,-121.29021101561548,-45.16334612512468
0.7,7.33,-6.78,0.4413008770766318,-0.0253738951335349,-0.1929454768849101,-34.471014881449136,-121.29021101561548,-45.16334612512468
0.65,7.06,-6.75,0.3166628281378627,-0.050574299922327,0.0226954368663818,-34.015373611081245,-122.23213029596668,-44.30833052387342
0.65,7.06,-6.75,0.3166628281378627,-0.050574299922327,0.0226954368663818,-34.015373611081245,-122.23213029596668,-44.30833052387342
0.65,7.67,-7.41,0.3231520411233939,-0.1173711382866851,-0.8723619755628658,-33.58422417640036,-122.97188128580086,-43.69037629572606
0.65,7.67,-7.41,0.3231520411233939,-0.1173711382866851,-0.8723619755628658,-33.58422417640036,-122.97188128580086,-43.69037629572606
0.73,7.84,-7.51,0.3075320714168473,-0.531998753508494,-1.05709711374098,-32.74727085632419,-124.82385344491156,-42.0775906009399
0.73,7.84,-7.51,0.3075320714168473,-0.531998753508494,-1.05709711374098,-32.74727085632419,-124.82385344491156,-42.0775906009399
0.68,5.86,-7.87,-0.6148468351238489,0.5552507546328025,0.0060092062142249,-32.01938920775377,-126.70941436503276,-40.32696746513329
0.68,5.86,-7.87,-0.6148468351238489,0.5552507546328025,0.0060092062142249,-32.01938920775377,-126.70941436503276,-40.32696746513329
-0.33,6.86,-7.66,0.585873509955353,-0.0415952255924492,-0.4646265549147071,-31.24523405697452,-128.47409395200597,-38.37977954174036
-0.33,6.86,-7.66,0.585873509955353,-0.0415952255924492,-0.4646265549147071,-31.24523405697452,-128.47409395200597,-38.37977954174036
-0.06,6.65,-8.19,0.0149225564647279,-0.2089077194876214,-0.7412566587663285,-30.54380438300529,-130.40615307468192,-36.23901092380315
-0.06,6.65,-8.19,0.0149225564647279,-0.2089077194876214,-0.7412566587663285,-30.54380438300529,-130.40615307468192,-36.23901092380315
-0.49,8.23,-6.98,1.4176112294664116,-2.635460143654805,-0.5730478873808131,-29.227312357898,-134.7075870499225,-31.292831778140112
-0.49,8.23,-6.98,1.4176112294664116,-2.635460143654805,-0.5730478873808131,-29.227312357898,-134.7075870499225,-31.292831778140112
-0.22,3.81,-9.19,-1.2721384431122438,0.4565695286547426,-0.0520420048787375,-27.088940429595656,-139.83527593342114,-25.8058643261674
-0.22,3.81,-9.19,-1.2721384431122438,0.4565695286547426,-0.0520420048787375,-27.088940429595656,-139.83527593342114,-25.8058643261674
-1.65,3.59,-7.99,0.1935006836845508,0.3617408710411263,0.9025834555703084,-25.617803632217928,-142.48926046846375,-22.75822922439662
-1.65,3.59,-7.99,0.1935006836845508,0.3617408710411263,0.9025834555703084,-25.617803632217928,-142.48926046846375,-22.75822922439662
-1.26,3.33,-9.08,-0.6165366754084911,0.051190112227583,0.0731941851166571,-23.76437852052494,-145.7248595525418,-18.959614614971
-1.26,3.33,-9.08,-0.6165366754084911,0.051190112227583,0.0731941851166571,-23.76437852052494,-145.7248595525418,-18.959614614971
-1.51,2.18,-8.87,-0.7312492377878199,0.6696699023522421,0.6019654983933158,-22.617979384064764,-147.72605283657722,-16.442961442690333
-1.51,2.18,-8.87,-0.7312492377878199,0.6696699023522421,0.6019654983933158,-22.617979384064764,-147.72605283657722,-16.442961442690333
-2.27,2.98,-8.1,0.4162377035021805,-0.2521187897932426,0.8956185058341113,-21.48553279702964,-149.288410054367,-14.38461134345722
-2.27,2.98,-8.1,0.4162377035021805,-0.2521187897932426,0.8956185058341113,-21.48553279702964,-149.288410054367,-14.38461134345722
-1.96,1.96,-9.35,-0.5406073247910634,0.5609458123708609,0.0856015217767858,-20.762818905741057,-150.43438697810743,-13.138038375794716
-1.96,1.96,-9.35,-0.5406073247910634,0.5609458123708609,0.0856015217767858,-20.762818905741057,-150.43438697810743,-13.138038375794716
-2.25,2.04,-8.77,-0.0930357929816964,0.2874040008869151,0.5305655199244512,-20.075850034388896,-151.2538864729402,-11.950632395319571
-2.25,2.04,-8.77,-0.0930357929816964,0.2874040008869151,0.5305655199244512,-20.075850034388896,-151.2538864729402,-11.950632395319571
-1.83,2.4,-9.2,-0.4996604935067703,-0.2774449487621464,0.1411306817411546,-19.76171895398025,-151.71920090048613,-11.132886214620822
-1.83,2.4,-9.2,-0.4996604935067703,-0.2774449487621464,0.1411306817411546,-19.76171895398025,-151.71920090048613,-11.132886214620822
-2.11,2.86,-8.8,-0.0036885235434827,-0.7693031154401395,0.3472705747222449,-19.30823806837105,-152.19213918576153,-10.534336497867196
-2.11,2.86,-8.8,-0.0036885235434827,-0.7693031154401395,0.3472705747222449,-19.30823806837105,-152.19213918576153,-10.534336497867196
-2.06,1.01,-9.13,-0.6478418171248737,0.8681803066168139,0.4553311659965775,-18.83183055191492,-152.91671705681662,-9.90156821424672
-2.06,1.01,-9.13,-0.6478418171248737,0.8681803066168139,0.4553311659965775,-18.83183055191492,-152.91671705681662,-9.90156821424672
-2.45,1.12,-7.75,0.1846855262196072,0.6448969776495928,1.6292788365622393,-18.402183827223173,-153.4604028099656,-9.3380846266553
-2.45,1.12,-7.75,0.1846855262196072,0.6448969776495928,1.6292788365622393,-18.402183827223173,-153.4604028099656,-9.3380846266553
-1.97,1.99,-9.03,-0.3735779302772436,-0.2221086980195571,0.3624450437173454,-18.228077382152183,-153.71118144535646,-9.119652615329128
-1.97,1.99,-9.03,-0.3735779302772436,-0.2221086980195571,0.3624450437173454,-18.228077382152183,-153.71118144535646,-9.119652615329128
-2.2,0.94,-8.69,-0.3342699373350305,0.7350713248812036,0.8295884676091578,-17.972797887176398,-154.0662728728033,-8.705871826379285
-2.2,0.94,-8.69,-0.3342699373350305,0.7350713248812036,0.8295884676091578,-17.972797887176398,-154.0662728728033,-8.705871826379285
-2.31,1.27,-8.68,-0.1187185828744664,0.4465175995816458,0.7469630334793518,-17.914792407087575,-154.27134430279995,-8.61393617408195
-2.31,1.27,-8.68,-0.1187185828744664,0.4465175995816458,0.7469630334793518,-17.914792407087575,-154.27134430279995,-8.61393617408195
-2.32,1.51,-8.77,-0.0352156848893222,0.223844773171988,0.6129536066519243,-17.92639313237552,-154.37448496866145,-8.522006076442151
-2.32,1.51,-8.77,-0.0352156848893222,0.223844773171988,0.6129536066519243,-17.92639313237552,-154.37448496866145,-8.522006076442151
-2.23,1.6,-9.13,-0.1143014887673905,0.1701689776809499,0.2752399422645446,-17.914792407087575,-154.68638599830706,-8.590953131273462
-2.23,1.6,-9.13,-0.1143014887673905,0.1701689776809499,0.2752399422645446,-17.914792407087575,-154.68638599830706,-8.590953131273462
-2.29,1.53,-8.89,0.0528165169696258,0.2521324121084657,0.5033849998885049,-17.972797887176398,-154.8964372754453,-8.659903302137069
-2.29,1.53,-8.89,0.0528165169696258,0.2521324121084657,0.5033849998885049,-17.972797887176398,-154.8964372754453,-8.659903302137069
-2.05,1.76,-9.53,-0.1816756269220349,0.0954302511616235,-0.0968285319980211,-18.100426311736804,-155.05511767406654,-8.95872400294449
-2.05,1.76,-9.53,-0.1816756269220349,0.0954302511616235,-0.0968285319980211,-18.100426311736804,-155.05511767406654,-8.95872400294449
-1.85,1.71,-9.73,-0.3682775543177384,0.1438501327336133,-0.2364162042176297,-18.216471799125177,-155.16145880106285,-9.142643881088318
-1.85,1.71,-9.73,-0.3682775543177384,0.1438501327336133,-0.2364162042176297,-18.216471799125177,-155.16145880106285,-9.142643881088318
-1.79,1.66,-9.78,-0.3793893763486133,0.2384441244174995,-0.2634695673459895,-18.448619433327213,-155.10823234547746,-9.4070701841208
-1.79,1.66,-9.78,-0.3793893763486133,0.2384441244174995,-0.2634695673459895,-18.448619433327213,-155.10823234547746,-9.4070701841208
-1.9,2.3,-9.7,-0.0354367988797448,-0.2687612888934543,-0.3381275531490857,-18.657617598655087,-155.0021140741398,-9.717547848465047
-1.9,2.3,-9.7,-0.0354367988797448,-0.2687612888934543,-0.3381275531490857,-18.657617598655087,-155.0021140741398,-9.717547848465047
-1.82,2.0,-10.14,-0.2782713126849042,0.0700391430959526,-0.6838056428675223,-18.855062255560348,-154.8964372754453,-9.832557602907888
-1.82,2.0,-10.14,-0.2782713126849042,0.0700391430959526,-0.6838056428675223,-18.855062255560348,-154.8964372754453,-9.832557602907888
-2.0,2.11,-9.56,0.0691405460968601,-0.0297867496286867,-0.1853484154538343,-18.959614614971,-154.79119639620873,-9.91307033213892
-2.0,2.11,-9.56,0.0691405460968601,-0.0297867496286867,-0.1853484154538343,-18.959614614971,-154.79119639620873,-9.91307033213892
-1.82,1.88,-10.01,-0.2583327081518025,0.203813639801806,-0.5344632965522464,-19.07580259196793,-154.73873772257048,-10.005090889774308
-1.82,1.88,-10.01,-0.2583327081518025,0.203813639801806,-0.5344632965522464,-19.07580259196793,-154.73873772257048,-10.005090889774308
-1.83,1.64,-9.52,-0.2162331203747825,0.3908154805792125,-0.0152340604943308,-19.30823806837105,-154.42620867150097,-10.14313387414705
-1.83,1.64,-9.52,-0.2162331203747825,0.3908154805792125,-0.0152340604943308,-19.30823806837105,-154.42620867150097,-10.14313387414705
-1.94,2.12,-9.26,0.0405255904202101,0.013858610318352,0.1110960903236044,-19.68030213963965,-153.8627830260387,-10.534336497867196
-1.94,2.12,-9.26,0.0405255904202101,0.013858610318352,0.1110960903236044,-19.68030213963965,-153.8627830260387,-10.534336497867196
-1.87,2.3,-9.09,0.0468412482573685,-0.1666153651803461,0.247097436331158,-19.889680039418103,-153.5103719816942,-10.741493332748478
-1.87,2.3,-9.09,0.0468412482573685,-0.1666153651803461,0.247097436331158,-19.889680039418103,-153.5103719816942,-10.741493332748478
-2.09,2.24,-8.71,0.3127399490222116,-0.0304837598071765,0.5789165586465082,-20.134039115213792,-153.1625065187994,-11.063807546045703
-2.09,2.24,-8.71,0.3127399490222116,-0.0304837598071765,0.5789165586465082,-20.134039115213792,-153.1625065187994,-11.063807546045703
-1.43,1.57,-9.46,-0.6808692836838129,0.5363372024277795,0.1500377874366396,-20.343563363128432,-152.91671705681662,-11.501374957383891
-1.43,1.57,-9.46,-0.6808692836838129,0.5363372024277795,0.1500377874366396,-20.343563363128432,-152.91671705681662,-11.501374957383891
-1.25,1.5,-8.98,-0.7494514424735869,0.6511769661040672,0.6706119585845745,-20.92593832998922,-152.00202441389632,-12.653689634339962
-1.25,1.5,-8.98,-0.7494514424735869,0.6511769661040672,0.6706119585845745,-20.92593832998922,-152.00202441389632,-12.653689634339962
-1.17,1.22,-9.45,-1.061226126958333,1.1772278160911518,0.3384012824977862,-21.50886039245491,-150.97820441576042,-13.968904250085991
-1.17,1.22,-9.45,-1.061226126958333,1.1772278160911518,0.3384012824977862,-21.50886039245491,-150.97820441576042,-13.968904250085991
-1.39,1.17,-9.25,-0.9386783983207372,1.5926311136585192,0.5629543645772905,-22.75822922439662,-148.90133503664836,-15.991540967744186
-1.39,1.17,-9.25,-0.9386783983207372,1.5926311136585192,0.5629543645772905,-22.75822922439662,-148.90133503664836,-15.991540967744186
-0.85,3.2,-10.68,-1.281860540540551,0.277170232212989,-1.2976244119991946,-23.975200651636385,-146.59103083752737,-18.06561632088332
-0.85,3.2,-10.68,-1.281860540540551,0.277170232212989,-1.2976244119991946,-23.975200651636385,-146.59103083752737,-18.06561632088332
-1.32,2.76,-9.48,-0.9570571764517,0.87937000417455,-0.0696423183125922,-25.770597576108926,-143.53692935464713,-20.087487431641744
-1.32,2.76,-9.48,-0.9570571764517,0.87937000417455,-0.0696423183125922,-25.770597576108926,-143.53692935464713,-20.087487431641744
-1.21,4.76,-10.86,-1.0524998315409873,-0.1817658740742631,-2.0643442831941545,-27.183245547895737,-140.9514569794307,-21.695513718287582
-1.21,4.76,-10.86,-1.0524998315409873,-0.1817658740742631,-2.0643442831941545,-27.183245547895737,-140.9514569794307,-21.695513718287582
-1.98,4.42,-8.81,-0.2113772880779102,0.0058618648272816,-0.2446277934263445,-29.09706672256259,-137.8466463321347,-22.53618284114898
-1.98,4.42,-8.81,-0.2113772880779102,0.0058618648272816,-0.2446277934263445,-29.09706672256259,-137.8466463321347,-22.53618284114898
-2.22,5.34,-8.42,0.1539230814206492,-0.7051178922223187,-0.3825362502887781,-30.94787313807167,-135.1561066706563,-22.62966555670664
-2.22,5.34,-8.42,0.1539230814206492,-0.7051178922223187,-0.3825362502887781,-30.94787313807167,-135.1561066706563,-22.62966555670664
-2.54,4.8,-7.89,0.198842469461068,-0.2680613760460644,0.2341735821125734,-32.09092481112806,-133.50255170239728,-22.50113074326324
-2.54,4.8,-7.89,0.198842469461068,-0.2680613760460644,0.2341735821125734,-32.09092481112806,-133.50255170239728,-22.50113074326324
-2.75,4.48,-8.23,-0.153247630593404,0.1515580063846764,0.0434873293067461,-33.4525819599508,-131.76235907719015,-22.30254236550936
-2.75,4.48,-8.23,-0.153247630593404,0.1515580063846764,0.0434873293067461,-33.4525819599508,-131.76235907719015,-22.30254236550936
-3.02,5.92,-8.08,0.5882894970503111,-0.79127226992119,-0.6087714347050817,-34.50701040671306,-130.24247093533856,-22.337582426465424
-3.02,5.92,-8.08,0.5882894970503111,-0.79127226992119,-0.6087714347050817,-34.50701040671306,-130.24247093533856,-22.337582426465424
-2.84,5.6,-8.21,0.0754757266737318,-0.7362205059602633,-0.5026653400837784,-35.540393572715686,-128.89754271482937,-21.777192841624235
-2.84,5.6,-8.21,0.0754757266737318,-0.7362205059602633,-0.5026653400837784,-35.540393572715686,-128.89754271482937,-21.777192841624235
-3.84,5.12,-6.8,1.2085117846098403,-0.0781741635921173,0.5474174148120792,-36.17873077462121,-128.0277034878583,-21.275624852029367
-3.84,5.12,-6.8,1.2085117846098403,-0.0781741635921173,0.5474174148120792,-36.17873077462121,-128.0277034878583,-21.275624852029367
-3.57,4.64,-7.0,0.6492366490084085,0.0841781139312427,0.7046773666243507,-36.86654380200172,-127.42938014555916,-20.762818905741057
-3.57,4.64,-7.0,0.6492366490084085,0.0841781139312427,0.7046773666243507,-36.86654380200172,-127.42938014555916,-20.762818905741057
-2.88,5.72,-8.27,-0.0316922445161013,-0.9445811932013228,-0.6102815045788734,-37.33794513405029,-126.99117600895984,-20.72787028869477
-2.88,5.72,-8.27,-0.0316922445161013,-0.9445811932013228,-0.6102815045788734,-37.33794513405029,-126.99117600895984,-20.72787028869477
-3.69,5.13,-6.69,1.0896115506269537,-0.2840969672431752,0.6731328471205256,-37.88268575548643,-126.47990511760632,-20.20387293870638
-3.69,5.13,-6.69,1.0896115506269537,-0.2840969672431752,0.6731328471205256,-37.88268575548643,-126.47990511760632,-20.20387293870638
-3.59,4.71,-7.16,0.5598644589007408,0.0109554437162104,0.5317251072629823,-38.16145144122449,-126.3527930632596,-20.01766618340029
-3.59,4.71,-7.16,0.5598644589007408,0.0109554437162104,0.5317251072629823,-38.16145144122449,-126.3527930632596,-20.01766618340029
-3.33,5.35,-6.98,0.836368291598991,-0.6230802740451895,0.4608456444132879,-38.57397055139104,-126.09940169684566,-20.01766618340029
-3.33,5.35,-6.98,0.836368291598991,-0.6230802740451895,0.4608456444132879,-38.57397055139104,-126.09940169684566,-20.01766618340029
-3.36,5.46,-7.51,0.6295873648771447,-0.5837982465994775,-0.0302244709513495,-38.683253582612885,-126.09940169684566,-20.087487431641744
-3.36,5.46,-7.51,0.6295873648771447,-0.5837982465994775,-0.0302244709513495,-38.683253582612885,-126.09940169684566,-20.087487431641744
-3.4,4.83,-7.73,0.2888305182134254,-0.1300198142374253,0.0834061081882637,-38.69539839808244,-126.45446035214496,-19.622153417094765
-3.4,4.83,-7.73,0.2888305182134254,-0.1300198142374253,0.0834061081882637,-38.69539839808244,-126.45446035214496,-19.622153417094765
-3.7,4.74,-7.23,0.7525457966524222,0.012725906448507,0.4330694207738386,-38.67110921893018,-126.658333240647,-19.226876578818004
-3.7,4.74,-7.23,0.7525457966524222,0.012725906448507,0.4330694207738386,-38.67110921893018,-126.658333240647,-19.226876578818004
-3.26,4.57,-7.98,0.0270895854180893,-0.0839857057383768,0.0503642028539612,-38.56183024539064,-127.04255474483055,-19.017706136871343
-3.26,4.57,-7.98,0.0270895854180893,-0.0839857057383768,0.0503642028539612,-38.56183024539064,-127.04255474483055,-19.017706136871343
-3.16,4.52,-9.21,-0.6975030798602189,0.0354858471620991,-0.9056014070682944,-38.47686069075838,-127.3259688536123,-18.901528010085144
-3.16,4.52,-9.21,-0.6975030798602189,0.0354858471620991,-0.9056014070682944,-38.47686069075838,-127.3259688536123,-18.901528010085144
-3.41,4.36,-7.92,0.0934147468156142,0.0506245623518499,0.1447241651178021,-38.44045190034536,-127.40350962041992,-18.332536130219392
-3.41,4.36,-7.92,0.0934147468156142,0.0506245623518499,0.1447241651178021,-38.44045190034536,-127.40350962041992,-18.332536130219392
-3.5,4.74,-7.09,0.7804270583546025,-0.3030586024161605,0.6259752377567818,-38.51327351873995,-127.30014547607834,-18.13523798699121
-3.5,4.74,-7.09,0.7804270583546025,-0.3030586024161605,0.6259752377567818,-38.51327351873995,-127.30014547607834,-18.13523798699121
-3.58,4.6,-6.93,0.8681742974423241,-0.164536832991323,0.7944082688961505,-38.44045190034536,-127.42938014555916,-18.13523798699121
-3.58,4.6,-6.93,0.8681742974423241,-0.164536832991323,0.7944082688961505,-38.44045190034536,-127.42938014555916,-18.13523798699121
-3.17,4.31,-7.51,0.16119209707595,-0.1287847576955516,0.5880529487114696,-38.3312497043692,-127.6108060653337,-18.286108128329392
-3.17,4.31,-7.51,0.16119209707595,-0.1287847576955516,0.5880529487114696,-38.3312497043692,-127.6108060653337,-18.286108128329392
-3.27,3.84,-5.58,1.1006537707430253,0.1207132513539066,2.366966566688019,-38.270597450084026,-127.84492955883974,-18.785369486689323
-3.27,3.84,-5.58,1.1006537707430253,0.1207132513539066,2.366966566688019,-38.270597450084026,-127.84492955883974,-18.785369486689323
-2.94,4.34,-5.61,1.2025979078450937,-0.2580515269152332,2.227832962922028,-38.04022025359053,-128.1586232989387,-20.27371434520358
-2.94,4.34,-5.61,1.2025979078450937,-0.2580515269152332,2.227832962922028,-38.04022025359053,-128.1586232989387,-20.27371434520358
-1.69,5.26,-8.21,-0.4665009562151217,-0.910240906485554,-0.0361970652555978,-37.51942746361191,-128.47409395200597,-22.51281453874211
-1.69,5.26,-8.21,-0.4665009562151217,-0.910240906485554,-0.0361970652555978,-37.51942746361191,-128.47409395200597,-22.51281453874211
-2.0,5.0,-6.14,0.7085676593973542,-0.8474071297626855,1.71471370338449,-37.09611957275582,-128.71188283967422,-23.366380865675165
-2.0,5.0,-6.14,0.7085676593973542,-0.8474071297626855,1.71471370338449,-37.09611957275582,-128.71188283967422,-23.366380865675165
-2.75,4.51,-5.18,1.5196626677807932,-0.1957090783153768,2.5687412320741214,-36.57677217345314,-129.16386802241826,-23.76437852052494
-2.75,4.51,-5.18,1.5196626677807932,-0.1957090783153768,2.5687412320741214,-36.57677217345314,-129.16386802241826,-23.76437852052494
-2.08,3.18,-6.57,-0.1731974892421315,0.9037356428368932,2.272928176254021,-35.58852995304725,-129.80842917390058,-25.523799625853453
-2.08,3.18,-6.57,-0.1731974892421315,0.9037356428368932,2.272928176254021,-35.58852995304725,-129.80842917390058,-25.523799625853453
-1.79,6.61,-7.61,0.7685525759498614,-1.162054210817613,-0.3356996759440296,-35.17957649356332,-129.75442065073912,-27.10072754559724
-1.79,6.61,-7.61,0.7685525759498614,-1.162054210817613,-0.3356996759440296,-35.17957649356332,-129.75442065073912,-27.10072754559724
-1.6,5.25,-7.05,0.3841545336887406,-0.3202530050937167,0.8861756119993878,-34.351055102879386,-130.3788376016962,-28.18641141984425
-1.6,5.25,-7.05,0.3841545336887406,-0.3202530050937167,0.8861756119993878,-34.351055102879386,-130.3788376016962,-28.18641141984425
-1.7,5.34,-5.87,1.1123552413792752,-0.5977998021149391,1.7899298967677932,-33.668020251284275,-130.76254599505174,-29.1681050221712
-1.7,5.34,-5.87,1.1123552413792752,-0.5977998021149391,1.7899298967677932,-33.668020251284275,-130.76254599505174,-29.1681050221712
-1.61,6.28,-6.57,1.3374063164745542,-0.7931890405183326,0.7084306417598594,-32.53234621871178,-131.34342588798634,-30.90031526443885
-1.61,6.28,-6.57,1.3374063164745542,-0.7931890405183326,0.7084306417598594,-32.53234621871178,-131.34342588798634,-30.90031526443885
-0.38,7.17,-9.35,-0.214505199121568,-0.6513917429118057,-1.9621849600466472,-31.233335490801053,-131.84655671079122,-32.48460118565665
-0.38,7.17,-9.35,-0.214505199121568,-0.6513917429118057,-1.9621849600466472,-31.233335490801053,-131.84655671079122,-32.48460118565665
0.16,5.56,-9.77,-1.2089254351979517,0.608722527045896,-1.3539976593967538,-29.606429021936968,-133.01147504963205,-33.356870714029654
0.16,5.56,-9.77,-1.2089254351979517,0.608722527045896,-1.3539976593967538,-29.606429021936968,-133.01147504963205,-33.356870714029654
0.0,5.34,-9.0,-0.7467517041533374,0.6451439844247706,-0.6116872536938285,-28.62376850418663,-133.50255170239728,-34.039340850884635
0.0,5.34,-9.0,-0.7467517041533374,0.6451439844247706,-0.6116872536938285,-28.62376850418663,-133.50255170239728,-34.039340850884635
0.14,6.01,-9.71,-0.6290743952448303,0.7716742676017181,-1.5701942122571406,-27.324738438026905,-133.6770461216721,-35.43211039129503
0.14,6.01,-9.71,-0.6290743952448303,0.7716742676017181,-1.5701942122571406,-27.324738438026905,-133.6770461216721,-35.43211039129503
0.5,5.99,-9.9,-0.8594289787100866,0.8872323413950607,-1.709178263869516,-26.52349964582953,-133.85216386873807,-36.118460981567104
0.5,5.99,-9.9,-0.8594289787100866,0.8872323413950607,-1.709178263869516,-26.52349964582953,-133.85216386873807,-36.118460981567104
0.85,6.15,-10.39,-1.1106891407425152,1.099894034906066,-2.195587405776253,-25.559049077875773,-133.91067619883825,-36.999437339480345
0.85,6.15,-10.39,-1.1106891407425152,1.099894034906066,-2.195587405776253,-25.559049077875773,-133.91067619883825,-36.999437339480345
0.51,6.05,-9.17,-0.4875771436626018,0.7815474870972832,-1.1524992395345102,-24.854522251558684,-133.85216386873807,-37.676791133557344
0.51,6.05,-9.17,-0.4875771436626018,0.7815474870972832,-1.1524992395345102,-24.854522251558684,-133.85216386873807,-37.676791133557344
0.35,5.96,-7.73,-0.0231665106998066,0.171200156936965,0.0410392244751651,-24.350199497398,-133.7645266360233,-38.14932632838656
0.35,5.96,-7.73,-0.0231665106998066,0.171200156936965,0.0410392244751651,-24.350199497398,-133.7645266360233,-38.14932632838656
0.38,6.27,-7.53,0.1264383593986457,-0.0944597267648412,0.0018914256498838,-23.881491803544503,-133.706188934986,-38.61039417078352
0.38,6.27,-7.53,0.1264383593986457,-0.0944597267648412,0.0018914256498838,-23.881491803544503,-133.706188934986,-38.61039417078352
0.45,6.06,-7.49,0.0464938753523164,0.0784823059400237,0.1620723085088347,-23.28447580744025,-133.73534909546763,-39.04779541564693
0.45,6.06,-7.49,0.0464938753523164,0.0784823059400237,0.1620723085088347,-23.28447580744025,-133.73534909546763,-39.04779541564693
0.85,6.52,-8.23,-0.2477366796766227,0.190828481628488,-0.7227379702545935,-22.69978760508081,-133.50255170239728,-39.77811923036006
0.85,6.52,-8.23,-0.2477366796766227,0.190828481628488,-0.7227379702545935,-22.69978760508081,-133.50255170239728,-39.77811923036006
0.84,5.9,-8.66,-0.4856790216366964,0.9542782357315308,-0.6511064007176621,-22.25582556887037,-133.50255170239728,-40.09511461656773
0.84,5.9,-8.66,-0.4856790216366964,0.9542782357315308,-0.6511064007176621,-22.25582556887037,-133.50255170239728,-40.09511461656773
0.88,6.16,-8.95,-0.4782368069606058,0.9885318437294012,-1.0384684571862142,-21.777192841624235,-133.53159111803808,-40.33917501022326
0.88,6.16,-8.95,-0.4782368069606058,0.9885318437294012,-1.0384684571862142,-21.777192841624235,-133.53159111803808,-40.33917501022326
0.62,6.16,-7.48,0.0364776373706093,0.1696836232162137,0.0983918220370707,-21.602179804976902,-133.64792062272215,-40.35138303303221
0.62,6.16,-7.48,0.0364776373706093,0.1696836232162137,0.0983918220370707,-21.602179804976902,-133.64792062272215,-40.35138303303221
0.74,6.56,-7.38,0.1088232864002858,-0.1537593986789502,-0.0933558353343837,-21.368908312577144,-133.50255170239728,-40.65673943236753
0.74,6.56,-7.38,0.1088232864002858,-0.1537593986789502,-0.0933558353343837,-21.368908312577144,-133.50255170239728,-40.65673943236753
0.95,6.36,-7.89,-0.2071397472202094,0.2509067735152932,-0.3667633365417569,-21.15904057291141,-133.56064768554154,-40.74229316618828
0.95,6.36,-7.89,-0.2071397472202094,0.2509067735152932,-0.3667633365417569,-21.15904057291141,-133.56064768554154,-40.74229316618828
0.7,5.64,-7.07,-0.0450084220807462,0.321759402951888,0.7413896546732399,-20.94924459772563,-133.6770461216721,-40.74229316618828
0.7,5.64,-7.07,-0.0450084220807462,0.321759402951888,0.7413896546732399,-20.94924459772563,-133.6770461216721,-40.74229316618828
0.7,6.28,-7.53,0.1140860690926242,0.2314264310568896,-0.0199835118313682,-20.890980569305803,-133.41553604515124,-41.06027242384908
0.7,6.28,-7.53,0.1140860690926242,0.2314264310568896,-0.0199835118313682,-20.890980569305803,-133.41553604515124,-41.06027242384908
0.98,6.51,-8.01,-0.0924247169838115,0.344700929743905,-0.5554559124448328,-20.856024774540764,-133.21309386328863,-41.34183738204944
0.98,6.51,-8.01,-0.0924247169838115,0.344700929743905,-0.5554559124448328,-20.856024774540764,-133.21309386328863,-41.34183738204944
0.87,6.84,-7.6,0.2352622454651017,-0.0593459084313234,-0.4521817921199531,-20.809420100088577,-133.06899702903365,-41.55011839728967
0.87,6.84,-7.6,0.2352622454651017,-0.0593459084313234,-0.4521817921199531,-20.809420100088577,-133.06899702903365,-41.55011839728967
0.71,6.51,-6.49,0.4867216003480203,-0.4703138068826265,0.6117488582361457,-20.70457229377833,-133.01147504963205,-41.67270371214475
0.71,6.51,-6.49,0.4867216003480203,-0.4703138068826265,0.6117488582361457,-20.70457229377833,-133.01147504963205,-41.67270371214475
1.03,5.66,-7.05,-0.0492442071485042,0.4376562993525495,0.7179189570160942,-20.471639758994087,-132.86795984370113,-41.979385883293695
1.03,5.66,-7.05,-0.0492442071485042,0.4376562993525495,0.7179189570160942,-20.471639758994087,-132.86795984370113,-41.979385883293695
1.18,5.96,-7.51,-0.0423866803467083,0.576780649650003,0.1640555642934718,-20.378490735265764,-132.55366749345723,-42.38468953590336
1.18,5.96,-7.51,-0.0423866803467083,0.576780649650003,0.1640555642934718,-20.378490735265764,-132.55366749345723,-42.38468953590336
0.9,5.7,-6.27,0.4191290610600177,0.0954238635627948,1.2961785021076704,-20.471639758994087,-132.15647345628565,-42.71671526594671
0.9,5.7,-6.27,0.4191290610600177,0.0954238635627948,1.2961785021076704,-20.471639758994087,-132.15647345628565,-42.71671526594671
1.35,6.33,-5.74,0.4055847311751931,-0.7233979442978029,1.195541102765958,-20.599742008899195,-131.59437695002578,-43.19697398702748
1.35,6.33,-5.74,0.4055847311751931,-0.7233979442978029,1.195541102765958,-20.599742008899195,-131.59437695002578,-43.19697398702748
1.96,7.05,-6.65,0.2769187244755119,-0.5691525543117417,-0.0607701993203502,-20.599742008899195,-130.6800872399157,-44.0239043163285
1.96,7.05,-6.65,0.2769187244755119,-0.5691525543117417,-0.0607701993203502,-20.599742008899195,-130.6800872399157,-44.0239043163285
2.33,7.05,-7.2,0.0918622870364905,-0.1297842395310424,-0.534825589653046,-20.331921330362565,-130.02500909601727,-44.679754048391246
2.33,7.05,-7.2,0.0918622870364905,-0.1297842395310424,-0.534825589653046,-20.331921330362565,-130.02500909601727,-44.679754048391246
2.59,7.07,-7.01,0.0809383882953496,-0.1504904407096456,-0.4794523524246159,-19.73845598070809,-129.2975202216285,-45.461363019955
2.59,7.07,-7.01,0.0809383882953496,-0.1504904407096456,-0.4794523524246159,-19.73845598070809,-129.2975202216285,-45.461363019955
2.51,7.18,-6.38,0.3497288405311174,-0.5689843717119327,-0.0984419492374364,-19.37798430858409,-128.97730409708814,-45.74726752330664
2.51,7.18,-6.38,0.3497288405311174,-0.5689843717119327,-0.0984419492374364,-19.37798430858409,-128.97730409708814,-45.74726752330664
2.8,7.47,-7.29,0.4266649590835066,-0.0082600692288199,-0.9916317514615098,-18.657617598655087,-128.4213907260083,-46.24521189671154
2.8,7.47,-7.29,0.4266649590835066,-0.0082600692288199,-0.9916317514615098,-18.657617598655087,-128.4213907260083,-46.24521189671154
3.8,6.57,-8.41,-0.6368104538991414,1.3241043603742368,-1.4260798591501251,-17.90319186690899,-128.0277034878583,-46.70663424071843
3.8,6.57,-8.41,-0.6368104538991414,1.3241043603742368,-1.4260798591501251,-17.90319186690899,-128.0277034878583,-46.70663424071843
3.83,6.87,-8.6,-0.3802846380282419,1.4093389847182711,-1.7560031220232055,-17.288624783675054,-127.58485235552216,-47.1313522186008
3.83,6.87,-8.6,-0.3802846380282419,1.4093389847182711,-1.7560031220232055,-17.288624783675054,-127.58485235552216,-47.1313522186008
3.54,6.82,-7.21,-0.1689405575252227,0.5011339590800841,-0.7170577041829596,-17.010496081346126,-127.37765090836372,-47.281416405631816
3.54,6.82,-7.21,-0.1689405575252227,0.5011339590800841,-0.7170577041829596,-17.010496081346126,-127.37765090836372,-47.281416405631816
3.63,6.65,-7.14,-0.2233852370833566,0.6158548007648629,-0.583240369981203,-16.686140017359815,-127.04255474483055,-47.519194226240366
3.63,6.65,-7.14,-0.2233852370833566,0.6158548007648629,-0.583240369981203,-16.686140017359815,-127.04255474483055,-47.519194226240366
3.62,6.85,-7.41,-0.0415534139134277,0.7267593629592359,-0.889381700688963,-16.43138337904295,-126.93984342653314,-47.56928036162765
3.62,6.85,-7.41,-0.0415534139134277,0.7267593629592359,-0.889381700688963,-16.43138337904295,-126.93984342653314,-47.56928036162765
3.5,6.49,-6.99,-0.0789196034527612,0.6750014903177948,-0.3308223025150401,-16.17670848781425,-126.88855686312144,-47.60685129535253
3.5,6.49,-6.99,-0.0789196034527612,0.6750014903177948,-0.3308223025150401,-16.17670848781425,-126.88855686312144,-47.60685129535253
3.22,7.12,-6.45,0.3571273142685803,-0.1062627002899239,-0.3188854584303531,-16.188282864682783,-126.93984342653314,-47.519194226240366
3.22,7.12,-6.45,0.3571273142685803,-0.1062627002899239,-0.3188854584303531,-16.188282864682783,-126.93984342653314,-47.519194226240366
3.33,6.69,-6.46,0.1093869898637347,0.1402342504101956,-0.0698356523694911,-16.10726571114575,-127.068261462492,-47.39402100857085
3.33,6.69,-6.46,0.1093869898637347,0.1402342504101956,-0.0698356523694911,-16.10726571114575,-127.068261462492,-47.39402100857085
3.27,6.73,-6.55,0.1945832920970257,0.185856671583624,-0.1339684234213809,-16.10726571114575,-127.09397976921672,-47.35648075084825
3.27,6.73,-6.55,0.1945832920970257,0.185856671583624,-0.1339684234213809,-16.10726571114575,-127.09397976921672,-47.35648075084825
3.26,6.75,-6.49,0.1839792733603952,0.1160374546975515,-0.1061138394184055,-16.13041264048083,-127.17120439382435,-47.30643546064212
3.26,6.75,-6.49,0.1839792733603952,0.1160374546975515,-0.1061138394184055,-16.13041264048083,-127.17120439382435,-47.30643546064212
3.41,6.63,-6.56,0.0063587455507139,0.2175020212229652,-0.1216556176327969,-16.084119443363345,-127.22274573469288,-47.26890777482772
3.41,6.63,-6.56,0.0063587455507139,0.2175020212229652,-0.1216556176327969,-16.084119443363345,-127.22274573469288,-47.26890777482772
3.29,6.99,-6.64,0.2676927894563477,0.067943787513411,-0.3765481328171879,-16.049401279911372,-127.22274573469288,-47.26890777482772
3.29,6.99,-6.64,0.2676927894563477,0.067943787513411,-0.3765481328171879,-16.049401279911372,-127.22274573469288,-47.26890777482772
3.24,6.7,-6.4,0.1679829406232137,0.057532625621131,-0.0074251845830435,-16.049401279911372,-127.351803991908,-47.15635695640368
3.24,6.7,-6.4,0.1679829406232137,0.057532625621131,-0.0074251845830435,-16.049401279911372,-127.351803991908,-47.15635695640368
3.27,6.8,-6.48,0.1684447056251911,0.0224918795254351,-0.1379173860908746,-16.03782888845279,-127.5070627749377,-47.01886031964005
3.27,6.8,-6.48,0.1684447056251911,0.0224918795254351,-0.1379173860908746,-16.03782888845279,-127.5070627749377,-47.01886031964005
3.17,6.95,-6.49,0.3127087939027513,-0.0656846879718555,-0.2118029111026871,-16.014684599323402,-127.6108060653337,-46.94389240735087
3.17,6.95,-6.49,0.3127087939027513,-0.0656846879718555,-0.2118029111026871,-16.014684599323402,-127.6108060653337,-46.94389240735087
3.2,6.49,-6.46,0.10078837250945,0.1685142296088142,0.1085499459488836,-15.922114008308863,-127.84492955883974,-46.744081927482135
3.2,6.49,-6.46,0.10078837250945,0.1685142296088142,0.1085499459488836,-15.922114008308863,-127.84492955883974,-46.744081927482135
3.09,6.92,-6.3,0.3245607738784857,-0.2151478171591252,-0.0408304757781134,-15.910543420989349,-127.87100362286014,-46.744081927482135
3.09,6.92,-6.3,0.3245607738784857,-0.2151478171591252,-0.0408304757781134,-15.910543420989349,-127.87100362286014,-46.744081927482135
3.23,6.72,-6.41,0.1481150743986521,-0.032856555924297,-0.0247477831979079,-15.760140597334962,-127.94929869917114,-46.656712208804855
3.23,6.72,-6.41,0.1481150743986521,-0.032856555924297,-0.0247477831979079,-15.760140597334962,-127.94929869917114,-46.656712208804855
3.25,6.64,-6.75,0.1486411080014041,0.264349429576761,-0.199479381538822,-15.656031584502133,-128.0277034878583,-46.60679955433233
3.25,6.64,-6.75,0.1486411080014041,0.264349429576761,-0.199479381538822,-15.656031584502133,-128.0277034878583,-46.60679955433233
3.24,6.42,-6.78,0.0719835895770336,0.4057950222056981,-0.0681942399252406,-15.621331474060083,-128.18484420355122,-46.46958798664575
3.24,6.42,-6.78,0.0719835895770336,0.4057950222056981,-0.0681942399252406,-15.621331474060083,-128.18484420355122,-46.46958798664575
3.12,6.97,-6.26,0.2935668036324676,-0.3318657833267546,-0.0577599485809052,-15.679165793853407,-128.23732310544656,-46.44464801216442
3.12,6.97,-6.26,0.2935668036324676,-0.3318657833267546,-0.0577599485809052,-15.679165793853407,-128.23732310544656,-46.44464801216442
3.24,6.72,-6.52,0.1305194457180329,0.0114585689280888,-0.100379493015934,-15.644464720667994,-128.2110774660985,-46.45711770819951
3.24,6.72,-6.52,0.1305194457180329,0.0114585689280888,-0.100379493015934,-15.644464720667994,-128.2110774660985,-46.45711770819951
3.35,6.54,-7.13,0.0453440185989869,0.5760360797162409,-0.41573359458509,-15.586632804931574,-128.18484420355122,-46.494530291689
3.35,6.54,-7.13,0.0453440185989869,0.5760360797162409,-0.41573359458509,-15.586632804931574,-128.18484420355122,-46.494530291689
3.24,6.34,-6.53,-0.0167602827095519,0.2630072572713744,0.1492877164597335,-15.575066901599747,-128.2635811405088,-46.44464801216442
3.24,6.34,-6.53,-0.0167602827095519,0.2630072572713744,0.1492877164597335,-15.575066901599747,-128.2635811405088,-46.44464801216442
2.99,6.8,-5.97,0.2852397607175356,-0.4078781437226961,0.2896508038889109,-15.690733139619653,-128.18484420355122,-46.54442190080458
2.99,6.8,-5.97,0.2852397607175356,-0.4078781437226961,0.2896508038889109,-15.690733139619653,-128.18484420355122,-46.54442190080458
3.14,6.75,-6.53,0.2003944412185737,0.0271931499119757,-0.0939612235824363,-15.690733139619653,-128.1586232989387,-46.58184673902731
3.14,6.75,-6.53,0.2003944412185737,0.0271931499119757,-0.0939612235824363,-15.690733139619653,-128.1586232989387,-46.58184673902731
3.35,7.03,-7.2,0.1874280737662683,0.3346914469792104,-0.7922297687530762,-15.667598608855752,-128.05386288415187,-46.68167205165904
3.35,7.03,-7.2,0.1874280737662683,0.3346914469792104,-0.7922297687530762,-15.667598608855752,-128.05386288415187,-46.68167205165904
3.12,6.54,-6.39,0.1094390885922008,0.0720005464904329,0.146373657824629,-15.644464720667994,-128.1324147334415,-46.656712208804855
3.12,6.54,-6.39,0.1094390885922008,0.0720005464904329,0.146373657824629,-15.644464720667994,-128.1324147334415,-46.656712208804855
3.0,6.83,-6.44,0.3046748159186042,-0.0682899985433449,-0.0434773967722836,-15.656031584502133,-128.18484420355122,-46.64423316662803
3.0,6.83,-6.44,0.3046748159186042,-0.0682899985433449,-0.0434773967722836,-15.656031584502133,-128.18484420355122,-46.64423316662803
3.06,6.57,-6.58,0.1689857382355466,0.1932825797235349,0.0209979693661495,-15.609765091037287,-128.23732310544656,-46.63175471031061
3.06,6.57,-6.58,0.1689857382355466,0.1932825797235349,0.0209979693661495,-15.609765091037287,-128.23732310544656,-46.63175471031061
3.13,6.91,-6.77,0.2375398463968949,0.1044598121064188,-0.3575303884537817,-15.563501157916,-128.23732310544656,-46.63175471031061
3.13,6.91,-6.77,0.2375398463968949,0.1044598121064188,-0.3575303884537817,-15.563501157916,-128.23732310544656,-46.63175471031061
3.07,6.72,-6.6,0.2079580492797161,0.097178374309359,-0.0974203659306862,-15.540370148995088,-128.31613447366578,-46.55689626255423
3.07,6.72,-6.6,0.2079580492797161,0.097178374309359,-0.0974203659306862,-15.540370148995088,-128.31613447366578,-46.55689626255423
3.16,6.62,-6.77,0.1010777403798504,0.2727199155547857,-0.1712409163239261,-15.517239777173634,-128.3424298098244,-46.54442190080458
3.16,6.62,-6.77,0.1010777403798504,0.2727199155547857,-0.1712409163239261,-15.517239777173634,-128.3424298098244,-46.54442190080458
3.19,7.01,-6.63,0.1923427379413763,-0.0873470216419005,-0.3534914738659776,-15.505674829864253,-128.3424298098244,-46.55689626255423
3.19,7.01,-6.63,0.1923427379413763,-0.0873470216419005,-0.3534914738659776,-15.505674829864253,-128.3424298098244,-46.55689626255423
3.27,6.77,-6.72,0.0455362343287212,0.1159407947130168,-0.2764390199127202,-15.401597439742238,-128.4213907260083,-46.494530291689
3.27,6.77,-6.72,0.0455362343287212,0.1159407947130168,-0.2764390199127202,-15.401597439742238,-128.4213907260083,-46.494530291689
3.22,6.45,-6.89,-0.003121769505071,0.4495731846562818,-0.1553214015948274,-15.343782195666376,-128.50046440745706,-46.44464801216442
3.22,6.45,-6.89,-0.003121769505071,0.4495731846562818,-0.1553214015948274,-15.343782195666376,-128.50046440745706,-46.44464801216442
3.06,6.76,-6.45,0.1941644382782245,-0.048725477402888,-0.0230817358491481,-15.39003407585724,-128.44773606463812,-46.50700231874489
3.06,6.76,-6.45,0.1941644382782245,-0.048725477402888,-0.0230817358491481,-15.39003407585724,-128.44773606463812,-46.50700231874489
3.28,6.91,-6.74,0.07641105858763,0.0377406429862059,-0.3878012845955823,-15.401597439742238,-128.44773606463812,-46.50700231874489
3.28,6.91,-6.74,0.07641105858763,0.0377406429862059,-0.3878012845955823,-15.401597439742238,-128.44773606463812,-46.50700231874489
3.08,6.77,-6.5,0.169849112723228,-0.0381022052680442,-0.0695334481170313,-15.366907820940328,-128.55324310023371,-46.41971036641082
3.08,6.77,-6.5,0.169849112723228,-0.0381022052680442,-0.0695334481170313,-15.366907820940328,-128.55324310023371,-46.41971036641082
3.02,6.53,-6.65,0.1482685654504061,0.2290163214050902,0.0133171680663615,-15.30909493616346,-128.63250588646886,-46.369842053756535
3.02,6.53,-6.65,0.1482685654504061,0.2290163214050902,0.0133171680663615,-15.30909493616346,-128.63250588646886,-46.369842053756535
3.05,6.46,-6.4,0.067389971072328,0.0842494288838358,0.2159013000531793,-15.332219618835126,-128.63250588646886,-46.369842053756535
3.05,6.46,-6.4,0.067389971072328,0.0842494288838358,0.2159013000531793,-15.332219618835126,-128.63250588646886,-46.369842053756535
3.12,6.76,-6.64,0.1391992302312501,0.0739342304935872,-0.1681561286355002,-15.366907820940328,-128.5268474503853,-46.46958798664575
3.12,6.76,-6.64,0.1391992302312501,0.0739342304935872,-0.1681561286355002,-15.366907820940328,-128.5268474503853,-46.46958798664575
3.21,6.82,-6.95,0.1147578382595565,0.2573456911175769,-0.4422330529878344,-15.366907820940328,-128.50046440745706,-46.494530291689
3.21,6.82,-6.95,0.1147578382595565,0.2573456911175769,-0.4422330529878344,-15.366907820940328,-128.50046440745706,-46.494530291689
3.05,6.68,-6.72,0.1715019092945314,0.1827859320306371,-0.1442532955887987,-15.343782195666376,-128.60607229870925,-46.407242416234105
3.05,6.68,-6.72,0.1715019092945314,0.1827859320306371,-0.1442532955887987,-15.343782195666376,-128.60607229870925,-46.407242416234105
3.0,6.65,-6.57,0.1658429125682058,0.0888613211113047,-0.0092554495222856,-15.343782195666376,-128.6854111372357,-46.38230826013582
3.0,6.65,-6.57,0.1658429125682058,0.0888613211113047,-0.0092554495222856,-15.343782195666376,-128.6854111372357,-46.38230826013582
2.85,6.66,-6.29,0.2696385131908633,-0.0990337916713124,0.217088624196025,-15.35534492966006,-128.65895215941413,-46.41971036641082
2.85,6.66,-6.29,0.2696385131908633,-0.0990337916713124,0.217088624196025,-15.35534492966006,-128.65895215941413,-46.41971036641082
3.04,6.91,-6.64,0.2123656588159,-0.021838261027768,-0.2449033086837371,-15.332219618835126,-128.63250588646886,-46.46958798664575
3.04,6.91,-6.64,0.2123656588159,-0.021838261027768,-0.2449033086837371,-15.332219618835126,-128.63250588646886,-46.46958798664575
3.09,6.7,-6.64,0.0946166437847188,0.0926388502578579,-0.1185787497136203,-15.25128597113998,-128.73836728652063,-46.369842053756535
3.09,6.7,-6.64,0.0946166437847188,0.0926388502578579,-0.1185787497136203,-15.25128597113998,-128.73836728652063,-46.369842053756535
3.11,6.77,-6.78,0.1078986388350052,0.1413247097041665,-0.2651812739126349,-15.1934809103634,-128.79137449285287,-46.33244691855332
3.11,6.77,-6.78,0.1078986388350052,0.1413247097041665,-0.2651812739126349,-15.1934809103634,-128.79137449285287,-46.33244691855332
3.13,6.64,-6.66,0.0220342014033413,0.115889529435206,-0.1043632736736768,-15.158799741488714,-128.92411693093345,-46.23275206665912
3.13,6.64,-6.66,0.0220342014033413,0.115889529435206,-0.1043632736736768,-15.158799741488714,-128.92411693093345,-46.23275206665912
3.05,6.68,-6.58,0.0921625949032442,0.0293777613222028,-0.0529617065146332,-15.066323443247011,-129.03054304377298,-46.158005222618215
3.05,6.68,-6.58,0.0921625949032442,0.0293777613222028,-0.0529617065146332,-15.066323443247011,-129.03054304377298,-46.158005222618215
3.06,6.35,-6.63,-0.0079435500849712,0.2589517951825848,0.1331872865874057,-14.89295693159816,-129.21728949054742,-45.98367660557063
3.06,6.35,-6.63,-0.0079435500849712,0.2589517951825848,0.1331872865874057,-14.89295693159816,-129.21728949054742,-45.98367660557063
