,TIME,ELAPSED_SECONDS,PSTATE,acc_x,acc_y,acc_z,mag_x,mag_y,mag_z,gyr_x,gyr_y,gyr_z,lin_x,lin_y,lin_z,eul_x,eul_y,eul_z,qua_w,qua_x,qua_y,qua_z
0,1587763.0,1545.608938,1.0,-3.58,2.56,-8.65,28.0,28.75,3.75,-0.56,1.69,1.81,-0.1821112206145181,-0.2037981625447689,0.10521702273990384,-40.73006975326216,-129.72743673627951,-5.938500516393254,-0.23800000000000002,-0.348,-0.9053,-0.0518
1,1587763.0,1545.608938,1.0,-3.58,2.56,-8.65,28.0,28.75,3.75,-0.56,1.69,1.81,-0.1821112206145181,-0.2037981625447689,0.10521702273990384,-40.73006975326216,-129.72743673627951,-5.938500516393254,-0.23800000000000002,-0.348,-0.9053,-0.0518
2,1587798.0,1545.6265720000001,1.0,-3.63,2.34,-8.91,28.0,28.37,3.75,1.56,-0.37,0.69,-0.3954322250139053,-0.020348141969845912,-0.08697518536754067,-40.742293166188276,-129.72743673627951,-5.938500516393254,-0.2375,-0.3481,-0.9053,-0.0518
3,1587798.0,1545.6265720000001,1.0,-3.63,2.34,-8.91,28.0,28.37,3.75,1.56,-0.37,0.69,-0.3954322250139053,-0.020348141969845912,-0.08697518536754067,-40.742293166188276,-129.72743673627951,-5.938500516393254,-0.2375,-0.3481,-0.9053,-0.0518
4,1587832.0,1545.684381,1.0,-3.72,2.34,-8.56,27.56,26.87,4.19,0.63,3.38,1.37,-0.17232742665840156,0.06517317563798762,0.18616894574920195,-40.766741444761,-129.72743673627951,-5.938500516393254,-0.2374,-0.3483,-0.9053,-0.0518
5,1587832.0,1545.684381,1.0,-3.72,2.34,-8.56,27.56,26.87,4.19,0.63,3.38,1.37,-0.17232742665840156,0.06517317563798762,0.18616894574920195,-40.766741444761,-129.72743673627951,-5.938500516393254,-0.2374,-0.3483,-0.9053,-0.0518
6,1587869.0,1545.687531,1.0,-3.5,2.33,-8.78,28.0,26.87,3.75,-0.63,9.56,3.0,-0.3862430653537981,-0.04783928792020542,0.07958324290424379,-40.827870624577365,-129.83545382657294,-6.076199569788739,-0.235,-0.3488,-0.9057,-0.053
7,1587869.0,1545.687531,1.0,-3.5,2.33,-8.78,28.0,26.87,3.75,-0.63,9.56,3.0,-0.3862430653537981,-0.04783928792020542,0.07958324290424379,-40.827870624577365,-129.83545382657294,-6.076199569788739,-0.235,-0.3488,-0.9057,-0.053
8,1587904.0,1545.7433019999999,1.0,-3.64,2.25,-8.54,28.0,26.87,3.75,4.94,-1.88,0.63,-0.22090131398214385,0.12181335340415878,0.25782472584122473,-40.90124166576177,-129.80842917390058,-6.04177399090254,-0.2344,-0.3494,-0.9056,-0.0527
9,1587904.0,1545.7433019999999,1.0,-3.64,2.25,-8.54,28.0,26.87,3.75,4.94,-1.88,0.63,-0.22090131398214385,0.12181335340415878,0.25782472584122473,-40.90124166576177,-129.80842917390058,-6.04177399090254,-0.2344,-0.3494,-0.9056,-0.0527
10,1587941.0,1545.827363,1.0,-3.76,2.39,-8.49,28.25,28.37,4.19,-1.56,0.94,-0.25,-0.03850057519994876,0.10779737481295816,0.21933038335569144,-40.90124166576177,-129.80842917390058,-6.099150260471113,-0.2344,-0.3494,-0.9056,-0.0532
11,1587941.0,1545.827363,1.0,-3.76,2.39,-8.49,28.25,28.37,4.19,-1.56,0.94,-0.25,-0.03850057519994876,0.10779737481295816,0.21933038335569144,-40.90124166576177,-129.80842917390058,-6.099150260471113,-0.2344,-0.3494,-0.9056,-0.0532
12,1587976.0,1545.879964,1.0,-3.72,2.19,-8.66,26.87,27.69,4.56,0.75,7.25,2.69,-0.23619301070605775,0.2303367125593423,0.13601104176456502,-40.96239758351413,-129.86249210271768,-6.087674884576738,-0.2329,-0.3499,-0.9058,-0.0531
13,1587976.0,1545.879964,1.0,-3.72,2.19,-8.66,26.87,27.69,4.56,0.75,7.25,2.69,-0.23619301070605775,0.2303367125593423,0.13601104176456502,-40.96239758351413,-129.86249210271768,-6.087674884576738,-0.2329,-0.3499,-0.9058,-0.0531
14,1588011.0,1545.946682,1.0,-3.33,2.49,-9.17,26.87,27.69,4.56,-3.75,2.13,2.31,-0.5211442611615639,-0.2468051287549111,-0.2454838972120061,-41.03580078188174,-129.88954402446632,-6.248335760592128,-0.2314,-0.3505,-0.9059,-0.0545
15,1588011.0,1545.946682,1.0,-3.33,2.49,-9.17,26.87,27.69,4.56,-3.75,2.13,2.31,-0.5211442611615639,-0.2468051287549111,-0.2454838972120061,-41.03580078188174,-129.88954402446632,-6.248335760592128,-0.2314,-0.3505,-0.9059,-0.0545
16,1588045.0,1545.958615,1.0,-3.55,2.5,-8.72,27.56,28.75,4.5,2.38,-1.69,0.31,-0.1731375375987784,-0.08572974886233542,0.06737005725093326,-41.06027242384908,-129.83545382657294,-6.225383461526625,-0.2318,-0.3507,-0.9057,-0.0543
17,1588045.0,1545.958615,1.0,-3.55,2.5,-8.72,27.56,28.75,4.5,2.38,-1.69,0.31,-0.1731375375987784,-0.08572974886233542,0.06737005725093326,-41.06027242384908,-129.83545382657294,-6.225383461526625,-0.2318,-0.3507,-0.9057,-0.0543
18,1588082.0,1545.994708,1.0,-3.62,2.48,-8.63,27.19,28.0,3.75,-1.12,4.5,1.94,-0.093009240713691,0.0005845900746150878,0.12558348130505334,-41.096983557102725,-129.86249210271768,-6.317194167065648,-0.2312,-0.35100000000000003,-0.9058,-0.0551
19,1588082.0,1545.994708,1.0,-3.62,2.48,-8.63,27.19,28.0,3.75,-1.12,4.5,1.94,-0.093009240713691,0.0005845900746150878,0.12558348130505334,-41.096983557102725,-129.86249210271768,-6.317194167065648,-0.2312,-0.35100000000000003,-0.9058,-0.0551
20,1588117.0,1546.002484,1.0,-3.68,2.23,-8.45,27.19,28.0,3.75,0.63,10.75,4.63,-0.09487384469563152,0.2638069370589285,0.32829545643325986,-41.17041905633896,-129.88954402446632,-6.386054856968827,-0.2293,-0.3516,-0.9059,-0.0557
21,1588117.0,1546.002484,1.0,-3.68,2.23,-8.45,27.19,28.0,3.75,0.63,10.75,4.63,-0.09487384469563152,0.2638069370589285,0.32829545643325986,-41.17041905633896,-129.88954402446632,-6.386054856968827,-0.2293,-0.3516,-0.9059,-0.0557
22,1588150.0,1546.095781,1.0,-3.09,2.68,-9.35,26.87,27.25,4.19,-4.44,11.69,4.44,-0.5555841302704061,-0.4286696626649842,-0.3747334322503733,-41.30509675325747,-129.99788861220236,-6.730393436549607,-0.2253,-0.3527,-0.9063,-0.0587
23,1588150.0,1546.095781,1.0,-3.09,2.68,-9.35,26.87,27.25,4.19,-4.44,11.69,4.44,-0.5555841302704061,-0.4286696626649842,-0.3747334322503733,-41.30509675325747,-129.99788861220236,-6.730393436549607,-0.2253,-0.3527,-0.9063,-0.0587
24,1588187.0,1546.101579,1.0,-3.43,2.66,-8.52,27.19,26.87,5.38,0.19,-3.13,-0.06,0.02605929771364368,-0.1365345296598368,0.24570970967220696,-41.341837382049434,-129.97078188553854,-6.764830589593756,-0.2252,-0.353,-0.9062,-0.059000000000000004
25,1588187.0,1546.101579,1.0,-3.43,2.66,-8.52,27.19,26.87,5.38,0.19,-3.13,-0.06,0.02605929771364368,-0.1365345296598368,0.24570970967220696,-41.341837382049434,-129.97078188553854,-6.764830589593756,-0.2252,-0.353,-0.9062,-0.059000000000000004
26,1588221.0,1546.111725,1.0,-3.23,2.55,-8.96,26.87,27.25,4.19,-1.56,-0.44,0.56,-0.3605062113711489,-0.20445668756158675,-0.04450387832685188,-41.378582455790294,-129.97078188553854,-6.776309776380446,-0.2247,-0.3533,-0.9062,-0.0591
27,1588221.0,1546.111725,1.0,-3.23,2.55,-8.96,26.87,27.25,4.19,-1.56,-0.44,0.56,-0.3605062113711489,-0.20445668756158675,-0.04450387832685188,-41.378582455790294,-129.97078188553854,-6.776309776380446,-0.2247,-0.3533,-0.9062,-0.0591
28,1588256.0,1546.152777,1.0,-3.35,2.49,-8.86,26.87,27.25,4.19,-0.75,-1.19,0.06,-0.27589585163848385,-0.07108950457093678,0.016806908234507034,-41.378582455790294,-129.97078188553854,-6.7992683543101915,-0.2247,-0.3533,-0.9062,-0.0593
29,1588256.0,1546.152777,1.0,-3.35,2.49,-8.86,26.87,27.25,4.19,-0.75,-1.19,0.06,-0.27589585163848385,-0.07108950457093678,0.016806908234507034,-41.378582455790294,-129.97078188553854,-6.7992683543101915,-0.2247,-0.3533,-0.9062,-0.0593
30,1588293.0,1546.165451,1.0,-3.56,2.47,-8.61,27.19,28.0,4.56,0.63,-4.38,-1.12,-0.05710762395921129,0.08154056210820437,0.16835710882799582,-41.35408524581363,-129.9166096140095,-6.7533514707706495,-0.2258,-0.3531,-0.9059999999999999,-0.0589
31,1588293.0,1546.165451,1.0,-3.56,2.47,-8.61,27.19,28.0,4.56,0.63,-4.38,-1.12,-0.05710762395921129,0.08154056210820437,0.16835710882799582,-41.35408524581363,-129.9166096140095,-6.7533514707706495,-0.2258,-0.3531,-0.9059999999999999,-0.0589
32,1588328.0,1546.177809,1.0,-3.52,2.4,-8.77,26.87,27.25,4.5,1.69,-0.81,0.69,-0.2009188967939371,0.09023976260614863,0.05909705671439092,-41.378582455790294,-129.88954402446632,-6.707435672786218,-0.2261,-0.3533,-0.9059,-0.0585
33,1588328.0,1546.177809,1.0,-3.52,2.4,-8.77,26.87,27.25,4.5,1.69,-0.81,0.69,-0.2009188967939371,0.09023976260614863,0.05909705671439092,-41.378582455790294,-129.88954402446632,-6.707435672786218,-0.2261,-0.3533,-0.9059,-0.0585
34,1588363.0,1546.216764,1.0,-3.62,2.38,-8.67,26.87,27.25,4.5,1.37,0.63,1.88,-0.09834478521153027,0.17039296378426672,0.11650064402439142,-41.41533197987328,-129.86249210271768,-6.650042440520529,-0.226,-0.3536,-0.9058,-0.057999999999999996
35,1588363.0,1546.216764,1.0,-3.62,2.38,-8.67,26.87,27.25,4.5,1.37,0.63,1.88,-0.09834478521153027,0.17039296378426672,0.11650064402439142,-41.41533197987328,-129.86249210271768,-6.650042440520529,-0.226,-0.3536,-0.9058,-0.057999999999999996
36,1588398.0,1546.23301,1.0,-3.5,2.54,-8.92,26.87,28.0,4.5,0.5,6.06,3.75,-0.16096570036682445,-0.014173814529858888,-0.10505465390727052,-41.55011839728967,-129.86249210271768,-6.718914520918895,-0.2242,-0.3547,-0.9058,-0.0586
37,1588398.0,1546.23301,1.0,-3.5,2.54,-8.92,26.87,28.0,4.5,0.5,6.06,3.75,-0.16096570036682445,-0.014173814529858888,-0.10505465390727052,-41.55011839728967,-129.86249210271768,-6.718914520918895,-0.2242,-0.3547,-0.9058,-0.0586
38,1588432.0,1546.337225,1.0,-3.12,2.45,-8.86,26.87,26.87,5.75,-1.69,10.31,6.44,-0.3945751454768908,-0.16445420430465596,0.1085179494833426,-41.69722676024061,-129.88954402446632,-6.7992683543101915,-0.2217,-0.3559,-0.9059,-0.0593
39,1588432.0,1546.337225,1.0,-3.12,2.45,-8.86,26.87,26.87,5.75,-1.69,10.31,6.44,-0.3945751454768908,-0.16445420430465596,0.1085179494833426,-41.69722676024061,-129.88954402446632,-6.7992683543101915,-0.2217,-0.3559,-0.9059,-0.0593
40,1588469.0,1546.342442,1.0,-3.09,2.65,-8.67,26.5,27.25,4.5,1.19,12.31,5.81,-0.14889823762070512,-0.25537346093143803,0.2331389559636836,-41.89348323735908,-129.9436888935972,-7.028869316139517,-0.2178,-0.3575,-0.9061,-0.0613
41,1588469.0,1546.342442,1.0,-3.09,2.65,-8.67,26.5,27.25,4.5,1.19,12.31,5.81,-0.14889823762070512,-0.25537346093143803,0.2331389559636836,-41.89348323735908,-129.9436888935972,-7.028869316139517,-0.2178,-0.3575,-0.9061,-0.0613
42,1588504.0,1546.3522460000002,1.0,-3.55,1.92,-7.74,26.5,27.25,4.5,2.31,38.25,11.56,0.2121779177547064,0.7212365921943165,1.110024314753035,-42.163546289132256,-130.16081866157813,-7.269980754447582,-0.2104,-0.3597,-0.9069,-0.0634
43,1588504.0,1546.3522460000002,1.0,-3.55,1.92,-7.74,26.5,27.25,4.5,2.31,38.25,11.56,0.2121779177547064,0.7212365921943165,1.110024314753035,-42.163546289132256,-130.16081866157813,-7.269980754447582,-0.2104,-0.3597,-0.9069,-0.0634
44,1588539.0,1546.354901,1.0,-3.38,1.77,-7.06,25.69,26.87,5.38,-7.75,93.31,24.44,0.5719924051994371,1.0431469452394833,1.8703051776632276,-42.63059851955768,-130.84513444406196,-8.579461739762628,-0.1879,-0.3635,-0.9094,-0.0748
45,1588539.0,1546.354901,1.0,-3.38,1.77,-7.06,25.69,26.87,5.38,-7.75,93.31,24.44,0.5719924051994371,1.0431469452394833,1.8703051776632276,-42.63059851955768,-130.84513444406196,-8.579461739762628,-0.1879,-0.3635,-0.9094,-0.0748
46,1588576.0,1546.43446,1.0,-0.86,3.44,-11.81,25.0,27.25,8.19,-18.25,45.81,18.69,-1.6651445131856657,-1.521678614792192,-2.316100840609229,-43.049117635330035,-131.0660093808112,-9.786552516199244,-0.1721,-0.3669,-0.9102,-0.0853
47,1588576.0,1546.43446,1.0,-0.86,3.44,-11.81,25.0,27.25,8.19,-18.25,45.81,18.69,-1.6651445131856657,-1.521678614792192,-2.316100840609229,-43.049117635330035,-131.0660093808112,-9.786552516199244,-0.1721,-0.3669,-0.9102,-0.0853
48,1588609.0,1546.442749,1.0,-2.28,2.52,-8.93,25.0,27.25,8.19,11.38,14.56,11.94,-0.1312370662435658,0.0972026620107147,0.2532721431923992,-43.44356934572808,-130.95545525843715,-9.844059122531188,-0.1672,-0.3701,-0.9098,-0.0858
49,1588609.0,1546.442749,1.0,-2.28,2.52,-8.93,25.0,27.25,8.19,11.38,14.56,11.94,-0.1312370662435658,0.0972026620107147,0.2532721431923992,-43.44356934572808,-130.95545525843715,-9.844059122531188,-0.1672,-0.3701,-0.9098,-0.0858
50,1588645.0,1546.496528,1.0,-2.28,2.88,-8.28,23.06,25.0,9.0,-26.44,36.0,13.81,0.3777635215754853,-0.01888873157358395,0.7563385170958643,-43.65334169783373,-130.81759051018483,-10.68394626499923,-0.162,-0.3718,-0.9093,-0.0931
51,1588645.0,1546.496528,1.0,-2.28,2.88,-8.28,23.06,25.0,9.0,-26.44,36.0,13.81,0.3777635215754853,-0.01888873157358395,0.7563385170958643,-43.65334169783373,-130.81759051018483,-10.68394626499923,-0.162,-0.3718,-0.9093,-0.0931
52,1588682.0,1546.513915,1.0,-1.68,2.65,-8.87,23.06,26.19,9.06,-12.38,63.44,23.19,-0.20996943334441592,0.08363145993012244,0.4007625556399024,-44.07334918943469,-130.76254599505174,-12.146519858742266,-0.1467,-0.3752,-0.9091,-0.1058
53,1588682.0,1546.513915,1.0,-1.68,2.65,-8.87,23.06,26.19,9.06,-12.38,63.44,23.19,-0.20996943334441592,0.08363145993012244,0.4007625556399024,-44.07334918943469,-130.76254599505174,-12.146519858742266,-0.1467,-0.3752,-0.9091,-0.1058
54,1588717.0,1546.596361,1.0,-0.64,4.0,-10.1,23.06,26.19,9.06,-19.12,28.56,13.63,-0.3418507993280654,-1.2315865190158397,-1.0001040305670514,-44.39495201253494,-130.57034285366944,-13.195714475135588,-0.1372,-0.3778,-0.9084,-0.1149
55,1588717.0,1546.596361,1.0,-0.64,4.0,-10.1,23.06,26.19,9.06,-19.12,28.56,13.63,-0.3418507993280654,-1.2315865190158397,-1.0001040305670514,-44.39495201253494,-130.57034285366944,-13.195714475135588,-0.1372,-0.3778,-0.9084,-0.1149
56,1588752.0,1546.6017769999999,1.0,-1.91,1.74,-7.92,22.0,24.25,10.25,2.94,47.31,17.87,-0.09496852201972572,1.1235539563209902,1.5525172480350269,-44.74170597311218,-130.54294242265092,-13.564921674838883,-0.1271,-0.3806,-0.9083,-0.1181
57,1588752.0,1546.6017769999999,1.0,-1.91,1.74,-7.92,22.0,24.25,10.25,2.94,47.31,17.87,-0.09496852201972572,1.1235539563209902,1.5525172480350269,-44.74170597311218,-130.54294242265092,-13.564921674838883,-0.1271,-0.3806,-0.9083,-0.1181
58,1588787.0,1546.613645,1.0,-1.53,2.49,-7.68,19.69,23.19,12.0,-39.63,94.0,32.31,0.4446450684058896,0.8002995193540756,1.6405486387343962,-45.23782004339508,-130.052143359472,-16.13041264048083,-0.1031,-0.3846,-0.9065,-0.1403
59,1588787.0,1546.613645,1.0,-1.53,2.49,-7.68,19.69,23.19,12.0,-39.63,94.0,32.31,0.4446450684058896,0.8002995193540756,1.6405486387343962,-45.23782004339508,-130.052143359472,-16.13041264048083,-0.1031,-0.3846,-0.9065,-0.1403
60,1588824.0,1546.660707,1.0,1.78,3.75,-11.3,19.5,22.75,13.25,-52.0,149.69,46.38,-1.6468300125724826,-0.9537181600386492,-2.080287056319557,-45.64778844933024,-129.27076347961943,-19.145524872704485,-0.0735,-0.3879,-0.9036,-0.1663
61,1588824.0,1546.660707,1.0,1.78,3.75,-11.3,19.5,22.75,13.25,-52.0,149.69,46.38,-1.6468300125724826,-0.9537181600386492,-2.080287056319557,-45.64778844933024,-129.27076347961943,-19.145524872704485,-0.0735,-0.3879,-0.9036,-0.1663
62,1588858.0,1546.731496,1.0,2.62,5.91,-11.31,19.5,22.75,13.25,-32.81,27.12,11.44,-0.6474200010789428,-2.3696182392615284,-2.9868779240075916,-45.971228872033386,-128.2635811405088,-21.33392533931821,-0.0605,-0.3905,-0.8998,-0.1851
63,1588858.0,1546.731496,1.0,2.62,5.91,-11.31,19.5,22.75,13.25,-32.81,27.12,11.44,-0.6474200010789428,-2.3696182392615284,-2.9868779240075916,-45.971228872033386,-128.2635811405088,-21.33392533931821,-0.0605,-0.3905,-0.8998,-0.1851
64,1588893.0,1546.7864869999999,1.0,-0.42,1.82,-7.77,14.25,20.19,16.19,10.56,-9.06,8.13,-0.4347812985384341,1.2768127389691184,1.9299492660602235,-46.24521189671154,-128.31613447366578,-20.56480245757989,-0.0628,-0.3927,-0.9,-0.1785
65,1588893.0,1546.7864869999999,1.0,-0.42,1.82,-7.77,14.25,20.19,16.19,10.56,-9.06,8.13,-0.4347812985384341,1.2768127389691184,1.9299492660602235,-46.24521189671154,-128.31613447366578,-20.56480245757989,-0.0628,-0.3927,-0.9,-0.1785
66,1588930.0,1546.8019060000001,1.0,-0.02,3.76,-7.34,14.25,20.25,15.69,-29.06,59.38,20.69,0.7649009970318194,-0.07140413380254729,1.5954729884860208,-46.54442190080458,-127.40350962041992,-22.22079043012782,-0.0544,-0.3951,-0.8965,-0.1927
67,1588930.0,1546.8019060000001,1.0,-0.02,3.76,-7.34,14.25,20.25,15.69,-29.06,59.38,20.69,0.7649009970318194,-0.07140413380254729,1.5954729884860208,-46.54442190080458,-127.40350962041992,-22.22079043012782,-0.0544,-0.3951,-0.8965,-0.1927
68,1588965.0,1546.843998,1.0,3.04,3.94,-11.4,14.25,20.25,15.69,-16.94,110.25,38.25,-1.8642493441815804,-0.6874244545767518,-2.472487673386043,-46.84396830154976,-126.70941436503277,-23.670706029265663,-0.0333,-0.3975,-0.8938,-0.2051
69,1588965.0,1546.843998,1.0,3.04,3.94,-11.4,14.25,20.25,15.69,-16.94,110.25,38.25,-1.8642493441815804,-0.6874244545767518,-2.472487673386043,-46.84396830154976,-126.70941436503277,-23.670706029265663,-0.0333,-0.3975,-0.8938,-0.2051
70,1589000.0,1546.92973,1.0,3.66,5.69,-12.43,13.06,18.37,16.69,-1.25,-18.37,-4.06,-1.1896836837872278,-1.4317836469329237,-4.222293236071131,-47.05635227559625,-125.89747938631321,-25.00708778933191,-0.0243,-0.3992,-0.8906,-0.2165
71,1589000.0,1546.92973,1.0,3.66,5.69,-12.43,13.06,18.37,16.69,-1.25,-18.37,-4.06,-1.1896836837872278,-1.4317836469329237,-4.222293236071131,-47.05635227559625,-125.89747938631321,-25.00708778933191,-0.0243,-0.3992,-0.8906,-0.2165
72,1589037.0,1546.942618,1.0,0.29,3.28,-7.99,9.88,17.69,19.25,-14.75,15.75,8.13,0.3617913135937165,0.8480609649195747,1.2140660088371682,-47.15635695640368,-125.62096841990898,-25.382826336621637,-0.0237,-0.4,-0.8895,-0.2197
73,1589037.0,1546.942618,1.0,0.29,3.28,-7.99,9.88,17.69,19.25,-14.75,15.75,8.13,0.3617913135937165,0.8480609649195747,1.2140660088371682,-47.15635695640368,-125.62096841990898,-25.382826336621637,-0.0237,-0.4,-0.8895,-0.2197
74,1589073.0,1546.981405,1.0,0.74,5.15,-7.35,9.5,17.0,18.75,-13.0,63.94,16.94,1.5662959513064711,-0.5298197488456142,0.9546102335589256,-47.14385428992954,-124.87336158426493,-26.87682214392707,-0.013999999999999999,-0.3999,-0.8865,-0.2324
75,1589073.0,1546.981405,1.0,0.74,5.15,-7.35,9.5,17.0,18.75,-13.0,63.94,16.94,1.5662959513064711,-0.5298197488456142,0.9546102335589256,-47.14385428992954,-124.87336158426493,-26.87682214392707,-0.013999999999999999,-0.3999,-0.8865,-0.2324
76,1589106.0,1547.004215,1.0,3.59,5.24,-12.02,9.5,17.0,18.75,-18.25,41.25,9.19,-1.0765819423407423,-0.3366183676115244,-3.741551334347388,-47.131352218600796,-124.25742213626366,-28.068278987313843,-0.0003,-0.3998,-0.884,-0.2425
77,1589106.0,1547.004215,1.0,3.59,5.24,-12.02,9.5,17.0,18.75,-18.25,41.25,9.19,-1.0765819423407423,-0.3366183676115244,-3.741551334347388,-47.131352218600796,-124.25742213626366,-28.068278987313843,-0.0003,-0.3998,-0.884,-0.2425
78,1589143.0,1547.044725,1.0,1.27,3.91,-9.08,8.69,15.88,19.75,1.69,8.5,3.19,0.15751715125066926,0.7964122503023099,-0.12754930717268387,-47.131352218600796,-124.25742213626366,-28.032845198788678,0.0009,-0.3998,-0.884,-0.2422
79,1589143.0,1547.044725,1.0,1.27,3.91,-9.08,8.69,15.88,19.75,1.69,8.5,3.19,0.15751715125066926,0.7964122503023099,-0.12754930717268387,-47.131352218600796,-124.25742213626366,-28.032845198788678,0.0009,-0.3998,-0.884,-0.2422
80,1589180.0,1547.051091,1.0,1.61,4.41,-9.08,7.56,15.5,20.37,-16.19,28.5,7.94,0.33879677733051794,0.4715498462312273,-0.3987141525518165,-47.11885074218369,-123.76914279530571,-28.90768703373302,0.0075,-0.3997,-0.882,-0.2496
81,1589180.0,1547.051091,1.0,1.61,4.41,-9.08,7.56,15.5,20.37,-16.19,28.5,7.94,0.33879677733051794,0.4715498462312273,-0.3987141525518165,-47.11885074218369,-123.76914279530571,-28.90768703373302,0.0075,-0.3997,-0.882,-0.2496
82,1589213.0,1547.066942,1.0,3.29,4.4,-12.18,7.56,15.5,20.37,-5.06,41.75,16.5,-1.190964051288503,0.9256352526589989,-3.4696937740807767,-47.21887922414317,-123.28472684734406,-29.49976914452507,0.0179,-0.4005,-0.88,-0.2546
83,1589213.0,1547.066942,1.0,3.29,4.4,-12.18,7.56,15.5,20.37,-5.06,41.75,16.5,-1.190964051288503,0.9256352526589989,-3.4696937740807767,-47.21887922414317,-123.28472684734406,-29.49976914452507,0.0179,-0.4005,-0.88,-0.2546
84,1589248.0,1547.069602,1.0,2.61,4.98,-10.56,6.25,16.37,20.19,-2.19,-38.44,-3.0,-0.15457154293372855,0.2454428648560132,-2.1533652775072323,-47.50667419847937,-123.14014055583445,-29.36944254732168,0.0112,-0.4028,-0.8794,-0.2535
85,1589248.0,1547.069602,1.0,2.61,4.98,-10.56,6.25,16.37,20.19,-2.19,-38.44,-3.0,-0.15457154293372855,0.2454428648560132,-2.1533652775072323,-47.50667419847937,-123.14014055583445,-29.36944254732168,0.0112,-0.4028,-0.8794,-0.2535
86,1589284.0,1547.1038939999999,1.0,1.97,3.92,-9.14,5.06,14.06,21.5,0.12,-49.44,2.88,-0.3519947306706671,0.4279158775423471,-0.3165850417901144,-47.95777627551156,-123.16421485435569,-28.65924846946876,0.0002,-0.4064,-0.8795,-0.2475
87,1589284.0,1547.1038939999999,1.0,1.97,3.92,-9.14,5.06,14.06,21.5,0.12,-49.44,2.88,-0.3519947306706671,0.4279158775423471,-0.3165850417901144,-47.95777627551156,-123.16421485435569,-28.65924846946876,0.0002,-0.4064,-0.8795,-0.2475
88,1589319.0,1547.158267,1.0,2.93,4.56,-10.4,7.25,14.88,20.87,-6.25,-69.25,5.13,-1.0909797262126153,-0.4024086081466178,-1.8632399116093892,-48.837194409972604,-122.7801400993836,-27.855717200127586,-0.0198,-0.4134,-0.8779,-0.2407
89,1589319.0,1547.158267,1.0,2.93,4.56,-10.4,7.25,14.88,20.87,-6.25,-69.25,5.13,-1.0909797262126153,-0.4024086081466178,-1.8632399116093892,-48.837194409972604,-122.7801400993836,-27.855717200127586,-0.0198,-0.4134,-0.8779,-0.2407
90,1589354.0,1547.215883,1.0,1.56,4.92,-9.53,7.25,14.88,20.87,-20.06,-126.19,-4.25,-0.1646234670424242,-0.3128630450907468,-1.0255204117464631,-49.65654846766405,-122.25585789752888,-27.03000922772236,-0.0479,-0.4199,-0.8757,-0.2337
91,1589354.0,1547.215883,1.0,1.56,4.92,-9.53,7.25,14.88,20.87,-20.06,-126.19,-4.25,-0.1646234670424242,-0.3128630450907468,-1.0255204117464631,-49.65654846766405,-122.25585789752888,-27.03000922772236,-0.0479,-0.4199,-0.8757,-0.2337
92,1589391.0,1547.235206,1.0,0.01,4.14,-7.32,10.0,14.06,20.06,-13.44,-101.12,-1.12,0.4529932958441712,0.05741606524212318,1.4094123310178739,-50.64336935396991,-121.45404882910117,-25.523799625853453,-0.0854,-0.4277,-0.8723,-0.2209
93,1589391.0,1547.235206,1.0,0.01,4.14,-7.32,10.0,14.06,20.06,-13.44,-101.12,-1.12,0.4529932958441712,0.05741606524212318,1.4094123310178739,-50.64336935396991,-121.45404882910117,-25.523799625853453,-0.0854,-0.4277,-0.8723,-0.2209
94,1589426.0,1547.2895130000002,1.0,1.34,5.53,-9.45,14.06,14.88,15.69,-9.63,-95.81,0.31,-0.4280156421764719,-1.3481841149551248,-1.133103297137687,-51.23993373594613,-120.66212588661213,-24.9131959920262,-0.107,-0.4324,-0.8689,-0.2157
95,1589426.0,1547.2895130000002,1.0,1.34,5.53,-9.45,14.06,14.88,15.69,-9.63,-95.81,0.31,-0.4280156421764719,-1.3481841149551248,-1.133103297137687,-51.23993373594613,-120.66212588661213,-24.9131959920262,-0.107,-0.4324,-0.8689,-0.2157
96,1589460.0,1547.365476,1.0,0.1,4.44,-8.3,14.06,14.88,15.69,7.75,-114.94,-7.81,-0.3717673849504928,-0.6476374973537673,0.4228365596385384,-52.08018919976154,-119.85682289966009,-22.75822922439662,-0.1396,-0.439,-0.8654,-0.1973
97,1589460.0,1547.365476,1.0,0.1,4.44,-8.3,14.06,14.88,15.69,7.75,-114.94,-7.81,-0.3717673849504928,-0.6476374973537673,0.4228365596385384,-52.08018919976154,-119.85682289966009,-22.75822922439662,-0.1396,-0.439,-0.8654,-0.1973
98,1589495.0,1547.418686,1.0,-1.43,4.01,-7.32,17.19,13.75,14.06,-20.62,-72.25,2.44,0.3609946247262665,0.3740570418609717,1.3545991121767962,-52.578118912593965,-118.99341650256764,-21.81220160634161,-0.1605,-0.4429,-0.8616,-0.1892
99,1589495.0,1547.418686,1.0,-1.43,4.01,-7.32,17.19,13.75,14.06,-20.62,-72.25,2.44,0.3609946247262665,0.3740570418609717,1.3545991121767962,-52.578118912593965,-118.99341650256764,-21.81220160634161,-0.1605,-0.4429,-0.8616,-0.1892
100,1589532.0,1547.4731570000001,1.0,-1.02,5.23,-7.78,20.5,14.06,12.56,-30.25,-38.0,10.69,0.487026107083291,-0.5979745138787314,0.4084090980135624,-53.02589040849175,-117.69645604638977,-22.09234622296079,-0.17800000000000002,-0.4464,-0.8558,-0.1916
101,1589532.0,1547.4731570000001,1.0,-1.02,5.23,-7.78,20.5,14.06,12.56,-30.25,-38.0,10.69,0.487026107083291,-0.5979745138787314,0.4084090980135624,-53.02589040849175,-117.69645604638977,-22.09234622296079,-0.17800000000000002,-0.4464,-0.8558,-0.1916
102,1589569.0,1547.492076,1.0,-1.24,5.04,-7.97,20.5,14.06,12.56,-15.25,-30.06,2.44,0.21845074471646486,-0.3112080086655862,0.3032017391067328,-53.25651268144825,-116.96926663704076,-22.290862814695288,-0.1871,-0.4482,-0.8525,-0.1933
103,1589569.0,1547.492076,1.0,-1.24,5.04,-7.97,20.5,14.06,12.56,-15.25,-30.06,2.44,0.21845074471646486,-0.3112080086655862,0.3032017391067328,-53.25651268144825,-116.96926663704076,-22.290862814695288,-0.1871,-0.4482,-0.8525,-0.1933
104,1589602.0,1547.494932,1.0,-1.55,4.52,-7.59,21.37,13.5,12.0,-0.88,-25.94,-6.69,0.09071739334123097,0.051682037470510256,0.8383670360459607,-53.3975630858556,-116.53218769347627,-21.940584737009786,-0.1962,-0.4493,-0.8505,-0.1903
105,1589602.0,1547.494932,1.0,-1.55,4.52,-7.59,21.37,13.5,12.0,-0.88,-25.94,-6.69,0.09071739334123097,0.051682037470510256,0.8383670360459607,-53.3975630858556,-116.53218769347627,-21.940584737009786,-0.1962,-0.4493,-0.8505,-0.1903
106,1589639.0,1547.532092,1.0,-1.47,4.65,-7.8,22.87,13.06,10.5,-10.31,-10.38,4.31,-0.0662986880145745,-0.06274435042804828,0.608005119885485,-53.513032931572866,-116.09778802155995,-22.11569761985897,-0.2015,-0.4502,-0.8485,-0.1918
107,1589639.0,1547.532092,1.0,-1.47,4.65,-7.8,22.87,13.06,10.5,-10.31,-10.38,4.31,-0.0662986880145745,-0.06274435042804828,0.608005119885485,-53.513032931572866,-116.09778802155995,-22.11569761985897,-0.2015,-0.4502,-0.8485,-0.1918
108,1589673.0,1547.540368,1.0,-1.55,5.09,-7.84,23.0,12.5,9.38,-9.38,-16.0,2.25,0.1856916187104908,-0.2174457839770474,0.3359353514757757,-53.60288337963247,-115.77371350268422,-22.279183498407725,-0.205,-0.4509,-0.847,-0.1932
109,1589673.0,1547.540368,1.0,-1.55,5.09,-7.84,23.0,12.5,9.38,-9.38,-16.0,2.25,0.1856916187104908,-0.2174457839770474,0.3359353514757757,-53.60288337963247,-115.77371350268422,-22.279183498407725,-0.205,-0.4509,-0.847,-0.1932
110,1589708.0,1547.5534089999999,1.0,-2.0,4.98,-7.2,23.0,12.5,9.38,-5.75,-10.25,-0.37,0.6043976343708687,0.09753602585914,0.8475434472668244,-53.654242471908226,-115.49402564842946,-22.25582556887037,-0.2094,-0.4513,-0.8457,-0.193
111,1589708.0,1547.5534089999999,1.0,-2.0,4.98,-7.2,23.0,12.5,9.38,-5.75,-10.25,-0.37,0.6043976343708687,0.09753602585914,0.8475434472668244,-53.654242471908226,-115.49402564842946,-22.25582556887037,-0.2094,-0.4513,-0.8457,-0.193
112,1589745.0,1547.598894,1.0,-1.89,4.26,-7.77,23.69,13.19,10.38,-2.63,13.75,2.88,-0.2327433246307013,0.4934619805428597,0.7625952777750964,-53.60288337963247,-115.5369840524082,-22.454397929674286,-0.2078,-0.4509,-0.8459,-0.1947
113,1589745.0,1547.598894,1.0,-1.89,4.26,-7.77,23.69,13.19,10.38,-2.63,13.75,2.88,-0.2327433246307013,0.4934619805428597,0.7625952777750964,-53.60288337963247,-115.5369840524082,-22.454397929674286,-0.2078,-0.4509,-0.8459,-0.1947
114,1589782.0,1547.619016,1.0,-1.34,4.98,-8.68,23.06,12.56,10.88,-17.56,21.94,8.88,-0.5020195358167132,-0.04400856603131187,-0.2772202704752349,-53.60288337963247,-115.38674111389929,-23.331277218076693,-0.2037,-0.4509,-0.8452,-0.2022
115,1589782.0,1547.619016,1.0,-1.34,4.98,-8.68,23.06,12.56,10.88,-17.56,21.94,8.88,-0.5020195358167132,-0.04400856603131187,-0.2772202704752349,-53.60288337963247,-115.38674111389929,-23.331277218076693,-0.2037,-0.4509,-0.8452,-0.2022
116,1589817.0,1547.6659220000001,1.0,-1.4,5.47,-8.54,23.06,12.56,10.88,-2.75,-7.44,-1.19,-0.10097140892372893,-0.2255517427685816,-0.42816466299776396,-53.60288337963247,-115.23680905302649,-23.62387580431868,-0.2043,-0.4509,-0.8445,-0.2047
117,1589817.0,1547.6659220000001,1.0,-1.4,5.47,-8.54,23.06,12.56,10.88,-2.75,-7.44,-1.19,-0.10097140892372893,-0.2255517427685816,-0.42816466299776396,-53.60288337963247,-115.23680905302649,-23.62387580431868,-0.2043,-0.4509,-0.8445,-0.2047
118,1589850.0,1547.677746,1.0,-1.66,4.77,-7.86,23.06,12.19,10.88,6.0,-4.44,-1.25,-0.07668770486648291,0.19107479434487296,0.4661088262302275,-53.64140160793269,-115.27961518989136,-23.31957649574687,-0.2054,-0.4512,-0.8447,-0.2021
119,1589850.0,1547.677746,1.0,-1.66,4.77,-7.86,23.06,12.19,10.88,6.0,-4.44,-1.25,-0.07668770486648291,0.19107479434487296,0.4661088262302275,-53.64140160793269,-115.27961518989136,-23.31957649574687,-0.2054,-0.4512,-0.8447,-0.2021
120,1589884.0,1547.7216939999998,1.0,-1.04,5.47,-9.13,22.69,11.75,10.56,-0.94,1.31,-0.56,-0.5851986371178124,-0.4717555746755321,-0.8607953002055755,-53.61572206207956,-115.27961518989136,-23.41318918903326,-0.2047,-0.451,-0.8447,-0.2029
121,1589884.0,1547.7216939999998,1.0,-1.04,5.47,-9.13,22.69,11.75,10.56,-0.94,1.31,-0.56,-0.5851986371178124,-0.4717555746755321,-0.8607953002055755,-53.61572206207956,-115.27961518989136,-23.41318918903326,-0.2047,-0.451,-0.8447,-0.2029
122,1589921.0,1547.739758,1.0,-1.6,4.93,-8.16,23.37,12.19,10.19,15.25,-19.12,-5.19,-0.15140969419381434,0.013682852936145018,0.14086560947898796,-53.654242471908226,-115.36530326577595,-22.804986838376163,-0.2075,-0.4513,-0.8451,-0.1977
123,1589921.0,1547.739758,1.0,-1.6,4.93,-8.16,23.37,12.19,10.19,15.25,-19.12,-5.19,-0.15140969419381434,0.013682852936145018,0.14086560947898796,-53.654242471908226,-115.36530326577595,-22.804986838376163,-0.2075,-0.4513,-0.8451,-0.1977
124,1589956.0,1547.8474939999999,1.0,-1.57,5.01,-7.93,23.37,12.19,10.19,0.0,-3.5,-1.75,0.011117637339674302,-0.14034920902325745,0.2971769074639834,-53.67992638338189,-115.40818530642284,-22.501130743263236,-0.2089,-0.4515,-0.8453,-0.1951
125,1589956.0,1547.8474939999999,1.0,-1.57,5.01,-7.93,23.37,12.19,10.19,0.0,-3.5,-1.75,0.011117637339674302,-0.14034920902325745,0.2971769074639834,-53.67992638338189,-115.40818530642284,-22.501130743263236,-0.2089,-0.4515,-0.8453,-0.1951
126,1589993.0,1547.857617,1.0,-1.39,5.19,-9.22,24.19,12.56,10.19,8.56,-2.94,-3.06,-0.6389048976168137,-0.20960158932777206,-0.8434423801417097,-53.61572206207956,-115.472556014324,-22.477763863075143,-0.2089,-0.451,-0.8456,-0.1949
127,1589993.0,1547.857617,1.0,-1.39,5.19,-9.22,24.19,12.56,10.19,8.56,-2.94,-3.06,-0.6389048976168137,-0.20960158932777206,-0.8434423801417097,-53.61572206207956,-115.472556014324,-22.477763863075143,-0.2089,-0.451,-0.8456,-0.1949
128,1590028.0,1547.911283,1.0,-1.58,4.7,-8.66,23.75,12.88,10.19,10.25,-18.62,-7.69,-0.574210119596202,0.030951186134169806,-0.15584591029427666,-53.59004542379221,-115.57996801372805,-21.975603150496873,-0.2109,-0.4508,-0.8461,-0.1906
129,1590028.0,1547.911283,1.0,-1.58,4.7,-8.66,23.75,12.88,10.19,10.25,-18.62,-7.69,-0.574210119596202,0.030951186134169806,-0.15584591029427666,-53.59004542379221,-115.57996801372805,-21.975603150496873,-0.2109,-0.4508,-0.8461,-0.1906
130,1590063.0,1547.914203,1.0,-1.99,5.04,-7.54,23.75,12.88,10.19,6.13,-22.06,-5.69,0.4078405888598535,-0.0904364798454962,0.5309404693391997,-53.628561471418074,-115.49402564842946,-21.275624852029367,-0.2172,-0.4511,-0.8457,-0.1846
131,1590063.0,1547.914203,1.0,-1.99,5.04,-7.54,23.75,12.88,10.19,6.13,-22.06,-5.69,0.4078405888598535,-0.0904364798454962,0.5309404693391997,-53.628561471418074,-115.49402564842946,-21.275624852029367,-0.2172,-0.4511,-0.8457,-0.1846
132,1590097.0,1547.960599,1.0,-1.79,4.86,-8.36,24.56,12.88,10.56,-4.75,-4.25,-2.69,-0.2803944348971461,-0.12519485063338065,-0.022846691603980673,-53.59004542379221,-115.472556014324,-21.054133663315955,-0.2198,-0.4508,-0.8456,-0.1827
133,1590097.0,1547.960599,1.0,-1.79,4.86,-8.36,24.56,12.88,10.56,-4.75,-4.25,-2.69,-0.2803944348971461,-0.12519485063338065,-0.022846691603980673,-53.59004542379221,-115.472556014324,-21.054133663315955,-0.2198,-0.4508,-0.8456,-0.1827
134,1590134.0,1548.014886,1.0,-1.82,4.93,-8.52,24.87,13.25,10.19,3.69,-6.38,-2.5,-0.3181134243059285,-0.14705596980496916,-0.19759301939037502,-53.56437169079451,-115.472556014324,-20.94924459772563,-0.2211,-0.4506,-0.8456,-0.1818
135,1590134.0,1548.014886,1.0,-1.82,4.93,-8.52,24.87,13.25,10.19,3.69,-6.38,-2.5,-0.3181134243059285,-0.14705596980496916,-0.19759301939037502,-53.56437169079451,-115.472556014324,-20.94924459772563,-0.2211,-0.4506,-0.8456,-0.1818
136,1590169.0,1548.0729939999999,1.0,-2.22,4.61,-7.81,24.87,13.25,10.19,5.31,-12.31,-3.81,0.036193287569469164,0.22746433063321006,0.4726503201079702,-53.56437169079451,-115.472556014324,-20.657978898652157,-0.2229,-0.4506,-0.8456,-0.1793
137,1590169.0,1548.0729939999999,1.0,-2.22,4.61,-7.81,24.87,13.25,10.19,5.31,-12.31,-3.81,0.036193287569469164,0.22746433063321006,0.4726503201079702,-53.56437169079451,-115.472556014324,-20.657978898652157,-0.2229,-0.4506,-0.8456,-0.1793
138,1590204.0,1548.135975,1.0,-1.8,4.87,-8.79,25.69,13.69,8.25,-0.69,4.56,0.81,-0.5273643063648596,-0.18680363289302004,-0.386876930906217,-53.56437169079451,-115.472556014324,-20.55315637010219,-0.2237,-0.4506,-0.8456,-0.1784
139,1590204.0,1548.135975,1.0,-1.8,4.87,-8.79,25.69,13.69,8.25,-0.69,4.56,0.81,-0.5273643063648596,-0.18680363289302004,-0.386876930906217,-53.56437169079451,-115.472556014324,-20.55315637010219,-0.2237,-0.4506,-0.8456,-0.1784
140,1590239.0,1548.18704,1.0,-1.78,5.22,-8.79,26.06,12.88,8.25,-2.31,-6.44,-1.69,-0.32182698543699684,-0.4034193829277379,-0.5574505491515165,-53.538700860812206,-115.42963584973434,-20.54151049721856,-0.225,-0.4504,-0.8454,-0.1783
141,1590239.0,1548.18704,1.0,-1.78,5.22,-8.79,26.06,12.88,8.25,-2.31,-6.44,-1.69,-0.32182698543699684,-0.4034193829277379,-0.5574505491515165,-53.538700860812206,-115.42963584973434,-20.54151049721856,-0.225,-0.4504,-0.8454,-0.1783
142,1590276.0,1548.285952,1.0,-2.22,4.66,-8.86,26.06,13.69,9.06,6.19,-20.69,-3.75,-0.5493244114786837,0.17887833408009213,-0.4310179586979359,-53.57720819427434,-115.36530326577595,-20.122400879873982,-0.2283,-0.4507,-0.8451,-0.1747
143,1590276.0,1548.285952,1.0,-2.22,4.66,-8.86,26.06,13.69,9.06,6.19,-20.69,-3.75,-0.5493244114786837,0.17887833408009213,-0.4310179586979359,-53.57720819427434,-115.36530326577595,-20.122400879873982,-0.2283,-0.4507,-0.8451,-0.1747
144,1590308.0,1548.378309,1.0,-2.08,4.96,-9.03,26.06,13.69,9.06,3.06,-24.31,-3.56,-0.6019018476030504,-0.20501700902739728,-0.6845168651233191,-53.59004542379221,-115.0871856928756,-19.73845598070809,-0.2352,-0.4508,-0.8438,-0.1714
145,1590308.0,1548.378309,1.0,-2.08,4.96,-9.03,26.06,13.69,9.06,3.06,-24.31,-3.56,-0.6019018476030504,-0.20501700902739728,-0.6845168651233191,-53.59004542379221,-115.0871856928756,-19.73845598070809,-0.2352,-0.4508,-0.8438,-0.1714
146,1590345.0,1548.388924,1.0,-2.19,5.28,-8.9,24.56,14.06,7.75,6.5,-32.75,-8.06,-0.3243716554559461,-0.44233970682859214,-0.7566647549857493,-53.61572206207956,-114.91656280775707,-19.145524872704485,-0.2415,-0.451,-0.843,-0.1663
147,1590345.0,1548.388924,1.0,-2.19,5.28,-8.9,24.56,14.06,7.75,6.5,-32.75,-8.06,-0.3243716554559461,-0.44233970682859214,-0.7566647549857493,-53.61572206207956,-114.91656280775707,-19.145524872704485,-0.2415,-0.451,-0.843,-0.1663
148,1590382.0,1548.392053,1.0,-2.56,4.95,-8.08,26.75,14.06,7.88,5.94,-38.44,-11.75,-0.010021735941197818,-0.23762299268132514,-0.005889675239936665,-53.57720819427434,-114.68260427841713,-18.12363390787068,-0.2516,-0.4507,-0.8419,-0.1575
149,1590382.0,1548.392053,1.0,-2.56,4.95,-8.08,26.75,14.06,7.88,5.94,-38.44,-11.75,-0.010021735941197818,-0.23762299268132514,-0.005889675239936665,-53.57720819427434,-114.68260427841713,-18.12363390787068,-0.2516,-0.4507,-0.8419,-0.1575
150,1590415.0,1548.395041,1.0,-2.55,4.85,-8.6,26.75,14.06,7.88,9.75,-39.38,-12.44,-0.4335082740018765,-0.36548374076550827,-0.37487700785142586,-53.538700860812206,-114.5341088647508,-17.26544349477142,-0.2587,-0.4504,-0.8412,-0.1501
151,1590415.0,1548.395041,1.0,-2.55,4.85,-8.6,26.75,14.06,7.88,9.75,-39.38,-12.44,-0.4335082740018765,-0.36548374076550827,-0.37487700785142586,-53.538700860812206,-114.5341088647508,-17.26544349477142,-0.2587,-0.4504,-0.8412,-0.1501
152,1590450.0,1548.398271,1.0,-2.96,4.4,-8.31,27.87,14.38,6.69,13.44,-46.38,-13.19,-0.4978985003229708,-0.07180254538957342,-0.038381309135170134,-53.448875784329395,-114.21690781898718,-16.003112701402525,-0.2707,-0.4497,-0.8397,-0.1392
153,1590450.0,1548.398271,1.0,-2.96,4.4,-8.31,27.87,14.38,6.69,13.44,-46.38,-13.19,-0.4978985003229708,-0.07180254538957342,-0.038381309135170134,-53.448875784329395,-114.21690781898718,-16.003112701402525,-0.2707,-0.4497,-0.8397,-0.1392
154,1590487.0,1548.4879529999998,1.0,-3.46,4.4,-7.34,28.69,14.75,5.56,4.88,-45.94,-10.75,0.18303064977719696,0.17344713340560336,0.579320165581187,-53.35908614472047,-113.85904656766621,-15.239724647140953,-0.2803,-0.449,-0.838,-0.1326
155,1590487.0,1548.4879529999998,1.0,-3.46,4.4,-7.34,28.69,14.75,5.56,4.88,-45.94,-10.75,0.18303064977719696,0.17344713340560336,0.579320165581187,-53.35908614472047,-113.85904656766621,-15.239724647140953,-0.2803,-0.449,-0.838,-0.1326
156,1590521.0,1548.546503,1.0,-3.4,4.3,-7.48,28.69,14.5,4.75,3.06,-35.63,-9.88,-0.11142948644394456,-0.02837927348616454,0.5337228415247868,-53.24369423684897,-113.44021811063548,-14.38461134345722,-0.29100000000000004,-0.4481,-0.836,-0.1252
157,1590521.0,1548.546503,1.0,-3.4,4.3,-7.48,28.69,14.5,4.75,3.06,-35.63,-9.88,-0.11142948644394456,-0.02837927348616454,0.5337228415247868,-53.24369423684897,-113.44021811063548,-14.38461134345722,-0.29100000000000004,-0.4481,-0.836,-0.1252
158,1590556.0,1548.562479,1.0,-3.47,4.54,-7.86,28.69,14.5,4.75,0.5,-34.0,-9.5,-0.23290971801713975,-0.2609228601628741,0.09532813712789867,-53.153985232120654,-113.12762124009942,-13.8765501759761,-0.2981,-0.4474,-0.8345,-0.1208
159,1590556.0,1548.562479,1.0,-3.47,4.54,-7.86,28.69,14.5,4.75,0.5,-34.0,-9.5,-0.23290971801713975,-0.2609228601628741,0.09532813712789867,-53.153985232120654,-113.12762124009942,-13.8765501759761,-0.2981,-0.4474,-0.8345,-0.1208
160,1590593.0,1548.606089,1.0,-4.04,4.12,-6.69,30.5,15.69,2.5,15.94,-30.19,-9.81,0.3531658329540318,0.3153774262414761,0.9846371359507078,-53.089928878816565,-112.73350926918677,-12.803582439206053,-0.3075,-0.4469,-0.8326,-0.1115
161,1590593.0,1548.606089,1.0,-4.04,4.12,-6.69,30.5,15.69,2.5,15.94,-30.19,-9.81,0.3531658329540318,0.3153774262414761,0.9846371359507078,-53.089928878816565,-112.73350926918677,-12.803582439206053,-0.3075,-0.4469,-0.8326,-0.1115
162,1590628.0,1548.623278,1.0,-3.87,4.16,-7.05,31.19,16.0,1.69,-4.0,-13.31,-2.94,0.056835501767007975,0.03397945950834602,0.7523352759543176,-53.06431134668802,-112.56817591001142,-12.365495103087909,-0.3114,-0.4467,-0.8318,-0.1077
163,1590628.0,1548.623278,1.0,-3.87,4.16,-7.05,31.19,16.0,1.69,-4.0,-13.31,-2.94,0.056835501767007975,0.03397945950834602,0.7523352759543176,-53.06431134668802,-112.56817591001142,-12.365495103087909,-0.3114,-0.4467,-0.8318,-0.1077
164,1590661.0,1548.626533,1.0,-3.72,4.41,-7.72,31.19,16.0,1.69,-2.13,-17.25,-5.63,-0.32044575403628,-0.3786414552737769,0.1817424592976824,-52.89786697704349,-112.36201050539013,-12.146519858742266,-0.3165,-0.4454,-0.8308,-0.1058
165,1590661.0,1548.626533,1.0,-3.72,4.41,-7.72,31.19,16.0,1.69,-2.13,-17.25,-5.63,-0.32044575403628,-0.3786414552737769,0.1817424592976824,-52.89786697704349,-112.36201050539013,-12.146519858742266,-0.3165,-0.4454,-0.8308,-0.1058
166,1590697.0,1548.6629599999999,1.0,-4.36,3.97,-7.09,31.56,17.19,1.75,7.88,-16.62,-5.69,-0.0030819103571563256,0.3719342319502821,0.5925165394443024,-52.821087070408176,-112.21802358107666,-11.731740790019305,-0.3203,-0.4448,-0.8301,-0.1022
167,1590697.0,1548.6629599999999,1.0,-4.36,3.97,-7.09,31.56,17.19,1.75,7.88,-16.62,-5.69,-0.0030819103571563256,0.3719342319502821,0.5925165394443024,-52.821087070408176,-112.21802358107666,-11.731740790019305,-0.3203,-0.4448,-0.8301,-0.1022
168,1590734.0,1548.669608,1.0,-4.43,3.79,-7.03,30.87,17.19,1.06,-0.44,-5.88,-0.44,-0.0903272490337826,0.4852285399436236,0.6870944049007406,-52.7571233277472,-112.09482025042286,-11.501374957383893,-0.3231,-0.4443,-0.8295,-0.1002
169,1590734.0,1548.669608,1.0,-4.43,3.79,-7.03,30.87,17.19,1.06,-0.44,-5.88,-0.44,-0.0903272490337826,0.4852285399436236,0.6870944049007406,-52.7571233277472,-112.09482025042286,-11.501374957383893,-0.3231,-0.4443,-0.8295,-0.1002
170,1590769.0,1548.6855480000002,1.0,-4.27,3.87,-7.69,30.87,17.19,1.06,-0.69,0.12,0.0,-0.5156422477724595,0.22449285808065733,0.21344323536790635,-52.7571233277472,-112.09482025042286,-11.478340954533572,-0.3234,-0.4443,-0.8295,-0.1
171,1590769.0,1548.6855480000002,1.0,-4.27,3.87,-7.69,30.87,17.19,1.06,-0.69,0.12,0.0,-0.5156422477724595,0.22449285808065733,0.21344323536790635,-52.7571233277472,-112.09482025042286,-11.478340954533572,-0.3234,-0.4443,-0.8295,-0.1
172,1590804.0,1548.688801,1.0,-4.29,4.14,-7.64,31.56,17.5,0.69,-3.25,-7.69,2.13,-0.3365969550832205,0.07790701237306452,0.12192321050037158,-52.78270669863224,-111.91038320685794,-11.512892133606984,-0.3255,-0.4445,-0.8286,-0.1003
173,1590804.0,1548.688801,1.0,-4.29,4.14,-7.64,31.56,17.5,0.69,-3.25,-7.69,2.13,-0.3365969550832205,0.07790701237306452,0.12192321050037158,-52.78270669863224,-111.91038320685794,-11.512892133606984,-0.3255,-0.4445,-0.8286,-0.1003
174,1590839.0,1548.7247320000001,1.0,-4.48,4.09,-7.18,30.87,17.5,1.5,-0.31,-1.5,1.69,-0.02199993369112402,0.31163229428258976,0.41232717629004334,-52.83388194622903,-111.76723539379441,-11.501374957383893,-0.3263,-0.4449,-0.8279,-0.1002
175,1590839.0,1548.7247320000001,1.0,-4.48,4.09,-7.18,30.87,17.5,1.5,-0.31,-1.5,1.69,-0.02199993369112402,0.31163229428258976,0.41232717629004334,-52.83388194622903,-111.76723539379441,-11.501374957383893,-0.3263,-0.4449,-0.8279,-0.1002
176,1590876.0,1548.7316369999999,1.0,-4.25,4.17,-7.57,32.0,17.19,1.19,-5.88,3.88,5.38,-0.3119362571806064,0.0692089848442663,0.18094452518554327,-52.91066611549383,-111.70596708251541,-11.708702081111404,-0.3258,-0.4455,-0.8276,-0.102
177,1590876.0,1548.7316369999999,1.0,-4.25,4.17,-7.57,32.0,17.19,1.19,-5.88,3.88,5.38,-0.3119362571806064,0.0692089848442663,0.18094452518554327,-52.91066611549383,-111.70596708251541,-11.708702081111404,-0.3258,-0.4455,-0.8276,-0.102
178,1590908.0,1548.74836,1.0,-4.07,4.35,-7.77,32.0,17.19,1.19,0.88,3.13,4.25,-0.38612009044007023,-0.1739495288180346,0.02498588609879881,-53.038696673597066,-111.62435104940481,-11.835420883076136,-0.3251,-0.4465,-0.8272,-0.1031
179,1590908.0,1548.74836,1.0,-4.07,4.35,-7.77,32.0,17.19,1.19,0.88,3.13,4.25,-0.38612009044007023,-0.1739495288180346,0.02498588609879881,-53.038696673597066,-111.62435104940481,-11.835420883076136,-0.3251,-0.4465,-0.8272,-0.1031
180,1590945.0,1548.7888560000001,1.0,-4.37,4.57,-7.17,31.56,17.25,1.19,-0.5,0.31,1.44,0.2384899423004752,0.018350525919282656,0.249794564993147,-53.077119755232744,-111.5428205011455,-11.904546342091734,-0.3258,-0.4468,-0.8268,-0.1037
181,1590945.0,1548.7888560000001,1.0,-4.37,4.57,-7.17,31.56,17.25,1.19,-0.5,0.31,1.44,0.2384899423004752,0.018350525919282656,0.249794564993147,-53.077119755232744,-111.5428205011455,-11.904546342091734,-0.3258,-0.4468,-0.8268,-0.1037
182,1590980.0,1548.80843,1.0,-4.36,4.16,-7.63,31.56,16.87,0.75,1.37,3.75,2.0,-0.3140710609671433,0.2132454386968408,0.0913020519572747,-53.153985232120654,-111.5428205011455,-11.950632395319571,-0.3246,-0.4474,-0.8268,-0.1041
183,1590980.0,1548.80843,1.0,-4.36,4.16,-7.63,31.56,16.87,0.75,1.37,3.75,2.0,-0.3140710609671433,0.2132454386968408,0.0913020519572747,-53.153985232120654,-111.5428205011455,-11.950632395319571,-0.3246,-0.4474,-0.8268,-0.1041
184,1591015.0,1548.846486,1.0,-4.21,4.75,-7.36,31.56,16.87,0.75,-5.06,-3.69,1.56,0.1632981025405883,-0.20759890226498268,0.09138178828885657,-53.153985232120654,-111.42068428698192,-12.07737906844118,-0.3257,-0.4474,-0.8262,-0.1052
185,1591015.0,1548.846486,1.0,-4.21,4.75,-7.36,31.56,16.87,0.75,-5.06,-3.69,1.56,0.1632981025405883,-0.20759890226498268,0.09138178828885657,-53.153985232120654,-111.42068428698192,-12.07737906844118,-0.3257,-0.4474,-0.8262,-0.1052
186,1591050.0,1548.908967,1.0,-4.06,4.54,-7.87,31.56,16.5,1.19,-0.63,-2.56,-0.37,-0.3673151541845527,-0.2739108985526517,-0.13428317536942558,-53.19242764249977,-111.35968772291412,-12.054333120262198,-0.3263,-0.4477,-0.8259,-0.105
187,1591050.0,1548.908967,1.0,-4.06,4.54,-7.87,31.56,16.5,1.19,-0.63,-2.56,-0.37,-0.3673151541845527,-0.2739108985526517,-0.13428317536942558,-53.19242764249977,-111.35968772291412,-12.054333120262198,-0.3263,-0.4477,-0.8259,-0.105
188,1591087.0,1548.912834,1.0,-4.26,4.45,-7.26,32.38,16.87,0.88,-3.94,1.56,1.44,0.02280988249623384,0.0178460124168689,0.2852603309915249,-53.17961278851925,-111.31904975679159,-12.123472436717575,-0.3267,-0.4476,-0.8257,-0.1056
189,1591087.0,1548.912834,1.0,-4.26,4.45,-7.26,32.38,16.87,0.88,-3.94,1.56,1.44,0.02280988249623384,0.0178460124168689,0.2852603309915249,-53.17961278851925,-111.31904975679159,-12.123472436717575,-0.3267,-0.4476,-0.8257,-0.1056
190,1591121.0,1548.993475,1.0,-4.2,4.66,-7.34,32.38,16.87,0.88,-1.37,6.44,1.88,0.0957590745331709,-0.12708742144528795,0.15233081183582975,-53.20524321404206,-111.35968772291412,-12.296340166976414,-0.3256,-0.4478,-0.8259,-0.1071
191,1591121.0,1548.993475,1.0,-4.2,4.66,-7.34,32.38,16.87,0.88,-1.37,6.44,1.88,0.0957590745331709,-0.12708742144528795,0.15233081183582975,-53.20524321404206,-111.35968772291412,-12.296340166976414,-0.3256,-0.4478,-0.8259,-0.1071
192,1591156.0,1549.003627,1.0,-4.53,4.49,-6.81,31.56,16.5,0.37,-2.75,-8.19,-3.69,0.4235982337452611,0.279945322024969,0.4900360682625564,-53.14117252914141,-111.2987386824523,-12.261764386292771,-0.327,-0.4473,-0.8256,-0.1068
193,1591156.0,1549.003627,1.0,-4.53,4.49,-6.81,31.56,16.5,0.37,-2.75,-8.19,-3.69,0.4235982337452611,0.279945322024969,0.4900360682625564,-53.14117252914141,-111.2987386824523,-12.261764386292771,-0.327,-0.4473,-0.8256,-0.1068
194,1591191.0,1549.0453009999999,1.0,-4.16,4.23,-7.6,31.56,16.87,0.88,-1.06,3.0,0.12,-0.3942566790701719,0.04451731406365589,0.17331828767133395,-53.089928878816565,-111.35968772291412,-12.307865676783145,-0.3268,-0.4469,-0.8259,-0.1072
195,1591191.0,1549.0453009999999,1.0,-4.16,4.23,-7.6,31.56,16.87,0.88,-1.06,3.0,0.12,-0.3942566790701719,0.04451731406365589,0.17331828767133395,-53.089928878816565,-111.35968772291412,-12.307865676783145,-0.3268,-0.4469,-0.8259,-0.1072
196,1591226.0,1549.062033,1.0,-4.26,4.52,-7.21,30.87,16.5,0.06,-0.63,8.56,2.13,0.08914463166901221,0.030539400382327383,0.2907044043343294,-53.06431134668802,-111.40034681062792,-12.469235993000286,-0.3259,-0.4467,-0.8261,-0.1086
197,1591226.0,1549.062033,1.0,-4.26,4.52,-7.21,30.87,16.5,0.06,-0.63,8.56,2.13,0.08914463166901221,0.030539400382327383,0.2907044043343294,-53.06431134668802,-111.40034681062792,-12.469235993000286,-0.3259,-0.4467,-0.8261,-0.1086
198,1591261.0,1549.108271,1.0,-4.0,4.38,-7.98,30.87,16.5,0.06,0.0,5.69,1.5,-0.57072520800199,-0.15226634387210902,-0.1188669990018596,-53.077119755232744,-111.50208718714256,-12.58451568698019,-0.3241,-0.4468,-0.8266,-0.1096
199,1591261.0,1549.108271,1.0,-4.0,4.38,-7.98,30.87,16.5,0.06,0.0,5.69,1.5,-0.57072520800199,-0.15226634387210902,-0.1188669990018596,-53.077119755232744,-111.50208718714256,-12.58451568698019,-0.3241,-0.4468,-0.8266,-0.1096
200,1591296.0,1549.126723,1.0,-4.26,4.17,-7.41,32.0,17.25,1.69,3.75,1.94,0.19,-0.2441574307757272,0.2432735313371779,0.3026610933383491,-53.089928878816565,-111.52245118481588,-12.58451568698019,-0.3239,-0.4469,-0.8267,-0.1096
201,1591296.0,1549.126723,1.0,-4.26,4.17,-7.41,32.0,17.25,1.69,3.75,1.94,0.19,-0.2441574307757272,0.2432735313371779,0.3026610933383491,-53.089928878816565,-111.52245118481588,-12.58451568698019,-0.3239,-0.4469,-0.8267,-0.1096
202,1591332.0,1549.326624,1.0,-4.02,4.47,-7.64,31.56,16.87,1.56,-5.38,2.5,1.69,-0.2843378751033544,-0.12009201108067692,0.089879452042398,-53.089928878816565,-111.52245118481588,-12.745928771149693,-0.3232,-0.4469,-0.8267,-0.111
203,1591332.0,1549.326624,1.0,-4.02,4.47,-7.64,31.56,16.87,1.56,-5.38,2.5,1.69,-0.2843378751033544,-0.12009201108067692,0.089879452042398,-53.089928878816565,-111.52245118481588,-12.745928771149693,-0.3232,-0.4469,-0.8267,-0.111
204,1591367.0,1549.3931029999999,1.0,-4.14,4.29,-7.77,31.56,16.87,1.56,3.75,3.88,-0.19,-0.4201097117452679,0.07837366481711383,0.02227646876354861,-53.10273871771935,-111.60396041024363,-12.757459245108164,-0.3221,-0.447,-0.8271,-0.1111
205,1591367.0,1549.3931029999999,1.0,-4.14,4.29,-7.77,31.56,16.87,1.56,3.75,3.88,-0.19,-0.4201097117452679,0.07837366481711383,0.02227646876354861,-53.10273871771935,-111.60396041024363,-12.757459245108164,-0.3221,-0.447,-0.8271,-0.1111
206,1591400.0,1549.464113,1.0,-4.1,4.29,-7.69,30.87,16.87,1.25,-3.13,-1.69,0.37,-0.39457327276595816,0.0572205095690137,0.10143296246274502,-53.077119755232744,-111.58357510903522,-12.803582439206053,-0.3224,-0.4468,-0.8270000000000001,-0.1115
207,1591400.0,1549.464113,1.0,-4.1,4.29,-7.69,30.87,16.87,1.25,-3.13,-1.69,0.37,-0.39457327276595816,0.0572205095690137,0.10143296246274502,-53.077119755232744,-111.58357510903522,-12.803582439206053,-0.3224,-0.4468,-0.8270000000000001,-0.1115
208,1591437.0,1549.5503820000001,1.0,-4.03,4.51,-7.57,31.19,16.87,0.75,-0.5,1.63,0.63,-0.2021081889464388,-0.10484466442561537,0.1198517737385334,-53.077119755232744,-111.58357510903522,-12.861239362009446,-0.3223,-0.4468,-0.8270000000000001,-0.11199999999999999
209,1591437.0,1549.5503820000001,1.0,-4.03,4.51,-7.57,31.19,16.87,0.75,-0.5,1.63,0.63,-0.2021081889464388,-0.10484466442561537,0.1198517737385334,-53.077119755232744,-111.58357510903522,-12.861239362009446,-0.3223,-0.4468,-0.8270000000000001,-0.11199999999999999
210,1591474.0,1549.59961,1.0,-4.29,4.57,-7.37,32.0,16.06,0.37,0.25,3.0,0.5,0.07149499293118723,0.1032980566977466,0.13245142970653134,-53.06431134668802,-111.62435104940481,-12.918899554710151,-0.3218,-0.4467,-0.8272,-0.1125
211,1591474.0,1549.59961,1.0,-4.29,4.57,-7.37,32.0,16.06,0.37,0.25,3.0,0.5,0.07149499293118723,0.1032980566977466,0.13245142970653134,-53.06431134668802,-111.62435104940481,-12.918899554710151,-0.3218,-0.4467,-0.8272,-0.1125
212,1591506.0,1549.606402,1.0,-4.11,4.32,-7.53,32.0,16.06,0.37,-1.5,8.75,1.63,-0.2477509232675543,0.1099481270785314,0.20550783412348395,-53.06431134668802,-111.70596708251541,-13.011162702254634,-0.3203,-0.4467,-0.8276,-0.1133
213,1591506.0,1549.606402,1.0,-4.11,4.32,-7.53,32.0,16.06,0.37,-1.5,8.75,1.63,-0.2477509232675543,0.1099481270785314,0.20550783412348395,-53.06431134668802,-111.70596708251541,-13.011162702254634,-0.3203,-0.4467,-0.8276,-0.1133
214,1591541.0,1549.623668,1.0,-3.89,4.85,-7.67,31.19,16.87,0.06,-6.25,2.75,1.88,-0.07131648496118381,-0.3445791687722828,-0.060450848548221366,-53.06431134668802,-111.74680725300392,-13.253393932396618,-0.3193,-0.4467,-0.8278,-0.1154
215,1591541.0,1549.623668,1.0,-3.89,4.85,-7.67,31.19,16.87,0.06,-6.25,2.75,1.88,-0.07131648496118381,-0.3445791687722828,-0.060450848548221366,-53.06431134668802,-111.74680725300392,-13.253393932396618,-0.3193,-0.4467,-0.8278,-0.1154
216,1591578.0,1549.626562,1.0,-4.01,4.47,-7.7,30.87,16.06,2.06,2.5,-0.06,-0.37,-0.2856989774347317,-0.03259588351276665,0.04610116283562782,-53.077119755232744,-111.76723539379441,-13.2187858542384,-0.3189,-0.4468,-0.8279,-0.1151
217,1591578.0,1549.626562,1.0,-4.01,4.47,-7.7,30.87,16.06,2.06,2.5,-0.06,-0.37,-0.2856989774347317,-0.03259588351276665,0.04610116283562782,-53.077119755232744,-111.76723539379441,-13.2187858542384,-0.3189,-0.4468,-0.8279,-0.1151
218,1591611.0,1549.652708,1.0,-4.07,4.35,-7.47,30.87,16.06,2.06,-0.19,-0.81,-1.12,-0.18828487639442792,0.09957941710312436,0.25453333692418845,-53.06431134668802,-111.80810781092319,-13.161108413553293,-0.3187,-0.4467,-0.8281,-0.1146
219,1591611.0,1549.652708,1.0,-4.07,4.35,-7.47,30.87,16.06,2.06,-0.19,-0.81,-1.12,-0.18828487639442792,0.09957941710312436,0.25453333692418845,-53.06431134668802,-111.80810781092319,-13.161108413553293,-0.3187,-0.4467,-0.8281,-0.1146
220,1591648.0,1549.677128,1.0,-4.0,4.55,-7.64,30.87,16.5,0.37,-1.37,0.0,0.75,-0.19078620480058645,-0.08676262510446264,0.05841052453865636,-53.06431134668802,-111.80810781092319,-13.172643633299911,-0.3187,-0.4467,-0.8281,-0.1147
221,1591648.0,1549.677128,1.0,-4.0,4.55,-7.64,30.87,16.5,0.37,-1.37,0.0,0.75,-0.19078620480058645,-0.08676262510446264,0.05841052453865636,-53.06431134668802,-111.80810781092319,-13.172643633299911,-0.3187,-0.4467,-0.8281,-0.1147
222,1591683.0,1549.6996900000001,1.0,-4.1,4.43,-7.28,30.5,16.87,1.25,0.88,-1.06,-0.06,-0.006085183258858985,0.09756967246233517,0.3502371954762697,-53.077119755232744,-111.78766891146809,-13.172643633299911,-0.3188,-0.4468,-0.828,-0.1147
223,1591683.0,1549.6996900000001,1.0,-4.1,4.43,-7.28,30.5,16.87,1.25,0.88,-1.06,-0.06,-0.006085183258858985,0.09756967246233517,0.3502371954762697,-53.077119755232744,-111.78766891146809,-13.172643633299911,-0.3188,-0.4468,-0.828,-0.1147
224,1591717.0,1549.70341,1.0,-3.97,4.56,-7.41,30.5,16.87,1.25,-2.44,3.88,0.56,-0.04945343882724257,-0.07834333089058321,0.24349065384806146,-53.06431134668802,-111.82855209706509,-13.264930228136947,-0.3182,-0.4467,-0.8282,-0.1155
225,1591717.0,1549.70341,1.0,-3.97,4.56,-7.41,30.5,16.87,1.25,-2.44,3.88,0.56,-0.04945343882724257,-0.07834333089058321,0.24349065384806146,-53.06431134668802,-111.82855209706509,-13.264930228136947,-0.3182,-0.4467,-0.8282,-0.1155
226,1591752.0,1549.723152,1.0,-4.04,4.36,-7.57,31.56,16.5,0.06,0.56,4.88,0.69,-0.2441517291632091,0.10140465931023712,0.1855166453365893,-53.05150365290267,-111.88991732477224,-13.368762981498053,-0.3171,-0.4466,-0.8285,-0.1164
227,1591752.0,1549.723152,1.0,-4.04,4.36,-7.57,31.56,16.5,0.06,0.56,4.88,0.69,-0.2441517291632091,0.10140465931023712,0.1855166453365893,-53.05150365290267,-111.88991732477224,-13.368762981498053,-0.3171,-0.4466,-0.8285,-0.1164
228,1591787.0,1549.7547240000001,1.0,-4.07,4.48,-7.45,31.19,15.75,1.69,-0.56,5.69,1.75,-0.06687000141592847,0.08684503840244018,0.20843212675834802,-53.06431134668802,-111.9308545002648,-13.44952940908047,-0.3162,-0.4467,-0.8287,-0.1171
229,1591787.0,1549.7547240000001,1.0,-4.07,4.48,-7.45,31.19,15.75,1.69,-0.56,5.69,1.75,-0.06687000141592847,0.08684503840244018,0.20843212675834802,-53.06431134668802,-111.9308545002648,-13.44952940908047,-0.3162,-0.4467,-0.8287,-0.1171
230,1591822.0,1549.7735380000001,1.0,-3.99,4.59,-7.56,31.19,15.75,1.69,-1.5,7.38,1.19,-0.07833015837692857,-0.011631142114304271,0.1043034228661046,-53.06431134668802,-112.03329231056664,-13.634163660769715,-0.3145,-0.4467,-0.8292,-0.1187
231,1591822.0,1549.7735380000001,1.0,-3.99,4.59,-7.56,31.19,15.75,1.69,-1.5,7.38,1.19,-0.07833015837692857,-0.011631142114304271,0.1043034228661046,-53.06431134668802,-112.03329231056664,-13.634163660769715,-0.3145,-0.4467,-0.8292,-0.1187
232,1591857.0,1549.777003,1.0,-4.13,4.52,-7.42,30.5,15.0,3.25,-2.94,-1.19,-1.12,0.005679940435341424,0.16457194666558506,0.1880958564372932,-53.02589040849175,-112.01279388618185,-13.738036026791262,-0.3148,-0.4464,-0.8291,-0.1196
233,1591857.0,1549.777003,1.0,-4.13,4.52,-7.42,30.5,15.0,3.25,-2.94,-1.19,-1.12,0.005679940435341424,0.16457194666558506,0.1880958564372932,-53.02589040849175,-112.01279388618185,-13.738036026791262,-0.3148,-0.4464,-0.8291,-0.1196
234,1591891.0,1549.820951,1.0,-3.99,4.43,-7.66,30.87,16.06,2.38,-1.0,3.0,1.69,-0.24523777188055684,0.09537339186630467,0.10348750773146163,-53.06431134668802,-112.05379617607242,-13.761120312162008,-0.3138,-0.4467,-0.8293,-0.1198
235,1591891.0,1549.820951,1.0,-3.99,4.43,-7.66,30.87,16.06,2.38,-1.0,3.0,1.69,-0.24523777188055684,0.09537339186630467,0.10348750773146163,-53.06431134668802,-112.05379617607242,-13.761120312162008,-0.3138,-0.4467,-0.8293,-0.1198
236,1591928.0,1549.829234,1.0,-3.87,4.64,-7.8,30.87,16.06,2.38,-1.44,8.69,2.31,-0.22899355239861485,-0.10012861201393086,-0.05661701524480023,-53.077119755232744,-112.09482025042286,-13.911181889055527,-0.3124,-0.4468,-0.8295,-0.1211
237,1591928.0,1549.829234,1.0,-3.87,4.64,-7.8,30.87,16.06,2.38,-1.44,8.69,2.31,-0.22899355239861485,-0.10012861201393086,-0.05661701524480023,-53.077119755232744,-112.09482025042286,-13.911181889055527,-0.3124,-0.4468,-0.8295,-0.1211
238,1591961.0,1549.8419939999999,1.0,-3.69,4.7,-8.12,30.87,16.06,2.38,-1.5,3.25,0.56,-0.4612901948055659,-0.2812499338103698,-0.2605546681741746,-53.05150365290267,-112.13586614925856,-14.049721543626418,-0.3117,-0.4466,-0.8297,-0.1223
239,1591961.0,1549.8419939999999,1.0,-3.69,4.7,-8.12,30.87,16.06,2.38,-1.5,3.25,0.56,-0.4612901948055659,-0.2812499338103698,-0.2605546681741746,-53.05150365290267,-112.13586614925856,-14.049721543626418,-0.3117,-0.4466,-0.8297,-0.1223
240,1591998.0,1549.844885,1.0,-3.9,4.61,-7.39,32.0,16.06,2.06,0.06,-3.31,-1.94,0.0067007472733024995,-0.014514106751100098,0.2633830310479528,-53.000280019764396,-112.11534046927385,-14.038175786909196,-0.3126,-0.4462,-0.8296,-0.1222
241,1591998.0,1549.844885,1.0,-3.9,4.61,-7.39,32.0,16.06,2.06,0.06,-3.31,-1.94,0.0067007472733024995,-0.014514106751100098,0.2633830310479528,-53.000280019764396,-112.11534046927385,-14.038175786909196,-0.3126,-0.4462,-0.8296,-0.1222
242,1592035.0,1549.896359,1.0,-4.01,4.64,-7.45,30.87,16.5,4.06,3.13,0.25,-1.12,0.037619990562516525,0.04489647645477124,0.1573614747919354,-52.96186978619433,-112.15639729539848,-13.991994191085649,-0.3126,-0.4459,-0.8298,-0.1218
243,1592035.0,1549.896359,1.0,-4.01,4.64,-7.45,30.87,16.5,4.06,3.13,0.25,-1.12,0.037619990562516525,0.04489647645477124,0.1573614747919354,-52.96186978619433,-112.15639729539848,-13.991994191085649,-0.3126,-0.4459,-0.8298,-0.1218
244,1592070.0,1549.900818,1.0,-3.79,4.49,-8.06,30.87,16.5,4.06,-0.81,-1.19,-0.5,-0.5253146150669157,-0.10127596635065128,-0.15334938422874167,-52.98747589558396,-112.17693391272269,-13.93427040697098,-0.3124,-0.4461,-0.8299,-0.1213
245,1592070.0,1549.900818,1.0,-3.79,4.49,-8.06,30.87,16.5,4.06,-0.81,-1.19,-0.5,-0.5253146150669157,-0.10127596635065128,-0.15334938422874167,-52.98747589558396,-112.17693391272269,-13.93427040697098,-0.3124,-0.4461,-0.8299,-0.1213
246,1592102.0,1549.9480210000002,1.0,-4.0,4.48,-7.41,30.87,15.38,0.75,0.94,-4.5,-1.5,-0.05127872329875671,0.1039589573893287,0.2690893565379948,-52.97467248448692,-112.13586614925856,-13.841919736512358,-0.3135,-0.446,-0.8297,-0.1205
247,1592102.0,1549.9480210000002,1.0,-4.0,4.48,-7.41,30.87,15.38,0.75,0.94,-4.5,-1.5,-0.05127872329875671,0.1039589573893287,0.2690893565379948,-52.97467248448692,-112.13586614925856,-13.841919736512358,-0.3135,-0.446,-0.8297,-0.1205
248,1592139.0,1549.970382,1.0,-3.85,4.81,-7.43,30.87,15.75,1.25,-3.88,-1.94,-0.19,0.08573912256142502,-0.20704354935587727,0.15712764023873935,-52.96186978619433,-112.09482025042286,-13.8765501759761,-0.3138,-0.4459,-0.8295,-0.1208
249,1592139.0,1549.970382,1.0,-3.85,4.81,-7.43,30.87,15.75,1.25,-3.88,-1.94,-0.19,0.08573912256142502,-0.20704354935587727,0.15712764023873935,-52.96186978619433,-112.09482025042286,-13.8765501759761,-0.3138,-0.4459,-0.8295,-0.1208
250,1592174.0,1550.010814,1.0,-3.94,4.53,-7.49,30.87,15.38,2.06,2.56,2.13,-0.19,-0.09454421329885304,0.022603964220288653,0.2079443345191958,-52.96186978619433,-112.13586614925856,-13.865006554805131,-0.3135,-0.4459,-0.8297,-0.1207
251,1592174.0,1550.010814,1.0,-3.94,4.53,-7.49,30.87,15.38,2.06,2.56,2.13,-0.19,-0.09454421329885304,0.022603964220288653,0.2079443345191958,-52.96186978619433,-112.13586614925856,-13.865006554805131,-0.3135,-0.4459,-0.8297,-0.1207
