acc_x,acc_y,acc_z,lin_x,lin_y,lin_z,eul_x,eul_y,eul_z
6.23,2.4,-7.0,-0.061825484292803,-0.2815470529935864,0.1376371824243296,-126.91419440082724,-28.54099280947513,-43.307915821839245
6.23,2.4,-7.0,-0.061825484292803,-0.2815470529935864,0.1376371824243296,-126.91419440082724,-28.54099280947513,-43.307915821839245
6.38,2.9,-7.17,0.0602649122882112,0.0312286602256544,-0.219251102201607,-126.6838681332996,-28.56464145412097,-43.49291375439449
6.38,2.9,-7.17,0.0602649122882112,0.0312286602256544,-0.219251102201607,-126.6838681332996,-28.56464145412097,-43.49291375439449
6.15,2.46,-7.15,-0.2874457613446067,-0.2942402106953144,0.0687139952454476,-126.37819315148278,-28.70655945606141,-43.6780308968355
6.15,2.46,-7.15,-0.2874457613446067,-0.2942402106953144,0.0687139952454476,-126.37819315148278,-28.70655945606141,-43.6780308968355
6.35,4.27,-7.35,0.3343176678413745,1.1224840819520512,-0.7387831908524891,-126.17530318519164,-28.52916895270361,-43.92504042696694
6.35,4.27,-7.35,0.3343176678413745,1.1224840819520512,-0.7387831908524891,-126.17530318519164,-28.52916895270361,-43.92504042696694
6.53,3.11,-7.61,-0.1462513587932936,0.1691255308491803,-0.6897830653258605,-126.37819315148278,-28.45823232032684,-43.87562138331682
6.53,3.11,-7.61,-0.1462513587932936,0.1691255308491803,-0.6897830653258605,-126.37819315148278,-28.45823232032684,-43.87562138331682
6.07,3.37,-7.36,-0.1620209236895105,0.5553718255101221,-0.2946722577896369,-126.32740410450675,-28.446410631571,-43.887975339090566
6.07,3.37,-7.36,-0.1620209236895105,0.5553718255101221,-0.2946722577896369,-126.32740410450675,-28.446410631571,-43.887975339090566
6.31,3.39,-7.35,-0.0104704550165021,0.4334585310375123,-0.4472616473393973,-126.2513038466384,-28.54099280947513,-43.90032983148112
6.31,3.39,-7.35,-0.0104704550165021,0.4334585310375123,-0.4472616473393973,-126.2513038466384,-28.54099280947513,-43.90032983148112
6.14,2.79,-7.17,-0.1906713003241008,0.0079380701728475,-0.034903812395413,-126.32740410450675,-28.682903338517608,-43.77680902972838
6.14,2.79,-7.17,-0.1906713003241008,0.0079380701728475,-0.034903812395413,-126.32740410450675,-28.682903338517608,-43.77680902972838
6.11,2.94,-7.12,-0.1130695100898213,0.1314972312907069,-0.0239157906374334,-126.2513038466384,-28.83669047331989,-43.75211129257185
6.11,2.94,-7.12,-0.1130695100898213,0.1314972312907069,-0.0239157906374334,-126.2513038466384,-28.83669047331989,-43.75211129257185
6.46,2.75,-7.16,-0.0093725562275543,-0.2103216271992689,-0.219085732020968,-126.17530318519164,-28.943189564308163,-43.75211129257185
6.46,2.75,-7.16,-0.0093725562275543,-0.2103216271992689,-0.219085732020968,-126.17530318519164,-28.943189564308163,-43.75211129257185
6.22,2.87,-6.83,0.1152557008423222,-0.0639648215900643,0.134172311991497,-126.09940169684566,-29.0497142065708,-43.7274156925049
6.22,2.87,-6.83,0.1152557008423222,-0.0639648215900643,0.134172311991497,-126.09940169684566,-29.0497142065708,-43.7274156925049
6.23,2.77,-6.81,0.0777514166683347,-0.1709221008259991,0.1719917106440522,-126.02359896120804,-29.037876869982465,-43.80150890567696
6.23,2.77,-6.81,0.0777514166683347,-0.1709221008259991,0.1719917106440522,-126.02359896120804,-29.037876869982465,-43.80150890567696
6.43,2.7,-7.18,-0.1348503090784862,-0.3584930681205542,-0.1953796997284982,-125.821937957947,-29.014203146635065,-43.96211035016289
6.43,2.7,-7.18,-0.1348503090784862,-0.3584930681205542,-0.1953796997284982,-125.821937957947,-29.014203146635065,-43.96211035016289
6.45,3.04,-7.07,0.0507353725359934,-0.1297548760213449,-0.233747880269604,-125.79677910995709,-28.777535311725245,-44.07334918943469
6.45,3.04,-7.07,0.0507353725359934,-0.1297548760213449,-0.233747880269604,-125.79677910995709,-28.777535311725245,-44.07334918943469
6.4,3.33,-7.11,-0.0003585930927842,-0.0149844380693506,-0.3225540821590105,-125.49571017669872,-28.505522169511824,-44.345450751183655
6.4,3.33,-7.11,-0.0003585930927842,-0.0149844380693506,-0.3225540821590105,-125.49571017669872,-28.505522169511824,-44.345450751183655
6.42,3.25,-6.9,0.0619317198142734,-0.2478258321584379,-0.1594749650501477,-125.19616916396942,-28.505522169511824,-44.48160022735979
6.42,3.25,-6.9,0.0619317198142734,-0.2478258321584379,-0.1594749650501477,-125.19616916396942,-28.505522169511824,-44.48160022735979
6.16,3.96,-6.76,0.2159913471753265,0.3850044773750985,-0.1497509205307974,-125.1463924412778,-28.139154785319608,-44.51874337646561
6.16,3.96,-6.76,0.2159913471753265,0.3850044773750985,-0.1497509205307974,-125.1463924412778,-28.139154785319608,-44.51874337646561
5.93,2.97,-6.78,-0.2905892043876529,-0.3330318093624174,0.3325353855230269,-125.22107317255428,-28.03284519878868,-44.55589145397279
5.93,2.97,-6.78,-0.2905892043876529,-0.3330318093624174,0.3325353855230269,-125.22107317255428,-28.03284519878868,-44.55589145397279
5.98,4.09,-7.05,-0.0988086446642601,0.5949893159658934,-0.284297654488455,-125.1463924412778,-27.784885032921768,-44.71692355018706
5.98,4.09,-7.05,-0.0988086446642601,0.5949893159658934,-0.284297654488455,-125.1463924412778,-27.784885032921768,-44.71692355018706
6.37,3.75,-7.4,-0.2497378821670831,0.1434748429100723,-0.6488005383394455,-125.1215196986378,-27.737669605365127,-44.82846183777319
6.37,3.75,-7.4,-0.2497378821670831,0.1434748429100723,-0.6488005383394455,-125.1215196986378,-27.737669605365127,-44.82846183777319
6.52,3.75,-7.52,-0.2566322554997475,0.0770371336183319,-0.8259181359434997,-125.1463924412778,-27.631452438914533,-44.878048779944685
6.52,3.75,-7.52,-0.2566322554997475,0.0770371336183319,-0.8259181359434997,-125.1463924412778,-27.631452438914533,-44.878048779944685
6.62,3.73,-7.69,-0.3004906247879524,0.0020001214101921,-0.9999730333036484,-125.29584795913512,-27.57245336826063,-44.71692355018706
6.62,3.73,-7.69,-0.3004906247879524,0.0020001214101921,-0.9999730333036484,-125.29584795913512,-27.57245336826063,-44.71692355018706
6.87,3.25,-8.12,-0.5463030830586457,-0.5418795330024757,-1.2884714284997152,-125.696251455902,-27.560654449020664,-44.295958202894106
6.87,3.25,-8.12,-0.5463030830586457,-0.5418795330024757,-1.2884714284997152,-125.696251455902,-27.560654449020664,-44.295958202894106
6.75,2.88,-8.34,-0.8220900597103005,-0.8265333121235927,-1.2411330634781894,-126.09940169684566,-27.47807034873948,-43.83856273356188
6.75,2.88,-8.34,-0.8220900597103005,-0.8265333121235927,-1.2411330634781894,-126.09940169684566,-27.47807034873948,-43.83856273356188
7.52,3.47,-9.26,-0.6772700012733195,-0.767969294419468,-2.574401187528629,-126.83731618493428,-27.006438787370872,-43.17232602381402
7.52,3.47,-9.26,-0.6772700012733195,-0.767969294419468,-2.574401187528629,-126.83731618493428,-27.006438787370872,-43.17232602381402
7.31,3.53,-9.27,-0.5696333406910025,-0.6841120381885535,-2.4830777665690658,-128.0015563372832,-26.54704645350268,-42.053036389733045
7.31,3.53,-9.27,-0.5696333406910025,-0.6841120381885535,-2.4830777665690658,-128.0015563372832,-26.54704645350268,-42.053036389733045
6.57,3.06,-9.69,-1.103139012861029,-0.8423749917455978,-2.2140857799589617,-129.88954402446632,-25.94695623100749,-40.13171155486349
6.57,3.06,-9.69,-1.103139012861029,-0.8423749917455978,-2.2140857799589617,-129.88954402446632,-25.94695623100749,-40.13171155486349
6.5,3.15,-9.84,-0.9161676579055228,-0.7882590292100764,-2.339846800537872,-131.4269409010407,-25.32409900412527,-38.65896530684754
6.5,3.15,-9.84,-0.9161676579055228,-0.7882590292100764,-2.339846800537872,-131.4269409010407,-25.32409900412527,-38.65896530684754
6.7,5.04,-10.17,0.031057427328038,0.5714140006642627,-3.3612283969192465,-133.64792062272215,-24.104076904803392,-36.46817032738551
6.7,5.04,-10.17,0.031057427328038,0.5714140006642627,-3.3612283969192465,-133.64792062272215,-24.104076904803392,-36.46817032738551
5.95,3.57,-9.63,-0.1581617184231256,-0.3071885961551239,-2.0577893056400995,-135.88272800413355,-23.58875576239612,-34.24312448272413
5.95,3.57,-9.63,-0.1581617184231256,-0.3071885961551239,-2.0577893056400995,-135.88272800413355,-23.58875576239612,-34.24312448272413
5.39,3.22,-9.33,0.066323513822825,-0.3481714645501972,-1.4336248108214509,-138.7806141249359,-22.769918267605057,-31.304732073341743
5.39,3.22,-9.33,0.066323513822825,-0.3481714645501972,-1.4336248108214509,-138.7806141249359,-22.769918267605057,-31.304732073341743
5.53,4.98,-9.57,0.9917418069663616,1.064447028734898,-2.228697968020395,-140.8829393690889,-21.95225731085252,-29.09706672256259
5.53,4.98,-9.57,0.9917418069663616,1.064447028734898,-2.228697968020395,-140.8829393690889,-21.95225731085252,-29.09706672256259
4.65,4.34,-8.85,1.1153071958541652,0.8819698808194261,-0.9988494788858856,-144.05324557319378,-21.275624852029367,-25.42981308247912
4.65,4.34,-8.85,1.1153071958541652,0.8819698808194261,-0.9988494788858856,-144.05324557319378,-21.275624852029367,-25.42981308247912
3.45,3.65,-8.11,0.6610781871599849,0.8382642916466863,0.327336279702978,-146.2735608004224,-20.84437327920369,-22.82836708787642
3.45,3.65,-8.11,0.6610781871599849,0.8382642916466863,0.327336279702978,-146.2735608004224,-20.84437327920369,-22.82836708787642
3.29,3.84,-8.12,1.05860144334762,1.0137063488663536,0.3538270130605756,-148.6458749656724,-20.4134200209308,-19.71519382901285
3.29,3.84,-8.12,1.05860144334762,1.0137063488663536,0.3538270130605756,-148.6458749656724,-20.4134200209308,-19.71519382901285
2.21,4.46,-7.34,0.9052098727848712,2.041982769860422,1.2239813326328406,-150.0772121119661,-20.320279509683687,-17.3929494210965
2.21,4.46,-7.34,0.9052098727848712,2.041982769860422,1.2239813326328406,-150.0772121119661,-20.320279509683687,-17.3929494210965
1.6,4.43,-6.84,0.8687840215225915,2.3394234162898044,1.885613931198016,-151.71920090048613,-20.4134200209308,-14.858287755594214
1.6,4.43,-6.84,0.8687840215225915,2.3394234162898044,1.885613931198016,-151.71920090048613,-20.4134200209308,-14.858287755594214
1.77,5.51,-6.94,1.5859984824299178,3.2438273356860767,1.5230038806884192,-152.3835367338065,-20.83272200177108,-13.288003224878931
1.77,5.51,-6.94,1.5859984824299178,3.2438273356860767,1.5230038806884192,-152.3835367338065,-20.83272200177108,-13.288003224878931
0.62,4.41,-6.41,0.7176147210575307,2.8644191135588963,2.5816425775816665,-152.965699486827,-22.232468575814032,-11.00624507066077
0.62,4.41,-6.41,0.7176147210575307,2.8644191135588963,2.5816425775816665,-152.965699486827,-22.232468575814032,-11.00624507066077
-0.4,3.56,-5.75,-0.0146403802921075,2.8055218625449623,3.6402140165451184,-153.06392657993817,-23.975200651636385,-9.119652615329128
-0.4,3.56,-5.75,-0.0146403802921075,2.8055218625449623,3.6402140165451184,-153.06392657993817,-23.975200651636385,-9.119652615329128
0.71,3.11,-6.4,0.8764705780179152,2.0600811715676226,3.0151799903171552,-152.3835367338065,-25.547298987438325,-8.533497036933403
0.71,3.11,-6.4,0.8764705780179152,2.0600811715676226,3.0151799903171552,-152.3835367338065,-25.547298987438325,-8.533497036933403
0.66,1.9,-6.69,0.4210060557412059,1.210960551848498,2.9394796625978445,-151.06981274894218,-27.44268161964677,-8.200293609338797
0.66,1.9,-6.69,0.4210060557412059,1.210960551848498,2.9394796625978445,-151.06981274894218,-27.44268161964677,-8.200293609338797
0.59,0.33,-5.64,-0.0575983981280689,0.2393251894554148,4.131616442546335,-148.85861645005238,-30.10452391311007,-7.8212153932673
0.59,0.33,-5.64,-0.0575983981280689,0.2393251894554148,4.131616442546335,-148.85861645005238,-30.10452391311007,-7.8212153932673
1.55,-0.44,-5.41,0.4025982545465645,-0.5854757358007363,4.206709571011076,-145.68599243347148,-32.902567850463264,-8.395611151395807
1.55,-0.44,-5.41,0.4025982545465645,-0.5854757358007363,4.206709571011076,-145.68599243347148,-32.902567850463264,-8.395611151395807
2.39,-1.96,-5.96,0.078224416984533,-1.9376986795096869,3.379013982923904,-142.84730495776557,-35.10745640434998,-9.4070701841208
2.39,-1.96,-5.96,0.078224416984533,-1.9376986795096869,3.379013982923904,-142.84730495776557,-35.10745640434998,-9.4070701841208
2.31,-2.55,-5.79,-0.5154691234720524,-2.0470365397858625,3.4108206567851207,-139.2059212883253,-37.81000260574194,-10.914150898036931
2.31,-2.55,-5.79,-0.5154691234720524,-2.0470365397858625,3.4108206567851207,-139.2059212883253,-37.81000260574194,-10.914150898036931
3.34,-3.77,-7.02,-0.8410877386558475,-2.934839426763922,1.724064463490361,-136.55893204947213,-39.43709392400925,-12.330917071488784
3.34,-3.77,-7.02,-0.8410877386558475,-2.934839426763922,1.724064463490361,-136.55893204947213,-39.43709392400925,-12.330917071488784
4.13,-3.34,-7.34,-0.3910500495206366,-2.5853063861595618,1.1318952052837563,-133.444524198005,-41.182660023882,-14.84673166768115
4.13,-3.34,-7.34,-0.3910500495206366,-2.5853063861595618,1.1318952052837563,-133.444524198005,-41.182660023882,-14.84673166768115
4.83,-4.12,-8.11,-0.8298717533017481,-3.011395469261928,-0.0075341332217018,-131.3990875860209,-42.24952684009253,-16.605072138436235
4.83,-4.12,-8.11,-0.8298717533017481,-3.011395469261928,-0.0075341332217018,-131.3990875860209,-42.24952684009253,-16.605072138436235
5.03,-3.8,-8.47,-0.8739437842268714,-2.4525096788263068,-0.4258090659955531,-129.5927197609984,-42.815165407712406,-18.83183055191492
5.03,-3.8,-8.47,-0.8739437842268714,-2.4525096788263068,-0.4258090659955531,-129.5927197609984,-42.815165407712406,-18.83183055191492
5.85,-4.52,-8.95,-1.2101514375189746,-3.0376566679467607,-1.3317329825495443,-128.44773606463812,-42.99984891491943,-20.57644875978384
5.85,-4.52,-8.95,-1.2101514375189746,-3.0376566679467607,-1.3317329825495443,-128.44773606463812,-42.99984891491943,-20.57644875978384
7.09,-3.88,-9.73,-0.5015787414292006,-2.879984888597958,-2.4998322677966662,-127.7407542896587,-42.70441132531611,-22.79329707445838
7.09,-3.88,-9.73,-0.5015787414292006,-2.879984888597958,-2.4998322677966662,-127.7407542896587,-42.70441132531611,-22.79329707445838
5.95,-3.12,-8.83,-0.6769507909263666,-2.057700167774593,-1.0751424831437824,-127.97542141388575,-41.9548397514564,-24.02206117401117
5.95,-3.12,-8.83,-0.6769507909263666,-2.057700167774593,-1.0751424831437824,-127.97542141388575,-41.9548397514564,-24.02206117401117
6.41,-3.15,-9.84,-0.9277579436578348,-1.85719656798446,-2.173595661331264,-128.5268474503853,-40.33917501022326,-25.86464777060069
6.41,-3.15,-9.84,-0.9277579436578348,-1.85719656798446,-2.173595661331264,-128.5268474503853,-40.33917501022326,-25.86464777060069
7.06,-2.59,-10.62,-0.5852917916392012,-1.5717839928820343,-3.097730209772168,-129.32429015652528,-38.91408254537286,-27.15966751179376
7.06,-2.59,-10.62,-0.5852917916392012,-1.5717839928820343,-3.097730209772168,-129.32429015652528,-38.91408254537286,-27.15966751179376
7.28,-1.09,-11.04,0.1335046039574802,-0.6218432176257459,-3.4471640749527293,-131.14907903681728,-36.45610555039494,-28.45823232032684
7.28,-1.09,-11.04,0.1335046039574802,-0.6218432176257459,-3.4471640749527293,-131.14907903681728,-36.45610555039494,-28.45823232032684
7.25,0.76,-11.19,1.042677530496158,0.7378223944338229,-3.4871320683833407,-132.66772802198363,-34.60301565627788,-29.0023667595726
7.25,0.76,-11.19,1.042677530496158,0.7378223944338229,-3.4871320683833407,-132.66772802198363,-34.60301565627788,-29.0023667595726
6.75,0.8,-11.09,0.7644168399152071,0.7832215145342121,-3.154554841912838,-134.7969534952698,-32.54428338361999,-28.74204597594341
6.75,0.8,-11.09,0.7644168399152071,0.7832215145342121,-3.154554841912838,-134.7969534952698,-32.54428338361999,-28.74204597594341
5.63,0.89,-10.1,0.5180299155518564,0.9406259221650544,-1.740898132878444,-136.58990657854866,-31.138159380012,-28.0210345439132
5.63,0.89,-10.1,0.5180299155518564,0.9406259221650544,-1.740898132878444,-136.58990657854866,-31.138159380012,-28.0210345439132
5.39,1.39,-9.92,0.8217239202341623,1.200749974202462,-1.4749088150914569,-138.94369485234358,-29.404982305122267,-26.923951406436
5.39,1.39,-9.92,0.8217239202341623,1.200749974202462,-1.4749088150914569,-138.94369485234358,-29.404982305122267,-26.923951406436
4.27,1.83,-8.91,0.7648604737535647,1.6264986596170012,-0.0796734099413107,-141.15770665873933,-28.09190303440269,-25.47680417585264
4.27,1.83,-8.91,0.7648604737535647,1.6264986596170012,-0.0796734099413107,-141.15770665873933,-28.09190303440269,-25.47680417585264
3.82,1.63,-8.6,0.5790009604382309,1.4727871916862325,0.3883191619047146,-142.56060519917662,-27.3719121623715,-24.37364567505576
3.82,1.63,-8.6,0.5790009604382309,1.4727871916862325,0.3883191619047146,-142.56060519917662,-27.3719121623715,-24.37364567505576
3.71,1.49,-8.64,0.5892718949799095,1.278698122319325,0.3911579923689708,-144.09039985888563,-26.676574330601248,-23.050527648721737
3.71,1.49,-8.64,0.5892718949799095,1.278698122319325,0.3911579923689708,-144.09039985888563,-26.676574330601248,-23.050527648721737
3.27,1.21,-8.39,0.3230862281802295,1.1057433068404907,0.7943224966001328,-144.99354106549774,-26.32339770363258,-22.11569761985897
3.27,1.21,-8.39,0.3230862281802295,1.1057433068404907,0.7943224966001328,-144.99354106549774,-26.32339770363258,-22.11569761985897
3.14,1.21,-8.3,0.3729057097843152,1.0905880190500497,0.9249126077824864,-145.84171829017612,-26.029278313836883,-21.21732993545333
3.14,1.21,-8.3,0.3729057097843152,1.0905880190500497,0.9249126077824864,-145.84171829017612,-26.029278313836883,-21.21732993545333
3.4,0.87,-8.64,0.3988808701930758,0.7049760999598857,0.5163107839175538,-146.23408088100356,-25.970475433904987,-20.72787028869477
3.4,0.87,-8.64,0.3988808701930758,0.7049760999598857,0.5163107839175538,-146.23408088100356,-25.970475433904987,-20.72787028869477
3.11,0.64,-8.58,0.1701098123909318,0.5868105154454353,0.6784072298557362,-146.59103083752737,-26.00575632582789,-20.11076285425295
3.11,0.64,-8.58,0.1701098123909318,0.5868105154454353,0.6784072298557362,-146.59103083752737,-26.00575632582789,-20.11076285425295
3.07,0.42,-8.47,0.1089468651952607,0.3878019098638349,0.7966588646397597,-146.63092085313292,-26.09985097880343,-19.889680039418103
3.07,0.42,-8.47,0.1089468651952607,0.3878019098638349,0.7966588646397597,-146.63092085313292,-26.09985097880343,-19.889680039418103
3.73,0.09,-9.09,0.3524272757881481,-0.0634526717122652,-0.0127628527999661,-146.59103083752737,-26.27632678993584,-19.73845598070809
3.73,0.09,-9.09,0.3524272757881481,-0.0634526717122652,-0.0127628527999661,-146.59103083752737,-26.27632678993584,-19.73845598070809
3.05,-0.11,-8.74,-0.1587051226594393,-0.0062660102546031,0.5504643157585072,-146.59103083752737,-26.39401255557817,-19.494244164289388
3.05,-0.11,-8.74,-0.1587051226594393,-0.0062660102546031,0.5504643157585072,-146.59103083752737,-26.39401255557817,-19.494244164289388
3.57,-0.38,-9.12,0.0400382904248959,-0.3627435820629245,0.0122376118588931,-146.47163743677677,-26.48818157203767,-19.54075377357945
3.57,-0.38,-9.12,0.0400382904248959,-0.3627435820629245,0.0122376118588931,-146.47163743677677,-26.48818157203767,-19.54075377357945
3.82,-0.4,-9.43,0.1496907543242598,-0.4257234388903105,-0.3655499700973852,-146.4319313048688,-26.52349964582953,-19.52912606682039
3.82,-0.4,-9.43,0.1496907543242598,-0.4257234388903105,-0.3655499700973852,-146.4319313048688,-26.52349964582953,-19.52912606682039
3.62,-0.37,-9.47,0.0046117739644023,-0.3012812747382523,-0.3339322478313864,-146.5113892939378,-26.48818157203767,-19.42448582735805
3.62,-0.37,-9.47,0.0046117739644023,-0.3012812747382523,-0.3339322478313864,-146.5113892939378,-26.48818157203767,-19.42448582735805
3.76,-0.38,-9.82,0.0187564906161688,-0.3056784983374353,-0.7109832342268874,-146.59103083752737,-26.38224270571989,-19.40123466474733
3.76,-0.38,-9.82,0.0187564906161688,-0.3056784983374353,-0.7109832342268874,-146.59103083752737,-26.38224270571989,-19.40123466474733
3.94,-0.53,-9.67,0.1614536684363586,-0.558069109951016,-0.6325018612130027,-146.79094642726758,-26.205728877683853,-19.319861939553064
3.94,-0.53,-9.67,0.1614536684363586,-0.558069109951016,-0.6325018612130027,-146.79094642726758,-26.205728877683853,-19.319861939553064
3.73,-0.09,-9.73,0.1941446598639841,-0.1151989315162352,-0.6117441688354148,-147.0728095954594,-26.05280141790223,-19.110662839696182
3.73,-0.09,-9.73,0.1941446598639841,-0.1151989315162352,-0.6117441688354148,-147.0728095954594,-26.05280141790223,-19.110662839696182
3.47,0.19,-9.63,0.1990187742927366,0.1730779575029699,-0.4278180149046165,-147.56154217602332,-25.852890528278607,-18.669230437467
3.47,0.19,-9.63,0.1990187742927366,0.1730779575029699,-0.4278180149046165,-147.56154217602332,-25.852890528278607,-18.669230437467
3.16,0.18,-9.15,0.1164953590799431,0.2001903316879098,0.1274530982724826,-147.8086150107539,-25.74708778893412,-18.390575402245243
3.16,0.18,-9.15,0.1164953590799431,0.2001903316879098,0.1274530982724826,-147.8086150107539,-25.74708778893412,-18.390575402245243
3.01,0.3,-8.99,0.1388620613503367,0.3265755153907916,0.3280284883737039,-148.0992206918234,-25.62955536451614,-18.06561632088332
3.01,0.3,-8.99,0.1388620613503367,0.3265755153907916,0.3280284883737039,-148.0992206918234,-25.62955536451614,-18.06561632088332
2.87,0.03,-8.93,-0.0564576444861943,0.1499334618924113,0.4281089358800596,-148.1827256280383,-25.64130737095736,-17.93799404290059
2.87,0.03,-8.93,-0.0564576444861943,0.1499334618924113,0.4281089358800596,-148.1827256280383,-25.64130737095736,-17.93799404290059
2.77,-0.15,-8.86,-0.1907236798690963,0.0399002729038946,0.5245687438290876,-148.1827256280383,-25.62955536451614,-17.90319186690899
2.77,-0.15,-8.86,-0.1907236798690963,0.0399002729038946,0.5245687438290876,-148.1827256280383,-25.62955536451614,-17.90319186690899
3.14,0.0,-9.17,0.1074261922532951,0.0734882635831241,0.1148204983871341,-148.22455825803132,-25.60605217391993,-17.891591511712036
3.14,0.0,-9.17,0.1074261922532951,0.0734882635831241,0.1148204983871341,-148.22455825803132,-25.60605217391993,-17.891591511712036
3.5,-0.07,-9.62,0.2517475633502343,-0.0591676138779929,-0.4272359851874015,-148.1827256280383,-25.60605217391993,-17.93799404290059
3.5,-0.07,-9.62,0.2517475633502343,-0.0591676138779929,-0.4272359851874015,-148.1827256280383,-25.60605217391993,-17.93799404290059
3.29,-0.14,-9.39,0.1092114093929531,-0.0753293259558036,-0.1431338348734758,-148.1827256280383,-25.62955536451614,-17.914792407087575
3.29,-0.14,-9.39,0.1092114093929531,-0.0753293259558036,-0.1431338348734758,-148.1827256280383,-25.62955536451614,-17.914792407087575
3.41,0.14,-9.47,0.2958689248189214,0.1055046787420595,-0.2546585800053904,-148.0992206918234,-25.700071520307283,-17.961196420173227
3.41,0.14,-9.47,0.2958689248189214,0.1055046787420595,-0.2546585800053904,-148.0992206918234,-25.700071520307283,-17.961196420173227
3.16,-0.23,-9.27,-0.0152070967247923,-0.1493750944201975,0.0113013168046869,-148.0992206918234,-25.735333308776628,-17.914792407087575
3.16,-0.23,-9.27,-0.0152070967247923,-0.1493750944201975,0.0113013168046869,-148.0992206918234,-25.735333308776628,-17.914792407087575
3.11,0.01,-9.38,0.0191703637622857,0.0775639937093553,-0.0751624007710773,-148.0992206918234,-25.770597576108926,-17.868391355752113
3.11,0.01,-9.38,0.0191703637622857,0.0775639937093553,-0.0751624007710773,-148.0992206918234,-25.770597576108926,-17.868391355752113
3.22,-0.03,-9.22,0.1447512484217527,-0.0334728481457314,0.0416294345061736,-148.0992206918234,-25.8058643261674,-17.833592505981915
3.22,-0.03,-9.22,0.1447512484217527,-0.0334728481457314,0.0416294345061736,-148.0992206918234,-25.8058643261674,-17.833592505981915
3.19,-0.16,-9.34,0.0260119905659648,-0.120368415606023,-0.0636151849315229,-148.0992206918234,-25.82937687407415,-17.845191938186247
3.19,-0.16,-9.34,0.0260119905659648,-0.120368415606023,-0.0636151849315229,-148.0992206918234,-25.82937687407415,-17.845191938186247
3.07,-0.24,-9.37,-0.1260237445101407,-0.1271736561642748,-0.054756840659067,-148.0575479662478,-25.86464777060069,-17.891591511712036
3.07,-0.24,-9.37,-0.1260237445101407,-0.1271736561642748,-0.054756840659067,-148.0575479662478,-25.86464777060069,-17.891591511712036
3.37,0.0,-9.49,0.1768929851735278,-0.0192964417055586,-0.2623785787226733,-147.97436096195162,-25.84113356281753,-18.03080801097451
3.37,0.0,-9.49,0.1768929851735278,-0.0192964417055586,-0.2623785787226733,-147.97436096195162,-25.84113356281753,-18.03080801097451
3.63,0.11,-9.7,0.3769611082276936,0.0039246844796485,-0.5440449003308689,-147.93284627196644,-25.84113356281753,-18.08882279446736
3.63,0.11,-9.7,0.3769611082276936,0.0039246844796485,-0.5440449003308689,-147.93284627196644,-25.84113356281753,-18.08882279446736
3.4,-0.14,-9.63,0.1027284212764601,-0.1287340047262205,-0.4055669203111414,-147.97436096195162,-25.82937687407415,-18.03080801097451
3.4,-0.14,-9.63,0.1027284212764601,-0.1287340047262205,-0.4055669203111414,-147.97436096195162,-25.82937687407415,-18.03080801097451
3.65,-0.46,-9.81,0.1296079003062896,-0.4956540304797282,-0.6579440616082852,-148.01592812505623,-25.782352883412447,-17.996001378555594
3.65,-0.46,-9.81,0.1296079003062896,-0.4956540304797282,-0.6579440616082852,-148.01592812505623,-25.782352883412447,-17.996001378555594
3.4,-0.23,-9.69,0.0696971984991902,-0.2474601575222464,-0.4618896123772379,-148.26644461114088,-25.617803632217928,-17.856791554733764
3.4,-0.23,-9.69,0.0696971984991902,-0.2474601575222464,-0.4618896123772379,-148.26644461114088,-25.617803632217928,-17.856791554733764
3.16,-0.17,-9.54,-0.0391192119673703,-0.1805241516034881,-0.2428266390067755,-148.6458749656724,-25.394572616004385,-17.636430239406273
3.16,-0.17,-9.54,-0.0391192119673703,-0.1805241516034881,-0.2428266390067755,-148.6458749656724,-25.394572616004385,-17.636430239406273
3.2,-0.08,-9.88,-0.0399425021451193,-0.1082086364106105,-0.5783148765669175,-148.90133503664836,-25.21840683143225,-17.485694626999518
3.2,-0.08,-9.88,-0.0399425021451193,-0.1082086364106105,-0.5783148765669175,-148.90133503664836,-25.21840683143225,-17.485694626999518
3.45,-0.11,-9.83,0.2135141041668292,-0.2701387350445226,-0.6060795552679394,-149.24516700325162,-24.97187636961762,-17.26544349477142
3.45,-0.11,-9.83,0.2135141041668292,-0.2701387350445226,-0.6060795552679394,-149.24516700325162,-24.97187636961762,-17.26544349477142
3.25,0.15,-9.64,0.2378351873279556,-0.0038241251421518,-0.3647815511502888,-149.59279181341395,-24.725463298356363,-17.056843809922572
3.25,0.15,-9.64,0.2378351873279556,-0.0038241251421518,-0.3647815511502888,-149.59279181341395,-24.725463298356363,-17.056843809922572
3.0,0.07,-9.56,0.0674859358309711,-0.0141213672317143,-0.2130179703198056,-150.0772121119661,-24.43226565454688,-16.709303811577858
3.0,0.07,-9.56,0.0674859358309711,-0.0141213672317143,-0.2130179703198056,-150.0772121119661,-24.43226565454688,-16.709303811577858
2.8,0.21,-9.39,0.0458703420393051,0.1402642953407074,0.0069346041747806,-150.43438697810743,-24.22126399043484,-16.396650200988272
2.8,0.21,-9.39,0.0458703420393051,0.1402642953407074,0.0069346041747806,-150.43438697810743,-24.22126399043484,-16.396650200988272
2.84,0.29,-9.37,0.1748098966262691,0.1801814201339094,0.0146340606808639,-150.84131999821054,-23.95177191669858,-16.0609738361326
2.84,0.29,-9.37,0.1748098966262691,0.1801814201339094,0.0146340606808639,-150.84131999821054,-23.95177191669858,-16.0609738361326
2.91,0.37,-9.37,0.3066227010902479,0.2221922939484478,-0.0044922935194477,-151.1157235364922,-23.78779915841677,-15.841123321226055
2.91,0.37,-9.37,0.3066227010902479,0.2221922939484478,-0.0044922935194477,-151.1157235364922,-23.78779915841677,-15.841123321226055
2.72,0.31,-9.1,0.2391098964831997,0.2002712759844768,0.308901957783922,-151.43912137388486,-23.65899809735879,-15.505674829864253
2.72,0.31,-9.1,0.2391098964831997,0.2002712759844768,0.308901957783922,-151.43912137388486,-23.65899809735879,-15.505674829864253
2.32,0.54,-8.81,0.0837646135691012,0.5069427768704954,0.6947845208298631,-151.6255402012684,-23.56534364989273,-15.274409087771584
2.32,0.54,-8.81,0.0837646135691012,0.5069427768704954,0.6947845208298631,-151.6255402012684,-23.56534364989273,-15.274409087771584
2.35,0.36,-9.01,0.0271477903024873,0.3624830788424679,0.495362816423576,-151.7661453802759,-23.5419325351228,-15.054764601110485
2.35,0.36,-9.01,0.0271477903024873,0.3624830788424679,0.495362816423576,-151.7661453802759,-23.5419325351228,-15.054764601110485
2.36,0.21,-9.05,-0.0168260325992991,0.2163704571516304,0.45415831543278,-151.7661453802759,-23.62387580431868,-14.93918463283386
2.36,0.21,-9.05,-0.0168260325992991,0.2163704571516304,0.45415831543278,-151.7661453802759,-23.62387580431868,-14.93918463283386
2.43,0.37,-9.06,0.1089945758057149,0.3084383363662857,0.4248385557689556,-151.7661453802759,-23.670706029265663,-14.89295693159816
2.43,0.37,-9.06,0.1089945758057149,0.3084383363662857,0.4248385557689556,-151.7661453802759,-23.670706029265663,-14.89295693159816
2.46,0.08,-9.15,-0.0006924612683407,0.0374734884490067,0.3314668746899194,-151.67233263341282,-23.78779915841677,-14.869843995469047
2.46,0.08,-9.15,-0.0006924612683407,0.0374734884490067,0.3314668746899194,-151.67233263341282,-23.78779915841677,-14.869843995469047
2.66,-0.07,-9.46,0.0308698025808215,-0.1366849292672499,-0.0194613511602277,-151.48561418277666,-23.95177191669858,-14.927627478593791
2.66,-0.07,-9.46,0.0308698025808215,-0.1366849292672499,-0.0194613511602277,-151.48561418277666,-23.95177191669858,-14.927627478593791
2.56,-0.05,-9.24,-0.0022672607262333,-0.1115958237646574,0.219093417030221,-151.43912137388486,-24.02206117401117,-14.950741939900691
2.56,-0.05,-9.24,-0.0022672607262333,-0.1115958237646574,0.219093417030221,-151.43912137388486,-24.02206117401117,-14.950741939900691
2.61,0.2,-9.45,0.0754914515524412,0.1104234508776431,0.0017171750267088,-151.34635737161238,-24.0923596055089,-15.043205913037664
2.61,0.2,-9.45,0.0754914515524412,0.1104234508776431,0.0017171750267088,-151.34635737161238,-24.0923596055089,-15.043205913037664
2.72,-0.01,-9.53,0.0420801531728488,-0.0947681836413557,-0.10337766151933,-151.20776005427302,-24.150948661500923,-15.205041610922963
2.72,-0.01,-9.53,0.0420801531728488,-0.0947681836413557,-0.10337766151933,-151.20776005427302,-24.150948661500923,-15.205041610922963
2.73,0.18,-9.55,0.0966393182919508,0.0734763961038951,-0.1267815350424452,-151.06981274894218,-24.18610517042096,-15.35534492966006
2.73,0.18,-9.55,0.0966393182919508,0.0734763961038951,-0.1267815350424452,-151.06981274894218,-24.18610517042096,-15.35534492966006
2.91,0.05,-9.62,0.1593862780505158,-0.1049046180584808,-0.2421604288756089,-150.97820441576042,-24.20954412674289,-15.494110041456644
2.91,0.05,-9.62,0.1593862780505158,-0.1049046180584808,-0.2421604288756089,-150.97820441576042,-24.20954412674289,-15.494110041456644
2.99,0.06,-9.61,0.2236206885172392,-0.1284666336399406,-0.2546267634981749,-150.9325061978301,-24.22126399043484,-15.563501157916
2.99,0.06,-9.61,0.2236206885172392,-0.1284666336399406,-0.2546267634981749,-150.9325061978301,-24.22126399043484,-15.563501157916
2.82,0.23,-9.66,0.122973811505601,0.0937237128425306,-0.2579907440770022,-150.9325061978301,-24.20954412674289,-15.609765091037287
2.82,0.23,-9.66,0.122973811505601,0.0937237128425306,-0.2579907440770022,-150.9325061978301,-24.20954412674289,-15.609765091037287
2.63,0.09,-9.44,-0.0352461209068748,0.0205462383104336,0.0068063500710753,-150.9325061978301,-24.22126399043484,-15.551935573755918
2.63,0.09,-9.44,-0.0352461209068748,0.0205462383104336,0.0068063500710753,-150.9325061978301,-24.22126399043484,-15.551935573755918
2.69,0.25,-9.56,0.0640768966186922,0.1479173520458421,-0.1264368620124063,-150.97820441576042,-24.24470448957822,-15.482545411826456
2.69,0.25,-9.56,0.0640768966186922,0.1479173520458421,-0.1264368620124063,-150.97820441576042,-24.24470448957822,-15.482545411826456
2.73,0.12,-9.6,0.0410148941239082,0.0263002177237616,-0.1745786857384299,-150.9325061978301,-24.25642512530879,-15.459416628401115
2.73,0.12,-9.6,0.0410148941239082,0.0263002177237616,-0.1745786857384299,-150.9325061978301,-24.25642512530879,-15.459416628401115
2.66,0.17,-9.23,0.1026185066832454,0.0515464147698685,0.200182782067566,-150.9325061978301,-24.31503217113493,-15.39003407585724
2.66,0.17,-9.23,0.1026185066832454,0.0515464147698685,0.200182782067566,-150.9325061978301,-24.31503217113493,-15.39003407585724
2.76,0.32,-9.39,0.2139402223569881,0.1614379551417683,0.0178672683271035,-150.9325061978301,-24.350199497398,-15.37847086963133
2.76,0.32,-9.39,0.2139402223569881,0.1614379551417683,0.0178672683271035,-150.9325061978301,-24.350199497398,-15.37847086963133
2.82,0.23,-9.46,0.2240221046110169,0.0534606455473454,-0.0647154605643756,-150.97820441576042,-24.37364567505576,-15.29753283007483
2.82,0.23,-9.46,0.2240221046110169,0.0534606455473454,-0.0647154605643756,-150.97820441576042,-24.37364567505576,-15.29753283007483
2.66,0.14,-9.33,0.091998477859999,0.0108850590296755,0.1043040055736348,-150.97820441576042,-24.40881688456287,-15.205041610922963
2.66,0.14,-9.33,0.091998477859999,0.0108850590296755,0.1043040055736348,-150.97820441576042,-24.40881688456287,-15.205041610922963
2.35,0.27,-9.23,-0.0792030053617066,0.2429641378785291,0.2817880423836794,-151.06981274894218,-24.40881688456287,-15.077882439571027
2.35,0.27,-9.23,-0.0792030053617066,0.2429641378785291,0.2817880423836794,-151.06981274894218,-24.40881688456287,-15.077882439571027
2.32,-0.04,-9.58,-0.2843509012410229,0.0219337325959928,-0.046220824096796,-151.16170585731885,-24.37364567505576,-14.89295693159816
2.32,-0.04,-9.58,-0.2843509012410229,0.0219337325959928,-0.046220824096796,-151.16170585731885,-24.37364567505576,-14.89295693159816
2.18,0.07,-9.47,-0.3023670100613774,0.158992242791045,0.0947245648476684,-151.34635737161238,-24.303310245881057,-14.696516297153034
2.18,0.07,-9.47,-0.3023670100613774,0.158992242791045,0.0947245648476684,-151.34635737161238,-24.303310245881057,-14.696516297153034
2.71,0.26,-9.56,0.2110311019013828,0.1033965275098368,-0.1306572324513144,-151.30008546167102,-24.33847679675364,-14.7196246947995
2.71,0.26,-9.56,0.2110311019013828,0.1033965275098368,-0.1306572324513144,-151.30008546167102,-24.33847679675364,-14.7196246947995
2.85,0.16,-9.56,0.2801334869486586,-0.088494624241953,-0.1660825207773548,-151.16170585731885,-24.51434453810049,-14.73117911928188
2.85,0.16,-9.56,0.2801334869486586,-0.088494624241953,-0.1660825207773548,-151.16170585731885,-24.51434453810049,-14.73117911928188
2.99,0.24,-9.55,0.4251545760244267,-0.1036599919646222,-0.1937849001706624,-150.97820441576042,-24.737194611496925,-14.765843296845908
2.99,0.24,-9.55,0.4251545760244267,-0.1036599919646222,-0.1937849001706624,-150.97820441576042,-24.737194611496925,-14.765843296845908
2.94,0.6,-9.5,0.5257448633604832,0.1722528485880598,-0.1405868673317183,-150.84131999821054,-24.87799095241944,-14.788953503219902
2.94,0.6,-9.5,0.5257448633604832,0.1722528485880598,-0.1405868673317183,-150.84131999821054,-24.87799095241944,-14.788953503219902
2.13,0.52,-9.23,-0.1279189904834657,0.412532532835218,0.3296434240169344,-150.84131999821054,-24.995350383000986,-14.661854827129083
2.13,0.52,-9.23,-0.1279189904834657,0.412532532835218,0.3296434240169344,-150.84131999821054,-24.995350383000986,-14.661854827129083
2.23,-0.09,-9.46,-0.3611318310837565,-0.0977576460068386,0.0941514932703651,-150.61456567249238,-25.112736460930662,-14.777398324484167
2.23,-0.09,-9.46,-0.3611318310837565,-0.0977576460068386,0.0941514932703651,-150.61456567249238,-25.112736460930662,-14.777398324484167
2.83,0.03,-9.67,0.1488634577619059,-0.1887627704737203,-0.2661305638476126,-150.56941987552764,-25.124476539770274,-14.89295693159816
2.83,0.03,-9.67,0.1488634577619059,-0.1887627704737203,-0.2661305638476126,-150.56941987552764,-25.124476539770274,-14.89295693159816
2.97,0.06,-9.69,0.2728196667345341,-0.1962627776234623,-0.3228934424046148,-150.479330837061,-25.13621688663897,-14.950741939900691
2.97,0.06,-9.69,0.2728196667345341,-0.1962627776234623,-0.3228934424046148,-150.479330837061,-25.13621688663897,-14.950741939900691
2.68,0.07,-9.58,0.0608685922504182,-0.0632502120407466,-0.1410127619332861,-150.56941987552764,-25.10099664997855,-14.916070477056891
2.68,0.07,-9.58,0.0608685922504182,-0.0632502120407466,-0.1410127619332861,-150.56941987552764,-25.10099664997855,-14.916070477056891
2.43,-0.07,-9.41,-0.15448476087867,-0.1063802994529458,0.0895147384867307,-150.61456567249238,-25.0892571067724,-14.788953503219902
2.43,-0.07,-9.41,-0.15448476087867,-0.1063802994529458,0.0895147384867307,-150.61456567249238,-25.0892571067724,-14.788953503219902
2.58,0.34,-9.39,0.1494052421542619,0.1806093293088455,0.0655433717065072,-150.61456567249238,-25.065778823031927,-14.800508833176536
2.58,0.34,-9.39,0.1494052421542619,0.1806093293088455,0.0655433717065072,-150.61456567249238,-25.065778823031927,-14.800508833176536
