acc_x,acc_y,acc_z,lin_x,lin_y,lin_z,eul_x,eul_y,eul_z
-0.16,-0.05,-9.83,0.0566532934381659,-0.0524917274097234,-0.0244758268265599,-149.59279181341395,-30.38941055279805,1.3751317128217122
-0.16,-0.05,-9.83,0.0566532934381659,-0.0524917274097234,-0.0244758268265599,-149.59279181341395,-30.38941055279805,1.3751317128217122
-0.49,-0.16,-9.73,-0.2782398930844571,0.0185727481426776,0.0669971512110443,-149.54912686270868,-30.413159765182687,1.4209717482803246
-0.49,-0.16,-9.73,-0.2782398930844571,0.0185727481426776,0.0669971512110443,-149.54912686270868,-30.413159765182687,1.4209717482803246
-0.37,0.04,-9.77,-0.0849620966187138,0.1292409498501378,0.0307879807701869,-149.54912686270868,-30.413159765182687,1.3522117780748235
-0.37,0.04,-9.77,-0.0849620966187138,0.1292409498501378,0.0307879807701869,-149.54912686270868,-30.413159765182687,1.3522117780748235
0.06,0.08,-9.98,0.2967608011174408,-0.0459371264899126,-0.1693322978657097,-149.54912686270868,-30.413159765182687,1.2605325708995527
0.06,0.08,-9.98,0.2967608011174408,-0.0459371264899126,-0.1693322978657097,-149.54912686270868,-30.413159765182687,1.2605325708995527
-0.17,-0.01,-9.82,0.0577475524138,-0.0059239520015332,-0.014654909582175,-149.50552295905456,-30.4369103155404,1.306372069959298
-0.17,-0.01,-9.82,0.0577475524138,-0.0059239520015332,-0.014654909582175,-149.50552295905456,-30.4369103155404,1.306372069959298
-0.18,-0.11,-9.96,0.0059717211120428,-0.0791730859349357,-0.1552672833852888,-149.54912686270868,-30.4369103155404,1.3178319771025526
-0.18,-0.11,-9.96,0.0059717211120428,-0.0791730859349357,-0.1552672833852888,-149.54912686270868,-30.4369103155404,1.3178319771025526
-0.48,-0.22,-9.68,-0.3133744054814066,-0.0157542427468956,0.1173389674329961,-149.46197984083236,-30.496292553249216,1.3178319771025526
-0.48,-0.22,-9.68,-0.3133744054814066,-0.0157542427468956,0.1173389674329961,-149.46197984083236,-30.496292553249216,1.3178319771025526
-0.39,-0.11,-9.68,-0.1846155246467668,0.0386236408681399,0.120008408487207,-149.46197984083236,-30.496292553249216,1.283452294756085
-0.39,-0.11,-9.68,-0.1846155246467668,0.0386236408681399,0.120008408487207,-149.46197984083236,-30.496292553249216,1.283452294756085
-0.08,-0.14,-9.97,0.0473547506016362,-0.1207704539260751,-0.1638099705858113,-149.50552295905456,-30.48441543516209,1.100095864564908
-0.08,-0.14,-9.97,0.0473547506016362,-0.1207704539260751,-0.1638099705858113,-149.50552295905456,-30.48441543516209,1.100095864564908
0.04,0.02,-9.86,0.2111548235500048,-0.0444349554737245,-0.0510900642958542,-149.46197984083236,-30.52004779633356,0.9969591404369118
0.04,0.02,-9.86,0.2111548235500048,-0.0444349554737245,-0.0510900642958542,-149.46197984083236,-30.52004779633356,0.9969591404369118
-0.13,0.11,-9.79,0.1130641272188232,0.1267879955532404,0.0166427830813198,-149.50552295905456,-30.460662205117806,1.0084187350403075
-0.13,0.11,-9.79,0.1130641272188232,0.1267879955532404,0.0166427830813198,-149.50552295905456,-30.460662205117806,1.0084187350403075
-0.02,-0.01,-10.01,0.147139886429089,-0.0238820969656545,-0.2022650011010771,-149.50552295905456,-30.47253865250361,0.9740399810272836
-0.02,-0.01,-10.01,0.147139886429089,-0.0238820969656545,-0.2022650011010771,-149.50552295905456,-30.47253865250361,0.9740399810272836
-0.3,-0.18,-9.75,-0.1685124813568643,-0.0196633647795613,0.051850314936626,-149.4184972482763,-30.555683180576786,1.0542572154525014
-0.3,-0.18,-9.75,-0.1685124813568643,-0.0196633647795613,0.051850314936626,-149.4184972482763,-30.555683180576786,1.0542572154525014
-0.41,-0.33,-9.84,-0.3314867491195583,-0.0841756649089062,-0.0414782989507873,-149.37507492345586,-30.61508221704001,1.0771765184626354
-0.41,-0.33,-9.84,-0.3314867491195583,-0.0841756649089062,-0.0414782989507873,-149.37507492345586,-30.61508221704001,1.0771765184626354
-0.16,-0.48,-10.06,-0.1805422117848676,-0.3116664285637077,-0.2596238164163935,-149.37507492345586,-30.61508221704001,1.0771765184626354
-0.16,-0.48,-10.06,-0.1805422117848676,-0.3116664285637077,-0.2596238164163935,-149.37507492345586,-30.61508221704001,1.0771765184626354
-0.21,-0.06,-10.02,-0.0182766094511159,0.0544092651552076,-0.2155656032192929,-149.37507492345586,-30.603201736078947,1.0657168616283692
-0.21,-0.06,-10.02,-0.0182766094511159,0.0544092651552076,-0.2155656032192929,-149.37507492345586,-30.603201736078947,1.0657168616283692
-0.45,-0.08,-9.77,-0.2438007914274393,0.1522476267042939,0.0301894014877586,-149.37507492345586,-30.57944178497209,1.0542572154525014
-0.45,-0.08,-9.77,-0.2438007914274393,0.1522476267042939,0.0301894014877586,-149.37507492345586,-30.57944178497209,1.0542572154525014
-0.42,0.01,-9.59,-0.183669792201953,0.2145990518875333,0.2116089550455058,-149.46197984083236,-30.54380438300529,1.0084187350403075
-0.42,0.01,-9.59,-0.183669792201953,0.2145990518875333,0.2116089550455058,-149.46197984083236,-30.54380438300529,1.0084187350403075
-0.35,0.12,-9.21,-0.0987435465804491,0.2901256963456661,0.5943171362608322,-149.46197984083236,-30.50817000692102,0.8365258107465946
-0.35,0.12,-9.21,-0.0987435465804491,0.2901256963456661,0.5943171362608322,-149.46197984083236,-30.50817000692102,0.8365258107465946
0.1,0.8,-8.12,0.5854418924068463,0.6641490731882683,1.6948953316684747,-149.59279181341395,-30.413159765182687,0.5958787923837214
0.1,0.8,-8.12,0.5854418924068463,0.6641490731882683,1.6948953316684747,-149.59279181341395,-30.413159765182687,0.5958787923837214
-0.07,1.93,-7.65,0.9590676852346148,1.7698155035640497,2.177741673215424,-149.85607839466778,-30.128257166842047,0.2406424508273681
-0.07,1.93,-7.65,0.9590676852346148,1.7698155035640497,2.177741673215424,-149.85607839466778,-30.128257166842047,0.2406424508273681
-0.83,3.22,-6.77,0.8747395322971531,3.3183123602537448,3.089966753752356,-149.85607839466778,-30.09265778200395,-0.43544897228424
-0.83,3.22,-6.77,0.8747395322971531,3.3183123602537448,3.089966753752356,-149.85607839466778,-30.09265778200395,-0.43544897228424
0.45,3.24,-7.96,1.8856258974644569,2.9326274703278847,1.9386254007063728,-148.94411093259438,-30.90031526443885,-1.8908465277120163
0.45,3.24,-7.96,1.8856258974644569,2.9326274703278847,1.9386254007063728,-148.94411093259438,-30.90031526443885,-1.8908465277120163
1.3,0.77,-9.02,1.2344630734758866,0.762836930353727,0.7768393298966156,-147.39783944401512,-32.150547625319554,-3.094348134689141
1.3,0.77,-9.02,1.2344630734758866,0.762836930353727,0.7768393298966156,-147.39783944401512,-32.150547625319554,-3.094348134689141
1.28,-0.14,-9.39,0.5775335649045996,0.4832714377771888,0.3587399824967949,-144.61452078820068,-34.30308206548676,-4.68810243496922
1.28,-0.14,-9.39,0.5775335649045996,0.4832714377771888,0.3587399824967949,-144.61452078820068,-34.30308206548676,-4.68810243496922
2.14,-2.95,-10.2,-0.5447437421909236,-1.7488937155180966,-0.8688698949355711,-142.24057734218397,-36.07025258875129,-5.961449757231111
2.14,-2.95,-10.2,-0.5447437421909236,-1.7488937155180966,-0.8688698949355711,-142.24057734218397,-36.07025258875129,-5.961449757231111
2.55,-4.27,-9.97,-1.2629980100687743,-2.465515699749212,-0.9851231796425584,-139.2388131216407,-38.08870741479733,-7.602997386301144
2.55,-4.27,-9.97,-1.2629980100687743,-2.465515699749212,-0.9851231796425584,-139.2388131216407,-38.08870741479733,-7.602997386301144
3.86,-6.12,-10.65,-1.6424570361848745,-4.110562577070361,-2.2839293982040214,-137.5924585129037,-39.084272157289,-8.61393617408195
3.86,-6.12,-10.65,-1.6424570361848745,-4.110562577070361,-2.2839293982040214,-137.5924585129037,-39.084272157289,-8.61393617408195
3.85,-6.55,-10.47,-2.107432269032986,-4.208756238002534,-2.242872818788856,-136.55893204947213,-39.60756089465345,-9.62554711472919
3.85,-6.55,-10.47,-2.107432269032986,-4.208756238002534,-2.242872818788856,-136.55893204947213,-39.60756089465345,-9.62554711472919
3.71,-6.79,-9.9,-2.3821828099725675,-4.414252338440712,-1.7136703667450988,-136.7450958533554,-39.20589109359036,-10.200656128703407
3.71,-6.79,-9.9,-2.3821828099725675,-4.414252338440712,-1.7136703667450988,-136.7450958533554,-39.20589109359036,-10.200656128703407
3.36,-6.09,-8.98,-2.1121127951382537,-4.088500051313739,-0.5780140230207174,-138.4562899093435,-37.39842842920397,-10.98322086133136
3.36,-6.09,-8.98,-2.1121127951382537,-4.088500051313739,-0.5780140230207174,-138.4562899093435,-37.39842842920397,-10.98322086133136
3.18,-3.81,-9.25,-0.933179446519807,-2.357195519321669,-0.3798020518325149,-140.61001416599206,-35.27575900730597,-11.835420883076136
3.18,-3.81,-9.25,-0.933179446519807,-2.357195519321669,-0.3798020518325149,-140.61001416599206,-35.27575900730597,-11.835420883076136
3.11,-1.46,-9.48,0.1578045085170697,-0.6852549983845069,-0.2521582457257701,-144.1275913572786,-31.769115255908964,-13.057297449093689
3.11,-1.46,-9.48,0.1578045085170697,-0.6852549983845069,-0.2521582457257701,-144.1275913572786,-31.769115255908964,-13.057297449093689
3.59,1.46,-12.05,1.3277457178044958,1.89229246058735,-2.638369909685,-146.71084020226166,-28.95502437185985,-14.095906005217
3.59,1.46,-12.05,1.3277457178044958,1.89229246058735,-2.638369909685,-146.71084020226166,-28.95502437185985,-14.095906005217
3.64,3.62,-14.17,1.52498289127182,3.772576986327008,-4.704896783977379,-149.63651807466178,-25.84113356281753,-14.800508833176536
3.64,3.62,-14.17,1.52498289127182,3.772576986327008,-4.704896783977379,-149.63651807466178,-25.84113356281753,-14.800508833176536
3.69,2.93,-14.55,1.2600038058518157,3.0896759306728745,-5.118824634083154,-151.8602645048557,-23.81122080455561,-14.026630173419028
3.69,2.93,-14.55,1.2600038058518157,3.0896759306728745,-5.118824634083154,-151.8602645048557,-23.81122080455561,-14.026630173419028
2.57,2.68,-13.12,0.7578593754473434,2.986009716848437,-3.4760867337432906,-153.4604028099656,-22.898513619526447,-12.561458728935325
2.57,2.68,-13.12,0.7578593754473434,2.986009716848437,-3.4760867337432906,-153.4604028099656,-22.898513619526447,-12.561458728935325
2.28,0.55,-12.02,0.3172745854291984,1.0184027245240743,-2.393493143755432,-154.63414056108863,-22.51281453874211,-10.52282880334764
2.28,0.55,-12.02,0.3172745854291984,1.0184027245240743,-2.393493143755432,-154.63414056108863,-22.51281453874211,-10.52282880334764
1.63,0.49,-10.4,0.5774296855068133,0.9626613687462556,-0.6717495938033924,-156.36226771891504,-21.963930115303267,-7.1781250358345785
1.63,0.49,-10.4,0.5774296855068133,0.9626613687462556,-0.6717495938033924,-156.36226771891504,-21.963930115303267,-7.1781250358345785
1.05,-0.28,-9.38,0.428997890328163,0.3025483830650645,0.3785152276285952,-157.33304425296922,-21.742186134206424,-3.7363468303015934
1.05,-0.28,-9.38,0.428997890328163,0.3025483830650645,0.3785152276285952,-157.33304425296922,-21.742186134206424,-3.7363468303015934
-0.24,-0.48,-6.61,-0.438006426348055,0.2481071920504201,3.194033786145556,-157.6856148741907,-21.63717831946885,-1.306372069959298
-0.24,-0.48,-6.61,-0.438006426348055,0.2481071920504201,3.194033786145556,-157.6856148741907,-21.63717831946885,-1.306372069959298
-0.2,-0.98,-5.86,-0.3066105704376522,-0.3262129962346187,3.878785710124301,-157.98368078519854,-21.298944377524897,1.3292918974264516
-0.2,-0.98,-5.86,-0.3066105704376522,-0.3262129962346187,3.878785710124301,-157.98368078519854,-21.298944377524897,1.3292918974264516
-0.78,-0.18,-4.22,-0.5315646450875956,0.4309028319823557,5.566253582507587,-158.16444882979192,-21.112413070583106,2.681687249969397
-0.78,-0.18,-4.22,-0.5315646450875956,0.4309028319823557,5.566253582507587,-158.16444882979192,-21.112413070583106,2.681687249969397
-0.22,-0.08,-3.42,0.0282888940446555,0.232622853489651,6.3866666160479575,-158.28578665640208,-20.914285524438075,3.621696182670093
-0.22,-0.08,-3.42,0.0282888940446555,0.232622853489651,6.3866666160479575,-158.28578665640208,-20.914285524438075,3.621696182670093
-0.74,-0.1,-1.38,-0.6099174583059679,0.2563529900977264,8.383876708670162,-158.3467074683401,-20.83272200177108,4.068855279934243
-0.74,-0.1,-1.38,-0.6099174583059679,0.2563529900977264,8.383876708670162,-158.3467074683401,-20.83272200177108,4.068855279934243
-1.41,0.1,-1.66,-1.1862412161119609,0.6929150743726276,8.1136052643523,-158.6538881524584,-20.84437327920369,2.6129139620146145
-1.41,0.1,-1.66,-1.1862412161119609,0.6929150743726276,8.1136052643523,-158.6538881524584,-20.84437327920369,2.6129139620146145
-0.7,0.38,-3.85,-0.4616976901233014,0.8248147109626618,5.990445611407273,-158.71585002764485,-21.007514103633174,0.2177240931471762
-0.7,0.38,-3.85,-0.4616976901233014,0.8248147109626618,5.990445611407273,-158.71585002764485,-21.007514103633174,0.2177240931471762
0.26,-0.88,-4.82,-0.2823618355840142,-0.6076922255796583,4.946055185291035,-158.28578665640208,-21.24064723466595,-3.0599582684028324
0.26,-0.88,-4.82,-0.2823618355840142,-0.6076922255796583,4.946055185291035,-158.28578665640208,-21.24064723466595,-3.0599582684028324
1.6,0.54,-8.4,0.7829877989960233,0.4463839131110357,1.2861293874588269,-157.6264722380801,-21.21732993545333,-6.661520952908496
1.6,0.54,-8.4,0.7829877989960233,0.4463839131110357,1.2861293874588269,-157.6264722380801,-21.21732993545333,-6.661520952908496
3.67,0.69,-10.59,1.4698070369859182,-0.0504935565093526,-1.3257449658093703,-155.591382770185,-21.147383365420364,-11.985198208002226
3.67,0.69,-10.59,1.4698070369859182,-0.0504935565093526,-1.3257449658093703,-155.591382770185,-21.147383365420364,-11.985198208002226
5.38,-0.11,-13.87,1.0736726131559835,-1.0883515911866706,-4.9918674235029465,-153.36074062083046,-21.147383365420364,-15.922114008308863
5.38,-0.11,-13.87,1.0736726131559835,-1.0883515911866706,-4.9918674235029465,-153.36074062083046,-21.147383365420364,-15.922114008308863
7.02,2.78,-15.91,1.4565521261264016,0.7921046839774549,-7.7258320283238175,-150.43438697810743,-20.762818905741057,-20.751169149926103
7.02,2.78,-15.91,1.4565521261264016,0.7921046839774549,-7.7258320283238175,-150.43438697810743,-20.762818905741057,-20.751169149926103
7.12,2.45,-16.26,0.0874303930376894,0.2234804355236348,-8.110573903867232,-147.72605283657722,-20.52986483879688,-24.43226565454688
7.12,2.45,-16.26,0.0874303930376894,0.2234804355236348,-8.110573903867232,-147.72605283657722,-20.52986483879688,-24.43226565454688
5.6,2.11,-13.82,-0.6935413397922249,0.2758452920770764,-5.234872854579523,-146.5511870394875,-20.57644875978384,-25.84113356281753
5.6,2.11,-13.82,-0.6935413397922249,0.2758452920770764,-5.234872854579523,-146.5511870394875,-20.57644875978384,-25.84113356281753
5.1,1.7,-12.17,-0.7205516538567023,-0.0215310864227377,-3.478275356449764,-145.84171829017612,-20.65797889865216,-26.641245110498453
5.1,1.7,-12.17,-0.7205516538567023,-0.0215310864227377,-3.478275356449764,-145.84171829017612,-20.65797889865216,-26.641245110498453
4.43,1.58,-10.57,-0.6659291362990375,0.0366741533204147,-1.7433020947883708,-145.41510886588998,-20.867676487915,-26.97108530932781
4.43,1.58,-10.57,-0.6659291362990375,0.0366741533204147,-1.7433020947883708,-145.41510886588998,-20.867676487915,-26.97108530932781
3.96,1.59,-9.67,-0.6295820416078963,0.1965643419405121,-0.7424537018489072,-145.37657897397716,-20.984205642908503,-26.923951406436
3.96,1.59,-9.67,-0.6295820416078963,0.1965643419405121,-0.7424537018489072,-145.37657897397716,-20.984205642908503,-26.923951406436
4.09,1.22,-8.92,-0.298385681303719,-0.1908749523835494,-0.0755275301674043,-145.29964361056955,-21.100756747738608,-26.923951406436
4.09,1.22,-8.92,-0.298385681303719,-0.1908749523835494,-0.0755275301674043,-145.29964361056955,-21.100756747738608,-26.923951406436
4.33,1.37,-9.0,-0.1003656284386815,-0.1434408414578748,-0.2727920215421626,-145.18454955392758,-21.20567161915569,-26.994654003838164
4.33,1.37,-9.0,-0.1003656284386815,-0.1434408414578748,-0.2727920215421626,-145.18454955392758,-21.20567161915569,-26.994654003838164
4.29,1.46,-8.84,0.0090537564360881,-0.0495676162575837,-0.1270683914641406,-145.37657897397716,-21.170698001897183,-26.770798221316568
4.29,1.46,-8.84,0.0090537564360881,-0.0495676162575837,-0.1270683914641406,-145.37657897397716,-21.170698001897183,-26.770798221316568
4.09,1.48,-8.59,-0.0026501529767962,0.0155615740382677,0.1782362773714023,-145.6083860120317,-21.054133663315955,-26.54704645350268
4.09,1.48,-8.59,-0.0026501529767962,0.0155615740382677,0.1782362773714023,-145.6083860120317,-21.054133663315955,-26.54704645350268
4.18,1.6,-8.71,0.0675755609033756,0.0756827021485776,0.0144997932188513,-145.7248595525418,-20.995859763455265,-26.46463761296408
4.18,1.6,-8.71,0.0675755609033756,0.0756827021485776,0.0144997932188513,-145.7248595525418,-20.995859763455265,-26.46463761296408
4.34,1.46,-8.98,0.0486092870338393,-0.1275690146138557,-0.2724850464077306,-145.84171829017612,-20.879328419459103,-26.346934855604967
4.34,1.46,-8.98,0.0486092870338393,-0.1275690146138557,-0.2724850464077306,-145.84171829017612,-20.879328419459103,-26.346934855604967
3.79,1.68,-8.56,-0.1347245760608142,0.2411815756473209,0.2996115160043864,-145.9981360073074,-20.762818905741057,-26.22926038886817
3.79,1.68,-8.56,-0.1347245760608142,0.2411815756473209,0.2996115160043864,-145.9981360073074,-20.762818905741057,-26.22926038886817
3.82,1.83,-8.65,-0.1238264290997295,0.3583502793412077,0.1827187817943905,-145.9589661948812,-20.623036118505983,-26.335166138238048
3.82,1.83,-8.65,-0.1238264290997295,0.3583502793412077,0.1827187817943905,-145.9589661948812,-20.623036118505983,-26.335166138238048
4.08,1.75,-8.93,-0.0764687242312811,0.1920549752951316,-0.163859887697761,-145.91984007134727,-20.56480245757989,-26.42932380663794
4.08,1.75,-8.93,-0.0764687242312811,0.1920549752951316,-0.163859887697761,-145.91984007134727,-20.56480245757989,-26.42932380663794
4.2,1.89,-9.15,-0.0468952482215418,0.2660119990060996,-0.4335471881443311,-145.88075748629686,-20.52986483879688,-26.499953978465857
4.2,1.89,-9.15,-0.0468952482215418,0.2660119990060996,-0.4335471881443311,-145.88075748629686,-20.52986483879688,-26.499953978465857
4.2,1.82,-8.83,0.0713653758159776,0.1942068253582489,-0.1371164238516264,-145.84171829017612,-20.599742008899195,-26.52349964582953
4.2,1.82,-8.83,0.0713653758159776,0.1942068253582489,-0.1371164238516264,-145.84171829017612,-20.599742008899195,-26.52349964582953
4.32,1.83,-9.07,0.0536748344718238,0.1619858905834166,-0.4034959139130993,-145.68599243347148,-20.70457229377833,-26.59414349441812
4.32,1.83,-9.07,0.0536748344718238,0.1619858905834166,-0.4034959139130993,-145.68599243347148,-20.70457229377833,-26.59414349441812
3.99,1.77,-8.93,-0.1762738957527115,0.2172003653001322,-0.1291263418360895,-145.6083860120317,-20.82107094211026,-26.59414349441812
3.99,1.77,-8.93,-0.1762738957527115,0.2172003653001322,-0.1291263418360895,-145.6083860120317,-20.82107094211026,-26.59414349441812
3.87,1.68,-8.63,-0.1709845562449701,0.1735482190200313,0.2036897638436148,-145.49229376528544,-21.0191686635752,-26.617693729981983
3.87,1.68,-8.63,-0.1709845562449701,0.1735482190200313,0.2036897638436148,-145.49229376528544,-21.0191686635752,-26.617693729981983
4.29,1.41,-9.09,-0.1753701433956606,-0.2024958246564508,-0.3397060332664328,-145.18454955392758,-21.112413070583106,-26.94751777725
4.29,1.41,-9.09,-0.1753701433956606,-0.2024958246564508,-0.3397060332664328,-145.18454955392758,-21.112413070583106,-26.94751777725
4.2,1.7,-9.0,-0.1470594366059039,0.0749916437073855,-0.268207307946307,-144.99354106549774,-21.12406961438943,-27.11251495381608
4.2,1.7,-9.0,-0.1470594366059039,0.0749916437073855,-0.268207307946307,-144.99354106549774,-21.12406961438943,-27.11251495381608
4.15,1.85,-8.76,-0.0292984821845514,0.2212589761545289,-0.0590879888385842,-144.99354106549774,-21.147383365420364,-27.11251495381608
4.15,1.85,-8.76,-0.0292984821845514,0.2212589761545289,-0.0590879888385842,-144.99354106549774,-21.147383365420364,-27.11251495381608
4.14,1.9,-8.91,-0.0873672232820866,0.2642395810827836,-0.1963617670672164,-144.99354106549774,-21.18235565251096,-27.088940429595656
4.14,1.9,-8.91,-0.0873672232820866,0.2642395810827836,-0.1963617670672164,-144.99354106549774,-21.18235565251096,-27.088940429595656
4.17,1.76,-8.96,-0.1308198193364853,0.1167718757998461,-0.2301498138794749,-144.9554604078314,-21.24064723466595,-27.077153605664893
4.17,1.76,-8.96,-0.1308198193364853,0.1167718757998461,-0.2301498138794749,-144.9554604078314,-21.24064723466595,-27.077153605664893
4.37,1.9,-8.97,0.0709909668614644,0.1480323028203845,-0.3491782143774849,-144.87941908090357,-21.31060447484913,-27.077153605664893
4.37,1.9,-8.97,0.0709909668614644,0.1480323028203845,-0.3491782143774849,-144.87941908090357,-21.31060447484913,-27.077153605664893
4.32,1.67,-8.9,-0.0021284381120182,-0.0418947834014709,-0.2262728192424053,-144.87941908090357,-21.38056975127936,-27.0182238619502
4.32,1.67,-8.9,-0.0021284381120182,-0.0418947834014709,-0.2262728192424053,-144.87941908090357,-21.38056975127936,-27.0182238619502
4.17,1.58,-8.82,-0.0850063846462911,-0.0715424933458682,-0.0759283875573313,-145.03166189361892,-21.43888030792546,-26.82969751246112
4.17,1.58,-8.82,-0.0850063846462911,-0.0715424933458682,-0.0759283875573313,-145.03166189361892,-21.43888030792546,-26.82969751246112
4.2,1.71,-8.98,-0.0768933406459973,0.0332708756962943,-0.2530458434633989,-145.10802458844395,-21.403893300909647,-26.74724052277769
4.2,1.71,-8.98,-0.0768933406459973,0.0332708756962943,-0.2530458434633989,-145.10802458844395,-21.403893300909647,-26.74724052277769
4.26,1.69,-9.02,-0.0384765344729227,-0.021165390928786,-0.3107692155174515,-145.18454955392758,-21.38056975127936,-26.65302123047702
4.26,1.69,-9.02,-0.0384765344729227,-0.021165390928786,-0.3107692155174515,-145.18454955392758,-21.38056975127936,-26.65302123047702
4.02,1.6,-8.89,-0.1874503101243726,-0.0193477502738742,-0.0785403393811083,-145.29964361056955,-21.35724709777197,-26.535272907054928
4.02,1.6,-8.89,-0.1874503101243726,-0.0193477502738742,-0.0785403393811083,-145.29964361056955,-21.35724709777197,-26.535272907054928
4.24,1.7,-9.06,-0.0349704478116399,-0.006130837435665,-0.3397749605766158,-145.41510886588998,-21.275624852029367,-26.45286606002896
4.24,1.7,-9.06,-0.0349704478116399,-0.006130837435665,-0.3397749605766158,-145.41510886588998,-21.275624852029367,-26.45286606002896
4.09,2.02,-8.94,0.0032222674936304,0.3274125694139415,-0.2245458721969946,-145.41510886588998,-21.25230621784773,-26.41755310589251
4.09,2.02,-8.94,0.0032222674936304,0.3274125694139415,-0.2245458721969946,-145.41510886588998,-21.25230621784773,-26.41755310589251
4.06,1.85,-8.9,-0.0463812951644367,0.1715196694014109,-0.1474712459195668,-145.49229376528544,-21.28728450329616,-26.335166138238048
4.06,1.85,-8.9,-0.0463812951644367,0.1715196694014109,-0.1474712459195668,-145.49229376528544,-21.28728450329616,-26.335166138238048
4.02,1.69,-8.96,-0.1354735291560361,0.0445714587564802,-0.1571725750944779,-145.5696464213463,-21.31060447484913,-26.205728877683853
4.02,1.69,-8.96,-0.1354735291560361,0.0445714587564802,-0.1571725750944779,-145.5696464213463,-21.31060447484913,-26.205728877683853
4.26,1.74,-8.99,0.0742112897404452,-0.0036334617953677,-0.2923489346682508,-145.5696464213463,-21.34558610673021,-26.158669228245632
4.26,1.74,-8.99,0.0742112897404452,-0.0036334617953677,-0.2923489346682508,-145.5696464213463,-21.34558610673021,-26.158669228245632
4.04,1.67,-8.75,-0.0109229151925579,0.0045874586627071,0.0253995868295682,-145.6083860120317,-21.392231414012297,-26.076325639174165
4.04,1.67,-8.75,-0.0109229151925579,0.0045874586627071,0.0253995868295682,-145.6083860120317,-21.392231414012297,-26.076325639174165
3.77,1.66,-8.7,-0.2110383778085321,0.0889608569026634,0.1834463354696094,-145.6083860120317,-21.42721774773248,-26.041039726290627
3.77,1.66,-8.7,-0.2110383778085321,0.0889608569026634,0.1834463354696094,-145.6083860120317,-21.42721774773248,-26.041039726290627
3.84,1.72,-8.74,-0.1651468782456788,0.1159403121403337,0.1086664800806858,-145.53094905314887,-21.45054309281784,-26.1233774379412
3.84,1.72,-8.74,-0.1651468782456788,0.1159403121403337,0.1086664800806858,-145.53094905314887,-21.45054309281784,-26.1233774379412
4.16,1.71,-8.95,-0.0099426478412167,-0.002975769944704,-0.2099408516095025,-145.4536804163923,-21.46220610254345,-26.205728877683853
4.16,1.71,-8.95,-0.0099426478412167,-0.002975769944704,-0.2099408516095025,-145.4536804163923,-21.46220610254345,-26.205728877683853
4.03,1.77,-8.85,-0.0562484386535421,0.1025116598451143,-0.0768022042019751,-145.4536804163923,-21.46220610254345,-26.22926038886817
4.03,1.77,-8.85,-0.0562484386535421,0.1025116598451143,-0.0768022042019751,-145.4536804163923,-21.46220610254345,-26.22926038886817
4.0,1.61,-8.85,-0.1672408514071898,-0.0232843731315848,-0.0364231144083486,-145.29964361056955,-21.473869337236096,-26.42932380663794
4.0,1.61,-8.85,-0.1672408514071898,-0.0232843731315848,-0.0364231144083486,-145.29964361056955,-21.473869337236096,-26.42932380663794
4.13,1.73,-8.77,-0.0250312390840313,0.0495574352592106,-0.0401574774355388,-145.10802458844395,-21.43888030792546,-26.676574330601248
4.13,1.73,-8.77,-0.0250312390840313,0.0495574352592106,-0.0401574774355388,-145.10802458844395,-21.43888030792546,-26.676574330601248
4.09,1.85,-8.78,-0.0322418948206369,0.1691971300978536,-0.052829336728946,-145.10802458844395,-21.403893300909647,-26.723683975588173
4.09,1.85,-8.78,-0.0322418948206369,0.1691971300978536,-0.052829336728946,-145.10802458844395,-21.403893300909647,-26.723683975588173
4.01,1.78,-8.84,-0.1575343067058963,0.1248092459253595,-0.0601481429814576,-145.06982302382067,-21.38056975127936,-26.75901922805568
4.01,1.78,-8.84,-0.1575343067058963,0.1248092459253595,-0.0601481429814576,-145.06982302382067,-21.38056975127936,-26.75901922805568
4.15,1.8,-8.89,-0.0732659397815296,0.0921021374788291,-0.1673536744699326,-144.99354106549774,-21.35724709777197,-26.8414782366778
4.15,1.8,-8.89,-0.0732659397815296,0.0921021374788291,-0.1673536744699326,-144.99354106549774,-21.35724709777197,-26.8414782366778
4.3,1.97,-8.97,0.0586348539947012,0.1892545450939866,-0.3320158230290993,-144.9554604078314,-21.35724709777197,-26.90038619571759
4.3,1.97,-8.97,0.0586348539947012,0.1892545450939866,-0.3320158230290993,-144.9554604078314,-21.35724709777197,-26.90038619571759
4.29,1.48,-9.03,-0.1248218485488066,-0.2393706955966341,-0.2959497236461068,-144.99354106549774,-21.392231414012297,-26.8414782366778
4.29,1.48,-9.03,-0.1248218485488066,-0.2393706955966341,-0.2959497236461068,-144.99354106549774,-21.392231414012297,-26.8414782366778
