acc_x,acc_y,acc_z,lin_x,lin_y,lin_z,eul_x,eul_y,eul_z
6.26,1.23,-7.36,0.021328348233193,0.104209954671846,0.0671025060499346,-128.39505791682004,-29.902844499943303,-40.80341749737214
6.26,1.23,-7.36,0.021328348233193,0.104209954671846,0.0671025060499346,-128.39505791682004,-29.902844499943303,-40.80341749737214
6.09,1.01,-7.33,-0.2071731824100069,-0.0388051734444517,0.2258006936491252,-128.23732310544656,-30.021467926252928,-40.96239758351413
6.09,1.01,-7.33,-0.2071731824100069,-0.0388051734444517,0.2258006936491252,-128.23732310544656,-30.021467926252928,-40.96239758351413
6.43,1.44,-7.52,0.060316538849875,0.2065462017928266,-0.1894792799596238,-128.10621848828742,-29.97401461191905,-41.13369909947952
6.43,1.44,-7.52,0.060316538849875,0.2065462017928266,-0.1894792799596238,-128.10621848828742,-29.97401461191905,-41.13369909947952
6.63,1.44,-7.6,0.1313349801560399,0.1536458212618784,-0.3791069225166659,-128.1324147334415,-29.89098396291072,-41.182660023882
6.63,1.44,-7.6,0.1313349801560399,0.1536458212618784,-0.3791069225166659,-128.1324147334415,-29.89098396291072,-41.182660023882
6.66,1.3,-7.61,0.0762318929618335,0.0161174595984521,-0.3890171643395455,-128.1324147334415,-29.9147053648035,-41.17041905633896
6.66,1.3,-7.61,0.0762318929618335,0.0161174595984521,-0.3890171643395455,-128.1324147334415,-29.9147053648035,-41.17041905633896
6.41,1.3,-7.46,0.0301986953643548,0.0794764591320505,-0.1141600239467433,-128.2110774660985,-29.92656655764556,-41.06027242384908
6.41,1.3,-7.46,0.0301986953643548,0.0794764591320505,-0.1141600239467433,-128.2110774660985,-29.92656655764556,-41.06027242384908
6.28,1.14,-7.59,-0.1987556690292808,0.0178943542813908,-0.1083021418972887,-128.23732310544656,-29.985877446985693,-40.98686336329807
6.28,1.14,-7.59,-0.1987556690292808,0.0178943542813908,-0.1083021418972887,-128.23732310544656,-29.985877446985693,-40.98686336329807
6.12,1.22,-7.3,-0.0668864864245367,0.0791917980529877,0.2034185200733134,-128.31613447366578,-29.985877446985693,-40.88901194320904
6.12,1.22,-7.3,-0.0668864864245367,0.0791917980529877,0.2034185200733134,-128.31613447366578,-29.985877446985693,-40.88901194320904
6.02,1.46,-7.26,0.0129763803529415,0.3069939116355449,0.2680344635727341,-128.3424298098244,-30.009604103998093,-40.86455395752174
6.02,1.46,-7.26,0.0129763803529415,0.3069939116355449,0.2680344635727341,-128.3424298098244,-30.009604103998093,-40.86455395752174
6.03,1.55,-7.28,0.0383896031012465,0.3724606037321424,0.234732776316898,-128.2635811405088,-30.05706136986712,-40.91347187505044
6.03,1.55,-7.28,0.0383896031012465,0.3724606037321424,0.234732776316898,-128.2635811405088,-30.05706136986712,-40.91347187505044
6.49,1.5,-7.42,0.1944368564877076,0.1656337445068638,-0.1613618264135237,-128.1324147334415,-30.128257166842047,-41.03580078188174
6.49,1.5,-7.42,0.1944368564877076,0.1656337445068638,-0.1613618264135237,-128.1324147334415,-30.128257166842047,-41.03580078188174
6.57,1.03,-7.51,-0.0556508684958215,-0.2429076485084775,-0.2215003207287332,-127.94929869917114,-30.28255562108873,-41.12146009512062
6.57,1.03,-7.51,-0.0556508684958215,-0.2429076485084775,-0.2215003207287332,-127.94929869917114,-30.28255562108873,-41.12146009512062
6.41,1.01,-7.43,-0.1068399499215798,-0.2072646179068424,-0.0553339080818151,-127.94929869917114,-30.33004336729311,-41.07250897869503
6.41,1.01,-7.43,-0.1068399499215798,-0.2072646179068424,-0.0553339080818151,-127.94929869917114,-30.33004336729311,-41.07250897869503
6.39,1.46,-7.59,-0.0168383649943459,0.1999407509113756,-0.2198917849620176,-127.9231881746902,-30.306298828005648,-41.14593859433644
6.39,1.46,-7.59,-0.0168383649943459,0.1999407509113756,-0.2198917849620176,-127.9231881746902,-30.306298828005648,-41.14593859433644
6.05,1.32,-7.25,-0.0847329879639155,0.1421128020347247,0.2735484966985382,-127.89708982203928,-30.35378924019512,-41.12146009512062
6.05,1.32,-7.25,-0.0847329879639155,0.1421128020347247,0.2735484966985382,-127.89708982203928,-30.35378924019512,-41.12146009512062
6.44,1.44,-7.55,0.0176746302920577,0.1433861533439118,-0.2197565356673703,-127.84492955883974,-30.377536447956228,-41.19490148271794
6.44,1.44,-7.55,0.0176746302920577,0.1433861533439118,-0.2197565356673703,-127.84492955883974,-30.377536447956228,-41.19490148271794
6.66,1.32,-7.76,-0.0468308378929693,0.0025435893115507,-0.5041889766679812,-127.7407542896587,-30.401284991821623,-41.26836056402613
6.66,1.32,-7.76,-0.0468308378929693,0.0025435893115507,-0.5041889766679812,-127.7407542896587,-30.401284991821623,-41.26836056402613
6.55,1.37,-7.46,0.0967932835323862,0.0196836995134377,-0.2143900464341275,-127.76677999527551,-30.38941055279805,-41.25611615325416
6.55,1.37,-7.46,0.0967932835323862,0.0196836995134377,-0.2143900464341275,-127.76677999527551,-30.38941055279805,-41.25611615325416
6.71,1.66,-7.7,0.1795051827415911,0.2276692540788761,-0.5367365150692365,-127.76677999527551,-30.38941055279805,-41.26836056402613
6.71,1.66,-7.7,0.1795051827415911,0.2276692540788761,-0.5367365150692365,-127.76677999527551,-30.38941055279805,-41.26836056402613
6.41,1.25,-7.44,-0.015068196567438,-0.0526446059244007,-0.0929056210831689,-127.87100362286014,-30.460662205117806,-41.096983557102725
6.41,1.25,-7.44,-0.015068196567438,-0.0526446059244007,-0.0929056210831689,-127.87100362286014,-30.460662205117806,-41.096983557102725
6.35,1.36,-7.5,-0.0074037030891715,0.0714432652363743,-0.1138812884458424,-128.0015563372832,-30.47253865250361,-40.92570257127247
6.35,1.36,-7.5,-0.0074037030891715,0.0714432652363743,-0.1138812884458424,-128.0015563372832,-30.47253865250361,-40.92570257127247
6.43,1.37,-7.58,0.0133957205138633,0.0629805176639739,-0.2269960974596188,-128.05386288415187,-30.496292553249216,-40.84009791641019
6.43,1.37,-7.58,0.0133957205138633,0.0629805176639739,-0.2269960974596188,-128.05386288415187,-30.496292553249216,-40.84009791641019
6.2,1.2,-7.56,-0.1717442374040442,0.0253844145499291,-0.0423834321910252,-128.1324147334415,-30.567562314513644,-40.69340241756593
6.2,1.2,-7.56,-0.1717442374040442,0.0253844145499291,-0.0423834321910252,-128.1324147334415,-30.567562314513644,-40.69340241756593
6.3,1.15,-7.81,-0.2623382053778873,0.0143497277451576,-0.2898629005668489,-128.18484420355122,-30.59132159210841,-40.58342649226998
6.3,1.15,-7.81,-0.2623382053778873,0.0143497277451576,-0.2898629005668489,-128.18484420355122,-30.59132159210841,-40.58342649226998
6.13,1.18,-7.53,-0.1493381221905652,0.0550652356938976,0.0268306793234387,-128.2898515902458,-30.63884419055943,-40.40021990535208
6.13,1.18,-7.53,-0.1493381221905652,0.0550652356938976,0.0268306793234387,-128.2898515902458,-30.63884419055943,-40.40021990535208
6.22,1.22,-7.58,-0.0796577000999096,0.0735839235277853,-0.0737062717653564,-128.39505791682004,-30.63884419055943,-40.29034769423164
6.22,1.22,-7.58,-0.0796577000999096,0.0735839235277853,-0.0737062717653564,-128.39505791682004,-30.63884419055943,-40.29034769423164
6.24,1.23,-7.61,-0.0435823825788484,0.0871099151643386,-0.1106637713096869,-128.5268474503853,-30.650725683430657,-40.09511461656773
6.24,1.23,-7.61,-0.0435823825788484,0.0871099151643386,-0.1106637713096869,-128.5268474503853,-30.650725683430657,-40.09511461656773
6.01,1.13,-7.16,0.0584877928669336,0.0068955040826934,0.3907521867211727,-128.63250588646886,-30.650725683430657,-39.96096228867753
6.01,1.13,-7.16,0.0584877928669336,0.0068955040826934,0.3907521867211727,-128.63250588646886,-30.650725683430657,-39.96096228867753
5.98,0.94,-7.12,-0.0031248668601716,-0.1321034880935101,0.4620826529453162,-128.73836728652063,-30.63884419055943,-39.82686703824351
5.98,0.94,-7.12,-0.0031248668601716,-0.1321034880935101,0.4620826529453162,-128.73836728652063,-30.63884419055943,-39.82686703824351
6.36,-0.3,-7.41,-0.5461225393308178,-1.2561300651279328,0.1334092074053821,-128.6854111372357,-30.686372188368548,-39.79030547860814
6.36,-0.3,-7.41,-0.5461225393308178,-1.2561300651279328,0.1334092074053821,-128.6854111372357,-30.686372188368548,-39.79030547860814
6.33,-0.12,-6.97,-0.209359311734857,-1.2125781827720332,0.4712323430734937,-128.92411693093345,-30.318170931025325,-39.814679382357845
6.33,-0.12,-6.97,-0.209359311734857,-1.2125781827720332,0.4712323430734937,-128.92411693093345,-30.318170931025325,-39.814679382357845
6.74,-0.54,-6.51,0.1223090795734282,-1.8906612611002376,0.6137320473133325,-129.21728949054742,-29.89098396291072,-39.85124375899717
6.74,-0.54,-6.51,0.1223090795734282,-1.8906612611002376,0.6137320473133325,-129.21728949054742,-29.89098396291072,-39.85124375899717
6.31,-1.6,-5.86,-0.2378138436623258,-2.788864241407269,1.507169244027228,-129.72743673627951,-29.203628467396108,-39.814679382357845
6.31,-1.6,-5.86,-0.2378138436623258,-2.788864241407269,1.507169244027228,-129.72743673627951,-29.203628467396108,-39.814679382357845
6.0,-2.86,-5.16,-0.5816155758081197,-3.93780319261682,2.3931063575713543,-130.10645331555745,-28.375486985220768,-40.009738335861776
6.0,-2.86,-5.16,-0.5816155758081197,-3.93780319261682,2.3931063575713543,-130.10645331555745,-28.375486985220768,-40.009738335861776
5.59,-3.31,-4.26,-0.4451373627931446,-4.4579258387299,3.4599540135335074,-130.5977575270689,-26.5117266696815,-40.85232569399261
5.59,-3.31,-4.26,-0.4451373627931446,-4.4579258387299,3.4599540135335074,-130.5977575270689,-26.5117266696815,-40.85232569399261
5.17,-2.11,-3.56,0.2635524186706123,-3.4382205992728,4.15299815067738,-130.92785324394194,-24.04549296367276,-42.0775906009399
5.17,-2.11,-3.56,0.2635524186706123,-3.4382205992728,4.15299815067738,-130.92785324394194,-24.04549296367276,-42.0775906009399
5.82,-2.36,-3.63,0.5666180604054522,-3.9630807236048233,3.757531456624093,-130.54294242265092,-20.20387293870638,-44.469220271844826
5.82,-2.36,-3.63,0.5666180604054522,-3.9630807236048233,3.757531456624093,-130.54294242265092,-20.20387293870638,-44.469220271844826
6.95,0.32,-3.24,2.0635617683697456,-1.8958915270891568,2.6617351547667623,-128.76486449761614,-15.054764601110485,-47.70706703894191
6.95,0.32,-3.24,2.0635617683697456,-1.8958915270891568,2.6617351547667623,-128.76486449761614,-15.054764601110485,-47.70706703894191
8.49,2.22,-3.43,2.7600609521878714,-0.5334954148952313,0.8138280745700577,-126.60729740721462,-10.67243717618693,-50.2633517404334
8.49,2.22,-3.43,2.7600609521878714,-0.5334954148952313,0.8138280745700577,-126.60729740721462,-10.67243717618693,-50.2633517404334
8.91,3.03,-2.99,2.7024373759115647,0.1389086715625374,0.3099855008065635,-122.85197400573632,-5.020716482682318,-53.19242764249977
8.91,3.03,-2.99,2.7024373759115647,0.1389086715625374,0.3099855008065635,-122.85197400573632,-5.020716482682318,-53.19242764249977
8.63,5.15,-1.39,2.9326368442764705,2.5967562293884576,0.4478040121271149,-119.60574054309872,-0.4583674584234223,-54.903309037029295
8.63,5.15,-1.39,2.9326368442764705,2.5967562293884576,0.4478040121271149,-119.60574054309872,-0.4583674584234223,-54.903309037029295
8.0,5.21,-0.28,2.447194783484649,3.13717076044293,1.1237992405139483,-114.49173656786448,5.123950007684243,-57.29244480095832
8.0,5.21,-0.28,2.447194783484649,3.13717076044293,1.1237992405139483,-114.49173656786448,5.123950007684243,-57.29244480095832
7.45,5.08,2.4,3.5011558084178755,4.270516756323232,2.2851146089282857,-109.57120014176904,8.602444609340731,-59.07590865675504
7.45,5.08,2.4,3.5011558084178755,4.270516756323232,2.2851146089282857,-109.57120014176904,8.602444609340731,-59.07590865675504
10.11,9.15,2.84,1.263479749183217,6.867220057927103,-2.245117820506984,-100.6898195801236,14.349961892702815,-62.95987835378689
10.11,9.15,2.84,1.263479749183217,6.867220057927103,-2.245117820506984,-100.6898195801236,14.349961892702815,-62.95987835378689
10.73,7.21,0.69,-0.4358676942144635,2.9932282650151767,-2.7807923099633096,-92.80467578226568,17.3929494210965,-66.73402593846353
10.73,7.21,0.69,-0.4358676942144635,2.9932282650151767,-2.7807923099633096,-92.80467578226568,17.3929494210965,-66.73402593846353
9.68,4.34,2.42,1.5582626664094423,2.1598437101279337,-0.7432927775839301,-88.21391588431885,18.773754707559725,-68.79069483955588
9.68,4.34,2.42,1.5582626664094423,2.1598437101279337,-0.7432927775839301,-88.21391588431885,18.773754707559725,-68.79069483955588
10.11,5.76,3.49,-0.0182331119403222,2.7893922581506145,-2.0165796088589283,-79.8224623931032,21.78886220109525,-71.73319272014939
10.11,5.76,3.49,-0.0182331119403222,2.7893922581506145,-2.0165796088589283,-79.8224623931032,21.78886220109525,-71.73319272014939
10.63,6.3,3.49,-1.4454139667602632,1.976854148607156,-2.7977074266929267,-73.11083313213125,23.869779338261072,-73.9261202682898
10.63,6.3,3.49,-1.4454139667602632,1.976854148607156,-2.7977074266929267,-73.11083313213125,23.869779338261072,-73.9261202682898
10.67,5.96,4.44,-1.9044183031296955,1.6243801069290438,-2.953392327316857,-65.99466654035382,25.9116795113663,-76.44252722312795
10.67,5.96,4.44,-1.9044183031296955,1.6243801069290438,-2.953392327316857,-65.99466654035382,25.9116795113663,-76.44252722312795
11.94,7.24,3.64,-4.022482881996734,0.0023195849106545,-4.051575935651687,-61.06140467738283,27.136090647491407,-77.70240232798936
11.94,7.24,3.64,-4.022482881996734,0.0023195849106545,-4.051575935651687,-61.06140467738283,27.136090647491407,-77.70240232798936
10.21,8.02,4.54,-5.175627519040249,-0.2058824387782669,-2.934880214442692,-53.55153591306849,28.6474215027532,-75.09226338481456
10.21,8.02,4.54,-5.175627519040249,-0.2058824387782669,-2.934880214442692,-53.55153591306849,28.6474215027532,-75.09226338481456
9.31,8.13,4.91,-5.5213596327862415,-0.5129242542118106,-2.281881611195793,-49.45461164689416,29.274683969227155,-73.18217678230073
9.31,8.13,4.91,-5.5213596327862415,-0.5129242542118106,-2.281881611195793,-49.45461164689416,29.274683969227155,-73.18217678230073
8.76,6.78,4.86,-4.268586639516649,-0.5056718473879558,-1.5003860432652392,-48.975666100652674,28.75387544145841,-73.16790541524159
8.76,6.78,4.86,-4.268586639516649,-0.5056718473879558,-1.5003860432652392,-48.975666100652674,28.75387544145841,-73.16790541524159
7.53,4.98,5.26,-2.415575066654408,0.5301189321041561,-0.3448459988753552,-50.42795316020507,27.312945744821853,-73.76844586798647
7.53,4.98,5.26,-2.415575066654408,0.5301189321041561,-0.3448459988753552,-50.42795316020507,27.312945744821853,-73.76844586798647
7.28,2.0,5.03,0.5990706620523989,0.295462608149524,0.7593787987452494,-52.43756945380554,25.547298987438325,-74.94780449469394
7.28,2.0,5.03,0.5990706620523989,0.295462608149524,0.7593787987452494,-52.43756945380554,25.547298987438325,-74.94780449469394
8.05,1.26,4.51,1.4156832126365244,-0.716664012291822,0.6299167176742593,-53.48736790080603,24.02206117401117,-75.97652033503749
8.05,1.26,4.51,1.4156832126365244,-0.716664012291822,0.6299167176742593,-53.48736790080603,24.02206117401117,-75.97652033503749
7.82,2.81,4.79,-0.0269277498812001,-0.1335255561508004,0.2163400038559242,-53.24369423684897,24.05720924110893,-76.09288289681452
7.82,2.81,4.79,-0.0269277498812001,-0.1335255561508004,0.2163400038559242,-53.24369423684897,24.05720924110893,-76.09288289681452
7.6,3.3,5.06,-0.450727299921437,0.2600106224709775,0.1121753171041941,-53.07711975523274,24.02206117401117,-76.09288289681452
7.6,3.3,5.06,-0.450727299921437,0.2600106224709775,0.1121753171041941,-53.07711975523274,24.02206117401117,-76.09288289681452
7.8,3.37,4.85,-0.5061466288778542,-0.0726815595371304,0.0363924301618912,-52.97467248448692,23.71754026504909,-75.93290816428274
7.8,3.37,4.85,-0.5061466288778542,-0.0726815595371304,0.0363924301618912,-52.97467248448692,23.71754026504909,-75.93290816428274
7.84,3.34,4.84,-0.3592316273595057,-0.1931076151045636,0.0147930725886702,-53.02589040849175,23.155792207151627,-75.41056702241764
7.84,3.34,4.84,-0.3592316273595057,-0.1931076151045636,0.0147930725886702,-53.02589040849175,23.155792207151627,-75.41056702241764
7.87,3.35,4.86,-0.2645075497632801,-0.254690974782525,-0.0241265849643124,-53.05150365290267,22.79329707445838,-74.86119614779109
7.87,3.35,4.86,-0.2645075497632801,-0.254690974782525,-0.0241265849643124,-53.05150365290267,22.79329707445838,-74.86119614779109
8.01,3.43,5.16,-0.1236237361337988,-0.1576334668510188,-0.3180953726991493,-53.01308485730727,22.477763863075143,-74.12703326079642
8.01,3.43,5.16,-0.1236237361337988,-0.1576334668510188,-0.3180953726991493,-53.01308485730727,22.477763863075143,-74.12703326079642
8.04,3.48,5.22,-0.099646988397211,-0.1546409103687895,-0.3897492010191321,-52.96186978619433,22.40766889888877,-73.668192340648
8.04,3.48,5.22,-0.099646988397211,-0.1546409103687895,-0.3897492010191321,-52.96186978619433,22.40766889888877,-73.668192340648
7.61,3.63,5.06,-0.3580222372756068,-0.0145420154428523,-0.0200589408103972,-52.93626652690735,22.524498571325392,-73.29639527690128
7.61,3.63,5.06,-0.3580222372756068,-0.0145420154428523,-0.0200589408103972,-52.93626652690735,22.524498571325392,-73.29639527690128
7.37,3.88,5.07,-0.6704007133090529,0.1715541361592416,0.0805340197146851,-52.84667753179352,22.69978760508081,-73.33924904872958
7.37,3.88,5.07,-0.6704007133090529,0.1715541361592416,0.0805340197146851,-52.84667753179352,22.69978760508081,-73.33924904872958
7.55,3.81,4.77,-0.6983239527295904,-0.1808101980342118,0.124132180272996,-52.73154278918168,22.711475449834968,-73.76844586798647
7.55,3.81,4.77,-0.6983239527295904,-0.1808101980342118,0.124132180272996,-52.73154278918168,22.711475449834968,-73.76844586798647
7.36,3.38,5.09,-0.2391470213266815,0.1550161943926273,0.2452233971511006,-52.93626652690735,22.489447184752866,-74.21322028612755
7.36,3.38,5.09,-0.2391470213266815,0.1550161943926273,0.2452233971511006,-52.93626652690735,22.489447184752866,-74.21322028612755
7.43,3.08,4.81,-0.013981249467406,-0.169583597792714,0.4365675068720414,-53.01308485730727,22.104021805228783,-74.63048498986646
7.43,3.08,4.81,-0.013981249467406,-0.169583597792714,0.4365675068720414,-53.01308485730727,22.104021805228783,-74.63048498986646
7.64,3.41,4.99,-0.2245710707431445,-0.1482547524110093,0.0688171629374938,-52.79549944688719,22.08067087291992,-74.44329258880299
7.64,3.41,4.99,-0.2245710707431445,-0.1482547524110093,0.0688171629374938,-52.79549944688719,22.08067087291992,-74.44329258880299
7.51,3.78,5.32,-0.4901791056895164,0.2043832446367968,-0.1285828575457746,-52.61646535624809,22.139049946746336,-74.0983151328391
7.51,3.78,5.32,-0.4901791056895164,0.2043832446367968,-0.1285828575457746,-52.61646535624809,22.139049946746336,-74.0983151328391
7.68,3.73,5.06,-0.4439003968135349,-0.1573124420000438,-0.106830984664306,-52.51422225376784,21.97560315049688,-73.76844586798647
7.68,3.73,5.06,-0.4439003968135349,-0.1573124420000438,-0.106830984664306,-52.51422225376784,21.97560315049688,-73.76844586798647
7.32,3.59,5.03,-0.3543372393814799,0.0042972571699717,0.2334673184479357,-52.6036825036909,21.81220160634161,-73.56800446686195
7.32,3.59,5.03,-0.3543372393814799,0.0042972571699717,0.2334673184479357,-52.6036825036909,21.81220160634161,-73.56800446686195
7.28,3.49,5.1,-0.2278618338786593,0.0566522490948073,0.2602700836477307,-52.61646535624809,21.672178876755066,-73.51078365135078
7.28,3.49,5.1,-0.2278618338786593,0.0566522490948073,0.2602700836477307,-52.61646535624809,21.672178876755066,-73.51078365135078
7.37,3.59,5.17,-0.2855539272803319,0.056740480402637,0.1190734468831955,-52.56533817350319,21.602179804976902,-73.61093410103018
7.37,3.59,5.17,-0.2855539272803319,0.056740480402637,0.1190734468831955,-52.56533817350319,21.602179804976902,-73.61093410103018
7.47,3.75,4.94,-0.4861881456864009,-0.1947960123697802,0.1116680195856556,-52.42479644291255,21.53218888989049,-73.65387577244138
7.47,3.75,4.94,-0.4861881456864009,-0.1947960123697802,0.1116680195856556,-52.42479644291255,21.53218888989049,-73.65387577244138
7.61,3.67,5.28,-0.2731035279500082,-0.0397808589202985,-0.1524278662627605,-52.386481614636175,21.415555412105128,-73.668192340648
7.61,3.67,5.28,-0.2731035279500082,-0.0397808589202985,-0.1524278662627605,-52.386481614636175,21.415555412105128,-73.668192340648
7.68,3.65,5.26,-0.2294282684888173,-0.1117289763224818,-0.1887178924523862,-52.39925252360182,21.32226479540238,-73.62524665323141
7.68,3.65,5.26,-0.2294282684888173,-0.1117289763224818,-0.1887178924523862,-52.39925252360182,21.32226479540238,-73.62524665323141
7.53,3.57,5.2,-0.1784105726930394,-0.0802108282694866,-0.0141206362881565,-52.47589269472505,21.22898847391229,-73.51078365135078
7.53,3.57,5.2,-0.1784105726930394,-0.0802108282694866,-0.0141206362881565,-52.47589269472505,21.22898847391229,-73.51078365135078
7.41,3.69,5.18,-0.3043305444675277,-0.0217050680793524,0.0463471455941064,-52.47589269472505,21.18235565251096,-73.36782485981517
7.41,3.69,5.18,-0.3043305444675277,-0.0217050680793524,0.0463471455941064,-52.47589269472505,21.18235565251096,-73.36782485981517
7.39,3.7,5.15,-0.2968492838349379,-0.0432508760415364,0.0734794033029313,-52.51422225376784,21.100756747738608,-73.15363536728181
7.39,3.7,5.15,-0.2968492838349379,-0.0432508760415364,0.0734794033029313,-52.51422225376784,21.100756747738608,-73.15363536728181
7.27,3.7,5.26,-0.277045314484927,0.1089869688063007,0.1050074723476672,-52.527000178757774,21.054133663315955,-73.05378191708796
7.27,3.7,5.26,-0.277045314484927,0.1089869688063007,0.1050074723476672,-52.527000178757774,21.054133663315955,-73.05378191708796
7.42,3.6,5.09,-0.1909400138288244,-0.1496110029582023,0.1182208982873351,-52.46311757943749,20.92593832998922,-73.06804274776655
7.42,3.6,5.09,-0.1909400138288244,-0.1496110029582023,0.1182208982873351,-52.46311757943749,20.92593832998922,-73.06804274776655
7.43,3.66,5.25,-0.2000408151534605,-0.0402238797387979,0.0024995670572511,-52.386481614636175,20.879328419459103,-73.09656835470321
7.43,3.66,5.25,-0.2000408151534605,-0.0402238797387979,0.0024995670572511,-52.386481614636175,20.879328419459103,-73.09656835470321
7.31,3.69,5.26,-0.2547252454768818,0.0294632207938334,0.077618857695171,-52.309870853255504,20.856024774540764,-73.09656835470321
7.31,3.69,5.26,-0.2547252454768818,0.0294632207938334,0.077618857695171,-52.309870853255504,20.856024774540764,-73.09656835470321
7.38,3.7,5.15,-0.2844414374206636,-0.112168495880202,0.0812496844751908,-52.23328523623708,20.82107094211026,-73.12509922631307
7.38,3.7,5.15,-0.2844414374206636,-0.112168495880202,0.0812496844751908,-52.23328523623708,20.82107094211026,-73.12509922631307
7.4,3.68,5.28,-0.2181049999859004,-0.035488788965573,0.001958737403358,-52.22052340718582,20.73951961095484,-73.16790541524159
7.4,3.68,5.28,-0.2181049999859004,-0.035488788965573,0.001958737403358,-52.22052340718582,20.73951961095484,-73.16790541524159
7.33,3.65,5.34,-0.1878230076294853,0.0401041714600054,0.0326992034573567,-52.18224209821447,20.681275164117206,-73.21072347606676
7.33,3.65,5.34,-0.1878230076294853,0.0401041714600054,0.0326992034573567,-52.18224209821447,20.681275164117206,-73.21072347606676
7.44,3.72,5.16,-0.2789446432336735,-0.1753753663633266,0.0235506257278448,-52.131210091854,20.623036118505983,-73.22499880394925
7.44,3.72,5.16,-0.2789446432336735,-0.1753753663633266,0.0235506257278448,-52.131210091854,20.623036118505983,-73.22499880394925
7.34,3.66,5.4,-0.1717492269859908,0.0670388378356956,-0.0115579829901406,-52.14396705080251,20.599742008899195,-73.22499880394925
7.34,3.66,5.4,-0.1717492269859908,0.0670388378356956,-0.0115579829901406,-52.14396705080251,20.599742008899195,-73.22499880394925
7.25,3.73,5.3,-0.2834058050357617,0.0459936375772902,0.0864151399272028,-52.131210091854,20.57644875978384,-73.21072347606676
7.25,3.73,5.3,-0.2834058050357617,0.0459936375772902,0.0864151399272028,-52.131210091854,20.57644875978384,-73.21072347606676
7.41,3.59,5.29,-0.1128022739222853,-0.0766136333321867,0.0208589743247795,-52.15672470466425,20.518219394705007,-73.22499880394925
7.41,3.59,5.29,-0.1128022739222853,-0.0766136333321867,0.0208589743247795,-52.15672470466425,20.518219394705007,-73.22499880394925
7.32,3.75,5.36,-0.2636202351270387,0.0459073513454044,-0.0067539398530858,-52.1184538275471,20.54151049721856,-73.18217678230073
7.32,3.75,5.36,-0.2636202351270387,0.0459073513454044,-0.0067539398530858,-52.1184538275471,20.54151049721856,-73.18217678230073
7.25,3.68,5.37,-0.2037887353892955,0.0877310437642326,0.0653680815208677,-52.14396705080251,20.506574164810864,-73.16790541524159
7.25,3.68,5.37,-0.2037887353892955,0.0877310437642326,0.0653680815208677,-52.14396705080251,20.506574164810864,-73.16790541524159
7.36,3.66,5.26,-0.1968722902761974,-0.0790141238235686,0.0502265738894944,-52.08018919976154,20.48328434708745,-73.19644946904657
7.36,3.66,5.26,-0.1968722902761974,-0.0790141238235686,0.0502265738894944,-52.08018919976154,20.48328434708745,-73.19644946904657
7.36,3.67,5.24,-0.2163957000873309,-0.0972272691408477,0.05781315865738,-52.04193081398262,20.49492914898236,-73.19644946904657
7.36,3.67,5.24,-0.2163957000873309,-0.0972272691408477,0.05781315865738,-52.04193081398262,20.49492914898236,-73.19644946904657
