,TIME,ELAPSED_SECONDS,PSTATE,acc_x,acc_y,acc_z,mag_x,mag_y,mag_z,gyr_x,gyr_y,gyr_z,lin_x,lin_y,lin_z,eul_x,eul_y,eul_z,qua_w,qua_x,qua_y,qua_z
0,918595.0,828.799632,1.0,0.46,-0.27,-9.89,6.0,-16.06,30.75,0.63,1.56,1.44,0.13739890599931529,-0.07286022359506264,-0.09650166643669422,-155.10823234547746,-24.772390131710253,-1.3980517025844337,0.0162,-0.9765,-0.2145,-0.0122
1,918595.0,828.799632,1.0,0.46,-0.27,-9.89,6.0,-16.06,30.75,0.63,1.56,1.44,0.13739890599931529,-0.07286022359506264,-0.09650166643669422,-155.10823234547746,-24.772390131710253,-1.3980517025844337,0.0162,-0.9765,-0.2145,-0.0122
2,918630.0,828.916391,1.0,0.49,-0.35,-9.81,5.19,-15.69,33.56,-1.94,-1.44,0.06,0.13541391530179506,-0.15742252037826676,-0.019619954648124605,-155.16145880106285,-24.737194611496925,-1.3865917007687605,0.0164,-0.9766,-0.2142,-0.0121
3,918630.0,828.916391,1.0,0.49,-0.35,-9.81,5.19,-15.69,33.56,-1.94,-1.44,0.06,0.13541391530179506,-0.15742252037826676,-0.019619954648124605,-155.16145880106285,-24.737194611496925,-1.3865917007687605,0.0164,-0.9766,-0.2142,-0.0121
4,918665.0,828.964926,1.0,0.33,-0.25,-9.74,5.19,-15.69,33.56,-0.56,-0.81,0.81,0.03341371791943675,-0.010417271015686291,0.0579180309734948,-155.16145880106285,-24.737194611496925,-1.3751317128217122,0.016,-0.9766,-0.2142,-0.012
5,918665.0,828.964926,1.0,0.33,-0.25,-9.74,5.19,-15.69,33.56,-0.56,-0.81,0.81,0.03341371791943675,-0.010417271015686291,0.0579180309734948,-155.16145880106285,-24.737194611496925,-1.3751317128217122,0.016,-0.9766,-0.2142,-0.012
6,918700.0,828.972275,1.0,0.39,-0.24,-9.89,5.19,-16.5,32.0,0.25,0.63,1.63,0.0902172632039404,-0.01884789728749639,-0.09351694819778976,-155.214797761141,-24.67854067669555,-1.3751317128217122,0.0161,-0.9767,-0.2137,-0.012
7,918700.0,828.972275,1.0,0.39,-0.24,-9.89,5.19,-16.5,32.0,0.25,0.63,1.63,0.0902172632039404,-0.01884789728749639,-0.09351694819778976,-155.214797761141,-24.67854067669555,-1.3751317128217122,0.0161,-0.9767,-0.2137,-0.012
8,918734.0,828.990633,1.0,0.41,-0.14,-9.74,4.88,-16.06,32.0,-2.0,-1.0,-0.19,0.15205475433394272,0.046298855219345486,0.058314974587206685,-155.214797761141,-24.67854067669555,-1.3636717386286217,0.0155,-0.9767,-0.2137,-0.0119
9,918734.0,828.990633,1.0,0.41,-0.14,-9.74,4.88,-16.06,32.0,-2.0,-1.0,-0.19,0.15205475433394272,0.046298855219345486,0.058314974587206685,-155.214797761141,-24.67854067669555,-1.3636717386286217,0.0155,-0.9767,-0.2137,-0.0119
10,918769.0,828.993833,1.0,0.27,-0.09,-9.59,5.56,-15.69,30.75,0.75,-1.37,0.75,0.056818634348999114,0.13902851684199688,0.2136034185278035,-155.214797761141,-24.666810678302642,-1.306372069959298,0.0153,-0.9767,-0.2136,-0.0114
11,918769.0,828.993833,1.0,0.27,-0.09,-9.59,5.56,-15.69,30.75,0.75,-1.37,0.75,0.056818634348999114,0.13902851684199688,0.2136034185278035,-155.214797761141,-24.666810678302642,-1.306372069959298,0.0153,-0.9767,-0.2136,-0.0114
12,918804.0,829.026637,1.0,0.32,-0.25,-9.68,5.56,-15.69,30.75,0.31,-0.69,-0.5,0.038206089233506185,-0.02294899820282502,0.11823869379365347,-155.214797761141,-24.666810678302642,-1.283452294756085,0.0154,-0.9767,-0.2136,-0.0112
13,918804.0,829.026637,1.0,0.32,-0.25,-9.68,5.56,-15.69,30.75,0.31,-0.69,-0.5,0.038206089233506185,-0.02294899820282502,0.11823869379365347,-155.214797761141,-24.666810678302642,-1.283452294756085,0.0154,-0.9767,-0.2136,-0.0112
14,918841.0,829.0384849999999,1.0,0.32,-0.24,-9.6,5.19,-16.06,33.56,0.5,-0.12,-0.69,0.04227482528240722,-0.022375964070980248,0.1984393364383763,-155.214797761141,-24.70200146162693,-1.283452294756085,0.0151,-0.9767,-0.2139,-0.0112
15,918841.0,829.0384849999999,1.0,0.32,-0.24,-9.6,5.19,-16.06,33.56,0.5,-0.12,-0.69,0.04227482528240722,-0.022375964070980248,0.1984393364383763,-155.214797761141,-24.70200146162693,-1.283452294756085,0.0151,-0.9767,-0.2139,-0.0112
16,918876.0,829.054344,1.0,0.25,-0.29,-9.58,6.0,-16.06,31.56,1.12,0.44,1.44,-0.03869034079266214,-0.03399108167984291,0.2191400175334568,-155.214797761141,-24.666810678302642,-1.2719924264668117,0.0154,-0.9767,-0.2136,-0.0111
17,918876.0,829.054344,1.0,0.25,-0.29,-9.58,6.0,-16.06,31.56,1.12,0.44,1.44,-0.03869034079266214,-0.03399108167984291,0.2191400175334568,-155.214797761141,-24.666810678302642,-1.2719924264668117,0.0154,-0.9767,-0.2136,-0.0111
18,918908.0,829.092132,1.0,0.31,-0.22,-9.77,6.0,-16.06,31.56,-2.31,0.56,-0.63,0.03475326919765659,0.004773386690905324,0.029320639430236994,-155.214797761141,-24.67854067669555,-1.306372069959298,0.015,-0.9767,-0.2137,-0.0114
19,918908.0,829.092132,1.0,0.31,-0.22,-9.77,6.0,-16.06,31.56,-2.31,0.56,-0.63,0.03475326919765659,0.004773386690905324,0.029320639430236994,-155.214797761141,-24.67854067669555,-1.306372069959298,0.015,-0.9767,-0.2137,-0.0114
20,918943.0,829.098611,1.0,0.32,-0.28,-9.78,4.88,-16.06,32.75,-0.19,1.12,0.06,0.015204898251518063,-0.05079957676863631,0.01755462738924507,-155.214797761141,-24.67854067669555,-1.3292918974264516,0.0151,-0.9767,-0.2137,-0.0116
21,918943.0,829.098611,1.0,0.32,-0.28,-9.78,4.88,-16.06,32.75,-0.19,1.12,0.06,0.015204898251518063,-0.05079957676863631,0.01755462738924507,-155.214797761141,-24.67854067669555,-1.3292918974264516,0.0151,-0.9767,-0.2137,-0.0116
22,918980.0,829.153445,1.0,0.42,-0.19,-9.79,5.56,-16.5,31.56,-1.56,0.44,0.12,0.13702288391214834,-0.012870048122606769,0.00676943485300896,-155.2682499537731,-24.64335146895964,-1.3636717386286217,0.0149,-0.9768,-0.2134,-0.0119
23,918980.0,829.153445,1.0,0.42,-0.19,-9.79,5.56,-16.5,31.56,-1.56,0.44,0.12,0.13702288391214834,-0.012870048122606769,0.00676943485300896,-155.2682499537731,-24.64335146895964,-1.3636717386286217,0.0149,-0.9768,-0.2134,-0.0119
24,919015.0,829.169675,1.0,0.32,-0.15,-9.75,5.56,-16.5,31.56,-0.69,2.06,-0.75,0.054594847071146736,0.05966021439651462,0.050582141405971726,-155.214797761141,-24.666810678302642,-1.4095117183833985,0.0146,-0.9767,-0.2136,-0.0123
25,919015.0,829.169675,1.0,0.32,-0.15,-9.75,5.56,-16.5,31.56,-0.69,2.06,-0.75,0.054594847071146736,0.05966021439651462,0.050582141405971726,-155.214797761141,-24.666810678302642,-1.4095117183833985,0.0146,-0.9767,-0.2136,-0.0123
26,919048.0,829.214642,1.0,0.39,-0.32,-9.85,6.0,-16.5,30.37,-0.19,2.13,-0.06,0.03150427997641074,-0.11953654968347828,-0.055485594972974894,-155.214797761141,-24.666810678302642,-1.4897322301406863,0.0145,-0.9767,-0.2136,-0.013000000000000001
27,919048.0,829.214642,1.0,0.39,-0.32,-9.85,6.0,-16.5,30.37,-0.19,2.13,-0.06,0.03150427997641074,-0.11953654968347828,-0.055485594972974894,-155.214797761141,-24.666810678302642,-1.4897322301406863,0.0145,-0.9767,-0.2136,-0.013000000000000001
28,919085.0,829.2705179999999,1.0,0.35,-0.17,-9.63,5.19,-16.5,31.56,3.94,-0.88,0.81,0.06592027841490736,0.02523544692099056,0.16905083375987395,-155.2682499537731,-24.61989330860375,-1.4668120111410634,0.0145,-0.9768,-0.2132,-0.0128
29,919085.0,829.2705179999999,1.0,0.35,-0.17,-9.63,5.19,-16.5,31.56,3.94,-0.88,0.81,0.06592027841490736,0.02523544692099056,0.16905083375987395,-155.2682499537731,-24.61989330860375,-1.4668120111410634,0.0145,-0.9768,-0.2132,-0.0128
30,919119.0,829.332325,1.0,0.33,-0.27,-9.7,6.0,-16.5,32.38,-1.31,0.88,-0.06,0.003669183602973778,-0.05073560560485231,0.09741664018133632,-155.2682499537731,-24.61989330860375,-1.4782721132478738,0.0147,-0.9768,-0.2132,-0.0129
31,919119.0,829.332325,1.0,0.33,-0.27,-9.7,6.0,-16.5,32.38,-1.31,0.88,-0.06,0.003669183602973778,-0.05073560560485231,0.09741664018133632,-155.2682499537731,-24.61989330860375,-1.4782721132478738,0.0147,-0.9768,-0.2132,-0.0129
32,919154.0,829.387151,1.0,0.4,-0.18,-9.8,6.0,-16.5,32.38,1.37,0.81,-0.19,0.09551540331010444,-0.0010285418584595057,-0.002696346716081877,-155.2682499537731,-24.608164621444825,-1.5126525087430307,0.0143,-0.9768,-0.2131,-0.0132
33,919154.0,829.387151,1.0,0.4,-0.18,-9.8,6.0,-16.5,32.38,1.37,0.81,-0.19,0.09551540331010444,-0.0010285418584595057,-0.002696346716081877,-155.2682499537731,-24.608164621444825,-1.5126525087430307,0.0143,-0.9768,-0.2131,-0.0132
34,919189.0,829.410203,1.0,0.25,-0.28,-9.56,4.88,-16.75,32.0,0.12,-1.0,0.81,-0.06695629150870415,-0.02426152065675874,0.2395486503934823,-155.32181611488016,-24.596436196111345,-1.4668120111410634,0.0151,-0.9769,-0.213,-0.0128
35,919189.0,829.410203,1.0,0.25,-0.28,-9.56,4.88,-16.75,32.0,0.12,-1.0,0.81,-0.06695629150870415,-0.02426152065675874,0.2395486503934823,-155.32181611488016,-24.596436196111345,-1.4668120111410634,0.0151,-0.9769,-0.213,-0.0128
36,919224.0,829.4132139999999,1.0,0.3,-0.22,-9.63,5.19,-16.75,32.0,-0.75,1.63,-0.63,-0.0065815890914220606,0.007921085447116491,0.16947230426924342,-155.32181611488016,-24.596436196111345,-1.5126525087430307,0.0148,-0.9769,-0.213,-0.0132
37,919224.0,829.4132139999999,1.0,0.3,-0.22,-9.63,5.19,-16.75,32.0,-0.75,1.63,-0.63,-0.0065815890914220606,0.007921085447116491,0.16947230426924342,-155.32181611488016,-24.596436196111345,-1.5126525087430307,0.0148,-0.9769,-0.213,-0.0132
38,919259.0,829.452333,1.0,0.4,-0.37,-9.68,5.19,-16.75,32.0,2.06,2.81,0.88,0.012507151905707337,-0.15245747949693705,0.11253321258214476,-155.32181611488016,-24.57298013035922,-1.581413711340907,0.0155,-0.9769,-0.2128,-0.0138
39,919259.0,829.452333,1.0,0.4,-0.37,-9.68,5.19,-16.75,32.0,2.06,2.81,0.88,0.012507151905707337,-0.15245747949693705,0.11253321258214476,-155.32181611488016,-24.57298013035922,-1.581413711340907,0.0155,-0.9769,-0.2128,-0.0138
40,919293.0,829.465962,1.0,0.33,-0.21,-9.73,4.88,-16.06,31.56,-2.25,0.0,0.44,0.005252816499200015,0.01798973969414801,0.0688089262719771,-155.32181611488016,-24.537797991913113,-1.6272548279067642,0.0151,-0.9769,-0.2125,-0.0142
41,919293.0,829.465962,1.0,0.33,-0.21,-9.73,4.88,-16.06,31.56,-2.25,0.0,0.44,0.005252816499200015,0.01798973969414801,0.0688089262719771,-155.32181611488016,-24.537797991913113,-1.6272548279067642,0.0151,-0.9769,-0.2125,-0.0142
42,919330.0,829.4717360000001,1.0,0.33,-0.3,-9.52,6.0,-16.75,33.56,-1.31,1.31,0.5,-0.03714820056217108,-0.0789951991775951,0.2766090887708206,-155.32181611488016,-24.537797991913113,-1.6730962049034406,0.0146,-0.9769,-0.2125,-0.0146
43,919330.0,829.4717360000001,1.0,0.33,-0.3,-9.52,6.0,-16.75,33.56,-1.31,1.31,0.5,-0.03714820056217108,-0.0789951991775951,0.2766090887708206,-155.32181611488016,-24.537797991913113,-1.6730962049034406,0.0146,-0.9769,-0.2125,-0.0146
44,919363.0,829.514387,1.0,0.29,-0.17,-9.53,6.0,-16.75,33.56,-2.94,2.56,0.75,-0.03883205359743673,0.04865127182901646,0.2709263711733509,-155.3754969883622,-24.50261820231894,-1.7762402933693409,0.013999999999999999,-0.977,-0.2122,-0.0155
45,919363.0,829.514387,1.0,0.29,-0.17,-9.53,6.0,-16.75,33.56,-2.94,2.56,0.75,-0.03883205359743673,0.04865127182901646,0.2709263711733509,-155.3754969883622,-24.50261820231894,-1.7762402933693409,0.013999999999999999,-0.977,-0.2122,-0.0155
46,919398.0,829.531206,1.0,0.53,-0.24,-9.93,5.19,-15.25,32.5,-2.06,2.94,1.12,0.11928567391753615,-0.10619695342131047,-0.1390974900121016,-155.4292933262199,-24.467440757791284,-1.8908465277120163,0.0135,-0.9771,-0.2119,-0.0165
47,919398.0,829.531206,1.0,0.53,-0.24,-9.93,5.19,-15.25,32.5,-2.06,2.94,1.12,0.11928567391753615,-0.10619695342131047,-0.1390974900121016,-155.4292933262199,-24.467440757791284,-1.8908465277120163,0.0135,-0.9771,-0.2119,-0.0165
48,919433.0,829.572217,1.0,0.29,-0.23,-9.76,4.5,-16.5,32.0,0.56,3.06,1.5,-0.10105385941413914,-0.007108211567746603,0.04015945370724161,-155.4292933262199,-24.420541139763646,-1.94815034703792,0.0132,-0.9771,-0.2115,-0.017
49,919433.0,829.572217,1.0,0.29,-0.23,-9.76,4.5,-16.5,32.0,0.56,3.06,1.5,-0.10105385941413914,-0.007108211567746603,0.04015945370724161,-155.4292933262199,-24.420541139763646,-1.94815034703792,0.0132,-0.9771,-0.2115,-0.017
50,919468.0,829.712753,1.0,0.35,-0.37,-10.16,4.5,-16.5,32.0,-1.19,4.75,1.37,-0.135757548221017,-0.13541010015761007,-0.3643004960390144,-155.48320588867858,-24.373645675055762,-2.0742204847835874,0.0135,-0.9772,-0.2111,-0.0181
51,919468.0,829.712753,1.0,0.35,-0.37,-10.16,4.5,-16.5,32.0,-1.19,4.75,1.37,-0.135757548221017,-0.13541010015761007,-0.3643004960390144,-155.48320588867858,-24.373645675055762,-2.0742204847835874,0.0135,-0.9772,-0.2111,-0.0181
52,919502.0,829.802144,1.0,0.49,-0.29,-11.37,5.19,-16.5,32.0,-1.69,0.5,6.38,-0.03670445985708593,-0.08221425315151187,-1.5772418476593641,-155.6456486519571,-24.186105170420962,-2.200293133435064,0.0131,-0.9775,-0.2095,-0.0192
53,919502.0,829.802144,1.0,0.49,-0.29,-11.37,5.19,-16.5,32.0,-1.69,0.5,6.38,-0.03670445985708593,-0.08221425315151187,-1.5772418476593641,-155.6456486519571,-24.186105170420962,-2.200293133435064,0.0131,-0.9775,-0.2095,-0.0192
54,919537.0,829.8687940000001,1.0,0.66,0.34,-11.8,4.88,-16.5,32.0,-13.81,-5.56,3.63,0.3603989109814748,0.3402796558387531,-2.00628876987372,-155.8639137604186,-24.01034566150753,-2.1086036789736795,0.009000000000000001,-0.9779,-0.20800000000000002,-0.0184
55,919537.0,829.8687940000001,1.0,0.66,0.34,-11.8,4.88,-16.5,32.0,-13.81,-5.56,3.63,0.3603989109814748,0.3402796558387531,-2.00628876987372,-155.8639137604186,-24.01034566150753,-2.1086036789736795,0.009000000000000001,-0.9779,-0.20800000000000002,-0.0184
56,919574.0,829.926522,1.0,0.7,1.51,-11.6,4.88,-17.19,31.19,-6.44,-18.31,4.13,0.9299186166134356,1.2933816548711976,-1.8033678837639344,-156.02889725740351,-23.881491803544503,-1.7533192633889718,0.0054,-0.9782,-0.2069,-0.0153
57,919574.0,829.926522,1.0,0.7,1.51,-11.6,4.88,-17.19,31.19,-6.44,-18.31,4.13,0.9299186166134356,1.2933816548711976,-1.8033678837639344,-156.02889725740351,-23.881491803544503,-1.7533192633889718,0.0054,-0.9782,-0.2069,-0.0153
58,919607.0,829.965917,1.0,0.19,2.05,-10.8,4.88,-17.19,31.19,7.75,-29.06,4.63,0.8969494107566254,1.9428343913778368,-0.9775734899979228,-156.25063177900063,-23.740958889771715,-0.687553479519944,0.0055,-0.9786,-0.2057,-0.006
59,919607.0,829.965917,1.0,0.19,2.05,-10.8,4.88,-17.19,31.19,7.75,-29.06,4.63,0.8969494107566254,1.9428343913778368,-0.9775734899979228,-156.25063177900063,-23.740958889771715,-0.687553479519944,0.0055,-0.9786,-0.2057,-0.006
60,919644.0,830.021232,1.0,-0.35,2.1,-9.96,5.19,-17.56,32.0,13.63,-31.06,-16.19,0.6106699488830228,2.1908942659807327,-0.12114756687372895,-155.91878451766874,-24.04549296367276,0.2635608181333149,0.0072,-0.978,-0.2083,0.0023
61,919644.0,830.021232,1.0,-0.35,2.1,-9.96,5.19,-17.56,32.0,13.63,-31.06,-16.19,0.6106699488830228,2.1908942659807327,-0.12114756687372895,-155.91878451766874,-24.04549296367276,0.2635608181333149,0.0072,-0.978,-0.2083,0.0023
62,919681.0,830.0798589999999,1.0,-0.49,1.7,-9.4,6.0,-16.06,31.56,22.31,-27.87,-27.06,0.5629058965160336,1.910554240319092,0.4512761728102923,-154.89643727544527,-25.018825462277388,1.5011923619341792,0.0118,-0.9761,-0.2166,0.0131
63,919681.0,830.0798589999999,1.0,-0.49,1.7,-9.4,6.0,-16.06,31.56,22.31,-27.87,-27.06,0.5629058965160336,1.910554240319092,0.4512761728102923,-154.89643727544527,-25.018825462277388,1.5011923619341792,0.0118,-0.9761,-0.2166,0.0131
64,919713.0,830.0865259999999,1.0,-0.72,1.7,-8.75,6.0,-16.06,31.56,27.25,-25.75,-35.56,0.5174527782747842,2.0456750019370253,1.1165201730810903,-153.8627830260387,-25.94695623100749,2.3951379752687134,0.0167,-0.9741,-0.2245,0.0209
65,919713.0,830.0865259999999,1.0,-0.72,1.7,-8.75,6.0,-16.06,31.56,27.25,-25.75,-35.56,0.5174527782747842,2.0456750019370253,1.1165201730810903,-153.8627830260387,-25.94695623100749,2.3951379752687134,0.0167,-0.9741,-0.2245,0.0209
66,919748.0,830.103884,1.0,-0.96,0.79,-8.3,7.75,-15.25,31.19,40.75,-21.0,-45.81,0.11801681644436245,1.4735829307173132,1.5452744863621586,-151.95469309277132,-27.643253148970494,3.495584654482353,0.0279,-0.9702,-0.2389,0.0305
67,919748.0,830.103884,1.0,-0.96,0.79,-8.3,7.75,-15.25,31.19,40.75,-21.0,-45.81,0.11801681644436245,1.4735829307173132,1.5452744863621586,-151.95469309277132,-27.643253148970494,3.495584654482353,0.0279,-0.9702,-0.2389,0.0305
68,919783.0,830.106913,1.0,-0.66,0.46,-8.01,7.5,-13.75,30.37,32.56,-11.38,-55.44,0.3365641578632912,1.1376516529261895,1.8442525416815512,-150.21066214535367,-29.17994585204534,4.022990071019942,0.0359,-0.9664,-0.2519,0.0351
69,919783.0,830.106913,1.0,-0.66,0.46,-8.01,7.5,-13.75,30.37,32.56,-11.38,-55.44,0.3365641578632912,1.1376516529261895,1.8442525416815512,-150.21066214535367,-29.17994585204534,4.022990071019942,0.0359,-0.9664,-0.2519,0.0351
70,919820.0,830.1423440000001,1.0,-0.85,0.78,-7.21,7.5,-13.75,30.37,32.81,-7.81,-57.5,0.4163991008604886,1.5966590425012224,2.693824141678875,-147.8086150107539,-31.36423874673959,4.596353909147252,0.0466,-0.9608,-0.2703,0.0401
71,919820.0,830.1423440000001,1.0,-0.85,0.78,-7.21,7.5,-13.75,30.37,32.81,-7.81,-57.5,0.4163991008604886,1.5966590425012224,2.693824141678875,-147.8086150107539,-31.36423874673959,4.596353909147252,0.0466,-0.9608,-0.2703,0.0401
72,919855.0,830.149397,1.0,-0.42,-0.62,-6.36,10.75,-11.19,31.19,53.81,12.75,-68.06,0.02745253264840089,0.2901357763162425,3.409348413412686,-145.76376947074462,-33.16551997219127,4.6881024349692195,0.0594,-0.9557,-0.2854,0.0409
73,919855.0,830.149397,1.0,-0.42,-0.62,-6.36,10.75,-11.19,31.19,53.81,12.75,-68.06,0.02745253264840089,0.2901357763162425,3.409348413412686,-145.76376947074462,-33.16551997219127,4.6881024349692195,0.0594,-0.9557,-0.2854,0.0409
74,919889.0,830.166201,1.0,0.22,-1.65,-6.67,10.38,-9.25,30.75,43.88,30.81,-71.69,0.015493805312283143,-0.5835037190206364,2.95689939491327,-142.73954322436268,-35.76909927860193,4.1720543955147065,0.0801,-0.9476,-0.3071,0.0364
75,919889.0,830.166201,1.0,0.22,-1.65,-6.67,10.38,-9.25,30.75,43.88,30.81,-71.69,0.015493805312283143,-0.5835037190206364,2.95689939491327,-142.73954322436268,-35.76909927860193,4.1720543955147065,0.0801,-0.9476,-0.3071,0.0364
76,919926.0,830.169318,1.0,0.33,-1.45,-6.12,10.5,-6.38,33.25,33.56,24.44,-69.81,0.10653776202064907,-0.40224271326869504,3.5223321766490954,-140.61001416599206,-37.71311628724267,3.5873017007906127,0.0909,-0.9415,-0.3232,0.0313
77,919926.0,830.169318,1.0,0.33,-1.45,-6.12,10.5,-6.38,33.25,33.56,24.44,-69.81,0.10653776202064907,-0.40224271326869504,3.5223321766490954,-140.61001416599206,-37.71311628724267,3.5873017007906127,0.0909,-0.9415,-0.3232,0.0313
78,919959.0,830.2052719999999,1.0,1.04,-2.9,-6.35,10.5,-6.38,33.25,56.13,33.25,-63.63,-0.2681383058173956,-1.6103853828578574,2.9401471952506206,-137.71937015042116,-40.0341291935956,2.807774138332147,0.111,-0.9327,-0.3423,0.0245
79,919959.0,830.2052719999999,1.0,1.04,-2.9,-6.35,10.5,-6.38,33.25,56.13,33.25,-63.63,-0.2681383058173956,-1.6103853828578574,2.9401471952506206,-137.71937015042116,-40.0341291935956,2.807774138332147,0.111,-0.9327,-0.3423,0.0245
80,919996.0,830.211838,1.0,1.66,-3.83,-6.92,10.56,-3.88,32.88,27.5,51.31,-60.31,-0.4600407261371867,-2.313227017196233,2.076951215622397,-135.73041492290912,-41.611404826079344,1.707477412974553,0.125,-0.9263,-0.3552,0.0149
81,919996.0,830.211838,1.0,1.66,-3.83,-6.92,10.56,-3.88,32.88,27.5,51.31,-60.31,-0.4600407261371867,-2.313227017196233,2.076951215622397,-135.73041492290912,-41.611404826079344,1.707477412974553,0.125,-0.9263,-0.3552,0.0149
82,920033.0,830.2289559999999,1.0,1.88,-3.94,-6.58,9.19,-1.56,33.75,24.94,61.75,-45.25,-0.6839438509667447,-2.321021362027047,2.290036357824494,-133.58972143720712,-43.35723698802017,-0.3552344019497601,0.1369,-0.9191,-0.3694,-0.0031
83,920033.0,830.2289559999999,1.0,1.88,-3.94,-6.58,9.19,-1.56,33.75,24.94,61.75,-45.25,-0.6839438509667447,-2.321021362027047,2.290036357824494,-133.58972143720712,-43.35723698802017,-0.3552344019497601,0.1369,-0.9191,-0.3694,-0.0031
84,920068.0,830.231956,1.0,2.59,-4.76,-6.98,9.19,-1.56,33.75,22.5,73.06,-24.37,-0.8693321550803521,-2.976059680197038,1.5317826062559234,-132.49673400768697,-43.900329831481116,-2.0627594617091103,0.1492,-0.9153,-0.3738,-0.018000000000000002
85,920068.0,830.231956,1.0,2.59,-4.76,-6.98,9.19,-1.56,33.75,22.5,73.06,-24.37,-0.8693321550803521,-2.976059680197038,1.5317826062559234,-132.49673400768697,-43.900329831481116,-2.0627594617091103,0.1492,-0.9153,-0.3738,-0.018000000000000002
86,920100.0,830.28621,1.0,2.91,-5.08,-7.38,8.19,-0.19,34.56,0.0,76.81,-4.56,-1.106185070631963,-2.9373173973662836,0.9247908986271156,-131.62233589525562,-43.949753171483536,-4.6766337060034,0.1617,-0.9122,-0.3742,-0.0408
87,920100.0,830.28621,1.0,2.91,-5.08,-7.38,8.19,-0.19,34.56,0.0,76.81,-4.56,-1.106185070631963,-2.9373173973662836,0.9247908986271156,-131.62233589525562,-43.949753171483536,-4.6766337060034,0.1617,-0.9122,-0.3742,-0.0408
88,920135.0,830.325148,1.0,3.25,-4.67,-7.4,5.69,0.88,37.75,-13.19,81.31,3.69,-0.8050689105543454,-2.6779438858678795,0.900928210419906,-131.53850453910292,-43.44356934572808,-6.879625535030392,0.1669,-0.9119,-0.3701,-0.06
89,920135.0,830.325148,1.0,3.25,-4.67,-7.4,5.69,0.88,37.75,-13.19,81.31,3.69,-0.8050689105543454,-2.6779438858678795,0.900928210419906,-131.53850453910292,-43.44356934572808,-6.879625535030392,0.1669,-0.9119,-0.3701,-0.06
90,920172.0,830.329652,1.0,4.05,-6.19,-7.88,2.56,0.75,36.56,-16.12,86.12,10.44,-1.6130771972055953,-3.7301847025697787,-0.2081742141622112,-131.2878239276356,-42.60599837478333,-9.970582425862727,0.1747,-0.9109999999999999,-0.3633,-0.0869
91,920172.0,830.329652,1.0,4.05,-6.19,-7.88,2.56,0.75,36.56,-16.12,86.12,10.44,-1.6130771972055953,-3.7301847025697787,-0.2081742141622112,-131.2878239276356,-42.60599837478333,-9.970582425862727,0.1747,-0.9109999999999999,-0.3633,-0.0869
92,920207.0,830.345614,1.0,5.02,-5.3,-9.37,2.56,0.75,36.56,-53.31,95.25,26.12,-0.7320596933056576,-2.9904965281124407,-1.6654169070915312,-131.70630400699523,-41.378582455790294,-12.780520582262024,0.1738,-0.9125,-0.3533,-0.1113
93,920207.0,830.345614,1.0,5.02,-5.3,-9.37,2.56,0.75,36.56,-53.31,95.25,26.12,-0.7320596933056576,-2.9904965281124407,-1.6654169070915312,-131.70630400699523,-41.378582455790294,-12.780520582262024,0.1738,-0.9125,-0.3533,-0.1113
94,920244.0,830.3852509999999,1.0,6.36,-4.74,-10.06,0.25,-0.37,36.19,-37.75,79.25,55.63,0.1577278675884557,-2.8819803192869218,-2.67494089856052,-132.89662989290295,-38.84117149116385,-16.072546557241562,0.1717,-0.9167,-0.3325,-0.1398
95,920244.0,830.3852509999999,1.0,6.36,-4.74,-10.06,0.25,-0.37,36.19,-37.75,79.25,55.63,0.1577278675884557,-2.8819803192869218,-2.67494089856052,-132.89662989290295,-38.84117149116385,-16.072546557241562,0.1717,-0.9167,-0.3325,-0.1398
96,920279.0,830.43386,1.0,6.87,-3.74,-11.19,-3.56,-3.06,38.19,-60.13,80.56,60.19,0.6878653285489931,-1.7849738898892935,-3.711534401101863,-134.0866361818657,-36.48023552286196,-18.460228812044047,0.1686,-0.9208,-0.313,-0.1604
97,920279.0,830.43386,1.0,6.87,-3.74,-11.19,-3.56,-3.06,38.19,-60.13,80.56,60.19,0.6878653285489931,-1.7849738898892935,-3.711534401101863,-134.0866361818657,-36.48023552286196,-18.460228812044047,0.1686,-0.9208,-0.313,-0.1604
98,920313.0,830.490401,1.0,6.3,-3.52,-11.12,-3.56,-3.06,38.19,-54.38,52.56,61.38,0.012485505438844968,-1.2825274805611993,-3.387658143050144,-135.79128033679729,-33.416687431310486,-21.065789103644565,0.1599,-0.9265,-0.2875,-0.1828
99,920313.0,830.490401,1.0,6.3,-3.52,-11.12,-3.56,-3.06,38.19,-54.38,52.56,61.38,0.012485505438844968,-1.2825274805611993,-3.387658143050144,-135.79128033679729,-33.416687431310486,-21.065789103644565,0.1599,-0.9265,-0.2875,-0.1828
100,920346.0,830.502388,1.0,6.04,-3.75,-11.02,-6.5,-5.69,37.19,-54.19,47.19,64.87,-0.5459642879948383,-1.3889787255181492,-3.2224390355501136,-137.5924585129037,-30.28255562108873,-23.015443848374385,0.1512,-0.9323,-0.2612,-0.1995
101,920346.0,830.502388,1.0,6.04,-3.75,-11.02,-6.5,-5.69,37.19,-54.19,47.19,64.87,-0.5459642879948383,-1.3889787255181492,-3.2224390355501136,-137.5924585129037,-30.28255562108873,-23.015443848374385,0.1512,-0.9323,-0.2612,-0.1995
102,920385.0,830.551012,1.0,6.08,-1.63,-12.24,-8.38,-9.0,37.88,-70.44,34.38,81.5,0.007876068665448488,0.7106699000787279,-3.9387414553447484,-139.33764146351638,-27.52525947842401,-24.326754354712534,0.1402,-0.9377,-0.2379,-0.2107
103,920385.0,830.551012,1.0,6.08,-1.63,-12.24,-8.38,-9.0,37.88,-70.44,34.38,81.5,0.007876068665448488,0.7106699000787279,-3.9387414553447484,-139.33764146351638,-27.52525947842401,-24.326754354712534,0.1402,-0.9377,-0.2379,-0.2107
104,920420.0,830.610025,1.0,6.44,-1.37,-12.51,-8.38,-9.0,37.88,-39.06,18.37,85.56,0.2315567638731277,0.937773943650006,-4.297163721675274,-141.67799864882886,-23.8463551666527,-25.065778823031927,0.1337,-0.9446,-0.2066,-0.217
105,920420.0,830.610025,1.0,6.44,-1.37,-12.51,-8.38,-9.0,37.88,-39.06,18.37,85.56,0.2315567638731277,0.937773943650006,-4.297163721675274,-141.67799864882886,-23.8463551666527,-25.065778823031927,0.1337,-0.9446,-0.2066,-0.217
106,920455.0,830.621471,1.0,6.83,-0.1,-13.16,-10.75,-12.5,37.5,-48.25,-12.81,73.31,0.9158319524394184,2.1056517465333457,-4.841625753726508,-143.72051272987528,-21.403893300909647,-24.88972570037191,0.1271,-0.9503,-0.1857,-0.2155
107,920455.0,830.621471,1.0,6.83,-0.1,-13.16,-10.75,-12.5,37.5,-48.25,-12.81,73.31,0.9158319524394184,2.1056517465333457,-4.841625753726508,-143.72051272987528,-21.403893300909647,-24.88972570037191,0.1271,-0.9503,-0.1857,-0.2155
108,920489.0,830.748175,1.0,6.77,0.64,-13.5,-12.06,-14.69,38.38,-40.0,-32.19,65.44,1.2527843691757874,2.716996267903656,-5.010264746483035,-146.63092085313292,-18.704070115126303,-23.76437852052494,0.1163,-0.9579,-0.1625,-0.2059
109,920489.0,830.748175,1.0,6.77,0.64,-13.5,-12.06,-14.69,38.38,-40.0,-32.19,65.44,1.2527843691757874,2.716996267903656,-5.010264746483035,-146.63092085313292,-18.704070115126303,-23.76437852052494,0.1163,-0.9579,-0.1625,-0.2059
110,920526.0,830.759894,1.0,5.31,0.9,-12.09,-12.69,-16.25,38.0,-20.0,-66.94,57.0,0.9235038523058722,2.8204778498974465,-3.0916539711821844,-149.11579237958978,-17.068431181009654,-22.057320868979353,0.1111,-0.9639,-0.1484,-0.1913
111,920526.0,830.759894,1.0,5.31,0.9,-12.09,-12.69,-16.25,38.0,-20.0,-66.94,57.0,0.9235038523058722,2.8204778498974465,-3.0916539711821844,-149.11579237958978,-17.068431181009654,-22.057320868979353,0.1111,-0.9639,-0.1484,-0.1913
112,920559.0,830.806208,1.0,4.29,0.67,-11.01,-12.69,-16.25,38.0,-12.0,-76.25,43.81,0.8698351644318928,2.41351391374321,-1.7471994613217845,-152.3835367338065,-15.563501157916,-19.075802591967932,0.106,-0.9711,-0.1354,-0.1657
113,920559.0,830.806208,1.0,4.29,0.67,-11.01,-12.69,-16.25,38.0,-12.0,-76.25,43.81,0.8698351644318928,2.41351391374321,-1.7471994613217845,-152.3835367338065,-15.563501157916,-19.075802591967932,0.106,-0.9711,-0.1354,-0.1657
114,920596.0,830.812696,1.0,3.51,0.15,-9.83,-12.06,-17.06,38.5,-2.81,-79.75,34.13,0.7523803283927388,1.7034891293796381,-0.4648420351199754,-154.58200075536982,-14.800508833176535,-16.755633464025784,0.1027,-0.9755,-0.1288,-0.1457
115,920596.0,830.812696,1.0,3.51,0.15,-9.83,-12.06,-17.06,38.5,-2.81,-79.75,34.13,0.7523803283927388,1.7034891293796381,-0.4648420351199754,-154.58200075536982,-14.800508833176535,-16.755633464025784,0.1027,-0.9755,-0.1288,-0.1457
116,920633.0,830.8689059999999,1.0,2.7,-0.24,-8.68,-9.88,-15.69,38.88,14.38,-73.31,37.38,0.6818549736815755,1.2367988347821983,0.8235880255312118,-157.1587733939545,-13.645704477358525,-13.634163660769715,0.1047,-0.9802,-0.1188,-0.1187
117,920633.0,830.8689059999999,1.0,2.7,-0.24,-8.68,-9.88,-15.69,38.88,14.38,-73.31,37.38,0.6818549736815755,1.2367988347821983,0.8235880255312118,-157.1587733939545,-13.645704477358525,-13.634163660769715,0.1047,-0.9802,-0.1188,-0.1187
118,920668.0,830.875514,1.0,2.51,-0.31,-8.42,-9.88,-15.69,38.88,-1.0,-66.81,19.56,0.8544383071277181,1.123105362133383,1.1290253523870408,-158.6538881524584,-13.149573327758748,-11.547444362906596,0.1049,-0.9827,-0.1145,-0.1006
119,920668.0,830.875514,1.0,2.51,-0.31,-8.42,-9.88,-15.69,38.88,-1.0,-66.81,19.56,0.8544383071277181,1.123105362133383,1.1290253523870408,-158.6538881524584,-13.149573327758748,-11.547444362906596,0.1049,-0.9827,-0.1145,-0.1006
120,920702.0,830.891934,1.0,2.0,0.08,-7.86,-7.56,-13.5,39.25,6.69,-70.62,21.12,0.9232571182945082,1.3490186725546982,1.862234041943844,-160.59764077497127,-12.88430304585338,-8.866772764864926,0.0999,-0.9857,-0.1122,-0.0773
121,920702.0,830.891934,1.0,2.0,0.08,-7.86,-7.56,-13.5,39.25,6.69,-70.62,21.12,0.9232571182945082,1.3490186725546982,1.862234041943844,-160.59764077497127,-12.88430304585338,-8.866772764864926,0.0999,-0.9857,-0.1122,-0.0773
122,920737.0,830.894757,1.0,1.08,-0.82,-7.15,-5.0,-12.38,37.69,28.12,-62.44,17.31,0.2567093298408256,0.5780989826868742,2.556739525643156,-161.4314273445042,-12.469235993000286,-6.259812004164343,0.1059,-0.9869,-0.1086,-0.0546
123,920737.0,830.894757,1.0,1.08,-0.82,-7.15,-5.0,-12.38,37.69,28.12,-62.44,17.31,0.2567093298408256,0.5780989826868742,2.556739525643156,-161.4314273445042,-12.469235993000286,-6.259812004164343,0.1059,-0.9869,-0.1086,-0.0546
124,920774.0,830.928724,1.0,0.63,-0.7,-6.89,-2.69,-11.56,38.5,-1.69,-40.88,5.88,0.033411976896904665,0.7039128076982103,2.8883850152687667,-161.9354035928644,-12.400074265032766,-4.89454770282183,0.1056,-0.9876,-0.10800000000000001,-0.0427
125,920774.0,830.928724,1.0,0.63,-0.7,-6.89,-2.69,-11.56,38.5,-1.69,-40.88,5.88,0.033411976896904665,0.7039128076982103,2.8883850152687667,-161.9354035928644,-12.400074265032766,-4.89454770282183,0.1056,-0.9876,-0.10800000000000001,-0.0427
126,920807.0,830.945302,1.0,0.45,-0.58,-6.88,-2.69,-11.56,38.5,11.38,-42.0,3.81,0.08002495387449403,0.8479056001024399,2.9402133622618853,-162.22975145954382,-12.423127669242316,-3.2892294003721183,0.1068,-0.988,-0.1082,-0.0287
127,920807.0,830.945302,1.0,0.45,-0.58,-6.88,-2.69,-11.56,38.5,11.38,-42.0,3.81,0.08002495387449403,0.8479056001024399,2.9402133622618853,-162.22975145954382,-12.423127669242316,-3.2892294003721183,0.1068,-0.988,-0.1082,-0.0287
128,920844.0,830.9955769999999,1.0,-0.3,-1.11,-6.31,-1.75,-11.25,37.38,16.62,-26.81,-1.25,-0.6389275018972064,0.4021456858442345,3.4373289612489883,-162.0085427715158,-12.549930441445206,-2.3263684457528235,0.1097,-0.9877,-0.1093,-0.0203
129,920844.0,830.9955769999999,1.0,-0.3,-1.11,-6.31,-1.75,-11.25,37.38,16.62,-26.81,-1.25,-0.6389275018972064,0.4021456858442345,3.4373289612489883,-162.0085427715158,-12.549930441445206,-2.3263684457528235,0.1097,-0.9877,-0.1093,-0.0203
130,920881.0,831.104198,1.0,-0.45,-1.59,-5.69,-0.5,-9.88,37.38,11.94,-12.75,-8.19,-0.8193413747484932,-0.1158119111282192,3.9396262815490437,-161.57402592832648,-12.872771138472865,-1.7189378496716434,0.1136,-0.9871,-0.1121,-0.015
131,920881.0,831.104198,1.0,-0.45,-1.59,-5.69,-0.5,-9.88,37.38,11.94,-12.75,-8.19,-0.8193413747484932,-0.1158119111282192,3.9396262815490437,-161.57402592832648,-12.872771138472865,-1.7189378496716434,0.1136,-0.9871,-0.1121,-0.015
132,920915.0,831.153431,1.0,-0.81,-1.7,-4.8,-0.5,-9.88,37.38,-0.44,4.06,-7.0,-1.1952678289716587,-0.33447438010646524,4.802095903371834,-161.36053358743402,-13.103434321670449,-1.7303983035632713,0.1141,-0.9868,-0.1141,-0.0151
133,920915.0,831.153431,1.0,-0.81,-1.7,-4.8,-0.5,-9.88,37.38,-0.44,4.06,-7.0,-1.1952678289716587,-0.33447438010646524,4.802095903371834,-161.36053358743402,-13.103434321670449,-1.7303983035632713,0.1141,-0.9868,-0.1141,-0.0151
134,920948.0,831.2171559999999,1.0,-0.84,-1.64,-4.81,0.19,-10.19,37.69,-10.31,24.0,-10.06,-1.2874065692231087,-0.2766768513459037,4.82695781619481,-161.21954183361512,-13.368762981498053,-2.555603608821701,0.1121,-0.9866,-0.1164,-0.0223
135,920948.0,831.2171559999999,1.0,-0.84,-1.64,-4.81,0.19,-10.19,37.69,-10.31,24.0,-10.06,-1.2874065692231087,-0.2766768513459037,4.82695781619481,-161.21954183361512,-13.368762981498053,-2.555603608821701,0.1121,-0.9866,-0.1164,-0.0223
136,920985.0,831.223926,1.0,-0.62,-1.39,-5.13,0.19,-9.5,36.88,-7.38,33.06,-15.13,-1.1173724430308,-0.03316545197171772,4.573698741259778,-161.07959134463854,-13.668786527863627,-3.5529075421905287,0.1092,-0.9864,-0.11900000000000001,-0.031
137,920985.0,831.223926,1.0,-0.62,-1.39,-5.13,0.19,-9.5,36.88,-7.38,33.06,-15.13,-1.1173724430308,-0.03316545197171772,4.573698741259778,-161.07959134463854,-13.668786527863627,-3.5529075421905287,0.1092,-0.9864,-0.11900000000000001,-0.031
138,921020.0,831.240497,1.0,-0.53,-2.1,-5.05,0.19,-9.5,36.88,-10.13,47.63,-7.81,-1.3667357862769447,-0.7385642496354504,4.535980579549657,-160.59764077497127,-13.830376539145913,-5.364844561963229,0.1079,-0.9857,-0.1204,-0.0468
139,921020.0,831.240497,1.0,-0.53,-2.1,-5.05,0.19,-9.5,36.88,-10.13,47.63,-7.81,-1.3667357862769447,-0.7385642496354504,4.535980579549657,-160.59764077497127,-13.830376539145913,-5.364844561963229,0.1079,-0.9857,-0.1204,-0.0468
140,921055.0,831.2434519999999,1.0,0.51,-1.33,-6.24,-0.5,-9.5,37.69,-31.62,66.87,-10.81,-0.4769590687958076,-0.02744950784239153,3.423989381479487,-160.39468315225946,-13.830376539145913,-7.35035834348681,0.102,-0.9854,-0.1204,-0.0641
141,921055.0,831.2434519999999,1.0,0.51,-1.33,-6.24,-0.5,-9.5,37.69,-31.62,66.87,-10.81,-0.4769590687958076,-0.02744950784239153,3.423989381479487,-160.39468315225946,-13.830376539145913,-7.35035834348681,0.102,-0.9854,-0.1204,-0.0641
142,921090.0,831.273492,1.0,0.83,-1.12,-5.99,-2.0,-11.38,39.25,-39.75,69.12,-8.13,-0.40755117682902936,-0.03833834525311297,3.670215187378868,-159.79792218460952,-13.79574779269871,-10.212160888414617,0.092,-0.9845,-0.1201,-0.08900000000000001
143,921090.0,831.273492,1.0,0.83,-1.12,-5.99,-2.0,-11.38,39.25,-39.75,69.12,-8.13,-0.40755117682902936,-0.03833834525311297,3.670215187378868,-159.79792218460952,-13.79574779269871,-10.212160888414617,0.092,-0.9845,-0.1201,-0.08900000000000001
144,921126.0,831.342639,1.0,1.73,0.18,-6.5,-4.56,-13.56,38.06,-25.56,94.62,1.44,0.3912399162280448,1.0841779202066235,3.1774125200716816,-158.840311807755,-13.437990937987554,-12.803582439206053,0.0866,-0.983,-0.11699999999999999,-0.1115
145,921126.0,831.342639,1.0,1.73,0.18,-6.5,-4.56,-13.56,38.06,-25.56,94.62,1.44,0.3912399162280448,1.0841779202066235,3.1774125200716816,-158.840311807755,-13.437990937987554,-12.803582439206053,0.0866,-0.983,-0.11699999999999999,-0.1115
146,921159.0,831.359208,1.0,4.2,-0.96,-8.84,-4.56,-13.56,38.06,-14.31,111.31,-14.44,1.2658797867190992,-0.014485921840962148,0.05449441655874488,-156.19500732541925,-13.414914406298776,-17.056843809922572,0.0841,-0.9785,-0.1168,-0.1483
147,921159.0,831.359208,1.0,4.2,-0.96,-8.84,-4.56,-13.56,38.06,-14.31,111.31,-14.44,1.2658797867190992,-0.014485921840962148,0.05449441655874488,-156.19500732541925,-13.414914406298776,-17.056843809922572,0.0841,-0.9785,-0.1168,-0.1483
148,921196.0,831.36213,1.0,5.68,-1.86,-11.06,-6.06,-16.19,38.5,-51.13,70.75,-9.13,1.2302292995366977,-0.8321997099260142,-2.676922385874187,-154.47803544959174,-13.391838421127119,-19.691932497848974,0.0768,-0.9753,-0.1166,-0.171
149,921196.0,831.36213,1.0,5.68,-1.86,-11.06,-6.06,-16.19,38.5,-51.13,70.75,-9.13,1.2302292995366977,-0.8321997099260142,-2.676922385874187,-154.47803544959174,-13.391838421127119,-19.691932497848974,0.0768,-0.9753,-0.1166,-0.171
150,921233.0,831.397843,1.0,4.67,-0.42,-10.56,-10.19,-19.87,38.5,-38.69,49.44,15.25,0.33886954504795785,0.451452363727465,-1.7337251323223395,-153.4604028099656,-12.676748644427741,-22.01062364188303,0.0634,-0.9733,-0.1104,-0.1909
151,921233.0,831.397843,1.0,4.67,-0.42,-10.56,-10.19,-19.87,38.5,-38.69,49.44,15.25,0.33886954504795785,0.451452363727465,-1.7337251323223395,-153.4604028099656,-12.676748644427741,-22.01062364188303,0.0634,-0.9733,-0.1104,-0.1909
152,921268.0,831.41387,1.0,5.82,-1.16,-12.27,-10.19,-19.87,38.5,-26.75,31.44,6.75,0.2895370186574986,-0.2551774084132125,-3.8176647646060538,-152.7702885732456,-12.134996086138985,-23.284475807440252,0.0589,-0.9719,-0.1057,-0.2018
153,921268.0,831.41387,1.0,5.82,-1.16,-12.27,-10.19,-19.87,38.5,-26.75,31.44,6.75,0.2895370186574986,-0.2551774084132125,-3.8176647646060538,-152.7702885732456,-12.134996086138985,-23.284475807440252,0.0589,-0.9719,-0.1057,-0.2018
154,921303.0,831.455563,1.0,5.1,-1.0,-11.9,-12.38,-23.25,37.69,-34.44,24.62,5.13,-0.3986452983517808,-0.21410732607011096,-3.1708397410487312,-152.4315896826145,-11.674144907935558,-24.20954412674289,0.0499,-0.9712,-0.1017,-0.2097
155,921303.0,831.455563,1.0,5.1,-1.0,-11.9,-12.38,-23.25,37.69,-34.44,24.62,5.13,-0.3986452983517808,-0.21410732607011096,-3.1708397410487312,-152.4315896826145,-11.674144907935558,-24.20954412674289,0.0499,-0.9712,-0.1017,-0.2097
156,921337.0,831.5136,1.0,5.59,-0.14,-12.29,-12.69,-27.69,35.75,-31.12,30.19,5.25,-0.2381737560824517,0.4078555751743264,-3.68737560734612,-151.71920090048613,-11.167427069301608,-25.441560447887092,0.0408,-0.9697,-0.0973,-0.2202
157,921337.0,831.5136,1.0,5.59,-0.14,-12.29,-12.69,-27.69,35.75,-31.12,30.19,5.25,-0.2381737560824517,0.4078555751743264,-3.68737560734612,-151.71920090048613,-11.167427069301608,-25.441560447887092,0.0408,-0.9697,-0.0973,-0.2202
158,921374.0,831.529523,1.0,5.89,-0.32,-12.37,-12.56,-30.25,33.06,-14.25,7.31,-2.06,-0.1629226323082904,0.10904939856493127,-3.8963775649052947,-151.43912137388486,-11.052294827398207,-25.9116795113663,0.0371,-0.9691,-0.0963,-0.2242
159,921374.0,831.529523,1.0,5.89,-0.32,-12.37,-12.56,-30.25,33.06,-14.25,7.31,-2.06,-0.1629226323082904,0.10904939856493127,-3.8963775649052947,-151.43912137388486,-11.052294827398207,-25.9116795113663,0.0371,-0.9691,-0.0963,-0.2242
160,921409.0,831.578961,1.0,4.88,-0.34,-11.14,-12.56,-30.25,33.06,-7.81,3.56,-2.06,-0.5795766077947017,0.055244795514943074,-2.346153749269781,-151.30008546167102,-11.04078222065542,-26.111614068361774,0.0342,-0.9688,-0.0962,-0.2259
161,921409.0,831.578961,1.0,4.88,-0.34,-11.14,-12.56,-30.25,33.06,-7.81,3.56,-2.06,-0.5795766077947017,0.055244795514943074,-2.346153749269781,-151.30008546167102,-11.04078222065542,-26.111614068361774,0.0342,-0.9688,-0.0962,-0.2259
162,921446.0,831.595992,1.0,4.83,0.02,-10.65,-11.06,-31.5,29.87,-7.38,13.13,0.31,-0.4087491046542072,0.34226483397889074,-1.8752838704199901,-151.06981274894218,-10.971708923508501,-26.441094791301843,0.0329,-0.9683,-0.0956,-0.2287
163,921446.0,831.595992,1.0,4.83,0.02,-10.65,-11.06,-31.5,29.87,-7.38,13.13,0.31,-0.4087491046542072,0.34226483397889074,-1.8752838704199901,-151.06981274894218,-10.971708923508501,-26.441094791301843,0.0329,-0.9683,-0.0956,-0.2287
164,921483.0,831.639721,1.0,4.71,0.06,-10.14,-11.19,-32.06,31.19,-0.19,9.81,-3.06,-0.3624694398776961,0.3440198723905432,-1.362842657795845,-150.65977940351803,-11.029269725697887,-26.841478236677798,0.0325,-0.9674,-0.0961,-0.2321
165,921483.0,831.639721,1.0,4.71,0.06,-10.14,-11.19,-32.06,31.19,-0.19,9.81,-3.06,-0.3624694398776961,0.3440198723905432,-1.362842657795845,-150.65977940351803,-11.029269725697887,-26.841478236677798,0.0325,-0.9674,-0.0961,-0.2321
166,921516.0,831.696364,1.0,4.79,-0.08,-9.71,-11.19,-32.06,31.19,1.25,7.25,-2.69,-0.1787155678989131,0.16301394414303952,-1.01814039980939,-150.34469905459454,-11.121372822035768,-27.100727545597238,0.0332,-0.9667,-0.0969,-0.2343
167,921516.0,831.696364,1.0,4.79,-0.08,-9.71,-11.19,-32.06,31.19,1.25,7.25,-2.69,-0.1787155678989131,0.16301394414303952,-1.01814039980939,-150.34469905459454,-11.121372822035768,-27.100727545597238,0.0332,-0.9667,-0.0969,-0.2343
168,921550.0,831.704849,1.0,4.74,-0.08,-9.72,-11.19,-31.75,30.0,6.31,-2.44,-2.19,-0.2175999863529965,0.19848467218862367,-1.0037919003501088,-150.34469905459454,-11.248026360967863,-27.065367073658553,0.0347,-0.9667,-0.098,-0.23399999999999999
169,921550.0,831.704849,1.0,4.74,-0.08,-9.72,-11.19,-31.75,30.0,6.31,-2.44,-2.19,-0.2175999863529965,0.19848467218862367,-1.0037919003501088,-150.34469905459454,-11.248026360967863,-27.065367073658553,0.0347,-0.9667,-0.098,-0.23399999999999999
170,921585.0,831.759568,1.0,4.16,-0.19,-8.62,-11.69,-31.75,30.06,9.0,-2.06,-1.94,-0.22975689957446666,0.09954383996043993,0.2367282244041373,-150.34469905459454,-11.37469368630907,-26.923951406436,0.0368,-0.9667,-0.0991,-0.2328
171,921585.0,831.759568,1.0,4.16,-0.19,-8.62,-11.69,-31.75,30.06,9.0,-2.06,-1.94,-0.22975689957446666,0.09954383996043993,0.2367282244041373,-150.34469905459454,-11.37469368630907,-26.923951406436,0.0368,-0.9667,-0.0991,-0.2328
172,921622.0,831.824829,1.0,4.39,-0.01,-8.89,-11.25,-31.06,30.5,5.5,0.37,-2.94,-0.10217954643128044,0.29687916549475635,-0.1032300245707436,-150.29995438645182,-11.535926836248436,-26.888604025029306,0.0387,-0.9666,-0.1005,-0.2325
173,921622.0,831.824829,1.0,4.39,-0.01,-8.89,-11.25,-31.06,30.5,5.5,0.37,-2.94,-0.10217954643128044,0.29687916549475635,-0.1032300245707436,-150.29995438645182,-11.535926836248436,-26.888604025029306,0.0387,-0.9666,-0.1005,-0.2325
174,921657.0,831.833592,1.0,4.06,-0.52,-8.5,-11.25,-31.06,30.5,15.75,-6.0,-2.19,-0.2904022638578505,-0.14143577241570848,0.3779882472682061,-150.34469905459454,-11.731740790019305,-26.688351311037593,0.0419,-0.9667,-0.1022,-0.2308
175,921657.0,831.833592,1.0,4.06,-0.52,-8.5,-11.25,-31.06,30.5,15.75,-6.0,-2.19,-0.2904022638578505,-0.14143577241570848,0.3779882472682061,-150.34469905459454,-11.731740790019305,-26.688351311037593,0.0419,-0.9667,-0.1022,-0.2308
176,921692.0,831.887481,1.0,4.15,-0.45,-8.49,-12.5,-31.5,30.87,-3.75,3.75,-2.19,-0.1944604507565704,-0.062272220397914115,0.34814021760519154,-150.2552755154301,-11.835420883076136,-26.71190613338563,0.0436,-0.9665,-0.1031,-0.231
177,921692.0,831.887481,1.0,4.15,-0.45,-8.49,-12.5,-31.5,30.87,-3.75,3.75,-2.19,-0.1944604507565704,-0.062272220397914115,0.34814021760519154,-150.2552755154301,-11.835420883076136,-26.71190613338563,0.0436,-0.9665,-0.1031,-0.231
178,921729.0,831.9376530000001,1.0,4.35,-0.17,-8.56,-11.25,-30.25,31.69,2.75,8.06,-1.63,-0.023391959512586803,0.18047713433821524,0.2049896841894423,-150.0772121119661,-11.881504040605064,-26.912168656137837,0.0433,-0.9661,-0.1035,-0.2327
179,921729.0,831.9376530000001,1.0,4.35,-0.17,-8.56,-11.25,-30.25,31.69,2.75,8.06,-1.63,-0.023391959512586803,0.18047713433821524,0.2049896841894423,-150.0772121119661,-11.881504040605064,-26.912168656137837,0.0433,-0.9661,-0.1035,-0.2327
180,921761.0,831.993622,1.0,4.39,-0.32,-8.63,-11.25,-30.25,31.69,5.19,5.25,-1.75,-0.08417963340665152,0.06813185799619195,0.11956210738513028,-149.81204156148604,-11.985198208002226,-27.112514953816074,0.045,-0.9655,-0.1044,-0.2344
181,921761.0,831.993622,1.0,4.39,-0.32,-8.63,-11.25,-30.25,31.69,5.19,5.25,-1.75,-0.08417963340665152,0.06813185799619195,0.11956210738513028,-149.81204156148604,-11.985198208002226,-27.112514953816074,0.045,-0.9655,-0.1044,-0.2344
182,921796.0,832.0013299999999,1.0,4.28,-0.33,-8.53,-12.06,-30.69,30.5,-0.25,-4.19,-0.81,-0.1262556282532399,0.06312281884532434,0.2584420515902348,-149.85607839466778,-12.042810329741009,-27.041794884833607,0.0451,-0.9656,-0.1049,-0.2338
183,921796.0,832.0013299999999,1.0,4.28,-0.33,-8.53,-12.06,-30.69,30.5,-0.25,-4.19,-0.81,-0.1262556282532399,0.06312281884532434,0.2584420515902348,-149.85607839466778,-12.042810329741009,-27.041794884833607,0.0451,-0.9656,-0.1049,-0.2338
184,921833.0,832.004113,1.0,4.22,-0.39,-8.4,-11.75,-30.0,30.87,-2.44,0.75,0.31,-0.12899491971131696,-0.004118855163143337,0.3990018695839392,-149.85607839466778,-12.03128766143814,-27.006438787370872,0.045,-0.9656,-0.1048,-0.2335
185,921833.0,832.004113,1.0,4.22,-0.39,-8.4,-11.75,-30.0,30.87,-2.44,0.75,0.31,-0.12899491971131696,-0.004118855163143337,0.3990018695839392,-149.85607839466778,-12.03128766143814,-27.006438787370872,0.045,-0.9656,-0.1048,-0.2335
186,921868.0,832.043271,1.0,4.35,-0.28,-8.72,-11.75,-30.0,30.87,-3.25,3.81,-2.25,-0.15245360718478929,0.1040509483254066,0.05958729897006342,-149.81204156148604,-12.03128766143814,-27.112514953816074,0.0439,-0.9655,-0.1048,-0.2344
187,921868.0,832.043271,1.0,4.35,-0.28,-8.72,-11.75,-30.0,30.87,-3.25,3.81,-2.25,-0.15245360718478929,0.1040509483254066,0.05958729897006342,-149.81204156148604,-12.03128766143814,-27.112514953816074,0.0439,-0.9655,-0.1048,-0.2344
188,921903.0,832.195286,1.0,4.5,-0.41,-8.95,-11.75,-29.56,30.5,0.63,2.81,-0.56,-0.17179130784679406,-0.013901590818408915,-0.21786467614871616,-149.68030591183427,-12.054333120262198,-27.218614801739264,0.0441,-0.9652,-0.105,-0.2353
189,921903.0,832.195286,1.0,4.5,-0.41,-8.95,-11.75,-29.56,30.5,0.63,2.81,-0.56,-0.17179130784679406,-0.013901590818408915,-0.21786467614871616,-149.68030591183427,-12.054333120262198,-27.218614801739264,0.0441,-0.9652,-0.105,-0.2353
190,921937.0,832.2568809999999,1.0,4.36,-0.36,-8.63,-11.75,-31.06,31.25,0.63,-1.81,2.13,-0.13288043175327374,0.02257485491614714,0.13204751892706312,-149.72415559222358,-12.042810329741009,-27.183245547895737,0.0444,-0.9653,-0.1049,-0.235
191,921937.0,832.2568809999999,1.0,4.36,-0.36,-8.63,-11.75,-31.06,31.25,0.63,-1.81,2.13,-0.13288043175327374,0.02257485491614714,0.13204751892706312,-149.72415559222358,-12.042810329741009,-27.183245547895737,0.0444,-0.9653,-0.1049,-0.235
192,921972.0,832.313587,1.0,4.43,-0.31,-8.82,-12.19,-29.56,31.25,-2.94,2.0,0.69,-0.15549952767823352,0.0787237918766776,-0.06669910055774331,-149.72415559222358,-11.962154211464537,-27.242195772473625,0.0439,-0.9653,-0.1042,-0.2355
193,921972.0,832.313587,1.0,4.43,-0.31,-8.82,-12.19,-29.56,31.25,-2.94,2.0,0.69,-0.15549952767823352,0.0787237918766776,-0.06669910055774331,-149.72415559222358,-11.962154211464537,-27.242195772473625,0.0439,-0.9653,-0.1042,-0.2355
194,922007.0,832.334083,1.0,4.36,-0.19,-8.62,-12.19,-29.56,31.25,-1.37,4.13,-0.25,-0.11774848612505252,0.17064516161291654,0.14708916511556147,-149.63651807466178,-11.950632395319571,-27.336531426237315,0.0432,-0.9651,-0.1041,-0.2363
195,922007.0,832.334083,1.0,4.36,-0.19,-8.62,-12.19,-29.56,31.25,-1.37,4.13,-0.25,-0.11774848612505252,0.17064516161291654,0.14708916511556147,-149.63651807466178,-11.950632395319571,-27.336531426237315,0.0432,-0.9651,-0.1041,-0.2363
196,922044.0,832.3863150000001,1.0,4.48,-0.25,-8.69,-11.06,-30.25,31.25,-1.5,6.69,-0.44,-0.0972240372141173,0.09363739954612543,0.027550883824009283,-149.46197984083236,-11.973676148985312,-27.560654449020664,0.0427,-0.9647,-0.1043,-0.2382
197,922044.0,832.3863150000001,1.0,4.48,-0.25,-8.69,-11.06,-30.25,31.25,-1.5,6.69,-0.44,-0.0972240372141173,0.09363739954612543,0.027550883824009283,-149.46197984083236,-11.973676148985312,-27.560654449020664,0.0427,-0.9647,-0.1043,-0.2382
198,922079.0,832.4294160000001,1.0,4.55,-0.31,-8.69,-12.19,-30.25,31.69,5.06,-4.81,1.0,-0.04063112829786023,0.03828402394911379,-0.0071965162709553,-149.46197984083236,-11.985198208002226,-27.513461750107517,0.0436,-0.9647,-0.1044,-0.2378
199,922079.0,832.4294160000001,1.0,4.55,-0.31,-8.69,-12.19,-30.25,31.69,5.06,-4.81,1.0,-0.04063112829786023,0.03828402394911379,-0.0071965162709553,-149.46197984083236,-11.985198208002226,-27.513461750107517,0.0436,-0.9647,-0.1044,-0.2378
200,922114.0,832.4471269999999,1.0,4.22,-0.14,-8.47,-12.19,-30.25,31.69,3.13,-0.06,0.25,-0.16560728574390848,0.25271525758397884,0.34738949901511873,-149.59279181341395,-11.962154211464537,-27.383706332074254,0.0447,-0.965,-0.1042,-0.2367
201,922114.0,832.4471269999999,1.0,4.22,-0.14,-8.47,-12.19,-30.25,31.69,3.13,-0.06,0.25,-0.16560728574390848,0.25271525758397884,0.34738949901511873,-149.59279181341395,-11.962154211464537,-27.383706332074254,0.0447,-0.965,-0.1042,-0.2367
202,922148.0,832.450172,1.0,4.52,-0.2,-8.87,-12.19,-31.75,30.87,2.06,2.13,-1.37,-0.1077216595978821,0.20355313219324853,-0.14796009615282912,-149.50552295905456,-12.00824269100582,-27.44268161964677,0.0452,-0.9648,-0.1046,-0.2372
203,922148.0,832.450172,1.0,4.52,-0.2,-8.87,-12.19,-31.75,30.87,2.06,2.13,-1.37,-0.1077216595978821,0.20355313219324853,-0.14796009615282912,-149.50552295905456,-12.00824269100582,-27.44268161964677,0.0452,-0.9648,-0.1046,-0.2372
204,922185.0,832.453301,1.0,4.37,-0.28,-8.54,-12.19,-30.25,32.5,3.13,0.25,-1.56,-0.10546675535998268,0.11465030495893458,0.2106804256898247,-149.46197984083236,-12.111948910357555,-27.43088596976693,0.0458,-0.9647,-0.1055,-0.2371
205,922185.0,832.453301,1.0,4.37,-0.28,-8.54,-12.19,-30.25,32.5,3.13,0.25,-1.56,-0.10546675535998268,0.11465030495893458,0.2106804256898247,-149.46197984083236,-12.111948910357555,-27.43088596976693,0.0458,-0.9647,-0.1055,-0.2371
206,922218.0,832.4983589999999,1.0,4.46,-0.5,-8.72,-12.19,-30.25,32.5,6.5,1.0,-0.19,-0.15594346418577687,-0.06258349683830172,0.000949365068235508,-149.37507492345586,-12.169567773976445,-27.43088596976693,0.0474,-0.9645,-0.106,-0.2371
207,922218.0,832.4983589999999,1.0,4.46,-0.5,-8.72,-12.19,-30.25,32.5,6.5,1.0,-0.19,-0.15594346418577687,-0.06258349683830172,0.000949365068235508,-149.37507492345586,-12.169567773976445,-27.43088596976693,0.0474,-0.9645,-0.106,-0.2371
208,922253.0,832.516463,1.0,4.48,-0.31,-8.84,-11.38,-30.25,30.87,-1.69,1.81,-1.5,-0.1573071713730863,0.1371874372112305,-0.10639867641161692,-149.33171261025748,-12.204140573704526,-27.478070348739482,0.0475,-0.9644,-0.1063,-0.2375
209,922253.0,832.516463,1.0,4.48,-0.31,-8.84,-11.38,-30.25,30.87,-1.69,1.81,-1.5,-0.1573071713730863,0.1371874372112305,-0.10639867641161692,-149.33171261025748,-12.204140573704526,-27.478070348739482,0.0475,-0.9644,-0.1063,-0.2375
210,922288.0,832.520185,1.0,4.48,-0.55,-8.71,-11.75,-30.0,32.5,2.63,-0.81,-0.94,-0.15371595751793612,-0.10736902586861348,-0.0016038352495932884,-149.288410054367,-12.261764386292771,-27.478070348739482,0.048,-0.9643,-0.1068,-0.2375
211,922288.0,832.520185,1.0,4.48,-0.55,-8.71,-11.75,-30.0,32.5,2.63,-0.81,-0.94,-0.15371595751793612,-0.10736902586861348,-0.0016038352495932884,-149.288410054367,-12.261764386292771,-27.478070348739482,0.048,-0.9643,-0.1068,-0.2375
212,922322.0,832.561494,1.0,4.47,-0.32,-8.69,-11.75,-30.0,30.87,0.37,-0.94,1.25,-0.0907826740418122,0.11017216560977702,0.030197647534984995,-149.37507492345586,-12.215665087929844,-27.41909061621704,0.0477,-0.9645,-0.1064,-0.237
213,922322.0,832.561494,1.0,4.47,-0.32,-8.69,-11.75,-30.0,30.87,0.37,-0.94,1.25,-0.0907826740418122,0.11017216560977702,0.030197647534984995,-149.37507492345586,-12.215665087929844,-27.41909061621704,0.0477,-0.9645,-0.1064,-0.237
214,922357.0,832.568956,1.0,4.34,-0.24,-8.65,-11.75,-30.0,30.87,-1.81,-1.31,1.25,-0.1585871122481982,0.2063138824594891,0.1294611153221119,-149.46197984083236,-12.181091916848366,-27.3719121623715,0.0477,-0.9647,-0.1061,-0.2366
215,922357.0,832.568956,1.0,4.34,-0.24,-8.65,-11.75,-30.0,30.87,-1.81,-1.31,1.25,-0.1585871122481982,0.2063138824594891,0.1294611153221119,-149.46197984083236,-12.181091916848366,-27.3719121623715,0.0477,-0.9647,-0.1061,-0.2366
216,922394.0,832.586979,1.0,4.46,-0.23,-8.73,-12.19,-30.0,31.69,-0.25,-1.31,0.88,-0.07947715936733718,0.1935121246455106,0.0028937587038058155,-149.50552295905456,-12.169567773976445,-27.312945744821853,0.0471,-0.9648,-0.106,-0.2361
217,922394.0,832.586979,1.0,4.46,-0.23,-8.73,-12.19,-30.0,31.69,-0.25,-1.31,0.88,-0.07947715936733718,0.1935121246455106,0.0028937587038058155,-149.50552295905456,-12.169567773976445,-27.312945744821853,0.0471,-0.9648,-0.106,-0.2361
218,922429.0,832.636306,1.0,4.3,-0.36,-8.42,-12.19,-30.25,30.87,2.5,-0.88,-0.12,-0.10148191332749794,0.05718098946020625,0.34607751437780365,-149.50552295905456,-12.169567773976445,-27.265777919115557,0.0474,-0.9648,-0.106,-0.2357
219,922429.0,832.636306,1.0,4.3,-0.36,-8.42,-12.19,-30.25,30.87,2.5,-0.88,-0.12,-0.10148191332749794,0.05718098946020625,0.34607751437780365,-149.50552295905456,-12.169567773976445,-27.265777919115557,0.0474,-0.9648,-0.106,-0.2357
220,922462.0,832.655919,1.0,4.46,-0.12,-8.73,-12.19,-30.25,30.87,-4.13,1.25,-0.12,-0.04991076072671968,0.2870363668083593,0.006955155766677379,-149.54912686270868,-12.158043754647913,-27.277569433768978,0.0464,-0.9649,-0.1059,-0.2358
221,922462.0,832.655919,1.0,4.46,-0.12,-8.73,-12.19,-30.25,30.87,-4.13,1.25,-0.12,-0.04991076072671968,0.2870363668083593,0.006955155766677379,-149.54912686270868,-12.158043754647913,-27.277569433768978,0.0464,-0.9649,-0.1059,-0.2358
222,922499.0,832.659965,1.0,4.29,-0.33,-8.56,-11.75,-30.0,30.87,2.56,-0.06,-1.88,-0.1629964776321868,0.09468332819568452,0.22797226162497355,-149.54912686270868,-12.215665087929844,-27.242195772473625,0.0468,-0.9649,-0.1064,-0.2355
223,922499.0,832.659965,1.0,4.29,-0.33,-8.56,-11.75,-30.0,30.87,2.56,-0.06,-1.88,-0.1629964776321868,0.09468332819568452,0.22797226162497355,-149.54912686270868,-12.215665087929844,-27.242195772473625,0.0468,-0.9649,-0.1064,-0.2355
224,922533.0,832.7069690000001,1.0,4.44,-0.35,-8.65,-12.19,-30.25,31.25,-0.88,0.56,-2.06,-0.08444307472598661,0.056101645170677256,0.07791308442149436,-149.50552295905456,-12.296340166976414,-27.277569433768978,0.0467,-0.9648,-0.1071,-0.2358
225,922533.0,832.7069690000001,1.0,4.44,-0.35,-8.65,-12.19,-30.25,31.25,-0.88,0.56,-2.06,-0.08444307472598661,0.056101645170677256,0.07791308442149436,-149.50552295905456,-12.296340166976414,-27.277569433768978,0.0467,-0.9648,-0.1071,-0.2358
226,922568.0,832.7257950000001,1.0,4.49,-0.37,-8.71,-12.19,-30.25,31.25,-2.63,1.37,-1.25,-0.0794492986150209,0.02954436709284664,0.0008397357065526022,-149.46197984083236,-12.330917071488784,-27.312945744821853,0.0464,-0.9647,-0.1074,-0.2361
227,922568.0,832.7257950000001,1.0,4.49,-0.37,-8.71,-12.19,-30.25,31.25,-2.63,1.37,-1.25,-0.0794492986150209,0.02954436709284664,0.0008397357065526022,-149.46197984083236,-12.330917071488784,-27.312945744821853,0.0464,-0.9647,-0.1074,-0.2361
228,922601.0,832.76742,1.0,4.48,-0.15,-8.78,-11.38,-30.0,32.06,-2.19,2.0,0.31,-0.08246828630032542,0.24221292308769135,-0.04808652015334225,-149.4184972482763,-12.307865676783145,-27.383706332074254,0.0456,-0.9646,-0.1072,-0.2367
229,922601.0,832.76742,1.0,4.48,-0.15,-8.78,-11.38,-30.0,32.06,-2.19,2.0,0.31,-0.08246828630032542,0.24221292308769135,-0.04808652015334225,-149.4184972482763,-12.307865676783145,-27.383706332074254,0.0456,-0.9646,-0.1072,-0.2367
230,922638.0,832.833582,1.0,4.53,-0.18,-8.75,-11.75,-30.0,31.69,-1.88,2.31,-0.94,-0.044141862400854576,0.19185335832693715,-0.04611833102669216,-149.33171261025748,-12.342442956629045,-27.44268161964677,0.0452,-0.9644,-0.1075,-0.2372
231,922638.0,832.833582,1.0,4.53,-0.18,-8.75,-11.75,-30.0,31.69,-1.88,2.31,-0.94,-0.044141862400854576,0.19185335832693715,-0.04611833102669216,-149.33171261025748,-12.342442956629045,-27.44268161964677,0.0452,-0.9644,-0.1075,-0.2372
232,922673.0,832.8416990000001,1.0,4.45,-0.31,-8.63,-11.75,-30.0,31.69,2.63,-1.5,-1.81,-0.08356424694484274,0.0655799665520781,0.09252542366171036,-149.33171261025748,-12.423127669242316,-27.407295558849807,0.0455,-0.9644,-0.1082,-0.2369
233,922673.0,832.8416990000001,1.0,4.45,-0.31,-8.63,-11.75,-30.0,31.69,2.63,-1.5,-1.81,-0.08356424694484274,0.0655799665520781,0.09252542366171036,-149.33171261025748,-12.423127669242316,-27.407295558849807,0.0455,-0.9644,-0.1082,-0.2369
234,922707.0,832.860151,1.0,4.52,-0.3,-8.84,-11.75,-30.25,31.25,-0.37,2.75,-1.56,-0.1146465771082898,0.09255203217150344,-0.125333199930326,-149.33171261025748,-12.492290914481535,-27.407295558849807,0.0457,-0.9644,-0.1088,-0.2369
235,922707.0,832.860151,1.0,4.52,-0.3,-8.84,-11.75,-30.25,31.25,-0.37,2.75,-1.56,-0.1146465771082898,0.09255203217150344,-0.125333199930326,-149.33171261025748,-12.492290914481535,-27.407295558849807,0.0457,-0.9644,-0.1088,-0.2369
236,922742.0,832.908293,1.0,4.5,-0.36,-8.69,-12.19,-30.0,31.69,4.5,1.31,-1.12,-0.08819118587173527,0.03271637088179977,0.01446679328808109,-149.20198320614296,-12.561458728935325,-27.466273808985672,0.0466,-0.9641,-0.1094,-0.2374
237,922742.0,832.908293,1.0,4.5,-0.36,-8.69,-12.19,-30.0,31.69,4.5,1.31,-1.12,-0.08819118587173527,0.03271637088179977,0.01446679328808109,-149.20198320614296,-12.561458728935325,-27.466273808985672,0.0466,-0.9641,-0.1094,-0.2374
238,922777.0,832.926893,1.0,4.57,-0.29,-8.81,-11.75,-30.0,30.87,-1.56,2.44,-1.63,-0.07802006773282333,0.10273209972702954,-0.12151493541060532,-149.11579237958978,-12.596044357776794,-27.537057504249983,0.0465,-0.9639,-0.1097,-0.23800000000000002
239,922777.0,832.926893,1.0,4.57,-0.29,-8.81,-11.75,-30.0,30.87,-1.56,2.44,-1.63,-0.07802006773282333,0.10273209972702954,-0.12151493541060532,-149.11579237958978,-12.596044357776794,-27.537057504249983,0.0465,-0.9639,-0.1097,-0.23800000000000002
240,922812.0,832.97653,1.0,4.48,-0.39,-8.66,-11.75,-30.0,30.87,4.5,-0.56,-0.06,-0.10826866690586903,0.016323617327810708,0.04928809038099935,-149.11579237958978,-12.642160322280047,-27.52525947842401,0.0474,-0.9639,-0.1101,-0.2379
241,922812.0,832.97653,1.0,4.48,-0.39,-8.66,-11.75,-30.0,30.87,4.5,-0.56,-0.06,-0.10826866690586903,0.016323617327810708,0.04928809038099935,-149.11579237958978,-12.642160322280047,-27.52525947842401,0.0474,-0.9639,-0.1101,-0.2379
242,922847.0,832.994962,1.0,4.54,-0.33,-8.77,-11.38,-29.19,31.25,0.0,0.63,0.25,-0.09332992368609444,0.08160910492200474,-0.07353367639683839,-149.11579237958978,-12.630631138714767,-27.537057504249983,0.0475,-0.9639,-0.11,-0.23800000000000002
243,922847.0,832.994962,1.0,4.54,-0.33,-8.77,-11.38,-29.19,31.25,0.0,0.63,0.25,-0.09332992368609444,0.08160910492200474,-0.07353367639683839,-149.11579237958978,-12.630631138714767,-27.537057504249983,0.0475,-0.9639,-0.11,-0.23800000000000002
244,922882.0,833.037021,1.0,4.41,-0.21,-8.54,-11.75,-30.0,32.06,-3.44,0.19,-0.81,-0.07584058445077216,0.17580863605424768,0.19482709644841376,-149.11579237958978,-12.653689634339962,-27.537057504249983,0.0468,-0.9639,-0.1102,-0.23800000000000002
245,922882.0,833.037021,1.0,4.41,-0.21,-8.54,-11.75,-30.0,32.06,-3.44,0.19,-0.81,-0.07584058445077216,0.17580863605424768,0.19482709644841376,-149.11579237958978,-12.653689634339962,-27.537057504249983,0.0468,-0.9639,-0.1102,-0.23800000000000002
246,922916.0,833.098859,1.0,4.51,-0.29,-8.54,-11.75,-30.0,32.06,2.13,1.63,-0.88,-0.010703150225481392,0.07987913493950283,0.1449056043757544,-149.07278485727542,-12.688278342697654,-27.548855827733,0.0469,-0.9638,-0.1105,-0.2381
247,922916.0,833.098859,1.0,4.51,-0.29,-8.54,-11.75,-30.0,32.06,2.13,1.63,-0.88,-0.010703150225481392,0.07987913493950283,0.1449056043757544,-149.07278485727542,-12.688278342697654,-27.548855827733,0.0469,-0.9638,-0.1105,-0.2381
248,922951.0,833.115875,1.0,4.56,-0.3,-8.76,-12.19,-30.0,32.06,0.37,1.75,-1.19,-0.07850516097634555,0.09918243985831,-0.07288439101883347,-148.98694437514695,-12.734398426775371,-27.60785191517117,0.0473,-0.9636,-0.1109,-0.2386
249,922951.0,833.115875,1.0,4.56,-0.3,-8.76,-12.19,-30.0,32.06,0.37,1.75,-1.19,-0.07850516097634555,0.09918243985831,-0.07288439101883347,-148.98694437514695,-12.734398426775371,-27.60785191517117,0.0473,-0.9636,-0.1109,-0.2386
250,922986.0,833.194078,1.0,4.45,-0.41,-8.53,-11.38,-30.0,30.5,2.56,0.25,-1.0,-0.09401689313591516,-0.01798758463504599,0.17740614232331708,-148.98694437514695,-12.780520582262024,-27.59605210118816,0.0475,-0.9636,-0.1113,-0.2385
251,922986.0,833.194078,1.0,4.45,-0.41,-8.53,-11.38,-30.0,30.5,2.56,0.25,-1.0,-0.09401689313591516,-0.01798758463504599,0.17740614232331708,-148.98694437514695,-12.780520582262024,-27.59605210118816,0.0475,-0.9636,-0.1113,-0.2385
