acc_x,acc_y,acc_z,lin_x,lin_y,lin_z,eul_x,eul_y,eul_z
8.43,1.57,4.65,-0.1287332148753043,0.0671868775239972,0.05312685793095,-58.23470667250937,17.36976491594495,-100.27771483475884
8.43,1.57,4.65,-0.1287332148753043,0.0671868775239972,0.05312685793095,-58.23470667250937,17.36976491594495,-100.27771483475884
8.53,1.54,4.58,-0.1838756033689189,-0.0444163987657342,0.0049605055298549,-58.1822461911917,17.33498950133432,-100.38504889165011
8.53,1.54,4.58,-0.1838756033689189,-0.0444163987657342,0.0049605055298549,-58.1822461911917,17.33498950133432,-100.38504889165011
8.36,1.34,4.77,0.1259324317351157,0.0161980758668942,0.0895527665163555,-58.20847476062468,17.277034050168414,-100.42085372385358
8.36,1.34,4.77,0.1259324317351157,0.0161980758668942,0.0895527665163555,-58.20847476062468,17.277034050168414,-100.42085372385358
8.32,1.29,4.65,0.0955677480309603,-0.0664940745683593,0.1891947573911938,-58.23470667250937,17.253853117357277,-100.474586173471
8.32,1.29,4.65,0.0955677480309603,-0.0664940745683593,0.1891947573911938,-58.23470667250937,17.253853117357277,-100.474586173471
8.49,1.44,4.55,-0.1293083343045735,-0.1110779848038652,0.0687271703627008,-58.15602096155954,17.26544349477142,-100.52834892064112
8.49,1.44,4.55,-0.1293083343045735,-0.1110779848038652,0.0687271703627008,-58.15602096155954,17.26544349477142,-100.52834892064112
8.54,1.45,4.69,-0.0688781319145727,-0.0459977471355681,-0.0433926400195048,-58.09047248173243,17.288624783675054,-100.54627658006508
8.54,1.45,4.69,-0.0688781319145727,-0.0459977471355681,-0.0433926400195048,-58.09047248173243,17.288624783675054,-100.54627658006508
8.3,1.52,4.72,-0.0518649050340921,0.1331938254355582,0.1392631019550236,-58.09047248173243,17.31180678552449,-100.58214202852676
8.3,1.52,4.72,-0.0518649050340921,0.1331938254355582,0.1392631019550236,-58.09047248173243,17.31180678552449,-100.58214202852676
8.41,1.4,4.64,-0.0443824754297523,-0.0471510008708451,0.1002857486960309,-58.07736528499432,17.230672895970507,-100.70777770605255
8.41,1.4,4.64,-0.0443824754297523,-0.0471510008708451,0.1002857486960309,-58.07736528499432,17.230672895970507,-100.70777770605255
8.46,1.34,4.76,0.0625017710272229,-0.0380502458738383,0.007698744513144,-58.07736528499432,17.195903895593172,-100.76167247514276
8.46,1.34,4.76,0.0625017710272229,-0.0380502458738383,0.007698744513144,-58.07736528499432,17.195903895593172,-100.76167247514276
8.25,1.56,4.75,-0.0717148007613769,0.206920371930468,0.1624475473846498,-58.03804868729153,17.277034050168414,-100.81559788103888
8.25,1.56,4.75,-0.0717148007613769,0.206920371930468,0.1624475473846498,-58.03804868729153,17.277034050168414,-100.81559788103888
8.59,1.42,4.44,-0.2480692469858187,-0.2299632418109561,0.0391693342338417,-58.02494481779507,17.195903895593172,-100.92354086053491
8.59,1.42,4.44,-0.2480692469858187,-0.2299632418109561,0.0391693342338417,-58.02494481779507,17.195903895593172,-100.92354086053491
8.49,1.5,4.66,-0.1342612972488474,0.0059469696170411,0.0072807071519402,-58.09047248173243,17.195903895593172,-100.86955398800988
8.49,1.5,4.66,-0.1342612972488474,0.0059469696170411,0.0072807071519402,-58.09047248173243,17.195903895593172,-100.86955398800988
8.51,1.56,4.63,-0.190708158060608,0.0336723978796849,-0.0042162496270012,-58.20847476062468,17.184314583414665,-100.86955398800988
8.51,1.56,4.63,-0.190708158060608,0.0336723978796849,-0.0042162496270012,-58.20847476062468,17.184314583414665,-100.86955398800988
8.85,2.12,4.17,-0.9599649459707658,0.0123657172166153,-0.157491427716943,-58.41842386753149,17.103194349757633,-100.97755856330473
8.85,2.12,4.17,-0.9599649459707658,0.0123657172166153,-0.157491427716943,-58.41842386753149,17.103194349757633,-100.97755856330473
9.7,3.24,3.32,-2.475731282419505,-0.0348428510592102,-0.6565971342781349,-58.90475801998696,17.02208275037734,-101.01358752510708
9.7,3.24,3.32,-2.475731282419505,-0.0348428510592102,-0.6565971342781349,-58.90475801998696,17.02208275037734,-101.01358752510708
9.87,3.71,3.29,-2.685767964886587,0.4748951280066065,-0.8969113258477925,-60.52998522199608,16.10726571114575,-101.5194456395094
9.87,3.71,3.29,-2.685767964886587,0.4748951280066065,-0.8969113258477925,-60.52998522199608,16.10726571114575,-101.5194456395094
12.57,5.99,1.02,-6.210517504450539,-0.1913374139017603,-2.696080194679673,-61.78113721204743,15.86426270309298,-100.70777770605255
12.57,5.99,1.02,-6.210517504450539,-0.1913374139017603,-2.696080194679673,-61.78113721204743,15.86426270309298,-100.70777770605255
11.86,8.27,1.74,-6.52782249526088,2.168636830491796,-3.029418236333141,-64.53868567478604,16.396650200988272,-97.28475700134165
11.86,8.27,1.74,-6.52782249526088,2.168636830491796,-3.029418236333141,-64.53868567478604,16.396650200988272,-97.28475700134165
11.56,6.39,2.75,-3.486799298773576,2.164489875514551,-3.045797791330143,-69.13823625091533,13.79574779269871,-96.04370901836045
11.56,6.39,2.75,-3.486799298773576,2.164489875514551,-3.045797791330143,-69.13823625091533,13.79574779269871,-96.04370901836045
13.16,4.39,1.57,-2.018968119097733,-0.0443616761053422,-4.007994395559376,-75.39608386757837,9.614047461503418,-93.48813148907244
13.16,4.39,1.57,-2.018968119097733,-0.0443616761053422,-4.007994395559376,-75.39608386757837,9.614047461503418,-93.48813148907244
12.8,5.87,1.83,-1.046760257945387,1.6675033877433885,-4.256405337096932,-81.4607148625289,7.47667331573405,-88.59755263252764
12.8,5.87,1.83,-1.046760257945387,1.6675033877433885,-4.256405337096932,-81.4607148625289,7.47667331573405,-88.59755263252764
11.96,6.54,2.6,0.6447655280656721,3.0850816958438605,-3.7077774145739313,-86.75466377852933,4.733977821845079,-85.00152199363876
11.96,6.54,2.6,0.6447655280656721,3.0850816958438605,-3.7077774145739313,-86.75466377852933,4.733977821845079,-85.00152199363876
12.11,6.33,2.53,2.5552040868050847,2.844411919396496,-3.553819786185283,-93.67223499425867,0.3093975852894872,-79.76271757028876
12.11,6.33,2.53,2.5552040868050847,2.844411919396496,-3.553819786185283,-93.67223499425867,0.3093975852894872,-79.76271757028876
12.83,7.09,1.46,2.968500237034544,2.8225519191458086,-4.343608195752192,-98.73464010261608,-3.369477361207863,-75.56997527074246
12.83,7.09,1.46,2.968500237034544,2.8225519191458086,-4.343608195752192,-98.73464010261608,-3.369477361207863,-75.56997527074246
12.79,5.28,0.46,4.3958243729679385,0.6852528027497313,-3.303699220304725,-106.03132620370606,-9.25760576115156,-69.2356779378902
12.79,5.28,0.46,4.3958243729679385,0.6852528027497313,-3.303699220304725,-106.03132620370606,-9.25760576115156,-69.2356779378902
12.12,3.79,-0.92,4.2401792286535445,-1.0540788948798374,-2.1522252728784625,-111.09591679955122,-13.44952940908047,-63.92984840946279
12.12,3.79,-0.92,4.2401792286535445,-1.0540788948798374,-2.1522252728784625,-111.09591679955122,-13.44952940908047,-63.92984840946279
11.37,4.14,-1.87,4.658680543042968,-1.0475732731585166,-1.4677761865177352,-117.3429325945059,-18.471838381894354,-56.57550655085348
11.37,4.14,-1.87,4.658680543042968,-1.0475732731585166,-1.4677761865177352,-117.3429325945059,-18.471838381894354,-56.57550655085348
9.29,1.76,-2.65,3.812583523204821,-2.7252932302752395,1.177560610753703,-123.6476805433651,-23.296175790566195,-48.51019892418311
9.29,1.76,-2.65,3.812583523204821,-2.7252932302752395,1.177560610753703,-123.6476805433651,-23.296175790566195,-48.51019892418311
7.92,1.18,-4.12,2.4997607293435475,-2.8788752423343325,1.6484348989435027,-127.58485235552216,-26.1233774379412,-42.790549766583936
7.92,1.18,-4.12,2.4997607293435475,-2.8788752423343325,1.6484348989435027,-127.58485235552216,-26.1233774379412,-42.790549766583936
7.27,1.34,-4.92,2.6143956849102548,-2.6427365542886583,1.7421736557263596,-132.49673400768697,-28.83669047331989,-35.299808644002006
7.27,1.34,-4.92,2.6143956849102548,-2.6427365542886583,1.7421736557263596,-132.49673400768697,-28.83669047331989,-35.299808644002006
5.32,0.19,-5.01,1.411667900263898,-2.6900908367597527,3.1576496969961187,-136.18886320443548,-30.17572764472251,-29.57087281914313
5.32,0.19,-5.01,1.411667900263898,-2.6900908367597527,3.1576496969961187,-136.18886320443548,-30.17572764472251,-29.57087281914313
3.78,0.57,-5.02,1.1662343850346049,-1.6814706476544663,3.8378767742659687,-140.20399733163396,-31.15005518797356,-22.66472550596455
3.78,0.57,-5.02,1.1662343850346049,-1.6814706476544663,3.8378767742659687,-140.20399733163396,-31.15005518797356,-22.66472550596455
2.94,0.09,-5.36,0.6236206181525487,-1.7125254612118292,3.9705850698166265,-142.63208125401738,-31.542810907574808,-18.019205613951
2.94,0.09,-5.36,0.6236206181525487,-1.7125254612118292,3.9705850698166265,-142.63208125401738,-31.542810907574808,-18.019205613951
1.57,0.1,-5.13,0.1023579046610361,-1.0862867459220285,4.55295568409357,-144.9174197897038,-31.73337455864903,-12.492290914481536
1.57,0.1,-5.13,0.1023579046610361,-1.0862867459220285,4.55295568409357,-144.9174197897038,-31.73337455864903,-12.492290914481536
0.78,0.56,-5.61,-0.1093106523304055,-0.4263534560229124,4.132112669800787,-145.9589661948812,-31.79294414962257,-9.016196458354324
0.78,0.56,-5.61,-0.1093106523304055,-0.4263534560229124,4.132112669800787,-145.9589661948812,-31.79294414962257,-9.016196458354324
-0.24,0.29,-6.0,-0.7771302356126321,-0.2536370840248839,3.8506919052427824,-146.951724947316,-31.66190266420909,-5.0321866714644
-0.24,0.29,-6.0,-0.7771302356126321,-0.2536370840248839,3.8506919052427824,-146.951724947316,-31.66190266420909,-5.0321866714644
-0.56,0.5,-6.39,-0.7411878052517629,-0.0446486859552682,3.4156917672943177,-147.27558529764082,-31.59044340777591,-2.670224968889185
-0.56,0.5,-6.39,-0.7411878052517629,-0.0446486859552682,3.4156917672943177,-147.27558529764082,-31.59044340777591,-2.670224968889185
-0.29,0.87,-7.28,-0.1317184346736819,-0.1252867984780492,2.4713685826245047,-147.23493252348757,-31.63808150954527,-0.4010712754482724
-0.29,0.87,-7.28,-0.1317184346736819,-0.1252867984780492,2.4713685826245047,-147.23493252348757,-31.63808150954527,-0.4010712754482724
-1.51,0.62,-7.23,-1.1202684815468773,0.2263195961356147,2.4833189293971083,-147.0728095954594,-31.697637029521523,1.1230152546764245
-1.51,0.62,-7.23,-1.1202684815468773,0.2263195961356147,2.4833189293971083,-147.0728095954594,-31.697637029521523,1.1230152546764245
-1.53,0.69,-7.88,-0.9505732245622408,0.1363523872721558,1.8073238676791945,-147.23493252348757,-31.459467480314125,2.3951379752687134
-1.53,0.69,-7.88,-0.9505732245622408,0.1363523872721558,1.8073238676791945,-147.23493252348757,-31.459467480314125,2.3951379752687134
-1.61,0.74,-8.4,-0.9183451614832684,0.0919938394231682,1.271553087961539,-147.03240000479886,-31.56662645811723,2.956790311078442
-1.61,0.74,-8.4,-0.9183451614832684,0.0919938394231682,1.271553087961539,-147.03240000479886,-31.56662645811723,2.956790311078442
-1.65,0.71,-8.83,-0.906632612881766,-0.0122747418035517,0.8415305565138826,-146.7508698708792,-31.757201337874307,3.35801326652208
-1.65,0.71,-8.83,-0.906632612881766,-0.0122747418035517,0.8415305565138826,-146.7508698708792,-31.757201337874307,3.35801326652208
-1.25,0.66,-9.41,-0.5582302224469411,-0.3443872821367851,0.3137064934447586,-146.79094642726758,-31.769115255908964,3.495584654482353
-1.25,0.66,-9.41,-0.5582302224469411,-0.3443872821367851,0.3137064934447586,-146.79094642726758,-31.769115255908964,3.495584654482353
-1.48,0.87,-9.32,-0.6454431987041845,-0.0512247809392492,0.3519961671479361,-146.63092085313292,-31.888273849894752,3.5070491615651807
-1.48,0.87,-9.32,-0.6454431987041845,-0.0512247809392492,0.3519961671479361,-146.63092085313292,-31.888273849894752,3.5070491615651807
-1.39,0.64,-9.47,-0.6536843117482141,-0.2921347711334382,0.2405664703589849,-146.5113892939378,-32.01938920775377,3.6675560000932936
-1.39,0.64,-9.47,-0.6536843117482141,-0.2921347711334382,0.2405664703589849,-146.5113892939378,-32.01938920775377,3.6675560000932936
-0.95,0.62,-9.75,-0.3052850959605111,-0.5502811365339566,0.0110697884474788,-146.5113892939378,-32.114772865183184,3.5070491615651807
-0.95,0.62,-9.75,-0.3052850959605111,-0.5502811365339566,0.0110697884474788,-146.5113892939378,-32.114772865183184,3.5070491615651807
-0.5,0.96,-9.88,0.1948538020527536,-0.5320702399036429,-0.1162998263185084,-146.39227073603638,-32.18632560419117,3.163128706652845
-0.5,0.96,-9.88,0.1948538020527536,-0.5320702399036429,-0.1162998263185084,-146.39227073603638,-32.18632560419117,3.163128706652845
-0.38,1.46,-9.96,0.503473557176682,-0.2106128057721357,-0.2521648717067411,-146.47163743677677,-32.10284865965952,2.865087475133015
-0.38,1.46,-9.96,0.503473557176682,-0.2106128057721357,-0.2521648717067411,-146.47163743677677,-32.10284865965952,2.865087475133015
-0.33,1.36,-9.98,0.4736732300295778,-0.3136823345018018,-0.2549670203489089,-146.5511870394875,-32.031310917714855,2.750461504037132
-0.33,1.36,-9.98,0.4736732300295778,-0.3136823345018018,-0.2549670203489089,-146.5511870394875,-32.031310917714855,2.750461504037132
-0.34,1.34,-9.85,0.4244418688820575,-0.3019593559749185,-0.1262433170189218,-146.5113892939378,-32.09092481112806,2.578527672575933
-0.34,1.34,-9.85,0.4244418688820575,-0.3019593559749185,-0.1262433170189218,-146.5113892939378,-32.09092481112806,2.578527672575933
-0.77,1.03,-9.55,-0.101502902471805,-0.2687777197555544,0.1747366024370382,-146.5113892939378,-32.10284865965952,2.5670656278548973
-0.77,1.03,-9.55,-0.101502902471805,-0.2687777197555544,0.1747366024370382,-146.5113892939378,-32.10284865965952,2.5670656278548973
-0.85,0.7,-9.63,-0.3249840454816506,-0.4869513160448744,0.1315963161187294,-146.59103083752737,-32.067078184397204,2.6358382855186164
-0.85,0.7,-9.63,-0.3249840454816506,-0.4869513160448744,0.1315963161187294,-146.59103083752737,-32.067078184397204,2.6358382855186164
-0.75,0.81,-9.51,-0.1896558200574809,-0.4266930116465056,0.2441888239360512,-146.63092085313292,-32.01938920775377,2.589989743099661
-0.75,0.81,-9.51,-0.1896558200574809,-0.4266930116465056,0.2441888239360512,-146.63092085313292,-32.01938920775377,2.589989743099661
-0.79,0.96,-9.49,-0.146268887100163,-0.2549018714519452,0.2400711732408336,-146.79094642726758,-31.91210981272961,2.544141615361497
-0.79,0.96,-9.49,-0.146268887100163,-0.2549018714519452,0.2400711732408336,-146.79094642726758,-31.91210981272961,2.544141615361497
-0.59,1.39,-9.69,0.232541492662678,-0.0249364993011139,0.0024874847622591,-146.951724947316,-31.74528777217434,2.440984806055245
-0.59,1.39,-9.69,0.232541492662678,-0.0249364993011139,0.0024874847622591,-146.951724947316,-31.74528777217434,2.440984806055245
-0.82,1.04,-9.49,-0.1460532642014141,-0.1387973092317723,0.2268011624156561,-147.0728095954594,-31.66190266420909,2.4065996467302937
-0.82,1.04,-9.49,-0.1460532642014141,-0.1387973092317723,0.2268011624156561,-147.0728095954594,-31.66190266420909,2.4065996467302937
-0.73,0.97,-9.56,-0.1203630026689112,-0.2330237171589139,0.1734463431249917,-147.15377378773437,-31.63808150954527,2.2919839967771853
-0.73,0.97,-9.56,-0.1203630026689112,-0.2330237171589139,0.1734463431249917,-147.15377378773437,-31.63808150954527,2.2919839967771853
-0.52,1.25,-9.8,0.1767872935135863,-0.1138009860708231,-0.0841889729295193,-147.35703857325038,-31.495183998739208,2.0971425933011094
-0.52,1.25,-9.8,0.1767872935135863,-0.1138009860708231,-0.0841889729295193,-147.35703857325038,-31.495183998739208,2.0971425933011094
-0.68,1.17,-9.88,-0.0153957219706412,-0.0999359490678098,-0.1650838401016763,-147.35703857325038,-31.495183998739208,2.0054546535892377
-0.68,1.17,-9.88,-0.0153957219706412,-0.0999359490678098,-0.1650838401016763,-147.35703857325038,-31.495183998739208,2.0054546535892377
-0.71,1.1,-9.66,-0.0941033118377033,-0.1059822256685407,0.0593625653059994,-147.23493252348757,-31.602352407672463,1.8908465277120163
-0.71,1.1,-9.66,-0.0941033118377033,-0.1059822256685407,0.0593625653059994,-147.23493252348757,-31.602352407672463,1.8908465277120163
-0.63,1.22,-9.77,0.0267155655802281,-0.0536029085613364,-0.0591805786562904,-147.23493252348757,-31.626171458397582,1.8220825674649568
-0.63,1.22,-9.77,0.0267155655802281,-0.0536029085613364,-0.0591805786562904,-147.23493252348757,-31.626171458397582,1.8220825674649568
-0.61,0.88,-9.78,-0.1193270886168199,-0.3108858694079387,-0.0261528060225337,-147.31628725286762,-31.626171458397582,1.8450038134157023
-0.61,0.88,-9.78,-0.1193270886168199,-0.3108858694079387,-0.0261528060225337,-147.31628725286762,-31.626171458397582,1.8450038134157023
-0.5,0.91,-9.76,-0.0134248775135169,-0.3246873514683967,-0.0030440776183304,-147.31628725286762,-31.66190266420909,1.79916139442209
-0.5,0.91,-9.76,-0.0134248775135169,-0.3246873514683967,-0.0030440776183304,-147.31628725286762,-31.66190266420909,1.79916139442209
-0.44,1.11,-9.75,0.1454937026752407,-0.1767593511384978,-0.0135224890282312,-147.31628725286762,-31.66190266420909,1.79916139442209
-0.44,1.11,-9.75,0.1454937026752407,-0.1767593511384978,-0.0135224890282312,-147.31628725286762,-31.66190266420909,1.79916139442209
-0.58,0.81,-9.67,-0.1116084605030962,-0.3204997534514373,0.0913927486668289,-147.35703857325038,-31.66190266420909,1.867925133192117
-0.58,0.81,-9.67,-0.1116084605030962,-0.3204997534514373,0.0913927486668289,-147.35703857325038,-31.66190266420909,1.867925133192117
-0.67,0.87,-9.55,-0.1559872689471413,-0.2067561545134539,0.1972161007269904,-147.35703857325038,-31.6738137680446,1.867925133192117
-0.67,0.87,-9.55,-0.1559872689471413,-0.2067561545134539,0.1972161007269904,-147.35703857325038,-31.6738137680446,1.867925133192117
-0.47,1.2,-9.66,0.1786635679908187,-0.063842735250735,0.0629082426139557,-147.31628725286762,-31.6738137680446,1.8450038134157023
-0.47,1.2,-9.66,0.1786635679908187,-0.063842735250735,0.0629082426139557,-147.31628725286762,-31.6738137680446,1.8450038134157023
-0.64,1.25,-9.61,0.0678709812571161,0.0635336007883032,0.0950303095737918,-147.27558529764082,-31.6738137680446,1.9023072532875973
-0.64,1.25,-9.61,0.0678709812571161,0.0635336007883032,0.0950303095737918,-147.27558529764082,-31.6738137680446,1.9023072532875973
-0.6,1.09,-9.68,0.0227000591882256,-0.0909289780194693,0.0474637312443295,-147.27558529764082,-31.697637029521523,1.9137679978932431
-0.6,1.09,-9.68,0.0227000591882256,-0.0909289780194693,0.0474637312443295,-147.27558529764082,-31.697637029521523,1.9137679978932431
-0.67,1.08,-9.54,-0.0382324742774251,-0.0404110436243199,0.1825237941845419,-147.27558529764082,-31.73337455864903,1.925228761643688
-0.67,1.08,-9.54,-0.0382324742774251,-0.0404110436243199,0.1825237941845419,-147.27558529764082,-31.73337455864903,1.925228761643688
-0.57,0.8,-9.67,-0.0880801101341063,-0.3152493194295396,0.0923996552334021,-147.23493252348757,-31.804859125621785,1.94815034703792
-0.57,0.8,-9.67,-0.0880801101341063,-0.3152493194295396,0.0923996552334021,-147.23493252348757,-31.804859125621785,1.94815034703792
-0.55,0.85,-9.77,-0.0447209656018057,-0.2744915539741564,-0.0117284008375033,-147.27558529764082,-31.804859125621785,1.9137679978932431
-0.55,0.85,-9.77,-0.0447209656018057,-0.2744915539741564,-0.0117284008375033,-147.27558529764082,-31.804859125621785,1.9137679978932431
-0.63,0.75,-9.51,-0.1612966854626703,-0.2498521821382892,0.2509680637727669,-147.31628725286762,-31.81677445459612,1.8793858210517669
-0.63,0.75,-9.51,-0.1612966854626703,-0.2498521821382892,0.2509680637727669,-147.31628725286762,-31.81677445459612,1.8793858210517669
-0.47,0.98,-9.56,0.0854996867188282,-0.1333480425131279,0.186368917665197,-147.35703857325038,-31.804859125621785,1.79916139442209
-0.47,0.98,-9.56,0.0854996867188282,-0.1333480425131279,0.186368917665197,-147.35703857325038,-31.804859125621785,1.79916139442209
-0.59,0.93,-9.56,-0.0500981521890757,-0.094693018746143,0.1840140094125964,-147.39783944401512,-31.757201337874307,1.7303983035632713
-0.59,0.93,-9.56,-0.0500981521890757,-0.094693018746143,0.1840140094125964,-147.39783944401512,-31.757201337874307,1.7303983035632713
-0.32,1.01,-9.78,0.1991036866848414,-0.185707923649959,-0.0268015959068055,-147.39783944401512,-31.769115255908964,1.5928739664684124
-0.32,1.01,-9.78,0.1991036866848414,-0.185707923649959,-0.0268015959068055,-147.39783944401512,-31.769115255908964,1.5928739664684124
-0.67,1.03,-9.56,-0.0986940128617822,0.0471571155030017,0.168629679504578,-147.39783944401512,-31.78102952643836,1.5126525087430307
-0.67,1.03,-9.56,-0.0986940128617822,0.0471571155030017,0.168629679504578,-147.39783944401512,-31.78102952643836,1.5126525087430307
