acc_x,acc_y,acc_z,lin_x,lin_y,lin_z,eul_x,eul_y,eul_z
7.17,4.92,4.71,-0.1171737485042927,0.0555553120636656,-0.0818576690046093,-59.22084162921026,15.262847451308849,-69.17998997689496
7.17,4.92,4.71,-0.1171737485042927,0.0555553120636656,-0.0818576690046093,-59.22084162921026,15.262847451308849,-69.17998997689496
7.28,4.82,4.64,-0.0203248408342713,-0.0820450781736337,-0.0803746032864989,-59.22084162921026,15.216602467156427,-69.207831623394
7.28,4.82,4.64,-0.0203248408342713,-0.0820450781736337,-0.0803746032864989,-59.22084162921026,15.216602467156427,-69.207831623394
7.16,4.86,4.57,-0.1184894445524085,-0.0581478157091588,0.0213202108177252,-59.23402251666461,15.216602467156427,-69.19391021689427
7.16,4.86,4.57,-0.1184894445524085,-0.0581478157091588,0.0213202108177252,-59.23402251666461,15.216602467156427,-69.19391021689427
7.13,4.91,4.61,-0.1556305006500067,-0.0019289714748067,-0.0001270152245513,-59.23402251666461,15.216602467156427,-69.19391021689427
7.13,4.91,4.61,-0.1556305006500067,-0.0019289714748067,-0.0001270152245513,-59.23402251666461,15.216602467156427,-69.19391021689427
7.22,4.91,4.63,-0.114519041743459,-0.0480022633437968,-0.0755552787721445,-59.22084162921026,15.170359975770204,-69.19391021689427
7.22,4.91,4.63,-0.114519041743459,-0.0480022633437968,-0.0755552787721445,-59.22084162921026,15.170359975770204,-69.19391021689427
7.18,4.85,4.62,-0.0765018125221631,-0.0363905469257845,-0.0123175221366977,-59.24720426605303,15.158799741488714,-69.19391021689427
7.18,4.85,4.62,-0.0765018125221631,-0.0363905469257845,-0.0123175221366977,-59.24720426605303,15.158799741488714,-69.19391021689427
7.15,4.88,4.57,-0.1304838863681759,-0.0517115913119163,0.0187952878211223,-59.2603868777191,15.18192036535379,-69.1660709028975
7.15,4.88,4.57,-0.1304838863681759,-0.0517115913119163,0.0187952878211223,-59.2603868777191,15.18192036535379,-69.1660709028975
7.14,4.94,4.68,-0.1403295896335251,0.048785122241441,-0.0555773152732168,-59.2603868777191,15.1934809103634,-69.12432067193492
7.14,4.94,4.68,-0.1403295896335251,0.048785122241441,-0.0555773152732168,-59.2603868777191,15.1934809103634,-69.12432067193492
7.23,4.86,4.64,-0.0504643761154731,-0.0525922634766486,-0.0633442958730068,-59.2603868777191,15.170359975770204,-69.06866999114753
7.23,4.86,4.64,-0.0504643761154731,-0.0525922634766486,-0.0633442958730068,-59.2603868777191,15.170359975770204,-69.06866999114753
7.16,4.93,4.6,-0.1485204911853084,-0.0374838081015962,-0.0273235930003536,-59.23402251666461,15.18192036535379,-69.02694418354291
7.16,4.93,4.6,-0.1485204911853084,-0.0374838081015962,-0.0273235930003536,-59.23402251666461,15.18192036535379,-69.02694418354291
7.12,4.91,4.72,-0.0907130680730861,0.0777373050827399,-0.0455897479293625,-59.24720426605303,15.170359975770204,-68.97132601860129
7.12,4.91,4.72,-0.0907130680730861,0.0777373050827399,-0.0455897479293625,-59.24720426605303,15.170359975770204,-68.97132601860129
7.21,4.87,4.64,-0.0520532829297079,-0.0470505807069008,-0.0536581442007371,-59.2603868777191,15.147239662385427,-68.94352388945018
7.21,4.87,4.64,-0.0520532829297079,-0.0470505807069008,-0.0536581442007371,-59.2603868777191,15.147239662385427,-68.94352388945018
7.19,4.91,4.57,-0.1160992073933668,-0.0816288069252721,-0.0253873123744092,-59.286754689259176,15.158799741488714,-68.90182937625673
7.19,4.91,4.57,-0.1160992073933668,-0.0816288069252721,-0.0253873123744092,-59.286754689259176,15.158799741488714,-68.90182937625673
7.13,4.9,4.61,-0.1045997879829427,-0.0134549030711808,0.0042075569179065,-59.32631288225003,15.135679738336451,-68.8879335180276
7.13,4.9,4.61,-0.1045997879829427,-0.0134549030711808,0.0042075569179065,-59.32631288225003,15.135679738336451,-68.8879335180276
7.22,4.91,4.65,-0.0640735662451705,-0.0323784321587456,-0.0854603014088777,-59.35268933204871,15.112560354905924,-68.8879335180276
7.22,4.91,4.65,-0.0640735662451705,-0.0323784321587456,-0.0854603014088777,-59.35268933204871,15.112560354905924,-68.8879335180276
7.1,4.92,4.64,-0.1082215842192872,0.038234703879636,0.0019151134195212,-59.40545261479044,15.089441590206311,-68.87403881539461
7.1,4.92,4.64,-0.1082215842192872,0.038234703879636,0.0019151134195212,-59.40545261479044,15.089441590206311,-68.87403881539461
7.17,4.89,4.62,-0.0597918335269734,-0.0177657347286079,-0.0250085231238124,-59.471426215105645,15.054764601110485,-68.8879335180276
7.17,4.89,4.62,-0.0597918335269734,-0.0177657347286079,-0.0250085231238124,-59.471426215105645,15.054764601110485,-68.8879335180276
7.2,4.91,4.59,-0.0777085206103109,-0.05791449728006,-0.0425533838696505,-59.471426215105645,15.043205913037664,-68.8879335180276
7.2,4.91,4.59,-0.0777085206103109,-0.05791449728006,-0.0425533838696505,-59.471426215105645,15.043205913037664,-68.8879335180276
7.11,4.91,4.64,-0.0779354106264448,0.0434440802711901,-0.000583997598909,-59.550623188016026,14.996972698908555,-68.90182937625673
7.11,4.91,4.64,-0.0779354106264448,0.0434440802711901,-0.000583997598909,-59.550623188016026,14.996972698908555,-68.90182937625673
7.18,4.94,4.53,-0.1220792146850508,-0.0801656003855471,-0.0145296716003908,-59.56382572725951,14.985414779298193,-68.90182937625673
7.18,4.94,4.53,-0.1220792146850508,-0.0801656003855471,-0.0145296716003908,-59.56382572725951,14.985414779298193,-68.90182937625673
7.24,4.94,4.59,-0.0779088477950796,-0.0659504616437107,-0.0867255992605606,-59.590233417807454,14.973857013009212,-68.92962456147485
7.24,4.94,4.59,-0.0779088477950796,-0.0659504616437107,-0.0867255992605606,-59.590233417807454,14.973857013009212,-68.92962456147485
7.68,5.12,4.28,-0.2088117497421488,-0.5326822479550071,-0.3514919204440776,-59.68268779789295,14.962299399917931,-68.97132601860129
7.68,5.12,4.28,-0.2088117497421488,-0.5326822479550071,-0.3514919204440776,-59.68268779789295,14.962299399917931,-68.97132601860129
8.7,7.73,3.49,-2.4826473672397755,-1.2198089106346115,-2.0243063548968347,-60.2250699460729,15.540370148995088,-69.0964930055083
8.7,7.73,3.49,-2.4826473672397755,-1.2198089106346115,-2.0243063548968347,-60.2250699460729,15.540370148995088,-69.0964930055083
10.62,10.05,2.17,-4.380138656825493,-2.2621395520850265,-4.128661621699587,-62.74501384121864,16.10726571114575,-69.63997654209203
10.62,10.05,2.17,-4.380138656825493,-2.2621395520850265,-4.128661621699587,-62.74501384121864,16.10726571114575,-69.63997654209203
9.64,8.32,3.22,-2.32226821408406,1.110438807213518,-3.0733498446152545,-71.535350308977,15.945255673236543,-72.08709874052984
9.64,8.32,3.22,-2.32226821408406,1.110438807213518,-3.0733498446152545,-71.535350308977,15.945255673236543,-72.08709874052984
8.03,6.81,3.3,-0.8159759732392895,2.7572338058639407,-0.845994974413502,-78.7806470501436,15.18192036535379,-72.54126289658385
8.03,6.81,3.3,-0.8159759732392895,2.7572338058639407,-0.845994974413502,-78.7806470501436,15.18192036535379,-72.54126289658385
10.61,8.97,0.03,-2.7954774508119646,1.520215534853682,-3.717703979011026,-85.00152199363876,14.269118297459285,-70.14324952507593
10.61,8.97,0.03,-2.7954774508119646,1.520215534853682,-3.717703979011026,-85.00152199363876,14.269118297459285,-70.14324952507593
10.42,9.68,-0.6,-2.5069265073965408,3.1568959660055174,-3.84575372045636,-92.73822662555116,12.849707716341904,-67.51788517086389
10.42,9.68,-0.6,-2.5069265073965408,3.1568959660055174,-3.84575372045636,-92.73822662555116,12.849707716341904,-67.51788517086389
9.81,6.95,-1.11,-0.5066543738616937,1.9641729424269223,-2.0952837083385223,-98.62911597051672,11.178940913568928,-64.6200179960006
9.81,6.95,-1.11,-0.5066543738616937,1.9641729424269223,-2.0952837083385223,-98.62911597051672,11.178940913568928,-64.6200179960006
10.21,8.42,-2.11,-0.5370474933563794,2.9683071976836635,-3.2506595379583896,-104.93351333870716,9.25760576115156,-60.17208928443668
10.21,8.42,-2.11,-0.5370474933563794,2.9683071976836635,-3.2506595379583896,-104.93351333870716,9.25760576115156,-60.17208928443668
10.94,6.77,-3.39,0.6203554411772837,1.360208746481912,-3.4135463409245883,-110.00958136957878,7.017388604693049,-57.24022157573342
10.94,6.77,-3.39,0.6203554411772837,1.360208746481912,-3.4135463409245883,-110.00958136957878,7.017388604693049,-57.24022157573342
9.89,5.93,-3.14,1.8271537360766392,1.477313697601882,-1.9115262003999136,-116.40158899740273,3.793673550039814,-52.80829290405338
9.89,5.93,-3.14,1.8271537360766392,1.477313697601882,-1.9115262003999136,-116.40158899740273,3.793673550039814,-52.80829290405338
9.26,5.48,-3.81,1.9456935006018727,1.1316379316129113,-1.3838715425131358,-120.8475925272034,1.3178319771025526,-49.54293879660048
9.26,5.48,-3.81,1.9456935006018727,1.1316379316129113,-1.3838715425131358,-120.8475925272034,1.3178319771025526,-49.54293879660048
8.88,3.8,-4.57,2.536718230115804,-0.2063320802470929,-0.5712971810979628,-127.01685959928788,-2.0971425933011094,-45.18816852620461
8.88,3.8,-4.57,2.536718230115804,-0.2063320802470929,-0.5712971810979628,-127.01685959928788,-2.0971425933011094,-45.18816852620461
7.88,3.91,-4.36,2.8913459117365803,0.2765801389928328,0.4281787895415015,-132.1847414191665,-5.318958088351593,-40.497916639737895
7.88,3.91,-4.36,2.8913459117365803,0.2765801389928328,0.4281787895415015,-132.1847414191665,-5.318958088351593,-40.497916639737895
6.28,2.89,-4.43,2.2519187813520496,-0.2064638093966453,1.913511555907984,-136.00493912570792,-7.648935698119245,-37.03568997450844
6.28,2.89,-4.43,2.2519187813520496,-0.2064638093966453,1.913511555907984,-136.00493912570792,-7.648935698119245,-37.03568997450844
5.8,2.22,-5.1,2.105497809267125,-0.8345403550958547,2.096343821196995,-140.23768007093892,-10.810553401892458,-32.68755772174567
5.8,2.22,-5.1,2.105497809267125,-0.8345403550958547,2.096343821196995,-140.23768007093892,-10.810553401892458,-32.68755772174567
5.87,2.7,-6.58,1.8593697277551573,-0.8533485675236294,0.8145512217495572,-142.2760067690691,-13.149573327758748,-29.8198276164604
5.87,2.7,-6.58,1.8593697277551573,-0.8533485675236294,0.8145512217495572,-142.2760067690691,-13.149573327758748,-29.8198276164604
4.76,0.81,-6.32,1.378897123444168,-1.915402974699208,2.2115216819614663,-146.39227073603638,-15.343782195666376,-25.65305965168436
4.76,0.81,-6.32,1.378897123444168,-1.915402974699208,2.2115216819614663,-146.39227073603638,-15.343782195666376,-25.65305965168436
3.51,1.83,-6.01,1.0043540368731236,-0.4637307570770841,2.695719909388972,-148.39242814751884,-16.51243337847321,-22.92189772810272
3.51,1.83,-6.01,1.0043540368731236,-0.4637307570770841,2.695719909388972,-148.39242814751884,-16.51243337847321,-22.92189772810272
3.88,1.73,-7.38,1.1699642848996838,-0.7843336913252938,1.4085725871208332,-150.34469905459454,-17.77559810564146,-20.192233442293944
3.88,1.73,-7.38,1.1699642848996838,-0.7843336913252938,1.4085725871208332,-150.34469905459454,-17.77559810564146,-20.192233442293944
2.4,0.21,-6.42,0.1020661340586761,-1.3960368126604852,3.093888740877561,-152.23986727877062,-18.437010245615284,-17.87999134136898
2.4,0.21,-6.42,0.1020661340586761,-1.3960368126604852,3.093888740877561,-152.23986727877062,-18.437010245615284,-17.87999134136898
1.35,0.33,-5.91,-0.3910606730283476,-0.7821927271723668,3.798759680797321,-153.71118144535646,-18.994468937034103,-15.632898017228824
1.35,0.33,-5.91,-0.3910606730283476,-0.7821927271723668,3.798759680797321,-153.71118144535646,-18.994468937034103,-15.632898017228824
1.53,0.44,-6.9,-0.3742091967349742,-0.7764358541056596,2.7780217667287173,-154.16860854190614,-19.319861939553064,-14.84673166768115
1.53,0.44,-6.9,-0.3742091967349742,-0.7764358541056596,2.7780217667287173,-154.16860854190614,-19.319861939553064,-14.84673166768115
1.64,0.64,-7.32,-0.251700852367291,-0.6332788618015607,2.308836681164105,-154.52996593229264,-19.43611171140661,-14.315313760812993
1.64,0.64,-7.32,-0.251700852367291,-0.6332788618015607,2.308836681164105,-154.52996593229264,-19.43611171140661,-14.315313760812993
1.52,0.22,-7.03,-0.3248908838462208,-0.9001297830113713,2.6747559817654665,-155.05511767406654,-19.412860145181693,-13.680327762024126
1.52,0.22,-7.03,-0.3248908838462208,-0.9001297830113713,2.6747559817654665,-155.05511767406654,-19.412860145181693,-13.680327762024126
2.48,1.31,-8.12,0.6107336292202692,-0.3138567148750389,1.2433913681083268,-155.16145880106285,-19.23849904872923,-13.714952301602876
2.48,1.31,-8.12,0.6107336292202692,-0.3138567148750389,1.2433913681083268,-155.16145880106285,-19.23849904872923,-13.714952301602876
2.96,1.91,-8.9,1.0315719582895602,0.0248909698670868,0.2906140745481789,-155.32181611488016,-18.959614614971,-13.738036026791262
2.96,1.91,-8.9,1.0315719582895602,0.0248909698670868,0.2906140745481789,-155.32181611488016,-18.959614614971,-13.738036026791262
2.36,1.42,-8.62,0.4580231008575312,-0.1745585350765279,0.7706030680217903,-155.591382770185,-18.94799690115028,-13.426452603767608
2.36,1.42,-8.62,0.4580231008575312,-0.1745585350765279,0.7706030680217903,-155.591382770185,-18.94799690115028,-13.426452603767608
2.0,1.33,-8.58,0.1674303424151045,-0.1068155563920653,0.8990208251100036,-155.80916562137492,-18.98285063278348,-13.091899903813276
2.0,1.33,-8.58,0.1674303424151045,-0.1068155563920653,0.8990208251100036,-155.80916562137492,-18.98285063278348,-13.091899903813276
1.79,1.17,-8.73,-0.0826157534856372,-0.1845753302457257,0.8208274675469642,-155.91878451766874,-19.08742247639564,-12.930431986971731
1.79,1.17,-8.73,-0.0826157534856372,-0.1845753302457257,0.8208274675469642,-155.91878451766874,-19.08742247639564,-12.930431986971731
1.76,1.4,-8.49,0.027382709374619,0.0728156869036812,1.024187471587588,-155.8639137604186,-19.18038869449432,-12.89583508427226
1.76,1.4,-8.49,0.027382709374619,0.0728156869036812,1.024187471587588,-155.8639137604186,-19.18038869449432,-12.89583508427226
2.34,1.51,-8.87,0.4915145888919614,-0.0284391377868511,0.5227820224623887,-155.80916562137492,-19.23849904872923,-12.999629346780694
2.34,1.51,-8.87,0.4915145888919614,-0.0284391377868511,0.5227820224623887,-155.80916562137492,-19.23849904872923,-12.999629346780694
2.38,1.71,-9.02,0.5330357514484245,0.1472973391502053,0.3386472337584809,-155.6456486519571,-19.30823806837105,-13.149573327758748
2.38,1.71,-9.02,0.5330357514484245,0.1472973391502053,0.3386472337584809,-155.6456486519571,-19.30823806837105,-13.149573327758748
2.19,1.52,-9.04,0.2643971483808285,0.0543623518016529,0.385650112374762,-155.5372354443148,-19.38960938592485,-13.357225465957494
2.19,1.52,-9.04,0.2643971483808285,0.0543623518016529,0.385650112374762,-155.5372354443148,-19.38960938592485,-13.357225465957494
2.41,1.24,-9.24,0.2738654819752557,-0.2419941667422912,0.1842939204815739,-155.2682499537731,-19.54075377357945,-13.738036026791262
2.41,1.24,-9.24,0.2738654819752557,-0.2419941667422912,0.1842939204815739,-155.2682499537731,-19.54075377357945,-13.738036026791262
2.54,0.88,-9.5,0.1722760588741754,-0.5909236095725166,-0.0471376091982271,-155.05511767406654,-19.645412292934687,-14.01508470303339
2.54,0.88,-9.5,0.1722760588741754,-0.5909236095725166,-0.0471376091982271,-155.05511767406654,-19.645412292934687,-14.01508470303339
2.63,1.22,-9.55,0.2984088686524968,-0.2784665447432227,-0.165371286106863,-154.9492208405226,-19.598895357607173,-14.338412369029564
2.63,1.22,-9.55,0.2984088686524968,-0.2784665447432227,-0.165371286106863,-154.9492208405226,-19.598895357607173,-14.338412369029564
2.54,1.31,-9.53,0.2242105597949237,-0.1468162649179133,-0.1390412584913924,-155.0021140741398,-19.494244164289388,-14.500119080393963
2.54,1.31,-9.53,0.2242105597949237,-0.1468162649179133,-0.1390412584913924,-155.0021140741398,-19.494244164289388,-14.500119080393963
2.58,1.41,-9.47,0.2600292253075662,-0.0665663173380682,-0.1056329725236349,-154.8964372754453,-19.37798430858409,-14.765843296845908
2.58,1.41,-9.47,0.2600292253075662,-0.0665663173380682,-0.1056329725236349,-154.8964372754453,-19.37798430858409,-14.765843296845908
2.55,1.72,-9.45,0.3060359724023362,0.2324379428424151,-0.1238945261739274,-154.84376268843482,-19.30823806837105,-14.927627478593791
2.55,1.72,-9.45,0.3060359724023362,0.2324379428424151,-0.1238945261739274,-154.84376268843482,-19.30823806837105,-14.927627478593791
2.69,1.52,-9.46,0.353052204393617,0.0170722651990277,-0.138859674156162,-154.79119639620873,-19.296614397760404,-15.031647378904806
2.69,1.52,-9.46,0.353052204393617,0.0170722651990277,-0.138859674156162,-154.79119639620873,-19.296614397760404,-15.031647378904806
2.6,1.58,-9.46,0.2747174808688345,0.1110377044763496,-0.1261341481575399,-154.73873772257048,-19.273367657733324,-15.124119969217904
2.6,1.58,-9.46,0.2747174808688345,0.1110377044763496,-0.1261341481575399,-154.73873772257048,-19.273367657733324,-15.124119969217904
2.42,1.24,-9.39,0.0318829909956313,-0.1239049040641819,0.0316957264683832,-154.73873772257048,-19.38960938592485,-15.10100089527667
2.42,1.24,-9.39,0.0318829909956313,-0.1239049040641819,0.0316957264683832,-154.73873772257048,-19.38960938592485,-15.10100089527667
2.57,1.48,-9.46,0.2208922617607071,0.0463039599966406,-0.1047556799216362,-154.63414056108863,-19.42448582735805,-15.124119969217904
2.57,1.48,-9.46,0.2208922617607071,0.0463039599966406,-0.1047556799216362,-154.63414056108863,-19.42448582735805,-15.124119969217904
2.56,1.5,-9.25,0.2690562339305592,0.081608027592913,0.0964981539774321,-154.58200075536982,-19.505871262305693,-15.170359975770204
2.56,1.5,-9.25,0.2690562339305592,0.081608027592913,0.0964981539774321,-154.58200075536982,-19.505871262305693,-15.170359975770204
2.6,1.47,-9.36,0.2671712997889934,0.0378707620433331,-0.0146373546165659,-154.52996593229264,-19.587266633669245,-15.170359975770204
2.6,1.47,-9.36,0.2671712997889934,0.0378707620433331,-0.0146373546165659,-154.52996593229264,-19.587266633669245,-15.170359975770204
2.31,1.09,-9.23,-0.0525487869617971,-0.1751857938474754,0.2314921129141236,-154.52996593229264,-19.784982749875187,-15.043205913037664
2.31,1.09,-9.23,-0.0525487869617971,-0.1751857938474754,0.2314921129141236,-154.52996593229264,-19.784982749875187,-15.043205913037664
2.46,1.18,-9.39,0.0656706204128196,-0.1284115637342811,0.0293652112708766,-154.42620867150097,-19.90131410531983,-15.089441590206311
2.46,1.18,-9.39,0.0656706204128196,-0.1284115637342811,0.0293652112708766,-154.42620867150097,-19.90131410531983,-15.089441590206311
2.42,1.12,-9.33,0.0328973518306729,-0.1456666764771863,0.1042070610486618,-154.3228637180319,-20.05257586733213,-15.077882439571027
2.42,1.12,-9.33,0.0328973518306729,-0.1456666764771863,0.1042070610486618,-154.3228637180319,-20.05257586733213,-15.077882439571027
2.51,1.36,-9.39,0.1915093697946598,0.0664952722716062,-0.0056230567410491,-154.3228637180319,-20.122400879873982,-15.02008899858815
2.51,1.36,-9.39,0.1915093697946598,0.0664952722716062,-0.0056230567410491,-154.3228637180319,-20.122400879873982,-15.02008899858815
2.63,1.44,-9.29,0.3470817185876995,0.1079394214006344,0.0515239955892994,-154.27134430279995,-20.18059415638896,-15.066323443247011
2.63,1.44,-9.29,0.3470817185876995,0.1079394214006344,0.0515239955892994,-154.27134430279995,-20.18059415638896,-15.066323443247011
2.71,1.28,-9.29,0.3540811198270619,-0.0428107051295371,0.0516823524827483,-154.16860854190614,-20.262073582983945,-15.170359975770204
2.71,1.28,-9.29,0.3540811198270619,-0.0428107051295371,0.0516823524827483,-154.16860854190614,-20.262073582983945,-15.170359975770204
2.69,1.07,-9.44,0.2083979361526743,-0.2095995357415584,-0.0628605418062253,-154.0662728728033,-20.320279509683687,-15.29753283007483
2.69,1.07,-9.44,0.2083979361526743,-0.2095995357415584,-0.0628605418062253,-154.0662728728033,-20.320279509683687,-15.29753283007483
2.3,1.05,-9.14,-0.0778647072632007,-0.0505577562271227,0.3238507824351693,-154.01525359440276,-20.355205608113067,-15.39003407585724
2.3,1.05,-9.14,-0.0778647072632007,-0.0505577562271227,0.3238507824351693,-154.01525359440276,-20.355205608113067,-15.39003407585724
2.48,1.07,-9.1,0.0657669856881681,-0.0714111048952089,0.3147653000212234,-153.91350924378722,-20.36684806544824,-15.632898017228824
2.48,1.07,-9.1,0.0657669856881681,-0.0714111048952089,0.3147653000212234,-153.91350924378722,-20.36684806544824,-15.632898017228824
2.77,0.93,-9.55,0.0834286914949086,-0.2575618114458012,-0.1766861942148505,-153.66083809692267,-20.343563363128432,-16.095692494623034
2.77,0.93,-9.55,0.0834286914949086,-0.2575618114458012,-0.1766861942148505,-153.66083809692267,-20.343563363128432,-16.095692494623034
2.67,1.16,-9.39,0.0923643491876158,0.0118262691325933,-0.023809244936503,-153.66083809692267,-20.25043303206116,-16.24615724549883
2.67,1.16,-9.39,0.0923643491876158,0.0118262691325933,-0.023809244936503,-153.66083809692267,-20.25043303206116,-16.24615724549883
2.84,1.17,-9.42,0.2027567647390492,-0.0275139317391414,-0.0993599272064536,-153.5103719816942,-20.20387293870638,-16.466118077182387
2.84,1.17,-9.42,0.2027567647390492,-0.0275139317391414,-0.0993599272064536,-153.5103719816942,-20.20387293870638,-16.466118077182387
2.77,1.18,-9.42,0.1388412875635869,0.0270885759419056,-0.0818124338630674,-153.61058909469406,-20.134039115213792,-16.51243337847321
2.77,1.18,-9.42,0.1388412875635869,0.0270885759419056,-0.0818124338630674,-153.61058909469406,-20.134039115213792,-16.51243337847321
2.83,1.27,-9.42,0.2189789385312372,0.0976697634382721,-0.1080213935354255,-153.66083809692267,-20.040939097265657,-16.53559204728263
2.83,1.27,-9.42,0.2189789385312372,0.0976697634382721,-0.1080213935354255,-153.66083809692267,-20.040939097265657,-16.53559204728263
2.99,1.18,-9.42,0.3320025113014617,-0.0251335182875942,-0.1411157108894549,-153.71118144535646,-20.00603003933895,-16.55875139620892
2.99,1.18,-9.42,0.3320025113014617,-0.0251335182875942,-0.1411157108894549,-153.71118144535646,-20.00603003933895,-16.55875139620892
2.6,1.03,-9.17,0.0296993962679388,-0.0203891158315789,0.2197577908522969,-153.76161968319718,-19.994394103683582,-16.419805484293857
2.6,1.03,-9.17,0.0296993962679388,-0.0203891158315789,0.2197577908522969,-153.76161968319718,-19.994394103683582,-16.419805484293857
2.58,0.94,-9.31,-0.0408134628542927,-0.089320130374637,0.1006489606656355,-153.8627830260387,-19.947852442498814,-16.327188391573927
2.58,0.94,-9.31,-0.0408134628542927,-0.089320130374637,0.1006489606656355,-153.8627830260387,-19.947852442498814,-16.327188391573927
2.68,1.19,-9.32,0.1191157840761377,0.0960272057438693,0.0374386599919933,-153.96433257658236,-19.81987998842397,-16.361918539628213
2.68,1.19,-9.32,0.1191157840761377,0.0960272057438693,0.0374386599919933,-153.96433257658236,-19.81987998842397,-16.361918539628213
3.17,1.19,-9.67,0.4506499656319024,-0.0880395706018548,-0.4287329260308663,-153.91350924378722,-19.784982749875187,-16.396650200988272
3.17,1.19,-9.67,0.4506499656319024,-0.0880395706018548,-0.4287329260308663,-153.91350924378722,-19.784982749875187,-16.396650200988272
2.76,1.28,-9.44,0.2092756899090141,0.1288645069665644,-0.1084494762764443,-154.11739099299157,-19.71519382901285,-16.19985740781584
2.76,1.28,-9.44,0.2092756899090141,0.1288645069665644,-0.1084494762764443,-154.11739099299157,-19.71519382901285,-16.19985740781584
