,TIME,ELAPSED_SECONDS,PSTATE,acc_x,acc_y,acc_z,mag_x,mag_y,mag_z,gyr_x,gyr_y,gyr_z,lin_x,lin_y,lin_z,eul_x,eul_y,eul_z,qua_w,qua_x,qua_y,qua_z
0,1177569.0,1139.496543,1.0,1.97,3.27,-9.09,3.69,-31.0,32.25,2.19,-2.63,-2.88,0.1762321219166233,0.116086068877838,-0.05019362581740516,-142.73954322436268,-30.021467926252928,-15.632898017228825,-0.1284,-0.9476,-0.259,-0.136
1,1177569.0,1139.496543,1.0,1.97,3.27,-9.09,3.69,-31.0,32.25,2.19,-2.63,-2.88,0.1762321219166233,0.116086068877838,-0.05019362581740516,-142.73954322436268,-30.021467926252928,-15.632898017228825,-0.1284,-0.9476,-0.259,-0.136
2,1177604.0,1139.533893,1.0,2.0,3.04,-9.31,4.38,-30.25,32.69,3.5,-1.12,-2.81,0.03664213148573503,-0.12436376426570316,-0.18839332198404254,-142.70368938881398,-30.116390374671145,-15.586632804931574,-0.1279,-0.9475,-0.2598,-0.1356
3,1177604.0,1139.533893,1.0,2.0,3.04,-9.31,4.38,-30.25,32.69,3.5,-1.12,-2.81,0.03664213148573503,-0.12436376426570316,-0.18839332198404254,-142.70368938881398,-30.116390374671145,-15.586632804931574,-0.1279,-0.9475,-0.2598,-0.1356
4,1177638.0,1139.633867,1.0,1.92,3.24,-8.97,5.5,-30.69,32.25,0.19,-2.31,-2.06,0.19741740446611755,0.1349622973977267,0.08102860357010222,-142.73954322436268,-30.17572764472251,-15.436288478593855,-0.1279,-0.9476,-0.2603,-0.1343
5,1177638.0,1139.633867,1.0,1.92,3.24,-8.97,5.5,-30.69,32.25,0.19,-2.31,-2.06,0.19741740446611755,0.1349622973977267,0.08102860357010222,-142.73954322436268,-30.17572764472251,-15.436288478593855,-0.1279,-0.9476,-0.2603,-0.1343
6,1177673.0,1139.6446039999998,1.0,2.04,3.09,-9.45,5.5,-30.69,32.25,5.25,0.69,-3.69,0.09294188580379326,-0.12383790423935448,-0.34166148415029873,-142.6678687639012,-30.318170931025325,-15.366907820940328,-0.1269,-0.9474,-0.2615,-0.1337
7,1177673.0,1139.6446039999998,1.0,2.04,3.09,-9.45,5.5,-30.69,32.25,5.25,0.69,-3.69,0.09294188580379326,-0.12383790423935448,-0.34166148415029873,-142.6678687639012,-30.318170931025325,-15.366907820940328,-0.1269,-0.9474,-0.2615,-0.1337
8,1177710.0,1139.64755,1.0,1.82,3.16,-9.11,4.75,-30.25,32.25,2.06,-6.25,-2.38,0.08585091771557063,0.10108882142842868,-0.005205618083135022,-142.73954322436268,-30.377536447956228,-15.170359975770204,-0.1268,-0.9476,-0.262,-0.132
9,1177710.0,1139.64755,1.0,1.82,3.16,-9.11,4.75,-30.25,32.25,2.06,-6.25,-2.38,0.08585091771557063,0.10108882142842868,-0.005205618083135022,-142.73954322436268,-30.377536447956228,-15.170359975770204,-0.1268,-0.9476,-0.262,-0.132
10,1177743.0,1139.685293,1.0,1.88,3.05,-9.03,4.38,-29.19,31.37,3.56,-2.5,-3.38,0.13257574134133293,-0.00674046209386181,0.09273326991740484,-142.70368938881398,-30.47253865250361,-15.054764601110485,-0.1263,-0.9475,-0.2628,-0.131
11,1177743.0,1139.685293,1.0,1.88,3.05,-9.03,4.38,-29.19,31.37,3.56,-2.5,-3.38,0.13257574134133293,-0.00674046209386181,0.09273326991740484,-142.70368938881398,-30.47253865250361,-15.054764601110485,-0.1263,-0.9475,-0.2628,-0.131
12,1177778.0,1139.747867,1.0,1.83,3.22,-8.93,4.38,-29.19,31.37,0.5,-2.13,-2.94,0.22838693062743304,0.17356921526475433,0.14332173602019616,-142.73954322436268,-30.54380438300529,-14.904513628099544,-0.1261,-0.9476,-0.2634,-0.1297
13,1177778.0,1139.747867,1.0,1.83,3.22,-8.93,4.38,-29.19,31.37,0.5,-2.13,-2.94,0.22838693062743304,0.17356921526475433,0.14332173602019616,-142.73954322436268,-30.54380438300529,-14.904513628099544,-0.1261,-0.9476,-0.2634,-0.1297
14,1177812.0,1139.807292,1.0,1.84,2.92,-9.18,4.75,-29.5,32.25,5.19,4.63,-3.19,0.016511555615462747,-0.11175470731064574,-6.39376003572778e-05,-142.63208125401738,-30.674489682178663,-14.950741939900693,-0.1254,-0.9473,-0.2645,-0.1301
15,1177812.0,1139.807292,1.0,1.84,2.92,-9.18,4.75,-29.5,32.25,5.19,4.63,-3.19,0.016511555615462747,-0.11175470731064574,-6.39376003572778e-05,-142.63208125401738,-30.674489682178663,-14.950741939900693,-0.1254,-0.9473,-0.2645,-0.1301
16,1177849.0,1139.8230039999999,1.0,1.98,3.06,-9.3,4.75,-29.5,33.5,-1.19,3.88,-0.19,0.13880830061715296,-0.07052064524785617,-0.18083011734058907,-142.56060519917662,-30.74578979374247,-15.112560354905925,-0.1246,-0.9471,-0.2651,-0.1315
17,1177849.0,1139.8230039999999,1.0,1.98,3.06,-9.3,4.75,-29.5,33.5,-1.19,3.88,-0.19,0.13880830061715296,-0.07052064524785617,-0.18083011734058907,-142.56060519917662,-30.74578979374247,-15.112560354905925,-0.1246,-0.9471,-0.2651,-0.1315
18,1177884.0,1139.864359,1.0,1.9,2.92,-8.97,4.75,-29.5,33.5,-1.5,2.81,0.06,0.09624671575419846,-0.08502086889047811,0.18475787726448975,-142.5249164652642,-30.74578979374247,-15.205041610922965,-0.1246,-0.9470000000000001,-0.2651,-0.1323
19,1177884.0,1139.864359,1.0,1.9,2.92,-8.97,4.75,-29.5,33.5,-1.5,2.81,0.06,0.09624671575419846,-0.08502086889047811,0.18475787726448975,-142.5249164652642,-30.74578979374247,-15.205041610922965,-0.1246,-0.9470000000000001,-0.2651,-0.1323
20,1177917.0,1139.902121,1.0,1.81,3.02,-8.73,4.75,-29.5,32.25,-5.5,4.63,1.75,0.11045405038193408,0.0801114362053279,0.3943823635298518,-142.4180463131718,-30.686372188368548,-15.39003407585724,-0.1254,-0.9467,-0.2646,-0.1339
21,1177917.0,1139.902121,1.0,1.81,3.02,-8.73,4.75,-29.5,32.25,-5.5,4.63,1.75,0.11045405038193408,0.0801114362053279,0.3943823635298518,-142.4180463131718,-30.686372188368548,-15.39003407585724,-0.1254,-0.9467,-0.2646,-0.1339
22,1177954.0,1139.928066,1.0,1.84,2.64,-8.15,4.38,-29.5,33.5,2.31,15.5,-2.88,0.07938372073149746,-0.12004182925897378,1.0455434383771465,-142.1344807161217,-30.84087559172584,-15.875832638109523,-0.1242,-0.9459,-0.2659,-0.1381
23,1177954.0,1139.928066,1.0,1.84,2.64,-8.15,4.38,-29.5,33.5,2.31,15.5,-2.88,0.07938372073149746,-0.12004182925897378,1.0455434383771465,-142.1344807161217,-30.84087559172584,-15.875832638109523,-0.1242,-0.9459,-0.2659,-0.1381
24,1177989.0,1139.944525,1.0,1.87,2.21,-6.99,3.25,-29.5,32.69,2.5,39.94,-3.25,0.1831097124286428,-0.24748277241331065,2.247131291075937,-141.67799864882886,-31.031112572318907,-16.744050792597328,-0.1218,-0.9446,-0.2675,-0.1456
25,1177989.0,1139.944525,1.0,1.87,2.21,-6.99,3.25,-29.5,32.69,2.5,39.94,-3.25,0.1831097124286428,-0.24748277241331065,2.247131291075937,-141.67799864882886,-31.031112572318907,-16.744050792597328,-0.1218,-0.9446,-0.2675,-0.1456
26,1178023.0,1139.986836,1.0,2.51,0.59,-7.82,3.25,-29.5,32.69,9.06,56.38,-4.69,-0.5793419113549495,-1.896666483443991,1.8149280828955403,-140.71214769326966,-31.471372637897836,-18.599556301853195,-0.115,-0.9418,-0.2712,-0.1616
27,1178023.0,1139.986836,1.0,2.51,0.59,-7.82,3.25,-29.5,32.69,9.06,56.38,-4.69,-0.5793419113549495,-1.896666483443991,1.8149280828955403,-140.71214769326966,-31.471372637897836,-18.599556301853195,-0.115,-0.9418,-0.2712,-0.1616
28,1178060.0,1140.002554,1.0,2.31,-0.15,-5.96,4.38,-29.5,33.5,-13.5,47.63,6.25,-0.5544878997812026,-2.099887095506068,3.7930639355021007,-139.9355135446495,-31.66190266420909,-19.982758376303032,-0.113,-0.9395,-0.2728,-0.1735
29,1178060.0,1140.002554,1.0,2.31,-0.15,-5.96,4.38,-29.5,33.5,-13.5,47.63,6.25,-0.5544878997812026,-2.099887095506068,3.7930639355021007,-139.9355135446495,-31.66190266420909,-19.982758376303032,-0.113,-0.9395,-0.2728,-0.1735
30,1178095.0,1140.043232,1.0,3.05,0.53,-5.55,1.75,-29.5,33.06,-33.06,69.56,19.19,0.21981122135513187,-1.839860525277464,3.7277935060126577,-138.74807199122864,-31.078685498016352,-22.79329707445838,-0.1154,-0.9359,-0.2679,-0.1976
31,1178095.0,1140.043232,1.0,3.05,0.53,-5.55,1.75,-29.5,33.06,-33.06,69.56,19.19,0.21981122135513187,-1.839860525277464,3.7277935060126577,-138.74807199122864,-31.078685498016352,-22.79329707445838,-0.1154,-0.9359,-0.2679,-0.1976
32,1178130.0,1140.105994,1.0,4.53,1.84,-6.13,1.75,-29.5,33.06,-56.0,112.44,24.0,1.2913521812465696,-1.553161417032196,2.230140305118571,-137.088392741319,-30.413159765182687,-26.05280141790223,-0.11900000000000001,-0.9307,-0.2623,-0.2254
33,1178130.0,1140.105994,1.0,4.53,1.84,-6.13,1.75,-29.5,33.06,-56.0,112.44,24.0,1.2913521812465696,-1.553161417032196,2.230140305118571,-137.088392741319,-30.413159765182687,-26.05280141790223,-0.11900000000000001,-0.9307,-0.2623,-0.2254
34,1178165.0,1140.1232289999998,1.0,5.42,2.46,-7.01,-0.75,-30.25,31.37,-80.75,144.06,8.5,0.8549365878190891,-1.5669377587968745,0.7854588651849941,-133.04022773049576,-29.78425385642316,-31.98362621241675,-0.1298,-0.9172,-0.257,-0.2755
35,1178165.0,1140.1232289999998,1.0,5.42,2.46,-7.01,-0.75,-30.25,31.37,-80.75,144.06,8.5,0.8549365878190891,-1.5669377587968745,0.7854588651849941,-133.04022773049576,-29.78425385642316,-31.98362621241675,-0.1298,-0.9172,-0.257,-0.2755
36,1178202.0,1140.161235,1.0,6.5,2.82,-7.77,-6.06,-32.5,31.37,-76.44,108.75,13.19,0.5586910687857366,-1.9340142392566229,-0.5143360581250498,-129.97078188553854,-29.073389830335397,-36.10640826375515,-0.1402,-0.9062,-0.251,-0.3099
37,1178202.0,1140.161235,1.0,6.5,2.82,-7.77,-6.06,-32.5,31.37,-76.44,108.75,13.19,0.5586910687857366,-1.9340142392566229,-0.5143360581250498,-129.97078188553854,-29.073389830335397,-36.10640826375515,-0.1402,-0.9062,-0.251,-0.3099
38,1178236.0,1140.1718740000001,1.0,6.38,4.13,-6.71,-6.06,-32.5,31.37,-80.37,67.44,19.31,0.9247125619534491,-0.7527625827704245,-0.2613018856491536,-127.40350962041992,-27.478070348739482,-39.6684640703974,-0.1575,-0.8965,-0.2375,-0.3393
39,1178236.0,1140.1718740000001,1.0,6.38,4.13,-6.71,-6.06,-32.5,31.37,-80.37,67.44,19.31,0.9247125619534491,-0.7527625827704245,-0.2613018856491536,-127.40350962041992,-27.478070348739482,-39.6684640703974,-0.1575,-0.8965,-0.2375,-0.3393
40,1178271.0,1140.2261019999999,1.0,6.14,4.2,-5.79,-9.75,-34.0,28.25,-98.12,64.62,-9.19,0.9382887265131432,-0.6581336561137539,0.4498249852640353,-124.9229107357918,-26.90038619571759,-42.065313242449655,-0.1757,-0.8867,-0.2326,-0.3589
41,1178271.0,1140.2261019999999,1.0,6.14,4.2,-5.79,-9.75,-34.0,28.25,-98.12,64.62,-9.19,0.9382887265131432,-0.6581336561137539,0.4498249852640353,-124.9229107357918,-26.90038619571759,-42.065313242449655,-0.1757,-0.8867,-0.2326,-0.3589
42,1178308.0,1140.284926,1.0,5.59,5.58,-4.33,-11.56,-36.69,24.75,-112.25,34.75,0.69,1.4093094533186352,0.6491857838885293,0.9338936817647348,-121.73589034408552,-25.394572616004382,-44.70453316546126,-0.2097,-0.8735,-0.2198,-0.3803
43,1178308.0,1140.284926,1.0,5.59,5.58,-4.33,-11.56,-36.69,24.75,-112.25,34.75,0.69,1.4093094533186352,0.6491857838885293,0.9338936817647348,-121.73589034408552,-25.394572616004382,-44.70453316546126,-0.2097,-0.8735,-0.2198,-0.3803
44,1178343.0,1140.30106,1.0,5.4,5.18,-3.76,-12.38,-39.56,20.37,-82.75,41.19,3.13,1.2867243843592189,0.3932354311374784,1.5410764412931677,-119.92546492630352,-24.186105170420962,-46.30751972941107,-0.2281,-0.8657,-0.2095,-0.3932
45,1178343.0,1140.30106,1.0,5.4,5.18,-3.76,-12.38,-39.56,20.37,-82.75,41.19,3.13,1.2867243843592189,0.3932354311374784,1.5410764412931677,-119.92546492630352,-24.186105170420962,-46.30751972941107,-0.2281,-0.8657,-0.2095,-0.3932
46,1178378.0,1140.343448,1.0,6.51,5.73,-5.28,-12.38,-39.56,20.37,-115.94,56.31,2.88,0.21350650509933386,-0.457046586395486,-0.33420417458236074,-116.4886280777146,-22.98036223475966,-49.07642066173354,-0.2543,-0.8503,-0.1992,-0.4153
47,1178378.0,1140.343448,1.0,6.51,5.73,-5.28,-12.38,-39.56,20.37,-115.94,56.31,2.88,0.21350650509933386,-0.457046586395486,-0.33420417458236074,-116.4886280777146,-22.98036223475966,-49.07642066173354,-0.2543,-0.8503,-0.1992,-0.4153
48,1178413.0,1140.361492,1.0,7.92,6.54,-6.47,-13.5,-40.38,16.75,-119.37,32.5,19.87,-0.4220645200062532,-1.23547881900629,-2.2620845496012407,-114.11147553645674,-21.13572637929078,-50.94781312005565,-0.2778,-0.8392,-0.1834,-0.4301
49,1178413.0,1140.361492,1.0,7.92,6.54,-6.47,-13.5,-40.38,16.75,-119.37,32.5,19.87,-0.4220645200062532,-1.23547881900629,-2.2620845496012407,-114.11147553645674,-21.13572637929078,-50.94781312005565,-0.2778,-0.8392,-0.1834,-0.4301
50,1178449.0,1140.4018820000001,1.0,7.12,7.59,-4.74,-14.38,-41.88,13.25,-133.06,-17.0,21.87,0.021474569788036968,0.19055763570438344,-1.6272175272336096,-111.9308545002648,-17.961196420173227,-52.054682916137764,-0.3102,-0.8287,-0.1561,-0.4388
51,1178449.0,1140.4018820000001,1.0,7.12,7.59,-4.74,-14.38,-41.88,13.25,-133.06,-17.0,21.87,0.021474569788036968,0.19055763570438344,-1.6272175272336096,-111.9308545002648,-17.961196420173227,-52.054682916137764,-0.3102,-0.8287,-0.1561,-0.4388
52,1178484.0,1140.45728,1.0,6.02,8.51,-2.64,-14.38,-41.88,13.25,-148.5,-1.69,-2.0,0.6308760339841235,1.8974745929672827,-0.7589396947964141,-109.79009253076951,-15.875832638109523,-52.55255813835036,-0.3401,-0.8181,-0.1381,-0.4427
53,1178484.0,1140.45728,1.0,6.02,8.51,-2.64,-14.38,-41.88,13.25,-148.5,-1.69,-2.0,0.6308760339841235,1.8974745929672827,-0.7589396947964141,-109.79009253076951,-15.875832638109523,-52.55255813835036,-0.3401,-0.8181,-0.1381,-0.4427
54,1178519.0,1140.473654,1.0,5.92,9.07,-2.62,-16.19,-43.0,8.0,-144.19,11.44,10.69,-0.2095335146029469,1.7729462959196767,-1.1928253119429684,-106.16476472421513,-13.080365619179068,-53.55153591306849,-0.3806,-0.7995,-0.1139,-0.4505
55,1178519.0,1140.473654,1.0,5.92,9.07,-2.62,-16.19,-43.0,8.0,-144.19,11.44,10.69,-0.2095335146029469,1.7729462959196767,-1.1928253119429684,-106.16476472421513,-13.080365619179068,-53.55153591306849,-0.3806,-0.7995,-0.1139,-0.4505
56,1178554.0,1140.5130570000001,1.0,6.24,9.26,-2.24,-15.5,-43.38,3.56,-108.19,19.94,19.81,-0.4698871990355907,1.5087367936029352,-1.471901294728026,-102.86973660263024,-10.545844298925708,-54.942051974153145,-0.4091,-0.7819,-0.0919,-0.4613
57,1178554.0,1140.5130570000001,1.0,6.24,9.26,-2.24,-15.5,-43.38,3.56,-108.19,19.94,19.81,-0.4698871990355907,1.5087367936029352,-1.471901294728026,-102.86973660263024,-10.545844298925708,-54.942051974153145,-0.4091,-0.7819,-0.0919,-0.4613
58,1178591.0,1140.520341,1.0,6.42,9.68,-1.1,-15.88,-43.69,-0.88,-101.75,22.69,20.81,-0.07987876729196597,2.0988274410175336,-1.670167623163996,-100.65391350970894,-8.843785851491393,-56.068593069762564,-0.4251,-0.7697,-0.0771,-0.47
59,1178591.0,1140.520341,1.0,6.42,9.68,-1.1,-15.88,-43.69,-0.88,-101.75,22.69,20.81,-0.07987876729196597,2.0988274410175336,-1.670167623163996,-100.65391350970894,-8.843785851491393,-56.068593069762564,-0.4251,-0.7697,-0.0771,-0.47
60,1178626.0,1140.582248,1.0,6.41,9.4,-0.54,-15.88,-43.69,-0.88,-90.06,22.75,19.75,-0.18951449641474905,1.9399923722660577,-1.4156587576130324,-97.66701631024893,-6.948505812979428,-57.47532863305489,-0.4454,-0.7528,-0.0606,-0.4808
61,1178626.0,1140.582248,1.0,6.41,9.4,-0.54,-15.88,-43.69,-0.88,-90.06,22.75,19.75,-0.18951449641474905,1.9399923722660577,-1.4156587576130324,-97.66701631024893,-6.948505812979428,-57.47532863305489,-0.4454,-0.7528,-0.0606,-0.4808
62,1178662.0,1140.5999800000002,1.0,6.29,8.3,-0.52,-16.19,-42.88,-4.0,-61.25,16.75,22.0,-0.20604966185376397,1.2263117855169767,-0.5460406136304563,-95.97520098011694,-5.754915093896803,-58.40529575549325,-0.4553,-0.743,-0.0502,-0.4879
63,1178662.0,1140.5999800000002,1.0,6.29,8.3,-0.52,-16.19,-42.88,-4.0,-61.25,16.75,22.0,-0.20604966185376397,1.2263117855169767,-0.5460406136304563,-95.97520098011694,-5.754915093896803,-58.40529575549325,-0.4553,-0.743,-0.0502,-0.4879
64,1178699.0,1140.649077,1.0,6.36,7.47,0.4,-17.56,-42.38,-7.25,-63.63,13.69,16.31,0.4836500109377375,1.1551778570840106,0.06795672084685123,-94.04139186402159,-4.2867240536107065,-59.32631288225003,-0.4673,-0.7316,-0.0374,-0.4949
65,1178699.0,1140.649077,1.0,6.36,7.47,0.4,-17.56,-42.38,-7.25,-63.63,13.69,16.31,0.4836500109377375,1.1551778570840106,0.06795672084685123,-94.04139186402159,-4.2867240536107065,-59.32631288225003,-0.4673,-0.7316,-0.0374,-0.4949
66,1178732.0,1140.696277,1.0,6.74,7.74,0.13,-17.56,-42.38,-7.25,-82.12,22.37,22.06,0.01683026916948427,0.78089311180551,-0.4277050207120734,-92.15850909816106,-3.048495041051397,-60.2250699460729,-0.4783,-0.7203,-0.0266,-0.5017
67,1178732.0,1140.696277,1.0,6.74,7.74,0.13,-17.56,-42.38,-7.25,-82.12,22.37,22.06,0.01683026916948427,0.78089311180551,-0.4277050207120734,-92.15850909816106,-3.048495041051397,-60.2250699460729,-0.4783,-0.7203,-0.0266,-0.5017
68,1178767.0,1140.7113470000002,1.0,6.47,7.61,0.63,-17.56,-40.5,-9.69,-84.25,19.12,18.0,-0.16402066940502547,0.938473363997122,-0.1563949645214322,-89.3686152331438,-1.283452294756085,-61.34098184227653,-0.4951,-0.7032,-0.0112,-0.5101
69,1178767.0,1140.7113470000002,1.0,6.47,7.61,0.63,-17.56,-40.5,-9.69,-84.25,19.12,18.0,-0.16402066940502547,0.938473363997122,-0.1563949645214322,-89.3686152331438,-1.283452294756085,-61.34098184227653,-0.4951,-0.7032,-0.0112,-0.5101
70,1178804.0,1140.7727810000001,1.0,7.25,7.23,0.67,-18.75,-39.75,-12.25,-101.0,55.25,-11.06,0.07882597085748777,0.07988581358874214,-0.4535500332890994,-86.88085409815075,-0.60733810621587,-62.423176652141294,-0.5086,-0.6876,-0.0053,-0.5182
71,1178804.0,1140.7727810000001,1.0,7.25,7.23,0.67,-18.75,-39.75,-12.25,-101.0,55.25,-11.06,0.07882597085748777,0.07988581358874214,-0.4535500332890994,-86.88085409815075,-0.60733810621587,-62.423176652141294,-0.5086,-0.6876,-0.0053,-0.5182
72,1178841.0,1140.810898,1.0,7.1,7.78,0.98,-17.25,-36.69,-15.5,-120.19,29.37,-14.75,-0.5987670135391576,-0.08866346695635308,-0.754240911903441,-82.09735799224998,0.5844194845105756,-63.148087344627434,-0.5428,-0.6567,0.0051,-0.5236
73,1178841.0,1140.810898,1.0,7.1,7.78,0.98,-17.25,-36.69,-15.5,-120.19,29.37,-14.75,-0.5987670135391576,-0.08866346695635308,-0.754240911903441,-82.09735799224998,0.5844194845105756,-63.148087344627434,-0.5428,-0.6567,0.0051,-0.5236
74,1178873.0,1140.817666,1.0,6.89,7.14,1.45,-17.25,-36.69,-15.5,-60.0,39.25,-8.31,-0.33573685593346964,-0.28496760876574,-0.21134751574745714,-79.18156133822953,1.1115555540621913,-63.97037455615307,-0.5597,-0.6373,0.0097,-0.5297
75,1178873.0,1140.817666,1.0,6.89,7.14,1.45,-17.25,-36.69,-15.5,-60.0,39.25,-8.31,-0.33573685593346964,-0.28496760876574,-0.21134751574745714,-79.18156133822953,1.1115555540621913,-63.97037455615307,-0.5597,-0.6373,0.0097,-0.5297
76,1178912.0,1140.875633,1.0,6.58,5.6,2.21,-15.38,-34.06,-20.06,-21.62,15.06,38.5,0.7770182364542231,-0.13878601843677485,0.923098846249376,-78.32175344327142,1.6272548279067642,-65.02722926644273,-0.5587,-0.6315,0.0142,-0.5375
77,1178912.0,1140.875633,1.0,6.58,5.6,2.21,-15.38,-34.06,-20.06,-21.62,15.06,38.5,0.7770182364542231,-0.13878601843677485,0.923098846249376,-78.32175344327142,1.6272548279067642,-65.02722926644273,-0.5587,-0.6315,0.0142,-0.5375
78,1178947.0,1140.9319990000001,1.0,6.02,6.68,2.51,-15.0,-33.0,-21.75,-89.56,25.37,25.87,-0.3926575408981534,0.6404639415372837,0.5008170982567943,-75.62798453079644,3.3121572228147254,-66.37764861539371,-0.5688,-0.6131,0.0289,-0.5474
79,1178947.0,1140.9319990000001,1.0,6.02,6.68,2.51,-15.0,-33.0,-21.75,-89.56,25.37,25.87,-0.3926575408981534,0.6404639415372837,0.5008170982567943,-75.62798453079644,3.3121572228147254,-66.37764861539371,-0.5688,-0.6131,0.0289,-0.5474
80,1178982.0,1140.999473,1.0,6.66,7.79,2.66,-15.0,-33.0,-21.75,-73.25,44.13,4.88,-1.1537732421210096,0.5137505398377127,-0.7062072561688488,-73.26783271865594,4.2523227104813985,-67.35256585531921,-0.5789,-0.5967,0.0371,-0.5545
81,1178982.0,1140.999473,1.0,6.66,7.79,2.66,-15.0,-33.0,-21.75,-73.25,44.13,4.88,-1.1537732421210096,0.5137505398377127,-0.7062072561688488,-73.26783271865594,4.2523227104813985,-67.35256585531921,-0.5789,-0.5967,0.0371,-0.5545
82,1179017.0,1141.037053,1.0,7.63,7.1,2.22,-17.25,-30.75,-25.19,-67.56,47.56,-6.44,-0.9439055900508062,-1.0684221262608018,-0.7537863734263919,-70.10125098879591,4.481672390551605,-68.40230300517993,-0.5938,-0.5743,0.0391,-0.5621
83,1179017.0,1141.037053,1.0,7.63,7.1,2.22,-17.25,-30.75,-25.19,-67.56,47.56,-6.44,-0.9439055900508062,-1.0684221262608018,-0.7537863734263919,-70.10125098879591,4.481672390551605,-68.40230300517993,-0.5938,-0.5743,0.0391,-0.5621
84,1179054.0,1141.043809,1.0,6.35,5.91,2.79,-15.0,-29.69,-26.06,-12.75,-0.88,45.06,-0.4226081494956109,-0.2426116105162861,0.7073510182969276,-69.05476022725051,5.15836210329675,-69.22175419689292,-0.595,-0.5668,0.045,-0.568
85,1179054.0,1141.043809,1.0,6.35,5.91,2.79,-15.0,-29.69,-26.06,-12.75,-0.88,45.06,-0.4226081494956109,-0.2426116105162861,0.7073510182969276,-69.05476022725051,5.15836210329675,-69.22175419689292,-0.595,-0.5668,0.045,-0.568
86,1179090.0,1141.061402,1.0,6.21,5.93,5.05,-15.0,-27.75,-27.0,46.44,-9.19,67.44,0.7348861235717794,1.9370025703744949,0.06296161070181405,-70.45156998938438,6.4319632645356775,-70.73237044324748,-0.5737,-0.5768,0.0561,-0.5788
87,1179090.0,1141.061402,1.0,6.21,5.93,5.05,-15.0,-27.75,-27.0,46.44,-9.19,67.44,0.7348861235717794,1.9370025703744949,0.06296161070181405,-70.45156998938438,6.4319632645356775,-70.73237044324748,-0.5737,-0.5768,0.0561,-0.5788
88,1179123.0,1141.064324,1.0,7.09,5.42,4.76,-15.0,-27.75,-27.0,-69.31,38.69,28.62,0.9405453046949976,1.0138504523476874,-0.21281015462363229,-69.29138458685418,7.189606746883267,-72.03042043423166,-0.5720000000000001,-0.5685,0.0627,-0.588
89,1179123.0,1141.064324,1.0,7.09,5.42,4.76,-15.0,-27.75,-27.0,-69.31,38.69,28.62,0.9405453046949976,1.0138504523476874,-0.21281015462363229,-69.29138458685418,7.189606746883267,-72.03042043423166,-0.5720000000000001,-0.5685,0.0627,-0.588
90,1179160.0,1141.1054980000001,1.0,7.77,5.67,3.04,-16.06,-26.25,-25.37,-71.81,47.44,4.13,-0.559199906152299,-0.9486532118963642,-0.22084981543345528,-65.59888072386629,8.23475966058657,-73.33924904872958,-0.5872,-0.5417,0.0718,-0.5972
91,1179160.0,1141.1054980000001,1.0,7.77,5.67,3.04,-16.06,-26.25,-25.37,-71.81,47.44,4.13,-0.559199906152299,-0.9486532118963642,-0.22084981543345528,-65.59888072386629,8.23475966058657,-73.33924904872958,-0.5872,-0.5417,0.0718,-0.5972
92,1179197.0,1141.169758,1.0,7.4,5.45,3.27,-14.25,-24.0,-27.19,-76.25,38.75,-2.5,-0.6313261314699932,-0.8790609454171681,0.11211137405366678,-63.296099194215,8.774827247055486,-73.95480587683231,-0.5975,-0.5247,0.0765,-0.6015
93,1179197.0,1141.169758,1.0,7.4,5.45,3.27,-14.25,-24.0,-27.19,-76.25,38.75,-2.5,-0.6313261314699932,-0.8790609454171681,0.11211137405366678,-63.296099194215,8.774827247055486,-73.95480587683231,-0.5975,-0.5247,0.0765,-0.6015
94,1179232.0,1141.1857699999998,1.0,6.31,4.77,4.32,-14.25,-24.0,-27.19,-73.0,15.75,-8.75,-0.11942139044875738,0.11582967200166115,0.7953392175118505,-60.56979164506137,9.798053639345571,-74.05524812454561,-0.613,-0.5043,0.0854,-0.6022
95,1179232.0,1141.1857699999998,1.0,6.31,4.77,4.32,-14.25,-24.0,-27.19,-73.0,15.75,-8.75,-0.11942139044875738,0.11582967200166115,0.7953392175118505,-60.56979164506137,9.798053639345571,-74.05524812454561,-0.613,-0.5043,0.0854,-0.6022
96,1179265.0,1141.225486,1.0,5.79,4.12,6.12,-12.38,-20.25,-27.56,-70.81,-9.06,33.38,0.7435141049788478,1.6097431160299298,0.597479902966727,-58.58916597096109,12.07737906844118,-74.3425928628069,-0.6201,-0.4893,0.1052,-0.6042
97,1179265.0,1141.225486,1.0,5.79,4.12,6.12,-12.38,-20.25,-27.56,-70.81,-9.06,33.38,0.7435141049788478,1.6097431160299298,0.597479902966727,-58.58916597096109,12.07737906844118,-74.3425928628069,-0.6201,-0.4893,0.1052,-0.6042
98,1179301.0,1141.241783,1.0,6.35,7.74,7.75,-10.56,-19.06,-28.69,-101.06,10.88,51.0,-2.1755283676757267,3.1919549572703416,-2.2503438157152416,-56.39339939535494,14.731179119281881,-75.16454533036487,-0.6232,-0.4725,0.1282,-0.6099
99,1179301.0,1141.241783,1.0,6.35,7.74,7.75,-10.56,-19.06,-28.69,-101.06,10.88,51.0,-2.1755283676757267,3.1919549572703416,-2.2503438157152416,-56.39339939535494,14.731179119281881,-75.16454533036487,-0.6232,-0.4725,0.1282,-0.6099
100,1179338.0,1141.2967720000001,1.0,7.32,6.98,4.27,-10.5,-15.56,-30.0,-52.69,60.31,-4.0,-3.121915974630619,-0.5986118150229016,-0.7019657291177612,-53.320615694584525,15.135679738336453,-76.09288289681452,-0.6337,-0.4487,0.1317,-0.6163
101,1179338.0,1141.2967720000001,1.0,7.32,6.98,4.27,-10.5,-15.56,-30.0,-52.69,60.31,-4.0,-3.121915974630619,-0.5986118150229016,-0.7019657291177612,-53.320615694584525,15.135679738336453,-76.09288289681452,-0.6337,-0.4487,0.1317,-0.6163
102,1179373.0,1141.333222,1.0,6.0,4.32,6.14,-10.5,-15.56,-30.0,-21.44,-2.56,-4.25,-0.319053156249825,1.118890312589242,0.2668235051479595,-52.74433270456297,15.10100089527667,-75.9619815049614,-0.6378,-0.4442,0.1314,-0.6154
103,1179373.0,1141.333222,1.0,6.0,4.32,6.14,-10.5,-15.56,-30.0,-21.44,-2.56,-4.25,-0.319053156249825,1.118890312589242,0.2668235051479595,-52.74433270456297,15.10100089527667,-75.9619815049614,-0.6378,-0.4442,0.1314,-0.6154
104,1179410.0,1141.350613,1.0,6.25,5.21,7.14,-9.5,-12.88,-31.0,-41.75,28.62,8.69,-0.9500110385836288,1.689676991469625,-0.8436396998657916,-51.31619778683095,15.910543420989347,-76.06378359355024,-0.6432,-0.433,0.1384,-0.6161
105,1179410.0,1141.350613,1.0,6.25,5.21,7.14,-9.5,-12.88,-31.0,-41.75,28.62,8.69,-0.9500110385836288,1.689676991469625,-0.8436396998657916,-51.31619778683095,15.910543420989347,-76.06378359355024,-0.6432,-0.433,0.1384,-0.6161
106,1179445.0,1141.396461,1.0,7.97,4.49,5.82,-6.75,-12.06,-30.69,-2.25,46.81,25.37,-0.5825588304985719,-0.7226637237775033,-0.9957470650658902,-50.035624947359274,15.586632804931574,-77.12969565730245,-0.6435,-0.4229,0.1356,-0.6234
107,1179445.0,1141.396461,1.0,7.97,4.49,5.82,-6.75,-12.06,-30.69,-2.25,46.81,25.37,-0.5825588304985719,-0.7226637237775033,-0.9957470650658902,-50.035624947359274,15.586632804931574,-77.12969565730245,-0.6435,-0.4229,0.1356,-0.6234
108,1179480.0,1141.459674,1.0,8.89,4.26,5.9,-6.75,-12.06,-30.69,1.63,29.0,43.94,-0.4373960649842944,-1.4617110468831565,-1.5802629046355694,-48.975666100652674,15.216602467156429,-79.15182427198795,-0.6362,-0.4145,0.1324,-0.6371
109,1179480.0,1141.459674,1.0,8.89,4.26,5.9,-6.75,-12.06,-30.69,1.63,29.0,43.94,-0.4373960649842944,-1.4617110468831565,-1.5802629046355694,-48.975666100652674,15.216602467156429,-79.15182427198795,-0.6362,-0.4145,0.1324,-0.6371
110,1179514.0,1141.467271,1.0,9.15,4.72,6.23,-5.75,-10.5,-29.25,-9.56,24.62,41.13,-0.9547855665569938,-1.3804137848166238,-2.109584401210085,-48.158519404241254,15.39003407585724,-80.54144798375755,-0.6307,-0.408,0.1339,-0.6464
111,1179514.0,1141.467271,1.0,9.15,4.72,6.23,-5.75,-10.5,-29.25,-9.56,24.62,41.13,-0.9547855665569938,-1.3804137848166238,-2.109584401210085,-48.158519404241254,15.39003407585724,-80.54144798375755,-0.6307,-0.408,0.1339,-0.6464
112,1179551.0,1141.52709,1.0,8.73,4.83,6.3,-3.75,-9.69,-28.5,-15.63,25.06,27.37,-1.3902780627258569,-1.1145834447075835,-1.8576815562053104,-46.868945786012894,15.632898017228825,-82.00622099250181,-0.6268,-0.3977,0.136,-0.6561
113,1179551.0,1141.52709,1.0,8.73,4.83,6.3,-3.75,-9.69,-28.5,-15.63,25.06,27.37,-1.3902780627258569,-1.1145834447075835,-1.8576815562053104,-46.868945786012894,15.632898017228825,-82.00622099250181,-0.6268,-0.3977,0.136,-0.6561
114,1179586.0,1141.54315,1.0,8.33,4.6,6.27,-3.75,-9.69,-28.5,-2.44,13.81,17.56,-1.3660046952143527,-0.93867943886048,-1.4678660465411075,-46.24521189671154,15.702300646279072,-82.73709614997145,-0.6247,-0.3927,0.1366,-0.6609
115,1179586.0,1141.54315,1.0,8.33,4.6,6.27,-3.75,-9.69,-28.5,-2.44,13.81,17.56,-1.3660046952143527,-0.93867943886048,-1.4678660465411075,-46.24521189671154,15.702300646279072,-82.73709614997145,-0.6247,-0.3927,0.1366,-0.6609
116,1179621.0,1141.601929,1.0,7.89,3.81,6.15,-3.75,-9.56,-29.19,19.75,7.25,6.69,-0.713232832591687,-0.872055602766614,-0.8386080030827134,-46.25767230528911,15.274409087771584,-83.34930824823599,-0.6213,-0.3928,0.1329,-0.6649
117,1179621.0,1141.601929,1.0,7.89,3.81,6.15,-3.75,-9.56,-29.19,19.75,7.25,6.69,-0.713232832591687,-0.872055602766614,-0.8386080030827134,-46.25767230528911,15.274409087771584,-83.34930824823599,-0.6213,-0.3928,0.1329,-0.6649
118,1179656.0,1141.604959,1.0,7.05,2.78,6.13,-4.19,-9.06,-29.25,13.88,-0.88,12.56,0.18935227352707096,-0.44965433623409057,0.0716740527048021,-46.58184673902731,15.02008899858815,-83.8257817667832,-0.6167,-0.3954,0.1307,-0.6679999999999999
119,1179656.0,1141.604959,1.0,7.05,2.78,6.13,-4.19,-9.06,-29.25,13.88,-0.88,12.56,0.18935227352707096,-0.44965433623409057,0.0716740527048021,-46.58184673902731,15.02008899858815,-83.8257817667832,-0.6167,-0.3954,0.1307,-0.6679999999999999
120,1179693.0,1141.647973,1.0,6.36,3.22,6.12,-4.19,-9.88,-29.69,0.94,-5.63,13.56,-0.3022192394768836,0.182850786217456,0.4179531191080788,-46.69415285279771,15.216602467156429,-84.11869444886841,-0.6136,-0.3963,0.1324,-0.6699
121,1179693.0,1141.647973,1.0,6.36,3.22,6.12,-4.19,-9.88,-29.69,0.94,-5.63,13.56,-0.3022192394768836,0.182850786217456,0.4179531191080788,-46.69415285279771,15.216602467156429,-84.11869444886841,-0.6136,-0.3963,0.1324,-0.6699
122,1179725.0,1141.712622,1.0,6.13,3.12,6.31,-4.19,-9.88,-29.69,-1.69,-6.88,4.63,-0.17860596498160194,0.5045057668035902,0.487799542967494,-46.80650649596007,15.505674829864251,-84.1804463370788,-0.6121,-0.3972,0.1349,-0.6703
123,1179725.0,1141.712622,1.0,6.13,3.12,6.31,-4.19,-9.88,-29.69,-1.69,-6.88,4.63,-0.17860596498160194,0.5045057668035902,0.487799542967494,-46.80650649596007,15.505674829864251,-84.1804463370788,-0.6121,-0.3972,0.1349,-0.6703
124,1179762.0,1141.719708,1.0,6.36,3.15,6.81,-3.06,-9.38,-28.87,-8.94,-0.94,8.56,-0.051719349109584985,0.7036030336485377,-0.0040822805164886225,-46.70663424071843,15.771709071970363,-84.25767849428371,-0.6116,-0.3964,0.1372,-0.6708
125,1179762.0,1141.719708,1.0,6.36,3.15,6.81,-3.06,-9.38,-28.87,-8.94,-0.94,8.56,-0.051719349109584985,0.7036030336485377,-0.0040822805164886225,-46.70663424071843,15.771709071970363,-84.25767849428371,-0.6116,-0.3964,0.1372,-0.6708
126,1179797.0,1141.7771189999999,1.0,6.95,3.68,6.65,-4.19,-9.75,-30.19,-7.88,2.19,13.31,-0.6663935500136867,0.3070916621276434,-0.466081591332065,-46.369842053756535,16.13041264048083,-84.64454836195905,-0.6099,-0.3937,0.1403,-0.6733
127,1179797.0,1141.7771189999999,1.0,6.95,3.68,6.65,-4.19,-9.75,-30.19,-7.88,2.19,13.31,-0.6663935500136867,0.3070916621276434,-0.466081591332065,-46.369842053756535,16.13041264048083,-84.64454836195905,-0.6099,-0.3937,0.1403,-0.6733
128,1179832.0,1141.783958,1.0,7.13,3.65,6.45,-4.19,-9.75,-30.19,3.19,1.44,6.19,-0.7284080800930686,0.053156883422959655,-0.4514441706829704,-46.33244691855332,16.17670848781425,-84.90830040880186,-0.6081,-0.3934,0.1407,-0.675
129,1179832.0,1141.783958,1.0,7.13,3.65,6.45,-4.19,-9.75,-30.19,3.19,1.44,6.19,-0.7284080800930686,0.053156883422959655,-0.4514441706829704,-46.33244691855332,16.17670848781425,-84.90830040880186,-0.6081,-0.3934,0.1407,-0.675
130,1179865.0,1141.841241,1.0,6.85,3.18,6.11,-4.19,-9.38,-29.75,10.56,4.5,-3.19,-0.3815018660833356,-0.10175085397538196,0.10040958004901768,-46.46958798664575,15.817984589415364,-84.98598023915876,-0.6075,-0.3945,0.1376,-0.6755
131,1179865.0,1141.841241,1.0,6.85,3.18,6.11,-4.19,-9.38,-29.75,10.56,4.5,-3.19,-0.3815018660833356,-0.10175085397538196,0.10040958004901768,-46.46958798664575,15.817984589415364,-84.98598023915876,-0.6075,-0.3945,0.1376,-0.6755
132,1179901.0,1141.8485759999999,1.0,6.69,2.37,6.07,-4.56,-10.5,-29.75,14.94,3.19,-7.13,0.41961284005043376,-0.2261048442212479,0.4797694033651077,-46.70663424071843,15.343782195666375,-84.95490252162044,-0.6074,-0.3964,0.1335,-0.6753
133,1179901.0,1141.8485759999999,1.0,6.69,2.37,6.07,-4.56,-10.5,-29.75,14.94,3.19,-7.13,0.41961284005043376,-0.2261048442212479,0.4797694033651077,-46.70663424071843,15.343782195666375,-84.95490252162044,-0.6074,-0.3964,0.1335,-0.6753
134,1179938.0,1141.90779,1.0,6.57,3.15,6.23,-4.56,-10.5,-29.75,-10.81,-3.44,-1.12,-0.2436235687171515,0.14190981475625208,0.22433247440936727,-46.7191162156521,15.366907820940328,-84.84619121478758,-0.6081,-0.3965,0.1337,-0.6746
135,1179938.0,1141.90779,1.0,6.57,3.15,6.23,-4.56,-10.5,-29.75,-10.81,-3.44,-1.12,-0.2436235687171515,0.14190981475625208,0.22433247440936727,-46.7191162156521,15.366907820940328,-84.84619121478758,-0.6081,-0.3965,0.1337,-0.6746
136,1179971.0,1141.9923509999999,1.0,6.61,3.56,6.53,-3.75,-9.0,-28.56,-0.25,-3.31,-0.31,-0.5437144670525638,0.41933689164894217,-0.11983634460451853,-46.58184673902731,15.806415466969176,-84.39681517514323,-0.6112,-0.3954,0.1375,-0.6717
137,1179971.0,1141.9923509999999,1.0,6.61,3.56,6.53,-3.75,-9.0,-28.56,-0.25,-3.31,-0.31,-0.5437144670525638,0.41933689164894217,-0.11983634460451853,-46.58184673902731,15.806415466969176,-84.39681517514323,-0.6112,-0.3954,0.1375,-0.6717
138,1180006.0,1142.0387970000002,1.0,6.75,3.33,6.73,-4.56,-10.06,-30.56,3.25,0.12,-2.38,-0.22586973485967266,0.4034177453017089,-0.2795057089730744,-46.64423316662803,15.841123321226055,-84.07240023072654,-0.6131,-0.3959,0.1378,-0.6696
139,1180006.0,1142.0387970000002,1.0,6.75,3.33,6.73,-4.56,-10.06,-30.56,3.25,0.12,-2.38,-0.22586973485967266,0.4034177453017089,-0.2795057089730744,-46.64423316662803,15.841123321226055,-84.07240023072654,-0.6131,-0.3959,0.1378,-0.6696
140,1180043.0,1142.055619,1.0,7.28,2.93,5.94,-3.75,-9.75,-28.87,4.0,2.06,-5.75,-0.0735118937951964,-0.6107337991945072,-0.01620601177132741,-46.64423316662803,15.737004132862339,-83.8257817667832,-0.6151,-0.3959,0.1369,-0.6679999999999999
141,1180043.0,1142.055619,1.0,7.28,2.93,5.94,-3.75,-9.75,-28.87,4.0,2.06,-5.75,-0.0735118937951964,-0.6107337991945072,-0.01620601177132741,-46.64423316662803,15.737004132862339,-83.8257817667832,-0.6151,-0.3959,0.1369,-0.6679999999999999
142,1180078.0,1142.058529,1.0,8.08,2.53,4.5,-3.75,-9.75,-28.87,11.81,-27.06,-0.56,-0.08485851296169944,-2.104955947645551,0.4525461150065482,-47.49415477267991,15.968397992715149,-83.39534135240477,-0.6133,-0.4027,0.1389,-0.6652
143,1180078.0,1142.058529,1.0,8.08,2.53,4.5,-3.75,-9.75,-28.87,11.81,-27.06,-0.56,-0.08485851296169944,-2.104955947645551,0.4525461150065482,-47.49415477267991,15.968397992715149,-83.39534135240477,-0.6133,-0.4027,0.1389,-0.6652
144,1180112.0,1142.098425,1.0,7.71,2.8,4.99,-3.75,-9.69,-29.5,-6.75,-60.31,-0.31,-0.11130154318739638,-1.2205236716445846,0.2839332692850025,-48.57304992918911,17.033669594732867,-82.31025694358621,-0.6131,-0.4113,0.1481,-0.6581
145,1180112.0,1142.098425,1.0,7.71,2.8,4.99,-3.75,-9.69,-29.5,-6.75,-60.31,-0.31,-0.11130154318739638,-1.2205236716445846,0.2839332692850025,-48.57304992918911,17.033669594732867,-82.31025694358621,-0.6131,-0.4113,0.1481,-0.6581
146,1180149.0,1142.106067,1.0,8.07,2.96,4.74,-4.56,-9.69,-29.0,-3.75,-93.94,8.31,-0.2263720046894789,-1.077278079209235,0.05255713312877397,-50.71944432115219,19.494244164289388,-80.34634707870403,-0.6097,-0.4283,0.1693,-0.6451
147,1180149.0,1142.106067,1.0,8.07,2.96,4.74,-4.56,-9.69,-29.0,-3.75,-93.94,8.31,-0.2263720046894789,-1.077278079209235,0.05255713312877397,-50.71944432115219,19.494244164289388,-80.34634707870403,-0.6097,-0.4283,0.1693,-0.6451
148,1180184.0,1142.1192740000001,1.0,6.31,4.11,7.35,-4.56,-9.69,-29.0,-14.75,-95.94,7.56,-0.6057002251724417,2.7130001010801985,-0.342411911761344,-52.55255813835036,21.7305176882842,-78.73617218118244,-0.6051,-0.4427,0.1885,-0.6343
149,1180184.0,1142.1192740000001,1.0,6.31,4.11,7.35,-4.56,-9.69,-29.0,-14.75,-95.94,7.56,-0.6057002251724417,2.7130001010801985,-0.342411911761344,-52.55255813835036,21.7305176882842,-78.73617218118244,-0.6051,-0.4427,0.1885,-0.6343
150,1180217.0,1142.253826,1.0,6.35,3.81,6.99,-6.5,-9.69,-29.87,8.56,-40.69,2.63,-0.4116741866645917,2.674878642726587,-0.0103886884599369,-53.93692610492359,23.073918065630973,-77.49655117938742,-0.6022,-0.4535,0.2,-0.6259
151,1180217.0,1142.253826,1.0,6.35,3.81,6.99,-6.5,-9.69,-29.87,8.56,-40.69,2.63,-0.4116741866645917,2.674878642726587,-0.0103886884599369,-53.93692610492359,23.073918065630973,-77.49655117938742,-0.6022,-0.4535,0.2,-0.6259
152,1180254.0,1142.264311,1.0,6.97,3.41,6.23,-8.69,-9.69,-29.37,0.88,10.88,0.37,-0.19446879840856512,1.6400344636473625,-0.006319420338295245,-53.962642188164594,23.109005518751957,-77.34969619182397,-0.6029,-0.4537,0.2003,-0.6249
153,1180254.0,1142.264311,1.0,6.97,3.41,6.23,-8.69,-9.69,-29.37,0.88,10.88,0.37,-0.19446879840856512,1.6400344636473625,-0.006319420338295245,-53.962642188164594,23.109005518751957,-77.34969619182397,-0.6029,-0.4537,0.2003,-0.6249
154,1180289.0,1142.267259,1.0,7.46,3.36,5.56,-8.69,-9.69,-29.37,1.81,29.37,-1.0,-0.3233377699707181,0.6514822298172839,-0.05873512125820035,-53.24369423684897,22.501130743263236,-77.84962137759723,-0.6053,-0.4481,0.1951,-0.6283
155,1180289.0,1142.267259,1.0,7.46,3.36,5.56,-8.69,-9.69,-29.37,1.81,29.37,-1.0,-0.3233377699707181,0.6514822298172839,-0.05873512125820035,-53.24369423684897,22.501130743263236,-77.84962137759723,-0.6053,-0.4481,0.1951,-0.6283
156,1180323.0,1142.3145,1.0,7.77,3.17,5.28,-7.19,-10.38,-30.19,1.0,36.81,-2.75,-0.21306475294976068,0.04585058107862783,-0.10560005411310236,-52.578118912593965,21.800531789289547,-78.3956670621913,-0.6072,-0.4429,0.1891,-0.632
157,1180323.0,1142.3145,1.0,7.77,3.17,5.28,-7.19,-10.38,-30.19,1.0,36.81,-2.75,-0.21306475294976068,0.04585058107862783,-0.10560005411310236,-52.578118912593965,21.800531789289547,-78.3956670621913,-0.6072,-0.4429,0.1891,-0.632
158,1180360.0,1142.3186699999999,1.0,7.76,3.11,5.5,-8.0,-10.0,-29.37,1.88,42.38,-3.5,-0.1123126075251888,-0.05703110318072624,-0.19953975092222187,-51.48152030899618,20.786119068432164,-79.06265131180031,-0.6114,-0.4343,0.1804,-0.6365
159,1180360.0,1142.3186699999999,1.0,7.76,3.11,5.5,-8.0,-10.0,-29.37,1.88,42.38,-3.5,-0.1123126075251888,-0.05703110318072624,-0.19953975092222187,-51.48152030899618,20.786119068432164,-79.06265131180031,-0.6114,-0.4343,0.1804,-0.6365
160,1180395.0,1142.334378,1.0,7.68,2.94,5.59,-7.19,-10.0,-28.87,0.56,53.06,-6.88,0.048315058852107066,-0.216843040527988,-0.134413562359045,-50.49129103156368,19.83151281371854,-79.6283867646292,-0.6153,-0.4265,0.1722,-0.6403
161,1180395.0,1142.334378,1.0,7.68,2.94,5.59,-7.19,-10.0,-28.87,0.56,53.06,-6.88,0.048315058852107066,-0.216843040527988,-0.134413562359045,-50.49129103156368,19.83151281371854,-79.6283867646292,-0.6153,-0.4265,0.1722,-0.6403
162,1180428.0,1142.378909,1.0,7.63,2.94,5.28,-7.19,-10.0,-28.87,-5.75,50.44,-4.19,-0.11625666535706305,-0.7145330073755485,0.10021775281819068,-49.13941280029733,18.715683728517142,-80.46637592020761,-0.6193,-0.4158,0.1626,-0.6459
163,1180428.0,1142.378909,1.0,7.63,2.94,5.28,-7.19,-10.0,-28.87,-5.75,50.44,-4.19,-0.11625666535706305,-0.7145330073755485,0.10021775281819068,-49.13941280029733,18.715683728517142,-80.46637592020761,-0.6193,-0.4158,0.1626,-0.6459
164,1180465.0,1142.417276,1.0,7.33,3.37,5.29,-6.06,-10.0,-29.37,-8.06,25.06,3.19,-0.5964869056250027,-0.5527288413774412,0.19371110498316746,-48.434798213187825,18.42540124877966,-80.75187187324588,-0.6216,-0.4102,0.1601,-0.6478
165,1180465.0,1142.417276,1.0,7.33,3.37,5.29,-6.06,-10.0,-29.37,-8.06,25.06,3.19,-0.5964869056250027,-0.5527288413774412,0.19371110498316746,-48.434798213187825,18.42540124877966,-80.75187187324588,-0.6216,-0.4102,0.1601,-0.6478
166,1180502.0,1142.439527,1.0,6.97,3.41,5.92,-5.25,-9.25,-28.56,2.38,2.88,2.94,-0.5019251542287766,0.09400796489578343,0.06013094743109981,-48.045582104940436,18.390575402245243,-80.87226170457619,-0.6229,-0.4071,0.1598,-0.6486
167,1180502.0,1142.439527,1.0,6.97,3.41,5.92,-5.25,-9.25,-28.56,2.38,2.88,2.94,-0.5019251542287766,0.09400796489578343,0.06013094743109981,-48.045582104940436,18.390575402245243,-80.87226170457619,-0.6229,-0.4071,0.1598,-0.6486
168,1180536.0,1142.496617,1.0,6.65,2.96,6.45,-5.25,-9.25,-28.56,6.63,2.19,-0.25,0.07815775621313603,0.6094455328773281,0.1005144400771112,-48.133417932241116,18.251289114029838,-80.96262485016383,-0.6221,-0.4078,0.1586,-0.6492
169,1180536.0,1142.496617,1.0,6.65,2.96,6.45,-5.25,-9.25,-28.56,6.63,2.19,-0.25,0.07815775621313603,0.6094455328773281,0.1005144400771112,-48.133417932241116,18.251289114029838,-80.96262485016383,-0.6221,-0.4078,0.1586,-0.6492
170,1180569.0,1142.554449,1.0,6.89,3.03,6.11,-5.0,-10.0,-29.37,-1.69,8.5,-1.19,-0.07710032895314134,0.16980420541149832,0.11385256731319693,-47.93269439397731,18.088822794467358,-81.00782923439904,-0.6232,-0.4062,0.1572,-0.6495
171,1180569.0,1142.554449,1.0,6.89,3.03,6.11,-5.0,-10.0,-29.37,-1.69,8.5,-1.19,-0.07710032895314134,0.16980420541149832,0.11385256731319693,-47.93269439397731,18.088822794467358,-81.00782923439904,-0.6232,-0.4062,0.1572,-0.6495
172,1180604.0,1142.571418,1.0,7.08,3.24,5.93,-4.56,-9.69,-29.75,-4.88,9.06,-0.81,-0.33505502703646595,-0.10350565903241482,0.025754094848679188,-47.59432704723895,18.07721946422553,-80.93249704821434,-0.6255,-0.4035,0.1571,-0.649
173,1180604.0,1142.571418,1.0,7.08,3.24,5.93,-4.56,-9.69,-29.75,-4.88,9.06,-0.81,-0.33505502703646595,-0.10350565903241482,0.025754094848679188,-47.59432704723895,18.07721946422553,-80.93249704821434,-0.6255,-0.4035,0.1571,-0.649
