TIME,ELAPSED_SECONDS,PSTATE,acc_x,acc_y,acc_z,mag_x,mag_y,mag_z,gyr_x,gyr_y,gyr_z,lin_x,lin_y,lin_z,eul_x,eul_y,eul_z,qua_w,qua_x,qua_y,qua_z
3647756.0,953.976018,1.0,-0.37,-2.13,-9.55,6.69,-10.38,48.75,44.63,-98.37,31.44,-0.032639535770267875,0.050132050071439074,0.01518834005053371,-149.50552295905456,-27.51346175010752,4.860139072417077,0.1038,-0.9648,-0.2378,0.0424
3647793.0,953.993973,1.0,-0.52,-3.2,-10.09,9.69,-11.19,48.38,50.88,-38.38,15.31,-0.16953151256379861,-0.621575334012217,-0.7717904885784304,-149.02983560319493,-27.124302654398623,6.8451863308548155,0.1124,-0.9637,-0.2345,0.0597
3647830.0,954.03988,1.0,-0.67,-2.51,-9.03,13.06,-8.19,48.75,-5.06,-4.75,27.56,0.006362843150459652,-0.1206589127422609,0.4111563492649353,-149.37507492345586,-26.229260388868163,7.775272426130342,0.1169,-0.9645,-0.2269,0.0678
3647862.0,954.074756,1.0,-0.09,-3.05,-10.49,13.06,-8.19,48.75,-11.31,22.06,0.69,0.4686879573881566,-0.5749498567428368,-1.0929125719948374,-149.85607839466778,-25.899921160166517,7.247016388579905,0.1157,-0.9656,-0.2241,0.0632
3647899.0,954.10667,1.0,-0.47,-2.92,-9.27,13.06,-8.5,47.88,-35.0,45.13,21.81,-0.2776443177044441,-0.5878451498603823,0.0980171553286091,-150.93250619783007,-25.37108032838959,5.777862453568277,0.1103,-0.968,-0.2196,0.0504
3647936.0,954.134594,1.0,-0.66,-1.37,-9.27,11.88,-8.5,48.25,-28.12,12.38,29.5,0.023833999248725313,0.7474040700137226,0.4425579940120876,-152.28767595523587,-24.432265654546878,4.89454770282183,0.1031,-0.9709,-0.2116,0.0427
3647969.0,954.165511,1.0,-1.31,-0.36,-8.95,11.88,-8.5,48.25,-6.88,2.0,-6.56,-0.20259709077850485,1.7554129265365395,0.9282672713631861,-152.91671705681662,-24.02206117401117,5.0551272004985615,0.0977,-0.9722,-0.2081,0.0441
3648004.0,954.231337,1.0,-1.06,-2.93,-9.7,11.56,-10.38,47.5,18.5,16.87,-1.94,-0.9576234991775558,-0.3809242855187029,-0.32924433264401287,-152.62462859250314,-24.127512270969643,4.573417240623147,0.1036,-0.9716,-0.209,0.0399
3648040.0,954.244313,1.0,-0.64,-0.77,-10.11,11.56,-10.38,47.69,6.63,21.75,12.0,0.24664950452497808,1.4851774311193902,-0.2406387895198474,-153.06392657993817,-23.67070602926566,4.068855279934243,0.1048,-0.9725,-0.2051,0.0355
3648075.0,954.299156,1.0,-0.36,-1.9,-10.52,11.56,-10.38,47.69,25.94,1.94,-16.25,0.11457355746625128,0.5439792038109788,-0.8751550687021368,-152.62462859250314,-23.91663071897709,4.011523869819651,0.1096,-0.9716,-0.2072,0.035
3648110.0,954.306135,1.0,-0.7,-1.58,-9.96,10.38,-10.38,47.56,0.56,-1.56,5.44,-0.10580638488616856,0.9355546494534193,-0.25821674063811706,-152.28767595523587,-23.998630403703217,4.068855279934243,0.1136,-0.9709,-0.2079,0.0355
3648145.0,954.353011,1.0,-1.18,-0.52,-8.74,10.06,-8.19,48.0,-7.0,14.13,-9.5,-0.3416751935123449,1.8214495495647394,1.1685958440845177,-152.19213918576153,-24.24470448957822,3.564372225995784,0.1124,-0.9707,-0.21,0.0311
3648182.0,954.366973,1.0,0.1,-2.61,-10.19,9.69,-8.88,47.5,9.06,21.31,-32.69,-0.015830807971232125,-0.16246762518104468,-0.7115035288417904,-151.34635737161238,-25.124476539770274,2.7160742546883188,0.1154,-0.9689,-0.2175,0.0237
3648217.0,954.41285,1.0,-0.13,-2.53,-9.42,9.69,-8.88,47.5,-10.88,-18.44,-6.06,-0.24093508888188545,-0.20383043360331393,0.05705496034411617,-151.0239731545222,-25.60605217391993,2.9797163137078666,0.1132,-0.9682,-0.2216,0.026
3648251.0,954.482666,1.0,-1.03,-0.82,-8.67,9.25,-9.25,48.25,-21.56,-12.69,-8.06,-0.3811788377333888,1.4102764679087392,1.1597995342103289,-151.207760054273,-25.735333308776625,3.2892294003721183,0.1066,-0.9686,-0.2227,0.0287
3648288.0,954.528542,1.0,-0.29,-3.05,-9.73,10.06,-9.69,48.0,0.75,-5.94,-20.5,-0.5562871903382359,-0.6964692872334471,-0.35528756592738553,-150.61456567249238,-26.48818157203767,3.4611913427691,0.1047,-0.9673,-0.2291,0.0302
3648323.0,954.544503,1.0,-0.8,-0.51,-10.57,10.06,-9.69,48.0,-36.5,-49.13,15.0,0.28394659959554636,1.706730021455407,-0.6638536632647725,-150.9782044157604,-26.370473139201327,4.2293886949276756,0.0964,-0.9681,-0.2281,0.0369
3648358.0,954.579405,1.0,-0.69,-1.65,-12.91,10.38,-9.25,47.06,22.0,-62.75,-7.81,0.667331431499744,0.8842204733085857,-3.179478095591639,-150.34469905459454,-26.711906133385632,6.592650878252481,0.0944,-0.9667,-0.231,0.0575
3648393.0,954.605336,1.0,-1.06,-1.75,-13.86,11.19,-10.38,48.25,9.25,-132.5,-16.06,1.2080515545845136,0.9083710470322446,-4.121780402682834,-148.7733502639536,-27.47807034873948,9.844059122531188,0.0934,-0.9631,-0.2375,0.0858
3648430.0,954.636255,1.0,-0.41,-1.85,-15.42,16.37,-10.0,45.5,42.94,-232.44,-33.81,3.7932730167822957,0.11921535151570006,-5.258670027138962,-144.7656551188059,-28.94318956430816,16.74405079259733,0.0893,-0.9531,-0.2499,0.1456
3648464.0,954.670196,1.0,-3.78,-1.72,-5.89,16.37,-10.0,45.5,63.38,-259.31,-68.37,-0.7844090551978296,0.858522214538435,2.6942283279344537,-136.58990657854866,-31.792944149622578,26.853259249897157,0.0881,-0.9291,-0.2739,0.2322
3648501.0,954.712051,1.0,-4.42,-9.27,0.43,25.0,-7.06,42.19,106.75,-137.38,-97.5,-7.636737624305889,-4.842637808428691,4.919595926850432,-130.3242488651211,-34.375043949019776,32.60397465615993,0.1021,-0.9075,-0.2955,0.2807
3648538.0,954.737981,1.0,-4.46,-3.55,0.95,33.25,-2.56,37.75,8.44,18.19,-3.0,-5.169187830338983,-0.11732937000311305,7.225500838558524,-128.76486449761617,-35.17957649356332,33.40472333858408,0.1136,-0.9017,-0.3022,0.2874
3648573.0,954.797825,1.0,-0.77,-5.38,2.69,33.25,-2.56,37.75,39.75,276.81,-1.69,-4.490914213775793,-4.071489586277374,9.639132617793067,-131.87465337051762,-34.183176562470926,28.44641063157099,0.1393,-0.9131,-0.2939,0.2457
3648606.0,954.802808,1.0,3.19,-4.99,-1.02,34.38,-1.06,39.0,-37.19,480.56,14.94,0.6415020291321119,-5.422239419240436,7.29579460251998,-140.91718374591224,-30.87653837372019,12.03128766143814,0.1735,-0.9424,-0.2662,0.1048
3648643.0,954.849682,1.0,5.85,-3.59,-7.93,22.0,0.0,46.38,-131.63,514.56,54.81,3.870106655614435,-2.7319196202516585,0.4495997349510361,-145.7248595525418,-26.9593013980579,-2.7733864743736323,0.1785,-0.9556,-0.2331,-0.0242
3648679.0,954.885589,1.0,7.17,-2.25,-11.62,1.0,-4.19,49.75,-107.94,439.06,62.0,2.2129949309133803,0.6178279352018629,-3.839475533580435,-144.1648201843402,-21.007514103633177,-20.14567756040377,0.1757,-0.9515,-0.1823,-0.1749
3648714.0,954.920493,1.0,11.04,-3.07,-14.03,1.0,-4.19,49.75,-74.06,290.13,46.69,2.0008386950936323,0.730892353379733,-8.18250898211995,-139.83527593342117,-17.54366623938741,-29.428677083635286,0.1736,-0.9392,-0.1525,-0.254
3648751.0,954.973385,1.0,12.32,-2.75,-14.91,-16.25,-8.56,45.19,-135.75,71.25,75.37,0.9306461291816328,1.340313656572754,-9.661027239060749,-137.7829624670443,-13.080365619179066,-35.444140239914894,0.1549,-0.9329,-0.1139,-0.3044
3648788.0,954.982329,1.0,12.57,-0.26,-16.36,-25.37,-11.25,42.06,-156.19,-59.19,59.31,1.045996175315806,3.2503948246498218,-10.54188620005907,-140.61001416599208,-9.76355056625781,-35.21564193303898,0.1216,-0.9415,-0.0851,-0.3025
3648823.0,955.041171,1.0,9.43,-3.44,-14.67,-25.37,-11.25,42.06,-135.63,-325.5,25.81,1.3063623616966682,-1.7091784671667192,-7.838165849062188,-150.61456567249238,-8.039461810968866,-26.829697512461113,0.0751,-0.9673,-0.0701,-0.232
3648858.0,955.057128,1.0,6.06,-1.21,-10.98,-24.56,-13.88,41.69,-210.13,-508.31,56.63,4.153148835436664,-1.639732083426769,-1.9751466985214918,-169.4938307856925,-5.697547703194251,-8.855279263547427,0.0035,-0.9958,-0.0497,-0.0772
3648894.0,955.105,1.0,-2.1,4.23,1.41,-11.06,-19.75,44.5,-175.63,-590.56,54.25,-1.9855749621105483,4.464589161341808,10.451580763934341,-169.1248093860893,-3.438262641755622,8.200293609338797,-0.054,-0.9955,-0.03,0.0715
3648931.0,955.159853,1.0,-6.25,2.3,4.71,9.5,-26.19,39.38,-8.19,-227.19,29.5,-7.451837657543107,2.9294946197402614,11.363819482919356,-155.70003388404493,-1.2261530793833222,22.653038617520366,-0.0748,-0.9776,-0.0107,0.1964
3648966.0,955.166834,1.0,-3.74,1.65,3.24,9.5,-26.19,39.38,-97.0,-49.38,87.06,-4.725702752639577,2.004600137229008,10.732399309217222,-151.7661453802759,1.237612897472461,25.41806598879087,-0.1045,-0.9698,0.0108,0.22
3649003.0,955.22069,1.0,-0.97,13.68,6.0,18.06,-28.25,38.25,-89.06,219.38,73.19,-3.0493447357495365,14.610118769012987,10.959570742241628,-153.1625065187994,2.899475820391489,21.05413366331596,-0.1407,-0.9727,0.0253,0.1827
3649038.0,955.238674,1.0,3.92,7.42,0.55,13.88,-32.75,34.56,150.19,453.19,-59.0,3.9408795216085886,7.398505109927827,9.130713069112296,-166.62885834304856,-0.1145915781247664,5.387788121139308,-0.1071,-0.9932,-0.001,0.047
3649073.0,955.288509,1.0,9.92,1.61,-14.48,13.88,-32.75,34.56,201.19,470.94,-107.37,7.720362711098591,-0.8611636576051295,-6.014958539080297,-168.30883818145554,-4.573417240623147,-8.395611151395808,-0.0579,-0.9948,-0.0399,-0.0732
3649107.0,955.321424,1.0,10.99,-2.41,-20.03,1.06,-30.19,42.38,226.81,229.88,-113.62,3.5675799568983964,-3.004274193660484,-12.68858971466947,-158.77799072087697,-10.235170717586842,-18.437010245615284,0.0168,-0.9829,-0.0892,-0.1602
3649144.0,955.353336,1.0,7.44,-11.75,-13.85,-11.19,-24.19,43.19,233.0,14.0,-102.19,-0.6103243693621168,-10.417023053004181,-6.817180331104266,-154.5820007553698,-14.627194705880914,-19.006087438353557,0.0712,-0.9755,-0.1273,-0.1651
3649181.0,955.387246,1.0,2.68,-7.78,-9.72,-10.38,-16.25,46.5,-106.87,-44.94,9.56,-2.5013116241783426,-6.266188099093644,-0.994624316742792,-154.84376268843482,-15.875832638109523,-17.474100846214466,0.0732,-0.976,-0.1381,-0.1519
3649216.0,955.418166,1.0,-1.59,1.6,-0.25,-10.38,-16.25,46.5,-94.06,79.87,28.87,-1.1209795710434043,1.932894772036048,10.20404476788083,-154.84376268843482,-14.049721543626418,-20.075850034388896,0.0451,-0.976,-0.1223,-0.1743
3649253.0,955.456087,1.0,1.91,2.98,-0.63,-10.38,-18.56,45.38,-12.63,285.31,29.0,2.0810329771659863,2.6234420577584214,8.498118946668853,-149.37507492345586,-12.699808169946314,-27.136090647491404,0.0503,-0.9645,-0.1106,-0.2346
3649290.0,955.524549,1.0,4.84,2.33,-2.34,-17.19,-20.06,43.19,41.56,351.44,23.0,2.703679567251312,2.0912255256247296,5.047764353275197,-137.30822333899698,-11.409241734119899,-40.02193352838936,0.0743,-0.9314,-0.0994,-0.3422
3649325.0,955.557445,1.0,12.07,-1.08,-8.81,-17.19,-20.06,43.19,122.81,344.0,-19.37,0.6778549703390144,0.26777703458844915,-5.157848257507126,-126.60729740721462,-11.743260322870698,-50.2506946909351,0.1055,-0.8934,-0.1023,-0.4246
3649359.0,955.573402,1.0,14.1,-5.35,-9.9,-29.19,-18.87,36.19,118.37,228.44,-29.87,-3.0209176931732413,-2.1756492524970796,-7.845066817952345,-116.07613737802977,-13.668786527863627,-59.29993988982113,0.1456,-0.8484,-0.119,-0.4947
3649396.0,955.59493,1.0,15.35,-3.73,-9.48,-38.56,-16.25,29.56,64.37,127.19,-22.44,-2.880847723262379,-0.1613523122552718,-8.38896710486083,-111.21754699943546,-14.534774284595127,-63.44422897307763,0.1634,-0.8252,-0.1265,-0.5258
3649433.0,955.64753,1.0,12.58,-1.67,-7.25,-42.69,-14.38,25.56,16.56,6.81,-49.31,-1.894941939812404,0.8851422919546147,-4.658256434807429,-109.11541872598389,-16.13041264048083,-65.09518738061834,0.1649,-0.8147,-0.1403,-0.538
3649468.0,955.669569,1.0,12.29,-2.41,-5.88,-42.69,-14.38,25.56,84.81,18.19,-57.25,-1.473661207163838,-0.4142932803418079,-3.9441057510256154,-107.35582470459703,-19.28499092759115,-65.47622986306104,0.1742,-0.8057,-0.1675,-0.5408
3649505.0,955.715466,1.0,11.05,-2.98,-4.88,-41.88,-16.25,24.69,17.37,-39.31,-29.44,-1.37515069993787,-1.3745324878524219,-2.4822442135693645,-107.10469949657603,-21.287284503296153,-64.72851792100349,0.1793,-0.8044,-0.1847,-0.5353
3649542.0,955.741621,1.0,9.83,-0.6,-3.9,-41.5,-15.88,26.37,-24.56,-66.44,-21.0,0.42359738518747303,-0.045193533153822685,-0.7771783621676072,-109.25386439900599,-21.882225322200526,-62.81213256780961,0.1656,-0.8154,-0.1898,-0.5211
3649576.0,955.777558,1.0,9.46,-0.51,-4.07,-41.5,-15.88,26.37,12.06,-41.56,-25.75,0.3637211633757289,-0.07117020929788764,-0.4976812115159195,-110.34997788662331,-22.75822922439662,-61.527591471642566,0.1599,-0.8209,-0.1973,-0.5115
3649609.0,955.821586,1.0,9.29,-1.13,-4.67,-38.88,-17.75,28.5,-0.25,-33.63,-15.75,-0.3208969099210819,-0.5129401653578447,-0.6347971008555984,-111.25813232752795,-23.62387580431868,-60.35758382043169,0.1552,-0.8254,-0.2047,-0.5027
3649646.0,955.867452,1.0,8.42,0.27,-4.53,-37.0,-17.75,30.5,-26.5,-44.38,-9.69,0.2520317376742378,0.6046634415897161,0.2640579975297186,-112.4856431571934,-23.65899809735879,-59.379069241975294,0.1461,-0.8314,-0.205,-0.4953
3649683.0,955.900361,1.0,8.03,0.23,-4.63,-37.0,-17.87,31.25,-6.69,-36.81,-7.75,0.16579585871826508,0.49709101701700065,0.549430533333302,-113.8590465676662,-23.91663071897709,-58.07736528499433,0.1384,-0.838,-0.2072,-0.4854
3649716.0,955.917683,1.0,7.69,0.13,-4.79,-37.0,-17.87,31.25,-5.38,-32.88,-10.13,-0.006114068049416499,0.392789575429928,0.7544249162095227,-114.9378688809502,-24.291588578811197,-56.94018936700063,0.1328,-0.8431,-0.2104,-0.4767
3649755.0,955.962692,1.0,7.53,-0.24,-5.04,-34.69,-18.69,32.06,-2.44,-22.0,-10.44,-0.36583270254829037,0.10990604187580755,0.7504815444275543,-115.5155016589776,-24.608164621444825,-56.30240400451016,0.1293,-0.8458,-0.2131,-0.4718
3649789.0,955.990081,1.0,7.21,0.11,-5.14,-34.69,-19.37,34.19,-15.0,-22.75,-4.25,-0.33648363030143313,0.4173025857220678,0.9676207932098784,-116.29293986048516,-24.66681067830264,-55.627641077304766,0.1237,-0.8494,-0.2136,-0.4666
3649824.0,956.023387,1.0,7.08,0.35,-5.21,-34.69,-19.37,34.19,-11.44,-15.5,-3.06,-0.2863317027010819,0.6136251647308145,1.0354198517689444,-116.77224597329428,-24.655080942437504,-55.213443709052655,0.1198,-0.8516,-0.2135,-0.4634
3649859.0,956.093716,1.0,7.2,0.39,-5.41,-33.5,-20.19,33.25,-10.0,-6.0,-2.31,-0.33042503570202264,0.5982013221586246,0.8181476512241481,-117.21082255070307,-24.678540676695548,-54.91622259305462,0.1143,-0.8536,-0.2137,-0.4611
3649894.0,956.130621,1.0,7.41,0.53,-5.39,-33.19,-20.19,32.88,-2.63,-1.06,-2.06,-0.15369839173361832,0.620183282632861,0.6506219583041233,-117.32089688772969,-24.655080942437504,-54.903309037029295,0.1118,-0.8541,-0.2135,-0.461
3649931.0,956.152559,1.0,7.4,0.51,-5.47,-31.25,-21.25,33.5,-10.5,-2.69,4.25,-0.20856969568296968,0.5853387183821637,0.6112773992401248,-117.63003319551184,-24.51434453810049,-54.73550149260234,0.1085,-0.8555,-0.2123,-0.4597
3649966.0,956.157552,1.0,7.55,0.94,-5.32,-31.25,-21.25,33.5,-0.19,7.56,6.63,0.15728813043227197,0.8841929694431547,0.5664138971283617,-117.60790637777723,-24.315032171134934,-54.86457290348777,0.1082,-0.8554,-0.2106,-0.4607
3650002.0,956.207681,1.0,8.19,0.59,-5.63,-33.56,-20.5,33.75,8.19,12.5,4.94,0.030138575284672342,0.6144841683136526,-0.13028115972792342,-117.25483147566798,-24.104076904803392,-55.25224136431043,0.1116,-0.8538,-0.2088,-0.4637
