TIME,ELAPSED_SECONDS,PSTATE,acc_x,acc_y,acc_z,mag_x,mag_y,mag_z,gyr_x,gyr_y,gyr_z,lin_x,lin_y,lin_z,eul_x,eul_y,eul_z,qua_w,qua_x,qua_y,qua_z
1708992.0,644.964352,1.0,0.67,2.32,-9.22,8.25,-27.56,40.5,-3.19,-17.62,0.0,-0.2905082028303921,0.018343405214592434,0.28010978313357526,-138.1023056498993,-38.42831653324454,-10.200656128703407,-0.108,-0.9339,-0.3291,-0.0889
1709029.0,644.987381,1.0,0.47,2.62,-9.05,8.25,-27.25,41.38,-5.69,0.44,0.44,-0.21635539674618132,0.3391654714617728,0.3818976358650694,-138.1343678726239,-38.343381493661,-10.01659391306903,-0.1108,-0.934,-0.3284,-0.0873
1709062.0,645.020321,1.0,0.85,2.18,-9.7,8.25,-27.25,41.38,-3.13,9.13,0.44,-0.3803892651630724,-0.3252182445541796,-0.1590129032070795,-138.0382513966867,-38.355513729529896,-10.258180960550504,-0.1111,-0.9337,-0.3285,-0.0894
1709101.0,645.047387,1.0,1.02,2.78,-9.75,8.25,-27.56,41.5,-13.31,-6.5,4.19,0.044813694969399354,-0.03384970277515792,-0.382959704515935,-138.0382513966867,-38.17357699786608,-10.407757691617306,-0.1143,-0.9337,-0.327,-0.0907
1709135.0,645.084698,1.0,0.85,2.8,-9.12,7.88,-28.0,40.19,-13.25,-12.44,3.25,0.08707650528826677,0.11090444751764106,0.22974977676766173,-138.1023056498993,-38.0038595239246,-10.189151472083806,-0.118,-0.9339,-0.3256,-0.0888
1709168.0,645.146832,1.0,0.91,3.33,-9.57,7.88,-28.0,40.19,-2.88,-4.88,-1.94,0.3125807103402226,0.31140949464670054,-0.35736581197939365,-138.0382513966867,-37.90691698670959,-10.120125690641803,-0.1227,-0.9337,-0.3248,-0.0882
1709203.0,645.150825,1.0,0.69,2.75,-9.53,9.06,-28.37,40.19,2.94,-5.94,-0.31,-0.1458932809045902,0.025361332659266628,-0.13505870390963537,-138.1023056498993,-37.919033262141134,-9.91307033213892,-0.1216,-0.9339,-0.3249,-0.0864
1709240.0,645.205913,1.0,0.67,3.08,-9.5,8.69,-28.0,39.25,9.94,-14.81,-7.19,0.11784840569142147,0.25660918007661754,-0.19862678187747207,-138.07026684249539,-38.05234138049009,-9.430066128049688,-0.122,-0.9338,-0.326,-0.0822
1709275.0,645.228857,1.0,0.3,1.95,-9.12,8.69,-28.0,39.25,32.81,-15.13,-6.25,-0.6023503668826129,-0.25552327706831535,0.49865441070190997,-138.23069557304194,-38.282727009268356,-8.705871826379285,-0.1172,-0.9343,-0.3279,-0.0759
1709309.0,645.267748,1.0,0.6,2.09,-9.71,9.38,-29.5,41.0,-0.81,-3.5,0.44,-0.32576375030539895,-0.40025548035094366,-0.13044582973999574,-138.39171512082905,-38.355513729529896,-8.29220473923879,-0.1139,-0.9348,-0.3285,-0.0723
1709344.0,645.297983,1.0,0.44,2.53,-9.5,9.06,-27.56,41.38,-4.06,-14.13,0.63,-0.10448689883661705,0.007058101250627308,-0.03375307462953003,-138.48861330559183,-38.24633966792924,-7.947565068163919,-0.1163,-0.9351,-0.3276,-0.0693
1709381.0,645.338215,1.0,0.19,2.39,-9.39,11.25,-28.0,40.5,-14.56,-4.88,5.19,-0.36215906803679077,0.027225990137404135,0.12220889300266435,-138.5533323833026,-38.06446294953504,-7.844187348567063,-0.1188,-0.9353,-0.3261,-0.0684
1709416.0,645.374617,1.0,0.46,2.64,-9.62,11.25,-28.0,40.5,-26.75,-4.0,6.25,-0.13876930197818343,-0.1361484892446713,-0.17772813134623,-138.4562899093435,-37.77366695276425,-8.016487142063687,-0.1271,-0.935,-0.3237,-0.0699
1709453.0,645.437289,1.0,0.09,2.94,-9.44,9.75,-27.56,40.56,-9.5,-13.56,1.69,-0.2294491212132927,0.24106177691465608,-0.07538128513997044,-138.39171512082905,-37.59204770944774,-7.8556734445593195,-0.1329,-0.9348,-0.3222,-0.0685
1709488.0,645.47522,1.0,0.25,3.14,-9.44,10.56,-28.75,39.75,-11.38,-9.63,-0.63,0.025099461137809975,0.2027386291515415,-0.14292120007190512,-138.29503211078548,-37.53152975160733,-7.602997386301145,-0.137,-0.9345,-0.3217,-0.0663
1709522.0,645.479209,1.0,-0.09,3.79,-8.72,10.56,-28.75,39.75,9.19,4.38,-10.81,0.3119938454154338,1.048607019026215,0.3613504727180903,-138.1343678726239,-37.74944537405314,-7.5111244261256385,-0.137,-0.934,-0.3235,-0.0655
1709557.0,645.520068,1.0,0.2,1.74,-9.02,10.88,-28.37,38.56,17.69,17.06,1.0,-0.7269496836288473,-0.5839900875614864,0.6656161561122182,-138.23069557304194,-37.97962124483598,-7.844187348567063,-0.129,-0.9343,-0.3254,-0.0684
1709592.0,645.549167,1.0,-0.7,3.41,-6.91,10.56,-28.75,40.19,-6.19,49.06,4.94,-0.11327651525833948,1.7035881204192607,2.260051034435624,-138.0382513966867,-37.94326713356112,-8.843785851491393,-0.1285,-0.9337,-0.3251,-0.0771
1709629.0,645.58816,1.0,0.46,2.23,-8.73,10.56,-28.37,39.75,20.0,89.56,14.94,-0.658260124468152,0.1335093163900344,0.8096355579213252,-137.87852272532075,-37.93114997769715,-11.731740790019305,-0.114,-0.9332,-0.325,-0.1022
1709664.0,645.623251,1.0,1.57,1.37,-9.94,10.56,-28.37,39.75,9.13,73.19,26.44,-0.8976274946691762,-1.0832508009573867,-0.2514926010491223,-137.97429037596618,-37.53152975160733,-13.761120312162008,-0.1037,-0.9335,-0.3217,-0.1198
1709701.0,645.665139,1.0,1.97,2.49,-9.88,7.88,-28.75,41.38,-16.62,18.0,33.5,-0.19793663339086975,-0.2524942839731479,-0.5660289078676701,-138.48861330559183,-36.39578793652754,-15.470980940849387,-0.0993,-0.9351,-0.3123,-0.1346
1709735.0,645.706035,1.0,2.03,1.54,-9.73,3.75,-27.25,41.38,37.13,19.56,26.69,-0.6614859629018073,-0.8611203791912961,-0.19266537723585309,-139.1730548258568,-35.69686055762551,-15.910543420989347,-0.0928,-0.9372,-0.3065,-0.1384
1709770.0,645.720026,1.0,4.09,1.58,-11.88,3.75,-27.25,41.38,-18.81,-43.06,28.87,0.41987748191904917,-2.114436580983763,-2.67180186091508,-140.50813431460048,-34.53100937438062,-15.551935573755918,-0.0878,-0.9412,-0.2968,-0.1353
1709805.0,645.772111,1.0,0.99,4.73,-7.35,3.75,-28.75,42.56,42.13,-34.81,6.13,1.283923042760723,2.657312400766379,1.5201711081544858,-141.67799864882883,-34.15920009515199,-13.899637842978935,-0.0825,-0.9446,-0.2937,-0.121
1709842.0,645.797263,1.0,1.18,0.88,-7.9,3.38,-27.56,42.19,60.44,58.88,20.69,-0.7423773139707917,-0.27703390180845666,1.8098426282453008,-141.95828650840244,-34.26710635514728,-14.419262116395174,-0.0607,-0.9454,-0.2946,-0.1255
1709879.0,645.832361,1.0,0.61,0.91,-5.53,3.38,-27.56,42.19,19.5,79.87,63.88,-0.7497234361622859,0.43683657410955967,4.2363548034427065,-142.5963267640098,-32.52040941662392,-17.253853117357277,-0.0439,-0.9472,-0.28,-0.15
1709912.0,645.879162,1.0,3.79,0.9,-8.47,1.88,-25.37,44.0,2.5,247.94,62.5,0.014264834277280203,-0.7347135565939653,0.5128352555444096,-140.78037862226373,-30.864650439334792,-23.389784532624752,-0.0297,-0.942,-0.2661,-0.2027
1709948.0,645.903129,1.0,4.44,2.37,-8.16,-2.56,-24.56,42.25,-66.87,254.38,83.37,-0.173763797097215,1.0306646129568728,0.27650642299042794,-136.06616582647524,-27.643253148970498,-33.452581959950805,-0.0126,-0.9274,-0.2389,-0.2878
1709983.0,645.950103,1.0,9.12,3.54,-11.97,-13.06,-25.75,41.75,-19.56,218.19,59.69,-0.04201708033198681,1.4420429587502193,-5.58508955958453,-131.6782993972313,-25.37108032838959,-40.424641212889995,0.0029,-0.9124,-0.2196,-0.3455
1710018.0,645.965274,1.0,7.97,3.06,-10.28,-13.06,-25.75,41.75,33.81,25.5,27.62,-0.3315082494886754,1.7148931687338806,-3.441449625997336,-130.21523957962881,-24.49089212710031,-42.581400289161934,0.017,-0.9071,-0.2121,-0.3631
1710055.0,646.020029,1.0,10.75,3.33,-14.41,-22.37,-25.0,38.5,56.88,-115.75,-2.5,-0.3956628696229041,1.878729529012676,-8.376125537591,-131.84655671079122,-24.702001461626935,-40.53456083395825,0.0273,-0.913,-0.2139,-0.3464
1710092.0,646.075326,1.0,7.1,2.09,-8.39,-22.69,-24.56,38.88,146.44,-319.31,-34.5,2.5582841405762435,0.413626783425325,-1.0770210323359795,-139.1730548258568,-27.572453368260625,-29.168105022171193,0.0379,-0.9372,-0.2383,-0.2518
1710127.0,646.088291,1.0,6.73,-0.07,-11.25,-22.69,-24.56,38.88,134.19,-341.0,-50.44,2.1668467575405037,-1.2255167614605469,-3.0643710860178235,-143.64697188895283,-30.080791981197944,-19.08742247639564,0.0502,-0.9501,-0.2595,-0.1658
1710161.0,646.1458,1.0,3.61,-1.92,-10.39,-14.5,-21.25,44.69,43.56,-282.63,-14.94,1.1326995591866638,-2.198554934778545,-1.081598156034067,-146.35265556905202,-32.42492804195051,-6.581172764918963,0.0497,-0.9572,-0.2792,-0.0574
1710198.0,646.163025,1.0,2.79,-3.09,-11.04,0.19,-15.25,46.69,56.5,-275.44,-13.06,1.6369676679648795,-3.5368209297269946,-1.330002754085612,-146.07660730478977,-33.344908493651104,4.126187708974658,0.038,-0.9565,-0.2869,0.036
1710233.0,646.195074,1.0,-0.65,-3.93,-6.22,11.5,-12.88,46.38,23.75,-195.69,15.63,-1.4539594625401282,-2.976704671443708,3.2050569210307094,-144.5768347492103,-33.452581959950805,10.937173775974522,0.0236,-0.9526,-0.2878,0.0953
1710268.0,646.23086,1.0,-0.74,-5.41,-7.26,11.5,-12.88,46.38,-45.38,-133.63,71.69,-1.5036558072196091,-4.818626132947019,2.2539576718103467,-144.7656551188059,-31.29283177814012,15.760140597334962,-0.0028,-0.9531,-0.2697,0.1371
1710305.0,646.292903,1.0,-1.48,-1.64,-6.92,20.87,-12.5,45.19,-200.19,-67.5,156.75,-0.24363226052020948,-1.9509337527710657,2.8137320958678185,-146.7909464272676,-27.725866499273085,16.906223928806188,-0.0511,-0.9583,-0.2396,0.147
1710342.0,646.296896,1.0,-3.5,2.92,-4.45,23.0,-17.0,40.19,-253.81,16.31,164.75,-1.0112514620079538,2.350234962622848,3.972897682575823,-148.1827256280383,-22.53618284114898,15.239724647140953,-0.139,-0.9617,-0.1954,0.1326
1710379.0,646.333794,1.0,-2.58,6.45,-6.47,23.0,-17.0,40.19,-190.5,26.31,118.06,0.9268494421221041,3.6957061204049486,1.1116798227515865,-147.6025936178383,-19.529126066820382,12.469235993000284,-0.1929,-0.9603,-0.1696,0.1086
1710413.0,646.373893,1.0,-2.37,14.18,-4.83,21.25,-27.87,36.5,-66.37,-89.06,1.88,3.3922160656366085,10.158444107660028,-0.9319292112170992,-144.690009668053,-17.601642377536205,13.034229810442687,-0.2361,-0.9529,-0.153,0.1135
1710448.0,646.405042,1.0,-3.22,10.35,-2.74,16.75,-34.69,30.69,189.56,-13.69,-125.12,1.7584987570782502,8.696965188411383,3.0045195519039973,-145.29964361056955,-20.64633108966224,16.13041264048083,-0.1928,-0.9545,-0.1792,0.1403
1710485.0,646.437622,1.0,-2.6,3.59,-5.22,20.5,-34.0,31.69,189.81,118.37,-206.63,0.4871441663565319,2.48581111977014,3.4442657269454466,-145.8027223342799,-25.899921160166517,15.771709071970362,-0.132,-0.9558,-0.2241,0.1372
1710520.0,646.47661,1.0,-1.84,0.62,-7.42,20.5,-34.0,31.69,169.0,111.44,-188.44,0.28743242753817744,0.134654422876141,2.1433836738177083,-143.1724151146164,-33.2731430190265,13.726494094235365,-0.06,-0.9488,-0.2863,0.1195
1710555.0,646.557551,1.0,-1.59,-3.63,-7.37,22.69,-23.87,37.06,171.06,149.75,-138.19,-2.0063427937904788,-2.4643745401327086,2.0656328368779127,-140.61001416599208,-37.41052638436744,11.869983070722633,-0.0037,-0.9415,-0.3207,0.1034
1710594.0,646.562511,1.0,2.18,-5.79,-13.66,22.37,-15.25,42.5,88.25,139.06,-120.0,-0.18635703492876932,-5.108750582100819,-4.290797944412391,-137.11973135242658,-41.85667536570541,6.982946893042854,0.0485,-0.9308,-0.3572,0.0609
1710628.0,646.586535,1.0,0.0,-6.31,-9.09,22.37,-15.25,42.5,57.94,19.06,-63.56,-2.91093320831477,-3.531004250325152,-0.2682036883130934,-134.0866361818657,-44.506361779453115,6.259812004164342,0.076,-0.9208,-0.3787,0.0546
1710663.0,646.613057,1.0,0.13,-6.78,-8.61,16.75,-8.88,45.88,35.31,58.63,-31.56,-3.312044930480732,-3.6554996864474667,0.01966474299366361,-133.0977829759083,-45.299897048836534,5.364844561963228,0.0892,-0.9174,-0.3851,0.0468
1710700.0,646.661194,1.0,2.06,-10.93,-10.43,16.75,-5.5,47.19,29.44,98.81,15.75,-4.852852642027113,-7.105145043732939,-2.7814449766947593,-133.35761077861147,-44.75409801174843,2.578527672575933,0.1064,-0.9183,-0.3807,0.0225
1710735.0,646.687998,1.0,3.2,-4.84,-11.8,12.25,-4.75,49.19,-157.94,22.81,97.62,-0.07508749380830304,-3.8541110614075276,-2.764976378261876,-136.65191882638644,-42.151265384526,0.3896120513439707,0.0837,-0.9293,-0.3596,0.0034
1710770.0,646.729887,1.0,1.33,-4.55,-9.53,12.25,-4.75,49.19,-107.19,4.81,83.56,-1.7039343964802482,-3.4600261854268357,-0.11389062884942369,-141.08884000838947,-38.50113546048416,-1.2949121758820281,0.0465,-0.9429,-0.3297,-0.0113
1710804.0,646.769779,1.0,1.78,-2.2,-7.92,10.75,-9.56,48.38,-259.81,21.25,166.38,-0.21668814741208697,-2.646054458705306,1.8262839652659482,-145.7248595525418,-34.07529458830543,-3.5185137037623337,0.002,-0.9556,-0.293,-0.0307
1710841.0,646.811596,1.0,3.32,3.96,-9.12,8.88,-16.0,46.38,-325.81,77.62,152.44,2.8468731464802555,0.6058765128150316,-0.2634357463612833,-149.33171261025754,-27.088940429595656,-9.119652615329128,-0.0933,-0.9644,-0.2342,-0.0795
1710878.0,646.833531,1.0,2.43,8.88,-7.99,8.88,-16.0,46.38,-328.94,-33.56,139.38,3.029308782973926,4.449960201148057,-1.130467650715632,-147.97436096195162,-21.975603150496877,-11.916067673936476,-0.17,-0.9612,-0.1906,-0.1038
1710913.0,646.874172,1.0,-0.07,12.06,-4.93,4.75,-28.75,41.69,-153.5,-47.69,46.94,1.4309263507914753,7.92468746815328,-0.43567289623330474,-144.38898361895096,-17.184314583414665,-11.777819636455906,-0.2461,-0.9521,-0.1494,-0.1026
1710948.0,646.898083,1.0,1.1,7.37,-6.85,0.56,-38.0,31.69,8.5,6.81,-1.94,0.8387981137027143,2.6653273228968914,0.07824581502351258,-143.9049982588089,-16.83671699887327,-11.89302513102135,-0.2527,-0.9508,-0.1464,-0.1036
1710985.0,646.983374,1.0,1.31,7.2,-8.18,0.56,-39.25,30.06,19.81,35.94,-12.94,0.5787707530003043,1.9865016752594098,-0.972372938544245,-143.97904817901195,-17.33498950133432,-12.596044357776796,-0.2465,-0.951,-0.1507,-0.1097
1711017.0,646.986349,1.0,1.62,5.6,-8.71,0.56,-39.25,30.06,61.44,13.5,-41.75,0.4852022940489573,0.5942548878287457,-0.6460979574579468,-144.53918747848587,-19.08742247639564,-12.630631138714765,-0.2306,-0.9525,-0.1658,-0.11
1711054.0,647.021256,1.0,0.67,3.32,-6.84,-0.19,-39.25,30.5,69.0,-6.5,-40.88,-0.2479993119799967,-0.01299395985787434,2.1780703485665374,-145.49229376528544,-20.51821939470501,-11.628070333672753,-0.2148,-0.955,-0.1781,-0.1013
1711091.0,647.062371,1.0,0.91,4.05,-7.46,2.0,-38.5,33.25,26.62,28.06,-34.63,0.08345622173822198,0.44845300314873254,1.2817379791624823,-145.29964361056955,-22.185757394813148,-11.881504040605066,-0.2031,-0.9545,-0.1924,-0.1035
1711126.0,647.084343,1.0,2.39,6.71,-8.48,2.0,-38.5,33.25,18.06,51.44,-22.69,1.9906580767767466,1.8238041408341643,-0.933816418049064,-144.5768347492103,-23.682414211849775,-12.734398426775373,-0.1954,-0.9526,-0.2052,-0.1109
1711159.0,647.116049,1.0,3.09,4.83,-10.23,1.25,-36.25,33.38,55.06,69.37,-63.94,1.2809467837933604,-0.4235840502992524,-1.8427985658945065,-143.24503868567004,-26.017517180397213,-14.222925164993965,-0.1829,-0.949,-0.2251,-0.1238
1711196.0,647.159625,1.0,2.9,0.63,-10.44,3.5,-36.25,34.19,111.75,35.0,-48.5,-0.5416853958940153,-3.152545677994364,-0.5648750893990631,-143.61025532246643,-28.47005431834872,-14.627194705880914,-0.1448,-0.95,-0.2459,-0.1273
1711233.0,647.199401,1.0,1.72,2.66,-9.08,0.88,-31.75,38.69,-18.75,7.44,-44.81,-0.1976677977615129,-0.5505993421490348,0.20778716078028303,-142.4180463131718,-30.187596092266826,-14.54632631618216,-0.1415,-0.9467,-0.2604,-0.1266
1711265.0,647.224467,1.0,1.82,3.28,-8.88,0.88,-31.75,38.69,4.06,30.44,-40.88,0.16985038746025394,-0.07370254183828201,0.16865649610064182,-141.0200903214725,-31.56662645811723,-15.066323443247011,-0.1415,-0.9427,-0.272,-0.1311
1711304.0,647.314833,1.0,2.07,3.01,-9.48,3.25,-32.88,39.06,38.75,34.75,-26.25,-0.01910342852835778,-0.3953978540667559,-0.34513287770270473,-139.93551354464947,-32.99816611056945,-15.841123321226055,-0.1333,-0.9395,-0.284,-0.1378
1711339.0,647.317827,1.0,1.91,1.08,-10.04,3.25,-31.75,38.69,36.38,23.44,-25.06,-1.3147068856573403,-1.696492931631214,-0.24370111514669723,-139.2059212883253,-34.29108977492126,-16.257732621833746,-0.1208,-0.9373,-0.2948,-0.1414
