acc_x,acc_y,acc_z,eul_x,eul_y,eul_z
1.38,-1.51,-9.63,-81.35490406773994,-97.45833109591425,1.3407518310456548
1.35,-1.53,-9.58,-81.3246878357526,-97.49308186392096,1.3522117780748235
1.25,-1.58,-9.59,-81.29447844633472,-97.52784465140512,1.3865917007687605
1.37,-1.45,-9.59,-81.29447844633472,-97.52784465140512,1.3751317128217122
1.29,-1.38,-9.45,-81.2793763154813,-97.5452305573509,1.3751317128217122
1.22,-1.53,-9.56,-81.24917717727452,-97.56261947404964,1.4209717482803246
1.3,-1.41,-9.64,-81.24917717727452,-97.56261947404964,1.432431792389882
1.32,-1.59,-9.48,-81.24917717727452,-97.56261947404964,1.432431792389882
1.29,-1.47,-9.6,-81.24917717727452,-97.5452305573509,1.4209717482803246
1.27,-1.58,-9.67,-81.2189848647937,-97.5452305573509,1.4782721132478738
1.26,-1.46,-9.51,-81.2189848647937,-97.5452305573509,1.5355728478655368
1.3,-1.39,-9.58,-81.17370917960935,-97.5452305573509,1.6272548279067642
1.44,-1.53,-9.86,-81.05304885614035,-97.597406347569,1.8908465277120163
1.3,-1.9,-9.53,-80.94756010432137,-97.64960928769192,2.154448233767236
1.34,-1.75,-9.56,-80.87226170457619,-97.6844263573576,2.3263684457528235
1.22,-1.89,-9.41,-80.8271028985237,-97.70183943099724,2.47537018520181
1.26,-1.88,-9.4,-80.8120533305175,-97.6844263573576,2.6014518395409367
1.32,-1.86,-9.44,-80.8271028985237,-97.64960928769192,2.6243761106355543
1.32,-1.93,-9.5,-80.8421541496524,-97.58001140346656,2.658762714530565
1.39,-1.76,-9.56,-80.8873180100222,-97.5452305573509,2.6243761106355543
1.34,-1.73,-9.44,-80.91743568101406,-97.49308186392096,2.578527672575933
1.35,-1.78,-9.48,-80.91743568101406,-97.49308186392096,2.5670656278548973
1.39,-1.82,-9.65,-80.91743568101406,-97.45833109591425,2.578527672575933
1.38,-1.89,-9.5,-80.8873180100222,-97.45833109591425,2.6243761106355543
1.42,-2.09,-9.55,-80.85720708472816,-97.44096021432264,2.7733864743736323
1.43,-2.06,-9.64,-80.87226170457619,-97.388865555759,2.8994758203914888
1.43,-1.92,-9.57,-80.91743568101406,-97.30210096200072,3.0599582684028324
1.47,-2.27,-9.6,-80.91743568101406,-97.23274300068556,3.3924056518954067
1.43,-2.73,-9.46,-81.03797395445109,-97.00765780551971,4.045922594423996
1.26,-2.95,-9.62,-81.26427589274175,-96.67958303327644,4.561948975165956
1.39,-4.47,-10.29,-82.05178160910839,-95.70162205923631,6.7418724197947295
0.3,-4.21,-9.46,-83.7488111988913,-93.9237947609836,9.786552516199244
-0.67,-4.47,-8.52,-86.47121429796438,-90.926380189859,14.269118297459285
-1.4,-4.0,-7.51,-88.72571015189867,-88.37361278323944,16.825133117850115
-1.36,-3.68,-8.42,-92.2907466103262,-84.50513857353,18.599556301853195
-1.55,-3.11,-8.09,-96.1465565233062,-80.64661893327633,19.00608743835356
-2.08,-1.45,-7.34,-99.33476502563386,-77.71711737256554,18.239683153744327
-1.82,-1.7,-7.63,-103.83064378585505,-73.94046239689769,15.725436142775802
-0.91,-0.58,-9.65,-107.14328559013715,-71.23904701158034,13.299539926123945
-1.21,0.12,-8.2,-111.1769826604611,-67.75236088092288,10.660928195342471
-0.93,0.22,-8.31,-113.88004967231204,-65.44898558136794,8.384121213370948
-0.02,0.06,-8.93,-116.90353178561008,-62.86584483464826,4.779853967883568
0.36,1.14,-7.6,-119.17426448564116,-60.7025381110459,0.4927452222969898
2.01,1.26,-8.69,-119.99417813762396,-59.52422071985297,-3.656090990936744
3.3,1.34,-8.92,-119.26487102928002,-58.66801815565057,-10.097117916179354
4.71,0.26,-9.83,-117.4973779425748,-58.53661475812208,-14.68496232374226
4.72,0.63,-7.69,-114.38591221182236,-58.4578132506004,-20.856024774540764
5.94,1.23,-6.76,-110.75231492282506,-58.62858825496232,-26.29986168212807
7.33,0.77,-6.81,-104.20296893682892,-58.94424149263559,-34.111251783016854
8.72,0.22,-6.89,-98.96366523953266,-59.286754689259176,-39.10859227464813
9.51,0.36,-6.03,-92.52254534707764,-59.80162063871753,-44.531125521078216
10.24,-0.31,-5.59,-88.22987586017193,-60.19857784037951,-47.4440830843744
10.43,-0.64,-5.47,-83.76420160317195,-60.87524327990863,-49.73231720183757
10.38,-0.24,-4.18,-81.50608810294752,-61.48758848560482,-50.47862213735133
10.79,-0.55,-4.77,-78.61764169313197,-62.557208730764245,-51.06207881053215
10.69,0.09,-4.34,-77.23232058732376,-63.86232469664676,-50.74480796197109
10.39,-0.09,-4.39,-75.64249040650832,-66.52833488574433,-49.353704706731605
10.35,-0.03,-4.73,-74.63048498986646,-69.94734861219692,-47.1313522186008
10.05,-0.25,-5.63,-73.95480587683231,-73.06804274776654,-44.74170597311218
9.18,-1.26,-5.28,-73.85442987393886,-77.46716810896245,-40.84009791641019
8.73,-1.87,-6.05,-74.29945637663062,-80.04673804640113,-38.13720165916782
8.16,-2.2,-6.33,-75.78762767861531,-82.12775101851454,-34.795101425948374
7.63,-0.62,-6.82,-78.11500148015571,-82.5692428787645,-32.162473260424385
7.08,0.63,-7.24,-81.08320374700905,-83.13470426786654,-28.446410631571
6.46,-1.19,-6.76,-83.0428402073519,-83.7488111988913,-25.21840683143225
6.36,0.85,-8.63,-84.75308505755767,-83.79498797378322,-23.237678334824075
5.69,-0.34,-8.75,-85.85932167442839,-85.15704595460248,-19.04094412601985
4.18,-1.79,-6.9,-86.26691017894268,-86.4083150637589,-15.621331474060083
4.18,-3.04,-7.69,-87.05458100062674,-87.05458100062674,-12.457708722341447
4.19,-1.07,-9.11,-88.46953482425532,-86.5026760902236,-11.04078222065542
3.3,-1.5,-7.97,-90.25848391058588,-85.68728608719269,-8.993207204284674
3.17,-1.64,-8.19,-91.72982641130142,-84.61355507220527,-8.211782210366408
3.34,-1.42,-8.95,-94.27697557969388,-82.35592311764404,-7.959051879828772
3.05,-1.2,-8.82,-96.610649179952,-80.25639506580565,-7.913105112625811
2.92,-0.51,-8.6,-99.8317785547328,-77.29099637299755,-8.717364176475899
2.98,-0.19,-8.54,-102.17388174945586,-75.07781120147467,-9.579549083642284
3.16,0.37,-8.77,-104.89590236711722,-72.32820965004784,-10.9717089235085
3.19,0.22,-9.5,-107.82141899407463,-69.36104422677951,-11.92758912667584
2.98,0.25,-9.11,-109.07590597018144,-68.09776471776088,-12.238714488577818
3.0,0.16,-9.2,-110.1295559906411,-67.02240272652745,-12.469235993000286
2.89,0.07,-9.54,-111.1769826604611,-65.9536821068983,-12.815113562902276
2.92,-0.4,-9.17,-112.05379617607242,-65.04081883324783,-12.757459245108164
2.96,-0.28,-9.3,-112.65079783642123,-64.37613024312793,-12.953497246186648
3.06,-0.12,-9.3,-113.3567321523323,-63.53855502158924,-13.299539926123945
3.1,-0.01,-9.32,-113.77509319472593,-63.04051613304179,-13.414914406298776
3.26,-0.35,-9.66,-114.17471692174006,-62.557208730764245,-13.4841456448157
3.24,-0.03,-9.32,-114.49173656786448,-62.262463418184296,-13.334150842815475
3.34,-0.15,-9.68,-114.7888564887898,-62.03501902225592,-12.965030073382623
3.16,-0.2,-9.35,-114.810125415467,-62.06176307865436,-12.803582439206052
3.3,-0.58,-9.65,-114.72508670230464,-62.15539687050149,-12.642160322280048
3.01,-0.54,-9.55,-115.75216046951115,-61.15455226396579,-12.469235993000286
2.66,-1.01,-9.23,-116.79410996273164,-60.09264488671134,-12.388547751922632
2.67,-0.66,-9.22,-117.94055354353924,-58.917918323687886,-12.423127669242316
2.73,-1.0,-9.22,-117.98502779819528,-58.87843997243265,-12.296340166976414
2.87,-0.44,-9.12,-119.15163191547693,-57.64529274825973,-12.400074265032766
3.12,-0.63,-9.38,-120.31578829659291,-56.39339939535494,-12.561458728935325
3.15,-0.9,-9.32,-120.20074735368748,-56.45841982476564,-12.469235993000286
2.91,-0.65,-9.23,-121.03358960360973,-55.61468548324709,-12.561458728935325
3.04,-1.03,-9.36,-121.66531355494112,-54.8774841925425,-12.653689634339962
3.0,-0.75,-9.15,-121.54785831198568,-54.99371982086026,-12.630631138714769
3.01,-0.93,-9.31,-122.11362560713808,-54.348737347604505,-12.803582439206052
3.06,-1.15,-9.36,-122.7801400993836,-53.57720819427434,-12.907367253850758
2.98,-0.9,-9.23,-123.6476805433651,-52.68039020015169,-12.965030073382623
2.99,-1.07,-9.36,-123.5506835259097,-52.7571233277472,-12.907367253850758
2.94,-1.09,-9.15,-124.20841744814189,-52.05468291613776,-12.941964550756788
3.03,-0.9,-9.22,-124.87336158426491,-51.31619778683095,-13.057297449093689
3.13,-1.11,-9.38,-124.70026179828332,-51.43063961098535,-13.080365619179068
3.08,-0.97,-9.46,-125.17127559163816,-50.92242811941736,-13.161108413553292
3.06,-1.11,-9.26,-125.696251455902,-50.35196946524382,-13.2187858542384
2.98,-1.0,-9.13,-125.62096841990898,-50.42795316020507,-13.207250097467805
3.08,-0.91,-9.29,-126.17530318519164,-49.79547555361781,-13.322613734970494
3.19,-1.08,-9.36,-126.6838681332996,-49.24023317275956,-13.461068017168213
3.02,-1.04,-9.06,-126.5308282926202,-49.39154002007115,-13.461068017168213
3.11,-1.05,-9.37,-126.76054091134182,-49.11421404634533,-13.588001782657653
3.07,-1.23,-9.18,-127.01685959928788,-48.82460984436268,-13.645704477358525
3.16,-1.14,-9.25,-127.37765090836372,-48.42223359833176,-13.714952301602876
3.16,-1.29,-9.46,-127.27433384194984,-48.51019892418311,-13.726494094235369
3.07,-1.1,-9.11,-127.71474062830828,-48.03303658033746,-13.761120312162008
3.15,-1.15,-9.37,-128.05386288415187,-47.64442766376834,-13.830376539145911
3.19,-1.09,-9.27,-128.0277034878583,-47.68200947327645,-13.78420515869276
3.13,-1.07,-9.4,-128.3424298098244,-47.33145690842096,-13.830376539145911
3.09,-1.14,-9.2,-128.73836728652063,-46.88143541316104,-13.85346307502466
3.05,-1.16,-9.14,-128.6854111372357,-46.94389240735087,-13.807290567361374
3.18,-1.12,-9.45,-128.8444329155711,-46.731598777829646,-13.830376539145911
3.11,-1.21,-9.19,-129.0571819857357,-46.53194812307301,-13.807290567361374
3.08,-1.21,-9.19,-128.95070405160268,-46.61927683962218,-13.79574779269871
3.04,-1.01,-9.22,-129.24401990955522,-46.29505700445262,-13.865006554805133
3.05,-1.15,-9.04,-129.3510733053071,-46.14554943586622,-13.93427040697098
3.2,-1.34,-9.29,-129.45833846115224,-45.95878171202678,-14.049721543626418
3.18,-1.38,-9.35,-129.2975202216285,-46.10818553492847,-14.08435967436596
3.19,-1.29,-9.36,-129.67350949211158,-45.685088838323495,-14.118999098561428
3.12,-1.19,-9.09,-129.9166096140095,-45.43651590599992,-14.153639819523336
3.15,-1.3,-9.26,-129.86249210271768,-45.486212391208106,-14.130545861300051
3.17,-1.23,-9.38,-130.18802216268048,-45.12611671542185,-14.176734355559056
3.14,-1.36,-9.11,-130.3788376016962,-44.89044689976561,-14.188281840563285
3.24,-1.2,-9.28,-130.3788376016962,-44.878048779944685,-14.222925164993963
3.2,-1.27,-9.27,-130.6800872399157,-44.5682752426895,-14.25756979612918
3.12,-1.18,-9.15,-130.90026578643878,-44.30833052387342,-14.315313760812993
3.11,-1.23,-9.18,-131.01070305716067,-44.12280269978493,-14.373061379793723
3.17,-1.29,-9.21,-130.95545525843715,-44.15989850900582,-14.373061379793723
3.28,-1.24,-9.23,-131.14907903681728,-43.90032983148112,-14.407711711634985
3.16,-1.33,-9.09,-131.4269409010407,-43.61631189309636,-14.407711711634985
