TIME,ELAPSED_SECONDS,PSTATE,acc_x,acc_y,acc_z,mag_x,mag_y,mag_z,gyr_x,gyr_y,gyr_z,lin_x,lin_y,lin_z,eul_x,eul_y,eul_z,qua_w,qua_x,qua_y,qua_z
875390.0,820.7616230000001,1.0,2.27,4.35,-8.28,-12.06,-30.75,20.87,-1.75,-4.19,-0.44,-0.08189416841014903,-0.4208076212473197,0.19155695359214955,-143.35423456188457,15.054764601110485,-11.017757342406151,-0.2691,-0.9493,0.131,-0.096
875425.0,820.849921,1.0,2.25,4.67,-7.89,-12.06,-31.87,21.0,-1.75,0.19,3.75,-0.15453413102303834,0.03434674193172872,0.3674530265457605,-143.24503868567004,15.147239662385427,-11.00624507066077,-0.2698,-0.9490000000000001,0.1318,-0.0959
875462.0,820.9129,1.0,2.53,4.93,-8.11,-12.06,-30.37,21.37,-1.94,6.44,2.56,-0.022912155573897863,0.1679119564569298,-0.014204372609631475,-143.09992952909138,15.18192036535379,-11.19045487105573,-0.2704,-0.9486,0.1321,-0.0975
875497.0,820.9792570000003,1.0,2.37,4.94,-8.41,-12.06,-30.37,21.37,1.44,-0.25,2.69,-0.2308526888528572,-0.013134091380147428,-0.2280465341106872,-143.06373822672285,15.25128597113998,-11.2825706212041,-0.2701,-0.9485,0.1327,-0.0983
875530.0,821.0260440000003,1.0,2.16,4.8,-8.04,-12.06,-31.87,19.25,4.06,1.88,-3.5,-0.3312912832065542,0.027072178324791363,0.20265535283197345,-143.09992952909138,15.18192036535379,-11.224997424028942,-0.2703,-0.9486,0.1321,-0.0978
875565.0,821.044615,1.0,2.26,4.32,-8.4,-12.5,-31.87,22.19,5.44,1.56,-3.0,-0.1383386220181464,-0.516442118245477,0.1090136919009872,-143.3178010626215,15.031647378904806,-11.2825706212041,-0.26899999999999996,-0.9492,0.1308,-0.0983
875601.0,821.047837,1.0,2.44,4.81,-8.54,-12.5,-31.87,21.75,-2.69,-5.75,-0.56,-0.12007427023501065,-0.16474169084145718,-0.29185198519197364,-143.24503868567004,15.054764601110485,-11.213483126166134,-0.2696,-0.9490000000000001,0.131,-0.0977
875636.0,821.0739440000001,1.0,2.44,5.04,-8.55,-12.5,-31.87,21.75,-5.38,-6.88,0.37,-0.14212576268159846,0.012861293141369412,-0.4128086380454139,-143.24503868567004,15.135679738336453,-10.914150898036931,-0.2703,-0.9490000000000001,0.1317,-0.0951
875673.0,821.092092,1.0,2.21,4.78,-8.59,-13.19,-32.25,20.87,4.31,-16.87,-8.38,-0.2143410879655784,-0.2522466429400905,-0.2636543414355277,-143.42720670361226,15.089441590206313,-10.499813733449363,-0.2701,-0.9495,0.1313,-0.0915
875708.0,821.109876,1.0,2.12,4.92,-8.65,-12.5,-31.06,21.75,3.19,-22.25,-11.69,-0.1871821003775786,-0.12947957946520905,-0.3654440764328246,-143.94200484154302,14.881400387429185,-9.591048446078224,-0.2684,-0.9509,0.1295,-0.0836
875743.0,821.112804,1.0,1.81,4.72,-8.57,-12.5,-31.06,21.75,9.38,-41.63,-21.87,-0.22164306404116446,-0.2394268550428351,-0.1378434075721895,-144.57683474921032,14.638747929971785,-8.453062112264227,-0.2661,-0.9526,0.1274,-0.0737
875776.0,821.157323,1.0,1.5,3.73,-8.15,-11.0,-31.87,21.75,12.38,-46.38,-19.37,0.06894125306637466,-0.7695825785855375,0.7519059529071601,-145.7248595525418,14.211377245158012,-6.6729995322127,-0.2612,-0.9556,0.1237,-0.0582
875812.0,821.176598,1.0,1.19,4.8,-6.78,-9.5,-31.87,22.19,-2.69,-31.06,-9.69,-0.2995300924357014,0.7759044813952949,1.4560360130241836,-145.95896619488119,14.038175786909196,-5.628708719478254,-0.2615,-0.9562,0.1222,-0.0491
875849.0,821.2215259999997,1.0,1.39,3.24,-7.2,-9.5,-31.87,22.19,11.69,8.38,5.0,0.27072089899137664,-0.6565380809568673,1.8213279687289523,-146.19464572787078,14.061267443693245,-5.697547703194251,-0.2589,-0.9568,0.1224,-0.0497
875882.0,821.228435,1.0,1.36,4.6,-4.21,-9.19,-30.75,23.37,-21.25,74.37,40.25,-0.19939418759206973,1.9046466520492158,3.718443113831281,-145.06982302382067,14.61564163128423,-7.35035834348681,-0.264,-0.9539,0.1272,-0.0641
875919.0,821.289963,1.0,3.55,4.32,-8.77,-10.56,-31.06,23.37,21.19,186.94,50.25,0.6019762544685253,-0.5002244316941702,-0.5647144284150141,-142.73954322436268,14.765843296845908,-13.818833482803015,-0.2665,-0.9476,0.1285,-0.1203
875954.0,821.307812,1.0,4.51,5.66,-11.3,-13.56,-30.75,21.37,-1.19,78.87,23.69,-0.15782938948163133,-0.7828233768472477,-3.5884228794014934,-140.8145368825897,14.93918463283386,-17.532071555357696,-0.2687,-0.9421,0.13,-0.1524
875988.0,821.354854,1.0,3.2,2.6,-7.14,-13.56,-30.75,21.37,15.06,-3.94,7.19,0.4522472541640974,-1.2079835433192696,1.6631956850197245,-140.71214769326966,15.170359975770204,-18.100426311736804,-0.2662,-0.9418,0.132,-0.1573
876023.0,821.452,1.0,3.42,4.9,-5.73,-16.25,-30.0,20.06,-22.0,80.25,30.06,-0.021872745864692927,1.3653834068758268,1.6412014676034763,-139.14021367291954,15.760140597334962,-19.61052428537218,-0.2719,-0.9371,0.1371,-0.1703
876060.0,821.505211,1.0,4.67,3.08,-8.04,-17.06,-30.37,19.25,15.56,161.94,53.31,0.20181236875310196,-1.3920055517074252,0.11343111709872035,-135.85222545366122,15.817984589415364,-25.46505599443148,-0.2715,-0.9267,0.1376,-0.2204
876095.0,821.5220860000003,1.0,6.02,6.34,-10.45,-17.06,-30.37,19.25,-15.75,30.12,18.25,-1.2677819118092155,-0.14549075266997002,-3.7583808317001988,-133.61881240543406,16.24615724549883,-28.068278987313843,-0.2762,-0.9192,0.1413,-0.2425
876130.0,821.5249200000003,1.0,4.75,1.4,-6.78,-21.19,-29.56,17.75,-31.25,0.69,42.44,0.9665419866371566,-2.099779249537751,1.7352422113129364,-133.3865649159552,17.416134643761747,-27.90294467602473,-0.2747,-0.9184,0.1514,-0.2411
876165.0,821.533221,1.0,5.18,5.92,-5.84,-22.25,-29.56,17.25,-26.94,46.31,27.06,-0.4315071400939976,1.900326459358504,0.20524588727201376,-131.23228149999522,18.564721836939235,-28.87218733809866,-0.2867,-0.9108,0.1613,-0.2493
876201.0,821.5699599999997,1.0,5.03,3.23,-5.92,-23.5,-29.56,16.56,-2.31,78.12,33.81,0.18779033392402456,-0.3381974694577057,1.4024512123619337,-129.48518799624307,18.773754707559725,-31.66190266420909,-0.2847,-0.9044,0.1631,-0.2728
876236.0,821.58735,1.0,6.63,4.71,-9.45,-23.5,-29.56,16.56,-15.38,10.81,16.44,-0.8912618771426635,-1.2372659317908503,-2.5674489684252126,-128.0800345447506,19.215254308568724,-32.914516343671416,-0.2889,-0.8991,0.1669,-0.2833
876273.0,821.633716,1.0,5.46,3.65,-5.91,-23.69,-29.25,14.56,-52.69,-44.81,29.06,0.2730032274368435,-0.0042686841947703336,0.9755882848864452,-128.0800345447506,20.623036118505983,-31.578534757977327,-0.2925,-0.8991,0.179,-0.2721
876308.0,821.651733,1.0,5.47,5.25,-5.73,-23.69,-28.87,14.88,-41.75,-9.63,24.87,-0.42571226481597146,1.2196269553593289,0.3913656624270683,-127.09397976921673,21.893896745024186,-31.019220197898694,-0.3015,-0.8953,0.1899,-0.2674
876343.0,821.697617,1.0,5.99,5.08,-8.33,-23.69,-28.87,14.88,-23.0,-51.69,0.06,-0.7160308048006941,-0.4730277840417885,-1.6099582792614466,-127.09397976921673,22.816676842803346,-29.89098396291072,-0.3046,-0.8953,0.1978,-0.2579
876378.0,821.75885,1.0,6.01,3.23,-7.42,-25.56,-28.87,14.06,-21.0,-103.62,-2.31,1.1052867682241063,-1.0198787904423083,-0.16067604126074994,-128.5268474503853,24.068925773800892,-26.31162955164407,-0.3055,-0.9008,0.2085,-0.2276
876414.0,821.77681,1.0,5.07,5.32,-6.58,-24.5,-27.37,14.5,-50.25,-84.81,10.13,-0.1725200170702198,0.8458389506437425,-0.019768132426685625,-128.57965137649458,25.58255007875368,-23.62387580431868,-0.3118,-0.9009999999999999,0.2214,-0.2047
876449.0,821.8222450000003,1.0,4.75,5.07,-7.11,-24.5,-27.37,14.5,-25.12,-76.19,-3.44,0.0032511927564590204,0.3222139317602779,-0.12892585708675774,-128.97730409708814,26.841478236677798,-20.49492914898236,-0.3161,-0.9025,0.2321,-0.1779
876484.0,821.827058,1.0,4.75,9.29,-7.44,-24.06,-28.5,15.69,-8.63,-79.5,-63.31,-1.785394768825599,3.0966953586981827,-2.4995697028521846,-129.9436888935972,26.65302123047702,-17.868391355752113,-0.3188,-0.9061,0.2305,-0.1553
876519.0,821.885235,1.0,4.11,3.22,-7.12,-23.0,-28.87,15.69,101.87,-109.0,-118.0,1.4985208368613778,-0.545025044803116,1.122625414473445,-135.7608376875957,23.57704958135869,-13.611082444309169,-0.2932,-0.9264,0.2043,-0.1185
876556.0,821.940696,1.0,2.12,2.98,-5.22,-18.5,-30.5,19.69,-36.75,-25.0,-2.38,0.20802196182199167,-0.10434507403703952,3.4372670652940047,-137.1510918031107,23.003749734381753,-11.950632395319571,-0.2878,-0.9309,0.1994,-0.1041
876589.0,821.944929,1.0,3.13,6.45,-7.74,-18.5,-30.5,19.69,10.25,32.81,-1.44,-0.6653177655259727,1.2346405131481508,-0.6499275985342763,-136.55893204947213,22.769918267605057,-12.676748644427741,-0.293,-0.929,0.1974,-0.1104
876625.0,822.000884,1.0,3.47,6.46,-9.74,-15.88,-30.5,19.37,17.25,-31.19,-51.06,-0.4131737410870907,0.3235911083181273,-2.3738539409005384,-137.81479293008655,21.672178876755066,-12.296340166976414,-0.2874,-0.9329999999999999,0.188,-0.1071
876662.0,822.06888,1.0,2.91,4.74,-5.77,-17.0,-30.87,19.0,72.87,-49.88,-84.25,0.5746257478348245,1.4421122677306657,1.9441620059114888,-141.53859212209682,19.180388694494322,-9.890066196362193,-0.271,-0.9442,0.1666,-0.0862
876697.0,822.087534,1.0,1.68,1.27,-6.89,-17.0,-30.87,19.0,21.0,16.75,-9.19,0.5969011084548055,-2.1083379869512298,2.943267452050057,-143.3907030739344,17.996001378555594,-9.671546700479858,-0.2591,-0.9494,0.1564,-0.0843
876730.0,822.09056,1.0,2.33,5.47,-8.21,-14.69,-31.19,21.06,-37.13,48.88,26.12,-0.5996853596649511,0.5167247470166512,-0.2991539267157837,-141.53859212209682,18.460228812044047,-11.31711591010567,-0.2705,-0.9442,0.1604,-0.0986
876767.0,822.129619,1.0,2.96,4.19,-10.2,-14.38,-30.5,21.87,1.69,-5.38,8.19,0.14686268021286653,-1.4441899112942869,-1.5181213819430577,-141.19218403998903,18.83183055191492,-11.754779974813852,-0.2705,-0.9432,0.1636,-0.1024
876802.0,822.190195,1.0,2.5,5.54,-6.87,-14.38,-30.0,21.87,-1.75,-13.31,-4.0,-0.30235833637579146,1.2929260979787085,0.730559346993628,-140.91718374591224,19.215254308568724,-10.799043117568633,-0.27399999999999997,-0.9424,0.1669,-0.0941
876836.0,822.201281,1.0,2.46,3.74,-8.19,-14.38,-30.0,21.87,-7.69,14.31,9.56,0.1574532702920189,-0.8402861388385656,0.5123276646949595,-141.02009032147248,19.261744588057013,-11.063807546045703,-0.272,-0.9427,0.1673,-0.0964
876873.0,822.210409,1.0,2.98,5.79,-9.23,-14.38,-31.19,21.06,-7.94,-3.5,0.0,-0.2815429297273535,0.2282822036634613,-1.4834350667393623,-140.23768007093892,19.54075377357945,-11.443790822449785,-0.2772,-0.9404,0.1697,-0.0997
876908.0,822.249679,1.0,2.37,3.55,-7.23,-14.69,-30.06,21.5,9.31,-18.75,-1.81,0.2431002057887192,-0.519544898029126,1.4302978471307473,-140.71214769326966,19.54075377357945,-10.948685380949463,-0.27399999999999997,-0.9418,0.1697,-0.0954
876943.0,822.307449,1.0,2.67,4.99,-7.56,-14.69,-30.06,21.5,-9.63,18.31,10.19,-0.09318293171125563,0.44425347180332775,0.3739114902124836,-140.1367137765361,19.83151281371854,-11.224997424028942,-0.2776,-0.9401,0.1722,-0.0978
876978.0,822.371185,1.0,2.83,4.5,-8.79,-15.5,-30.5,19.75,-2.0,7.06,8.81,0.05686746738428072,-0.6128470454980477,-0.4473338399510656,-139.73527758064992,20.157316215575328,-11.593515641253695,-0.2786,-0.9389,0.175,-0.10099999999999999
877015.0,822.390413,1.0,2.72,5.16,-7.74,-15.06,-29.69,22.25,-8.94,-3.25,3.56,-0.1998867188795454,0.41363970585440857,0.12571267485651738,-139.30467314730421,20.506574164810864,-11.501374957383893,-0.2812,-0.9376,0.17800000000000002,-0.1002
877047.0,822.394182,1.0,2.78,4.84,-7.98,-15.06,-29.69,22.25,8.63,0.75,-9.5,-0.02886027479311548,0.05067112807371021,0.06852905593082781,-139.43670037409964,20.366848065448238,-11.466824127666605,-0.281,-0.938,0.1768,-0.0999
877082.0,822.436125,1.0,2.67,4.24,-7.91,-15.5,-31.19,19.75,9.0,4.75,-2.06,0.10731349552169622,-0.3608409254264451,0.4507493143248738,-139.8686617976523,20.05257586733213,-11.512892133606984,-0.2783,-0.9393,0.1741,-0.1003
877117.0,822.495929,1.0,2.77,4.8,-8.15,-15.88,-30.87,20.19,-19.69,-6.75,10.25,-0.04272944289642228,-0.05445532478296977,-0.0488362291168869,-139.5359915492729,20.401776712875193,-11.466824127666605,-0.2798,-0.9383,0.1771,-0.0999
877154.0,822.518101,1.0,2.77,5.54,-7.85,-14.69,-30.06,19.75,1.63,4.38,-1.56,-0.29919445746479423,0.6393725407501907,-0.1677515073966731,-139.14021367291954,20.65797889865216,-11.38620958683243,-0.2825,-0.9371,0.1793,-0.0992
877187.0,822.567776,1.0,2.56,3.91,-7.99,-14.69,-30.06,19.75,11.88,-3.94,-5.63,0.1385384247969937,-0.7217894968099972,0.5794279355241745,-139.5028685781741,20.436707276203283,-11.37469368630907,-0.2802,-0.9382,0.1774,-0.0991
877223.0,822.578863,1.0,2.88,4.85,-9.0,-15.5,-30.5,19.0,-0.69,2.38,2.44,-0.027392260799920687,-0.4900900654301852,-0.8035319678936191,-139.30467314730421,20.57644875978384,-11.397725602729444,-0.2813,-0.9376,0.1786,-0.0993
877260.0,822.595117,1.0,2.56,4.37,-7.91,-15.38,-30.87,20.56,-5.06,-7.38,1.06,-0.017993769428035544,-0.3332173864389185,0.4201041817750326,-139.30467314730421,20.65797889865216,-11.236511835589647,-0.2813,-0.9376,0.1793,-0.0979
877293.0,822.64203,1.0,2.64,4.77,-8.01,-15.38,-30.87,20.56,9.19,4.88,-2.63,-0.1146421056578979,-0.05835118298505604,0.11820057157985707,-139.33764146351638,20.57644875978384,-11.294085603048902,-0.2813,-0.9377,0.1786,-0.0984
877328.0,822.710026,1.0,2.71,4.06,-8.33,-14.38,-30.06,21.0,4.19,0.56,1.0,0.18177524523193286,-0.7595737449019904,0.18341740973822065,-139.40365501423122,20.54151049721856,-11.397725602729444,-0.2805,-0.9379,0.1783,-0.0993
877365.0,822.731909,1.0,2.88,5.31,-7.95,-15.06,-30.87,20.56,-3.56,-5.13,2.81,-0.10582395484489704,0.4390425591371798,-0.16776942780868254,-139.14021367291954,20.727870288694774,-11.294085603048902,-0.2825,-0.9371,0.1799,-0.0984
877398.0,822.7856469999997,1.0,2.73,4.69,-7.48,-15.06,-30.87,20.56,0.81,-0.5,0.81,0.048315457731459344,0.1939898382579468,0.5676330848083815,-139.2059212883253,20.762818905741057,-11.213483126166134,-0.282,-0.9373,0.1802,-0.0977
877432.0,822.8029889999997,1.0,2.85,5.11,-8.66,-15.88,-30.5,20.56,3.94,5.31,-0.69,-0.14508462862700788,-0.12391841668024872,-0.6429334690452428,-139.04184146178912,20.856024774540764,-11.432274343860266,-0.2822,-0.9368,0.18100000000000002,-0.0996
877467.0,822.861811,1.0,2.48,4.05,-7.63,-15.06,-30.06,21.06,-2.0,-2.56,1.56,0.03428684583634595,-0.4603631377332116,0.8313121125653993,-139.1073977684417,20.84437327920369,-11.351662230904264,-0.2819,-0.937,0.1809,-0.0989
877504.0,822.8694019999997,1.0,2.72,5.3,-8.04,-15.06,-30.06,20.19,-6.19,-1.5,3.63,-0.28396519053738434,0.2882764739708068,-0.191662879937196,-138.68306126823978,21.100756747738608,-11.37469368630907,-0.2847,-0.9357,0.1831,-0.0991
877539.0,822.932105,1.0,2.79,4.7,-8.29,-15.06,-30.06,20.19,1.81,2.5,-0.94,-0.009699907262008093,-0.2858327531979743,-0.1188930858466577,-138.74807199122864,21.08910064572278,-11.420757981123572,-0.2841,-0.9359,0.183,-0.0995
877576.0,823.001071,1.0,2.88,4.96,-8.3,-15.06,-31.19,19.37,2.56,-3.75,-3.19,-0.016082567662469738,-0.07337726488863172,-0.2819751356671407,-138.74807199122864,21.03082344341432,-11.351662230904264,-0.2846,-0.9359,0.1825,-0.0989
877611.0,823.02043,1.0,2.72,4.4,-8.04,-15.06,-31.56,19.75,5.13,-0.81,-3.56,0.10194234456063966,-0.3805333694697723,0.2544354864379485,-138.94369485234358,20.914285524438075,-11.236511835589647,-0.2836,-0.9365,0.1815,-0.0979
877643.0,823.0242,1.0,2.59,4.61,-7.75,-15.06,-31.56,19.75,-6.31,0.94,2.69,-0.07914082068982814,-0.1148563660553239,0.4256455364216425,-138.81318085103794,20.92593832998922,-11.271055753655435,-0.2848,-0.9361,0.1816,-0.0982
877678.0,823.06512,1.0,2.71,4.93,-8.01,-15.5,-30.5,20.56,-6.38,6.06,4.81,-0.15215962784821013,-0.020249680074920118,0.01964139685113153,-138.48861330559185,21.08910064572278,-11.466824127666605,-0.2864,-0.9351,0.183,-0.0999
877715.0,823.072578,1.0,2.79,4.65,-7.84,-15.5,-30.87,21.75,-0.88,-0.37,-0.25,0.03848378751140058,-0.11647892379981828,0.2747482139759114,-138.48861330559185,21.112413070583106,-11.512892133606984,-0.2864,-0.9351,0.1832,-0.1003
877750.0,823.132646,1.0,2.89,4.81,-8.42,-15.5,-30.87,21.75,-3.88,-0.19,2.19,0.0061018510243104895,-0.292679759209189,-0.3076419339894105,-138.48861330559185,21.13572637929078,-11.570479767497385,-0.2861,-0.9351,0.1834,-0.1008
877785.0,823.159284,1.0,2.71,4.71,-7.91,-15.88,-30.87,21.87,4.06,1.19,0.94,-0.07109761559324446,-0.13970520568675848,0.21124862306109726,-138.39171512082905,21.194013524886014,-11.535926836248436,-0.2867,-0.9348,0.1839,-0.1005
877819.0,823.200773,1.0,2.82,5.25,-7.65,-16.19,-30.87,19.37,-11.38,2.75,4.63,-0.17922184319878742,0.4133804422747236,0.11983441690638764,-138.03825139668672,21.42721774773248,-11.570479767497385,-0.2888,-0.9337,0.1859,-0.1008
