TIME,ELAPSED_SECONDS,PSTATE,acc_x,acc_y,acc_z,mag_x,mag_y,mag_z,gyr_x,gyr_y,gyr_z,lin_x,lin_y,lin_z,eul_x,eul_y,eul_z,qua_w,qua_x,qua_y,qua_z
1721257.0,154.166013,1.0,2.21,7.34,-6.58,-4.88,-42.75,8.38,0.31,-0.63,-0.06,0.11035253860637373,-0.27656361890627057,-0.2912425960776872,-129.27076347961943,-2.9338644268256844,-14.315313760812993,-0.4091,-0.9036,-0.0256,-0.1246
1721292.0,154.216912,1.0,1.89,7.19,-6.08,-4.88,-43.5,9.25,0.81,-0.81,-0.63,-0.062346729367999225,0.04182210641976099,0.2030588072871531,-129.2975202216285,-2.9338644268256844,-14.280666944469896,-0.4089,-0.9037,-0.0256,-0.1243
1721329.0,154.278024,1.0,2.09,7.37,-6.28,-4.5,-43.5,8.88,-0.44,0.06,0.69,0.06725695160827505,-0.017454188274665525,-0.09883190921431506,-129.27076347961943,-2.9453273542124467,-14.315313760812993,-0.409,-0.9036,-0.0257,-0.1246
1721362.0,154.290526,1.0,2.01,7.35,-6.33,-4.5,-43.5,8.88,0.06,0.88,0.19,-0.022154455670822408,-0.05526191312228603,-0.0993055470965043,-129.27076347961943,-2.9338644268256844,-14.315313760812993,-0.409,-0.9036,-0.0256,-0.1246
1721399.0,154.327772,1.0,1.88,7.29,-6.18,-3.75,-42.75,8.38,-0.37,-0.37,-0.37,-0.10829819541008624,0.0382337319203179,0.06715772973178069,-129.2975202216285,-2.9453273542124467,-14.32686299177392,-0.4088,-0.9037,-0.0257,-0.1247
1721434.0,154.346518,1.0,2.01,7.44,-6.16,-4.88,-43.19,8.88,-0.94,0.88,-0.69,0.012736485274961074,0.13002136267976067,-0.058553101162681635,-129.27076347961943,-2.9797163137078666,-14.349961892702815,-0.4089,-0.9036,-0.026000000000000002,-0.1249
1721468.0,154.366857,1.0,1.99,7.55,-6.14,-4.88,-43.19,8.88,1.88,0.69,-3.13,-0.0014716174076414568,0.22159638462810585,-0.1237625229852366,-129.2975202216285,-3.0599582684028324,-14.349961892702815,-0.4088,-0.9037,-0.0267,-0.1249
1721503.0,154.409708,1.0,1.57,8.28,-5.37,-4.19,-43.5,7.56,2.56,4.06,-7.75,-0.2309264190157649,1.3471054852033748,-0.09244994902241466,-129.3510733053071,-3.4153340784378665,-14.407711711634985,-0.4078,-0.9039,-0.0298,-0.1254
1721540.0,154.44413500000005,1.0,1.46,7.85,-5.61,-3.88,-43.5,8.88,6.44,18.06,-14.88,-0.3708952752581752,0.9130083964847432,0.09814587409370644,-129.3510733053071,-3.919795697049856,-14.661854827129085,-0.4069,-0.9039,-0.0342,-0.1276
1721575.0,154.486028,1.0,2.44,7.74,-6.62,-3.88,-43.5,8.88,12.63,16.56,-14.13,0.32087310078536313,-0.031930059409554505,-0.6614740403664712,-129.43150224575868,-4.642227799866185,-14.985414779298193,-0.4047,-0.9042,-0.0405,-0.1304
1721610.0,154.582186,1.0,2.05,6.72,-6.23,-4.25,-43.19,10.06,20.75,16.87,-18.62,0.11463673339928138,-0.2891896433440005,0.421713784471514,-129.83545382657294,-5.663127955663872,-15.239724647140953,-0.3997,-0.9057,-0.0494,-0.1326
1721645.0,154.587008,1.0,2.41,6.76,-6.81,-3.0,-42.75,10.06,17.12,21.75,-12.56,0.2785919270955439,-0.6650835709867647,-0.06056087145504741,-130.16081866157813,-6.523783187455053,-15.713868313956251,-0.3946,-0.9069,-0.0569,-0.1367
1721681.0,154.59508,1.0,2.22,7.22,-6.72,-2.25,-42.38,9.69,8.0,16.0,-8.81,0.10719570362564323,-0.20653635683425464,-0.3008250464411137,-130.26971625278716,-6.982946893042854,-16.014684599323402,-0.392,-0.9073,-0.0609,-0.1393
1721714.0,154.637202,1.0,1.68,6.67,-5.74,-2.25,-42.38,9.69,13.63,23.44,-14.0,-0.13208903584870044,0.2548344747147279,0.8525162129100714,-130.29697555501406,-7.786758050274272,-16.5471716366683,-0.389,-0.9074,-0.0679,-0.1439
1721751.0,154.709472,1.0,2.39,6.95,-6.93,-3.0,-43.5,10.06,8.94,25.12,-4.13,0.09679279924133777,-0.5108519902527897,-0.2814202514440165,-130.18802216268048,-8.269226458088282,-17.195903895593172,-0.3871,-0.907,-0.0721,-0.1495
1721788.0,154.726326,1.0,2.29,6.88,-6.55,-2.25,-43.19,11.38,4.94,18.62,-3.0,0.05905154040746052,-0.2527626821991593,0.03866024048125993,-130.052143359472,-8.717364176475899,-17.81039419409229,-0.3853,-0.9065,-0.076,-0.1548
1721821.0,154.729302,1.0,2.11,6.82,-6.06,-2.25,-43.19,11.38,-8.56,27.81,-3.88,-0.01850446127934591,0.05662543253865966,0.44264705546273575,-129.64656611878056,-9.085166406176855,-18.437010245615284,-0.3861,-0.905,-0.0792,-0.1602
1721856.0,154.784596,1.0,2.71,7.23,-6.82,-2.25,-42.75,11.38,-16.25,60.38,-5.38,0.035873625214889016,-0.4451008163498068,-0.4855799987076974,-128.31613447366578,-9.91307033213892,-20.14567756040377,-0.3898,-0.9,-0.0864,-0.1749
1721890.0,154.801611,1.0,2.84,7.33,-5.32,-2.25,-42.75,12.06,-9.81,38.19,-0.12,0.5931622137937629,0.5190905350090961,0.3474955132294575,-127.40350962041992,-10.545844298925708,-21.33392533931821,-0.3918,-0.8965,-0.0919,-0.1851
1721927.0,154.849593,1.0,2.49,7.02,-6.03,-3.38,-42.5,10.5,-9.94,43.56,-0.5,-0.25227998356332404,-0.07418330597420689,0.2268665135631611,-126.42902677997118,-11.213483126166134,-23.10900551875196,-0.3917,-0.8927,-0.0977,-0.2003
1721962.0,154.901272,1.0,3.57,7.0,-6.77,-3.38,-42.5,10.5,-10.13,30.5,6.81,0.21712186362361696,-0.9540013346066516,-0.5190722289729129,-125.77163105081793,-11.466824127666605,-24.232984111333426,-0.392,-0.8901,-0.0999,-0.2099
1721999.0,154.91416999999996,1.0,2.92,7.65,-5.37,-2.25,-43.56,9.56,-7.25,7.94,6.63,0.20138736534966628,0.5662496134333737,0.0329810622691884,-125.27091255577452,-11.37469368630907,-24.61989330860375,-0.395,-0.8881,-0.0991,-0.2132
1722034.0,154.973237,1.0,2.89,7.14,-5.71,-3.75,-43.25,8.75,-7.94,3.31,7.88,-0.045818218580366166,-0.009275317424962263,0.2184481529729609,-124.99731160468365,-11.248026360967863,-24.93666734562011,-0.3963,-0.887,-0.098,-0.2159
1722066.0,154.99013200000005,1.0,2.88,7.22,-5.71,-3.75,-43.25,8.75,-12.81,25.06,13.31,-0.17742005817376238,0.034798037289225016,0.1632993779621188,-124.60157138168795,-10.925662281710133,-25.570799441600013,-0.3976,-0.8854,-0.0952,-0.2213
1722101.0,155.041987,1.0,3.22,7.46,-5.57,-3.75,-42.88,8.25,-9.38,8.13,8.0,0.09094777306423674,0.13903072534634556,-0.04308598427817323,-124.18392994389635,-10.776022876638457,-26.076325639174165,-0.3994,-0.8837,-0.0939,-0.2256
1722138.0,155.064726,1.0,3.13,6.96,-5.47,-4.88,-43.56,7.88,-11.44,3.63,11.19,-0.015570781096291952,-0.1060769630840881,0.417938414874012,-123.8908464883956,-10.442277914805905,-26.452866060028953,-0.4006,-0.8825,-0.091,-0.2288
1722173.0,155.108852,1.0,3.45,7.05,-5.83,-4.88,-43.56,7.88,-11.25,-2.56,15.31,0.02930564672276903,-0.4087892163606873,0.03803021235049897,-123.7205290097115,-10.005090889774307,-26.65302123047702,-0.4022,-0.8818,-0.0872,-0.2305
1722208.0,155.11416499999999,1.0,3.6,8.03,-6.11,-4.5,-42.06,7.06,-24.37,7.56,9.5,-0.1318314842638746,-0.0748530952157774,-0.90549345842574,-123.11607559607694,-9.372576979838527,-27.03000922772236,-0.4068,-0.8793,-0.0817,-0.2337
1722243.0,155.184373,1.0,2.85,8.08,-4.92,-6.06,-44.0,6.69,-21.31,0.81,7.69,-0.2930960704434617,0.9404131019718648,-0.02416979751079751,-122.63671936413529,-9.016196458354324,-27.183245547895737,-0.41100000000000003,-0.8773,-0.0786,-0.235
1722279.0,155.188803,1.0,3.41,7.01,-5.47,-6.06,-43.56,7.5,-3.81,-6.25,15.94,-0.057812224965908765,-0.29511711983294364,0.2883169719836971,-122.63671936413529,-8.556479215940191,-27.348324709600163,-0.4109,-0.8773,-0.0746,-0.2364
1722312.0,155.239618,1.0,3.47,7.45,-5.41,-6.06,-43.56,7.5,-11.06,-14.0,12.44,-0.03623078900970467,0.005818539110268557,-0.03256508427020677,-122.58898532309729,-7.982025743589274,-27.265777919115557,-0.4125,-0.8771,-0.0696,-0.2357
1722349.0,155.306063,1.0,3.27,7.15,-5.19,-7.25,-43.56,6.69,-4.13,-4.63,9.0,-0.1081787496587896,0.01219618827137231,0.3864775699903493,-122.5651319143896,-7.396290017779932,-27.112514953816074,-0.4145,-0.877,-0.0645,-0.2344
1722384.0,155.313178,1.0,3.31,7.48,-5.07,-7.19,-42.88,5.75,-11.0,-0.37,12.63,-0.0953294354470886,0.28478768593864073,0.1878554667606576,-122.39841108220119,-6.994427393261249,-27.23040514019141,-0.4159,-0.8763,-0.061,-0.2354
1722419.0,155.330046,1.0,3.6,7.72,-5.22,-7.19,-42.88,5.75,-14.13,1.06,11.75,-0.02517758231756262,0.21070204254810868,-0.1814314343203413,-121.99534211175566,-6.512305468988996,-27.548855827733,-0.4185,-0.8746,-0.0568,-0.2381
1722454.0,155.38342600000001,1.0,3.5,7.61,-5.56,-8.0,-43.25,6.69,-10.44,18.87,11.81,-0.3975225805587055,-0.1041450155202621,-0.2385891516423441,-121.43061785942284,-6.259812004164343,-28.257305549296962,-0.4203,-0.8722,-0.0546,-0.2441
1722490.0,155.399294,1.0,3.96,7.26,-5.22,-7.88,-44.0,5.0,-11.69,7.31,12.13,0.1142104794047134,-0.2446681380638962,0.030930411723623763,-121.08017234591215,-6.053249123067683,-28.71838798339577,-0.4214,-0.8707,-0.0528,-0.248
1722525.0,155.45945,1.0,3.63,7.87,-5.16,-7.88,-44.0,5.0,-22.37,11.56,9.19,-0.3116770631815382,0.2247538882435577,-0.27262294491055705,-120.52337099749846,-5.743441500733661,-29.09706672256259,-0.4247,-0.8683,-0.0501,-0.2512
1722558.0,155.478127,1.0,3.25,8.03,-4.59,-8.69,-43.56,5.06,-10.44,30.5,2.63,-0.5223820047265049,0.7483408651043224,0.045574086415840036,-119.60574054309872,-5.754915093896803,-29.89098396291072,-0.429,-0.8643,-0.0502,-0.2579
1722593.0,155.52936599999995,1.0,4.67,7.83,-5.48,-8.69,-42.5,4.25,-9.38,42.25,3.19,0.11880625023135227,-0.5118662520979621,-0.8174771648483752,-118.79053985855312,-6.145052377433653,-31.04300528938303,-0.4299,-0.8607,-0.0536,-0.2676
1722630.0,155.545163,1.0,3.96,7.53,-4.6,-9.75,-42.5,3.25,2.81,12.81,3.75,-0.10027472849410103,0.12424974867625382,0.13623082714201296,-118.25247900079262,-6.282764679968377,-31.757201337874307,-0.4306,-0.8583,-0.0548,-0.2736
1722664.0,155.588862,1.0,3.59,7.46,-3.87,-9.75,-42.5,3.25,-1.44,26.25,0.37,-0.11820578061968012,0.7005574126551395,0.6955662716501152,-117.74077335444635,-6.615607303690656,-32.61591400140699,-0.4303,-0.856,-0.0577,-0.2808
1722699.0,155.655074,1.0,5.08,7.55,-5.12,-9.06,-42.88,3.25,-5.19,75.87,1.44,0.2026640299860869,-0.706623815457238,-0.6088629530128493,-116.55397754456402,-7.407773121999347,-34.375043949019776,-0.4301,-0.8506,-0.0646,-0.2955
1722736.0,155.670357,1.0,4.56,7.73,-4.36,-11.38,-43.25,3.25,-5.56,40.81,3.63,-0.0182974276850496,0.06235959488807041,-0.17091866601606046,-115.5369840524082,-7.740816022621952,-35.73297808318577,-0.431,-0.8459,-0.0675,-0.3068
1722769.0,155.675628,1.0,3.84,7.57,-3.5,-11.38,-43.25,3.25,1.06,45.75,-1.69,-0.22506343407224216,0.7649013453222436,0.6598050585697681,-114.44938861164486,-8.395611151395807,-37.14447095017847,-0.4315,-0.8408,-0.0732,-0.3185
1722804.0,155.717625,1.0,4.06,7.55,-3.55,-9.0,-43.25,3.38,-5.25,71.19,-1.25,-0.3111383559924161,0.5536569040258714,0.5500168671565664,-112.79560178360883,-9.648546712798435,-39.449267117403366,-0.4304,-0.8329,-0.0841,-0.3375
1722841.0,155.780176,1.0,5.2,8.19,-3.9,-9.0,-43.56,0.88,-14.56,80.06,-3.13,-0.0426574241905926,0.09007853438165392,-0.6487871597654937,-111.01493444523935,-10.68394626499923,-41.55011839728967,-0.4316,-0.8242,-0.0931,-0.3547
1722875.0,155.796559,1.0,4.53,7.76,-2.99,-9.0,-43.56,0.88,-2.5,82.56,-2.44,-0.15426867270177258,0.6046403702064791,0.3573531373049015,-108.8195376256316,-12.06585603312212,-44.28358642561688,-0.4308,-0.8132,-0.1051,-0.3769
1722910.0,155.848677,1.0,6.4,8.6,-4.28,-8.38,-44.0,-0.5,3.44,53.38,-6.13,-0.14592464342821376,-0.6997380481884853,-1.7140909771402182,-107.4332446849696,-13.126503557539667,-46.045923884135675,-0.4292,-0.8061,-0.1143,-0.3911
1722945.0,155.86330800000005,1.0,4.54,7.8,-2.78,-8.38,-44.0,0.37,23.44,7.44,-7.88,-0.13015696390406806,0.7167691585912231,0.3912742168440406,-107.452610813999,-14.026630173419028,-46.407242416234105,-0.4241,-0.8062,-0.1221,-0.39399999999999996
1722982.0,155.911183,1.0,4.06,8.22,-2.54,-8.0,-43.56,-0.56,20.87,28.87,-13.88,-0.2967177932746534,1.3763263894812172,0.3980749633235199,-107.25914966329704,-14.881400387429185,-46.85645674888645,-0.4204,-0.8052,-0.1295,-0.3976
1723015.0,155.928466,1.0,5.65,7.94,-3.7,-8.0,-43.56,-0.56,34.19,45.19,-15.19,-0.1028713337528755,-0.29422586688824715,-0.612512568457495,-106.912032231107,-16.489275388774946,-47.78225428161778,-0.4122,-0.8034,-0.1434,-0.405
1723052.0,155.985757,1.0,5.86,7.72,-3.66,-8.38,-44.0,1.88,35.69,21.06,-6.44,0.1234360501538121,-0.4691407885629287,-0.542179424723793,-106.98904660999506,-17.636430239406273,-48.2212838398401,-0.4044,-0.8038,-0.1533,-0.4085
1723088.0,155.992133,1.0,5.02,7.45,-3.48,-7.5,-44.5,1.56,37.63,16.87,-12.56,-0.12755950685908024,0.024341411344977137,0.1735593190241591,-107.35582470459705,-18.86667840059343,-48.37198133089157,-0.3951,-0.8057,-0.1639,-0.4097
1723123.0,156.036048,1.0,5.49,7.53,-3.76,-7.5,-44.5,1.56,26.12,22.5,-13.81,-0.001058282416718459,-0.2948390010237133,-0.2378344986447001,-107.5107359806462,-19.796614956633128,-48.522767881927,-0.3888,-0.8065,-0.1719,-0.4109
1723156.0,156.092307,1.0,5.9,8.17,-4.02,-7.19,-43.38,3.5,32.88,-5.06,-12.88,0.17619739985080465,-0.20595167093776728,-1.0398166313746504,-107.99668693087187,-20.890980569305803,-48.233838572704705,-0.3817,-0.809,-0.1813,-0.4086
1723193.0,156.167838,1.0,4.76,6.58,-3.75,-6.75,-43.69,4.38,38.44,-20.62,-4.38,-0.07913237547746999,-0.3056590923640323,0.8670297291827609,-109.11541872598387,-21.42721774773248,-47.481635948605785,-0.3735,-0.8147,-0.1859,-0.4026
1723228.0,156.20967199999996,1.0,5.45,6.96,-4.52,-6.75,-43.69,4.38,17.44,-11.94,-1.88,-0.10385451573114013,-0.766896845862478,-0.09161163866001587,-110.02956467321043,-21.660511797125544,-46.69415285279771,-0.3694,-0.8193,-0.1879,-0.3963
1723262.0,156.22143400000004,1.0,5.17,7.3,-4.36,-6.0,-43.38,4.38,24.87,-40.5,-6.13,0.022858455281402186,-0.2781978074719943,-0.14074078708280344,-110.91382347990452,-21.625511921173292,-45.709958605695505,-0.3682,-0.8237,-0.1876,-0.3884
1723297.0,156.228834,1.0,4.4,7.63,-3.98,-5.25,-43.0,6.5,11.44,-36.19,-12.06,0.09374977589259537,0.5748463793243731,0.15895272968218774,-112.15639729539848,-21.672178876755066,-44.098074864095786,-0.3676,-0.8298,-0.188,-0.3754
1723334.0,156.243562,1.0,4.61,7.46,-4.4,-4.5,-43.38,7.75,9.94,-10.38,-7.94,0.0226046940721476,0.15745093037344216,-0.003467136524440307,-112.60947570576613,-22.09234622296079,-43.591628016640854,-0.3651,-0.8320000000000001,-0.1916,-0.3713
1723367.0,156.288659,1.0,4.62,7.18,-4.72,-4.5,-43.38,7.75,14.31,-14.25,-6.38,-0.10154648107612196,-0.1576604519668765,0.052674836300502285,-113.19003713661378,-22.314222150985408,-42.96290285030923,-0.3628,-0.8348,-0.1935,-0.3662
1723404.0,156.340075,1.0,4.67,6.97,-4.97,-4.88,-43.38,7.69,-7.94,-6.44,6.81,-0.2384766339572595,-0.4040863205405648,0.06649891592494761,-113.52379683838042,-22.11569761985897,-42.778242722959625,-0.3615,-0.8364,-0.1918,-0.3647
1723439.0,156.368437,1.0,4.54,7.26,-4.49,-4.5,-43.69,7.69,-9.13,3.75,1.0,0.022797820825205758,0.06746495704126931,0.13844288911656655,-113.39846355737879,-21.928912393640328,-42.82747400563139,-0.3633,-0.8358,-0.1902,-0.3651
1723473.0,156.42948700000005,1.0,4.74,7.86,-4.71,-4.5,-43.69,7.69,1.0,-7.31,-3.19,0.028784147969247,0.2189725404518108,-0.5075403462828216,-113.3567321523323,-21.928912393640328,-42.72901972322527,-0.3646,-0.8356,-0.1902,-0.3643
1723506.0,156.435705,1.0,4.45,7.28,-4.8,-5.69,-43.0,6.88,11.63,-10.06,0.12,-0.18396632705900684,-0.009976293640105549,0.01854717748768131,-113.83804937327128,-21.847212431989455,-42.274097288223146,-0.3633,-0.8379,-0.1895,-0.3606
1723543.0,156.460284,1.0,4.0,6.87,-4.4,-4.88,-43.0,8.06,-5.88,2.0,2.31,-0.20687704068796364,0.1793839710725268,0.7246940828553629,-113.92207363516451,-21.765523710742034,-42.2372423793781,-0.3629,-0.8383,-0.1888,-0.3603
1723580.0,156.503582,1.0,4.64,7.23,-4.83,-3.75,-43.38,7.69,-9.31,8.0,2.13,-0.14868647843254126,-0.18384550398690414,-0.046039640996268005,-113.52379683838042,-21.71884947041321,-42.59369907468167,-0.3647,-0.8364,-0.1884,-0.3632
1723613.0,156.532204,1.0,4.49,7.78,-4.58,-3.75,-43.38,7.69,-2.69,-9.81,1.75,-0.032478636942407935,0.3838488584092592,-0.2688899454342035,-113.62840124543837,-21.50886039245491,-42.47073434166396,-0.3656,-0.8369,-0.1866,-0.3622
1723650.0,156.575997,1.0,4.1,6.98,-4.36,-4.88,-43.38,7.75,-4.38,0.06,-0.06,-0.15777105203897834,0.1854314567139977,0.6153104093853958,-113.69123402259356,-21.462206102543455,-42.384689535903355,-0.3656,-0.8372,-0.1862,-0.3615
1723684.0,156.598872,1.0,5.2,7.71,-5.2,-4.88,-43.0,7.69,-0.06,-4.38,-0.88,-0.012509360796409295,-0.37588090670115815,-0.8414792751295028,-113.64933964888505,-21.497196482057948,-42.396980116115046,-0.366,-0.8370000000000001,-0.1865,-0.3616
1723719.0,156.64591299999995,1.0,4.33,6.92,-4.56,-4.88,-43.0,7.69,0.25,-4.06,2.56,-0.11381756091244324,-0.07827041471987584,0.4573281366236248,-113.94309450479722,-21.38056975127936,-42.08986846540722,-0.3656,-0.8384,-0.1855,-0.3591
1723754.0,156.714208,1.0,4.19,7.22,-4.62,-4.19,-43.69,7.25,-5.56,3.06,2.06,-0.2570029617905596,0.15554931103984715,0.270473937790058,-113.83804937327128,-21.298944377524897,-42.138984987119,-0.3668,-0.8379,-0.1848,-0.3595
1723791.0,156.725403,1.0,4.87,7.89,-4.89,-4.5,-43.38,8.5,2.63,2.0,-0.37,-0.003692264610505092,0.05570010877854892,-0.6756199767304256,-113.54470605704357,-21.450543092817842,-42.37239946677662,-0.3674,-0.8365,-0.1861,-0.3614
1723824.0,156.737588,1.0,4.22,6.95,-4.52,-4.5,-43.38,8.5,5.19,-1.56,0.81,-0.18441047373422004,0.0029113485580246623,0.5057207829149295,-113.71219000408917,-21.462206102543455,-42.26181180963939,-0.3665,-0.8373,-0.1862,-0.3605
1723858.0,156.80226499999995,1.0,4.6,7.35,-4.86,-4.5,-43.38,6.88,-1.31,1.19,-0.31,-0.1744756381694823,-0.11879362245741065,-0.13103314683803724,-113.64933964888505,-21.450543092817842,-42.32324429701836,-0.3668,-0.8370000000000001,-0.1861,-0.361
1723893.0,156.808123,1.0,4.85,7.44,-5.08,-5.69,-43.38,6.88,-2.25,-18.37,-2.13,-0.13428863551919126,-0.3264465642013251,-0.4187057005657042,-113.79607269247896,-21.275624852029367,-42.028484200807156,-0.3682,-0.8377,-0.1846,-0.3586
1723928.0,156.907172,1.0,3.61,7.17,-3.89,-5.25,-44.06,6.88,1.25,-16.12,-0.12,-0.046237439094439337,0.7803482897775414,0.9205924576549548,-114.23801227723101,-21.03082344341432,-41.45208595969681,-0.3691,-0.8398,-0.1825,-0.3539
1723963.0,156.967019,1.0,3.93,7.54,-4.43,-5.25,-44.06,6.88,-7.19,7.81,0.81,-0.2391588474308705,0.5709466226372535,0.23908902555125344,-114.04828796434656,-21.007514103633174,-41.64818266123672,-0.3696,-0.8389,-0.1823,-0.3555
1724000.0,156.999533,1.0,4.8,7.96,-4.78,-4.5,-43.0,7.69,0.31,8.63,-0.25,0.04189552108401662,0.16591297589230913,-0.6442216215320382,-113.62840124543837,-21.15904057291141,-42.12670509670736,-0.3699,-0.8369,-0.1836,-0.3594
1724035.0,157.01356,1.0,4.45,6.82,-4.41,-4.5,-44.06,7.69,7.94,-6.88,2.81,0.06516980973369924,-0.1753379145410583,0.5477078621732563,-113.88004967231205,-21.182355652510953,-41.979385883293695,-0.3682,-0.8381,-0.1838,-0.3582
1724067.0,157.025058,1.0,4.19,7.09,-4.58,-4.5,-44.06,7.69,-7.31,0.63,2.69,-0.248471089218284,0.0649307369810036,0.3867430940259382,-113.79607269247896,-21.019168663575197,-42.053036389733045,-0.369,-0.8377,-0.1824,-0.3588
1724104.0,157.060431,1.0,4.62,7.7,-4.8,-4.88,-44.06,6.88,-2.56,6.69,-1.69,-0.12914724062289462,0.0962795864691629,-0.37413834037270455,-113.56562110150705,-21.07744476440248,-42.24952684009253,-0.3698,-0.8366,-0.1829,-0.3604
1724141.0,157.074099,1.0,4.58,7.48,-4.61,-4.88,-43.69,6.5,6.13,-1.81,1.0,-0.01865798763637283,0.07731880652161549,-0.10155738991950436,-113.62840124543837,-21.100756747738608,-42.24952684009253,-0.3692,-0.8369,-0.1831,-0.3604
1724174.0,157.081499,1.0,4.31,7.38,-4.47,-4.88,-43.69,6.5,-3.75,-2.75,0.94,-0.09896299924041108,0.2369930953017012,0.16530981320228122,-113.6702839060659,-21.019168663575197,-42.20039204818604,-0.3693,-0.8371,-0.1824,-0.36
1724207.0,157.142671,1.0,4.52,7.64,-4.73,-4.88,-42.56,6.88,-4.06,2.19,0.56,-0.15826986594788295,0.14925493377036606,-0.2494712012523994,-113.54470605704357,-21.007514103633174,-42.286383276048326,-0.37,-0.8365,-0.1823,-0.3607
1724243.0,157.181137,1.0,4.64,7.37,-4.65,-5.25,-43.69,6.5,1.88,3.5,0.06,-0.030269497827601025,-0.055409429865002635,-0.06578706247769794,-113.52379683838042,-21.07744476440248,-42.335532323855574,-0.3696,-0.8364,-0.1829,-0.3611
1724278.0,157.19538899999995,1.0,4.59,7.17,-4.63,-5.25,-43.69,6.5,4.13,-1.44,2.0,-0.052737482887084575,-0.13369879381532668,0.11679740099566514,-113.64933964888505,-20.94924459772563,-42.286383276048326,-0.3693,-0.8370000000000001,-0.1818,-0.3607
1724311.0,157.271449,1.0,4.34,7.56,-4.52,-5.69,-43.69,6.0,-3.5,2.25,0.31,-0.1375560415801531,0.3161592537247929,-0.0066431099457648895,-113.58654197734043,-20.890980569305803,-42.32324429701836,-0.3697,-0.8367,-0.1813,-0.361
1724346.0,157.30883899999995,1.0,4.71,7.42,-4.79,-4.88,-43.38,6.88,1.69,2.94,-0.81,-0.10096979938080344,-0.1162259155876464,-0.20139159844266707,-113.52379683838042,-20.9608980601766,-42.4092712076169,-0.3693,-0.8364,-0.1819,-0.3617
1724383.0,157.323091,1.0,4.55,7.38,-4.57,-6.0,-43.38,7.69,-2.5,-0.44,-0.81,-0.04674982889443147,0.050460917296245016,0.0062893867713214036,-113.52379683838042,-20.9608980601766,-42.396980116115046,-0.3696,-0.8364,-0.1819,-0.3616
1724416.0,157.326314,1.0,4.47,7.36,-4.54,-6.0,-43.38,7.69,-1.56,1.25,-0.88,-0.08583532476765265,0.08424420753887363,0.07281030486847406,-113.44021811063548,-20.984205642908503,-42.421562810614134,-0.3702,-0.836,-0.1821,-0.3618
1724452.0,157.379499,1.0,4.78,7.31,-4.88,-4.88,-43.0,7.69,2.56,0.88,-1.12,-0.13605452891819336,-0.2944774783047576,-0.1930336039912869,-113.3567321523323,-21.100756747738608,-42.49532318150223,-0.3699,-0.8356,-0.1831,-0.3624
