acc_x,acc_y,acc_z,lin_x,lin_y,lin_z,eul_x,eul_y,eul_z
1.49,0.51,-9.83,0.0240544299186758,-0.115182003269553,-0.1480099384672151,-166.53078742603913,-9.867062460142211,-8.636919564056372
1.49,0.51,-9.83,0.0240544299186758,-0.115182003269553,-0.1480099384672151,-166.53078742603913,-9.867062460142211,-8.636919564056372
1.44,0.48,-9.69,-0.0111867150268158,-0.1446496308159691,-0.0004418901431595,-166.53078742603913,-9.890066196362191,-8.648411389524659
1.44,0.48,-9.69,-0.0111867150268158,-0.1446496308159691,-0.0004418901431595,-166.53078742603913,-9.890066196362191,-8.648411389524659
1.41,0.78,-9.73,0.0018553789550636,0.1370678816402908,-0.0549223367722468,-166.53078742603913,-9.855560741569812,-8.648411389524659
1.41,0.78,-9.73,0.0018553789550636,0.1370678816402908,-0.0549223367722468,-166.53078742603913,-9.855560741569812,-8.648411389524659
1.3,0.91,-9.79,-0.0997660418511007,0.2791583823081233,-0.1066903721692362,-166.53078742603913,-9.786552516199244,-8.68288738926451
1.3,0.91,-9.79,-0.0997660418511007,0.2791583823081233,-0.1066903721692362,-166.53078742603913,-9.786552516199244,-8.68288738926451
1.27,0.76,-9.54,-0.1203172164936236,0.1364632589979014,0.1542408941674633,-166.62885834304856,-9.706047414595153,-8.705871826379285
1.27,0.76,-9.54,-0.1203172164936236,0.1364632589979014,0.1542408941674633,-166.62885834304856,-9.706047414595153,-8.705871826379285
1.7,0.86,-9.99,0.2163164621440168,0.1425787081161564,-0.3600888330869143,-166.43342218753332,-9.706047414595153,-8.866772764864926
1.7,0.86,-9.99,0.2163164621440168,0.1425787081161564,-0.3600888330869143,-166.43342218753332,-9.706047414595153,-8.866772764864926
1.78,0.78,-9.99,0.2834108707664441,0.054138498335056,-0.3665327517905865,-166.43342218753332,-9.694547078719877,-8.855279263547427
1.78,0.78,-9.99,0.2834108707664441,0.054138498335056,-0.3665327517905865,-166.43342218753332,-9.694547078719877,-8.855279263547427
1.38,0.59,-9.56,-0.0527356008391576,-0.0388573260740043,0.1297802031796209,-166.53078742603913,-9.752049739225924,-8.76333445653462
1.38,0.59,-9.56,-0.0527356008391576,-0.0388573260740043,0.1297802031796209,-166.53078742603913,-9.752049739225924,-8.76333445653462
1.18,0.47,-9.37,-0.2282015518555903,-0.1156150782019154,0.3544144334568617,-166.53078742603913,-9.752049739225924,-8.705871826379285
1.18,0.47,-9.37,-0.2282015518555903,-0.1156150782019154,0.3544144334568617,-166.53078742603913,-9.752049739225924,-8.705871826379285
1.41,0.7,-9.78,-0.0387154302551577,0.0455799290032321,-0.0990515695776022,-166.53078742603913,-9.74054901066208,-8.751841754333862
1.41,0.7,-9.78,-0.0387154302551577,0.0455799290032321,-0.0990515695776022,-166.53078742603913,-9.74054901066208,-8.751841754333862
1.39,0.59,-9.54,-0.0444483434738263,-0.0468580074295583,0.1480978998194455,-166.53078742603913,-9.729048380447908,-8.786320126014099
1.39,0.59,-9.54,-0.0444483434738263,-0.0468580074295583,0.1480978998194455,-166.53078742603913,-9.729048380447908,-8.786320126014099
1.52,0.91,-9.72,0.0924807238786729,0.2300175938289214,-0.0703657042620999,-166.62885834304856,-9.568049817899787,-8.855279263547427
1.52,0.91,-9.72,0.0924807238786729,0.2300175938289214,-0.0703657042620999,-166.62885834304856,-9.568049817899787,-8.855279263547427
1.48,0.51,-9.76,-0.0288090905481821,-0.1518646145760011,-0.0768821204082463,-166.53078742603913,-9.568049817899787,-8.92424161449454
1.48,0.51,-9.76,-0.0288090905481821,-0.1518646145760011,-0.0768821204082463,-166.53078742603913,-9.568049817899787,-8.92424161449454
1.69,0.73,-10.04,0.152834951033352,0.0028511696047442,-0.399585023189232,-166.43342218753332,-9.53355259965066,-8.993207204284674
1.69,0.73,-10.04,0.152834951033352,0.0028511696047442,-0.399585023189232,-166.43342218753332,-9.53355259965066,-8.993207204284674
1.51,0.96,-9.72,0.0693334879098667,0.2671243620217617,-0.0728205041651293,-166.43342218753332,-9.5450515760222,-8.970218312913039
1.51,0.96,-9.72,0.0693334879098667,0.2671243620217617,-0.0728205041651293,-166.43342218753332,-9.5450515760222,-8.970218312913039
1.58,0.63,-9.81,0.0701618875194943,-0.0740671880263582,-0.1492021162780243,-166.43342218753332,-9.579549083642284,-8.970218312913039
1.58,0.63,-9.81,0.0701618875194943,-0.0740671880263582,-0.1492021162780243,-166.43342218753332,-9.579549083642284,-8.970218312913039
1.48,0.68,-9.78,-0.0064272121909603,-0.0068168951045147,-0.1080417360493157,-166.53078742603913,-9.556550648732504,-8.92424161449454
1.48,0.68,-9.78,-0.0064272121909603,-0.0068168951045147,-0.1080417360493157,-166.53078742603913,-9.556550648732504,-8.92424161449454
1.48,0.78,-9.87,-0.0053090550556121,0.0820687896535078,-0.2037913752690823,-166.53078742603913,-9.53355259965066,-8.92424161449454
1.48,0.78,-9.87,-0.0053090550556121,0.0820687896535078,-0.2037913752690823,-166.53078742603913,-9.53355259965066,-8.92424161449454
1.33,0.8,-9.56,-0.0933124614430566,0.1407594197849518,0.1229534139704018,-166.53078742603913,-9.499056247386587,-8.889760035755181
1.33,0.8,-9.56,-0.0933124614430566,0.1407594197849518,0.1229534139704018,-166.53078742603913,-9.499056247386587,-8.889760035755181
1.61,0.61,-9.97,0.0798301247343196,-0.1134038871039134,-0.3099634012116272,-166.53078742603913,-9.499056247386587,-8.912747665103913
1.61,0.61,-9.97,0.0798301247343196,-0.1134038871039134,-0.3099634012116272,-166.53078742603913,-9.499056247386587,-8.912747665103913
1.29,0.9,-9.44,-0.0959430050006695,0.2413552796920411,0.240028727640766,-166.53078742603913,-9.522053719499675,-8.878266355561609
1.29,0.9,-9.44,-0.0959430050006695,0.2413552796920411,0.240028727640766,-166.53078742603913,-9.522053719499675,-8.878266355561609
1.51,0.73,-9.73,0.035289787522492,0.0293352778234857,-0.066738175918724,-166.53078742603913,-9.45306245260688,-8.935735653853007
1.51,0.73,-9.73,0.035289787522492,0.0293352778234857,-0.066738175918724,-166.53078742603913,-9.45306245260688,-8.935735653853007
1.51,0.74,-9.92,0.0111604515720437,0.0365576675421862,-0.2547931858091079,-166.62885834304856,-9.441564242690683,-8.912747665103913
1.51,0.74,-9.92,0.0111604515720437,0.0365576675421862,-0.2547931858091079,-166.62885834304856,-9.441564242690683,-8.912747665103913
1.47,0.55,-9.95,-0.063441039992132,-0.1475846606849012,-0.2650973162493137,-166.62885834304856,-9.315090195791669,-8.912747665103913
1.47,0.55,-9.95,-0.063441039992132,-0.1475846606849012,-0.2650973162493137,-166.62885834304856,-9.315090195791669,-8.912747665103913
1.66,0.82,-10.02,0.1563537125372834,0.0757906263080637,-0.3814906202279946,-166.72765058183754,-9.292096140833058,-8.889760035755181
1.66,0.82,-10.02,0.1563537125372834,0.0757906263080637,-0.3814906202279946,-166.72765058183754,-9.292096140833058,-8.889760035755181
1.46,0.57,-9.74,-9.543843388306988e-05,-0.1526882522988321,-0.0574660926107064,-166.72765058183754,-9.269102460835224,-8.68288738926451
1.46,0.57,-9.74,-9.543843388306988e-05,-0.1526882522988321,-0.0574660926107064,-166.72765058183754,-9.269102460835224,-8.68288738926451
1.32,0.9,-9.77,-0.0575579052407822,0.13934801978492,-0.0919645099668535,-166.92746455946423,-9.154139652218912,-8.464552559408572
1.32,0.9,-9.77,-0.0575579052407822,0.13934801978492,-0.0919645099668535,-166.92746455946423,-9.154139652218912,-8.464552559408572
1.37,0.87,-9.72,0.0325419903347151,0.0257662492182454,-0.04781483170275,-167.02852064224476,-9.050681021579294,-8.200293609338797
1.37,0.87,-9.72,0.0325419903347151,0.0257662492182454,-0.04781483170275,-167.02852064224476,-9.050681021579294,-8.200293609338797
1.16,0.94,-9.54,-0.1122094137787004,0.0940059084040195,0.151632033333934,-167.13036680379562,-9.027691221695424,-8.039461810968866
1.16,0.94,-9.54,-0.1122094137787004,0.0940059084040195,0.151632033333934,-167.13036680379562,-9.027691221695424,-8.039461810968866
1.07,1.25,-9.49,-0.1228940344950577,0.3749227161475733,0.183145959724337,-167.13036680379562,-9.016196458354324,-7.878645873813733
1.07,1.25,-9.49,-0.1228940344950577,0.3749227161475733,0.183145959724337,-167.13036680379562,-9.016196458354324,-7.878645873813733
1.29,0.86,-9.76,-0.0153772495495529,-0.0550851479855407,-0.0755577071202946,-166.92746455946423,-9.165635515674056,-7.94756506816392
1.29,0.86,-9.76,-0.0153772495495529,-0.0550851479855407,-0.0755577071202946,-166.92746455946423,-9.165635515674056,-7.94756506816392
1.23,1.01,-9.82,-0.071077868613585,0.0984577287955985,-0.1407443328006135,-166.92746455946423,-9.22311622194562,-8.016487142063689
1.23,1.01,-9.82,-0.071077868613585,0.0984577287955985,-0.1407443328006135,-166.92746455946423,-9.22311622194562,-8.016487142063689
1.25,1.05,-9.82,-0.0474091807879856,0.1255404248460319,-0.14721316820291,-166.72765058183754,-9.315090195791669,-8.027974436112627
1.25,1.05,-9.82,-0.0474091807879856,0.1255404248460319,-0.14721316820291,-166.72765058183754,-9.315090195791669,-8.027974436112627
1.48,1.15,-10.03,0.1592318072466706,0.1738346315757956,-0.394243429127954,-166.72765058183754,-9.384074619875276,-8.050949266749551
1.48,1.15,-10.03,0.1592318072466706,0.1738346315757956,-0.394243429127954,-166.72765058183754,-9.384074619875276,-8.050949266749551
1.29,1.2,-9.87,0.0251641662187937,0.2466019820416744,-0.2163013730832617,-166.62885834304856,-9.5450515760222,-7.936078336486531
1.29,1.2,-9.87,0.0251641662187937,0.2466019820416744,-0.2163013730832617,-166.62885834304856,-9.5450515760222,-7.936078336486531
1.11,1.27,-9.71,-0.0979133705896712,0.3584797075248973,-0.0417511530376177,-166.62885834304856,-9.729048380447908,-7.844187348567063
1.11,1.27,-9.71,-0.0979133705896712,0.3584797075248973,-0.0417511530376177,-166.62885834304856,-9.729048380447908,-7.844187348567063
1.03,1.2,-9.91,-0.1881955515051997,0.3126958330953826,-0.2220988626626994,-166.43342218753332,-10.028097037556812,-7.717845476549469
1.03,1.2,-9.91,-0.1881955515051997,0.3126958330953826,-0.2220988626626994,-166.43342218753332,-10.028097037556812,-7.717845476549469
1.09,0.94,-9.64,-0.1037036702596089,0.0854212572936488,0.0607150136799568,-166.43342218753332,-10.315708384533188,-7.557060298129735
1.09,0.94,-9.64,-0.1037036702596089,0.0854212572936488,0.0607150136799568,-166.43342218753332,-10.315708384533188,-7.557060298129735
1.33,0.91,-9.71,0.1258146778851415,0.0322875561690757,-0.0353126183269605,-166.33674754112943,-10.591876570929834,-7.522608280519941
1.33,0.91,-9.71,0.1258146778851415,0.0322875561690757,-0.0353126183269605,-166.33674754112943,-10.591876570929834,-7.522608280519941
1.67,0.48,-10.15,0.3175818946130821,-0.436651361311505,-0.4768453847842444,-166.05072408085044,-11.00624507066077,-7.557060298129735
1.67,0.48,-10.15,0.3175818946130821,-0.436651361311505,-0.4768453847842444,-166.05072408085044,-11.00624507066077,-7.557060298129735
1.27,0.68,-9.58,0.0829511366778463,-0.121915328398483,0.1200636166745834,-165.95667115359868,-11.294085603048902,-7.338875609975954
1.27,0.68,-9.58,0.0829511366778463,-0.121915328398483,0.1200636166745834,-165.95667115359868,-11.294085603048902,-7.338875609975954
1.24,0.49,-9.63,0.0235422170985259,-0.296905166510967,0.0893513483111867,-165.86324083896642,-11.535926836248436,-7.269980754447582
1.24,0.49,-9.63,0.0235422170985259,-0.296905166510967,0.0893513483111867,-165.86324083896642,-11.535926836248436,-7.269980754447582
1.14,0.74,-9.61,-0.0063822103570843,-0.0214819583065692,0.1010434866048548,-165.6781993872616,-11.766299745968876,-7.189606746883267
1.14,0.74,-9.61,-0.0063822103570843,-0.0214819583065692,0.1010434866048548,-165.6781993872616,-11.766299745968876,-7.189606746883267
1.07,0.8,-9.53,-0.0325069865612437,0.0662381666431349,0.1837421338139933,-165.6781993872616,-11.89302513102135,-7.086273935339353
1.07,0.8,-9.53,-0.0325069865612437,0.0662381666431349,0.1837421338139933,-165.6781993872616,-11.89302513102135,-7.086273935339353
1.07,0.65,-9.39,-0.0394436802551438,-0.0653766435977958,0.3338642381155985,-165.5865648948541,-12.03128766143814,-7.063311874799694
1.07,0.65,-9.39,-0.0394436802551438,-0.0653766435977958,0.3338642381155985,-165.5865648948541,-12.03128766143814,-7.063311874799694
1.39,0.72,-9.83,0.2168684581873806,-0.0721013154657275,-0.1445895947515776,-165.4050127335264,-12.181091916848366,-7.143680335170353
1.39,0.72,-9.83,0.2168684581873806,-0.0721013154657275,-0.1445895947515776,-165.4050127335264,-12.181091916848366,-7.143680335170353
0.97,0.97,-9.44,-0.0688164922243538,0.2894282736437579,0.2721392330642622,-165.4050127335264,-12.273289521851868,-7.040350098228411
0.97,0.97,-9.44,-0.0688164922243538,0.2894282736437579,0.2721392330642622,-165.4050127335264,-12.273289521851868,-7.040350098228411
1.34,0.44,-9.83,0.1236579506084425,-0.2881079593918286,-0.1190642067957199,-165.31507383873742,-12.480763390340035,-7.097755072388746
1.34,0.44,-9.83,0.1236579506084425,-0.2881079593918286,-0.1190642067957199,-165.31507383873742,-12.480763390340035,-7.097755072388746
1.03,0.8,-9.66,-0.0749899000880602,0.1468211103909245,0.0604035391091013,-165.2256794561049,-12.549930441445206,-7.086273935339353
1.03,0.8,-9.66,-0.0749899000880602,0.1468211103909245,0.0604035391091013,-165.2256794561049,-12.549930441445206,-7.086273935339353
1.17,0.57,-10.05,-0.0024495029345697,-0.0977499081986076,-0.3267965487011182,-165.2256794561049,-12.7228682118641,-6.902585349926143
1.17,0.57,-10.05,-0.0024495029345697,-0.0977499081986076,-0.3267965487011182,-165.2256794561049,-12.7228682118641,-6.902585349926143
1.0,0.61,-9.47,-0.0615444097762145,0.0248670813112684,0.2647113126109222,-165.13681976050614,-12.838176201349,-6.776309776380446
1.0,0.61,-9.47,-0.0615444097762145,0.0248670813112684,0.2647113126109222,-165.13681976050614,-12.838176201349,-6.776309776380446
1.05,0.6,-9.62,-0.0394631007749841,0.0267166981887395,0.1110515717587041,-165.04848521846108,-13.011162702254634,-6.833706733841952
1.05,0.6,-9.62,-0.0394631007749841,0.0267166981887395,0.1110515717587041,-165.04848521846108,-13.011162702254634,-6.833706733841952
1.16,0.43,-9.68,0.0118623151992095,-0.150342852069219,0.0490808194965985,-164.87335484809628,-13.138038375794716,-6.902585349926143
1.16,0.43,-9.68,0.0118623151992095,-0.150342852069219,0.0490808194965985,-164.87335484809628,-13.138038375794716,-6.902585349926143
1.31,0.89,-10.19,0.1822825927611241,0.2566609955835279,-0.5008811394010486,-164.70021747025422,-13.288003224878931,-6.994427393261249
1.31,0.89,-10.19,0.1822825927611241,0.2566609955835279,-0.5008811394010486,-164.70021747025422,-13.288003224878931,-6.994427393261249
0.93,0.75,-9.46,-0.0842358716425904,0.2515874904137305,0.2751963830223705,-164.70021747025422,-13.437990937987554,-6.776309776380446
0.93,0.75,-9.46,-0.0842358716425904,0.2515874904137305,0.2751963830223705,-164.70021747025422,-13.437990937987554,-6.776309776380446
1.02,1.11,-9.85,0.0767177462859361,0.5986472728484447,-0.1397431065545564,-164.61437509688025,-13.680327762024126,-6.592650878252481
1.02,1.11,-9.85,0.0767177462859361,0.5986472728484447,-0.1397431065545564,-164.61437509688025,-13.680327762024126,-6.592650878252481
0.92,1.12,-9.79,0.0826125875231305,0.7061608499842136,-0.0644903603804731,-164.52900617164656,-14.095906005217,-6.145052377433652
0.92,1.12,-9.79,0.0826125875231305,0.7061608499842136,-0.0644903603804731,-164.52900617164656,-14.095906005217,-6.145052377433652
0.68,0.66,-9.48,-0.1280682041697237,0.3996237483034305,0.2886512925577325,-164.35965769726891,-14.54632631618216,-5.640181741583799
0.68,0.66,-9.48,-0.1280682041697237,0.3996237483034305,0.2886512925577325,-164.35965769726891,-14.54632631618216,-5.640181741583799
0.33,1.54,-9.34,-0.1369904567081457,1.3820469963464947,0.4371633697378812,-163.94405112777469,-15.147239662385427,-5.192774664418371
0.33,1.54,-9.34,-0.1369904567081457,1.3820469963464947,0.4371633697378812,-163.94405112777469,-15.147239662385427,-5.192774664418371
0.74,0.02,-9.38,-0.0714587642731089,-0.0585775725997671,0.3979379567394084,-162.68057392822612,-16.59349169701811,-4.860139072417077
0.74,0.02,-9.38,-0.0714587642731089,-0.0585775725997671,0.3979379567394084,-162.68057392822612,-16.59349169701811,-4.860139072417077
0.86,-0.5,-9.45,-0.1328529162691875,-0.4735691329736571,0.3171725444741522,-160.94065918134044,-18.35575126897081,-4.986306217889054
0.86,-0.5,-9.45,-0.1328529162691875,-0.4735691329736571,0.3171725444741522,-160.94065918134044,-18.35575126897081,-4.986306217889054
1.09,0.36,-9.74,0.3019723229413525,0.3095850166268859,0.0087793214465445,-159.79792218460952,-19.459364085641027,-5.215716631990905
1.09,0.36,-9.74,0.3019723229413525,0.3095850166268859,0.0087793214465445,-159.79792218460952,-19.459364085641027,-5.215716631990905
1.19,0.85,-9.97,0.5874925848509881,0.7194020640363544,-0.2271335901022553,-157.6856148741907,-21.672178876755066,-5.078067932263361
1.19,0.85,-9.97,0.5874925848509881,0.7194020640363544,-0.2271335901022553,-157.6856148741907,-21.672178876755066,-5.078067932263361
0.99,-0.71,-9.48,-0.1207375371441531,-0.6480007869382209,0.2714458895862233,-155.70003388404493,-23.76437852052494,-4.860139072417077
0.99,-0.71,-9.48,-0.1207375371441531,-0.6480007869382209,0.2714458895862233,-155.70003388404493,-23.76437852052494,-4.860139072417077
0.55,0.16,-9.04,-0.1590016661614874,0.3236296879152367,0.755700751702463,-153.8627830260387,-25.60605217391993,-5.0551272004985615
0.55,0.16,-9.04,-0.1590016661614874,0.3236296879152367,0.755700751702463,-153.8627830260387,-25.60605217391993,-5.0551272004985615
0.56,0.25,-8.93,-0.1501457851721745,0.4865701447652536,0.8701123182454964,-152.4315896826145,-26.923951406436,-5.525454047712893
0.56,0.25,-8.93,-0.1501457851721745,0.4865701447652536,0.8701123182454964,-152.4315896826145,-26.923951406436,-5.525454047712893
1.68,-1.29,-9.78,-0.1106575841423074,-1.1913957729636873,-0.1282999752759739,-149.81204156148604,-29.357596603435567,-6.3975318623814825
1.68,-1.29,-9.78,-0.1106575841423074,-1.1913957729636873,-0.1282999752759739,-149.81204156148604,-29.357596603435567,-6.3975318623814825
1.49,-0.16,-9.13,0.2052597709501107,-0.1494211932473721,0.5579667567789404,-148.01592812505623,-30.99543647635929,-7.189606746883267
1.49,-0.16,-9.13,0.2052597709501107,-0.1494211932473721,0.5579667567789404,-148.01592812505623,-30.99543647635929,-7.189606746883267
1.76,-0.91,-9.27,-0.2033725128527158,-0.7478079913051603,0.3590035825499846,-145.76376947074462,-32.8547775548023,-8.625427825614647
1.76,-0.91,-9.27,-0.2033725128527158,-0.7478079913051603,0.3590035825499846,-145.76376947074462,-32.8547775548023,-8.625427825614647
2.21,-0.2,-9.33,0.3007576709598331,-0.270331430933501,0.2249243860613337,-144.388983618951,-33.751834870470574,-10.200656128703407
2.21,-0.2,-9.33,0.3007576709598331,-0.270331430933501,0.2249243860613337,-144.388983618951,-33.751834870470574,-10.200656128703407
2.72,-0.49,-9.27,0.1586665203996101,-0.5824811345444043,0.1522758274705271,-142.0286696964437,-35.299808644002006,-12.7228682118641
2.72,-0.49,-9.27,0.1586665203996101,-0.5824811345444043,0.1522758274705271,-142.0286696964437,-35.299808644002006,-12.7228682118641
3.32,-0.55,-8.68,0.3435406251201527,-0.8847382214803139,0.545628559665035,-140.00247242955643,-36.43197725116238,-15.043205913037664
3.32,-0.55,-8.68,0.3435406251201527,-0.8847382214803139,0.545628559665035,-140.00247242955643,-36.43197725116238,-15.043205913037664
4.61,-1.21,-10.33,-0.1846651192078153,-1.5167991135273722,-1.466784225778346,-137.30822333899698,-37.2532866337568,-19.157145947707967
4.61,-1.21,-10.33,-0.1846651192078153,-1.5167991135273722,-1.466784225778346,-137.30822333899698,-37.2532866337568,-19.157145947707967
4.71,0.41,-9.15,0.6801299910074144,-0.3609614042792623,-0.4637847551577909,-135.54829362030736,-37.47102265081461,-22.24414695534977
4.71,0.41,-9.15,0.6801299910074144,-0.3609614042792623,-0.4637847551577909,-135.54829362030736,-37.47102265081461,-22.24414695534977
5.48,-0.34,-9.58,-0.1000356686849232,-0.9932125865803662,-1.1899822855158302,-132.81066902216784,-37.846342205002045,-26.29986168212807
5.48,-0.34,-9.58,-0.1000356686849232,-0.9932125865803662,-1.1899822855158302,-132.81066902216784,-37.846342205002045,-26.29986168212807
5.27,0.49,-8.23,0.3581357009253785,-0.4396651191599011,0.038112064222874,-131.37124925693712,-37.676791133557344,-28.90768703373302
5.27,0.49,-8.23,0.3581357009253785,-0.4396651191599011,0.038112064222874,-131.37124925693712,-37.676791133557344,-28.90768703373302
6.18,0.34,-8.77,-0.0600666415937017,-0.7080693705062028,-0.9039022623774446,-128.95070405160268,-37.41052638436744,-32.878671967526124
6.18,0.34,-8.77,-0.0600666415937017,-0.7080693705062028,-0.9039022623774446,-128.95070405160268,-37.41052638436744,-32.878671967526124
5.89,1.0,-7.73,0.2095997836268222,-0.2088404855855719,0.0415358899506959,-127.5070627749377,-36.842386864351504,-35.57649524988903
5.89,1.0,-7.73,0.2095997836268222,-0.2088404855855719,0.0415358899506959,-127.5070627749377,-36.842386864351504,-35.57649524988903
6.79,1.12,-8.05,0.2005238209935064,-0.3737602861819663,-0.7754619558284509,-126.3527930632596,-35.745018073663594,-38.28272700926836
6.79,1.12,-8.05,0.2005238209935064,-0.3737602861819663,-0.7754619558284509,-126.3527930632596,-35.745018073663594,-38.28272700926836
6.77,2.14,-7.93,0.4800619642157008,0.5200387835062206,-0.8139196727700444,-126.149991690663,-33.96744372977673,-40.26593689865936
6.77,2.14,-7.93,0.4800619642157008,0.5200387835062206,-0.8139196727700444,-126.149991690663,-33.96744372977673,-40.26593689865936
6.82,1.34,-7.62,0.1286665898973168,-0.2500860519075136,-0.5032142995572695,-126.02359896120804,-33.356870714029654,-40.97463022944533
6.82,1.34,-7.62,0.1286665898973168,-0.2500860519075136,-0.5032142995572695,-126.02359896120804,-33.356870714029654,-40.97463022944533
6.64,1.48,-7.06,0.3663994924243624,-0.2120805629918183,0.0115301310677029,-126.58179643384616,-32.114772865183184,-41.37858245579029
6.64,1.48,-7.06,0.3663994924243624,-0.2120805629918183,0.0115301310677029,-126.58179643384616,-32.114772865183184,-41.37858245579029
6.72,1.59,-7.61,0.045820485702382,-0.0396090496100631,-0.4692894512754418,-127.1197096819897,-30.74578979374247,-41.84440708007335
6.72,1.59,-7.61,0.045820485702382,-0.0396090496100631,-0.4692894512754418,-127.1197096819897,-30.74578979374247,-41.84440708007335
6.94,2.1,-7.8,0.2610508502351502,0.250630104996267,-0.8367816366508922,-128.2110774660985,-29.014203146635065,-41.91802433278389
6.94,2.1,-7.8,0.2610508502351502,0.250630104996267,-0.8367816366508922,-128.2110774660985,-29.014203146635065,-41.91802433278389
6.05,2.14,-7.07,0.20779063097978,0.447297315333184,0.2712555055193046,-129.1371769317901,-27.90294467602473,-41.62366360590611
6.05,2.14,-7.07,0.20779063097978,0.447297315333184,0.2712555055193046,-129.1371769317901,-27.90294467602473,-41.62366360590611
6.56,2.53,-7.64,0.2999647394954104,0.5169080429419968,-0.5590109644634484,-130.0792914251156,-26.5117266696815,-41.46433827740303
6.56,2.53,-7.64,0.2999647394954104,0.5169080429419968,-0.5590109644634484,-130.0792914251156,-26.5117266696815,-41.46433827740303
6.45,2.33,-7.76,0.1110921652569021,0.295345672401744,-0.544650858569037,-131.0660093808112,-25.371080328389592,-41.02356569436402
6.45,2.33,-7.76,0.1110921652569021,0.295345672401744,-0.544650858569037,-131.0660093808112,-25.371080328389592,-41.02356569436402
5.93,2.19,-7.6,-0.0442298432535344,0.2016324293153025,-0.0765877328694344,-132.72485553305756,-23.92834419777812,-39.92438520696097
5.93,2.19,-7.6,-0.0442298432535344,0.2016324293153025,-0.0765877328694344,-132.72485553305756,-23.92834419777812,-39.92438520696097
5.93,2.3,-7.66,0.0891238867621463,0.1518551489046482,-0.1482230251349552,-134.0866361818657,-22.851748300506443,-38.88977704125324
5.93,2.3,-7.66,0.0891238867621463,0.1518551489046482,-0.1482230251349552,-134.0866361818657,-22.851748300506443,-38.88977704125324
5.46,3.73,-8.27,0.0070524672838528,1.3113044480147509,-0.7003872088101968,-136.12747373883852,-21.170698001897183,-37.16864920912381
5.46,3.73,-8.27,0.0070524672838528,1.3113044480147509,-0.7003872088101968,-136.12747373883852,-21.170698001897183,-37.16864920912381
5.35,2.79,-8.31,0.0808566823268659,0.2674355630357548,-0.4590521394810985,-138.94369485234358,-20.122400879873982,-34.24312448272413
5.35,2.79,-8.31,0.0808566823268659,0.2674355630357548,-0.4590521394810985,-138.94369485234358,-20.122400879873982,-34.24312448272413
4.24,2.93,-7.64,0.0057078878076136,0.7105579553360328,0.6182238664270994,-141.29579335128196,-19.319861939553064,-31.769115255908964
4.24,2.93,-7.64,0.0057078878076136,0.7105579553360328,0.6182238664270994,-141.29579335128196,-19.319861939553064,-31.769115255908964
4.58,2.79,-9.06,-0.0394648834374515,0.1915063699743233,-0.7197866161220254,-144.1275913572786,-18.228077382152183,-28.777535311725245
4.58,2.79,-9.06,-0.0394648834374515,0.1915063699743233,-0.7197866161220254,-144.1275913572786,-18.228077382152183,-28.777535311725245
3.35,2.93,-7.83,-0.0261883533398722,0.7699336522043505,0.8331993626279637,-146.67085725236174,-17.300215695418142,-26.076325639174165
3.35,2.93,-7.83,-0.0261883533398722,0.7699336522043505,0.8331993626279637,-146.67085725236174,-17.300215695418142,-26.076325639174165
3.29,2.67,-8.45,-0.0356183473999139,0.4450120893578531,0.3643941480515966,-148.98694437514695,-16.709303811577858,-23.58875576239612
3.29,2.67,-8.45,-0.0356183473999139,0.4450120893578531,0.3643941480515966,-148.98694437514695,-16.709303811577858,-23.58875576239612
3.72,2.38,-9.84,-0.031841751529248,-0.2014601168323624,-0.9769857470097012,-150.1661139822511,-16.55875139620892,-22.022297601396428
3.72,2.38,-9.84,-0.031841751529248,-0.2014601168323624,-0.9769857470097012,-150.1661139822511,-16.55875139620892,-22.022297601396428
2.76,1.69,-8.55,-0.1365174607183509,-0.474142880289043,0.6779725759702604,-152.28767595523584,-15.922114008308863,-19.412860145181693
2.76,1.69,-8.55,-0.1365174607183509,-0.474142880289043,0.6779725759702604,-152.28767595523584,-15.922114008308863,-19.412860145181693
2.44,2.98,-9.15,-0.0743329717173531,0.5254860993582475,-0.106716681844114,-153.4604028099656,-15.205041610922963,-17.566856150665245
2.44,2.98,-9.15,-0.0743329717173531,0.5254860993582475,-0.106716681844114,-153.4604028099656,-15.205041610922963,-17.566856150665245
2.92,2.22,-9.88,0.2328863677617765,-0.4888665579477597,-0.7183665523970113,-154.58200075536982,-14.950741939900691,-16.03782888845279
2.92,2.22,-9.88,0.2328863677617765,-0.4888665579477597,-0.7183665523970113,-154.58200075536982,-14.950741939900691,-16.03782888845279
1.65,2.63,-8.84,-0.1664865188384895,0.4517802382539986,0.4496645423128829,-156.47442582901172,-14.500119080393963,-13.680327762024126
1.65,2.63,-8.84,-0.1664865188384895,0.4517802382539986,0.4496645423128829,-156.47442582901172,-14.500119080393963,-13.680327762024126
1.75,2.49,-9.29,-0.0276258579364435,0.2048846464684912,0.0330140801585621,-157.33304425296922,-14.280666944469896,-12.515346343653173
1.75,2.49,-9.29,-0.0276258579364435,0.2048846464684912,0.0330140801585621,-157.33304425296922,-14.280666944469896,-12.515346343653173
1.74,2.14,-9.49,-0.0113710650909226,-0.149528237602236,-0.0748889492243716,-157.863978815261,-14.280666944469896,-11.651107384541652
1.74,2.14,-9.49,-0.0113710650909226,-0.149528237602236,-0.0748889492243716,-157.863978815261,-14.280666944469896,-11.651107384541652
1.55,2.33,-9.66,-0.0696417721556075,0.0145017252244774,-0.2502849069951018,-158.28578665640208,-14.130545861300051,-10.937173775974523
1.55,2.33,-9.66,-0.0696417721556075,0.0145017252244774,-0.2502849069951018,-158.28578665640208,-14.130545861300051,-10.937173775974523
1.28,3.05,-9.63,0.0547027505456004,0.7505774401755512,-0.3477303905202547,-159.0283735374385,-13.93427040697098,-9.660046657878476
1.28,3.05,-9.63,0.0547027505456004,0.7505774401755512,-0.3477303905202547,-159.0283735374385,-13.93427040697098,-9.660046657878476
1.07,1.5,-9.31,-0.2594772985161347,-0.5160409202389689,0.3336687744198663,-159.9290177639615,-13.818833482803017,-8.717364176475899
1.07,1.5,-9.31,-0.2594772985161347,-0.5160409202389689,0.3336687744198663,-159.9290177639615,-13.818833482803017,-8.717364176475899
1.04,2.0,-9.47,-0.0301293667518277,-0.0441768236924893,0.0721936397553459,-160.66576217664587,-13.611082444309169,-7.683390239501281
1.04,2.0,-9.47,-0.0301293667518277,-0.0441768236924893,0.0721936397553459,-160.66576217664587,-13.611082444309169,-7.683390239501281
0.84,1.96,-9.5,-0.1630063680523238,-0.015401152912395,0.0716414366517703,-160.8715680310398,-13.611082444309169,-7.269980754447582
0.84,1.96,-9.5,-0.1630063680523238,-0.015401152912395,0.0716414366517703,-160.8715680310398,-13.611082444309169,-7.269980754447582
0.56,1.98,-9.28,-0.3316994417753175,0.1554815797315388,0.3083237812028141,-161.14943788464137,-13.691869135619404,-6.925545442265205
0.56,1.98,-9.28,-0.3316994417753175,0.1554815797315388,0.3083237812028141,-161.14943788464137,-13.691869135619404,-6.925545442265205
0.84,1.59,-9.62,-0.1954269882860504,-0.3281702047247016,0.0274776112453984,-161.21954183361512,-13.668786527863627,-6.925545442265205
0.84,1.59,-9.62,-0.1954269882860504,-0.3281702047247016,0.0274776112453984,-161.21954183361512,-13.668786527863627,-6.925545442265205
0.93,2.13,-9.81,0.0462545044776098,0.1152818241459381,-0.2741471223429137,-161.4314273445042,-13.4841456448157,-6.546738821065048
0.93,2.13,-9.81,0.0462545044776098,0.1152818241459381,-0.2741471223429137,-161.4314273445042,-13.4841456448157,-6.546738821065048
0.6,1.85,-9.22,-0.2037309912862343,0.0643099026837124,0.3861798461485275,-161.7899992062843,-13.44952940908047,-6.259812004164343
0.6,1.85,-9.22,-0.2037309912862343,0.0643099026837124,0.3861798461485275,-161.7899992062843,-13.44952940908047,-6.259812004164343
0.79,1.6,-9.63,-0.1606371189900199,-0.2510928317221939,0.0172604324191745,-161.71772704701445,-13.507223821905177,-6.4778727055513645
0.79,1.6,-9.63,-0.1606371189900199,-0.2510928317221939,0.0172604324191745,-161.71772704701445,-13.507223821905177,-6.4778727055513645
0.39,1.79,-9.16,-0.4776394614631973,0.0829974621131548,0.4778359292761128,-161.64573705685663,-13.461068017168213,-6.6729995322127
0.39,1.79,-9.16,-0.4776394614631973,0.0829974621131548,0.4778359292761128,-161.64573705685663,-13.461068017168213,-6.6729995322127
0.34,0.94,-8.63,-0.7735171672177896,-0.6670535214722261,1.179204793479654,-161.07959134463854,-13.461068017168213,-7.5111244261256385
0.34,0.94,-8.63,-0.7735171672177896,-0.6670535214722261,1.179204793479654,-161.07959134463854,-13.461068017168213,-7.5111244261256385
0.7,2.73,-9.47,-0.3809156121749995,0.672200288458185,-0.0435708131898309,-160.12726585571855,-13.299539926123945,-8.659903302137069
0.7,2.73,-9.47,-0.3809156121749995,0.672200288458185,-0.0435708131898309,-160.12726585571855,-13.299539926123945,-8.659903302137069
1.66,2.19,-9.98,0.1134199130250642,-0.2128521162658949,-0.5419697098903278,-159.40959116439532,-13.161108413553292,-9.867062460142211
1.66,2.19,-9.98,0.1134199130250642,-0.2128521162658949,-0.5419697098903278,-159.40959116439532,-13.161108413553292,-9.867062460142211
0.58,2.76,-8.14,-0.6000602029114722,0.920592286167212,1.2622929384340864,-158.77799072087697,-13.161108413553292,-10.879617409371033
0.58,2.76,-8.14,-0.6000602029114722,0.920592286167212,1.2622929384340864,-158.77799072087697,-13.161108413553292,-10.879617409371033
1.46,2.12,-8.82,-0.4288571685311636,-0.0273714811510221,0.6287563238333913,-157.04331809093284,-13.4841456448157,-13.380300633180664
1.46,2.12,-8.82,-0.4288571685311636,-0.0273714811510221,0.6287563238333913,-157.04331809093284,-13.4841456448157,-13.380300633180664
2.51,2.64,-9.81,-0.0022273026333095,-0.0220574844911196,-0.6578284154061382,-155.16145880106285,-13.957359493385503,-15.713868313956253
2.51,2.64,-9.81,-0.0022273026333095,-0.0220574844911196,-0.6578284154061382,-155.16145880106285,-13.957359493385503,-15.713868313956253
3.07,2.08,-9.98,-0.1048187831079881,-0.7159247137499125,-0.815410291061708,-153.21193002249612,-14.38461134345722,-18.20486640453508
3.07,2.08,-9.98,-0.1048187831079881,-0.7159247137499125,-0.815410291061708,-153.21193002249612,-14.38461134345722,-18.20486640453508
2.18,3.13,-7.25,-0.1785536660919349,0.971414338929721,1.6742289108994797,-150.70506138327715,-14.7196246947995,-21.03082344341432
2.18,3.13,-7.25,-0.1785536660919349,0.971414338929721,1.6742289108994797,-150.70506138327715,-14.7196246947995,-21.03082344341432
4.64,3.18,-9.78,0.4929543799546978,-0.1849084482982364,-1.4633635246161738,-148.0575479662478,-15.262847451308849,-24.04549296367276
4.64,3.18,-9.78,0.4929543799546978,-0.1849084482982364,-1.4633635246161738,-148.0575479662478,-15.262847451308849,-24.04549296367276
4.52,3.7,-9.0,0.2923901471199476,0.4368703856960576,-0.90988172756788,-145.41510886588998,-15.598198868035936,-26.97108530932781
4.52,3.7,-9.0,0.2923901471199476,0.4368703856960576,-0.90988172756788,-145.41510886588998,-15.598198868035936,-26.97108530932781
4.4,3.41,-8.25,0.1493689668771771,0.3313301021958113,-0.1391284650128295,-143.53692935464713,-16.003112701402525,-29.014203146635065
4.4,3.41,-8.25,0.1493689668771771,0.3313301021958113,-0.1391284650128295,-143.53692935464713,-16.003112701402525,-29.014203146635065
4.83,3.33,-8.2,0.0422858744881964,0.1575064475898984,-0.2745802634046797,-140.8829393690889,-16.709303811577858,-31.86443930344973
4.83,3.33,-8.2,0.0422858744881964,0.1575064475898984,-0.2745802634046797,-140.8829393690889,-16.709303811577858,-31.86443930344973
5.28,2.91,-8.21,-0.0928683773272976,-0.3472415066668735,-0.3728096516976453,-138.68306126823978,-17.346581127291525,-34.24312448272413
5.28,2.91,-8.21,-0.0928683773272976,-0.3472415066668735,-0.3728096516976453,-138.68306126823978,-17.346581127291525,-34.24312448272413
4.74,3.3,-6.8,-0.0765198846235566,0.4345961389042994,0.8958211438662058,-135.66962888300523,-17.949595138790567,-37.446822845384496
4.74,3.3,-6.8,-0.0765198846235566,0.4345961389042994,0.8958211438662058,-135.66962888300523,-17.949595138790567,-37.446822845384496
6.4,3.25,-8.49,-0.3383974899207167,-0.4005204766454597,-1.2986492074325948,-133.53159111803808,-18.448619433327213,-39.6684640703974
6.4,3.25,-8.49,-0.3383974899207167,-0.4005204766454597,-1.2986492074325948,-133.53159111803808,-18.448619433327213,-39.6684640703974
5.06,3.51,-5.79,0.2167235129942481,0.6938507403112202,1.3852841921820644,-131.31561745343842,-18.83183055191492,-42.065313242449655
5.06,3.51,-5.79,0.2167235129942481,0.6938507403112202,1.3852841921820644,-131.31561745343842,-18.83183055191492,-42.065313242449655
6.26,4.16,-6.31,0.1978930085556141,0.8739205275271216,0.0339123452416618,-127.636771729627,-19.40123466474733,-46.03347327955085
6.26,4.16,-6.31,0.1978930085556141,0.8739205275271216,0.0339123452416618,-127.636771729627,-19.40123466474733,-46.03347327955085
7.64,2.86,-7.49,-0.4954834783910417,-0.8638165552436199,-1.223201181295627,-125.39569465421296,-20.14567756040377,-48.30917991037589
7.64,2.86,-7.49,-0.4954834783910417,-0.8638165552436199,-1.223201181295627,-125.39569465421296,-20.14567756040377,-48.30917991037589
5.97,3.73,-5.01,0.2827119028565188,0.7691854075774658,1.2053519707050508,-123.28472684734406,-20.49492914898236,-50.49129103156368
5.97,3.73,-5.01,0.2827119028565188,0.7691854075774658,1.2053519707050508,-123.28472684734406,-20.49492914898236,-50.49129103156368
6.82,3.96,-5.12,0.3554432053675146,0.6946915143624397,0.4365131905595483,-120.89404187117351,-20.879328419459103,-53.01308485730727
6.82,3.96,-5.12,0.3554432053675146,0.6946915143624397,0.4365131905595483,-120.89404187117351,-20.879328419459103,-53.01308485730727
7.9,3.72,-5.72,-0.2150793367740432,0.1764817085380654,-0.6283581497545718,-117.3429325945059,-21.75385480831424,-56.66661853000819
7.9,3.72,-5.72,-0.2150793367740432,0.1764817085380654,-0.6283581497545718,-117.3429325945059,-21.75385480831424,-56.66661853000819
7.68,3.44,-4.81,-0.0052212741641071,0.1053993835705808,0.1143353276299858,-114.85268180222258,-22.372624603038307,-59.20766160334654
7.68,3.44,-4.81,-0.0052212741641071,0.1053993835705808,0.1143353276299858,-114.85268180222258,-22.372624603038307,-59.20766160334654
8.13,3.74,-4.62,-0.1551310249141224,0.319240748824186,-0.2582851567409143,-111.3190497567916,-23.015443848374385,-62.79870690317408
8.13,3.74,-4.62,-0.1551310249141224,0.319240748824186,-0.2582851567409143,-111.3190497567916,-23.015443848374385,-62.79870690317408
8.08,3.6,-3.6,0.3055483225240869,0.2586333251510271,0.2648394262292104,-108.74081619599784,-23.448298031292182,-65.43536500136207
8.08,3.6,-3.6,0.3055483225240869,0.2586333251510271,0.2648394262292104,-108.74081619599784,-23.448298031292182,-65.43536500136207
8.71,3.55,-3.68,-0.1784258874355021,0.1483520896161303,-0.2906345785488007,-105.04644280430534,-23.998630403703213,-69.19391021689427
8.71,3.55,-3.68,-0.1784258874355021,0.1483520896161303,-0.2906345785488007,-105.04644280430534,-23.998630403703213,-69.19391021689427
8.85,3.68,-3.49,-0.3029870091556484,0.3183260641949235,-0.3841236403639687,-102.7228019769725,-24.42054113976365,-71.52122812984334
8.85,3.68,-3.49,-0.3029870091556484,0.3183260641949235,-0.3841236403639687,-102.7228019769725,-24.42054113976365,-71.52122812984334
8.69,3.63,-3.04,-0.2770483206603571,0.4058960837299405,-0.0773316165972293,-100.474586173471,-24.76065802803315,-73.78277317194505
8.69,3.63,-3.04,-0.2770483206603571,0.4058960837299405,-0.0773316165972293,-100.474586173471,-24.76065802803315,-73.78277317194505
8.58,3.92,-2.57,0.0457099769372005,0.7069545031384346,0.0554538719088064,-99.21090821455444,-25.03056340197877,-75.02001646610674
8.58,3.92,-2.57,0.0457099769372005,0.7069545031384346,0.0554538719088064,-99.21090821455444,-25.03056340197877,-75.02001646610674
8.46,4.92,-2.2,0.4646802651214058,1.6105465251402062,-0.0831534430197624,-97.45833109591425,-26.029278313836883,-76.44252722312795
8.46,4.92,-2.2,0.4646802651214058,1.6105465251402062,-0.0831534430197624,-97.45833109591425,-26.029278313836883,-76.44252722312795
8.48,4.12,-1.03,1.2112039929317682,0.5468428434138326,0.4162481027373879,-95.76994903311297,-27.84391108565838,-77.39373685475255
8.48,4.12,-1.03,1.2112039929317682,0.5468428434138326,0.4162481027373879,-95.76994903311297,-27.84391108565838,-77.39373685475255
9.33,4.4,-2.49,-0.221040629370187,0.7267667495573811,-0.777864685705028,-93.30434180891346,-30.38941055279805,-78.69171147031696
9.33,4.4,-2.49,-0.221040629370187,0.7267667495573811,-0.777864685705028,-93.30434180891346,-30.38941055279805,-78.69171147031696
9.42,4.59,-2.12,0.0669561783324055,0.5046753051212005,-0.8722881357222949,-91.38478587581724,-33.2731430190265,-79.12209358290184
9.42,4.59,-2.12,0.0669561783324055,0.5046753051212005,-0.8722881357222949,-91.38478587581724,-33.2731430190265,-79.12209358290184
9.19,3.53,-1.75,0.0738468237603432,-0.6313056592227901,-0.1721024175747416,-91.07352101138804,-35.56446095223015,-78.12975943011051
9.19,3.53,-1.75,0.0738468237603432,-0.6313056592227901,-0.1721024175747416,-91.07352101138804,-35.56446095223015,-78.12975943011051
8.77,3.7,-1.95,0.1046399606249706,-0.4669381530610772,0.1021964223967568,-91.07352101138804,-37.88268575548643,-76.7345404390869
8.77,3.7,-1.95,0.1046399606249706,-0.4669381530610772,0.1021964223967568,-91.07352101138804,-37.88268575548643,-76.7345404390869
9.31,4.21,-2.7,-0.1962332942164035,-0.1760690019006268,-0.7584194366298753,-91.15534914020606,-39.266717795122325,-75.75858878812349
9.31,4.21,-2.7,-0.1962332942164035,-0.1760690019006268,-0.7584194366298753,-91.15534914020606,-39.266717795122325,-75.75858878812349
8.7,3.84,-2.28,0.2583906275111981,-0.5237586083255046,0.0448411920065066,-92.02642985732344,-40.85232569399261,-73.81143181449299
8.7,3.84,-2.28,0.2583906275111981,-0.5237586083255046,0.0448411920065066,-92.02642985732344,-40.85232569399261,-73.81143181449299
8.25,3.22,-2.51,-0.1402953956944288,-0.7312571343836407,0.6318704274238858,-92.3569249514092,-41.70948903373751,-72.86851051764684
8.25,3.22,-2.51,-0.1402953956944288,-0.7312571343836407,0.6318704274238858,-92.3569249514092,-41.70948903373751,-72.86851051764684
8.3,3.97,-3.07,-0.1494719507003295,0.0405864741896189,0.1086187114308234,-92.5556994422944,-42.02848420080716,-72.44180194441707
8.3,3.97,-3.07,-0.1494719507003295,0.0405864741896189,0.1086187114308234,-92.5556994422944,-42.02848420080716,-72.44180194441707
8.38,4.31,-2.99,0.1867493840403054,0.2444928847716556,-0.0749464245083704,-92.85453921675224,-42.0775906009399,-72.058757038671
8.38,4.31,-2.99,0.1867493840403054,0.2444928847716556,-0.0749464245083704,-92.85453921675224,-42.0775906009399,-72.058757038671
8.59,3.65,-3.44,-0.336600869058645,-0.1624831518966298,-0.1333952252642536,-93.2709590581106,-42.97521768410124,-70.97143532628913
8.59,3.65,-3.44,-0.336600869058645,-0.1624831518966298,-0.1333952252642536,-93.2709590581106,-42.97521768410124,-70.97143532628913
8.04,4.4,-3.08,0.549466543805079,0.452998416914151,0.1639906701516125,-94.02458435289964,-43.49291375439449,-69.77961983723269
8.04,4.4,-3.08,0.549466543805079,0.452998416914151,0.1639906701516125,-94.02458435289964,-43.49291375439449,-69.77961983723269
8.41,4.23,-3.61,0.2722450899872643,0.3282047540792936,-0.2666446075441282,-95.10566742161478,-43.65334169783373,-68.4854543216403
8.41,4.23,-3.61,0.2722450899872643,0.3282047540792936,-0.2666446075441282,-95.10566742161478,-43.65334169783373,-68.4854543216403
8.38,4.01,-3.53,0.4110032694134384,0.0529151866185089,-0.1227848427066398,-95.85542117857165,-44.295958202894106,-67.18740530675933
8.38,4.01,-3.53,0.4110032694134384,0.0529151866185089,-0.1227848427066398,-95.85542117857165,-44.295958202894106,-67.18740530675933
8.57,3.21,-4.12,-0.2631292471506711,-0.4806914470201573,-0.214482607248323,-96.95578604014553,-44.85325420187507,-65.54435879722949
8.57,3.21,-4.12,-0.2631292471506711,-0.4806914470201573,-0.214482607248323,-96.95578604014553,-44.85325420187507,-65.54435879722949
8.34,3.53,-4.45,0.0355528087607708,-0.1662690946208185,-0.2824575217763029,-98.92839577736687,-45.25023432294885,-63.080848073266175
8.34,3.53,-4.45,0.0355528087607708,-0.1662690946208185,-0.2824575217763029,-98.92839577736687,-45.25023432294885,-63.080848073266175
7.29,3.48,-4.18,0.3040698721776157,0.1392869663457565,0.7173683642578208,-100.67186484879734,-45.06407886296696,-61.30101752415778
7.29,3.48,-4.18,0.3040698721776157,0.1392869663457565,0.7173683642578208,-100.67186484879734,-45.06407886296696,-61.30101752415778
7.74,3.63,-4.85,0.2668521159357094,0.1041545692381837,-0.0180607730419968,-102.35649190819592,-45.225406324165256,-59.286754689259176
7.74,3.63,-4.85,0.2668521159357094,0.1041545692381837,-0.0180607730419968,-102.35649190819592,-45.225406324165256,-59.286754689259176
7.59,3.4,-5.09,0.1541373510112307,0.0004110759815831,0.0571658337458806,-103.6079880821084,-45.43651590599992,-57.67145337823379
7.59,3.4,-5.09,0.1541373510112307,0.0004110759815831,0.0571658337458806,-103.6079880821084,-45.43651590599992,-57.67145337823379
6.76,3.84,-4.52,0.8200509413247594,0.4527093484527585,0.8625921569705923,-105.06527849471128,-45.051672965046905,-56.36739676228097
6.76,3.84,-4.52,0.8200509413247594,0.4527093484527585,0.8625921569705923,-105.06527849471128,-45.051672965046905,-56.36739676228097
7.63,3.46,-6.16,-0.3624133356935614,0.241314541510526,-0.582985405834366,-105.29162283128352,-45.12611671542185,-56.0296492994227
7.63,3.46,-6.16,-0.3624133356935614,0.241314541510526,-0.582985405834366,-105.29162283128352,-45.12611671542185,-56.0296492994227
6.53,3.54,-4.63,0.6102738455196166,0.3106104348574137,1.0807983515227928,-105.99323879892164,-45.002054941253824,-55.32985731124961
6.53,3.54,-4.63,0.6102738455196166,0.3106104348574137,1.0807983515227928,-105.99323879892164,-45.002054941253824,-55.32985731124961
7.42,3.97,-5.86,0.2033426363589072,0.5242367097603821,-0.432526121367296,-106.05037621061464,-44.89044689976561,-55.38161658816516
7.42,3.97,-5.86,0.2033426363589072,0.5242367097603821,-0.432526121367296,-106.05037621061464,-44.89044689976561,-55.38161658816516
7.18,3.57,-5.56,0.109418832689427,0.2684194617240303,0.0533490966329424,-105.93613916476912,-45.03926762413592,-55.36867561916026
7.18,3.57,-5.56,0.109418832689427,0.2684194617240303,0.0533490966329424,-105.93613916476912,-45.03926762413592,-55.36867561916026
7.14,3.67,-5.43,0.2542115456307844,0.3127653890636135,0.1231096194639676,-105.84105681640696,-45.175757046056106,-55.38161658816516
7.14,3.67,-5.43,0.2542115456307844,0.3127653890636135,0.1231096194639676,-105.84105681640696,-45.175757046056106,-55.38161658816516
7.42,3.67,-5.65,0.1390867079491329,0.2250895957878729,-0.2122216710785309,-105.55643382820686,-45.37440798509372,-55.53696813006854
7.42,3.67,-5.65,0.1390867079491329,0.2250895957878729,-0.2122216710785309,-105.55643382820686,-45.37440798509372,-55.53696813006854
7.63,3.45,-5.87,-0.1224645255960394,0.0309030432109562,-0.4188254139790909,-105.40501487729964,-45.44893918092666,-55.640597444132574
7.63,3.45,-5.87,-0.1224645255960394,0.0309030432109562,-0.4188254139790909,-105.40501487729964,-45.44893918092666,-55.640597444132574
7.28,3.55,-5.42,0.1983673073634094,0.1309920981038397,0.0639198137737686,-105.4428449688075,-45.54834570673154,-55.49811986129514
7.28,3.55,-5.42,0.1983673073634094,0.1309920981038397,0.0639198137737686,-105.4428449688075,-45.54834570673154,-55.49811986129514
7.19,3.58,-5.45,0.1720299606004834,0.2080300129595742,0.1039632995873827,-105.4428449688075,-45.598062543777615,-55.47222486463927
7.19,3.58,-5.45,0.1720299606004834,0.2080300129595742,0.1039632995873827,-105.4428449688075,-45.598062543777615,-55.47222486463927
7.08,3.72,-5.28,0.2850157952928046,0.3199645775891917,0.2327485661266699,-105.0276111512958,-45.69752343772229,-55.88691564523484
7.08,3.72,-5.28,0.2850157952928046,0.3199645775891917,0.2327485661266699,-105.0276111512958,-45.69752343772229,-55.88691564523484
7.56,3.6,-5.76,-0.1612837867897447,0.2051567018991613,-0.3532268825111569,-104.10974226118626,-45.85922505196,-56.7968463150502
7.56,3.6,-5.76,-0.1612837867897447,0.2051567018991613,-0.3532268825111569,-104.10974226118626,-45.85922505196,-56.7968463150502
7.64,3.98,-5.51,0.2412277681661517,0.3334108815120576,-0.4110183420413964,-103.70069435268984,-46.13309422581874,-57.03145830719132
7.64,3.98,-5.51,0.2412277681661517,0.3334108815120576,-0.4110183420413964,-103.70069435268984,-46.13309422581874,-57.03145830719132
7.53,3.39,-5.31,-0.005296803253837,-0.0835865599290424,-0.0107878139550532,-103.58945826629656,-46.2701332926198,-57.01841747060314
7.53,3.39,-5.31,-0.005296803253837,-0.0835865599290424,-0.0107878139550532,-103.58945826629656,-46.2701332926198,-57.01841747060314
7.28,3.72,-5.43,0.0720206320243805,0.3333986766442956,-0.0017830221995538,-103.49686622301572,-46.51947492912967,-56.91411976899951
7.28,3.72,-5.43,0.0720206320243805,0.3333986766442956,-0.0017830221995538,-103.49686622301572,-46.51947492912967,-56.91411976899951
7.36,3.63,-5.44,0.0339866742040066,0.2226848730127899,-0.0365891189743958,-103.36739654993116,-46.744081927482135,-56.861990212559824
7.36,3.63,-5.44,0.0339866742040066,0.2226848730127899,-0.0365891189743958,-103.36739654993116,-46.744081927482135,-56.861990212559824
7.2,3.75,-5.26,0.2028371434530467,0.3178997150429589,0.1408392805408471,-103.27503144100896,-46.88143541316104,-56.84895982984303
7.2,3.75,-5.26,0.2028371434530467,0.3178997150429589,0.1408392805408471,-103.27503144100896,-46.88143541316104,-56.84895982984303
7.61,3.6,-5.39,0.1029814181751338,0.0181588325236044,-0.1890123134393668,-103.21965750009808,-46.94389240735087,-56.861990212559824
7.61,3.6,-5.39,0.1029814181751338,0.0181588325236044,-0.1890123134393668,-103.21965750009808,-46.94389240735087,-56.861990212559824
7.56,3.59,-5.4,0.0863362286201521,0.0477197524935442,-0.1528664983471781,-103.07215846453477,-47.1938685290374,-56.82290146986446
7.56,3.59,-5.4,0.0863362286201521,0.0477197524935442,-0.1528664983471781,-103.07215846453477,-47.1938685290374,-56.82290146986446
7.44,3.41,-5.2,0.0895844488299603,-0.0873838158871265,0.1109788682397621,-102.88812004458934,-47.431566664841,-56.7968463150502
7.44,3.41,-5.2,0.0895844488299603,-0.0873838158871265,0.1109788682397621,-102.88812004458934,-47.431566664841,-56.7968463150502
7.39,3.7,-5.35,0.1517823257137708,0.1978798106493244,-0.0352200309513488,-102.92489803406494,-47.39402100857085,-56.82290146986446
7.39,3.7,-5.35,0.1517823257137708,0.1978798106493244,-0.0352200309513488,-102.92489803406494,-47.39402100857085,-56.82290146986446
7.32,3.59,-5.34,0.0706460730535415,0.1560592675229184,0.0620743480086662,-102.83298081073578,-47.50667419847937,-56.8098734919699
7.32,3.59,-5.34,0.0706460730535415,0.1560592675229184,0.0620743480086662,-102.83298081073578,-47.50667419847937,-56.8098734919699
7.67,3.9,-5.62,0.1219301521586659,0.2722180854245453,-0.4663403315423373,-102.66776223181776,-47.56928036162765,-56.94018936700064
7.67,3.9,-5.62,0.1219301521586659,0.2722180854245453,-0.4663403315423373,-102.66776223181776,-47.56928036162765,-56.94018936700064
7.37,3.72,-5.36,0.1357959686092513,0.2251114108713581,-0.0328512225013231,-102.68610514129892,-47.59432704723895,-56.90108617541996
7.37,3.72,-5.36,0.1357959686092513,0.2251114108713581,-0.0328512225013231,-102.68610514129892,-47.59432704723895,-56.90108617541996
7.31,3.46,-5.35,-0.0287282596786078,0.0873932851947991,0.1101693445869873,-102.70445172212514,-47.619376147320615,-56.861990212559824
7.31,3.46,-5.35,-0.0287282596786078,0.0873932851947991,0.1101693445869873,-102.70445172212514,-47.619376147320615,-56.861990212559824
7.49,4.05,-5.29,0.4124379053423395,0.3568256648655523,-0.202809047277734,-102.4479327130834,-47.78225428161778,-57.01841747060314
7.49,4.05,-5.29,0.4124379053423395,0.3568256648655523,-0.202809047277734,-102.4479327130834,-47.78225428161778,-57.01841747060314
7.33,3.64,-5.2,0.1859690683030096,0.1418888627719416,0.1131582113690417,-102.42963728896297,-47.85746338279603,-56.966262181573775
7.33,3.64,-5.2,0.1859690683030096,0.1418888627719416,0.1131582113690417,-102.42963728896297,-47.85746338279603,-56.966262181573775
7.48,3.67,-5.39,0.0982124237329012,0.1511975849151143,-0.1149876475932849,-102.39305734069332,-47.895076146413096,-56.97929979586889
7.48,3.67,-5.39,0.0982124237329012,0.1511975849151143,-0.1149876475932849,-102.39305734069332,-47.895076146413096,-56.97929979586889
7.67,3.64,-5.81,-0.1685224466470766,0.1812593419058592,-0.4779669221778953,-102.3747728112858,-48.02049166769566,-56.861990212559824
7.67,3.64,-5.81,-0.1685224466470766,0.1812593419058592,-0.4779669221778953,-102.3747728112858,-48.02049166769566,-56.861990212559824
7.07,3.52,-4.89,0.3212822852777586,0.0671860894543383,0.5233497397180695,-102.4479327130834,-48.171071061668,-56.65360014298316
7.07,3.52,-4.89,0.3212822852777586,0.0671860894543383,0.5233497397180695,-102.4479327130834,-48.171071061668,-56.65360014298316
7.63,3.65,-5.62,-0.0245829126989564,0.1369790583250147,-0.3473852775624948,-102.31994097048526,-48.14596836117922,-56.83593024905007
7.63,3.65,-5.62,-0.0245829126989564,0.1369790583250147,-0.3473852775624948,-102.31994097048526,-48.14596836117922,-56.83593024905007
7.29,3.62,-5.39,0.0425482072310732,0.2357068696122373,0.0473860973442796,-102.1191689740896,-48.3342986251064,-56.88805338503149
7.29,3.62,-5.39,0.0425482072310732,0.2357068696122373,0.0473860973442796,-102.1191689740896,-48.3342986251064,-56.88805338503149
7.4,3.44,-5.28,0.0331599077230091,0.0037687543768241,0.0870365191556992,-101.99163135724292,-48.522767881927,-56.84895982984303
7.4,3.44,-5.28,0.0331599077230091,0.0037687543768241,0.0870365191556992,-101.99163135724292,-48.522767881927,-56.84895982984303
7.3,3.92,-5.18,0.3955789328597649,0.3450585811971916,0.0489221966935478,-102.0280527784433,-48.43479821318783,-56.90108617541996
7.3,3.92,-5.18,0.3955789328597649,0.3450585811971916,0.0489221966935478,-102.0280527784433,-48.43479821318783,-56.90108617541996
7.63,3.45,-5.6,-0.1616487430289776,0.0253188362425604,-0.2657195643283732,-101.75523946512084,-48.6862209673472,-56.99233821526014
7.63,3.45,-5.6,-0.1616487430289776,0.0253188362425604,-0.2657195643283732,-101.75523946512084,-48.6862209673472,-56.99233821526014
7.26,3.64,-5.27,0.1401174939309747,0.2304683257012825,0.1289771682318683,-101.71892470333574,-48.79944259465472,-56.90108617541996
7.26,3.64,-5.27,0.1401174939309747,0.2304683257012825,0.1289771682318683,-101.71892470333574,-48.79944259465472,-56.90108617541996
7.42,3.78,-5.24,0.2823631001118354,0.2095957959992729,-0.0258848045147868,-101.73708031608216,-48.76169642019097,-56.92715416608731
7.42,3.78,-5.24,0.2823631001118354,0.2095957959992729,-0.0258848045147868,-101.73708031608216,-48.76169642019097,-56.92715416608731
7.36,3.65,-5.18,0.2060424060287176,0.1550654585825293,0.0979940049370124,-101.50133226645922,-48.862365423932296,-57.0836297204198
7.36,3.65,-5.18,0.2060424060287176,0.1550654585825293,0.0979940049370124,-101.50133226645922,-48.862365423932296,-57.0836297204198
7.5,3.49,-5.5,-0.1324231372845402,0.1268046022607738,-0.1254436718074298,-101.17588829449863,-49.05122823331522,-57.29244480095832
7.5,3.49,-5.5,-0.1324231372845402,0.1268046022607738,-0.1254436718074298,-101.17588829449863,-49.05122823331522,-57.29244480095832
