,TIME,ELAPSED_SECONDS,PSTATE,acc_x,acc_y,acc_z,mag_x,mag_y,mag_z,gyr_x,gyr_y,gyr_z,lin_x,lin_y,lin_z,eul_x,eul_y,eul_z,qua_w,qua_x,qua_y,qua_z
0,665047.0,502.502577,1.0,6.87,3.01,-6.6,-23.0,-19.0,25.87,0.69,-0.31,0.88,0.08288471561512663,0.012659119767978844,-0.18384397530493146,-131.48269259246572,-5.364844561963229,-44.85325420187507,-0.1451,-0.9117,-0.0468,-0.3815
1,665047.0,502.502577,1.0,6.87,3.01,-6.6,-23.0,-19.0,25.87,0.69,-0.31,0.88,0.08288471561512663,0.012659119767978844,-0.18384397530493146,-131.48269259246572,-5.364844561963229,-44.85325420187507,-0.1451,-0.9117,-0.0468,-0.3815
2,665081.0,502.53792000000004,1.0,6.87,3.07,-6.71,-23.0,-19.25,25.56,0.31,-1.56,0.94,0.008152646394923163,0.05030691111747543,-0.2751803273289912,-131.53850453910292,-5.341901218009245,-44.82846183777319,-0.1449,-0.9119,-0.0466,-0.3813
3,665081.0,502.53792000000004,1.0,6.87,3.07,-6.71,-23.0,-19.25,25.56,0.31,-1.56,0.94,0.008152646394923163,0.05030691111747543,-0.2751803273289912,-131.53850453910292,-5.341901218009245,-44.82846183777319,-0.1449,-0.9119,-0.0466,-0.3813
4,665116.0,502.54226600000004,1.0,6.82,2.96,-6.66,-22.56,-18.19,26.56,2.31,-1.94,2.69,0.021939950540345917,-0.012790424563947857,-0.17478051088419022,-131.62233589525562,-5.284543793645802,-44.766490602125245,-0.14400000000000002,-0.9122,-0.0461,-0.3808
5,665116.0,502.54226600000004,1.0,6.82,2.96,-6.66,-22.56,-18.19,26.56,2.31,-1.94,2.69,0.021939950540345917,-0.012790424563947857,-0.17478051088419022,-131.62233589525562,-5.284543793645802,-44.766490602125245,-0.14400000000000002,-0.9122,-0.0461,-0.3808
6,665153.0,502.59422800000004,1.0,6.86,3.02,-6.77,-23.69,-18.19,26.69,1.37,-2.81,2.38,-0.01882191972824851,0.02328332716623871,-0.29344918872155645,-131.70630400699523,-5.2271876941715805,-44.70453316546126,-0.1436,-0.9125,-0.0456,-0.3803
7,665153.0,502.59422800000004,1.0,6.86,3.02,-6.77,-23.69,-18.19,26.69,1.37,-2.81,2.38,-0.01882191972824851,0.02328332716623871,-0.29344918872155645,-131.70630400699523,-5.2271876941715805,-44.70453316546126,-0.1436,-0.9125,-0.0456,-0.3803
8,665186.0,502.613937,1.0,6.55,3.1,-6.84,-23.69,-18.19,26.69,2.31,-4.31,2.31,-0.26602366108065245,0.16295802329668652,-0.15330863919064974,-131.87465337051762,-5.15836210329675,-44.5682752426895,-0.1428,-0.9131,-0.045,-0.3792
9,665186.0,502.613937,1.0,6.55,3.1,-6.84,-23.69,-18.19,26.69,2.31,-4.31,2.31,-0.26602366108065245,0.16295802329668652,-0.15330863919064974,-131.87465337051762,-5.15836210329675,-44.5682752426895,-0.1428,-0.9131,-0.045,-0.3792
10,665223.0,502.66524000000004,1.0,7.04,3.02,-7.26,-23.0,-18.56,26.0,5.44,-4.75,4.25,-0.1865446241574502,-0.07193452491221007,-0.7455832483377005,-132.07176372350168,-5.101008867683621,-44.43208368482341,-0.1415,-0.9138,-0.0445,-0.3781
11,665223.0,502.66524000000004,1.0,7.04,3.02,-7.26,-23.0,-18.56,26.0,5.44,-4.75,4.25,-0.1865446241574502,-0.07193452491221007,-0.7455832483377005,-132.07176372350168,-5.101008867683621,-44.43208368482341,-0.1415,-0.9138,-0.0445,-0.3781
12,665260.0,502.738603,1.0,6.81,3.04,-7.22,-23.0,-19.0,27.06,2.06,-16.06,0.81,-0.2358122913695978,0.02852724221193492,-0.5707137673395106,-132.58215838722379,-4.997776256010228,-43.949753171483536,-0.1404,-0.9156,-0.0436,-0.3742
13,665260.0,502.738603,1.0,6.81,3.04,-7.22,-23.0,-19.0,27.06,2.06,-16.06,0.81,-0.2358122913695978,0.02852724221193492,-0.5707137673395106,-132.58215838722379,-4.997776256010228,-43.949753171483536,-0.1404,-0.9156,-0.0436,-0.3742
14,665292.0,502.78034299999996,1.0,7.5,0.98,-10.13,-23.0,-19.0,27.06,-3.0,-23.5,-3.56,-1.5882099899779665,-2.72408915272132,-2.436071401541417,-133.12658560187518,-4.860139072417077,-43.35723698802017,-0.1407,-0.9175,-0.0424,-0.3694
15,665292.0,502.78034299999996,1.0,7.5,0.98,-10.13,-23.0,-19.0,27.06,-3.0,-23.5,-3.56,-1.5882099899779665,-2.72408915272132,-2.436071401541417,-133.12658560187518,-4.860139072417077,-43.35723698802017,-0.1407,-0.9175,-0.0424,-0.3694
16,665327.0,502.79905599999995,1.0,7.16,0.55,-8.7,-22.19,-18.56,28.0,-43.0,-72.06,-20.44,-0.3365921149249515,-3.034566583903988,-1.053193985804933,-134.85662424793804,-4.6078223124450055,-40.827870624577365,-0.1552,-0.9234,-0.0402,-0.3488
17,665327.0,502.79905599999995,1.0,7.16,0.55,-8.7,-22.19,-18.56,28.0,-43.0,-72.06,-20.44,-0.3365921149249515,-3.034566583903988,-1.053193985804933,-134.85662424793804,-4.6078223124450055,-40.827870624577365,-0.1552,-0.9234,-0.0402,-0.3488
18,665364.0,502.802618,1.0,6.78,0.57,-11.3,-21.5,-18.56,27.06,-61.31,-162.63,26.19,-1.463623872473684,-3.9777828780328433,-2.6840805044642515,-137.40276743944383,-3.2319104185008167,-37.180738981785375,-0.1718,-0.9317,-0.0282,-0.3188
19,665364.0,502.802618,1.0,6.78,0.57,-11.3,-21.5,-18.56,27.06,-61.31,-162.63,26.19,-1.463623872473684,-3.9777828780328433,-2.6840805044642515,-137.40276743944383,-3.2319104185008167,-37.180738981785375,-0.1718,-0.9317,-0.0282,-0.3188
20,665401.0,502.851346,1.0,5.38,1.58,-8.64,-19.19,-20.5,27.5,-78.5,-243.75,83.06,0.4471248906405829,-2.0309204280234376,-0.28125570669684663,-143.42720670361226,1.9252287616436876,-29.014203146635065,-0.1883,-0.9495,0.0168,-0.2505
21,665401.0,502.851346,1.0,5.38,1.58,-8.64,-19.19,-20.5,27.5,-78.5,-243.75,83.06,0.4471248906405829,-2.0309204280234376,-0.28125570669684663,-143.42720670361226,1.9252287616436876,-29.014203146635065,-0.1883,-0.9495,0.0168,-0.2505
22,665434.0,502.90857800000003,1.0,2.68,3.2,-7.45,-19.19,-20.5,27.5,-73.56,-267.0,83.12,-0.6399294442316561,-0.005916806885323478,1.29105517064124,-147.39783944401512,6.523783187455053,-21.695513718287586,-0.2,-0.9598,0.0569,-0.1882
23,665434.0,502.90857800000003,1.0,2.68,3.2,-7.45,-19.19,-20.5,27.5,-73.56,-267.0,83.12,-0.6399294442316561,-0.005916806885323478,1.29105517064124,-147.39783944401512,6.523783187455053,-21.695513718287586,-0.2,-0.9598,0.0569,-0.1882
24,665473.0,502.922055,1.0,0.79,0.83,-6.33,-15.88,-20.5,30.75,-47.31,-171.5,95.31,-0.7426811093739158,-1.8158773090679732,3.6802387855783634,-149.68030591183427,11.512892133606984,-14.557878496401068,-0.2054,-0.9652,0.1003,-0.1267
25,665473.0,502.922055,1.0,0.79,0.83,-6.33,-15.88,-20.5,30.75,-47.31,-171.5,95.31,-0.7426811093739158,-1.8158773090679732,3.6802387855783634,-149.68030591183427,11.512892133606984,-14.557878496401068,-0.2054,-0.9652,0.1003,-0.1267
26,665507.0,502.941008,1.0,1.69,2.54,-4.76,-11.38,-19.37,31.0,-102.06,-129.81,103.19,0.2334016483943224,0.477969743228819,4.177940681240985,-148.35037934063973,15.667598608855753,-10.937173775974523,-0.2162,-0.9621,0.1363,-0.0953
27,665507.0,502.941008,1.0,1.69,2.54,-4.76,-11.38,-19.37,31.0,-102.06,-129.81,103.19,0.2334016483943224,0.477969743228819,4.177940681240985,-148.35037934063973,15.667598608855753,-10.937173775974523,-0.2162,-0.9621,0.1363,-0.0953
28,665542.0,502.985701,1.0,0.73,3.85,-4.11,-11.38,-19.37,31.0,-112.75,-33.25,63.44,-0.9135224598415534,1.3073323073793988,4.356525326797824,-143.86802831777294,19.517498563105914,-8.257737442475136,-0.2496,-0.9507,0.1695,-0.07200000000000001
29,665542.0,502.985701,1.0,0.73,3.85,-4.11,-11.38,-19.37,31.0,-112.75,-33.25,63.44,-0.9135224598415534,1.3073323073793988,4.356525326797824,-143.86802831777294,19.517498563105914,-8.257737442475136,-0.2496,-0.9507,0.1695,-0.07200000000000001
30,665577.0,503.005031,1.0,3.33,2.99,-5.45,-11.25,-20.19,31.69,-76.0,28.12,103.31,1.5503811498268718,0.4162930974670618,2.939735238095439,-139.1073977684417,23.06222273541725,-9.188627520029687,-0.275,-0.937,0.1999,-0.0801
31,665577.0,503.005031,1.0,3.33,2.99,-5.45,-11.25,-20.19,31.69,-76.0,28.12,103.31,1.5503811498268718,0.4162930974670618,2.939735238095439,-139.1073977684417,23.06222273541725,-9.188627520029687,-0.275,-0.937,0.1999,-0.0801
32,665614.0,503.04415199999994,1.0,5.62,6.57,-6.01,-12.06,-23.0,28.56,-94.44,-1.81,113.31,1.7003429276521445,3.3722679714100026,-0.022187299364842872,-135.06606324188033,26.65302123047702,-9.637046865121436,-0.2931,-0.9241,0.2305,-0.084
33,665614.0,503.04415199999994,1.0,5.62,6.57,-6.01,-12.06,-23.0,28.56,-94.44,-1.81,113.31,1.7003429276521445,3.3722679714100026,-0.022187299364842872,-135.06606324188033,26.65302123047702,-9.637046865121436,-0.2931,-0.9241,0.2305,-0.084
34,665651.0,503.098919,1.0,6.13,7.46,-7.23,-16.19,-22.69,29.25,-70.0,57.81,71.12,1.178878364711354,2.9018882025927724,-1.8419847123114987,-130.5977575270689,29.310216034057568,-11.409241734119899,-0.3173,-0.9085,0.253,-0.0994
35,665651.0,503.098919,1.0,6.13,7.46,-7.23,-16.19,-22.69,29.25,-70.0,57.81,71.12,1.178878364711354,2.9018882025927724,-1.8419847123114987,-130.5977575270689,29.310216034057568,-11.409241734119899,-0.3173,-0.9085,0.253,-0.0994
36,665683.0,503.120242,1.0,10.71,9.52,-14.37,-16.19,-22.69,29.25,-141.81,92.0,25.37,3.3891121792501875,0.5421632000336656,-10.194634401282515,-127.3259688536123,30.128257166842047,-13.184178987120148,-0.3407,-0.8962,0.2599,-0.1148
37,665683.0,503.120242,1.0,10.71,9.52,-14.37,-16.19,-22.69,29.25,-141.81,92.0,25.37,3.3891121792501875,0.5421632000336656,-10.194634401282515,-127.3259688536123,30.128257166842047,-13.184178987120148,-0.3407,-0.8962,0.2599,-0.1148
38,665720.0,503.170515,1.0,3.95,10.61,-9.74,-19.69,-22.75,24.87,71.06,-42.81,-28.5,-2.555545721339157,1.3947104541915751,-4.841427307794146,-126.22595924751906,30.38941055279805,-12.50381856554563,-0.35200000000000004,-0.8919,0.2621,-0.1089
39,665720.0,503.170515,1.0,3.95,10.61,-9.74,-19.69,-22.75,24.87,71.06,-42.81,-28.5,-2.555545721339157,1.3947104541915751,-4.841427307794146,-126.22595924751906,30.38941055279805,-12.50381856554563,-0.35200000000000004,-0.8919,0.2621,-0.1089
40,665757.0,503.189632,1.0,4.64,6.18,-7.93,-20.75,-23.5,21.87,-12.56,-18.62,-62.81,0.6728259054707653,0.4208177643368392,-1.2376751360210283,-128.2635811405088,28.90768703373302,-11.628070333672753,-0.34299999999999997,-0.8998,0.2496,-0.1013
41,665757.0,503.189632,1.0,4.64,6.18,-7.93,-20.75,-23.5,21.87,-12.56,-18.62,-62.81,0.6728259054707653,0.4208177643368392,-1.2376751360210283,-128.2635811405088,28.90768703373302,-11.628070333672753,-0.34299999999999997,-0.8998,0.2496,-0.1013
42,665790.0,503.23739400000005,1.0,5.14,17.99,-10.99,-20.75,-23.5,21.87,-99.44,-45.63,-34.38,-4.159682000448975,5.166595258963127,-10.853532455273733,-126.149991690663,29.014203146635065,-9.027691221695424,-0.369,-0.8916,0.2505,-0.0787
43,665790.0,503.23739400000005,1.0,5.14,17.99,-10.99,-20.75,-23.5,21.87,-99.44,-45.63,-34.38,-4.159682000448975,5.166595258963127,-10.853532455273733,-126.149991690663,29.014203146635065,-9.027691221695424,-0.369,-0.8916,0.2505,-0.0787
44,665827.0,503.255256,1.0,0.62,16.37,-6.85,-18.5,-24.75,22.06,37.44,-42.81,-132.94,-6.119355994054704,5.9454892942650615,-5.765390305297388,-129.0571819857357,25.45330808515709,-5.97292446733722,-0.3657,-0.9028,0.2203,-0.0521
45,665827.0,503.255256,1.0,0.62,16.37,-6.85,-18.5,-24.75,22.06,37.44,-42.81,-132.94,-6.119355994054704,5.9454892942650615,-5.765390305297388,-129.0571819857357,25.45330808515709,-5.97292446733722,-0.3657,-0.9028,0.2203,-0.0521
46,665864.0,503.35639199999997,1.0,-2.41,11.54,-2.5,-15.5,-27.06,21.5,79.81,-3.88,-200.56,-6.1634592259466,5.6565582777664725,1.132272856923656,-133.79372158966166,20.448351223683986,-4.103254614165427,-0.3481,-0.9198,0.1775,-0.0358
47,665864.0,503.35639199999997,1.0,-2.41,11.54,-2.5,-15.5,-27.06,21.5,79.81,-3.88,-200.56,-6.1634592259466,5.6565582777664725,1.132272856923656,-133.79372158966166,20.448351223683986,-4.103254614165427,-0.3481,-0.9198,0.1775,-0.0358
48,665899.0,503.37227300000006,1.0,-0.53,9.79,-1.88,-15.5,-27.06,21.5,105.62,26.12,-205.94,-2.6062377364391835,6.276156366702025,2.493867621051072,-140.1367137765361,12.365495103087909,-2.7619239753850606,-0.3226,-0.9401,0.1077,-0.0241
49,665899.0,503.37227300000006,1.0,-0.53,9.79,-1.88,-15.5,-27.06,21.5,105.62,26.12,-205.94,-2.6062377364391835,6.276156366702025,2.493867621051072,-140.1367137765361,12.365495103087909,-2.7619239753850606,-0.3226,-0.9401,0.1077,-0.0241
50,665933.0,503.391167,1.0,-3.19,7.66,-1.22,-9.5,-27.19,23.19,122.62,35.13,-220.19,-3.962710522156523,5.224662833315109,4.5778907211877,-144.1275913572786,5.7663887448030415,-1.5470330404085568,-0.3035,-0.9514,0.0503,-0.0135
51,665933.0,503.391167,1.0,-3.19,7.66,-1.22,-9.5,-27.19,23.19,122.62,35.13,-220.19,-3.962710522156523,5.224662833315109,4.5778907211877,-144.1275913572786,5.7663887448030415,-1.5470330404085568,-0.3035,-0.9514,0.0503,-0.0135
52,665970.0,503.48381100000006,1.0,-0.76,5.39,-3.77,-5.38,-26.75,25.25,105.37,90.12,-223.94,-0.6900312656194217,2.7095499912452983,3.804584047562435,-148.5189029496625,-3.621696182670093,-2.2117544130994498,-0.2687,-0.9625,-0.0316,-0.0193
53,665970.0,503.48381100000006,1.0,-0.76,5.39,-3.77,-5.38,-26.75,25.25,105.37,90.12,-223.94,-0.6900312656194217,2.7095499912452983,3.804584047562435,-148.5189029496625,-3.621696182670093,-2.2117544130994498,-0.2687,-0.9625,-0.0316,-0.0193
54,666005.0,503.507709,1.0,3.29,2.45,-6.68,0.56,-24.19,26.87,120.31,76.31,-162.63,2.9880989915299634,-1.4572647576108766,2.7075906367432796,-150.7504119288671,-9.23461264182475,-3.094348134689141,-0.2377,-0.9676,-0.0805,-0.027000000000000003
55,666005.0,503.507709,1.0,3.29,2.45,-6.68,0.56,-24.19,26.87,120.31,76.31,-162.63,2.9880989915299634,-1.4572647576108766,2.7075906367432796,-150.7504119288671,-9.23461264182475,-3.094348134689141,-0.2377,-0.9676,-0.0805,-0.027000000000000003
56,666040.0,503.529435,1.0,2.56,2.82,-6.35,0.56,-24.19,26.87,70.56,63.19,-143.13,2.3783747090779683,-0.7548846339474176,2.8351377585527846,-150.9325061978301,-15.274409087771584,-3.873932556571698,-0.2105,-0.968,-0.1329,-0.0338
57,666040.0,503.529435,1.0,2.56,2.82,-6.35,0.56,-24.19,26.87,70.56,63.19,-143.13,2.3783747090779683,-0.7548846339474176,2.8351377585527846,-150.9325061978301,-15.274409087771584,-3.873932556571698,-0.2105,-0.968,-0.1329,-0.0338
58,666075.0,503.617127,1.0,3.6,-2.34,-6.76,2.56,-23.25,29.87,183.75,78.5,-55.06,1.8513125740021292,-5.347567082355091,4.140137134660871,-153.21193002249612,-17.740803669389525,-4.75691579950709,-0.1678,-0.9728,-0.1542,-0.0415
59,666075.0,503.617127,1.0,3.6,-2.34,-6.76,2.56,-23.25,29.87,183.75,78.5,-55.06,1.8513125740021292,-5.347567082355091,4.140137134660871,-153.21193002249612,-17.740803669389525,-4.75691579950709,-0.1678,-0.9728,-0.1542,-0.0415
60,666112.0,503.640293,1.0,2.89,-2.25,-7.31,4.0,-21.56,32.25,-151.56,59.44,-105.56,0.5374998814770182,-5.247719131243196,3.559791765895726,-149.94434113378782,-21.823871652385925,-7.212570385921347,-0.1657,-0.9658,-0.1893,-0.0629
61,666112.0,503.640293,1.0,2.89,-2.25,-7.31,4.0,-21.56,32.25,-151.56,59.44,-105.56,0.5374998814770182,-5.247719131243196,3.559791765895726,-149.94434113378782,-21.823871652385925,-7.212570385921347,-0.1657,-0.9658,-0.1893,-0.0629
62,666148.0,503.643622,1.0,-5.37,12.05,-3.94,4.0,-21.56,32.25,-135.5,84.94,-160.81,-1.1194846621995032,10.820540726115821,1.3671208374477979,-143.3178010626215,-25.441560447887092,-9.280599254023052,-0.2097,-0.9492,-0.2202,-0.0809
63,666148.0,503.643622,1.0,-5.37,12.05,-3.94,4.0,-21.56,32.25,-135.5,84.94,-160.81,-1.1194846621995032,10.820540726115821,1.3671208374477979,-143.3178010626215,-25.441560447887092,-9.280599254023052,-0.2097,-0.9492,-0.2202,-0.0809
64,666181.0,503.682938,1.0,-0.01,1.57,-3.49,4.88,-21.69,31.37,78.19,116.31,-91.81,-0.32885963862188583,0.18185965489195388,5.998254221721687,-138.585728177911,-32.23403459047365,-12.342442956629045,-0.1908,-0.9354,-0.2776,-0.1075
65,666181.0,503.682938,1.0,-0.01,1.57,-3.49,4.88,-21.69,31.37,78.19,116.31,-91.81,-0.32885963862188583,0.18185965489195388,5.998254221721687,-138.585728177911,-32.23403459047365,-12.342442956629045,-0.1908,-0.9354,-0.2776,-0.1075
66,666218.0,503.690118,1.0,1.89,4.27,-3.88,6.19,-25.25,28.75,1.75,152.94,-88.31,2.2230304247236075,1.0973747714718831,4.264691470590904,-134.588690989807,-36.39578793652754,-16.709303811577858,-0.1743,-0.9225,-0.3123,-0.1453
67,666218.0,503.690118,1.0,1.89,4.27,-3.88,6.19,-25.25,28.75,1.75,152.94,-88.31,2.2230304247236075,1.0973747714718831,4.264691470590904,-134.588690989807,-36.39578793652754,-16.709303811577858,-0.1743,-0.9225,-0.3123,-0.1453
68,666255.0,503.70770899999997,1.0,4.9,5.59,-5.22,6.38,-22.69,29.5,-50.19,182.38,-115.87,4.144217228245161,-0.509757904124224,1.7399213914314142,-128.81789729217328,-40.742293166188276,-21.25230621784773,-0.1771,-0.9019,-0.3481,-0.1844
69,666255.0,503.70770899999997,1.0,4.9,5.59,-5.22,6.38,-22.69,29.5,-50.19,182.38,-115.87,4.144217228245161,-0.509757904124224,1.7399213914314142,-128.81789729217328,-40.742293166188276,-21.25230621784773,-0.1771,-0.9019,-0.3481,-0.1844
70,666288.0,503.75334100000003,1.0,9.02,7.52,-9.57,6.38,-22.69,29.5,53.56,147.0,-20.81,5.172819887076523,-2.3948270027475833,-4.2291056990272775,-125.3207938561998,-43.542266640188856,-26.041039726290627,-0.1501,-0.8883,-0.3709,-0.2253
71,666288.0,503.75334100000003,1.0,9.02,7.52,-9.57,6.38,-22.69,29.5,53.56,147.0,-20.81,5.172819887076523,-2.3948270027475833,-4.2291056990272775,-125.3207938561998,-43.542266640188856,-26.041039726290627,-0.1501,-0.8883,-0.3709,-0.2253
72,666324.0,503.777892,1.0,6.17,1.09,-4.79,5.0,-23.37,28.56,159.19,78.37,-39.88,2.0153977264898923,-3.8656211775007834,3.2342649750553383,-124.84860239500851,-45.62292436209528,-26.52349964582953,-0.1073,-0.8864,-0.3877,-0.2294
73,666324.0,503.777892,1.0,6.17,1.09,-4.79,5.0,-23.37,28.56,159.19,78.37,-39.88,2.0153977264898923,-3.8656211775007834,3.2342649750553383,-124.84860239500851,-45.62292436209528,-26.52349964582953,-0.1073,-0.8864,-0.3877,-0.2294
74,666361.0,503.82193099999995,1.0,7.12,0.54,-4.24,2.88,-21.69,31.87,-12.5,142.38,-53.06,1.915287300932886,-4.82089436418452,3.321725013212632,-120.54647637591215,-49.31587513221956,-29.535319528051428,-0.0826,-0.8684,-0.4172,-0.2549
75,666361.0,503.82193099999995,1.0,7.12,0.54,-4.24,2.88,-21.69,31.87,-12.5,142.38,-53.06,1.915287300932886,-4.82089436418452,3.321725013212632,-120.54647637591215,-49.31587513221956,-29.535319528051428,-0.0826,-0.8684,-0.4172,-0.2549
76,666396.0,503.83429800000005,1.0,10.98,6.76,-9.88,2.88,-21.69,31.87,8.56,135.0,3.56,4.412665695728063,-2.8739533634629537,-5.560235615582124,-117.98502779819529,-49.833378319901584,-33.4525819599508,-0.0702,-0.8571,-0.4213,-0.2878
77,666396.0,503.83429800000005,1.0,10.98,6.76,-9.88,2.88,-21.69,31.87,8.56,135.0,3.56,4.412665695728063,-2.8739533634629537,-5.560235615582124,-117.98502779819529,-49.833378319901584,-33.4525819599508,-0.0702,-0.8571,-0.4213,-0.2878
78,666429.0,503.894654,1.0,8.77,2.8,-7.65,1.25,-21.56,33.88,121.06,84.62,-21.0,1.7747130305131806,-3.3078559475125515,-1.5592587929576762,-115.88157571501449,-51.79977218612414,-34.92721890485463,-0.03,-0.8475,-0.4368,-0.3001
79,666429.0,503.894654,1.0,8.77,2.8,-7.65,1.25,-21.56,33.88,121.06,84.62,-21.0,1.7747130305131806,-3.3078559475125515,-1.5592587929576762,-115.88157571501449,-51.79977218612414,-34.92721890485463,-0.03,-0.8475,-0.4368,-0.3001
80,666466.0,503.95044,1.0,6.82,-0.54,-4.46,-1.37,-20.56,34.38,120.19,72.37,5.81,0.21516773604311568,-4.231828135130592,2.825179275282804,-114.72508670230465,-53.34626194049607,-34.78309311529889,0.0043,-0.8421,-0.4489,-0.2989
81,666466.0,503.95044,1.0,6.82,-0.54,-4.46,-1.37,-20.56,34.38,120.19,72.37,5.81,0.21516773604311568,-4.231828135130592,2.825179275282804,-114.72508670230465,-53.34626194049607,-34.78309311529889,0.0043,-0.8421,-0.4489,-0.2989
82,666503.0,503.967855,1.0,9.95,1.11,-7.6,-3.38,-17.37,36.5,31.25,89.69,-2.69,1.0102445249659304,-3.961155520524648,-2.079613203462788,-112.94068164320149,-53.654242471908226,-36.890702437106015,0.0369,-0.8336,-0.4513,-0.3164
83,666503.0,503.967855,1.0,9.95,1.11,-7.6,-3.38,-17.37,36.5,31.25,89.69,-2.69,1.0102445249659304,-3.961155520524648,-2.079613203462788,-112.94068164320149,-53.654242471908226,-36.890702437106015,0.0369,-0.8336,-0.4513,-0.3164
84,666535.0,503.97097,1.0,9.38,0.98,-7.82,-3.38,-17.37,36.5,45.38,38.88,15.31,0.4939094847802072,-3.217296300962232,-2.004457396542413,-111.99230089793316,-53.89835748467391,-37.7615559445365,0.0507,-0.8290000000000001,-0.4532,-0.3236
85,666535.0,503.97097,1.0,9.38,0.98,-7.82,-3.38,-17.37,36.5,45.38,38.88,15.31,0.4939094847802072,-3.217296300962232,-2.004457396542413,-111.99230089793316,-53.89835748467391,-37.7615559445365,0.0507,-0.8290000000000001,-0.4532,-0.3236
86,666572.0,504.01664500000004,1.0,9.29,-0.37,-8.2,-6.0,-16.0,37.0,59.06,62.75,35.75,-0.5749055634323771,-3.0999171068717257,-2.182553373187833,-111.82855209706509,-53.14117252914141,-38.270597450084026,0.0811,-0.8282,-0.4473,-0.3278
87,666572.0,504.01664500000004,1.0,9.29,-0.37,-8.2,-6.0,-16.0,37.0,59.06,62.75,35.75,-0.5749055634323771,-3.0999171068717257,-2.182553373187833,-111.82855209706509,-53.14117252914141,-38.270597450084026,0.0811,-0.8282,-0.4473,-0.3278
88,666607.0,504.039442,1.0,7.47,0.14,-7.01,-7.06,-14.56,36.75,4.56,15.0,12.13,-0.3028260240438945,-1.844703729724693,-0.2663815470915498,-111.5428205011455,-52.83388194622903,-38.75612925877516,0.0906,-0.8268,-0.4449,-0.3318
89,666607.0,504.039442,1.0,7.47,0.14,-7.01,-7.06,-14.56,36.75,4.56,15.0,12.13,-0.3028260240438945,-1.844703729724693,-0.2663815470915498,-111.5428205011455,-52.83388194622903,-38.75612925877516,0.0906,-0.8268,-0.4449,-0.3318
90,666642.0,504.085583,1.0,6.37,1.56,-6.52,-7.06,-14.56,36.75,8.69,40.63,22.25,0.6054689288289903,-0.29482895590521185,0.5834518961434796,-111.52245118481588,-52.10569825761032,-39.51014004319908,0.0972,-0.8267,-0.4392,-0.33799999999999997
91,666642.0,504.085583,1.0,6.37,1.56,-6.52,-7.06,-14.56,36.75,8.69,40.63,22.25,0.6054689288289903,-0.29482895590521185,0.5834518961434796,-111.52245118481588,-52.10569825761032,-39.51014004319908,0.0972,-0.8267,-0.4392,-0.33799999999999997
92,666677.0,504.14907300000004,1.0,7.81,0.95,-7.77,-9.25,-13.5,37.75,18.25,51.0,9.31,0.011555342826585937,-0.7371388263736552,-1.2263909599849043,-110.83302792899204,-51.76155935207183,-40.53456083395825,0.1077,-0.8233,-0.4365,-0.3464
93,666677.0,504.14907300000004,1.0,7.81,0.95,-7.77,-9.25,-13.5,37.75,18.25,51.0,9.31,0.011555342826585937,-0.7371388263736552,-1.2263909599849043,-110.83302792899204,-51.76155935207183,-40.53456083395825,0.1077,-0.8233,-0.4365,-0.3464
94,666714.0,504.167851,1.0,8.89,1.12,-7.61,-10.06,-12.88,37.06,11.5,0.88,15.81,0.6629394166978241,-1.1799772864700058,-1.8709681190002667,-110.63139954579823,-51.41792113681584,-40.90124166576177,0.1168,-0.8223,-0.4338,-0.3494
95,666714.0,504.167851,1.0,8.89,1.12,-7.61,-10.06,-12.88,37.06,11.5,0.88,15.81,0.6629394166978241,-1.1799772864700058,-1.8709681190002667,-110.63139954579823,-51.41792113681584,-40.90124166576177,0.1168,-0.8223,-0.4338,-0.3494
96,666748.0,504.25496200000003,1.0,10.1,4.5,-10.45,-10.06,-12.88,37.06,-42.06,20.0,-2.56,2.294731563980734,1.5292874536308556,-5.155234471330403,-110.53077739592041,-51.0747783558906,-41.55011839728967,0.1142,-0.8218,-0.4311,-0.3547
97,666748.0,504.25496200000003,1.0,10.1,4.5,-10.45,-10.06,-12.88,37.06,-42.06,20.0,-2.56,2.294731563980734,1.5292874536308556,-5.155234471330403,-110.53077739592041,-51.0747783558906,-41.55011839728967,0.1142,-0.8218,-0.4311,-0.3547
98,666783.0,504.26133600000003,1.0,11.54,4.41,-10.7,-12.19,-12.88,36.75,24.62,-38.38,-67.0,2.4616336414021904,0.2630405773137783,-6.348252335520433,-109.43221295455638,-52.78270669863224,-41.378582455790294,0.1057,-0.8163,-0.4445,-0.3533
99,666783.0,504.26133600000003,1.0,11.54,4.41,-10.7,-12.19,-12.88,36.75,24.62,-38.38,-67.0,2.4616336414021904,0.2630405773137783,-6.348252335520433,-109.43221295455638,-52.78270669863224,-41.378582455790294,0.1057,-0.8163,-0.4445,-0.3533
100,666818.0,504.26453300000003,1.0,11.72,1.81,-8.57,-11.5,-13.19,36.88,32.31,-71.12,-78.5,1.5472015196630005,-3.2320787256080807,-4.379231522451262,-107.9382233400721,-56.7968463150502,-38.75612925877516,0.0981,-0.8087,-0.4756,-0.3318
101,666818.0,504.26453300000003,1.0,11.72,1.81,-8.57,-11.5,-13.19,36.88,32.31,-71.12,-78.5,1.5472015196630005,-3.2320787256080807,-4.379231522451262,-107.9382233400721,-56.7968463150502,-38.75612925877516,0.0981,-0.8087,-0.4756,-0.3318
102,666855.0,504.32070899999997,1.0,12.79,2.74,-8.67,-7.69,-12.88,37.69,27.25,-64.87,-48.0,2.7043557028265828,-4.033068422422623,-5.1158638409266315,-106.98904660999506,-59.313125954036636,-36.90278239165085,0.0942,-0.8038,-0.4948,-0.3165
103,666855.0,504.32070899999997,1.0,12.79,2.74,-8.67,-7.69,-12.88,37.69,27.25,-64.87,-48.0,2.7043557028265828,-4.033068422422623,-5.1158638409266315,-106.98904660999506,-59.313125954036636,-36.90278239165085,0.0942,-0.8038,-0.4948,-0.3165
104,666890.0,504.338575,1.0,11.09,2.87,-7.93,-7.69,-12.88,37.69,11.94,-81.31,-76.0,2.6327526417722065,-3.9745824494742186,-3.2846145638063966,-106.1456894229273,-62.3829855554336,-34.24312448272413,0.0778,-0.7994,-0.5179,-0.2944
105,666890.0,504.338575,1.0,11.09,2.87,-7.93,-7.69,-12.88,37.69,11.94,-81.31,-76.0,2.6327526417722065,-3.9745824494742186,-3.2846145638063966,-106.1456894229273,-62.3829855554336,-34.24312448272413,0.0778,-0.7994,-0.5179,-0.2944
106,666925.0,504.38599400000004,1.0,10.3,3.19,-5.91,-5.75,-12.56,37.88,21.37,-121.0,-94.25,3.3916312417933034,-4.9581237455597496,-0.9221918034477596,-104.76439020470757,-65.87174175399682,-31.459467480314125,0.0595,-0.7921,-0.5437,-0.2711
107,666925.0,504.38599400000004,1.0,10.3,3.19,-5.91,-5.75,-12.56,37.88,21.37,-121.0,-94.25,3.3916312417933034,-4.9581237455597496,-0.9221918034477596,-104.76439020470757,-65.87174175399682,-31.459467480314125,0.0595,-0.7921,-0.5437,-0.2711
108,666961.0,504.409063,1.0,7.61,1.77,-4.71,-1.0,-12.19,37.5,76.0,-106.75,-49.5,2.0452192940867944,-4.413006839048704,2.088389271208536,-103.73780360335891,-69.55624736247115,-26.700128578583914,0.0518,-0.7866,-0.5704,-0.2309
109,666961.0,504.409063,1.0,7.61,1.77,-4.71,-1.0,-12.19,37.5,76.0,-106.75,-49.5,2.0452192940867944,-4.413006839048704,2.088389271208536,-103.73780360335891,-69.55624736247115,-26.700128578583914,0.0518,-0.7866,-0.5704,-0.2309
110,666996.0,504.455879,1.0,6.69,1.02,-5.56,-1.0,-12.19,37.5,37.13,-79.87,-40.69,1.0272947076379966,-3.870336996403299,2.017217599758574,-103.21965750009808,-71.3236489687373,-24.01034566150753,0.0499,-0.7838,-0.583,-0.20800000000000002
111,666996.0,504.455879,1.0,6.69,1.02,-5.56,-1.0,-12.19,37.5,37.13,-79.87,-40.69,1.0272947076379966,-3.870336996403299,2.017217599758574,-103.21965750009808,-71.3236489687373,-24.01034566150753,0.0499,-0.7838,-0.583,-0.20800000000000002
112,667031.0,504.47404400000005,1.0,5.33,1.13,-5.61,1.88,-10.0,38.88,31.5,-80.56,-20.44,0.9594140873554472,-2.9942171530957116,2.6461969243146832,-102.70445172212514,-73.25355342465495,-20.762818905741057,0.0416,-0.7809999999999999,-0.5966,-0.1802
113,667031.0,504.47404400000005,1.0,5.33,1.13,-5.61,1.88,-10.0,38.88,31.5,-80.56,-20.44,0.9594140873554472,-2.9942171530957116,2.6461969243146832,-102.70445172212514,-73.25355342465495,-20.762818905741057,0.0416,-0.7809999999999999,-0.5966,-0.1802
114,667066.0,504.52747,1.0,3.28,-1.32,-6.11,4.88,-8.06,38.69,80.0,-58.63,45.75,-1.6304986604729057,-1.804622736551204,3.179606096650746,-103.38588087785587,-73.46788204137806,-17.92639313237552,0.0476,-0.7847,-0.5981,-0.1558
115,667066.0,504.52747,1.0,3.28,-1.32,-6.11,4.88,-8.06,38.69,80.0,-58.63,45.75,-1.6304986604729057,-1.804622736551204,3.179606096650746,-103.38588087785587,-73.46788204137806,-17.92639313237552,0.0476,-0.7847,-0.5981,-0.1558
116,667103.0,504.583877,1.0,2.97,-1.1,-5.9,7.69,-5.88,38.38,45.94,-31.06,81.69,-1.0622997025492371,-1.5759785355276563,3.385691271155848,-105.78405748823394,-71.63424070118842,-15.39003407585724,0.0598,-0.7975,-0.5852,-0.1339
117,667103.0,504.583877,1.0,2.97,-1.1,-5.9,7.69,-5.88,38.38,45.94,-31.06,81.69,-1.0622997025492371,-1.5759785355276563,3.385691271155848,-105.78405748823394,-71.63424070118842,-15.39003407585724,0.0598,-0.7975,-0.5852,-0.1339
118,667136.0,504.59068499999995,1.0,3.04,-0.26,-7.99,7.69,-5.88,38.38,-0.69,-4.06,109.56,-0.348890370407365,-0.8259882288552292,1.3010448507334509,-108.7801674720705,-68.65188033330544,-14.927627478593793,0.0641,-0.813,-0.5639,-0.1299
119,667136.0,504.59068499999995,1.0,3.04,-0.26,-7.99,7.69,-5.88,38.38,-0.69,-4.06,109.56,-0.348890370407365,-0.8259882288552292,1.3010448507334509,-108.7801674720705,-68.65188033330544,-14.927627478593793,0.0641,-0.813,-0.5639,-0.1299
120,667172.0,504.60742300000004,1.0,3.15,-0.13,-8.87,6.19,-5.19,38.75,-20.44,-20.62,134.44,-0.12950760245794996,-0.6598226585630977,0.4170727017318683,-113.16922611259191,-64.2949069533977,-14.58098330322708,0.0638,-0.8347,-0.5321,-0.1269
121,667172.0,504.60742300000004,1.0,3.15,-0.13,-8.87,6.19,-5.19,38.75,-20.44,-20.62,134.44,-0.12950760245794996,-0.6598226585630977,0.4170727017318683,-113.16922611259191,-64.2949069533977,-14.58098330322708,0.0638,-0.8347,-0.5321,-0.1269
122,667207.0,504.64908499999996,1.0,1.3,0.98,-8.04,5.0,-5.56,39.69,-19.69,-33.94,167.94,0.30475697691299386,1.1845121914484102,1.6951733124089596,-117.94055354353924,-59.695899058507344,-13.726494094235369,0.0603,-0.8569,-0.4977,-0.1195
123,667207.0,504.64908499999996,1.0,1.3,0.98,-8.04,5.0,-5.56,39.69,-19.69,-33.94,167.94,0.30475697691299386,1.1845121914484102,1.6951733124089596,-117.94055354353924,-59.695899058507344,-13.726494094235369,0.0603,-0.8569,-0.4977,-0.1195
124,667242.0,504.70879400000007,1.0,0.69,0.85,-8.47,5.0,-5.56,39.69,-64.94,-7.94,162.06,-0.3090173798194493,1.6434675013604976,1.4315068471373935,-124.38010760157816,-53.25651268144825,-13.645704477358525,0.0518,-0.8845,-0.4482,-0.1188
125,667242.0,504.70879400000007,1.0,0.69,0.85,-8.47,5.0,-5.56,39.69,-64.94,-7.94,162.06,-0.3090173798194493,1.6434675013604976,1.4315068471373935,-124.38010760157816,-53.25651268144825,-13.645704477358525,0.0518,-0.8845,-0.4482,-0.1188
126,667277.0,504.726162,1.0,1.43,5.25,-9.66,3.19,-6.69,39.56,-86.06,-25.37,168.19,2.9702099567845446,4.041459296070922,-0.08109289566733757,-129.40467932878911,-48.133417932241116,-14.084359674365961,0.0359,-0.9041,-0.4078,-0.1226
127,667277.0,504.726162,1.0,1.43,5.25,-9.66,3.19,-6.69,39.56,-86.06,-25.37,168.19,2.9702099567845446,4.041459296070922,-0.08109289566733757,-129.40467932878911,-48.133417932241116,-14.084359674365961,0.0359,-0.9041,-0.4078,-0.1226
128,667314.0,504.773643,1.0,-1.41,3.67,-8.5,0.88,-9.38,38.25,-29.62,-42.44,141.88,-0.22239540316786036,4.708787983793182,1.7143786248955577,-135.66962888300523,-42.028484200807156,-13.184178987120148,0.0227,-0.9261,-0.3586,-0.1148
129,667314.0,504.773643,1.0,-1.41,3.67,-8.5,0.88,-9.38,38.25,-29.62,-42.44,141.88,-0.22239540316786036,4.708787983793182,1.7143786248955577,-135.66962888300523,-42.028484200807156,-13.184178987120148,0.0227,-0.9261,-0.3586,-0.1148
130,667348.0,504.79267000000004,1.0,-1.82,5.35,-7.6,0.88,-9.38,38.25,-48.81,-31.81,118.12,0.4271997536133243,6.036248782363813,2.5213153468818548,-139.5691405181039,-38.25846833636598,-12.515346343653171,0.0126,-0.9384,-0.3277,-0.109
131,667348.0,504.79267000000004,1.0,-1.82,5.35,-7.6,0.88,-9.38,38.25,-48.81,-31.81,118.12,0.4271997536133243,6.036248782363813,2.5213153468818548,-139.5691405181039,-38.25846833636598,-12.515346343653171,0.0126,-0.9384,-0.3277,-0.109
132,667383.0,504.853404,1.0,-0.8,5.32,-8.19,0.5,-10.56,37.06,-17.44,-22.44,91.56,0.7190791427992365,5.42238513004259,1.6765107214953492,-143.57357451370328,-34.23113412634732,-12.088902226339815,0.0045,-0.9499,-0.2943,-0.1053
133,667383.0,504.853404,1.0,-0.8,5.32,-8.19,0.5,-10.56,37.06,-17.44,-22.44,91.56,0.7190791427992365,5.42238513004259,1.6765107214953492,-143.57357451370328,-34.23113412634732,-12.088902226339815,0.0045,-0.9499,-0.2943,-0.1053
134,667418.0,504.856578,1.0,-1.93,5.33,-6.3,-0.25,-11.56,37.06,-18.19,-22.44,56.81,-0.024171929160927697,5.876780550484398,3.700369128693064,-146.15525518443252,-31.73337455864903,-11.478340954533572,-0.0009,-0.9567,-0.2734,-0.1
135,667418.0,504.856578,1.0,-1.93,5.33,-6.3,-0.25,-11.56,37.06,-18.19,-22.44,56.81,-0.024171929160927697,5.876780550484398,3.700369128693064,-146.15525518443252,-31.73337455864903,-11.478340954533572,-0.0009,-0.9567,-0.2734,-0.1
136,667455.0,504.89676,1.0,0.12,2.53,-6.21,-1.19,-11.38,37.0,0.31,30.31,46.25,0.1400818308358256,2.4818266792932984,3.577660241249575,-147.03240000479886,-30.57944178497209,-12.019765115233204,0.0018,-0.9589,-0.2637,-0.1047
137,667455.0,504.89676,1.0,0.12,2.53,-6.21,-1.19,-11.38,37.0,0.31,30.31,46.25,0.1400818308358256,2.4818266792932984,3.577660241249575,-147.03240000479886,-30.57944178497209,-12.019765115233204,0.0018,-0.9589,-0.2637,-0.1047
138,667490.0,504.959771,1.0,2.98,0.86,-7.22,-1.19,-11.38,37.0,13.5,47.56,56.44,1.3428379460687194,-0.08567806285213002,2.0646964015764184,-148.30838490049834,-28.493699242791056,-13.553381828311744,0.0103,-0.9620000000000001,-0.2461,-0.11800000000000001
139,667490.0,504.959771,1.0,2.98,0.86,-7.22,-1.19,-11.38,37.0,13.5,47.56,56.44,1.3428379460687194,-0.08567806285213002,2.0646964015764184,-148.30838490049834,-28.493699242791056,-13.553381828311744,0.0103,-0.9620000000000001,-0.2461,-0.11800000000000001
140,667527.0,504.977629,1.0,2.41,-1.71,-6.31,-3.38,-11.5,37.25,-29.31,64.75,36.06,-0.28986484562599235,-2.057612587820679,3.1560478611172265,-148.68831050830863,-27.17145638329649,-15.205041610922965,0.0126,-0.9629,-0.2349,-0.1323
141,667527.0,504.977629,1.0,2.41,-1.71,-6.31,-3.38,-11.5,37.25,-29.31,64.75,36.06,-0.28986484562599235,-2.057612587820679,3.1560478611172265,-148.68831050830863,-27.17145638329649,-15.205041610922965,0.0126,-0.9629,-0.2349,-0.1323
142,667561.0,505.024471,1.0,3.41,-2.27,-6.03,-5.0,-12.06,37.0,-85.37,87.69,40.25,0.019579470117376485,-3.1026808159584154,3.2100684308360465,-148.1827256280383,-25.230149327633608,-19.029325032716933,-0.0041,-0.9617,-0.2184,-0.1653
143,667561.0,505.024471,1.0,3.41,-2.27,-6.03,-5.0,-12.06,37.0,-85.37,87.69,40.25,0.019579470117376485,-3.1026808159584154,3.2100684308360465,-148.1827256280383,-25.230149327633608,-19.029325032716933,-0.0041,-0.9617,-0.2184,-0.1653
144,667596.0,505.04266399999995,1.0,4.71,-0.55,-6.73,-5.0,-12.06,37.0,-145.13,101.62,54.13,1.1463015194216726,-2.2398647542995045,1.9677407194292391,-147.27558529764082,-23.015443848374385,-22.66472550596455,-0.0311,-0.9595,-0.1995,-0.1965
145,667596.0,505.04266399999995,1.0,4.71,-0.55,-6.73,-5.0,-12.06,37.0,-145.13,101.62,54.13,1.1463015194216726,-2.2398647542995045,1.9677407194292391,-147.27558529764082,-23.015443848374385,-22.66472550596455,-0.0311,-0.9595,-0.1995,-0.1965
146,667631.0,505.09215300000005,1.0,4.7,0.65,-6.5,-8.38,-13.69,34.88,-183.06,110.5,56.13,0.8752660499184808,-1.4964932973277725,1.9480930616739096,-144.27673180622273,-19.598895357607173,-28.18641141984425,-0.0762,-0.9518,-0.1702,-0.2435
147,667631.0,505.09215300000005,1.0,4.7,0.65,-6.5,-8.38,-13.69,34.88,-183.06,110.5,56.13,0.8752660499184808,-1.4964932973277725,1.9480930616739096,-144.27673180622273,-19.598895357607173,-28.18641141984425,-0.0762,-0.9518,-0.1702,-0.2435
148,667666.0,505.111991,1.0,3.97,2.45,-4.69,-10.69,-18.69,32.5,-185.56,129.5,83.62,1.0386379516410271,0.351367516360225,3.283056506084411,-140.8145368825897,-16.350341655632345,-32.73532749855365,-0.1128,-0.9421,-0.1422,-0.2818
149,667666.0,505.111991,1.0,3.97,2.45,-4.69,-10.69,-18.69,32.5,-185.56,129.5,83.62,1.0386379516410271,0.351367516360225,3.283056506084411,-140.8145368825897,-16.350341655632345,-32.73532749855365,-0.1128,-0.9421,-0.1422,-0.2818
150,667705.0,505.25993700000004,1.0,4.69,3.93,-5.22,-16.25,-22.75,27.19,-186.19,119.94,119.19,0.4486875194627457,1.2449083138447543,1.8732848375989528,-135.24632190274463,-11.00624507066077,-39.25455153393627,-0.1513,-0.9247,-0.0959,-0.3359
151,667705.0,505.25993700000004,1.0,4.69,3.93,-5.22,-16.25,-22.75,27.19,-186.19,119.94,119.19,0.4486875194627457,1.2449083138447543,1.8732848375989528,-135.24632190274463,-11.00624507066077,-39.25455153393627,-0.1513,-0.9247,-0.0959,-0.3359
152,667740.0,505.31859299999996,1.0,6.94,4.94,-5.72,-16.25,-22.75,27.19,-141.13,137.69,65.56,0.5438409292939064,1.143435826996541,-0.37580508476052543,-128.71188283967422,-6.925545442265205,-45.37440798509372,-0.1868,-0.9015,-0.0604,-0.3857
153,667740.0,505.31859299999996,1.0,6.94,4.94,-5.72,-16.25,-22.75,27.19,-141.13,137.69,65.56,0.5438409292939064,1.143435826996541,-0.37580508476052543,-128.71188283967422,-6.925545442265205,-45.37440798509372,-0.1868,-0.9015,-0.0604,-0.3857
154,667777.0,505.32227699999993,1.0,3.31,1.85,-3.97,-22.69,-24.0,20.75,-163.63,141.88,25.56,-1.0955942411443451,-0.5683949201128959,4.457248120017415,-123.04393663031479,-5.307486603594608,-49.90920133357593,-0.2171,-0.879,-0.0463,-0.4219
155,667777.0,505.32227699999993,1.0,3.31,1.85,-3.97,-22.69,-24.0,20.75,-163.63,141.88,25.56,-1.0955942411443451,-0.5683949201128959,4.457248120017415,-123.04393663031479,-5.307486603594608,-49.90920133357593,-0.2171,-0.879,-0.0463,-0.4219
156,667813.0,505.36633,1.0,4.4,4.4,-2.78,-26.5,-26.37,16.0,-162.0,141.75,69.87,-0.706210725788853,1.5130170647883203,3.199044853470728,-115.40818530642284,-1.8220825674649568,-56.04262977353804,-0.2537,-0.8453,-0.0159,-0.4698
157,667813.0,505.36633,1.0,4.4,4.4,-2.78,-26.5,-26.37,16.0,-162.0,141.75,69.87,-0.706210725788853,1.5130170647883203,3.199044853470728,-115.40818530642284,-1.8220825674649568,-56.04262977353804,-0.2537,-0.8453,-0.0159,-0.4698
158,667848.0,505.383824,1.0,8.97,4.83,-3.6,-26.5,-26.37,16.0,-147.25,125.31,49.19,0.0658895753613354,0.05703983991406548,-0.9980806778337268,-109.90973941260323,0.6990128451499703,-60.52998522199608,-0.2751,-0.8187,0.0061,-0.504
159,667848.0,505.383824,1.0,8.97,4.83,-3.6,-26.5,-26.37,16.0,-147.25,125.31,49.19,0.0658895753613354,0.05703983991406548,-0.9980806778337268,-109.90973941260323,0.6990128451499703,-60.52998522199608,-0.2751,-0.8187,0.0061,-0.504
160,667881.0,505.429714,1.0,3.38,1.78,0.12,-29.75,-26.87,7.5,-171.19,150.81,12.56,0.7858082444766988,0.4474789387489996,6.093232705608145,-101.79156838217143,2.9797163137078666,-65.92636443455984,-0.3179,-0.7759999999999999,0.026000000000000002,-0.5441
161,667881.0,505.429714,1.0,3.38,1.78,0.12,-29.75,-26.87,7.5,-171.19,150.81,12.56,0.7858082444766988,0.4474789387489996,6.093232705608145,-101.79156838217143,2.9797163137078666,-65.92636443455984,-0.3179,-0.7759999999999999,0.026000000000000002,-0.5441
162,667918.0,505.452844,1.0,9.92,5.06,1.33,-31.25,-25.87,0.25,-221.0,247.06,33.88,1.6533616547565273,0.9401620008125912,-1.246014414104355,-92.70501720124949,4.928956774809122,-72.12962086079537,-0.3578,-0.7236,0.043,-0.5887
163,667918.0,505.452844,1.0,9.92,5.06,1.33,-31.25,-25.87,0.25,-221.0,247.06,33.88,1.6533616547565273,0.9401620008125912,-1.246014414104355,-92.70501720124949,4.928956774809122,-72.12962086079537,-0.3578,-0.7236,0.043,-0.5887
164,667955.0,505.496154,1.0,9.77,6.71,4.19,-32.19,-25.25,-9.19,-245.44,196.56,10.75,0.8565325247853892,2.780612225471422,-2.4231352673521496,-80.96262485016383,8.165828301178744,-78.94384302757037,-0.4114,-0.6492,0.0712,-0.6357
165,667955.0,505.496154,1.0,9.77,6.71,4.19,-32.19,-25.25,-9.19,-245.44,196.56,10.75,0.8565325247853892,2.780612225471422,-2.4231352673521496,-80.96262485016383,8.165828301178744,-78.94384302757037,-0.4114,-0.6492,0.0712,-0.6357
166,667990.0,505.517568,1.0,7.42,8.08,9.96,-32.19,-25.25,-9.19,-244.31,241.88,7.19,1.2635234649091085,6.9619509709268055,-3.2117656920892426,-68.29149832235984,10.557352206642195,-85.28160489303416,-0.4664,-0.5613,0.092,-0.6774
167,667990.0,505.517568,1.0,7.42,8.08,9.96,-32.19,-25.25,-9.19,-244.31,241.88,7.19,1.2635234649091085,6.9619509709268055,-3.2117656920892426,-68.29149832235984,10.557352206642195,-85.28160489303416,-0.4664,-0.5613,0.092,-0.6774
168,668026.0,505.521312,1.0,11.18,8.68,11.21,-30.0,-21.25,-20.37,-202.94,319.06,-20.44,-0.6411433557297894,3.9720455184453214,-7.794789986455719,-57.56683056380633,10.384744735841707,-90.69787526655077,-0.5039,-0.4815,0.0905,-0.7114
169,668026.0,505.521312,1.0,11.18,8.68,11.21,-30.0,-21.25,-20.37,-202.94,319.06,-20.44,-0.6411433557297894,3.9720455184453214,-7.794789986455719,-57.56683056380633,10.384744735841707,-90.69787526655077,-0.5039,-0.4815,0.0905,-0.7114
170,668061.0,505.567026,1.0,13.15,6.82,10.84,-22.69,-18.19,-30.37,-170.06,284.0,-36.5,-2.254109907566161,-1.5102979775467,-8.34764669647465,-44.580659579875785,8.740349140335567,-96.06084314103792,-0.5455,-0.3793,0.0762,-0.7435
171,668061.0,505.567026,1.0,13.15,6.82,10.84,-22.69,-18.19,-30.37,-170.06,284.0,-36.5,-2.254109907566161,-1.5102979775467,-8.34764669647465,-44.580659579875785,8.740349140335567,-96.06084314103792,-0.5455,-0.3793,0.0762,-0.7435
172,668096.0,505.58446,1.0,10.36,8.27,11.0,-22.69,-18.19,-30.37,-192.06,205.56,-51.38,-4.8966170772253585,-0.5517576993737343,-6.6991430630493145,-36.23901092380315,9.016196458354324,-97.45833109591423,-0.5763,-0.311,0.0786,-0.7516
173,668096.0,505.58446,1.0,10.36,8.27,11.0,-22.69,-18.19,-30.37,-192.06,205.56,-51.38,-4.8966170772253585,-0.5517576993737343,-6.6991430630493145,-36.23901092380315,9.016196458354324,-97.45833109591423,-0.5763,-0.311,0.0786,-0.7516
174,668131.0,505.58755999999994,1.0,11.09,8.44,8.78,-12.88,-14.5,-38.38,-128.75,166.13,-47.63,-7.297960730912379,-4.044379874654599,-4.39521116674676,-27.82029976108695,8.602444609340731,-97.96340007132606,-0.606,-0.2404,0.075,-0.7545
175,668131.0,505.58755999999994,1.0,11.09,8.44,8.78,-12.88,-14.5,-38.38,-128.75,166.13,-47.63,-7.297960730912379,-4.044379874654599,-4.39521116674676,-27.82029976108695,8.602444609340731,-97.96340007132606,-0.606,-0.2404,0.075,-0.7545
176,668168.0,505.633507,1.0,8.63,6.29,8.68,-3.5,-9.38,-41.19,-64.69,58.81,-42.69,-5.299024192697798,-3.14361890768644,-2.498690416601232,-24.51434453810049,8.522006076442151,-97.388865555759,-0.6207,-0.2123,0.0743,-0.7512
177,668168.0,505.633507,1.0,8.63,6.29,8.68,-3.5,-9.38,-41.19,-64.69,58.81,-42.69,-5.299024192697798,-3.14361890768644,-2.498690416601232,-24.51434453810049,8.522006076442151,-97.388865555759,-0.6207,-0.2123,0.0743,-0.7512
178,668205.0,505.652027,1.0,7.01,4.32,8.16,-0.06,-6.5,-42.0,-8.94,-15.31,-27.19,-3.324846715340437,-2.5030312251198996,-1.0131618747769675,-23.65899809735879,8.636919564056372,-96.33537777908647,-0.6302,-0.205,0.0753,-0.7451
179,668205.0,505.652027,1.0,7.01,4.32,8.16,-0.06,-6.5,-42.0,-8.94,-15.31,-27.19,-3.324846715340437,-2.5030312251198996,-1.0131618747769675,-23.65899809735879,8.636919564056372,-96.33537777908647,-0.6302,-0.205,0.0753,-0.7451
180,668239.0,505.70276900000005,1.0,3.46,1.62,9.56,-0.06,-6.5,-42.0,22.12,-15.63,-20.62,0.15071540023732316,0.7780475705120765,-0.4579263110881282,-24.420541139763646,8.522006076442151,-95.54805066002704,-0.6335,-0.2115,0.0743,-0.7405
181,668239.0,505.70276900000005,1.0,3.46,1.62,9.56,-0.06,-6.5,-42.0,22.12,-15.63,-20.62,0.15071540023732316,0.7780475705120765,-0.4579263110881282,-24.420541139763646,8.522006076442151,-95.54805066002704,-0.6335,-0.2115,0.0743,-0.7405
182,668276.0,505.76462000000004,1.0,4.17,1.94,8.93,1.69,-6.06,-41.19,12.06,2.38,-0.12,-0.264950784199135,-0.04031496036694671,-0.2345439422522304,-24.901460713527147,8.177316654862214,-95.22458643390246,-0.6348,-0.2156,0.0713,-0.7386
183,668276.0,505.76462000000004,1.0,4.17,1.94,8.93,1.69,-6.06,-41.19,12.06,2.38,-0.12,-0.264950784199135,-0.04031496036694671,-0.2345439422522304,-24.901460713527147,8.177316654862214,-95.22458643390246,-0.6348,-0.2156,0.0713,-0.7386
184,668311.0,505.78463700000003,1.0,4.97,1.37,8.11,0.88,-6.06,-41.69,37.63,-5.31,23.19,0.10471797542222416,-1.1806810946581672,0.27014506903392643,-25.418065988790868,7.6374510050387485,-95.71869958125956,-0.6303,-0.22,0.0666,-0.7415
185,668311.0,505.78463700000003,1.0,4.97,1.37,8.11,0.88,-6.06,-41.69,37.63,-5.31,23.19,0.10471797542222416,-1.1806810946581672,0.27014506903392643,-25.418065988790868,7.6374510050387485,-95.71869958125956,-0.6303,-0.22,0.0666,-0.7415
186,668346.0,505.787872,1.0,5.04,0.88,8.53,0.88,-6.06,-41.69,36.06,-37.38,57.44,0.7939750811428206,-1.0080085751568486,-0.05694073983377379,-27.006438787370872,7.47667331573405,-97.1287952916504,-0.6158,-0.2335,0.0652,-0.7497
187,668346.0,505.787872,1.0,5.04,0.88,8.53,0.88,-6.06,-41.69,36.06,-37.38,57.44,0.7939750811428206,-1.0080085751568486,-0.05694073983377379,-27.006438787370872,7.47667331573405,-97.1287952916504,-0.6158,-0.2335,0.0652,-0.7497
188,668379.0,505.82424199999997,1.0,4.25,2.47,9.47,1.69,-7.69,-42.06,33.94,-49.5,58.63,-0.19302705021653102,0.8414075115717825,-0.8281548387055668,-29.12074488446725,8.073924421552888,-98.71704488690264,-0.5967,-0.2514,0.0704,-0.7588
189,668379.0,505.82424199999997,1.0,4.25,2.47,9.47,1.69,-7.69,-42.06,33.94,-49.5,58.63,-0.19302705021653102,0.8414075115717825,-0.8281548387055668,-29.12074488446725,8.073924421552888,-98.71704488690264,-0.5967,-0.2514,0.0704,-0.7588
190,668416.0,505.87391399999996,1.0,3.59,1.34,9.5,-1.0,-9.19,-42.56,45.0,-4.56,29.5,1.1715071305434914,1.1766473488309162,-0.3016026709404596,-30.235073199393444,7.568544455864769,-99.61846035279729,-0.5867,-0.2608,0.066,-0.7639
191,668416.0,505.87391399999996,1.0,3.59,1.34,9.5,-1.0,-9.19,-42.56,45.0,-4.56,29.5,1.1715071305434914,1.1766473488309162,-0.3016026709404596,-30.235073199393444,7.568544455864769,-99.61846035279729,-0.5867,-0.2608,0.066,-0.7639
192,668450.0,505.901853,1.0,3.86,1.73,9.3,-1.0,-9.19,-42.56,25.12,9.06,33.0,0.7828790280618626,0.9642733750320012,-0.3343448863819756,-30.603201736078947,7.028869316139517,-100.56420761524464,-0.5787,-0.2639,0.0613,-0.7692
193,668450.0,505.901853,1.0,3.86,1.73,9.3,-1.0,-9.19,-42.56,25.12,9.06,33.0,0.7828790280618626,0.9642733750320012,-0.3343448863819756,-30.603201736078947,7.028869316139517,-100.56420761524464,-0.5787,-0.2639,0.0613,-0.7692
194,668485.0,506.187088,1.0,4.77,1.97,8.5,-2.19,-10.69,-40.06,42.56,13.81,39.38,0.1839771198206588,-0.11503199386941375,-0.13501585939041585,-30.86465043933479,6.030298919379606,-102.30167093062992,-0.5656,-0.2661,0.0526,-0.7788
195,668485.0,506.187088,1.0,4.77,1.97,8.5,-2.19,-10.69,-40.06,42.56,13.81,39.38,0.1839771198206588,-0.11503199386941375,-0.13501585939041585,-30.86465043933479,6.030298919379606,-102.30167093062992,-0.5656,-0.2661,0.0526,-0.7788
196,668520.0,506.537048,1.0,5.36,0.69,8.87,-1.75,-12.88,-41.75,46.19,13.44,3.38,1.5335649879524955,-1.0864848005343095,-0.4085508891619067,-31.459467480314125,4.49314033842009,-103.01690791684817,-0.5589,-0.2711,0.0392,-0.7827
197,668520.0,506.537048,1.0,5.36,0.69,8.87,-1.75,-12.88,-41.75,46.19,13.44,3.38,1.5335649879524955,-1.0864848005343095,-0.4085508891619067,-31.459467480314125,4.49314033842009,-103.01690791684817,-0.5589,-0.2711,0.0392,-0.7827
