TIME,ELAPSED_SECONDS,PSTATE,acc_x,acc_y,acc_z,mag_x,mag_y,mag_z,gyr_x,gyr_y,gyr_z,lin_x,lin_y,lin_z,eul_x,eul_y,eul_z,qua_w,qua_x,qua_y,qua_z
1395494.0,597.051061,1.0,-4.74,1.16,-8.43,36.88,2.75,30.25,-3.5,0.37,0.75,-0.005772822573737457,0.0739780997146432,0.0663936422195679,-65.65341937322533,-106.29841038740038,9.970582425862728,-0.2414,-0.5421,-0.8002,0.0869
1395529.0,597.079984,1.0,-4.83,1.09,-8.46,37.25,1.25,29.75,1.19,-1.44,0.19,-0.047043502181732144,0.16246348914355735,0.005630026364716656,-65.83078581086855,-106.14568942292729,10.039600263356236,-0.2411,-0.5434,-0.7994,0.0875
1395562.0,597.118881,1.0,-4.78,1.08,-8.76,37.25,1.25,29.75,0.25,-3.13,1.63,-0.16050893077254624,-0.008016190007370305,-0.2296128813637619,-65.84443673875894,-106.08848885002472,10.097117916179354,-0.2415,-0.5435,-0.7991,0.088
1395597.0,597.162171,1.0,-4.77,1.18,-8.78,37.25,2.5,30.75,0.88,-1.12,-0.19,-0.08287772364875501,-0.07300312002791498,-0.2542397135088894,-65.85808871965587,-106.03132620370606,10.131629731204741,-0.2419,-0.5436,-0.7988,0.0883
1395634.0,597.181174,1.0,-4.86,1.15,-8.38,38.0,1.69,30.69,1.44,-3.94,-0.06,0.02916766302674434,0.153293908520175,0.05256622831522684,-65.87174175399682,-105.97420139443399,10.235170717586842,-0.2426,-0.5437,-0.7985,0.0892
1395668.0,597.217223,1.0,-4.75,1.0,-8.71,38.0,1.69,30.69,-0.31,-5.63,1.0,-0.24435741944010525,-0.029404491508130626,-0.16160084091706572,-65.8853958422196,-105.91711433300469,10.292697102933527,-0.2434,-0.5438,-0.7982,0.0897
1395701.0,597.267142,1.0,-4.96,1.12,-8.42,36.88,1.69,29.87,-2.19,-7.19,4.25,-0.025231029000694516,0.175168852551973,-0.028037553159540707,-65.9536821068983,-105.67017110275857,10.396251161173769,-0.2458,-0.5443,-0.7969,0.0906
1395738.0,597.29487,1.0,-4.93,1.23,-8.39,36.5,2.5,29.87,2.38,-2.69,0.69,0.06612265602230494,0.10254571592027462,-0.001255595513599772,-65.99466654035382,-105.57537971529776,10.465291924669184,-0.2466,-0.5446,-0.7964,0.0912
1395773.0,597.339894,1.0,-4.74,0.99,-8.77,38.38,2.5,29.5,2.81,-3.75,0.19,-0.3053803411939495,-0.1342007901901383,-0.2058088885610232,-65.99466654035382,-105.55643382820686,10.591876570929834,-0.2465,-0.5446,-0.7963,0.0923
1395808.0,597.363162,1.0,-4.92,1.15,-8.52,38.38,2.5,29.5,-0.63,-4.75,3.31,-0.047900187937185645,0.031365027199156015,-0.09870318941552902,-66.04932726333173,-105.42392787292212,10.68394626499923,-0.2476,-0.545,-0.7956,0.0931
1395845.0,597.40389,1.0,-4.91,1.24,-8.65,38.0,2.5,29.87,-3.75,-10.81,6.69,-0.05552789723160467,-0.09140037712499005,-0.2161621115628254,-66.18605330414924,-105.140661692498,10.68394626499923,-0.2501,-0.546,-0.7941,0.0931
1395879.0,597.466681,1.0,-5.12,1.26,-8.42,37.69,1.69,29.87,1.37,-24.94,6.5,0.039573616238615994,0.09795968103761288,-0.12749504775266374,-66.29551072464068,-104.78316565832017,10.91415089803693,-0.2539,-0.5468,-0.7922,0.0951
1395912.0,597.469672,1.0,-5.05,0.89,-8.52,37.69,1.69,29.87,6.44,-31.12,7.94,-0.42102879138565186,-0.05529377446158734,-0.12837276571775824,-66.50092772303125,-103.94217886315839,11.697182904814724,-0.2616,-0.5483,-0.7877,0.1019
1395949.0,597.500729,1.0,-5.35,2.72,-9.39,38.0,2.5,28.19,11.06,-87.81,14.63,0.9398053536366904,-1.2217782512030517,-1.2304249658667743,-66.77519331232166,-102.61275550473172,12.88430304585338,-0.2747,-0.5503,-0.7805,0.1122
1395986.0,597.589487,1.0,-6.7,3.0,-7.25,39.88,1.25,26.5,57.56,-121.0,-25.37,2.1317507626208525,-0.010615158723385476,-0.2883005201596056,-66.44612628524789,-100.36715150883053,16.859885280956842,-0.2974,-0.5479,-0.7681,0.1466
1396021.0,597.593474,1.0,-8.2,3.42,-3.55,39.88,1.25,26.5,68.19,-47.88,-95.12,4.216185478626387,2.5648764224010145,1.610059919507302,-64.83708299106053,-100.61802099879914,20.11076285425295,-0.3,-0.5361,-0.7695,0.1746
1396054.0,597.606014,1.0,-5.63,-3.09,-5.45,41.75,3.56,23.69,43.06,71.44,-115.69,-2.192618820414886,1.995838238278629,1.922707303925443,-61.38095442802087,-104.82072855146714,22.676412633281863,-0.2702,-0.5104,-0.7924,0.1966
1396090.0,597.657064,1.0,-5.46,-2.96,-1.67,41.75,7.25,22.37,-44.31,217.81,-67.87,-0.748090352222496,4.612931088586195,5.388129026091805,-59.8677251126705,-110.7321495345978,18.73891153732938,-0.2183,-0.499,-0.8228,0.1628
1396127.0,597.674487,1.0,1.32,-2.97,-10.24,37.56,11.5,28.69,-193.0,388.44,-1.81,-5.072313006011594,-2.734595560386919,0.7394272780107727,-59.93385155178053,-115.85999031103984,9.752049739225924,-0.1586,-0.4995,-0.8474,0.085
1396162.0,597.717373,1.0,2.09,-1.27,-17.15,37.56,11.5,28.69,-210.88,208.38,130.0,-5.980447853022257,-2.8152333039404756,-6.206226222642387,-62.933006816189014,-115.06583600138661,-2.647300486778665,-0.1233,-0.522,-0.8437,-0.0231
1396199.0,597.763249,1.0,0.77,6.79,-16.24,27.87,6.06,39.06,-179.0,-39.31,160.44,0.5528337039275494,-4.004825508702626,-7.342412584895028,-67.02240272652745,-109.71042658552564,-8.23475966058657,-0.1461,-0.5521,-0.8177,-0.0718
1396236.0,597.790059,1.0,-2.16,12.5,-12.64,24.19,-4.25,39.5,93.31,-362.88,26.0,6.853721143674971,-4.4216998756196775,-6.135754984652959,-71.05589605083352,-103.23811172650564,-4.389930414609093,-0.2153,-0.5811,-0.7839,-0.0383
1396271.0,597.837902,1.0,-2.42,0.25,-4.88,24.19,-4.25,39.5,345.25,-292.25,-115.62,-0.6758357390339926,0.11656609630372872,4.397125215045512,-71.04181617810504,-101.48322239715058,8.1313637329408,-0.2405,-0.581,-0.7743,0.0709
1396305.0,597.856036,1.0,-5.59,-1.37,-5.51,31.87,-7.38,34.06,59.19,-185.25,-23.31,-1.2736424437791634,1.6866616095049802,2.12432564207119,-69.15215299440362,-99.1932272285846,19.273367657733324,-0.2647,-0.5675,-0.7615,0.1674
1396342.0,597.895073,1.0,-7.4,1.35,-4.24,39.38,2.38,26.25,4.44,-148.13,16.69,1.7008475350935166,2.2235093662208465,1.6382215244182685,-68.38844844007662,-96.16370776619527,22.82836708787642,-0.3022,-0.562,-0.7441,0.1979
1396377.0,597.929096,1.0,-8.22,-1.11,-0.94,43.56,3.06,20.75,46.44,-51.81,-3.44,0.1934670965525349,5.356000389770158,3.4066554447418884,-68.18076625802583,-94.81742405266395,25.018825462277388,-0.3113,-0.5605,-0.7362,0.2166
1396412.0,597.968831,1.0,-6.58,-2.33,-3.13,43.56,3.06,20.75,1.0,81.31,13.31,-1.7113116774246757,3.322143499127501,3.131548883618702,-69.30531417283929,-95.22458643390246,23.963486157095847,-0.2968,-0.5686,-0.7386,0.2076
1396449.0,598.011116,1.0,-4.0,-1.0,3.42,44.69,4.19,19.19,-99.75,301.13,101.75,0.39612323335639665,5.320064253467086,10.29286263144533,-72.32820965004784,-96.28384663999226,18.367359123247535,-0.2676,-0.5901,-0.7448,0.1596
1396486.0,598.039278,1.0,1.73,5.64,-0.3,41.19,2.38,25.0,-398.56,667.88,78.62,4.745039103246741,-3.1993816555187045,8.34341354235218,-74.3282126664446,-101.30231586461944,-4.286724053610707,-0.1887,-0.6041,-0.7733,-0.0374
1396520.0,598.094915,1.0,6.18,10.55,-18.14,41.19,2.38,25.0,-203.69,611.81,8.0,0.25598219103008546,-5.051707835540542,-11.476423581186852,-70.9151528268418,-103.23811172650564,-22.664725505964547,-0.1016,-0.5801,-0.7839,-0.1965
1396555.0,598.114866,1.0,8.4,1.01,-19.1,24.69,-9.19,40.38,49.0,65.62,45.5,-8.072493011354664,-0.5796492970794547,-9.451827698770105,-67.93188335325445,-104.55812296797365,-28.813027467482133,-0.0164,-0.5587,-0.791,-0.2488
1396590.0,598.168723,1.0,2.04,12.83,-10.04,7.25,-13.69,46.25,-42.5,-105.87,53.0,7.25884955229671,-1.4440232931166097,-4.849270302255286,-70.60594994922624,-102.48453447446366,-27.466273808985672,-0.0404,-0.5779,-0.7798,-0.2374
1396627.0,598.183834,1.0,2.93,5.59,-8.77,8.06,-14.06,44.06,310.69,-66.5,-146.63,1.8008939633454764,-2.0713653588442362,-0.6438105871208322,-68.59638668148234,-107.35582470459703,-20.80942010008858,-0.0263,-0.5635,-0.8057,-0.1806
1396662.0,598.216874,1.0,1.64,1.0,-7.47,8.06,-14.06,44.06,127.87,-70.44,-124.75,-0.9827880232419306,-0.5684300126204922,2.1776582565174767,-64.21371982866351,-114.02723737175657,-13.357225465957494,-0.0187,-0.5315,-0.8388,-0.1163
1396699.0,598.245093,1.0,-0.51,2.24,-7.51,11.69,-4.5,46.56,152.25,-52.94,-134.31,1.3145018618074764,0.23527799865819343,2.0674944182422514,-60.94170906130724,-118.18551847027427,-9.016196458354324,-0.0214,-0.5071,-0.858,-0.0786
1396736.0,598.285169,1.0,0.4,-2.26,-6.61,14.0,2.25,45.69,72.37,24.69,-111.25,-2.427328631446011,1.3919132000989136,3.393354953118651,-56.08157589248823,-123.6476805433651,-4.96336629149859,-0.0054,-0.4701,-0.8815,-0.0433
1396770.0,598.338264,1.0,0.93,-2.5,-9.23,14.0,2.25,45.69,2.88,33.5,-50.69,-2.872181598314671,1.4513453937067196,0.7539172957571036,-53.962642188164594,-125.77163105081794,-4.96336629149859,0.0035,-0.4537,-0.8901,-0.0433
1396805.0,598.358013,1.0,1.72,-2.07,-10.35,14.38,9.0,42.69,2.5,14.81,-4.44,-2.896613135532702,0.822437542291151,-0.4548815051940256,-53.077119755232744,-126.60729740721462,-5.273072468222583,0.0117,-0.4468,-0.8934,-0.046
1396840.0,598.39699,1.0,1.48,-2.96,-8.43,12.88,10.5,45.19,-24.44,6.75,39.94,-3.506334025699765,1.3919166372962377,1.5734799073177168,-54.31009785710634,-125.27091255577453,-6.076199569788739,0.0112,-0.4564,-0.8881,-0.053
1396877.0,598.427061,1.0,4.7,-6.38,-10.0,11.69,9.38,45.69,-82.56,-19.12,181.56,-8.401786188726357,0.5213471750894803,0.21850179703852923,-58.23470667250937,-121.19677615362598,-7.442222882076424,0.0068,-0.4866,-0.8712,-0.0649
1396912.0,598.464896,1.0,2.94,1.17,-8.96,11.69,9.38,45.69,-240.13,-83.19,277.44,-1.765188395272063,-1.9261298941036094,0.6705549063488103,-68.37459501300991,-109.86983734458829,-12.849707716341905,-0.043,-0.5619,-0.8185,-0.1119
1396948.0,598.499983,1.0,-2.07,11.73,-8.55,13.56,6.0,44.88,-114.81,-51.94,126.31,8.761032378194962,0.23227765662009858,-1.9479515993080216,-73.73979529168804,-103.09058276649,-16.24615724549883,-0.0817,-0.6,-0.7831,-0.1413
1396985.0,598.534923,1.0,1.56,3.18,-9.82,17.0,-6.0,44.06,-12.56,-5.38,36.88,-0.2362477223464684,-0.9169718813979909,-0.589587280016822,-75.526483262398,-101.50133226645922,-16.223006993376618,-0.0734,-0.6124,-0.7744,-0.1411
1397020.0,598.578201,1.0,-0.55,6.82,-9.21,17.0,-6.0,44.06,-29.19,-49.81,22.5,3.57434569979383,0.25488035922779084,-1.092803601940112,-76.53006953196333,-100.20622564478923,-16.43138337904295,-0.0868,-0.6193,-0.7672,-0.1429
1397055.0,598.608149,1.0,-0.67,4.29,-8.53,17.0,-7.5,43.56,6.0,-12.0,-12.56,1.4847629095396762,0.6349791490565568,0.3723413034012548,-76.54466504445786,-100.31347946564678,-15.656031584502133,-0.0912,-0.6194,-0.7678,-0.1362
1397090.0,598.652296,1.0,-0.68,3.33,-9.26,18.06,-8.56,42.0,1.5,-12.75,-10.75,0.3561968808402073,0.8250172037673167,-0.01635210707336121,-76.25303259821837,-100.6000798222609,-15.401597439742238,-0.0941,-0.6174,-0.7694,-0.134
1397127.0,598.716163,1.0,-0.73,3.1,-8.85,18.5,-8.19,44.0,24.44,-32.88,-15.63,0.3477678157994111,0.6838523011144055,0.43238717156625484,-75.72955562090883,-101.33846927981492,-14.280666944469896,-0.0976,-0.6138,-0.7735,-0.1243
1397161.0,598.727979,1.0,-0.68,2.48,-8.36,18.5,-8.19,44.0,25.5,-9.94,-19.5,0.03547900049284558,0.5827267155256177,1.0795903109903744,-75.20793134376436,-102.15564056347739,-13.080365619179066,-0.0971,-0.6102,-0.778,-0.1139
1397198.0,598.73999,1.0,-0.14,1.89,-9.52,20.0,-7.06,42.25,-3.63,13.25,-8.81,-0.9512575092400937,0.3000453975736527,0.15122759026000843,-74.54405958152292,-102.83298081073578,-13.195714475135587,-0.0947,-0.6056,-0.7817,-0.1149
1397233.0,598.783358,1.0,-0.1,2.86,-9.92,19.87,-7.5,43.56,-6.63,0.75,-2.19,-0.22049726494102828,0.08060870962820521,-0.51521432734347,-74.28508028194616,-103.01690791684815,-13.47260676237266,-0.0953,-0.6038,-0.7827,-0.1173
1397268.0,598.821502,1.0,-0.1,2.38,-9.71,19.87,-7.5,43.56,14.75,6.19,-21.19,-0.5514476208661836,0.1698994684272347,-0.17460942414428793,-73.8257631542882,-103.55241005030376,-13.264930228136947,-0.0934,-0.6006,-0.7856,-0.1155
1397303.0,598.860091,1.0,-0.19,1.81,-9.54,19.5,-6.0,43.5,6.13,-2.31,-13.31,-0.9515582649878331,0.36065353672047895,0.1480649123805744,-72.93974254153213,-104.53939520886966,-12.976563032466053,-0.0919,-0.5944,-0.7909,-0.113
1397338.0,598.907113,1.0,-0.37,2.05,-9.29,20.25,-5.56,43.56,-5.69,-1.5,0.56,-0.62185711177774,0.4469784663739757,0.3168131213634968,-72.62656558446132,-104.82072855146714,-13.011162702254632,-0.0924,-0.5922,-0.7924,-0.1133
1397374.0,598.945975,1.0,-0.45,2.7,-9.74,20.25,-5.56,43.56,-4.19,-12.06,-2.81,-0.18045901300074524,0.32574944818866924,-0.3038110103412972,-72.49862902402758,-104.8771029018723,-12.953497246186647,-0.0959,-0.5913,-0.7927,-0.1128
