TIME,ELAPSED_SECONDS,PSTATE,acc_x,acc_y,acc_z,mag_x,mag_y,mag_z,gyr_x,gyr_y,gyr_z,lin_x,lin_y,lin_z,eul_x,eul_y,eul_z,qua_w,qua_x,qua_y,qua_z
533334.0,518.464963,1.0,-2.82,0.38,-9.46,32.75,8.56,34.38,-0.56,0.56,-1.37,-0.1915321698780308,-0.11400886527753579,-0.06951916656149493,-62.2624634181843,-114.64014641159567,6.730393436549607,-0.1443,-0.517,-0.8417,0.0587
533368.0,518.489077,1.0,-2.79,0.07,-9.27,32.75,7.88,35.25,1.81,-2.94,0.56,-0.4268806209668621,0.0467340876841581,0.13517188853786166,-62.24907679766709,-114.66137227839891,6.799268354310191,-0.1436,-0.5169,-0.8418,0.0593
533405.0,518.52902,1.0,-3.03,0.36,-8.85,32.06,8.56,34.38,-2.38,1.0,2.94,-0.008216116740041857,0.22606179856229414,0.4481336347497642,-62.32941069730318,-114.5765055501271,6.741872419794731,-0.1442,-0.5175,-0.8414,0.0588
533438.0,518.56416,1.0,-3.02,0.78,-9.14,32.06,8.56,34.38,-2.0,3.25,2.81,0.30625637586236243,-0.026591833028141887,0.15398715979575428,-62.4231766521413,-114.51291967073887,6.65004244052053,-0.1437,-0.5182,-0.8411,0.058
533475.0,518.595555,1.0,-2.9,0.68,-9.33,31.69,7.88,34.38,1.31,1.63,1.25,0.14527779511529748,-0.11102701752463318,0.014414945446516114,-62.503584484279976,-114.47055955015439,6.604129057804274,-0.1426,-0.5188,-0.8409,0.0576
533510.0,518.651931,1.0,-3.01,0.56,-9.18,32.5,7.88,35.19,-2.19,1.81,1.12,0.10899980770764173,0.08247203142309362,0.1305238430117246,-62.53039470295739,-114.44938861164486,6.558216736441544,-0.1425,-0.519,-0.8408,0.0572
533542.0,518.673873,1.0,-2.86,0.45,-9.52,32.5,7.88,35.19,2.75,2.5,0.94,-0.0978915287170048,-0.06594502744119912,-0.14315243532308664,-62.58402657079336,-114.44938861164486,6.546738821065048,-0.1415,-0.5194,-0.8408,0.0571
533579.0,518.705787,1.0,-2.91,0.25,-9.45,32.75,7.88,33.88,1.63,1.37,0.81,-0.23102708333239552,0.08506825320563571,-0.08134726330177777,-62.597436921358636,-114.44938861164486,6.581172764918963,-0.141,-0.5195,-0.8408,0.0574
533614.0,518.729911,1.0,-3.15,0.5,-9.05,32.75,8.19,34.75,-1.31,-2.94,2.63,0.15902842303476072,0.2681405101782464,0.21614372413174188,-62.6779190768701,-114.34362489902878,6.6156073036906555,-0.1413,-0.5201,-0.8403,0.0577
533649.0,518.768837,1.0,-2.88,0.6,-9.52,32.75,8.19,34.75,2.88,4.06,1.0,0.06587313253470484,-0.11269466231487513,-0.1566707638565905,-62.745013841218636,-114.32249031100717,6.6156073036906555,-0.1404,-0.5206,-0.8402,0.0577
533682.0,518.814153,1.0,-2.94,0.57,-9.52,32.75,8.56,34.75,2.69,-1.0,0.19,0.08215576726966534,-0.054321448267079964,-0.17278884244813142,-62.771858453659014,-114.30136176070127,6.707435672786218,-0.1398,-0.5208,-0.8401,0.0585
533719.0,518.850191,1.0,-3.04,0.49,-9.12,32.75,8.19,35.19,1.88,-0.5,-0.25,0.1303487921963533,0.15940151667579655,0.18304878481789721,-62.78528219858726,-114.30136176070127,6.764830589593756,-0.1396,-0.5209,-0.8401,0.059
533753.0,518.892636,1.0,-3.03,0.4,-9.09,32.75,8.19,35.19,2.69,1.19,-0.69,0.06756912874498422,0.19369803841458466,0.2187975041198662,-62.79870690317408,-114.30136176070127,6.8451863308548155,-0.139,-0.521,-0.8401,0.0597
533788.0,518.925547,1.0,-3.06,0.69,-9.4,32.5,8.19,34.75,5.75,1.06,-0.81,0.3062038825636373,0.005542115409089776,-0.09819267756231298,-62.81213256780961,-114.28023924222178,6.948505812979428,-0.1383,-0.5211,-0.84,0.0606
533823.0,518.956464,1.0,-2.83,0.48,-9.52,32.06,8.19,35.25,11.38,1.44,-4.19,0.07422163532985415,-0.15115091646603063,-0.13524843788903773,-62.75843566799939,-114.38591221182236,7.28146304696003,-0.1359,-0.5207,-0.8405,0.0635
533858.0,518.975257,1.0,-2.93,0.08,-9.24,32.75,9.0,34.88,6.88,0.94,-3.06,-0.14876688696027318,0.1614522707331465,0.11538065188985414,-62.69133611509606,-114.44938861164486,7.534092210574165,-0.1345,-0.5202,-0.8408,0.0657
533893.0,519.01863,1.0,-3.01,0.34,-9.25,32.75,9.0,34.88,7.94,0.37,-1.94,0.16234303807270778,0.09118258199230167,0.07507610495452433,-62.66450299518854,-114.51291967073887,7.775272426130342,-0.133,-0.52,-0.8411,0.0678
533927.0,519.078086,1.0,-3.2,0.48,-9.3,32.5,9.0,34.75,9.81,4.38,-3.81,0.4027095363019253,0.16230851573917604,-0.030619996045141207,-62.624260485526946,-114.55530415588285,7.982025743589274,-0.1316,-0.5197,-0.8413,0.0696
533962.0,519.09524,1.0,-3.19,0.08,-9.48,32.06,9.69,36.0,18.0,10.81,-6.69,0.1007463233604704,0.28047366758615433,-0.19155407373845001,-62.53039470295739,-114.70384241769943,8.269226458088283,-0.1282,-0.519,-0.842,0.0721
533997.0,519.155787,1.0,-3.31,0.28,-9.99,32.06,9.69,36.0,16.5,17.37,-18.75,0.42618628197426367,0.1852873961039141,-0.7108893431116794,-62.235691121359,-115.17264708179559,8.60244460934073,-0.1211,-0.5168,-0.8442,0.075
534032.0,519.16473,1.0,-3.2,-0.78,-10.85,31.25,10.06,35.69,44.81,18.06,-23.06,-0.2818475948900927,0.328942636063719,-1.5239836396264312,-61.70103395154206,-115.8815757150145,9.717547848465047,-0.1074,-0.5128,-0.8475,0.0847
534069.0,519.189142,1.0,-2.1,-3.46,-12.03,32.06,11.19,34.38,81.75,14.75,-36.19,-2.767986534458976,0.2041910073365507,-2.578787278415998,-61.07470873985765,-116.51040454017948,11.42075798112357,-0.0933,-0.5081,-0.8504,0.0995
534104.0,519.223792,1.0,-1.05,-5.0,-12.26,32.06,11.19,34.38,75.12,-19.87,-15.75,-4.059000562894959,-0.44616061287499886,-2.832003216934842,-60.55652194040018,-116.53218769347627,14.373061379793722,-0.0823,-0.5042,-0.8505,0.1251
534138.0,519.267583,1.0,-0.81,-4.53,-10.97,30.56,13.5,34.75,59.19,-71.06,51.88,-3.565014414159064,-1.035297822554184,-1.4954175385281925,-61.47425600283563,-114.810125415467,16.940979741891212,-0.0853,-0.5111,-0.8425,0.1473
534175.0,519.298937,1.0,-1.51,-2.5,-9.22,31.69,16.5,33.56,53.19,-113.44,80.06,-1.6070500150156608,-1.5312499810635578,0.393299706680887,-63.673390007198286,-110.95425230146968,20.21551264575777,-0.1104,-0.5275,-0.8239,0.1755
534210.0,519.354041,1.0,-2.0,-3.76,-5.48,34.0,16.06,30.25,70.25,-116.75,119.87,-2.6838186619519364,0.2873810524442082,3.4127052457458156,-66.1723759193083,-106.70060178693238,23.448298031292182,-0.1304,-0.5459,-0.8023,0.2032
534245.0,519.366647,1.0,-2.22,-1.82,-2.76,34.0,16.06,30.25,-64.5,-91.69,197.81,-1.2149329557169701,0.7880117679740795,6.097017219434355,-71.22495103692498,-99.93861474574966,24.549525110224607,-0.1718,-0.5823,-0.7657,0.2126
534280.0,519.407918,1.0,-2.85,1.66,-3.35,38.5,14.19,26.56,-105.31,-59.31,207.81,1.844193647423228,0.22934326148141793,5.488438395734076,-75.75858878812348,-94.66514358648429,22.454397929674286,-0.211,-0.614,-0.7353,0.1947
534319.0,519.460932,1.0,-3.51,3.15,-0.67,42.06,6.38,22.37,-82.25,24.44,173.13,3.148825742885418,2.265604758787642,7.04197433766619,-81.4607148625289,-88.82192034919495,18.599556301853195,-0.2416,-0.6525,-0.6998,0.1616
534353.0,519.490477,1.0,-3.29,5.75,-2.6,42.06,6.38,22.37,-65.25,95.37,119.62,5.126766920079065,1.1758152742768657,5.012870761449246,-84.81514815252169,-86.31402695866787,14.592535930080526,-0.2473,-0.6744,-0.684,0.127
534386.0,519.548323,1.0,-2.86,5.73,-2.99,41.75,-2.25,24.5,-17.25,152.75,65.0,4.828708778143403,1.2086212949545718,4.789140049709597,-88.37361278323944,-84.84619121478758,9.717547848465047,-0.2277,-0.697,-0.6746,0.0847
534423.0,519.551314,1.0,-1.78,7.04,-5.62,39.56,-7.56,27.25,-16.44,195.38,25.06,5.551691485569542,-0.061538828013577795,2.493009687426417,-89.90170904203454,-85.85932167442839,3.782208130568333,-0.1893,-0.7065,-0.6811,0.033
534458.0,519.583345,1.0,-0.11,8.82,-8.43,35.5,-9.5,30.56,-1.44,271.56,-39.94,6.730649349553333,-1.5782780514961763,-0.24704572473340392,-89.44922896161478,-88.07037290502618,-1.3636717386286215,-0.1469,-0.7037,-0.6951,-0.0119
534493.0,519.614971,1.0,2.44,8.92,-11.86,35.5,-9.5,30.56,10.81,323.81,-121.62,6.013898817440241,-2.922297089625695,-3.66453408802864,-84.67554928720209,-94.0413918640216,-8.97021831291304,-0.0707,-0.6735,-0.7316,-0.0782
534530.0,519.677783,1.0,2.71,5.67,-13.85,27.56,-9.88,38.25,70.44,233.81,-195.0,2.605159496714072,-1.5416117180862612,-5.098116932338781,-78.61764169313197,-99.88518184221611,-12.88430304585338,-0.0174,-0.6335,-0.7654,-0.1122
534566.0,519.695711,1.0,5.52,0.53,-13.83,18.0,-5.56,44.25,151.31,182.31,-234.38,-2.1348332391183713,-1.696092250870669,-4.842102783690892,-68.80458261894461,-109.15495063272715,-13.611082444309167,0.0527,-0.565,-0.8149,-0.1185
534601.0,519.720913,1.0,10.33,-8.94,-20.77,18.0,-5.56,44.25,151.81,47.88,-170.38,-11.663099259843461,0.8088125754008111,-12.132888232900717,-62.12863965657575,-115.38674111389929,-12.03128766143814,0.0914,-0.516,-0.8452,-0.1048
534636.0,519.773562,1.0,5.22,-6.26,-11.67,10.88,1.56,46.88,49.63,-200.0,1.5,-7.386007257354931,0.47863635677254335,-2.3524085175117797,-60.29131575913538,-118.74553859011928,-6.523783187455053,0.0638,-0.5022,-0.8605,-0.0569
534671.0,519.80028,1.0,2.56,-5.35,-8.35,10.0,8.25,45.69,11.81,-86.19,17.81,-5.695018993305882,1.0880097558530442,1.363807265644832,-61.19448635278198,-118.49856306250858,-3.679021045975539,0.0347,-0.509,-0.8594,-0.0321
534708.0,519.848146,1.0,3.1,-10.99,-2.71,15.5,9.06,43.88,-13.63,8.69,107.75,-11.14921586919241,2.398128981127318,7.035700182333617,-63.25572065292905,-116.4886280777146,-3.4841201823987773,0.0322,-0.5244,-0.8503,-0.0304
534743.0,519.869012,1.0,3.01,-5.79,-4.35,15.5,9.06,43.88,-220.5,82.12,259.75,-6.700060092939168,-0.42532377978506464,5.752640326435648,-72.32820965004784,-106.6622162163593,-10.166142467644526,0.0245,-0.5901,-0.8021,-0.0886
534779.0,519.911018,1.0,6.92,2.7,-10.23,16.87,7.19,43.38,-254.63,-5.31,408.5,-0.03970850797504122,-4.754235945886295,-1.9076559463733087,-83.073454311338,-94.6144322101244,-16.269308165184984,0.0052,-0.6631,-0.735,-0.1415
534816.0,519.96079,1.0,3.8,15.04,-10.63,13.19,-5.56,45.06,-221.75,-83.19,299.0,11.088536026885873,0.4883916438310534,-5.373743354017217,-95.68454734856134,-80.37634433071155,-20.611388956075043,-0.0457,-0.7413,-0.6453,-0.1789
534851.0,519.985712,1.0,3.35,9.83,-10.44,13.19,-5.56,45.06,-0.44,-74.5,91.0,6.244493800824468,0.33895490586597266,-3.525131829270018,-99.79619278642058,-76.3987758164682,-19.73845598070809,-0.0558,-0.7649,-0.6184,-0.1714
534884.0,520.018655,1.0,1.07,7.98,-7.96,12.38,-17.5,42.88,-11.31,-69.37,39.06,4.972340960370649,1.6701720845396013,-0.22695606072637098,-102.2103749169286,-74.35697442762856,-17.868391355752117,-0.07,-0.7783,-0.6043,-0.1553
534921.0,520.051786,1.0,0.09,6.2,-7.69,14.38,-18.56,41.5,-6.06,-42.25,-5.5,3.197895835720737,1.9664556349527795,0.6693246550403273,-102.61275550473172,-74.05524812454561,-17.03366959473287,-0.0787,-0.7805,-0.6022,-0.1481
534958.0,520.084527,1.0,-0.32,5.34,-6.81,15.75,-19.0,40.69,22.25,-5.5,-41.63,2.710889174344981,1.8921715584665773,1.8025968593874655,-101.82791147470901,-75.09226338481456,-15.945255673236543,-0.0823,-0.7762,-0.6094,-0.1387
534990.0,520.112013,1.0,1.33,3.11,-9.14,15.75,-19.0,40.69,33.56,14.56,-44.31,0.4050619050759161,-0.161181402342222,0.07060637804578818,-100.61802099879914,-76.57386047071425,-15.459416628401117,-0.0764,-0.7695,-0.6196,-0.1345
535027.0,520.151706,1.0,1.13,3.4,-9.76,16.19,-18.19,40.25,3.0,0.69,-42.44,0.5225596825677751,0.08179600420109356,-0.576737731942373,-99.10487032365977,-78.23310832001326,-15.170359975770202,-0.0736,-0.761,-0.6309,-0.132
535062.0,520.197578,1.0,0.71,3.45,-9.2,16.19,-17.06,42.0,2.94,-14.38,-43.63,0.6844640690026986,0.36623869779386387,-0.013939501373251062,-97.91103310726488,-79.49418709635786,-14.858287755594212,-0.0754,-0.7542,-0.6394,-0.1293
535097.0,520.219693,1.0,0.83,2.86,-9.35,16.19,-17.06,42.0,14.56,1.12,-50.75,0.137060612419746,-0.005007243915360449,-0.005189242263986316,-96.19801883290823,-81.3246878357526,-14.246021440356781,-0.0784,-0.7443,-0.6516,-0.124
535132.0,520.293863,1.0,0.67,2.48,-9.98,18.75,-15.25,40.69,-6.19,-3.88,-47.38,-0.4415351350925404,0.03775505179137528,-0.4891414353653776,-94.39496330484009,-83.11938905787156,-14.08435967436596,-0.0809,-0.7337,-0.6634,-0.1226
