TIME,ELAPSED_SECONDS,PSTATE,acc_x,acc_y,acc_z,mag_x,mag_y,mag_z,gyr_x,gyr_y,gyr_z,lin_x,lin_y,lin_z,eul_x,eul_y,eul_z,qua_w,qua_x,qua_y,qua_z
680505.0,636.732537,1.0,-4.43,2.28,-8.21,18.06,29.19,2.56,-0.12,2.19,0.37,0.06818028768626548,0.12192228062814305,0.20415624025938328,-27.395500797517954,-138.26285199839916,-7.5915129998336095,-0.2575,-0.2368,-0.9344,-0.0662
680538.0,636.7524129999998,1.0,-4.42,2.57,-8.49,18.06,29.19,2.56,1.88,-2.56,-1.12,0.031432261954912,-0.14423916878441426,-0.1029214879653999,-27.395500797517954,-138.26285199839916,-7.557060298129735,-0.2578,-0.2368,-0.9344,-0.0659
680574.0,636.797309,1.0,-4.44,2.22,-8.22,18.06,28.37,1.75,0.19,-1.94,-0.88,0.03563245794609435,0.15156316264398995,0.2052876521000897,-27.38370633207425,-138.26285199839916,-7.442222882076424,-0.2584,-0.2367,-0.9344,-0.0649
680609.0,636.855892,1.0,-4.48,2.4,-8.12,19.25,30.25,2.56,0.81,-0.5,-0.56,0.19160591870822224,0.007177602351305935,0.2291745678237085,-27.38370633207425,-138.23069557304194,-7.407773121999347,-0.2584,-0.2367,-0.9343,-0.0646
680646.0,636.923925,1.0,-4.26,2.23,-8.65,19.25,30.25,2.56,1.56,1.25,0.12,-0.3056225581411607,0.045847450567303216,-0.08513916390921494,-27.395500797517954,-138.29503211078548,-7.361841150905901,-0.258,-0.2368,-0.9345,-0.0642
680679.0,637.0182980000002,1.0,-4.4,2.21,-8.49,18.87,29.5,3.38,2.25,-3.13,0.19,-0.13761423164630482,0.11863963722059268,-0.006157292499361589,-27.407295558849807,-138.23069557304194,-7.304427851725569,-0.2587,-0.2369,-0.9343,-0.0637
680716.0,637.028701,1.0,-4.44,2.42,-8.2,19.25,29.5,1.75,0.12,-0.5,1.25,0.12368500457909967,-0.045770786852573415,0.1737580637892986,-27.43088596976693,-138.19856277995768,-7.304427851725569,-0.2589,-0.2371,-0.9342,-0.0637
680753.0,637.0754440000002,1.0,-4.45,2.53,-8.4,19.25,29.5,1.75,-0.5,1.37,1.25,0.07437469807609434,-0.13267057069416066,-0.02901301394866884,-27.466273808985672,-138.1664535645985,-7.327392950256605,-0.2588,-0.2374,-0.9341,-0.0639
680785.0,637.0933769999998,1.0,-4.37,2.48,-8.57,19.25,29.19,1.25,1.5,-1.69,0.06,-0.08709734964678942,-0.12924371147466251,-0.12652220804757694,-27.478070348739482,-138.1664535645985,-7.304427851725569,-0.2585,-0.2375,-0.9341,-0.0637
680820.0,637.096512,1.0,-4.48,2.36,-8.43,18.5,29.5,3.0,1.44,-1.44,0.0,0.01121926256364636,0.018841048005509453,-0.02719050831909442,-27.501664319152926,-138.1343678726239,-7.247016388579905,-0.259,-0.2377,-0.934,-0.0632
680857.0,637.133252,1.0,-4.47,2.39,-8.34,19.25,28.75,2.56,0.88,0.06,0.63,0.06299666059015915,-0.012625838559904956,0.04732256369809207,-27.52525947842401,-138.1343678726239,-7.23553431499132,-0.259,-0.2379,-0.934,-0.0631
680892.0,637.1397860000002,1.0,-4.37,2.48,-8.72,19.25,28.75,2.56,1.25,-0.63,0.19,-0.17137445018163922,-0.14572433369598836,-0.25491524683877564,-27.52525947842401,-138.1343678726239,-7.212570385921347,-0.2591,-0.2379,-0.934,-0.0629
680927.0,637.196948,1.0,-4.48,2.24,-8.56,18.5,29.5,2.06,1.44,-4.5,-0.44,-0.1172319566218194,0.1006851392566024,-0.1098876604477983,-27.537057504249983,-138.0702668424954,-7.1207175606295605,-0.2599,-0.23800000000000002,-0.9338,-0.0621
680964.0,637.2523679999998,1.0,-4.62,2.41,-8.11,18.87,30.25,2.06,0.44,-3.19,0.88,0.27189276863224243,0.0130800934121722,0.17075340271742512,-27.560654449020664,-137.97429037596618,-7.086273935339353,-0.2609,-0.2382,-0.9335,-0.0618
680996.0,637.27887,1.0,-4.48,2.43,-8.56,18.87,30.25,2.06,2.19,0.19,0.0,-0.051300866031267656,-0.08025113731820087,-0.15526889025922586,-27.59605210118816,-137.97429037596618,-7.040350098228411,-0.2607,-0.2385,-0.9335,-0.0614
681031.0,637.3199440000002,1.0,-4.53,2.38,-8.46,19.25,30.25,2.56,3.5,-2.56,-1.06,0.013209251861222876,-0.03533814992775053,-0.08048693294600362,-27.60785191517117,-137.94234469461358,-6.9025853499261425,-0.2612,-0.2386,-0.9334,-0.0602
681066.0,637.331754,1.0,-4.59,2.34,-8.17,18.87,28.75,2.06,4.31,-0.94,-2.88,0.18795589183113293,0.012395930492157705,0.1496774452272991,-27.57245336826063,-137.94234469461358,-6.7992683543101915,-0.2616,-0.2383,-0.9334,-0.0593
681101.0,637.3796679999998,1.0,-4.35,2.16,-8.5,18.87,28.75,2.06,3.69,-2.31,-0.81,-0.2256717832803917,0.02557240558644014,0.01959128461959203,-27.584252585600556,-137.97429037596618,-6.627085616027943,-0.2614,-0.2384,-0.9335,-0.0578
681136.0,637.468382,1.0,-4.45,2.24,-8.15,20.0,29.87,1.75,13.0,-4.0,2.0,0.06516660681014261,-0.03863943035723194,0.25485120041368425,-27.702261187008638,-137.91042216197232,-6.3057176080928565,-0.262,-0.2394,-0.9333,-0.055
681170.0,637.5350080000002,1.0,-4.49,1.81,-7.39,18.5,29.5,2.06,10.94,0.81,3.75,0.33233771603800605,0.3387290201788493,0.9849089987357172,-27.89113735405041,-137.87852272532075,-5.9614497572311125,-0.2612,-0.24100000000000002,-0.9332,-0.052000000000000005
681207.0,637.5733240000002,1.0,-3.99,1.81,-7.82,19.25,30.69,2.06,0.25,10.88,6.13,-0.20917715333094566,0.10552187722112794,0.8459742413335736,-28.09190303440269,-138.03825139668672,-5.949975106955117,-0.2583,-0.2427,-0.9337,-0.0519
681240.0,637.58815,1.0,-3.83,2.2,-7.24,19.25,30.69,2.06,1.81,8.0,7.44,0.17784466242031596,-0.25694340753797484,1.331459656333882,-28.35184823709937,-138.0702668424954,-6.076199569788739,-0.2553,-0.2449,-0.9338,-0.053
681277.0,637.590692,1.0,-3.53,2.18,-6.14,19.25,29.5,2.56,2.56,16.44,9.25,0.5470007277394614,-0.3243428647042021,2.4236633475694287,-28.576466242296,-138.23069557304194,-6.168003805570946,-0.2518,-0.2468,-0.9343,-0.0538
681312.0,637.5934490000002,1.0,-3.1,2.31,-5.64,19.56,29.5,3.0,-3.81,27.81,10.44,0.5994519071625959,-0.5788348843904502,3.019801866469102,-28.81302746748213,-138.48861330559185,-6.443440527613203,-0.24600000000000002,-0.2488,-0.9351,-0.0562
681347.0,637.6321370000003,1.0,-3.42,1.74,-5.13,19.56,29.5,3.0,-6.81,42.44,12.13,0.9631295759220192,0.1872970443807369,3.4759153477538245,-29.09706672256259,-139.1073977684417,-7.051830951076286,-0.2349,-0.2512,-0.937,-0.0615
681381.0,637.6482639999998,1.0,-3.37,1.36,-6.87,18.5,29.19,3.75,-17.37,51.31,15.81,0.1243868454654743,0.7059909423304223,2.0678190351822145,-29.40498230512227,-139.80191665328087,-8.269226458088282,-0.22,-0.2538,-0.9391,-0.0721
681416.0,637.651255,1.0,-2.82,2.92,-8.98,18.06,28.37,5.38,-26.75,58.38,21.56,-0.3937842012333411,-0.5805988897803966,-0.02325533688116544,-29.677550179192284,-140.17034192327273,-9.62554711472919,-0.2083,-0.2561,-0.9402,-0.0839
681453.0,637.685649,1.0,-2.28,2.08,-9.84,18.06,28.37,5.38,-23.75,55.31,18.31,-1.37267088260539,0.17621210991870018,-0.4127004656785989,-29.9147053648035,-140.54206620040912,-10.810553401892458,-0.1959,-0.2581,-0.9413,-0.0942
681488.0,637.695478,1.0,-2.67,3.46,-9.18,15.5,27.69,5.38,-32.88,45.56,25.5,0.01278562504630637,-0.4497049760162009,-0.3506381204747964,-30.365662677140477,-140.54206620040912,-12.653689634339962,-0.1823,-0.2619,-0.9413,-0.1102
681523.0,637.709472,1.0,-2.96,4.93,-8.22,14.75,25.5,8.19,-36.88,47.0,24.25,1.4553454119370932,-1.2525870092312252,-0.03956224208877579,-30.828988678187994,-140.30512782111506,-14.534774284595127,-0.1693,-0.2658,-0.9406,-0.1265
681558.0,637.75017,1.0,-1.29,4.71,-10.12,13.56,23.56,10.69,-35.06,52.0,15.63,-0.5454939565058832,-1.379757707697029,-1.3316310617916347,-30.971654123503786,-140.30512782111506,-15.864262703092981,-0.1577,-0.267,-0.9406,-0.138
681592.0,637.805957,1.0,-1.64,3.34,-10.26,13.56,23.56,10.69,-26.12,44.94,10.69,-0.7731553117910817,0.3320786296449372,-1.0747448851965853,-30.94787313807167,-140.23768007093892,-17.532071555357696,-0.1453,-0.2668,-0.9404,-0.1524
681629.0,637.816767,1.0,-2.18,4.14,-10.25,12.56,22.5,12.0,-39.25,31.19,16.44,0.09276307164463754,0.27384668814906377,-1.45704846027178,-31.04300528938303,-139.80191665328087,-18.92476206303288,-0.1392,-0.2676,-0.9391,-0.1644
681666.0,637.865881,1.0,-1.82,4.54,-10.71,10.69,21.06,13.38,-32.31,28.62,11.88,-0.11551272657676408,0.2402195023883236,-1.9643759281284032,-31.185744677827834,-139.1730548258568,-20.611388956075047,-0.1321,-0.2688,-0.9372,-0.1789
681701.0,637.922938,1.0,-1.76,4.27,-11.19,10.69,21.06,13.38,-27.25,21.37,12.31,-0.4104160396986781,0.7841976268962481,-2.2665928434256344,-31.26903222594612,-138.74807199122864,-21.63717831946884,-0.1277,-0.2695,-0.9359,-0.1877
681736.0,637.93794,1.0,-2.36,5.18,-10.21,10.69,18.75,14.38,-24.25,12.06,10.81,0.8271553189233917,0.3798780934013135,-1.847431118326341,-31.47137263789784,-138.03825139668672,-22.82836708787642,-0.125,-0.2712,-0.9337,-0.1979
681771.0,637.97363,1.0,-1.42,5.14,-10.69,9.69,17.0,13.75,-7.31,15.06,6.38,-0.06425674597483644,0.1781968517774155,-2.1380650218250654,-31.56662645811723,-137.78296246704429,-23.41318918903326,-0.1208,-0.272,-0.9329,-0.2029
681807.0,637.989243,1.0,-0.83,5.35,-10.6,9.0,17.0,14.75,0.81,5.38,2.19,-0.38682939625113066,-0.2968078158775578,-2.085938790445498,-31.59044340777591,-137.75115489107054,-23.565343649892732,-0.1188,-0.2722,-0.9328,-0.2042
681842.0,638.0324410000002,1.0,-1.06,4.48,-9.55,9.0,17.0,14.75,7.31,0.31,-2.06,-0.22443689618342247,0.13310950783895947,-0.7918597980119131,-31.578534757977327,-137.91042216197232,-23.35467940290321,-0.1182,-0.2721,-0.9333,-0.2024
681877.0,638.087574,1.0,-0.83,3.74,-9.22,9.69,16.25,14.88,3.31,0.63,-1.63,-0.6356825345651338,0.4543237321684388,-0.14696229210970554,-31.507090202315183,-138.03825139668672,-23.2493773342699,-0.1179,-0.2715,-0.9337,-0.2015
681914.0,638.107596,1.0,-0.63,3.17,-9.48,9.69,16.37,14.69,3.25,0.44,1.19,-1.135067513709621,0.8513699747447434,-0.10813647805509953,-31.56662645811723,-138.0702668424954,-23.155792207151627,-0.1175,-0.272,-0.9338,-0.2007
681947.0,638.110932,1.0,-0.14,3.15,-10.37,9.69,16.37,14.69,-1.88,-5.06,9.19,-1.849935687455041,0.8609828227050822,-0.8383228290534905,-31.79294414962257,-137.87852272532075,-23.12070182440919,-0.1182,-0.2739,-0.9332,-0.2004
681981.0,638.225032,1.0,-0.08,3.05,-10.39,9.0,16.75,15.56,-0.56,-13.81,13.69,-1.9952116176487809,0.8868833239771978,-0.7996485329685346,-32.38912849332685,-137.339715842895,-23.08561363949995,-0.1208,-0.2789,-0.9315,-0.2001
682018.0,638.232368,1.0,-0.03,2.25,-10.05,9.0,17.06,14.69,-0.94,-20.69,27.06,-2.3460271404276765,1.3218898729108035,-0.1339065146159033,-33.15356371555689,-136.65191882638644,-22.96866884885643,-0.1237,-0.2853,-0.9293,-0.1991
682053.0,638.238098,1.0,-0.06,2.95,-9.82,9.0,17.06,14.69,-9.25,-31.06,39.69,-2.03618172654014,0.7159906826595943,-0.21731235621665945,-34.747070547477996,-134.97619058332577,-23.12070182440919,-0.1312,-0.2986,-0.9238,-0.2004
682088.0,638.286538,1.0,-0.68,3.95,-8.97,10.06,16.75,15.19,-6.88,-40.56,46.81,-0.8478351553747835,0.09797689348228422,0.019036599499639092,-36.25106819831296,-133.41553604515124,-23.190884791431426,-0.1387,-0.3111,-0.9185,-0.201
682125.0,638.338405,1.0,-0.67,4.37,-8.8,11.19,15.25,14.38,-7.06,-38.88,50.0,-0.6933794302054862,-0.2605963942907312,-0.013590042129857594,-38.367646412161214,-131.20453254720215,-23.237678334824075,-0.1484,-0.3286,-0.9107,-0.2014
682160.0,638.348973,1.0,-1.42,5.36,-7.75,12.25,13.75,12.88,-11.25,-43.0,49.38,0.7273313672264299,-0.6947320692261343,0.3305307292100128,-39.97315559242056,-129.45833846115224,-23.34297818708293,-0.1565,-0.3418,-0.9043,-0.2023
682194.0,638.4040719999998,1.0,-1.85,6.12,-7.35,12.25,13.75,12.88,-10.69,-38.38,45.56,1.5203939128178543,-0.9315053818982348,0.2295888603099634,-41.93029563540066,-127.27433384194984,-23.47170516617001,-0.1665,-0.3578,-0.8959999999999999,-0.2034
682229.0,638.453184,1.0,-2.03,6.23,-7.28,13.19,13.25,12.0,-4.25,-26.81,35.69,1.6868648080629205,-0.8355892856694602,0.19475748785686686,-43.14768015800515,-125.97311846044451,-23.49511329436541,-0.1719,-0.3677,-0.8909,-0.2036
682266.0,638.4592769999998,1.0,-2.14,6.54,-7.36,13.19,12.19,11.5,-0.88,-18.5,27.12,1.8610214138330965,-0.8653945755953756,-0.05785665394802386,-44.43208368482341,-124.62622879876837,-23.530227351542678,-0.1769,-0.3781,-0.8855,-0.2039
682303.0,638.4966099999998,1.0,-2.24,6.38,-7.14,13.19,12.19,11.5,-5.0,-17.5,15.25,1.835297202645988,-0.6943347940326037,0.17071811088021605,-45.01445861245965,-123.74483108000663,-23.76437852052494,-0.1827,-0.3828,-0.8819,-0.2059
682336.0,638.5515740000002,1.0,-2.21,5.63,-7.48,14.0,11.0,11.88,2.06,-10.13,8.81,1.1177454218571057,-0.15637652804155788,0.25376606092719634,-45.44893918092666,-123.04393663031479,-23.89320452199912,-0.1876,-0.3863,-0.879,-0.207
682371.0,638.5685129999998,1.0,-2.19,5.48,-7.55,14.5,10.88,11.38,-1.31,-4.56,6.69,0.9588018611942624,-0.05172823495657575,0.27213254075337545,-45.74726752330664,-122.70838865597605,-23.91663071897709,-0.1891,-0.3887,-0.8776,-0.2072
682407.0,638.608874,1.0,-1.88,5.88,-7.92,15.38,10.06,11.0,-4.69,-2.25,3.38,0.7980907305429155,-0.43089481314196254,-0.19397902250797827,-45.84678304356361,-122.51745226375392,-24.05720924110893,-0.1901,-0.3895,-0.8768,-0.2084
682442.0,638.671271,1.0,-1.87,5.36,-7.9,15.38,10.06,11.0,0.81,-1.81,-0.19,0.4703463953479966,-0.12727943492638705,0.09073140144082892,-45.85922505196,-122.44600053491276,-24.080642561887807,-0.191,-0.3896,-0.8765,-0.2086
682479.0,638.68513,1.0,-1.89,5.06,-8.23,14.19,11.25,11.0,-3.94,1.19,-1.5,0.13274254289303622,0.14641507776455456,-0.03558257408142573,-45.78458156617274,-122.46980875996977,-24.127512270969643,-0.191,-0.389,-0.8766,-0.209
682514.0,638.690335,1.0,-1.63,5.09,-8.4,14.25,10.0,11.25,-1.06,0.88,-0.63,-0.10522842790863562,-0.01978541804037981,-0.1489281105465139,-45.709958605695505,-122.49362599915794,-24.232984111333426,-0.191,-0.3884,-0.8767,-0.2099
682549.0,638.72824,1.0,-1.61,4.95,-8.25,14.25,10.0,11.25,-1.75,-0.69,-1.88,-0.1321844792511836,0.016204162763514773,0.05270901757888069,-45.67265480727474,-122.51745226375392,-24.24470448957822,-0.1912,-0.3881,-0.8768,-0.21
682584.0,638.786479,1.0,-1.65,5.1,-8.31,15.5,10.0,10.5,-0.81,3.25,-0.12,-0.04545523826305664,-0.018022880681788145,-0.08204096478833378,-45.61049316943376,-122.54128756505699,-24.32675435471253,-0.1907,-0.3876,-0.8769,-0.2107
682618.0,638.844158,1.0,-1.43,5.01,-8.81,15.06,10.0,10.06,-3.13,3.13,-1.0,-0.479588527401925,-0.0007595725157223399,-0.4173949073463117,-45.54834570673154,-122.58898532309729,-24.420541139763646,-0.1899,-0.3871,-0.8771,-0.2115
682655.0,638.861688,1.0,-1.5,4.92,-8.52,15.06,9.69,10.5,0.5,-2.19,-1.12,-0.3606189474365038,0.03518516652995407,-0.13897798312937226,-45.511064021543426,-122.58898532309729,-24.420541139763646,-0.1907,-0.3868,-0.8771,-0.2115
682690.0,638.939337,1.0,-1.72,5.09,-8.19,15.06,9.69,10.5,0.5,-1.06,-1.37,0.035320354084592887,0.01865393739575305,0.011702092879358972,-45.49863792387894,-122.58898532309729,-24.40881688456287,-0.1912,-0.3867,-0.8771,-0.2114
682725.0,638.949222,1.0,-1.57,4.87,-8.58,14.69,10.75,11.25,0.0,1.56,-1.37,-0.3843114325596545,0.1247142707573654,-0.17508086561010572,-45.43651590599992,-122.63671936413529,-24.40881688456287,-0.1911,-0.3862,-0.8773,-0.2114
682760.0,638.952228,1.0,-1.59,4.97,-8.34,14.25,9.69,12.06,3.25,-2.06,-0.37,-0.1946830197330736,0.014001666774471566,-0.029329995666680375,-45.461363019954995,-122.63671936413529,-24.350199497398,-0.1915,-0.3864,-0.8773,-0.2109
682795.0,639.024399,1.0,-1.81,5.17,-7.98,14.25,9.69,12.06,-2.88,-2.5,0.19,0.2325850680632701,-0.03048171970183412,0.13037101214118252,-45.47378742330781,-122.58898532309729,-24.31503217113493,-0.1922,-0.3865,-0.8771,-0.2106
682829.0,639.029829,1.0,-1.65,4.95,-8.37,14.25,10.75,10.88,-1.0,1.0,-0.69,-0.18780443841542327,0.06840411378062505,-0.05448332077653895,-45.461363019954995,-122.63671936413529,-24.303310245881057,-0.1919,-0.3864,-0.8773,-0.2105
682866.0,639.083117,1.0,-1.56,4.95,-8.55,14.25,10.0,11.25,0.37,-4.69,-0.75,-0.3379081840371543,0.034012554883269264,-0.1895123238756522,-45.461363019954995,-122.63671936413529,-24.279867169785643,-0.1922,-0.3864,-0.8773,-0.2103
682901.0,639.091559,1.0,-1.84,5.18,-8.04,14.25,10.0,11.25,-2.06,-1.44,1.75,0.2232528363326105,-0.007401661746034627,0.0696225590161319,-45.49863792387894,-122.5651319143896,-24.279867169785643,-0.1926,-0.3867,-0.877,-0.2103
682936.0,639.150212,1.0,-1.77,5.17,-8.29,14.69,9.69,10.88,0.5,-0.5,-0.56,0.04034554040937,0.0030817927323067984,-0.12231080866082422,-45.486212391208106,-122.5651319143896,-24.31503217113493,-0.1929,-0.3866,-0.877,-0.2106
682971.0,639.208936,1.0,-1.6,5.14,-8.64,14.69,10.38,10.88,1.63,-0.81,-1.63,-0.2608326105294033,-0.032337622611088516,-0.3697993133630977,-45.43651590599992,-122.58898532309729,-24.31503217113493,-0.1929,-0.3862,-0.8771,-0.2106
683008.0,639.219063,1.0,-1.79,4.89,-8.15,15.06,10.0,11.69,0.63,-1.06,-1.06,-0.05245872801966245,0.14257203865614132,0.13630247286075736,-45.39924946360132,-122.61284780254854,-24.25642512530879,-0.1935,-0.3859,-0.8772,-0.2101
683042.0,639.227792,1.0,-1.77,5.05,-8.11,15.06,10.0,11.69,-0.31,2.75,0.19,0.052816717658943024,0.026583899240308902,0.09047772432287003,-45.37440798509372,-122.63671936413529,-24.291588578811197,-0.1932,-0.3857,-0.8773,-0.2104
683079.0,639.2672570000002,1.0,-1.58,5.0,-8.63,14.25,10.38,11.69,1.19,4.5,0.25,-0.3396056423662658,0.04398003583253152,-0.2857250308894645,-45.33714998751986,-122.70838865597605,-24.350199497398,-0.192,-0.3854,-0.8776,-0.2109
683114.0,639.327083,1.0,-1.6,5.15,-8.46,14.69,10.75,9.69,-0.56,-4.44,-2.5,-0.15149575745047594,-0.07935512319259219,-0.2245439369098872,-45.324731779489326,-122.73229666048941,-24.303310245881057,-0.1921,-0.3853,-0.8777,-0.2105
683149.0,639.3308480000002,1.0,-1.7,4.92,-8.24,14.69,10.75,9.69,0.5,-1.06,-0.88,-0.11730547146445568,0.0724318955579184,0.061138569250434927,-45.29989704883653,-122.7801400993836,-24.221263990434842,-0.1925,-0.3851,-0.8779,-0.2098
683182.0,639.42703,1.0,-1.62,5.1,-8.67,14.25,10.0,10.5,0.06,2.13,-0.81,-0.2701712131068449,0.001433590055830436,-0.3781575809230677,-45.2750645639147,-122.80407555685306,-24.24470448957822,-0.1921,-0.3849,-0.878,-0.21
683218.0,639.432333,1.0,-1.62,4.96,-8.51,14.69,10.0,11.25,1.88,0.19,-1.44,-0.26268443459292035,0.047936990543034685,-0.17206729896985706,-45.225406324165256,-122.89990924402274,-24.20954412674289,-0.1916,-0.3845,-0.8784,-0.2097
683253.0,639.442335,1.0,-1.79,4.83,-8.2,14.69,10.0,11.25,-0.56,-1.69,-0.44,-0.07462410902510819,0.17495571348443972,0.12487218078356575,-45.225406324165256,-122.92389068833596,-24.127512270969643,-0.1917,-0.3845,-0.8785,-0.209
683286.0,639.482532,1.0,-1.77,5.03,-8.3,14.25,10.38,11.38,-2.19,1.75,1.0,-0.020159724760267617,0.06441471209051564,-0.058401663846671774,-45.23782004339508,-122.89990924402274,-24.162667241251803,-0.1917,-0.3846,-0.8784,-0.2093
683321.0,639.5331259999998,1.0,-1.69,5.15,-8.19,14.69,9.69,10.88,-0.31,0.56,-1.0,0.05917129050578085,-0.08936631289449304,-0.0139005151442273,-45.225406324165256,-122.92389068833596,-24.186105170420962,-0.1914,-0.3845,-0.8785,-0.2095
683358.0,639.550011,1.0,-1.72,5.01,-8.31,14.69,9.69,10.5,0.75,0.06,-1.19,-0.059232042890437035,0.040902392873447546,-0.04776112189623838,-45.200580565791434,-122.97188128580086,-24.15094866150093,-0.1912,-0.3843,-0.8787,-0.2092
683393.0,639.5898900000002,1.0,-1.67,4.97,-8.29,14.69,9.69,10.5,-1.19,0.56,-0.19,-0.10186282863187657,0.02035716830908907,-0.0016683854237484752,-45.188168526204606,-122.97188128580086,-24.127512270969643,-0.1911,-0.3842,-0.8787,-0.209
683429.0,639.6086190000002,1.0,-1.7,4.87,-8.33,14.69,10.0,10.06,-0.81,2.44,0.25,-0.15667150597165058,0.12353297873896807,0.010936976315585769,-45.1757570460561,-122.9958904624243,-24.174386077512,-0.1906,-0.3841,-0.8788,-0.2094
683462.0,639.649099,1.0,-1.67,4.91,-8.42,15.75,9.69,10.88,-0.19,1.69,0.88,-0.1856208255886672,0.10034771524449093,-0.08015308518142739,-45.1757570460561,-123.01990890666336,-24.174386077512,-0.19,-0.3841,-0.8789,-0.2094
683497.0,639.7170480000002,1.0,-1.61,5.17,-8.54,15.75,9.69,10.88,-1.81,-0.06,0.69,-0.12462537341510715,-0.06992866264225661,-0.3043429531397788,-45.200580565791434,-122.9958904624243,-24.20954412674289,-0.1897,-0.3843,-0.8788,-0.2097
683532.0,639.720364,1.0,-1.72,5.07,-8.16,14.69,10.0,11.25,-0.12,-0.69,0.0,0.07106089786962766,-0.012687260379380394,0.04736266012635504,-45.21299316503786,-122.9958904624243,-24.197824520118107,-0.1899,-0.3844,-0.8788,-0.2096
683569.0,639.7683450000002,1.0,-1.54,5.09,-8.49,15.06,10.38,11.25,1.25,-0.31,-0.94,-0.19289780312321286,-0.08788614043533992,-0.2090809500540036,-45.188168526204606,-123.01990890666336,-24.197824520118107,-0.1898,-0.3842,-0.8789,-0.2096
683603.0,639.809536,1.0,-1.65,4.76,-8.42,15.06,10.38,11.25,1.0,0.44,0.0,-0.2803080196389427,0.1805067068339925,0.00025694531806941256,-45.1757570460561,-123.04393663031479,-24.174386077512,-0.1896,-0.3841,-0.879,-0.2094
683638.0,639.826511,1.0,-1.66,4.95,-8.41,14.69,10.0,10.06,-1.63,-0.81,1.12,-0.1615386273119932,0.07375918671330339,-0.0905549010951372,-45.200580565791434,-122.9958904624243,-24.20954412674289,-0.1898,-0.3843,-0.8788,-0.2097
683673.0,639.881533,1.0,-1.49,5.11,-8.44,15.06,10.0,10.06,1.44,0.25,-0.5,-0.18703662088023987,-0.15010951442249398,-0.16873392424720635,-45.200580565791434,-122.9958904624243,-24.186105170420962,-0.1898,-0.3843,-0.8788,-0.2095
