acc_x,acc_y,acc_z,eul_x,eul_y,eul_z
-2.94,2.63,-9.07,-25.700071520307283,-144.1275913572786,-11.962154211464537
-2.98,2.94,-8.94,-25.74708778893412,-144.05324557319378,-12.019765115233204
-3.0,2.94,-8.92,-25.782352883412447,-143.97904817901198,-12.00824269100582
-2.97,2.9,-8.79,-25.8058643261674,-143.97904817901198,-11.985198208002224
-2.84,2.88,-9.15,-25.82937687407415,-143.97904817901198,-12.00824269100582
-3.03,2.65,-8.85,-25.84113356281753,-143.94200484154302,-11.950632395319571
-3.01,2.79,-8.72,-25.852890528278607,-143.9049982588089,-11.950632395319571
-2.88,2.66,-8.96,-25.852890528278607,-143.94200484154302,-11.950632395319571
-2.98,2.63,-8.96,-25.88816308640127,-143.94200484154302,-11.962154211464537
-3.0,2.89,-8.82,-25.923438140144054,-143.9049982588089,-12.00824269100582
-2.99,2.81,-8.83,-25.94695623100749,-143.86802831777294,-12.042810329741007
-2.94,2.88,-9.06,-25.970475433904987,-143.86802831777294,-12.111948910357556
-2.97,2.57,-8.87,-26.00575632582789,-143.86802831777294,-12.06585603312212
-2.84,2.69,-9.19,-26.05280141790223,-143.86802831777294,-12.07737906844118
-2.81,3.0,-9.09,-26.1469050177391,-143.72051272987528,-12.134996086138983
-3.07,2.88,-8.57,-26.19396354392425,-143.61025532246643,-12.111948910357556
-3.12,2.71,-8.44,-26.19396354392425,-143.64697188895283,-12.123472436717575
-3.03,2.76,-8.47,-26.20572887768385,-143.68372432172094,-12.134996086138983
-2.99,3.03,-8.57,-26.1469050177391,-143.75733722307018,-12.227189726180756
-3.28,2.85,-7.83,-25.970475433904987,-144.0161283848301,-12.296340166976414
-3.07,2.36,-8.16,-25.94695623100749,-144.3515283507124,-12.238714488577818
-2.8,2.93,-8.46,-26.01751718039721,-144.53918747848587,-12.434654560583263
-2.72,3.3,-8.43,-25.970475433904987,-144.87941908090357,-12.688278342697654
-2.15,2.85,-9.12,-25.82937687407415,-145.33809060162469,-12.838176201349
-2.12,2.42,-8.68,-25.700071520307283,-145.84171829017612,-13.161108413553292
-2.04,2.88,-8.14,-25.700071520307283,-146.07660730478975,-13.599542044193305
-1.55,2.62,-8.58,-25.61780363221793,-146.63092085313292,-14.407711711634985
-1.42,2.37,-8.59,-25.570799441600013,-146.951724947316,-15.124119969217904
-1.0,3.21,-8.73,-25.664812206839983,-146.9114591288739,-16.524012627926176
-0.16,2.77,-9.85,-25.770597576108926,-146.79094642726758,-17.833592505981915
0.01,2.95,-10.11,-25.94695623100749,-146.5113892939378,-18.576333132780547
-0.4,2.83,-9.47,-26.31162955164407,-145.84171829017612,-19.52912606682039
0.03,3.67,-9.76,-26.723683975588173,-145.10802458844395,-20.436707276203283
0.17,3.68,-10.4,-27.3719121623715,-144.09039985888563,-21.543853477197025
0.17,3.49,-9.91,-27.90294467602473,-143.3907030739344,-22.11569761985897
0.19,4.01,-9.54,-28.824858813433643,-142.0286696964437,-23.144095168471857
0.14,4.53,-9.7,-29.523469077350697,-140.98575914579104,-23.96348615709585
-0.02,4.46,-9.67,-30.44878609284871,-139.8686617976523,-24.52607113458515
0.13,4.72,-9.65,-31.19764186362961,-139.00910093867893,-24.924931536010146
0.19,4.87,-9.54,-32.162473260424385,-137.91042216197232,-25.35933459116607
0.14,5.02,-9.68,-32.914516343671416,-137.02578084639396,-25.71182517460624
-0.08,5.15,-9.09,-33.84764578735518,-136.06616582647524,-25.88816308640127
-0.27,4.86,-8.93,-34.471014881449136,-135.45749811569678,-25.970475433904987
-0.2,4.92,-9.28,-35.299808644002006,-134.64810211296725,-26.00575632582789
-0.14,5.15,-9.5,-35.997952375875286,-133.93995871664828,-26.00575632582789
-0.26,5.57,-9.29,-36.79407807568971,-133.12658560187518,-25.8176204619052
-0.48,5.34,-8.85,-37.446822845384496,-132.49673400768697,-25.394572616004385
-0.58,5.12,-8.93,-37.83422856646789,-132.09998463629478,-24.995350383000986
-1.38,5.92,-7.43,-38.3555137295299,-131.37124925693712,-24.40881688456287
-1.2,5.48,-8.75,-38.40404714248387,-131.37124925693712,-23.729249451725817
-1.23,5.38,-8.71,-38.17357699786608,-131.90276546625157,-22.24414695534977
-1.59,4.21,-8.22,-37.94326713356112,-132.38305943270692,-21.0191686635752
-1.91,4.45,-7.93,-37.604152605861614,-132.7820481898819,-19.889680039418103
-2.09,4.53,-8.02,-37.30166033497223,-133.12658560187518,-19.145524872704485
-1.95,3.69,-8.5,-36.951106460626896,-133.6770461216721,-18.286108128329392
-1.95,3.86,-8.86,-36.504367169981776,-134.1748557862076,-17.416134643761747
-2.38,3.89,-7.86,-36.07025258875129,-134.7075870499225,-16.5471716366683
-2.33,3.52,-7.95,-35.73297808318577,-135.09605869286386,-16.095692494623034
-2.02,3.65,-9.0,-35.34791273696944,-135.57859793518082,-15.760140597334962
-2.2,3.39,-8.75,-35.10745640434998,-135.79128033679729,-15.436288478593855
-2.68,3.87,-7.89,-34.831128724414064,-135.91325060474233,-15.205041610922963
-1.99,3.52,-9.47,-34.54300944397086,-136.311888173766,-14.962299399917931
-2.38,3.35,-8.84,-34.13522516911611,-136.68295663578678,-14.54632631618216
-2.7,3.19,-8.34,-33.871602322817786,-136.90081703525604,-14.211377245158012
-2.54,3.35,-8.64,-33.488479867763736,-137.30822333899698,-13.98044914927855
-2.67,3.11,-8.75,-33.16551997219127,-137.655868969081,-13.807290567361374
-2.71,2.89,-8.45,-32.771158669290664,-138.0702668424954,-13.576461659580188
-2.76,3.17,-8.11,-32.44879621422149,-138.39171512082905,-13.553381828311744
-2.62,2.91,-8.78,-32.01938920775377,-139.00910093867893,-13.576461659580188
-2.64,2.83,-8.72,-31.721461697138416,-139.3046731473042,-13.51876311679545
-2.58,2.75,-8.59,-31.459467480314125,-139.66874405322235,-13.461068017168213
-2.7,2.66,-8.16,-31.26903222594612,-140.00247242955643,-13.541842119876778
-2.24,2.75,-9.63,-31.078685498016352,-140.40650617828152,-13.8765501759761
-2.29,2.65,-8.49,-30.971654123503782,-140.50813431460048,-14.130545861300051
-2.18,2.51,-7.46,-30.91220422108664,-140.61001416599206,-14.534774284595128
-1.73,2.59,-8.96,-30.8765383737202,-140.67807487589178,-15.52880488350912
-1.9,2.72,-8.7,-30.91220422108664,-140.57602612666605,-16.003112701402525
-1.86,2.84,-8.34,-30.99543647635929,-140.33889297208822,-16.651395613206027
-2.17,3.3,-8.13,-31.19764186362961,-140.1031128223946,-17.253853117357277
-1.3,3.38,-9.5,-31.495183998739208,-139.96897956123578,-17.90319186690899
-1.43,3.16,-8.89,-31.74528777217434,-139.76858389100772,-18.34414360467089
-1.73,3.6,-8.63,-32.18632560419117,-139.37063539830643,-19.192010366536685
-1.13,4.25,-9.71,-32.556220911511176,-138.9763854221543,-19.92458285893285
-0.92,4.52,-9.24,-33.02206936424729,-138.4239905330992,-20.856024774540764
-1.17,4.46,-8.54,-33.285102998046874,-138.10230564989928,-21.590514086807826
-0.43,4.85,-9.87,-33.57225481905068,-137.655868969081,-22.73485185773412
-0.29,4.25,-9.54,-33.73986021591224,-137.3712305266047,-23.40148673707778
-0.09,5.2,-9.68,-33.991407904492696,-136.7450958533554,-24.54952511022461
-0.08,4.58,-9.05,-34.087279935508434,-136.4970459556038,-25.124476539770274
0.85,5.6,-11.17,-34.18317656247093,-136.15815825603806,-25.782352883412447
0.44,4.64,-9.37,-34.20715457242007,-136.34269592729157,-25.418065988790868
0.34,4.36,-9.21,-34.23113412634732,-136.4970459556038,-25.0892571067724
0.17,3.98,-8.97,-34.351055102879386,-136.58990657854866,-24.66681067830264
0.01,4.12,-8.82,-34.44701981345315,-136.58990657854866,-24.42054113976365
0.12,4.16,-8.9,-34.591013631336175,-136.65191882638644,-24.06892577380089
-0.09,3.99,-8.46,-34.795101425948374,-136.65191882638644,-23.64729041599085
0.15,4.27,-9.56,-34.97527349807247,-136.5279785234642,-23.483409106034056
-0.15,3.74,-8.83,-35.10745640434998,-136.46613430112782,-23.2493773342699
-0.14,4.3,-9.12,-35.33588611084891,-136.34269592729157,-23.02713820533729
-0.06,3.88,-9.29,-35.624636497255686,-136.15815825603806,-22.606293449751373
0.25,4.05,-10.16,-35.9377135193296,-135.91325060474233,-22.22079043012782
-0.64,2.98,-8.13,-36.4923011370016,-135.24632190274465,-21.403893300909647
-1.29,3.59,-7.34,-37.28956626386321,-133.7645266360233,-21.57884859507936
-1.61,3.89,-7.11,-37.89480115121914,-132.61066542040177,-22.372624603038307
-1.08,3.73,-7.84,-38.62253627833281,-131.37124925693712,-23.998630403703213
-0.34,4.31,-8.94,-39.2910517001401,-130.16081866157813,-25.8058643261674
-0.13,5.3,-8.52,-40.36359153375482,-128.0277034878583,-28.576466242296
0.2,5.66,-7.91,-41.07250897869503,-126.42902677997118,-30.650725683430657
0.62,5.64,-7.87,-41.88121344414589,-124.25742213626366,-33.6081640231361
1.55,7.36,-9.55,-42.43385492531204,-122.44600053491276,-36.03410062770514
2.24,7.86,-10.7,-43.16000282883873,-120.94052444578816,-37.42262477199783
0.89,6.44,-7.57,-43.83856273356188,-121.05687678616404,-36.23901092380315
0.39,5.84,-7.33,-44.593044465749166,-121.40719542947475,-34.42302630295278
0.39,5.62,-7.77,-44.927644585005865,-121.54785831198568,-33.67999263161277
1.32,7.26,-10.34,-45.33714998751986,-121.57133213564484,-32.651734221557824
-0.54,6.25,-6.82,-45.85922505196,-122.01898118079964,-30.425034873037013
-1.06,4.27,-6.06,-45.89655450704208,-122.92389068833596,-28.387306821530828
0.09,6.32,-9.83,-45.80946044511175,-122.87593702038136,-28.446410631571
-0.63,5.75,-8.09,-45.821900740364754,-123.26060567533968,-26.91216865613784
-1.49,4.41,-6.46,-45.7223943424676,-123.74483108000663,-25.688318141008548
-1.02,4.34,-8.1,-45.53591791274641,-124.1105266335135,-25.47680417585264
-0.35,5.83,-9.93,-45.424093194951936,-124.1105266335135,-25.688318141008548
-1.09,4.34,-7.91,-45.41167104755996,-124.42925156343009,-24.725463298356363
-1.5,4.68,-7.46,-45.324731779489326,-124.52765968867384,-24.596436196111345
-0.89,5.1,-8.74,-45.1509357631892,-124.67557399344672,-24.93666734562011
-0.66,4.88,-8.93,-45.10129990098643,-124.72495975966048,-25.07751783117069
-0.94,5.06,-8.63,-45.02686284001362,-124.72495975966048,-25.15969838503005
-1.09,4.89,-8.19,-44.989651826175965,-124.74966789127242,-25.14795750167836
-0.77,4.62,-8.63,-44.96484726352389,-124.72495975966048,-25.371080328389592
-0.58,5.29,-9.08,-44.989651826175965,-124.65089633148648,-25.547298987438325
-1.08,5.42,-8.12,-44.952445815509726,-124.65089633148648,-25.35933459116607
-0.75,4.28,-8.52,-44.85325420187507,-124.94770072590693,-25.06577882303193
-0.99,4.76,-8.27,-44.7912774389752,-125.02213252137535,-25.18318095723705
-0.63,5.0,-9.05,-44.77888374446125,-124.94770072590693,-25.265378432632108
-1.13,4.48,-7.83,-44.84085774318776,-124.87336158426491,-25.0892571067724
-1.04,4.88,-8.18,-44.82846183777319,-124.87336158426491,-25.18318095723705
-0.65,5.11,-9.27,-44.76649060212525,-124.9229107357918,-25.35933459116607
-0.69,4.86,-8.92,-44.76649060212525,-124.94770072590693,-25.21840683143225
-1.18,4.88,-7.84,-44.85325420187507,-124.79911472012829,-25.0892571067724
-0.91,4.59,-8.42,-44.803671685885895,-124.84860239500853,-25.21840683143225
-0.51,4.81,-9.4,-44.75409801174842,-124.87336158426491,-25.44156044788709
-0.67,5.2,-8.89,-44.75409801174842,-124.84860239500853,-25.5003013557049
-0.93,4.61,-8.15,-44.7912774389752,-124.79911472012829,-25.45330808515709
-0.83,5.56,-8.75,-44.803671685885895,-124.72495975966048,-25.559049077875773
-0.88,4.55,-8.38,-44.77888374446125,-124.84860239500853,-25.40631916668005
-0.96,5.06,-8.36,-44.76649060212525,-124.79911472012829,-25.488552629562964
-1.04,4.91,-8.24,-44.75409801174842,-124.79911472012829,-25.59430098947942
-0.93,5.09,-8.2,-44.70453316546126,-124.77438620684354,-25.782352883412447
-0.56,5.22,-9.16,-44.617815884427785,-124.82385344491156,-25.9587156933802
-0.77,4.85,-8.59,-44.54350821350816,-124.94770072590693,-25.8058643261674
-0.84,4.86,-8.4,-44.43208368482341,-125.1463924412778,-25.61780363221793
-0.81,4.74,-8.46,-44.37020029186166,-125.27091255577452,-25.60605217391993
-0.77,4.98,-8.7,-44.30833052387342,-125.29584795913512,-25.688318141008548
-0.94,4.88,-8.29,-44.28358642561688,-125.3707171892468,-25.570799441600013
-0.84,4.63,-8.27,-44.23410474921271,-125.49571017669872,-25.418065988790868
-0.61,4.83,-8.82,-44.17226486112258,-125.62096841990898,-25.418065988790868
-0.76,4.62,-8.6,-44.15989850900582,-125.64605206137207,-25.42981308247912
-0.76,5.04,-8.41,-44.17226486112258,-125.62096841990898,-25.45330808515709
-0.77,4.73,-8.5,-44.15989850900582,-125.67114640173416,-25.42981308247912
-0.79,4.97,-8.69,-44.14753269822064,-125.67114640173416,-25.45330808515709
-0.74,4.96,-8.71,-44.15989850900582,-125.696251455902,-25.34758912480893
