TIME,ELAPSED_SECONDS,PSTATE,acc_x,acc_y,acc_z,mag_x,mag_y,mag_z,gyr_x,gyr_y,gyr_z,lin_x,lin_y,lin_z,eul_x,eul_y,eul_z,qua_w,qua_x,qua_y,qua_z
1529511.0,1288.402016,1.0,0.87,1.65,-9.91,2.0,-26.06,36.0,-2.56,2.63,-0.94,0.15162914364103658,-0.0038000131224122033,-0.2762312431119565,-163.86220596785728,-12.58451568698019,-5.112479412053579,-0.0763,-0.9901,-0.1096,-0.0446
1529546.0,1288.439491,1.0,0.78,1.73,-9.78,2.0,-26.06,36.0,0.56,-0.88,0.06,0.10018254577231127,0.11142389162227867,-0.1546374757181006,-163.86220596785728,-12.561458728935325,-5.0780679322633615,-0.0763,-0.9901,-0.1094,-0.0443
1529579.0,1288.466262,1.0,0.65,1.52,-9.83,1.56,-24.87,36.38,1.44,0.12,0.31,-0.07461743489810263,-0.06123677617589812,-0.16092153451395494,-163.86220596785728,-12.561458728935325,-5.0780679322633615,-0.0759,-0.9901,-0.1094,-0.0443
1529616.0,1288.524871,1.0,0.76,1.83,-9.82,3.06,-25.25,36.69,-4.13,0.56,-1.5,0.09122022150784004,0.19892459840296567,-0.20888832179470285,-163.78077108801162,-12.596044357776794,-5.112479412053579,-0.0767,-0.99,-0.1097,-0.0446
1529651.0,1288.540123,1.0,0.59,1.49,-9.71,3.06,-25.25,36.69,4.69,-2.31,1.63,-0.12773894302862626,-0.07172020652900246,-0.03361620444840163,-163.86220596785728,-12.58451568698019,-5.0780679322633615,-0.0765,-0.9901,-0.1096,-0.0443
1529683.0,1288.585375,1.0,0.65,1.67,-9.9,2.0,-25.25,36.38,-3.5,2.19,-1.94,-0.05258705008319597,0.0676084956263305,-0.25387005084641423,-163.86220596785728,-12.596044357776794,-5.089538374458754,-0.0762,-0.9901,-0.1097,-0.0444
1529718.0,1288.6033619999996,1.0,0.99,1.69,-10.01,1.56,-24.56,35.56,1.06,-1.19,0.44,0.266476054445458,-0.008965879011239944,-0.3896831705775856,-163.78077108801162,-12.630631138714767,-5.112479412053579,-0.0764,-0.99,-0.11,-0.0446
1529755.0,1288.661967,1.0,0.62,1.55,-9.71,2.25,-24.87,35.19,2.13,-2.13,0.69,-0.07086397179614723,-0.010459847418864666,-0.0455512204934827,-163.86220596785728,-12.596044357776794,-4.997776256010228,-0.0759,-0.9901,-0.1097,-0.0436
1529790.0,1288.681347,1.0,0.51,1.59,-9.61,2.25,-24.87,35.19,-0.44,0.06,-0.75,-0.15328417055029175,0.06616399408060958,0.05409001356843568,-163.86220596785728,-12.596044357776794,-4.96336629149859,-0.0759,-0.9901,-0.1097,-0.0433
1529825.0,1288.732449,1.0,1.16,1.62,-10.12,2.0,-26.06,35.88,2.38,-2.63,1.19,0.4276873341306448,-0.11100524838497207,-0.4981625348817129,-163.94405112777469,-12.58451568698019,-4.997776256010228,-0.0754,-0.9902,-0.1096,-0.0436
1529862.0,1288.7495509999999,1.0,0.45,1.73,-9.57,1.19,-25.69,35.56,1.25,-4.31,0.12,-0.15433825436910492,0.22957049361965096,0.07506343399250426,-163.94405112777469,-12.549930441445206,-4.825730880475589,-0.0753,-0.9902,-0.1093,-0.0421
1529894.0,1288.801903,1.0,0.47,1.47,-9.74,1.19,-25.69,35.56,-0.69,2.88,-0.19,-0.2115733647384772,-0.043035667744748304,-0.05249725737652433,-163.94405112777469,-12.561458728935325,-4.860139072417077,-0.075,-0.9902,-0.1094,-0.0424
1529929.0,1288.823063,1.0,0.88,1.59,-9.96,1.56,-24.19,35.06,1.06,1.63,0.63,0.18309619224509546,-0.04017821690260875,-0.3160453671081029,-164.02631287450075,-12.549930441445206,-4.9060173442654875,-0.0746,-0.9903,-0.1093,-0.0428
1529966.0,1288.87083,1.0,0.57,1.6,-9.69,2.69,-24.87,35.56,-0.81,-2.63,-1.19,-0.07387922136358921,0.06827797118517079,-0.03056911819094843,-164.02631287450075,-12.561458728935325,-4.814261580058959,-0.0749,-0.9903,-0.1094,-0.042
1530001.0,1288.964256,1.0,0.65,1.81,-9.82,2.69,-24.87,35.56,2.13,1.69,0.37,0.03142449199922158,0.2373863698804421,-0.19703233265618714,-164.02631287450075,-12.561458728935325,-4.837200229263812,-0.0748,-0.9903,-0.1094,-0.0422
1530034.0,1288.971803,1.0,0.66,1.63,-9.9,1.19,-25.25,36.38,8.94,4.13,1.75,-0.0194555623500044,0.09852301240598076,-0.24782237288561504,-164.1089976777972,-12.561458728935325,-4.9518964029981625,-0.0725,-0.9904,-0.1094,-0.0432
1530068.0,1288.983163,1.0,0.6,1.54,-9.59,2.25,-25.69,35.88,1.31,-5.13,-0.12,-0.04625856886847979,0.08230553288120744,0.07573093014521959,-164.19211217641143,-12.538402281482075,-4.848669626539135,-0.0716,-0.9905,-0.1092,-0.0423
1530105.0,1289.000009,1.0,0.55,1.58,-9.72,2.0,-24.87,36.38,3.19,3.81,-1.12,-0.1055212862516436,0.1231916835179624,-0.05494160923123381,-164.19211217641143,-12.596044357776794,-4.89454770282183,-0.0712,-0.9905,-0.1097,-0.0427
1530140.0,1289.042557,1.0,0.8,1.76,-10.09,2.0,-24.87,36.38,8.44,6.25,-0.44,0.11694538638491947,0.21514400414781112,-0.46397494856484295,-164.19211217641143,-12.630631138714767,-5.0321866714644,-0.0702,-0.9905,-0.11,-0.0439
1530177.0,1289.065113,1.0,0.75,1.77,-9.96,3.06,-26.06,36.38,13.69,-2.63,-0.5,0.10440208688001447,0.3532175913532503,-0.33047669040955263,-164.52900617164656,-12.572987144073346,-4.974836229757033,-0.0652,-0.9909,-0.1095,-0.0434
1530210.0,1289.0979949999999,1.0,0.65,0.89,-9.74,2.0,-24.87,36.38,20.37,4.25,3.69,-0.13837835523032604,-0.3348240649899141,0.011194713168897865,-164.87335484809628,-12.50381856554563,-4.940426564140192,-0.0593,-0.9913,-0.1089,-0.0431
1530245.0,1289.134794,1.0,1.11,0.96,-10.39,2.0,-24.87,36.38,13.19,-19.06,12.25,0.32313394556635283,-0.3512246432949878,-0.6756219723905765,-165.4050127335264,-12.227189726180756,-4.642227799866185,-0.055,-0.9919,-0.1065,-0.0405
1530279.0,1289.178653,1.0,1.09,-0.08,-9.31,1.19,-24.19,36.88,19.81,-27.56,40.88,0.3772570218965517,-1.1608593270689116,0.5125291291383114,-167.13036680379562,-10.960197096754332,-3.6331610823402585,-0.0502,-0.9937,-0.0955,-0.0317
1530316.0,1289.1953939999999,1.0,0.73,1.53,-9.66,1.56,-23.75,37.19,-41.31,3.31,25.0,0.2929342001903195,0.29379186904272525,0.007809461852474442,-167.33650576248203,-10.13162973120474,-3.5070491615651807,-0.0585,-0.9939,-0.0883,-0.0306
1530353.0,1289.261253,1.0,2.06,0.21,-10.45,1.56,-23.75,37.19,3.75,9.38,61.63,1.2416435402816903,-1.3031901064996567,-0.6933603269091204,-168.19685993687258,-8.69437956401469,-4.000057708800217,-0.0599,-0.9947,-0.0758,-0.0349
1530386.0,1289.269588,1.0,0.32,2.18,-10.06,1.19,-24.19,35.56,-77.87,-24.62,46.38,-0.16681073284922793,0.6284746429236945,-0.4712677756298636,-168.6513771745933,-6.294241112432486,-3.5987664920103746,-0.0755,-0.9951,-0.0549,-0.0314
1530423.0,1289.301874,1.0,-0.1,2.45,-9.19,0.06,-24.56,36.0,-11.69,-8.44,39.31,-0.5017860836215688,0.8761268400212852,0.34889062018503125,-168.6513771745933,-4.66516502390792,-3.2892294003721183,-0.0853,-0.9951,-0.0407,-0.0287
1530458.0,1289.343876,1.0,1.51,0.86,-10.63,-0.25,-25.69,36.38,-51.44,-2.0,32.38,0.8281873528178056,-1.1649684566246084,-0.8691897423201524,-168.4218955829601,-3.5070491615651807,-3.5987664920103746,-0.0912,-0.9949,-0.0306,-0.0314
1530492.0,1289.382294,1.0,-0.06,2.55,-9.74,-0.25,-25.69,36.38,-72.56,-24.69,24.25,-0.5135333015290622,0.25923042008350816,-0.24535393640611325,-166.14541230093116,-2.383676327772471,-2.9453273542124467,-0.1155,-0.9927,-0.0208,-0.0257
1530529.0,1289.423491,1.0,-0.24,1.52,-8.89,-0.75,-26.75,33.38,-34.5,0.81,33.5,-0.6818784304714355,-0.7263002050375225,0.8396198440219198,-165.2256794561049,-1.4438918508267422,-2.87655022805785,-0.1254,-0.9917,-0.0126,-0.0251
1530566.0,1289.465665,1.0,1.37,2.89,-10.67,-1.5,-28.69,33.06,-64.81,-5.31,21.5,0.7548788280942192,-0.3119470978134477,-1.302388975674754,-162.98770609304592,-0.3552344019497601,-3.243374149708243,-0.1451,-0.9890000000000001,-0.0031,-0.0283
1530599.0,1289.536695,1.0,0.41,4.06,-9.26,-1.5,-28.69,33.06,-54.94,-22.19,18.19,-0.06519547567421008,0.9199456023655638,-0.27048995331214165,-161.36053358743402,0.3781528311358495,-2.681687249969397,-0.1603,-0.9868,0.0033,-0.0234
1530634.0,1289.6191720000004,1.0,0.01,3.15,-8.96,-1.5,-30.19,31.25,-48.06,12.13,7.5,-0.4581333483420345,-0.11932801301081253,0.32086723522787786,-159.73268910086296,0.8250663536663884,-2.7275366438036484,-0.1743,-0.9844,0.0072,-0.0238
1530669.0,1289.622631,1.0,1.23,4.01,-10.38,-1.37,-31.25,30.87,-20.37,-2.13,15.0,0.6335302433197652,0.04223444361591271,-1.3707493255395369,-158.840311807755,1.1573944243672372,-2.8994758203914888,-0.1818,-0.983,0.0101,-0.0253
1530705.0,1289.6261240000001,1.0,-0.7,3.53,-8.21,-2.25,-32.38,29.69,-4.63,-9.94,8.44,-1.1004561858476776,0.2744336358490605,0.914592737333262,-158.4690600176697,1.7533192633889718,-2.24613838532295,-0.1854,-0.9824,0.0153,-0.0196
1530740.0,1289.647981,1.0,-0.37,3.7,-8.64,-2.25,-32.38,29.69,-14.5,12.75,7.75,-0.8362882107763091,0.2383243768101921,0.440737149672243,-158.16444882979192,2.0054546535892377,-2.47537018520181,-0.1876,-0.9819,0.0175,-0.0216
1530777.0,1289.812989,1.0,1.87,4.78,-11.46,-3.0,-32.38,30.5,-3.5,-2.88,8.44,1.1214660658566822,0.1851828603272392,-2.6987456823194087,-157.6856148741907,2.2919839967771853,-3.0370318442136965,-0.1906,-0.9811,0.02,-0.0265
1530814.0,1289.820866,1.0,-0.37,4.45,-9.03,-2.56,-33.06,28.06,12.44,-42.13,1.94,-0.7797795947093481,0.7906903445262359,-0.20569500817605224,-158.16444882979192,2.6358382855186164,-1.6960169933572922,-0.1873,-0.9819,0.023,-0.0148
1530847.0,1289.85814,1.0,-0.36,2.55,-8.37,-2.56,-33.06,28.06,14.0,0.25,-8.56,-0.6042336188337608,-0.6462790737633611,1.0942321328011015,-158.71585002764485,2.4180613422720283,-1.3407518310456548,-0.1827,-0.9828,0.0211,-0.0117
1530882.0,1289.871576,1.0,-0.07,4.28,-8.99,-3.0,-32.75,29.69,-18.81,23.94,-11.69,-0.4800048543377636,0.6569577993850166,-0.11712961210543148,-158.16444882979192,1.9252287616436883,-1.9366895446536667,-0.1876,-0.9819,0.0168,-0.0169
1530918.0,1289.879548,1.0,-0.15,3.61,-8.54,-1.5,-32.06,28.87,18.0,10.75,-5.38,-0.5614234700781241,0.25996139548312913,0.5544381693022231,-158.5304946671076,1.6960169933572922,-2.2346770389286066,-0.1844,-0.9825,0.0148,-0.0195
1530953.0,1289.8923810000001,1.0,0.62,2.86,-9.34,-1.5,-32.06,28.87,28.81,28.87,-4.81,0.055229925833215184,-0.5547857851212233,0.03481484032196214,-159.40959116439532,1.306372069959298,-3.174592245464794,-0.1762,-0.9839,0.0114,-0.0277
1530988.0,1289.900891,1.0,0.74,4.12,-9.46,-2.25,-32.75,28.87,-12.13,22.56,-17.31,0.03928537169443619,0.5521294492812738,-0.5232681860655221,-159.15467994543428,0.8365258107465946,-3.793673550039814,-0.1776,-0.9835,0.0073,-0.0331
1531025.0,1289.9314570000001,1.0,0.58,5.07,-8.85,-3.0,-32.38,30.06,9.06,61.06,-37.06,-0.2490390430456377,1.6348250997085791,-0.27447724095880943,-158.840311807755,-0.4698267083113723,-5.101008867683621,-0.1783,-0.983,-0.0041,-0.0445
1531060.0,1289.9439710000001,1.0,1.74,2.06,-9.65,-3.0,-32.06,30.06,39.63,94.94,-22.5,0.4517340360168332,-1.3338805331770045,-0.11355156468180815,-159.0283735374385,-1.7647797695524667,-7.488156943849511,-0.1688,-0.9833,-0.0154,-0.0653
1531095.0,1289.983123,1.0,1.22,3.25,-9.07,-3.0,-32.06,30.06,-16.69,72.75,-31.31,-0.3924478612753738,-0.0557501509585788,0.1031106149689638,-157.44996317553057,-3.346549205454908,-10.235170717586842,-0.1714,-0.9807,-0.0292,-0.0892
1531129.0,1290.022579,1.0,1.41,3.9,-6.96,-3.75,-32.38,30.56,-14.31,115.87,-46.44,-0.05623054812639516,1.1574671609750744,1.7881209642776952,-155.6456486519571,-4.791323123878448,-12.607573156584115,-0.1752,-0.9775,-0.0418,-0.1098
1531166.0,1290.070393,1.0,4.95,3.16,-11.8,-5.25,-32.38,30.5,-2.69,127.44,-35.38,0.9378405748147748,-1.7249228114614976,-3.2268912053183296,-151.48561418277666,-7.568544455864768,-18.460228812044047,-0.175,-0.9692,-0.066,-0.1604
1531201.0,1290.09765,1.0,2.12,3.94,-7.95,-5.25,-32.38,30.5,-0.69,39.5,-17.87,-0.5738570103541605,0.7148283420414775,0.7302956342272751,-150.12163073433226,-8.487533709607298,-19.936217546906203,-0.1763,-0.9662,-0.07400000000000001,-0.1731
1531236.0,1290.148377,1.0,2.12,4.4,-8.14,-8.19,-32.06,27.56,-3.31,84.37,-38.5,-0.8927486848955831,1.0827512097688743,0.4181117962453165,-148.1827256280383,-9.832557602907887,-22.150726459273766,-0.17600000000000002,-0.9617,-0.0857,-0.1921
1531271.0,1290.167306,1.0,5.08,3.17,-10.79,-8.56,-33.06,28.06,20.37,80.94,-14.56,0.002993187504696237,-1.4721824307131637,-2.445373095453583,-145.8027223342799,-11.37469368630907,-25.17143953683573,-0.1707,-0.9558,-0.0991,-0.2179
1531308.0,1290.22235,1.0,2.78,4.44,-7.51,-9.38,-32.25,28.06,12.13,9.44,-9.5,-0.4006516016056385,1.2114196144282894,0.7394541373361054,-145.6083860120317,-11.720221376139571,-25.19492264637575,-0.1714,-0.9553,-0.1021,-0.2181
1531342.0,1290.226255,1.0,3.63,1.95,-7.39,-9.38,-32.25,28.06,55.0,54.31,-6.69,-0.09302995071650176,-1.0589662962705235,1.412518966257867,-144.99354106549774,-12.711338126294773,-26.73546210533703,-0.157,-0.9537,-0.1107,-0.2312
1531379.0,1290.269747,1.0,5.56,4.09,-9.65,-10.06,-32.06,27.19,-38.25,101.12,-33.38,0.2554405694706339,-0.3435697298182933,-2.050032080422886,-142.09917876057762,-13.79574779269871,-29.45237314889127,-0.1625,-0.9458,-0.1201,-0.2542
1531416.0,1290.299813,1.0,5.78,4.45,-8.9,-11.25,-32.06,27.19,19.25,5.63,3.0,0.5694574693557901,0.0948402341974764,-1.6862879847179322,-140.54206620040912,-14.32686299177392,-31.12626391611525,-0.1622,-0.9413,-0.1247,-0.2683
1531451.0,1290.33546,1.0,4.63,3.3,-7.83,-11.25,-32.06,27.19,32.31,25.19,1.69,0.018042550827990226,-0.1957776771159594,0.1320882234902907,-140.71214769326966,-14.488567642103208,-31.388043844509305,-0.1546,-0.9418,-0.1261,-0.2705
1531484.0,1290.373074,1.0,4.83,3.93,-7.85,-11.56,-32.0,27.56,-5.75,35.06,-21.37,0.09194015620529017,0.3087752543419733,-0.2079645632262324,-139.43670037409964,-15.366907820940328,-32.580097056893266,-0.1533,-0.938,-0.1337,-0.2805
1531521.0,1290.419842,1.0,5.26,3.68,-8.36,-12.38,-32.06,27.56,7.94,22.19,-10.38,-0.03799934660704274,-0.16374587495823556,-0.7323890139752116,-138.5533323833026,-15.945255673236543,-33.476513522752754,-0.1519,-0.9353,-0.1387,-0.28800000000000003
1531557.0,1290.4516119999996,1.0,4.11,3.27,-7.48,-12.25,-32.06,25.87,20.5,10.31,-3.19,-0.5019746926823287,0.12489383473205445,0.6815295658384652,-138.61814821881748,-16.29245975343786,-33.57225481905068,-0.1464,-0.9355,-0.1417,-0.2888
1531590.0,1290.488974,1.0,5.09,3.82,-7.78,-12.25,-32.06,25.87,-21.25,23.31,-11.38,0.10090381491081724,0.2201290950601666,-0.24174597157897004,-138.00625925895054,-16.51243337847321,-34.17118813606689,-0.1467,-0.9336,-0.1436,-0.2938
1531629.0,1290.524918,1.0,5.24,3.62,-8.08,-12.38,-30.56,26.37,0.81,11.75,0.56,-0.12509626822154465,-0.1234192751181874,-0.4801142437360397,-137.1510918031107,-16.778799324271787,-34.87917065061918,-0.1491,-0.9309,-0.1459,-0.2997
1531664.0,1290.565389,1.0,4.79,3.39,-7.46,-12.38,-32.06,26.37,-2.94,3.19,3.19,-0.17672003350578214,-0.05994055123732495,0.3170252887653611,-136.99450746728783,-16.720885966499374,-35.059384322363556,-0.1498,-0.9304,-0.1454,-0.3012
1531699.0,1290.60217,1.0,5.29,3.59,-7.65,-12.38,-32.06,26.37,-11.75,14.81,4.19,0.03798888555593072,-0.11677069730423185,-0.16228281393877886,-136.5279785234642,-16.628233533749974,-35.56446095223015,-0.1517,-0.9289,-0.1446,-0.3054
1531731.0,1290.647314,1.0,6.08,3.99,-8.03,-13.06,-31.25,26.75,-24.81,9.5,2.19,0.36155574321799255,-0.20087768374935405,-1.0190751766668047,-135.91325060474233,-16.361918539628213,-36.08230406752302,-0.1574,-0.9269,-0.1423,-0.3097
1531768.0,1290.6657480000001,1.0,4.98,3.39,-7.43,-12.75,-32.75,25.56,-18.0,-14.06,13.5,-0.1926620588419712,-0.2793538453937872,0.2472440163550705,-136.06616582647524,-15.910543420989347,-35.841352697842005,-0.1613,-0.9274,-0.1384,-0.3077
1531805.0,1290.6942800000004,1.0,5.32,3.69,-7.39,-12.75,-32.75,25.56,-34.0,2.69,19.12,0.04941727667783313,-0.2100722970096594,-0.01597834290266853,-135.79128033679729,-14.89295693159816,-36.10640826375515,-0.1695,-0.9265,-0.1296,-0.3099
1531840.0,1290.766273,1.0,5.93,3.33,-7.43,-12.75,-33.19,25.06,-33.88,-9.0,21.81,0.387305442853048,-0.8061342789094494,-0.2262380198227838,-135.63926552609757,-13.98044914927855,-36.29930145114271,-0.1753,-0.9259999999999999,-0.1217,-0.3115
1531875.0,1290.7718220000004,1.0,4.77,3.52,-6.64,-13.88,-33.88,24.25,-57.44,-17.44,10.56,-0.031737776175043475,-0.26999176929961183,0.9095157895885428,-135.30656135192416,-12.768989848771891,-36.01000138130928,-0.1917,-0.9249,-0.1112,-0.3091
1531912.0,1290.7963220000001,1.0,6.27,4.43,-7.24,-13.88,-33.56,22.56,-68.69,16.19,16.69,0.6727067998680161,-0.3228607669178853,-0.7194426504851048,-134.14543141113884,-11.835420883076134,-36.60091053338324,-0.2061,-0.9209999999999999,-0.1031,-0.314
1531944.0,1290.863987,1.0,5.39,5.48,-7.14,-13.88,-33.56,22.56,-53.31,-24.25,12.13,0.01346852540200105,0.686067195424136,-0.6619330178771747,-133.58972143720712,-10.442277914805905,-36.41991372856602,-0.2223,-0.9191,-0.091,-0.3125
1531981.0,1290.885229,1.0,4.2,4.04,-6.83,-15.0,-35.75,21.0,-14.94,-31.06,17.56,-0.6845389679190181,-0.14133691552116906,0.8555645754433048,-134.26323636741046,-9.3380846266553,-35.55242705989692,-0.226,-0.9214,-0.0814,-0.3053
1532018.0,1290.921558,1.0,5.46,4.41,-7.6,-14.56,-35.06,20.5,-42.13,0.88,13.69,-0.1931891347756518,-0.5416351931231752,-0.5223871901632293,-133.93995871664828,-8.303694005010767,-35.612600576556765,-0.2329,-0.9203,-0.0724,-0.3058
1532053.0,1290.935134,1.0,5.69,5.33,-7.61,-14.56,-35.06,20.5,-26.75,-49.88,18.81,0.05408201641983856,0.12327543134590835,-1.0873381725439035,-134.26323636741046,-7.338875609975954,-34.85514889719688,-0.2394,-0.9214,-0.064,-0.2995
1532088.0,1290.999144,1.0,4.39,5.35,-6.73,-15.38,-35.75,21.0,-20.0,-35.56,15.31,-0.2740891461715784,0.7586833327682686,0.18704633142141525,-135.397065246721,-5.97292446733722,-32.92646520492445,-0.2467,-0.9252,-0.0521,-0.2834
1532123.0,1291.019777,1.0,5.2,4.55,-7.52,-15.38,-36.06,19.25,-28.12,6.0,6.44,-0.047259176126861036,-0.5892930369629286,-0.3886136202728352,-134.8267795347168,-5.341901218009245,-32.98621503760272,-0.2543,-0.9233,-0.0466,-0.2839
1532160.0,1291.062004,1.0,5.26,5.3,-7.15,-14.56,-36.88,18.87,-22.5,-18.75,7.75,0.1529064879737425,0.12109408114193415,-0.5297930937072337,-134.5590130176977,-4.733977821845079,-32.78310312481338,-0.2604,-0.9224,-0.0413,-0.2822
1532194.0,1291.0932380000004,1.0,4.61,4.48,-6.21,-14.56,-36.88,18.87,-13.06,-23.19,12.5,0.2413185443490797,-0.02674632044130536,0.8720179429706754,-134.88648767208014,-3.977125506843028,-32.114772865183184,-0.2637,-0.9235,-0.0347,-0.2766
1532231.0,1291.139271,1.0,4.79,5.31,-6.98,-14.25,-36.56,17.56,-43.63,2.81,1.06,-0.12718747241040962,0.18232599911073133,-0.1839045680362581,-134.3222466489682,-3.5299782811888885,-32.162473260424385,-0.27,-0.9216,-0.0308,-0.27699999999999997
1532266.0,1291.1624199999999,1.0,4.89,6.25,-6.91,-16.06,-37.25,19.25,-36.56,-7.75,-2.06,-0.12318768260114375,0.7585813389014213,-0.6877332189950991,-133.41553604515124,-3.140201723904295,-31.99554685526558,-0.2823,-0.9185,-0.0274,-0.2756
1532301.0,1291.187492,1.0,4.9,4.49,-6.88,-16.06,-37.25,19.25,-11.56,-0.69,4.94,0.1118819065151242,-0.7361050631199241,0.2698721492244136,-133.3865649159552,-2.87655022805785,-31.757201337874307,-0.2847,-0.9184,-0.0251,-0.2736
1532336.0,1291.228297,1.0,4.64,5.9,-6.95,-15.38,-37.56,16.37,-44.19,-5.94,0.63,-0.3429087947425393,0.2477865438383506,-0.4140699055243111,-132.4398647310081,-2.349291527927613,-31.6738137680446,-0.2961,-0.9151,-0.0205,-0.2729
1532370.0,1291.289907,1.0,3.45,6.67,-6.71,-15.0,-37.69,17.69,-19.25,-27.12,1.88,-1.2886127275807415,1.1655341773259669,-0.11285136447402165,-132.41145409892673,-1.9137679978932431,-31.161951340157948,-0.3007,-0.915,-0.0167,-0.2686
1532407.0,1291.300403,1.0,4.16,5.09,-6.6,-15.0,-38.69,16.37,-7.0,5.19,2.06,-0.3796016578292217,-0.21339848570772604,0.5015941878261163,-132.55366749345725,-1.7189378496716434,-30.84087559172584,-0.3017,-0.9155,-0.015,-0.2659
1532442.0,1291.366205,1.0,5.08,6.89,-7.1,-15.0,-38.69,16.37,-22.31,10.88,4.75,-0.16837637697164665,0.687725749190664,-1.2923221456348433,-131.76235907719015,-1.5928739664684124,-31.209539394286914,-0.3073,-0.9127,-0.0139,-0.26899999999999996
1532479.0,1291.369559,1.0,3.73,5.57,-6.71,-14.56,-37.56,16.37,11.38,-16.5,2.75,-0.8967916010361572,0.11964637871085135,0.3650744128232297,-132.12822120462246,-1.2605325708995527,-30.817102104618424,-0.3065,-0.914,-0.011000000000000001,-0.2657
1532514.0,1291.402453,1.0,4.44,5.11,-6.34,-15.0,-38.19,16.37,1.44,6.69,-2.69,-0.028514326845833438,-0.17120900868908895,0.5335073607159337,-132.1847414191665,-1.432431792389882,-30.805215870860085,-0.3057,-0.9142,-0.0125,-0.2656
1532549.0,1291.439306,1.0,4.66,5.67,-6.97,-15.0,-38.19,16.37,-25.94,15.0,-3.88,-0.3287123097096121,-0.22325684342894547,-0.30707852113935097,-131.31561745343842,-1.4897322301406863,-31.35233671854589,-0.311,-0.9111,-0.013000000000000001,-0.2702
1532583.0,1291.500625,1.0,4.75,6.12,-6.95,-14.69,-38.56,15.19,-10.81,-9.63,-6.38,-0.28853886550446983,0.031849736597202194,-0.596961436293272,-130.9830718545965,-1.5241126706819226,-31.19764186362961,-0.3158,-0.9099,-0.0133,-0.2689
1532620.0,1291.52299,1.0,4.37,5.37,-6.24,-15.06,-37.88,15.06,-7.25,-3.13,1.44,-0.1363457210273582,-0.09618564423360176,0.4876608828156197,-131.01070305716067,-1.432431792389882,-31.06679175207397,-0.3163,-0.91,-0.0125,-0.2678
1532655.0,1291.549827,1.0,4.6,5.64,-6.54,-15.06,-37.88,15.06,-21.37,4.81,-2.31,-0.15046063648266686,-0.16450951798996655,0.02444686290659881,-130.62518646665285,-1.3522117780748235,-31.138159380012002,-0.3199,-0.9086,-0.0118,-0.2684
1532690.0,1291.584183,1.0,4.64,5.62,-6.7,-16.19,-38.19,15.88,-12.38,-23.75,-2.31,-0.1622602539618878,-0.40714631205151663,-0.08334006524106917,-130.16081866157813,-1.306372069959298,-30.86465043933479,-0.3264,-0.9069,-0.0114,-0.2661
1532725.0,1291.649415,1.0,3.99,6.02,-5.93,-15.5,-38.56,14.25,-16.44,-7.94,-2.94,-0.3670325474018519,0.4023660697832954,0.4777278406594672,-129.9436888935972,-1.0542572154525014,-30.44878609284871,-0.3314,-0.9061,-0.0092,-0.2626
1532762.0,1291.665728,1.0,4.76,6.44,-7.2,-15.5,-39.38,13.75,-22.62,6.38,-12.38,-0.40576957128197977,-0.3318011622941267,-0.9495788486124148,-129.21728949054742,-1.1803139285143014,-30.54380438300529,-0.3382,-0.9034,-0.0103,-0.2634
1532794.0,1291.690287,1.0,4.82,6.44,-6.81,-15.5,-39.38,13.75,-27.44,-18.81,-10.31,-0.10634531676227564,-0.2730554701921013,-0.7288249007247369,-128.71188283967422,-1.1803139285143014,-30.10452391311007,-0.3461,-0.9015,-0.0103,-0.2597
1532831.0,1291.7285980000001,1.0,3.8,6.4,-6.05,-13.56,-39.0,13.88,5.31,1.44,4.56,-0.6045758202440461,0.3788310484470413,0.2414278324646925,-128.81789729217328,-1.2146932735575866,-30.021467926252928,-0.3456,-0.9019,-0.0106,-0.259
1532868.0,1291.769852,1.0,4.2,6.24,-6.63,-15.06,-40.06,12.06,-8.63,11.75,-5.44,-0.5442285843926848,-0.2266306898061951,-0.20269332403319493,-128.47409395200597,-1.306372069959298,-30.24694330618832,-0.3475,-0.9006,-0.0114,-0.2609
1532903.0,1291.782035,1.0,4.66,6.46,-6.25,-15.06,-40.06,12.06,3.94,-10.25,0.81,0.0018150830152450226,0.0849535007036962,-0.3177008240376509,-128.47409395200597,-1.2605325708995527,-30.21133398212997,-0.3475,-0.9006,-0.011000000000000001,-0.2606
1532936.0,1291.841406,1.0,3.7,6.17,-5.97,-14.38,-39.0,13.06,-2.81,2.5,-7.69,-0.6077145258945051,0.2255574619790677,0.4803641966181189,-128.60607229870925,-1.3522117780748235,-29.985877446985693,-0.3478,-0.9011,-0.0118,-0.2587
1532973.0,1291.877604,1.0,4.9,5.71,-6.49,-14.38,-39.69,13.0,-2.06,15.69,-1.12,0.21419885738107824,-0.7073637053294443,-0.10233357238921492,-128.3687376178253,-1.5699534720315549,-30.306298828005648,-0.348,-0.9002,-0.0137,-0.2614
1533007.0,1291.889535,1.0,4.83,6.67,-6.57,-14.69,-39.38,12.5,-6.0,-8.88,-0.5,-0.06296709427339707,-0.05636551186295944,-0.7278437265210407,-128.10621848828742,-1.4438918508267422,-30.38941055279805,-0.3501,-0.8992,-0.0126,-0.2621
1533042.0,1291.952282,1.0,4.05,6.87,-6.04,-14.69,-39.38,12.5,-7.25,-3.88,-7.25,-0.4739650377292021,0.5524497216714446,-0.17088258316080562,-128.10621848828742,-1.4668120111410634,-30.12825716684205,-0.3518,-0.8992,-0.0128,-0.2599
1533079.0,1291.9858769999996,1.0,4.93,5.97,-6.56,-14.69,-39.69,12.06,-4.94,9.81,-4.19,0.1676249679541404,-0.6556515237550139,-0.31863631444642593,-127.94929869917114,-1.6616358358374437,-30.270684516880635,-0.3524,-0.8986,-0.0145,-0.2611
1533114.0,1292.002224,1.0,4.37,6.54,-6.37,-14.0,-40.06,13.75,-5.5,2.19,-1.25,-0.33645975142837514,-0.033556922913651775,-0.3092320064586236,-127.66274936627121,-1.7647797695524667,-30.41315976518269,-0.3541,-0.8975,-0.0154,-0.2623
1533149.0,1292.042271,1.0,4.21,6.61,-6.26,-14.0,-40.06,13.75,8.56,2.13,4.31,-0.4396389976541519,0.14731601265741442,-0.21277191666547068,-127.7407542896587,-1.7877008349543104,-30.48441543516209,-0.3528,-0.8978,-0.0156,-0.2629
1533184.0,1292.076483,1.0,4.42,6.09,-6.18,-14.0,-39.0,12.5,13.63,-1.69,10.25,-0.15715900365859434,-0.13961828805884635,0.07152248253991901,-128.1586232989387,-1.6043342375287626,-30.603201736078947,-0.3483,-0.8994,-0.013999999999999999,-0.2639
1533220.0,1292.13074,1.0,4.5,6.22,-6.42,-14.38,-39.38,11.69,-0.12,3.25,1.5,-0.24359415029490794,-0.21732356465685365,-0.19576132718440675,-128.0277034878583,-1.6157945246366483,-30.710138215163173,-0.3487,-0.8989,-0.0141,-0.2648
1533253.0,1292.1444689999996,1.0,4.29,5.97,-6.24,-14.38,-39.38,11.69,4.44,4.88,0.19,-0.2945208350984483,-0.2273484794222579,0.17108202781500026,-128.1586232989387,-1.638715147453804,-30.722021736081228,-0.3475,-0.8994,-0.0143,-0.2649
1533288.0,1292.1745939999996,1.0,4.87,6.48,-6.43,-14.69,-39.38,13.25,-1.94,-0.94,-0.37,0.023952041307591543,-0.09378426072182446,-0.5395005310988985,-128.05386288415187,-1.7189378496716434,-30.781444422149054,-0.3479,-0.899,-0.015,-0.2654
1533323.0,1292.264609,1.0,4.37,6.26,-6.22,-15.06,-39.0,12.5,4.06,-0.63,0.94,-0.2611003947909496,-0.0072781412603158185,-0.037367148120976516,-128.18484420355122,-1.6730962049034406,-30.73390559555541,-0.3472,-0.8995,-0.0146,-0.265
1533360.0,1292.2695640000004,1.0,5.03,6.42,-6.68,-14.69,-39.38,12.5,2.13,1.56,3.75,0.03982943122593996,-0.3139730452695977,-0.7308798122117892,-128.10621848828742,-1.7074774129745531,-30.84087559172584,-0.3473,-0.8992,-0.0149,-0.2659
1533394.0,1292.29393,1.0,4.28,6.14,-6.19,-14.69,-39.38,12.5,4.94,-1.12,1.0,-0.3068111455888429,-0.04974296611690918,0.09905026792078964,-128.23732310544656,-1.6501754833924644,-30.74578979374247,-0.3467,-0.8997,-0.0144,-0.2651
1533431.0,1292.331642,1.0,4.41,5.75,-6.34,-14.69,-40.06,11.69,7.38,8.44,-3.69,-0.21707202990664376,-0.4660647012033871,0.1919808206613549,-128.18484420355122,-1.8106219718874,-30.86465043933479,-0.3463,-0.8995,-0.0158,-0.2661
1533466.0,1292.369586,1.0,4.51,6.3,-6.02,-13.56,-39.69,13.0,-1.06,5.5,-3.5,-0.09108033488331067,0.13008030294062933,-0.003818056488661625,-128.05386288415187,-2.0054546535892377,-31.138159380012002,-0.3455,-0.899,-0.0175,-0.2684
1533501.0,1292.4016589999999,1.0,4.4,6.19,-6.06,-13.56,-39.69,13.0,1.81,-8.56,-0.19,-0.1911706351497835,0.07227830760646957,0.09284901199813513,-128.18484420355122,-1.9596111689111861,-31.161951340157948,-0.3443,-0.8995,-0.0171,-0.2686
1533534.0,1292.422107,1.0,4.23,6.2,-6.11,-14.38,-40.5,12.5,-1.19,4.88,-3.63,-0.35650301399414297,0.08260947397263818,0.13550315612346253,-128.1586232989387,-2.0742204847835874,-31.161951340157948,-0.3442,-0.8994,-0.0181,-0.2686
1533571.0,1292.469461,1.0,4.67,6.33,-6.57,-14.69,-40.06,13.0,-3.88,4.69,0.5,-0.2500987870556073,-0.20923227163679287,-0.4371955890949035,-128.0277034878583,-2.223215714892369,-31.340435037267948,-0.3445,-0.8989,-0.0194,-0.2701
1533605.0,1292.494314,1.0,4.28,6.32,-6.03,-14.69,-40.06,13.0,-2.13,-0.94,-0.5,-0.3136577190368599,0.16869555497945515,0.08580329587906554,-127.89708982203928,-2.1659094260652934,-31.304732073341746,-0.3461,-0.8984,-0.0189,-0.2698
1533640.0,1292.5657199999996,1.0,4.32,6.38,-6.1,-14.38,-39.0,12.5,0.12,6.88,-3.63,-0.3299409598026528,0.14241500312967958,-0.014126798702234213,-127.76677999527551,-2.280522559802512,-31.376141122007805,-0.3468,-0.8979,-0.0199,-0.2704
1533675.0,1292.5706519999999,1.0,5.12,6.45,-6.51,-14.69,-40.5,12.5,2.06,9.81,2.25,0.08976540242136277,-0.22296804253657224,-0.6880737898162703,-127.636771729627,-2.452446574526375,-31.721461697138416,-0.3456,-0.8974,-0.0214,-0.2733
1533712.0,1292.6207789999999,1.0,4.64,6.32,-6.37,-14.0,-39.0,13.75,11.13,2.5,4.5,-0.2394600876381552,-0.07336766618218335,-0.2921705277639877,-127.81886761171008,-2.509755787270372,-31.85252256097231,-0.3428,-0.8981,-0.0219,-0.2744
1533745.0,1292.6317210000002,1.0,4.98,5.91,-6.4,-14.0,-39.0,13.75,1.63,4.06,-3.31,0.08796755932292744,-0.4721238290058021,-0.21621689518481446,-127.87100362286014,-2.670224968889185,-31.959785992705626,-0.3419,-0.8983,-0.0233,-0.2753
1533782.0,1292.669955,1.0,4.82,6.5,-6.29,-14.69,-39.38,13.25,-3.88,-6.63,2.25,-0.07518011800778135,0.06970524753345489,-0.4420567051566415,-127.81886761171008,-2.589989743099661,-31.90019165418321,-0.3427,-0.8981,-0.0226,-0.2748
1533818.0,1292.718633,1.0,4.1,6.12,-5.9,-14.25,-39.38,13.0,1.88,-4.81,-0.25,-0.4046082462406888,0.194895583721122,0.3794177508974013,-128.0015563372832,-2.544141615361497,-31.721461697138416,-0.3421,-0.8988,-0.0222,-0.2733
1533851.0,1292.771265,1.0,4.57,5.99,-6.42,-14.25,-39.38,13.0,7.19,7.44,0.81,-0.2706127492142696,-0.3081915021232701,-0.0834049411002642,-127.97542141388577,-2.6243761106355543,-31.88827384989475,-0.341,-0.8987,-0.0229,-0.2747
1533886.0,1292.784284,1.0,4.89,6.54,-6.74,-14.25,-39.69,11.69,-6.19,1.56,1.44,-0.2594895194276328,-0.17078164230018406,-0.7770543996873087,-127.84492955883974,-2.589989743099661,-31.959785992705626,-0.3419,-0.8982,-0.0226,-0.2753
1533921.0,1292.846685,1.0,4.3,6.39,-6.04,-14.56,-39.69,12.5,-3.5,-1.94,-3.63,-0.3624204317218396,0.26735930924649665,0.029080239040489175,-127.89708982203928,-2.555603608821701,-31.82869013670581,-0.3422,-0.8984,-0.0223,-0.2742
1533958.0,1292.8713890000001,1.0,4.87,6.4,-6.24,-15.06,-39.38,12.5,0.31,5.38,-0.88,0.004293205718403304,0.006114445917174528,-0.3724680453876168,-127.76677999527551,-2.6473004867786654,-31.935947193238352,-0.3428,-0.8979,-0.0231,-0.2751
1533992.0,1292.892018,1.0,4.66,6.2,-6.19,-15.06,-39.38,12.5,0.0,-2.69,3.25,-0.12497390431297405,-0.05106411765927237,-0.1157223967168477,-127.81886761171008,-2.578527672575933,-31.959785992705626,-0.3421,-0.8981,-0.0225,-0.2753
1534029.0,1292.928648,1.0,4.39,6.2,-6.33,-14.69,-40.06,13.0,-2.0,0.63,-3.44,-0.41472041657844416,-0.07174357177725141,-0.07281657648992912,-127.87100362286014,-2.555603608821701,-31.88827384989475,-0.3421,-0.8983,-0.0223,-0.2747
1534064.0,1292.968356,1.0,4.9,6.23,-6.44,-15.06,-39.38,13.38,1.44,6.69,-3.94,-0.04567595739723451,-0.2537257187541561,-0.4026612875726627,-127.76677999527551,-2.738999060214957,-31.959785992705626,-0.3427,-0.8979,-0.0239,-0.2753
1534099.0,1292.996944,1.0,5.0,6.5,-6.56,-15.06,-39.38,13.38,2.25,-8.44,0.56,-0.0508757210209736,-0.1379351338703471,-0.6939207254346318,-127.81886761171008,-2.738999060214957,-31.90019165418321,-0.3425,-0.8981,-0.0239,-0.2748
1534134.0,1293.037188,1.0,4.27,5.94,-5.8,-15.38,-39.38,12.5,4.81,-6.56,-0.56,-0.16359036791180115,0.10175806476062874,0.4728735141512725,-128.18484420355122,-2.578527672575933,-31.626171458397582,-0.3409,-0.8995,-0.0225,-0.2725
1534171.0,1293.071196,1.0,4.59,6.28,-6.14,-14.56,-39.69,13.75,-4.31,3.81,-3.19,-0.11609390293132504,0.05573084002655725,-0.10241233097623237,-128.0277034878583,-2.7619239753850606,-31.697637029521523,-0.3419,-0.8989,-0.0241,-0.2731
1534203.0,1293.115898,1.0,4.51,6.28,-6.36,-14.56,-39.69,13.75,0.75,5.13,0.75,-0.3206297723531466,-0.07193199461354445,-0.1993543142720906,-127.87100362286014,-2.7963115557322795,-31.85252256097231,-0.3424,-0.8983,-0.0244,-0.2744
1534238.0,1293.1459949999999,1.0,4.47,6.0,-6.23,-14.25,-39.38,13.0,-5.5,5.25,-3.38,-0.2621826729012726,-0.2034623113640972,0.076096915314384,-127.76677999527551,-2.865087475133015,-31.959785992705626,-0.3424,-0.8979,-0.025,-0.2753
