TIME,ELAPSED_SECONDS,PSTATE,acc_x,acc_y,acc_z,mag_x,mag_y,mag_z,gyr_x,gyr_y,gyr_z,lin_x,lin_y,lin_z,eul_x,eul_y,eul_z,qua_w,qua_x,qua_y,qua_z
873555.0,631.258289,1.0,-2.11,-2.63,-10.3,8.19,-7.06,42.25,-0.25,2.63,3.69,1.1689660938039403,-0.09042366001962243,-0.9675943741194856,-153.1625065187994,16.69772182857332,15.239724647140953,0.1237,-0.9727,0.1452,0.1326
873590.0,631.292361,1.0,-2.43,-1.84,-10.34,8.19,-7.06,42.25,-19.44,-38.63,8.44,0.8209583047629541,0.5365165783864033,-0.9285387464989316,-152.72165046658662,16.744050792597328,16.19985740781584,0.1207,-0.9718,0.1456,0.1409
873627.0,631.341227,1.0,-3.39,-1.35,-8.19,7.88,-7.06,42.69,-4.75,-18.06,-3.13,-0.5485526008777943,0.1366720544073004,0.8584037587740507,-152.33556563307292,16.5471716366683,17.346581127291525,0.1173,-0.971,0.1439,0.1508
873662.0,631.355652,1.0,-3.39,-1.89,-8.41,8.19,-8.19,42.25,4.06,1.56,-3.5,-0.30373797206039344,-0.2842819303005379,0.5535841822057019,-152.23986727877062,16.466118077182387,17.485694626999518,0.1182,-0.9708,0.1432,0.152
873695.0,631.394425,1.0,-3.16,-2.11,-9.34,8.19,-8.19,42.25,4.63,10.06,-5.56,0.14135590762901695,-0.1568490109769217,-0.2744569280676714,-152.47972490837182,16.361918539628213,17.080018727926856,0.1198,-0.9713,0.1423,0.1485
873730.0,631.471043,1.0,-2.95,-2.48,-10.01,9.0,-7.5,43.06,-4.06,1.19,-1.63,0.5960205172951079,-0.2678117369958751,-0.8997049547215443,-152.52794284369597,16.361918539628213,16.9525653616307,0.1199,-0.9714,0.1423,0.1474
873766.0,631.4757440000002,1.0,-3.27,-1.65,-9.21,9.38,-6.75,41.75,-14.88,0.63,0.31,-0.13267711401971782,0.14395757455795904,-0.10300049838503966,-152.72165046658662,16.29245975343786,17.056843809922572,0.1164,-0.9718,0.1417,0.1483
873801.0,631.503751,1.0,-3.29,-1.32,-8.86,9.38,-6.75,41.75,1.88,10.31,-3.44,-0.3737476297036053,0.3172287055379505,0.27639404028550274,-153.01476916887475,16.234582036054892,16.848301053200124,0.1147,-0.9724,0.1412,0.1465
873834.0,631.5402330000003,1.0,-2.65,-2.66,-9.55,9.0,-8.56,42.25,13.56,14.25,-2.38,0.692624411917799,-0.541654761634515,-0.4172182279856358,-153.11317220133924,16.269308165184984,16.269308165184984,0.1182,-0.9726,0.1415,0.1415
873871.0,631.579522,1.0,-2.61,-2.09,-9.8,7.88,-8.56,42.19,-7.75,-6.06,2.06,0.6156878001762719,0.056899511797436776,-0.5295916273165453,-153.06392657993817,16.38507281218067,16.257732621833743,0.1178,-0.9725,0.1425,0.1414
873908.0,631.590988,1.0,-3.13,-1.5,-8.69,8.19,-7.88,40.88,0.63,1.12,2.75,-0.281364768786456,0.15952000637419547,0.4547310934625806,-153.01476916887475,16.454539675361616,16.43138337904295,0.1165,-0.9724,0.1431,0.1429
873940.0,631.6511419999998,1.0,-2.98,-2.08,-9.22,8.19,-7.88,40.88,3.94,10.81,-0.88,0.1279338396823373,-0.19993564518854687,-0.10086526218593406,-153.06392657993817,16.51243337847321,16.19985740781584,0.11699999999999999,-0.9725,0.1436,0.1409
873977.0,631.682068,1.0,-2.65,-2.13,-9.76,8.56,-8.19,41.38,-4.0,11.69,-3.63,0.4903952877929749,-0.04729023134732052,-0.5168317816340213,-153.4604028099656,16.43138337904295,15.713868313956251,0.1163,-0.9733,0.1429,0.1367
874012.0,631.691634,1.0,-2.77,-1.48,-9.53,8.19,-7.88,42.56,-2.13,15.69,-5.75,0.04977932988237632,0.43803529772673705,-0.21781243427855124,-153.8627830260387,16.327188391573927,15.274409087771584,0.1153,-0.9741,0.142,0.1329
874045.0,631.732083,1.0,-2.93,-1.46,-9.39,8.19,-7.88,42.56,6.81,1.88,-11.31,-0.19803111236543905,0.4097778076059072,-0.12720453018761724,-154.11739099299157,16.049401279911372,14.962299399917931,0.1169,-0.9746,0.1396,0.1302
874080.0,631.779136,1.0,-2.32,-2.38,-9.85,6.38,-8.19,41.75,10.63,3.44,-9.63,0.6980117444733023,-0.1290578638319121,-0.564725206420821,-154.16860854190614,15.910543420989347,14.742733694368155,0.1196,-0.9747,0.1384,0.1283
874117.0,631.8081950000002,1.0,-2.57,-2.04,-9.46,7.88,-7.88,42.56,7.19,-1.88,-5.25,0.27127614436872793,0.07212993056651662,-0.20231131107583705,-154.16860854190614,15.632898017228825,14.765843296845908,0.1218,-0.9747,0.136,0.1285
874151.0,631.8451349999998,1.0,-2.76,-2.64,-8.98,7.88,-7.88,42.56,8.75,-1.19,-3.13,0.15198402133262534,-0.6090416157850036,0.06839711934930115,-154.0662728728033,15.563501157916,14.7196246947995,0.1246,-0.9745,0.1354,0.1281
874184.0,631.9053309999998,1.0,-2.35,-2.71,-9.56,6.69,-7.88,41.75,-4.06,1.12,-0.31,0.6807648786891743,-0.4304823217973472,-0.3723206822725107,-154.11739099299157,15.563501157916,14.7196246947995,0.124,-0.9746,0.1354,0.1281
874219.0,631.947784,1.0,-2.43,-1.6,-9.92,7.5,-7.5,41.75,0.19,-7.81,6.75,0.4014865799738032,0.6695202754343911,-0.5016889121081576,-153.96433257658236,15.690733139619653,14.950741939900693,0.12300000000000001,-0.9743,0.1365,0.1301
874256.0,631.9600849999998,1.0,-2.57,-2.07,-9.55,7.88,-7.5,43.06,4.38,-13.81,3.63,0.4106460708834359,0.14520200464263602,-0.2880310837349285,-153.5103719816942,15.82955387412607,15.424724640986323,0.1249,-0.9734,0.1377,0.1342
874291.0,632.001587,1.0,-2.95,-2.43,-8.76,7.88,-7.5,43.06,0.37,-4.5,1.0,0.029122050296268576,-0.4863997148105286,0.2616215965001576,-153.3110465719337,15.841123321226055,15.679165793853409,0.1253,-0.973,0.1378,0.1364
874326.0,632.037304,1.0,-2.83,-2.25,-9.31,7.5,-6.75,42.56,0.06,-0.56,6.25,0.2251388754033308,-0.13363441411633306,-0.1772848119940118,-153.11317220133924,16.10726571114575,15.713868313956251,0.1256,-0.9726,0.1401,0.1367
874360.0,632.051114,1.0,-2.88,-2.07,-9.28,8.56,-7.88,42.69,-6.44,-6.63,5.69,0.1488742395542415,-0.00010791145163721594,-0.12690608275064366,-153.01476916887475,16.2114321173387,15.875832638109523,0.1248,-0.9724,0.141,0.1381
874393.0,632.0823330000002,1.0,-3.06,-1.55,-9.08,8.56,-7.88,42.69,-10.94,-3.81,0.12,-0.17816242186781062,0.3345824360291961,0.10774218803812907,-153.01476916887475,16.2114321173387,16.10726571114575,0.1219,-0.9724,0.141,0.1401
874430.0,632.127793,1.0,-2.85,-2.01,-9.71,8.19,-7.06,42.19,16.19,-2.31,4.63,0.3093672356159776,0.18883340156938272,-0.5042827347228442,-152.72165046658662,16.373495591769153,16.1419863535435,0.1248,-0.9718,0.1424,0.1404
874467.0,632.1575839999998,1.0,-2.6,-2.42,-9.75,8.56,-7.88,41.75,-2.13,-2.25,-0.37,0.6864787210701685,-0.11848264562610948,-0.5467846392008138,-152.72165046658662,16.361918539628213,16.19985740781584,0.1248,-0.9718,0.1423,0.1409
874500.0,632.19431,1.0,-3.18,-1.87,-8.66,8.56,-7.88,41.75,-0.5,3.31,-1.81,-0.2742407669786933,-0.06379530525396129,0.3978444349585768,-152.7702885732456,16.327188391573927,16.223006993376618,0.1243,-0.9719,0.142,0.1411
874534.0,632.2528940000002,1.0,-2.76,-2.13,-9.24,9.0,-7.06,42.56,2.0,18.31,-4.0,0.2278078494691971,-0.05370440057890394,-0.06641028651090508,-153.1625065187994,16.257732621833743,15.621331474060085,0.1244,-0.9727,0.1414,0.1359
874569.0,632.2770429999998,1.0,-2.0,-2.35,-10.16,8.56,-7.88,42.25,2.75,17.5,-2.69,1.0931424812494828,0.18350296467513794,-0.7536277509705265,-153.4604028099656,16.269308165184984,14.996972698908555,0.1252,-0.9733,0.1415,0.1305
874606.0,632.328405,1.0,-2.81,-2.06,-8.49,8.56,-7.88,42.25,-8.06,42.38,-9.44,-0.3301932834459971,-0.3071167262589207,0.6406011395575053,-154.58200075536982,16.13041264048083,13.576461659580188,0.1218,-0.9755,0.1403,0.1182
874639.0,632.334769,1.0,-2.3,-2.17,-8.26,7.88,-7.06,43.38,-21.69,131.44,-16.12,-0.3216672375294149,-0.5501918090836321,0.9850674230743924,-156.70033876277134,16.049401279911372,10.465291924669183,0.1143,-0.9794,0.1396,0.0912
874676.0,632.380264,1.0,-0.28,-1.93,-10.67,5.56,-7.5,42.56,-16.81,123.75,-12.38,1.0138043920553454,0.39051912348158735,-0.9855645766679616,-159.3455716366145,16.03782888845279,5.6516548202737225,0.1016,-0.9838,0.1395,0.0493
874711.0,632.4093429999998,1.0,-1.71,-0.7,-8.05,0.69,-7.88,42.25,-45.06,126.19,-31.0,-1.2741822437296677,0.3439495692025981,1.6534445994468268,-160.94065918134044,15.82955387412607,2.6931495578860725,0.0889,-0.9862,0.1377,0.0235
874745.0,632.4481059999998,1.0,1.51,-1.64,-10.76,0.69,-7.88,42.25,3.44,170.94,-22.75,0.9762282504289096,0.4181915281946513,-1.1304151570158787,-161.86255690793462,15.32065719904219,-3.6446260183907717,0.0784,-0.9875,0.1333,-0.0318
874780.0,632.488562,1.0,1.46,-1.23,-10.24,-2.69,-9.0,42.19,-8.56,91.94,-22.06,0.2927701970387685,0.5729150705447074,-0.5898952883959812,-161.21954183361512,15.147239662385427,-6.879625535030392,0.075,-0.9866,0.1318,-0.06
874817.0,632.543683,1.0,-0.43,-0.77,-6.4,-8.69,-8.56,42.19,-8.13,87.69,-29.94,-1.4854569691511592,-0.15234108161323415,3.5211102628212454,-160.4621037024181,14.54632631618216,-10.465291924669183,0.0671,-0.9855,0.1266,-0.0912
874852.0,632.5576070000002,1.0,7.32,-3.06,-12.95,-8.69,-8.56,42.19,8.44,252.81,-49.38,3.5695557078083646,-0.10278904292215453,-4.95465774902779,-157.33304425296922,13.4841456448157,-16.801965875210325,0.0585,-0.9805,0.1174,-0.1461
874887.0,632.602051,1.0,8.71,-1.79,-15.02,-12.25,-9.38,40.56,-10.88,68.12,-12.56,2.701083107866658,1.2632780968393122,-7.391514974625733,-154.3228637180319,13.034229810442689,-21.170698001897183,0.0522,-0.975,0.1135,-0.1837
874921.0,632.622843,1.0,-1.06,-1.42,-6.39,-19.5,-9.38,39.0,-0.19,-30.06,-4.06,-2.920814759752004,-1.2827307431329322,3.993256586524831,-155.214797761141,13.207250097467805,-20.087487431641744,0.0485,-0.9767,0.115,-0.1744
874958.0,632.648449,1.0,1.39,-1.41,-7.97,-17.56,-10.88,38.69,-10.88,45.0,-20.5,-1.3590120031542363,-0.6254962988742034,1.731816208807924,-154.79119639620873,12.849707716341904,-20.90263293758787,0.0475,-0.9759,0.1119,-0.1814
874991.0,632.6853120000002,1.0,7.32,-0.4,-12.18,-17.56,-10.88,38.69,-9.31,0.63,7.0,2.127687817456448,1.9120233620265303,-4.1185757150292615,-154.21992611229572,12.861239362009444,-21.602179804976906,0.0458,-0.9748,0.11199999999999999,-0.1874
875030.0,632.729186,1.0,1.04,0.0,-6.15,-18.25,-10.06,38.19,13.5,-18.37,-3.75,-1.2439452201740182,0.5566630528909159,3.7200395693290513,-155.214797761141,12.872771138472865,-20.4134200209308,0.0463,-0.9767,0.1121,-0.1772
875065.0,632.77497,1.0,2.47,-2.5,-8.71,-17.19,-10.88,38.56,31.37,69.62,-31.0,-0.6261223419303718,-1.343169273086481,0.5320143135284319,-154.16860854190614,12.088902226339815,-21.940584737009782,0.0519,-0.9747,0.1053,-0.1903
875100.0,632.8004950000002,1.0,6.55,-2.21,-11.61,-17.19,-10.88,38.56,12.75,9.25,8.88,1.3818191800239763,0.15587320665749935,-3.633773330281088,-152.23986727877062,11.777819636455906,-24.0923596055089,0.0592,-0.9708,0.1026,-0.2087
875132.0,632.849427,1.0,2.59,-0.14,-8.23,-19.75,-9.0,38.56,-24.0,-52.94,8.38,-0.8361883855869501,0.9939420523983602,1.2759133272217549,-153.66083809692267,12.261764386292771,-22.325902171258928,0.0547,-0.9737,0.1068,-0.1936
875169.0,632.8720450000002,1.0,2.7,-1.79,-9.03,-19.5,-10.88,39.0,12.75,-9.44,-5.63,-0.6315926348985745,-0.5013711087400842,0.2471145638575827,-154.37448496866145,11.962154211464537,-21.625511921173292,0.055999999999999994,-0.9751,0.1042,-0.1876
875206.0,632.89285,1.0,6.06,-2.52,-12.22,-19.5,-10.88,39.0,34.38,-77.31,32.38,1.5818121698860308,0.00288472766797071,-3.973780397398581,-154.89643727544532,12.192616183384215,-20.55315637010219,0.0635,-0.9761,0.1062,-0.1784
875239.0,632.93548,1.0,1.1,-1.25,-7.99,-18.69,-9.69,39.75,15.0,-208.13,51.69,-0.7394603871080573,0.18318879793024395,1.6806275904683297,-158.28578665640208,13.541842119876778,-13.772662665221276,0.0847,-0.9821,0.1179,-0.1199
875276.0,632.978734,1.0,-1.28,-0.58,-6.27,-14.5,-8.56,40.38,-11.63,-127.37,13.75,-2.1152625555131532,0.12134949388130375,3.740461854090024,-161.14943788464137,13.611082444309169,-8.165828301178744,0.0887,-0.9865,0.1185,-0.0712
875311.0,632.999922,1.0,2.39,-1.88,-12.01,-8.88,-8.19,41.5,18.06,-29.25,-7.5,0.9872412498699441,0.769211287940085,-2.5189440509600107,-161.71772704701445,13.057297449093687,-7.1207175606295605,0.0917,-0.9873,0.1137,-0.0621
875345.0,633.033992,1.0,1.59,-2.81,-10.19,-8.88,-8.19,41.5,39.94,-72.31,16.0,1.0467899485388332,-0.25151463884121905,-0.8282581420615323,-161.28990608516978,13.172643633299911,-4.883078110442899,0.1067,-0.9867,0.1147,-0.0426
875382.0,633.080188,1.0,-0.03,-2.15,-8.68,-7.0,-7.88,43.56,-19.0,-36.38,0.88,-0.3193879559336146,-0.2739598254299467,0.8741958384800554,-161.64573705685663,12.999629346780695,-3.6446260183907717,0.1074,-0.9872,0.1132,-0.0318
875419.0,633.123638,1.0,0.22,-1.69,-10.01,-6.0,-7.5,42.69,9.38,-49.88,12.19,0.03237709385718898,0.6007229042679222,-0.3295565742604758,-161.57402592832648,13.184178987120148,-1.7647797695524667,0.1108,-0.9871,0.1148,-0.0154
875452.0,633.157564,1.0,-0.11,-2.8,-9.92,-6.0,-7.5,42.69,40.13,-91.19,28.25,0.3190744468846927,-0.1983820672878377,-0.4946769073806152,-160.12726585571855,13.634163660769715,0.3781528311358495,0.1255,-0.985,0.1187,0.0033
875487.0,633.191849,1.0,-1.92,-1.71,-7.4,-4.0,-6.75,43.5,-39.75,-60.31,2.13,-1.2658631308128545,-0.2512372930553588,2.0797508576126145,-160.39468315225946,13.564921674838883,3.1287382797377283,0.1199,-0.9854,0.1181,0.0273
875522.0,633.227704,1.0,-0.8,-1.54,-9.59,-0.69,-6.0,43.19,-0.25,5.63,-9.88,-0.11733977095230105,0.6175737738554687,0.08119196389708172,-161.00999937311443,13.126503557539667,3.369477361207863,0.1156,-0.9863,0.1143,0.0294
875558.0,633.2613719999998,1.0,0.79,-4.01,-12.45,-1.0,-6.75,43.06,43.06,-52.0,20.12,2.173896111090662,-0.3412414616309639,-3.1109515561345202,-159.66766312617878,13.322613734970494,3.873932556571698,0.1288,-0.9843,0.11599999999999999,0.0338
875591.0,633.296784,1.0,-1.41,-2.87,-7.22,-1.0,-6.75,43.06,-19.69,-49.25,14.5,-0.17548004226314828,-1.0891393916846803,1.987674226904903,-159.0283735374385,13.576461659580188,5.686074397008276,0.1289,-0.9833,0.1182,0.0496
875630.0,633.332313,1.0,-0.87,-1.54,-9.82,0.75,-6.0,43.88,-36.94,27.69,-13.0,0.2407631251246791,0.6915419186896707,-0.14446566068223632,-160.39468315225946,13.276466658923828,5.777862453568277,0.1149,-0.9854,0.1156,0.0504
875665.0,633.375897,1.0,0.23,-2.69,-11.73,2.69,-6.38,43.06,23.75,-12.0,23.31,1.6622818670044577,0.4048577720234928,-2.107828972202708,-159.8633643903993,13.599542044193303,5.525454047712893,0.1194,-0.9846,0.1184,0.0482
875698.0,633.4077940000002,1.0,-1.19,-1.64,-8.67,2.69,-6.38,43.06,-25.12,-26.31,11.75,0.049512244372975855,0.27003042208633443,0.9072549582679468,-159.4738082027549,14.026630173419028,6.868145731332586,0.1149,-0.9840000000000001,0.1221,0.0599
875732.0,633.4448980000002,1.0,-1.24,-1.84,-10.96,2.25,-6.38,43.5,-13.81,5.81,-1.19,0.3155682964488193,0.5046118776121409,-1.3598437873644649,-159.8633643903993,13.93427040697098,7.097755072388746,0.1094,-0.9846,0.1213,0.0619
875769.0,633.481838,1.0,-1.89,-2.48,-9.63,2.25,-7.88,44.0,13.38,-87.87,32.19,0.017197703579552304,-0.3854604791211233,-0.3082165071778036,-158.3467074683401,14.54632631618216,8.774827247055486,0.1162,-0.9822,0.1266,0.0765
875804.0,633.493229,1.0,-2.93,-0.83,-6.64,2.25,-7.88,44.0,-21.75,-73.12,16.56,-1.4557594995710017,0.2133457037088788,2.651326954174761,-156.92843283344138,14.927627478593793,11.351662230904264,0.1154,-0.9798,0.1299,0.0989
875839.0,633.53261,1.0,-1.27,-1.99,-10.03,4.19,-7.06,42.38,3.63,14.44,-6.44,1.1316429218961848,0.26458177556215523,-0.4316741197650416,-157.21671751944734,14.38461134345722,12.111948910357555,0.1099,-0.9803,0.1252,0.1055
875874.0,633.574579,1.0,-1.07,-2.24,-11.48,6.5,-7.88,42.69,7.63,-15.0,11.44,1.689256185843116,0.5409231368441699,-1.8039794273229441,-156.58711361479934,14.696516297153034,12.353968967121856,0.1145,-0.9792,0.1279,0.1076
875911.0,633.610516,1.0,-3.37,-1.27,-7.49,5.25,-7.06,43.19,-12.13,-21.62,4.31,-1.34969845855503,-0.09324380478408842,1.6066792888423351,-156.25063177900063,14.823619947246295,13.184178987120148,0.1122,-0.9786,0.129,0.1148
875943.0,633.6496030000002,1.0,-2.21,-2.67,-10.17,5.25,-7.06,43.19,-2.5,15.25,-4.0,0.6206331488771419,-0.5170049481103329,-0.9073324704982736,-156.47442582901172,14.754288420181696,12.988096123558293,0.1107,-0.9790000000000001,0.1284,0.1131
875980.0,633.684572,1.0,-2.04,-2.36,-9.92,6.5,-7.88,41.5,9.0,-32.44,22.75,0.7287524298602002,-0.12815978610880566,-0.5659145317441876,-155.5372354443148,15.32065719904219,13.437990937987554,0.1161,-0.9773,0.1333,0.11699999999999999
876017.0,633.747778,1.0,-2.92,-0.94,-7.9,6.5,-8.19,41.5,-20.31,-37.56,18.62,-0.6636445248537106,0.42270929451159456,1.3685878529803899,-154.63414056108863,15.737004132862339,14.985414779298193,0.1114,-0.9756,0.1369,0.1304
876050.0,633.771529,1.0,-2.33,-2.4,-8.84,6.5,-8.19,41.5,9.5,25.62,3.19,0.5131375433103713,-0.6517987773802184,0.3914310319965999,-155.0021140741398,15.713868313956251,14.84673166768115,0.1071,-0.9763,0.1367,0.1292
876085.0,633.783498,1.0,-1.13,-3.69,-10.84,7.56,-8.56,41.0,27.19,19.75,39.06,2.3032297308937064,-0.9176017293809272,-1.429529950186117,-154.21992611229572,17.137959104392678,13.841919736512358,0.1145,-0.9748,0.149,0.1205
876122.0,633.828016,1.0,-2.3,-0.36,-8.72,6.06,-7.06,41.88,-52.38,13.0,10.56,-0.23281388652124035,1.0660240462701658,0.8474429800111967,-154.73873772257048,17.578451378167774,13.807290567361374,0.1006,-0.9758,0.1528,0.1202
876156.0,633.859249,1.0,-1.92,-1.99,-8.34,6.06,-7.06,41.88,-21.69,53.25,7.88,0.36952086610855983,-0.6667604507560896,1.0533086476467195,-155.75453926974473,18.03080801097451,12.238714488577818,0.0899,-0.9777,0.1567,0.1066
876189.0,633.9016389999998,1.0,-1.25,-1.96,-10.39,6.75,-8.56,42.25,-36.38,76.0,28.81,0.94300588398108,-0.23430508342090398,-0.7958044814236391,-156.41828103776766,19.12228331882828,9.74054901066208,0.0829,-0.9789,0.1661,0.0849
876226.0,633.938336,1.0,-1.34,0.12,-9.8,4.56,-8.56,41.88,-54.31,34.38,25.31,-0.039653052921679977,1.131112785361652,-0.020303317391174858,-156.92843283344138,20.029302535998788,8.717364176475899,0.0627,-0.9798,0.1739,0.076
876261.0,633.978076,1.0,-1.06,-1.49,-9.78,2.69,-11.19,41.5,-8.81,31.44,42.0,0.6916635939744498,-0.3997195633413584,-0.1107047755161279,-156.5307030363511,20.984205642908503,7.982025743589274,0.0576,-0.9791,0.1821,0.0696
876296.0,633.99312,1.0,-1.66,-0.27,-9.06,2.69,-11.19,41.5,-57.81,71.94,9.0,-0.6151923518398149,0.028855606012484606,0.6124776215724861,-156.98580474112185,21.695513718287586,6.145052377433653,0.0395,-0.9799,0.1882,0.0536
876333.0,634.034619,1.0,0.3,-1.04,-11.22,0.06,-11.19,41.5,25.12,21.62,40.81,1.5081451616250274,0.16756377634330946,-1.3628361364489194,-156.41828103776766,22.55955209306089,5.181303758795194,0.037000000000000005,-0.9789,0.1956,0.0452
876367.0,634.0777400000002,1.0,-1.25,0.56,-9.55,-1.0,-13.06,41.06,-12.31,-15.5,22.25,-0.5717627284521247,0.8656873495701931,0.21486847646918505,-155.4292933262199,23.518522416981746,5.709021066543901,0.035,-0.9771,0.2038,0.0498
876402.0,634.105449,1.0,-1.46,-1.1,-8.74,-1.0,-13.06,41.06,-25.31,51.75,-6.69,-0.2750664369574368,-0.9589474110687144,0.933434217767262,-155.91878451766874,23.38978453262475,4.825730880475589,0.0278,-0.978,0.2027,0.0421
876437.0,634.13053,1.0,1.35,-2.74,-12.82,-1.75,-12.69,41.5,4.94,29.56,37.06,3.0314833330276887,-1.1951925412329376,-2.963006361506228,-155.214797761141,24.38536915234885,3.6331610823402585,0.0228,-0.9767,0.2112,0.0317
876472.0,634.183675,1.0,-1.89,2.23,-8.03,-3.25,-13.06,40.25,-16.31,-50.75,13.69,-1.991412282594284,1.661330263200449,1.6641590496023912,-154.27134430279997,25.06577882303193,5.284543793645802,0.0178,-0.9749,0.217,0.0461
876509.0,634.198352,1.0,-2.46,-0.41,-6.26,-2.5,-13.88,41.5,5.56,22.69,-7.88,-1.5896409068728468,-1.0586170375692068,3.3444776288105205,-154.47803544959174,24.93666734562011,4.791323123878448,0.019,-0.9753,0.2159,0.0418
876544.0,634.258469,1.0,0.85,-3.62,-12.46,-2.5,-13.88,41.5,-15.31,81.44,18.37,2.774306899086356,-2.492981974161935,-2.649945124920196,-154.73873772257048,25.124476539770274,2.521217704700676,0.0125,-0.9758,0.2175,0.022000000000000002
876580.0,634.292007,1.0,0.55,2.54,-11.02,-4.0,-13.06,39.88,-53.56,10.06,-4.31,-0.1576083725746208,2.3544085028664448,-1.2670314204908646,-154.47803544959174,25.418065988790868,2.0054546535892377,-0.0121,-0.9753,0.22,0.0175
876615.0,634.343429,1.0,-1.44,2.54,-7.22,-5.5,-14.56,39.0,3.31,65.69,-22.81,-2.215367592860684,1.4806230583264413,2.488624187825333,-154.9492208405226,24.96013976228266,0.8823637238721431,-0.0168,-0.9762,0.2161,0.0077
876650.0,634.35548,1.0,0.63,-1.62,-10.39,-5.5,-14.56,39.0,21.75,132.25,-13.13,0.5458720228649794,-1.6172088462543397,-0.5885440473591004,-155.214797761141,24.350199497398,-4.2179217507646545,-0.0118,-0.9767,0.2109,-0.0368
876685.0,634.388769,1.0,1.22,1.5,-9.81,-7.38,-15.5,39.88,-47.44,70.12,-28.19,-0.5481905588518925,1.0416872384302271,-0.12254305928116692,-155.214797761141,23.47170516617001,-7.028869316139518,-0.0296,-0.9767,0.2034,-0.0613
876722.0,634.429121,1.0,3.49,0.95,-10.93,-10.38,-14.69,39.5,24.0,103.69,-39.0,1.1465358318573813,1.0333681187146382,-1.602342326997647,-155.4292933262199,22.080670872919914,-9.80955486143351,-0.0361,-0.9771,0.1915,-0.0855
876756.0,634.4715980000002,1.0,2.73,1.62,-9.99,-10.38,-14.69,39.5,18.5,66.19,-36.0,-0.04204820205303017,1.4153403334068435,-0.5795159764003355,-155.32181611488016,21.042478443283557,-12.134996086138985,-0.0339,-0.9769,0.1826,-0.1057
876791.0,634.500001,1.0,1.64,-1.18,-9.61,-12.69,-16.5,38.69,47.5,76.69,-29.81,-0.5397265178056869,-1.5536808486949727,0.12528278733960185,-155.10823234547746,19.145524872704485,-15.39003407585724,-0.0284,-0.9765,0.1663,-0.1339
876826.0,634.52145,1.0,4.41,-0.8,-10.72,-15.19,-16.06,38.19,31.56,35.63,-15.69,1.21201090238802,-0.3889934790484605,-1.7426449414996945,-154.84376268843482,18.193261198253683,-17.09160645080068,-0.0219,-0.976,0.1581,-0.1486
876863.0,634.547388,1.0,2.93,2.21,-8.6,-17.5,-14.56,37.0,-8.31,-7.31,-32.44,-0.4326597467367817,2.161935930134594,0.7199653142883449,-155.214797761141,17.636430239406273,-16.998909587512788,-0.0243,-0.9767,0.1533,-0.1478
876896.0,634.5869190000002,1.0,1.86,-0.86,-8.46,-17.5,-14.56,37.0,51.38,49.38,-40.06,-0.6984126674964946,-0.9591170329468384,1.1832449728084935,-155.4292933262199,15.945255673236543,-18.541499822002773,-0.0151,-0.9771,0.1387,-0.1611
876933.0,634.653101,1.0,3.83,-2.08,-9.59,-16.69,-15.38,37.0,1.12,3.94,1.94,0.8769635790635979,-1.55770539192311,-0.5744813830896884,-154.9492208405226,15.621331474060085,-19.470990576087328,-0.0065,-0.9762,0.1359,-0.1691
876969.0,634.689568,1.0,3.59,1.95,-8.96,-17.87,-14.19,38.19,-45.81,3.38,-24.06,-0.14780125738944982,2.024411142236091,0.17066980515191865,-155.16145880106285,15.216602467156427,-19.343110284151184,-0.0206,-0.9766,0.1324,-0.168
877002.0,634.723015,1.0,3.7,-0.99,-8.82,-17.87,-14.19,38.19,34.81,41.44,-32.75,0.6132073579915092,-0.7511818372750217,0.2399262879106185,-155.05511767406654,14.292215737283833,-20.23879269230359,-0.0165,-0.9764,0.1244,-0.1757
877037.0,634.735049,1.0,4.62,-1.29,-10.99,-18.5,-15.69,37.75,13.38,27.87,-5.69,0.4931975047860755,-0.9359119286069304,-2.1377807140677074,-154.3228637180319,13.680327762024126,-21.555518290408006,-0.0115,-0.975,0.1191,-0.187
877074.0,634.777072,1.0,3.04,0.78,-8.2,-19.25,-15.0,36.06,-22.31,-13.88,-11.5,-0.3335771852484781,0.8709781954887745,1.076236307369804,-154.63414056108863,13.899637842978935,-21.042478443283557,-0.0141,-0.9756,0.121,-0.1826
877111.0,634.803663,1.0,3.09,1.04,-8.07,-20.0,-15.38,38.0,33.25,34.75,-21.5,-0.3786349766296857,1.1150100915564396,1.182962386791834,-154.58200075536982,13.06883146764636,-21.672178876755066,-0.0141,-0.9755,0.1138,-0.188
877144.0,634.843342,1.0,4.52,-1.2,-9.87,-20.0,-15.38,38.0,5.38,50.88,-9.56,0.464837633469195,-0.8598131806522059,-1.0713988723340222,-153.5103719816942,12.549930441445206,-23.202582809395707,-0.0103,-0.9734,0.1093,-0.2011
877180.0,634.893384,1.0,4.88,0.83,-9.75,-18.87,-15.0,37.88,2.0,10.88,-14.56,0.2451973010396462,1.0477115131096213,-1.0748930371276124,-152.81901206638815,12.181091916848366,-24.0923596055089,-0.0161,-0.972,0.1061,-0.2087
877215.0,634.947005,1.0,3.47,-0.43,-8.08,-20.0,-15.69,36.25,26.75,-3.44,-13.63,-0.06776359294045697,-0.27141069972216103,1.0069940790251266,-153.1625065187994,11.697182904814724,-24.022061174011174,-0.0114,-0.9727,0.1019,-0.2081
877250.0,634.9566679999998,1.0,3.31,-0.7,-8.2,-20.0,-15.69,36.25,-11.88,22.75,-6.38,-0.3072027591972202,-0.5289874302182245,0.9572489601887336,-152.72165046658662,11.501374957383893,-24.64335146895964,-0.0079,-0.9718,0.1002,-0.2134
877285.0,635.032517,1.0,5.48,0.99,-10.48,-20.37,-15.0,36.25,2.88,19.94,-11.75,0.19152378814618487,1.3254988567442307,-1.9851807068641316,-152.1444912618588,11.00624507066077,-25.476804175852642,-0.0098,-0.9706,0.0959,-0.2205
877322.0,635.0416150000002,1.0,3.42,-0.82,-8.31,-21.06,-15.0,35.75,31.37,-3.94,-6.0,-0.34727720951383456,-0.6080709593582841,0.8102869432899471,-152.47972490837182,10.660928195342473,-25.31235434951457,-0.0046,-0.9713,0.0929,-0.2191
877357.0,635.131023,1.0,3.95,-0.61,-8.67,-21.06,-15.0,35.75,12.5,7.44,4.56,-0.11563150354566833,-0.21625465524493093,0.26288956296719235,-152.28767595523584,10.568860221135683,-25.52379962585345,0.0016,-0.9709,0.0921,-0.2209
877391.0,635.178172,1.0,6.53,0.09,-10.38,-21.06,-15.0,36.19,23.75,4.63,-6.38,1.2409237330094816,0.8507090308722702,-2.364208738546191,-152.09692309623645,10.235170717586842,-25.876405289927124,0.002,-0.9705,0.0892,-0.2239
877426.0,635.187547,1.0,3.12,-1.81,-7.83,-20.37,-15.0,35.38,16.81,-28.69,4.94,-0.23863507278269536,-1.3857231149233595,1.301226744758372,-152.81901206638815,10.177646918437086,-25.0892571067724,0.0096,-0.972,0.0887,-0.2172
877463.0,635.200749,1.0,3.79,0.68,-8.54,-20.75,-14.56,36.56,-31.31,12.69,1.75,-0.3455155210990053,1.0894396511315299,0.5087018246646426,-152.81901206638815,10.465291924669183,-24.983613243143306,0.0047,-0.972,0.0912,-0.2163
877496.0,635.2213929999998,1.0,8.1,0.06,-12.17,-20.75,-14.56,36.56,15.56,-3.38,9.5,2.0562801093598164,1.1962703513116335,-4.617744245805406,-152.7702885732456,10.6148933492606,-25.00708778933191,0.0062,-0.9719,0.0925,-0.2165
877533.0,635.247686,1.0,2.29,-0.73,-8.08,-21.06,-14.56,35.38,8.31,-78.37,12.44,-0.9393023703447668,-0.4427721415823976,1.4409423857151662,-154.47803544959174,11.086833319532733,-22.88682192770989,0.0091,-0.9753,0.0966,-0.1984
877570.0,635.275479,1.0,1.25,-1.59,-7.3,-19.56,-14.88,36.69,4.81,-44.94,19.25,-1.1568927358400902,-1.3674833803298303,2.4464741595541915,-155.97377873337675,11.674144907935558,-20.867676487915002,0.0142,-0.9781,0.1017,-0.1811
877604.0,635.320616,1.0,5.79,-0.82,-11.64,-19.56,-14.88,36.69,-11.56,-91.75,19.81,1.6996117821068029,0.3694100298725608,-3.103073313067295,-157.27480743211564,12.192616183384215,-19.029325032716933,0.0151,-0.9804,0.1062,-0.1653
877637.0,635.353916,1.0,1.27,1.29,-7.53,-18.06,-13.75,38.75,-18.62,-111.12,25.56,-1.022363671829559,1.5327761211813336,2.284464819823996,-160.12726585571855,13.172643633299911,-14.765843296845908,0.013999999999999999,-0.985,0.1147,-0.1285
877674.0,635.392286,1.0,1.12,-0.53,-8.1,-15.06,-13.75,37.5,15.19,11.31,2.63,-0.82784633569078,-0.18227849286066,1.6563895749875732,-160.39468315225946,13.322613734970494,-14.153639819523336,0.019,-0.9854,0.11599999999999999,-0.1232
877711.0,635.4058759999998,1.0,4.67,-0.66,-11.73,-14.0,-14.06,39.5,0.12,10.0,-6.81,1.454282366143227,0.4706100562416136,-2.7432897996360595,-159.9290177639615,12.999629346780695,-15.089441590206313,0.0173,-0.9847,0.1132,-0.1313
877744.0,635.446542,1.0,0.95,0.03,-7.79,-14.0,-14.06,39.5,-16.44,-32.94,-0.88,-1.0379566289967894,0.2583329646901129,2.0321139935443067,-160.59764077497127,12.999629346780695,-14.222925164993965,0.0151,-0.9857,0.1132,-0.1238
877780.0,635.482729,1.0,1.84,-1.14,-8.71,-13.25,-13.0,38.75,-3.13,31.31,-2.25,-0.22328999004189687,-0.6785028161165871,0.8601939693212035,-160.39468315225946,12.988096123558293,-14.569430825374987,0.0154,-0.9854,0.1131,-0.1268
