,TIME,ELAPSED_SECONDS,PSTATE,acc_x,acc_y,acc_z,mag_x,mag_y,mag_z,gyr_x,gyr_y,gyr_z,lin_x,lin_y,lin_z,eul_x,eul_y,eul_z,qua_w,qua_x,qua_y,qua_z
0,4193095.0,1427.664283,1.0,2.43,1.96,-9.6,14.06,-20.69,31.06,3.94,5.19,0.0,-0.08865331026875177,-0.23945050998975734,-0.2849952595126464,-120.20074735368748,-56.445414155152676,-17.508882729880764,-0.0406,-0.8669,-0.4729,-0.1522
1,4193095.0,1427.664283,1.0,2.43,1.96,-9.6,14.06,-20.69,31.06,3.94,5.19,0.0,-0.08865331026875177,-0.23945050998975734,-0.2849952595126464,-120.20074735368748,-56.445414155152676,-17.508882729880764,-0.0406,-0.8669,-0.4729,-0.1522
2,4193130.0,1427.7033880000001,1.0,2.34,2.08,-9.47,13.69,-20.25,31.5,0.69,2.13,-2.25,-0.003596739402167925,-0.09799857487702912,-0.16697939670347495,-120.13181910251943,-56.49744158979394,-17.566856150665245,-0.0402,-0.8666,-0.4733,-0.1527
3,4193130.0,1427.7033880000001,1.0,2.34,2.08,-9.47,13.69,-20.25,31.5,0.69,2.13,-2.25,-0.003596739402167925,-0.09799857487702912,-0.16697939670347495,-120.13181910251943,-56.49744158979394,-17.566856150665245,-0.0402,-0.8666,-0.4733,-0.1527
4,4193167.0,1427.7734369999998,1.0,2.37,1.91,-9.4,13.69,-20.25,31.5,1.94,-1.94,-0.81,-0.08717189444177849,-0.21925749328099653,-0.07106872511358553,-120.108859015364,-56.56249373757082,-17.485694626999518,-0.0396,-0.8665,-0.4738,-0.152
5,4193167.0,1427.7734369999998,1.0,2.37,1.91,-9.4,13.69,-20.25,31.5,1.94,-1.94,-0.81,-0.08717189444177849,-0.21925749328099653,-0.07106872511358553,-120.108859015364,-56.56249373757082,-17.485694626999518,-0.0396,-0.8665,-0.4738,-0.152
6,4193202.0,1427.7898619999999,1.0,2.2,2.09,-9.51,13.25,-21.06,31.87,2.19,-1.25,-4.88,-0.053078206893585056,0.02055182356809282,-0.17558223164543565,-120.04002661398823,-56.65360014298316,-17.427727524479447,-0.0397,-0.8662,-0.4745,-0.1515
7,4193202.0,1427.7898619999999,1.0,2.2,2.09,-9.51,13.25,-21.06,31.87,2.19,-1.25,-4.88,-0.053078206893585056,0.02055182356809282,-0.17558223164543565,-120.04002661398823,-56.65360014298316,-17.427727524479447,-0.0397,-0.8662,-0.4745,-0.1515
8,4193236.0,1427.823792,1.0,2.13,1.69,-9.24,13.25,-20.69,32.38,2.06,-1.37,-2.06,-0.31324767521437746,-0.15973446440813646,0.18132087342708125,-119.94836140851372,-56.78381993878929,-17.33498950133432,-0.0391,-0.8658,-0.4755,-0.1507
9,4193236.0,1427.823792,1.0,2.13,1.69,-9.24,13.25,-20.69,32.38,2.06,-1.37,-2.06,-0.31324767521437746,-0.15973446440813646,0.18132087342708125,-119.94836140851372,-56.78381993878929,-17.33498950133432,-0.0391,-0.8658,-0.4755,-0.1507
10,4193271.0,1427.837172,1.0,2.22,1.98,-9.35,14.06,-20.25,32.69,-0.12,1.75,0.19,-0.0679923852088545,-0.06476421693021918,-0.004694588371103592,-119.94836140851372,-56.77079436287129,-17.358172932119437,-0.039,-0.8658,-0.4754,-0.1509
11,4193271.0,1427.837172,1.0,2.22,1.98,-9.35,14.06,-20.25,32.69,-0.12,1.75,0.19,-0.0679923852088545,-0.06476421693021918,-0.004694588371103592,-119.94836140851372,-56.77079436287129,-17.358172932119437,-0.039,-0.8658,-0.4754,-0.1509
12,4193306.0,1427.901017,1.0,2.27,1.93,-9.46,14.06,-20.25,32.69,0.56,0.25,-1.06,-0.11240335433138614,-0.11908383855593875,-0.11013297258389976,-119.94836140851372,-56.7968463150502,-17.358172932119437,-0.0386,-0.8658,-0.4756,-0.1509
13,4193306.0,1427.901017,1.0,2.27,1.93,-9.46,14.06,-20.25,32.69,0.56,0.25,-1.06,-0.11240335433138614,-0.11908383855593875,-0.11013297258389976,-119.94836140851372,-56.7968463150502,-17.358172932119437,-0.0386,-0.8658,-0.4756,-0.1509
14,4193341.0,1427.919548,1.0,2.25,1.98,-9.39,13.25,-19.56,33.19,0.37,-3.13,0.31,-0.054082841642590994,-0.08826468782780318,-0.04953001008111357,-119.97126580924143,-56.78381993878929,-17.300215695418142,-0.0388,-0.8659,-0.4755,-0.1504
15,4193341.0,1427.919548,1.0,2.25,1.98,-9.39,13.25,-19.56,33.19,0.37,-3.13,0.31,-0.054082841642590994,-0.08826468782780318,-0.04953001008111357,-119.97126580924143,-56.78381993878929,-17.300215695418142,-0.0388,-0.8659,-0.4755,-0.1504
16,4193378.0,1427.9612710000001,1.0,2.12,1.99,-9.24,13.69,-19.56,31.5,-0.25,1.12,-1.31,-0.06087541917900219,0.012659948568488066,0.12015249527508408,-119.94836140851372,-56.8098734919699,-17.26544349477142,-0.0387,-0.8658,-0.4757,-0.1501
17,4193378.0,1427.9612710000001,1.0,2.12,1.99,-9.24,13.69,-19.56,31.5,-0.25,1.12,-1.31,-0.06087541917900219,0.012659948568488066,0.12015249527508408,-119.94836140851372,-56.8098734919699,-17.26544349477142,-0.0387,-0.8658,-0.4757,-0.1501
18,4193413.0,1427.978256,1.0,2.34,2.07,-9.48,13.69,-19.56,31.5,1.12,-0.12,-0.94,0.04341731519947303,-0.10598494654462833,-0.17422081009702772,-119.92546492630352,-56.84895982984303,-17.277034050168414,-0.0385,-0.8657,-0.47600000000000003,-0.1502
19,4193413.0,1427.978256,1.0,2.34,2.07,-9.48,13.69,-19.56,31.5,1.12,-0.12,-0.94,0.04341731519947303,-0.10598494654462833,-0.17422081009702772,-119.92546492630352,-56.84895982984303,-17.277034050168414,-0.0385,-0.8657,-0.47600000000000003,-0.1502
20,4193445.0,1428.068975,1.0,2.12,1.72,-9.55,14.5,-21.06,33.5,2.75,-3.88,-2.0,-0.3469161532787393,-0.1157525505169852,-0.1191522612604512,-119.90257635349056,-56.92715416608731,-17.126370676427072,-0.0382,-0.8656,-0.4766,-0.1489
21,4193445.0,1428.068975,1.0,2.12,1.72,-9.55,14.5,-21.06,33.5,2.75,-3.88,-2.0,-0.3469161532787393,-0.1157525505169852,-0.1191522612604512,-119.90257635349056,-56.92715416608731,-17.126370676427072,-0.0382,-0.8656,-0.4766,-0.1489
22,4193482.0,1428.122709,1.0,2.14,2.19,-9.19,13.25,-20.69,31.5,-1.5,0.5,1.25,0.1521338108183242,0.08534520370151523,0.1215391849493539,-119.94836140851372,-56.88805338503149,-17.09160645080068,-0.0387,-0.8658,-0.4763,-0.1486
23,4193482.0,1428.122709,1.0,2.14,2.19,-9.19,13.25,-20.69,31.5,-1.5,0.5,1.25,0.1521338108183242,0.08534520370151523,0.1215391849493539,-119.94836140851372,-56.88805338503149,-17.09160645080068,-0.0387,-0.8658,-0.4763,-0.1486
24,4193519.0,1428.172087,1.0,1.95,2.09,-9.28,13.69,-20.69,33.5,3.38,0.12,-4.81,-0.04587002733064058,0.1998866205832639,0.0985636139244992,-119.85682289966009,-56.99233821526014,-17.080018727926856,-0.0383,-0.8654,-0.4771,-0.1485
25,4193519.0,1428.172087,1.0,1.95,2.09,-9.28,13.69,-20.69,33.5,3.38,0.12,-4.81,-0.04587002733064058,0.1998866205832639,0.0985636139244992,-119.85682289966009,-56.99233821526014,-17.080018727926856,-0.0383,-0.8654,-0.4771,-0.1485
26,4193552.0,1428.186672,1.0,2.02,1.77,-9.27,13.69,-20.69,33.5,1.56,4.63,-2.44,-0.2654991807358208,-0.02028112628116641,0.15909596486003785,-119.71975142044464,-57.12276675948825,-17.103194349757633,-0.0375,-0.8648,-0.4781,-0.1487
27,4193552.0,1428.186672,1.0,2.02,1.77,-9.27,13.69,-20.69,33.5,1.56,4.63,-2.44,-0.2654991807358208,-0.02028112628116641,0.15909596486003785,-119.71975142044464,-57.12276675948825,-17.103194349757633,-0.0375,-0.8648,-0.4781,-0.1487
28,4193589.0,1428.24244,1.0,2.08,1.91,-9.49,13.69,-21.06,33.5,3.94,1.63,-1.25,-0.18716882302603324,0.0396308271765029,-0.09274378089508772,-119.67412364784863,-57.16191107597382,-17.161136490218524,-0.0367,-0.8646,-0.4784,-0.1492
29,4193589.0,1428.24244,1.0,2.08,1.91,-9.49,13.69,-21.06,33.5,3.94,1.63,-1.25,-0.18716882302603324,0.0396308271765029,-0.09274378089508772,-119.67412364784863,-57.16191107597382,-17.161136490218524,-0.0367,-0.8646,-0.4784,-0.1492
30,4193624.0,1428.297943,1.0,2.19,1.69,-9.42,13.25,-20.69,32.69,1.25,4.31,-2.63,-0.2852322208166622,-0.15802268868581906,-0.005703000685846504,-119.60574054309872,-57.25327616401329,-17.184314583414665,-0.0356,-0.8643,-0.4791,-0.1494
31,4193624.0,1428.297943,1.0,2.19,1.69,-9.42,13.25,-20.69,32.69,1.25,4.31,-2.63,-0.2852322208166622,-0.15802268868581906,-0.005703000685846504,-119.60574054309872,-57.25327616401329,-17.184314583414665,-0.0356,-0.8643,-0.4791,-0.1494
32,4193658.0,1428.314379,1.0,2.23,1.9,-9.5,13.25,-20.69,32.69,-1.31,-0.31,0.94,-0.1251109136692138,-0.06526109313189843,-0.13382223470816967,-119.58296175366009,-57.24022157573342,-17.242262917799223,-0.0355,-0.8642,-0.479,-0.1499
33,4193658.0,1428.314379,1.0,2.23,1.9,-9.5,13.25,-20.69,32.69,-1.31,-0.31,0.94,-0.1251109136692138,-0.06526109313189843,-0.13382223470816967,-119.58296175366009,-57.24022157573342,-17.242262917799223,-0.0355,-0.8642,-0.479,-0.1499
34,4193693.0,1428.3170949999999,1.0,2.11,1.89,-9.41,13.69,-19.56,32.69,1.0,3.69,-1.12,-0.16780328373894735,0.036245087117404484,-0.018971016079662558,-119.56019073883043,-57.25327616401329,-17.288624783675054,-0.0349,-0.8641,-0.4791,-0.1503
35,4193693.0,1428.3170949999999,1.0,2.11,1.89,-9.41,13.69,-19.56,32.69,1.0,3.69,-1.12,-0.16780328373894735,0.036245087117404484,-0.018971016079662558,-119.56019073883043,-57.25327616401329,-17.288624783675054,-0.0349,-0.8641,-0.4791,-0.1503
36,4193730.0,1428.325366,1.0,2.39,2.03,-9.55,13.69,-19.19,32.69,-1.19,0.5,-2.25,0.02463189630285731,-0.1101741433472675,-0.2443576573357724,-119.44645197451608,-57.33162075280612,-17.3929494210965,-0.0352,-0.8636,-0.4797,-0.1512
37,4193730.0,1428.325366,1.0,2.39,2.03,-9.55,13.69,-19.19,32.69,-1.19,0.5,-2.25,0.02463189630285731,-0.1101741433472675,-0.2443576573357724,-119.44645197451608,-57.33162075280612,-17.3929494210965,-0.0352,-0.8636,-0.4797,-0.1512
38,4193765.0,1428.36197,1.0,2.0,1.77,-9.28,13.69,-19.19,32.69,5.63,0.19,-3.13,-0.28510132936933186,0.05872500300290484,0.15436692261286036,-119.3556000073112,-57.436125785536824,-17.32339805412093,-0.0345,-0.8632,-0.4805,-0.1506
39,4193765.0,1428.36197,1.0,2.0,1.77,-9.28,13.69,-19.19,32.69,5.63,0.19,-3.13,-0.28510132936933186,0.05872500300290484,0.15436692261286036,-119.3556000073112,-57.436125785536824,-17.32339805412093,-0.0345,-0.8632,-0.4805,-0.1506
40,4193800.0,1428.379463,1.0,2.16,1.73,-9.44,14.06,-20.25,33.06,-2.0,5.81,-0.81,-0.2967568747126158,-0.059060377066972536,-0.025976669876749625,-119.28754177396172,-57.50146795059126,-17.450913825320047,-0.0336,-0.8629,-0.48100000000000004,-0.1517
41,4193800.0,1428.379463,1.0,2.16,1.73,-9.44,14.06,-20.25,33.06,-2.0,5.81,-0.81,-0.2967568747126158,-0.059060377066972536,-0.025976669876749625,-119.28754177396172,-57.50146795059126,-17.450913825320047,-0.0336,-0.8629,-0.48100000000000004,-0.1517
42,4193835.0,1428.427382,1.0,2.4,1.9,-9.53,13.25,-20.25,32.69,1.06,1.63,0.5,-0.07384425167220214,-0.1468617580392878,-0.2015405782474282,-119.24220793672814,-57.51453883608689,-17.532071555357696,-0.0331,-0.8627,-0.4811,-0.1524
43,4193835.0,1428.427382,1.0,2.4,1.9,-9.53,13.25,-20.25,32.69,1.06,1.63,0.5,-0.07384425167220214,-0.1468617580392878,-0.2015405782474282,-119.24220793672814,-57.51453883608689,-17.532071555357696,-0.0331,-0.8627,-0.4811,-0.1524
44,4193871.0,1428.4847439999999,1.0,2.19,1.84,-9.17,13.25,-20.69,33.5,2.44,2.44,-0.5,-0.11839404646238676,-0.027833131982802684,0.20166128753779766,-119.19690467351394,-57.540683062151366,-17.54366623938741,-0.0327,-0.8625,-0.4813,-0.1525
45,4193871.0,1428.4847439999999,1.0,2.19,1.84,-9.17,13.25,-20.69,33.5,2.44,2.44,-0.5,-0.11839404646238676,-0.027833131982802684,0.20166128753779766,-119.19690467351394,-57.540683062151366,-17.54366623938741,-0.0327,-0.8625,-0.4813,-0.1525
46,4193904.0,1428.497201,1.0,2.23,1.81,-9.27,13.25,-20.69,33.5,0.5,6.06,-0.81,-0.1677135344131478,-0.039510321569372286,0.10344377190899223,-119.12900695445512,-57.579905543790595,-17.706010881893693,-0.0317,-0.8622,-0.4816,-0.1539
47,4193904.0,1428.497201,1.0,2.23,1.81,-9.27,13.25,-20.69,33.5,0.5,6.06,-0.81,-0.1677135344131478,-0.039510321569372286,0.10344377190899223,-119.12900695445512,-57.579905543790595,-17.706010881893693,-0.0317,-0.8622,-0.4816,-0.1539
48,4193941.0,1428.5059390000001,1.0,1.96,1.45,-9.18,13.25,-20.0,32.69,2.31,12.5,-0.31,-0.5816792899675699,0.029529515327236574,0.3262872848214631,-119.0385830310132,-57.63221366567701,-17.90319186690899,-0.03,-0.8618,-0.48200000000000004,-0.1556
49,4193941.0,1428.5059390000001,1.0,1.96,1.45,-9.18,13.25,-20.0,32.69,2.31,12.5,-0.31,-0.5816792899675699,0.029529515327236574,0.3262872848214631,-119.0385830310132,-57.63221366567701,-17.90319186690899,-0.03,-0.8618,-0.48200000000000004,-0.1556
50,4193976.0,1428.552381,1.0,2.33,1.01,-9.21,13.69,-19.56,33.5,-0.06,22.12,4.75,-0.8172105941109492,-0.4310253327912456,0.29773397306164817,-118.92572331092975,-57.553756403368006,-18.37896716762953,-0.0274,-0.8613,-0.4814,-0.1597
51,4193976.0,1428.552381,1.0,2.33,1.01,-9.21,13.69,-19.56,33.5,-0.06,22.12,4.75,-0.8172105941109492,-0.4310253327912456,0.29773397306164817,-118.92572331092975,-57.553756403368006,-18.37896716762953,-0.0274,-0.8613,-0.4814,-0.1597
52,4194011.0,1428.570901,1.0,2.75,0.64,-10.04,13.69,-19.56,33.5,-14.19,28.81,10.19,-1.3165885028511637,-0.7550094978798331,-0.5117924877144748,-118.88063215220505,-57.2010626785079,-19.494244164289388,-0.0253,-0.8611,-0.4787,-0.1693
53,4194011.0,1428.570901,1.0,2.75,0.64,-10.04,13.69,-19.56,33.5,-14.19,28.81,10.19,-1.3165885028511637,-0.7550094978798331,-0.5117924877144748,-118.88063215220505,-57.2010626785079,-19.494244164289388,-0.0253,-0.8611,-0.4787,-0.1693
54,4194045.0,1428.6515650000001,1.0,3.09,-0.46,-10.58,12.19,-20.0,35.19,-17.56,26.37,20.06,-2.3961976512781726,-1.4563957248230102,-0.8626165309629528,-119.15163191547691,-56.41940519214721,-20.73951961095484,-0.025,-0.8623,-0.4727,-0.18
55,4194045.0,1428.6515650000001,1.0,3.09,-0.46,-10.58,12.19,-20.0,35.19,-17.56,26.37,20.06,-2.3961976512781726,-1.4563957248230102,-0.8626165309629528,-119.15163191547691,-56.41940519214721,-20.73951961095484,-0.025,-0.8623,-0.4727,-0.18
56,4194082.0,1428.65604,1.0,4.24,0.75,-11.92,11.88,-19.56,34.38,-54.75,24.69,36.5,-1.5806992173479808,-1.5387475729799898,-2.673740454265591,-119.62852711601612,-55.30398226888506,-22.045646214809636,-0.0305,-0.8644,-0.4641,-0.1912
57,4194082.0,1428.65604,1.0,4.24,0.75,-11.92,11.88,-19.56,34.38,-54.75,24.69,36.5,-1.5806992173479808,-1.5387475729799898,-2.673740454265591,-119.62852711601612,-55.30398226888506,-22.045646214809636,-0.0305,-0.8644,-0.4641,-0.1912
58,4194117.0,1428.708489,1.0,4.78,1.37,-12.56,9.25,-22.56,33.19,-48.88,-15.0,52.25,-1.2470996223245778,-1.7214901190421268,-3.5335192006525267,-121.59481456130888,-52.74433270456297,-22.73485185773412,-0.0436,-0.8729,-0.4442,-0.1971
59,4194117.0,1428.708489,1.0,4.78,1.37,-12.56,9.25,-22.56,33.19,-48.88,-15.0,52.25,-1.2470996223245778,-1.7214901190421268,-3.5335192006525267,-121.59481456130888,-52.74433270456297,-22.73485185773412,-0.0436,-0.8729,-0.4442,-0.1971
60,4194152.0,1428.725708,1.0,4.72,1.64,-12.3,9.25,-22.56,33.19,-46.63,-65.25,72.44,-0.8616865487177312,-1.830332054757702,-3.3145306199398625,-123.91521633901593,-50.45328632935345,-21.975603150496873,-0.0558,-0.8826,-0.4262,-0.1906
61,4194152.0,1428.725708,1.0,4.72,1.64,-12.3,9.25,-22.56,33.19,-46.63,-65.25,72.44,-0.8616865487177312,-1.830332054757702,-3.3145306199398625,-123.91521633901593,-50.45328632935345,-21.975603150496873,-0.0558,-0.8826,-0.4262,-0.1906
62,4194189.0,1428.919903,1.0,4.66,4.16,-11.69,9.25,-24.06,32.25,-67.12,-163.94,72.87,1.5500191085563002,-0.9848808146674828,-3.3198404122926264,-128.2635811405088,-46.53194812307301,-18.796984460560502,-0.0877,-0.8998,-0.395,-0.1633
63,4194189.0,1428.919903,1.0,4.66,4.16,-11.69,9.25,-24.06,32.25,-67.12,-163.94,72.87,1.5500191085563002,-0.9848808146674828,-3.3198404122926264,-128.2635811405088,-46.53194812307301,-18.796984460560502,-0.0877,-0.8998,-0.395,-0.1633
64,4194226.0,1429.024241,1.0,3.82,5.51,-10.66,10.0,-25.87,29.06,-5.44,-216.06,38.81,3.0232297888790907,-0.11793941795312568,-2.4176811447836304,-131.37124925693712,-44.37020029186166,-13.865006554805131,-0.1112,-0.9113,-0.3776,-0.1207
65,4194226.0,1429.024241,1.0,3.82,5.51,-10.66,10.0,-25.87,29.06,-5.44,-216.06,38.81,3.0232297888790907,-0.11793941795312568,-2.4176811447836304,-131.37124925693712,-44.37020029186166,-13.865006554805131,-0.1112,-0.9113,-0.3776,-0.1207
66,4194260.0,1429.077229,1.0,1.32,5.38,-8.79,10.0,-25.87,29.06,27.37,-267.0,22.87,2.944636140845041,0.9711610715904012,-0.10984455054842356,-134.49971207203987,-42.18810962075827,-4.825730880475589,-0.1353,-0.9222,-0.3599,-0.0421
67,4194260.0,1429.077229,1.0,1.32,5.38,-8.79,10.0,-25.87,29.06,27.37,-267.0,22.87,2.944636140845041,0.9711610715904012,-0.10984455054842356,-134.49971207203987,-42.18810962075827,-4.825730880475589,-0.1353,-0.9222,-0.3599,-0.0421
68,4194295.0,1429.143908,1.0,-0.35,6.23,-6.87,14.75,-27.75,25.0,72.69,-266.31,-4.94,3.724421084262005,2.5628662807972664,1.7015464217687466,-135.30656135192416,-40.607862210384674,5.491036825631306,-0.1483,-0.9249,-0.34700000000000003,0.0479
69,4194295.0,1429.143908,1.0,-0.35,6.23,-6.87,14.75,-27.75,25.0,72.69,-266.31,-4.94,3.724421084262005,2.5628662807972664,1.7015464217687466,-135.30656135192416,-40.607862210384674,5.491036825631306,-0.1483,-0.9249,-0.34700000000000003,0.0479
70,4194332.0,1429.164467,1.0,-2.11,2.24,-5.9,22.06,-25.87,23.0,77.31,-171.0,-35.63,0.4531153653183917,0.9343800335314588,3.2338788630555437,-134.3222466489682,-40.54677652678586,11.616551985135152,-0.1425,-0.9216,-0.3465,0.1012
71,4194332.0,1429.164467,1.0,-2.11,2.24,-5.9,22.06,-25.87,23.0,77.31,-171.0,-35.63,0.4531153653183917,0.9343800335314588,3.2338788630555437,-134.3222466489682,-40.54677652678586,11.616551985135152,-0.1425,-0.9216,-0.3465,0.1012
72,4194369.0,1429.16791,1.0,-3.03,3.46,-6.08,26.5,-24.06,20.25,34.0,-141.38,-50.25,1.3199771702460823,1.9857332087501915,2.5655572721241993,-131.45480922787246,-41.24387223496928,17.682816604505923,-0.1461,-0.9116,-0.3522,0.1537
73,4194369.0,1429.16791,1.0,-3.03,3.46,-6.08,26.5,-24.06,20.25,34.0,-141.38,-50.25,1.3199771702460823,1.9857332087501915,2.5655572721241993,-131.45480922787246,-41.24387223496928,17.682816604505923,-0.1461,-0.9116,-0.3522,0.1537
74,4194404.0,1429.212414,1.0,-3.67,2.45,-5.82,26.5,-24.06,20.25,41.5,-111.19,-61.19,0.6111755695748788,1.5912678779697038,2.704669222519916,-129.0571819857357,-42.08986846540722,21.532188889890495,-0.145,-0.9028,-0.3591,0.1868
75,4194404.0,1429.212414,1.0,-3.67,2.45,-5.82,26.5,-24.06,20.25,41.5,-111.19,-61.19,0.6111755695748788,1.5912678779697038,2.704669222519916,-129.0571819857357,-42.08986846540722,21.532188889890495,-0.145,-0.9028,-0.3591,0.1868
76,4194441.0,1429.228957,1.0,-4.89,0.89,-4.47,32.06,-22.06,18.0,44.94,-51.56,-64.81,-1.136947917834925,1.75160724238287,3.4565065763785547,-126.25130384663841,-43.61631189309636,25.265378432632104,-0.1359,-0.892,-0.3715,0.2187
77,4194441.0,1429.228957,1.0,-4.89,0.89,-4.47,32.06,-22.06,18.0,44.94,-51.56,-64.81,-1.136947917834925,1.75160724238287,3.4565065763785547,-126.25130384663841,-43.61631189309636,25.265378432632104,-0.1359,-0.892,-0.3715,0.2187
78,4194476.0,1429.233319,1.0,-4.95,-0.03,-3.41,34.69,-18.69,16.56,31.12,7.81,-51.06,-1.9703423450478492,1.7068029160650198,4.390371309882283,-125.09665734949913,-44.85325420187507,26.25279302590076,-0.1245,-0.8874,-0.3815,0.2271
79,4194476.0,1429.233319,1.0,-4.95,-0.03,-3.41,34.69,-18.69,16.56,31.12,7.81,-51.06,-1.9703423450478492,1.7068029160650198,4.390371309882283,-125.09665734949913,-44.85325420187507,26.25279302590076,-0.1245,-0.8874,-0.3815,0.2271
80,4194510.0,1429.236494,1.0,-4.29,-0.55,-4.97,34.69,-18.69,16.56,21.62,94.37,-43.88,-1.503516401639189,0.6982047324599284,3.4301738115733147,-124.94770072590693,-46.744081927482135,24.54952511022461,-0.105,-0.8868,-0.3967,0.2126
81,4194510.0,1429.236494,1.0,-4.29,-0.55,-4.97,34.69,-18.69,16.56,21.62,94.37,-43.88,-1.503516401639189,0.6982047324599284,3.4301738115733147,-124.94770072590693,-46.744081927482135,24.54952511022461,-0.105,-0.8868,-0.3967,0.2126
82,4194545.0,1429.291097,1.0,-3.45,0.64,-6.59,36.38,-16.87,18.0,0.31,91.75,-32.06,0.13935987829775026,0.7931437200166714,2.3842715494143016,-125.37071718924679,-48.485062871877595,21.392231414012297,-0.0873,-0.8885,-0.4106,0.1856
83,4194545.0,1429.291097,1.0,-3.45,0.64,-6.59,36.38,-16.87,18.0,0.31,91.75,-32.06,0.13935987829775026,0.7931437200166714,2.3842715494143016,-125.37071718924679,-48.485062871877595,21.392231414012297,-0.0873,-0.8885,-0.4106,0.1856
84,4194582.0,1429.420096,1.0,-2.83,-1.66,-5.63,34.75,-15.38,22.06,22.12,139.19,-39.88,-1.6751869855512669,-0.4153851800564252,3.5231315814999675,-125.696251455902,-49.947121594647854,18.390575402245243,-0.0667,-0.8898,-0.4222,0.1598
85,4194582.0,1429.420096,1.0,-2.83,-1.66,-5.63,34.75,-15.38,22.06,22.12,139.19,-39.88,-1.6751869855512669,-0.4153851800564252,3.5231315814999675,-125.696251455902,-49.947121594647854,18.390575402245243,-0.0667,-0.8898,-0.4222,0.1598
86,4194619.0,1429.4279,1.0,-1.9,-2.68,-6.06,34.06,-12.69,25.0,0.12,214.63,-16.37,-2.3539227357921786,-1.1473663465325372,3.4302404914469893,-127.22274573469288,-51.125583264636,11.489857897732715,-0.0372,-0.8958,-0.4315,0.1001
87,4194619.0,1429.4279,1.0,-1.9,-2.68,-6.06,34.06,-12.69,25.0,0.12,214.63,-16.37,-2.3539227357921786,-1.1473663465325372,3.4302404914469893,-127.22274573469288,-51.125583264636,11.489857897732715,-0.0372,-0.8958,-0.4315,0.1001
88,4194652.0,1429.434675,1.0,1.04,-0.54,-10.65,34.06,-12.69,25.0,-16.0,243.06,1.06,0.8646582270850837,-1.8202188291909496,-0.7164136966708856,-128.4213907260083,-51.303485419526396,4.6766337060034,-0.0155,-0.9004,-0.4329,0.0408
89,4194652.0,1429.434675,1.0,1.04,-0.54,-10.65,34.06,-12.69,25.0,-16.0,243.06,1.06,0.8646582270850837,-1.8202188291909496,-0.7164136966708856,-128.4213907260083,-51.303485419526396,4.6766337060034,-0.0155,-0.9004,-0.4329,0.0408
90,4194691.0,1429.437781,1.0,1.58,-0.94,-10.88,26.19,-13.88,31.06,-26.87,176.44,-2.69,-0.12749337834350294,-1.3993086428586567,-1.137758652846424,-128.5268474503853,-51.39248622701663,-2.7504615040371316,0.0099,-0.9008,-0.4336,-0.024
91,4194691.0,1429.437781,1.0,1.58,-0.94,-10.88,26.19,-13.88,31.06,-26.87,176.44,-2.69,-0.12749337834350294,-1.3993086428586567,-1.137758652846424,-128.5268474503853,-51.39248622701663,-2.7504615040371316,0.0099,-0.9008,-0.4336,-0.024
92,4194725.0,1429.44091,1.0,1.67,-1.0,-9.31,19.5,-13.5,34.25,-21.5,167.63,7.81,-0.6302906579146288,-1.0073682855818695,0.3698633210637112,-128.1324147334415,-51.17639894970855,-7.35035834348681,0.0236,-0.8993,-0.4319,-0.0641
93,4194725.0,1429.44091,1.0,1.67,-1.0,-9.31,19.5,-13.5,34.25,-21.5,167.63,7.81,-0.6302906579146288,-1.0073682855818695,0.3698633210637112,-128.1324147334415,-51.17639894970855,-7.35035834348681,0.0236,-0.8993,-0.4319,-0.0641
94,4194760.0,1429.4437560000001,1.0,4.2,-0.84,-10.89,19.5,-13.5,34.25,-12.06,192.69,14.38,-0.09417692566875213,-1.6618141339272403,-1.7764067852769916,-127.14545121783674,-50.30132682508742,-14.222925164993965,0.0449,-0.8955,-0.425,-0.1238
95,4194760.0,1429.4437560000001,1.0,4.2,-0.84,-10.89,19.5,-13.5,34.25,-12.06,192.69,14.38,-0.09417692566875213,-1.6618141339272403,-1.7764067852769916,-127.14545121783674,-50.30132682508742,-14.222925164993965,0.0449,-0.8955,-0.425,-0.1238
96,4194795.0,1429.446564,1.0,5.22,0.25,-11.27,12.38,-13.88,37.5,-28.12,167.56,13.5,0.30131763038342463,-0.6222561174753645,-2.596809396873301,-125.5457815403515,-49.24023317275956,-20.52986483879688,0.0644,-0.8892,-0.4166,-0.1782
97,4194795.0,1429.446564,1.0,5.22,0.25,-11.27,12.38,-13.88,37.5,-28.12,167.56,13.5,0.30131763038342463,-0.6222561174753645,-2.596809396873301,-125.5457815403515,-49.24023317275956,-20.52986483879688,0.0644,-0.8892,-0.4166,-0.1782
98,4194832.0,1429.4897330000001,1.0,5.57,-0.85,-10.57,5.69,-15.69,38.06,-19.37,137.5,6.81,-0.765610701323452,-1.1477259243157591,-2.091621532313953,-123.96398525409832,-48.66106748213056,-24.51434453810049,0.0764,-0.8828,-0.41200000000000003,-0.2123
99,4194832.0,1429.4897330000001,1.0,5.57,-0.85,-10.57,5.69,-15.69,38.06,-19.37,137.5,6.81,-0.765610701323452,-1.1477259243157591,-2.091621532313953,-123.96398525409832,-48.66106748213056,-24.51434453810049,0.0764,-0.8828,-0.41200000000000003,-0.2123
100,4194869.0,1429.50737,1.0,5.4,-0.75,-9.21,-0.69,-16.5,37.69,-39.56,86.12,21.5,-0.9282507618116884,-0.9616137616689584,-0.8122129097735744,-122.97188128580086,-47.30643546064212,-28.45823232032684,0.0811,-0.8787,-0.4012,-0.2458
101,4194869.0,1429.50737,1.0,5.4,-0.75,-9.21,-0.69,-16.5,37.69,-39.56,86.12,21.5,-0.9282507618116884,-0.9616137616689584,-0.8122129097735744,-122.97188128580086,-47.30643546064212,-28.45823232032684,0.0811,-0.8787,-0.4012,-0.2458
102,4194904.0,1429.510589,1.0,6.1,0.82,-8.74,-0.69,-16.5,37.69,-36.0,113.0,27.12,0.3343166355377865,-0.19368837916285608,-0.8760798570627539,-122.23213029596668,-45.90899880278562,-31.626171458397582,0.0835,-0.8756,-0.39,-0.2725
103,4194904.0,1429.510589,1.0,6.1,0.82,-8.74,-0.69,-16.5,37.69,-36.0,113.0,27.12,0.3343166355377865,-0.19368837916285608,-0.8760798570627539,-122.23213029596668,-45.90899880278562,-31.626171458397582,0.0835,-0.8756,-0.39,-0.2725
104,4194940.0,1429.553122,1.0,7.28,0.92,-9.15,-4.0,-17.19,39.19,-53.13,64.69,20.81,0.2959631057361781,-0.29686345300607103,-1.9147653552509298,-121.22012218744959,-44.24647435383947,-35.25171097529378,0.0859,-0.8713,-0.3766,-0.3028
105,4194940.0,1429.553122,1.0,7.28,0.92,-9.15,-4.0,-17.19,39.19,-53.13,64.69,20.81,0.2959631057361781,-0.29686345300607103,-1.9147653552509298,-121.22012218744959,-44.24647435383947,-35.25171097529378,0.0859,-0.8713,-0.3766,-0.3028
106,4194975.0,1429.557792,1.0,6.88,1.51,-8.31,-7.25,-19.06,38.0,-42.0,58.5,18.56,0.5356369016237855,0.19694142125225644,-1.0719945472868542,-120.75479321636242,-43.11071528826148,-37.33794513405029,0.0825,-0.8693,-0.3674,-0.3201
107,4194975.0,1429.557792,1.0,6.88,1.51,-8.31,-7.25,-19.06,38.0,-42.0,58.5,18.56,0.5356369016237855,0.19694142125225644,-1.0719945472868542,-120.75479321636242,-43.11071528826148,-37.33794513405029,0.0825,-0.8693,-0.3674,-0.3201
108,4195010.0,1429.616028,1.0,6.75,1.76,-7.93,-7.25,-19.06,38.0,-22.5,40.5,14.31,0.5081461458124192,0.4914590898848051,-0.7311512629516592,-120.24673960552259,-41.94256744155725,-39.351894536966725,0.0811,-0.8671,-0.3579,-0.3367
109,4195010.0,1429.616028,1.0,6.75,1.76,-7.93,-7.25,-19.06,38.0,-22.5,40.5,14.31,0.5081461458124192,0.4914590898848051,-0.7311512629516592,-120.24673960552259,-41.94256744155725,-39.351894536966725,0.0811,-0.8671,-0.3579,-0.3367
110,4195045.0,1429.623233,1.0,6.8,1.59,-8.17,-9.5,-20.56,36.0,-21.69,52.63,6.63,-0.0366186061010611,0.6258989940502075,-0.9229310508581411,-119.31022017941788,-41.17041905633896,-41.39083180240233,0.0818,-0.863,-0.3516,-0.3534
111,4195045.0,1429.623233,1.0,6.8,1.59,-8.17,-9.5,-20.56,36.0,-21.69,52.63,6.63,-0.0366186061010611,0.6258989940502075,-0.9229310508581411,-119.31022017941788,-41.17041905633896,-41.39083180240233,0.0818,-0.863,-0.3516,-0.3534
112,4195082.0,1429.686389,1.0,7.85,1.99,-8.46,-12.5,-21.69,35.25,-36.06,25.75,0.69,0.3180439733601867,0.5296078477058168,-1.8883302718370487,-118.67809259864173,-40.668959944372276,-42.802857328099094,0.0785,-0.8602,-0.3475,-0.3649
113,4195082.0,1429.686389,1.0,7.85,1.99,-8.46,-12.5,-21.69,35.25,-36.06,25.75,0.69,0.3180439733601867,0.5296078477058168,-1.8883302718370487,-118.67809259864173,-40.668959944372276,-42.802857328099094,0.0785,-0.8602,-0.3475,-0.3649
114,4195117.0,1429.705108,1.0,7.55,3.25,-7.72,-12.5,-21.69,35.25,-27.31,-1.06,6.19,1.2916331131771928,1.3004052586832469,-1.3200759364169272,-118.8580978383618,-40.1073131219034,-43.27093047786308,0.0718,-0.861,-0.3429,-0.3687
115,4195117.0,1429.705108,1.0,7.55,3.25,-7.72,-12.5,-21.69,35.25,-27.31,-1.06,6.19,1.2916331131771928,1.3004052586832469,-1.3200759364169272,-118.8580978383618,-40.1073131219034,-43.27093047786308,0.0718,-0.861,-0.3429,-0.3687
116,4195151.0,1429.751603,1.0,6.28,2.34,-7.17,-12.88,-22.5,35.88,4.63,-9.0,-0.75,0.4549018849675003,1.0798134647804851,0.06242262394130371,-119.06117764081604,-40.13171155486349,-42.96290285030923,0.0724,-0.8619,-0.3431,-0.3662
117,4195151.0,1429.751603,1.0,6.28,2.34,-7.17,-12.88,-22.5,35.88,4.63,-9.0,-0.75,0.4549018849675003,1.0798134647804851,0.06242262394130371,-119.06117764081604,-40.13171155486349,-42.96290285030923,0.0724,-0.8619,-0.3431,-0.3662
118,4195188.0,1429.768492,1.0,6.46,1.61,-7.54,-14.0,-23.19,35.5,5.69,-1.5,-4.81,-0.1179982201122281,0.5568641146114438,-0.23582373797454004,-119.06117764081604,-40.29034769423164,-42.802857328099094,0.0726,-0.8619,-0.3444,-0.3649
119,4195188.0,1429.768492,1.0,6.46,1.61,-7.54,-14.0,-23.19,35.5,5.69,-1.5,-4.81,-0.1179982201122281,0.5568641146114438,-0.23582373797454004,-119.06117764081604,-40.29034769423164,-42.802857328099094,0.0726,-0.8619,-0.3444,-0.3649
120,4195223.0,1429.8123560000001,1.0,6.6,1.86,-7.54,-13.19,-23.19,36.0,-7.5,-3.69,-3.19,0.09535539194730544,0.6348039355979463,-0.3648361899614212,-119.08377982565194,-40.302553807332,-42.82747400563139,0.0706,-0.862,-0.3445,-0.3651
121,4195223.0,1429.8123560000001,1.0,6.6,1.86,-7.54,-13.19,-23.19,36.0,-7.5,-3.69,-3.19,0.09535539194730544,0.6348039355979463,-0.3648361899614212,-119.08377982565194,-40.302553807332,-42.82747400563139,0.0706,-0.862,-0.3445,-0.3651
122,4195256.0,1429.9089789999998,1.0,6.09,1.94,-7.17,-13.19,-23.19,36.0,-3.56,-14.0,-2.38,0.1477431963028934,0.7634135342940859,0.2329374639143875,-119.37830144711691,-40.37580051258581,-42.45844069063149,0.0679,-0.8633,-0.3451,-0.3621
123,4195256.0,1429.9089789999998,1.0,6.09,1.94,-7.17,-13.19,-23.19,36.0,-3.56,-14.0,-2.38,0.1477431963028934,0.7634135342940859,0.2329374639143875,-119.37830144711691,-40.37580051258581,-42.45844069063149,0.0679,-0.8633,-0.3451,-0.3621
124,4195293.0,1430.026283,1.0,5.96,0.98,-7.23,-13.88,-24.0,35.06,15.19,-3.31,-8.75,-0.5346200036378721,0.1044874904890839,0.4014299698230559,-119.58296175366009,-40.38800996971994,-42.18810962075827,0.0671,-0.8642,-0.3452,-0.3599
125,4195293.0,1430.026283,1.0,5.96,0.98,-7.23,-13.88,-24.0,35.06,15.19,-3.31,-8.75,-0.5346200036378721,0.1044874904890839,0.4014299698230559,-119.58296175366009,-40.38800996971994,-42.18810962075827,0.0671,-0.8642,-0.3452,-0.3599
126,4195330.0,1430.036917,1.0,6.02,1.0,-7.21,-13.19,-23.56,34.75,4.63,4.13,-4.88,-0.4621252678012256,0.0931097980547454,0.3725485164263862,-119.51467199760063,-40.53456083395825,-42.10214683605518,0.0686,-0.8639,-0.3464,-0.3592
127,4195330.0,1430.036917,1.0,6.02,1.0,-7.21,-13.19,-23.56,34.75,4.63,4.13,-4.88,-0.4621252678012256,0.0931097980547454,0.3725485164263862,-119.51467199760063,-40.53456083395825,-42.10214683605518,0.0686,-0.8639,-0.3464,-0.3592
128,4195364.0,1430.039931,1.0,6.52,1.07,-7.32,-13.19,-23.56,34.75,2.44,1.12,-0.81,-0.2326381447203819,-0.07373957398195162,-0.0512474415871278,-119.37830144711691,-40.63229985656115,-42.138984987118995,0.0696,-0.8633,-0.3472,-0.3595
129,4195364.0,1430.039931,1.0,6.52,1.07,-7.32,-13.19,-23.56,34.75,2.44,1.12,-0.81,-0.2326381447203819,-0.07373957398195162,-0.0512474415871278,-119.37830144711691,-40.63229985656115,-42.138984987118995,0.0696,-0.8633,-0.3472,-0.3595
130,4195397.0,1430.080825,1.0,6.72,1.23,-7.46,-12.38,-22.87,36.0,-5.38,-1.81,-3.94,-0.12286029627955908,-0.043239908996479226,-0.30798967019429035,-119.37830144711691,-40.668959944372276,-42.151265384526,0.0679,-0.8633,-0.3475,-0.3596
131,4195397.0,1430.080825,1.0,6.72,1.23,-7.46,-12.38,-22.87,36.0,-5.38,-1.81,-3.94,-0.12286029627955908,-0.043239908996479226,-0.30798967019429035,-119.37830144711691,-40.668959944372276,-42.151265384526,0.0679,-0.8633,-0.3475,-0.3596
132,4195434.0,1430.0881259999999,1.0,6.21,1.41,-6.74,-12.38,-24.0,35.06,-3.75,-2.94,-2.0,0.14543568346729896,0.07247571446840251,0.5355445787038597,-119.60574054309872,-40.47348957852153,-42.12670509670736,0.0651,-0.8643,-0.3459,-0.3594
133,4195434.0,1430.0881259999999,1.0,6.21,1.41,-6.74,-12.38,-24.0,35.06,-3.75,-2.94,-2.0,0.14543568346729896,0.07247571446840251,0.5355445787038597,-119.60574054309872,-40.47348957852153,-42.12670509670736,0.0651,-0.8643,-0.3459,-0.3594
134,4195471.0,1430.106893,1.0,6.81,1.14,-7.55,-11.69,-23.56,35.5,-0.63,1.5,2.31,-0.1917326058173239,-0.13184534901281994,-0.4219400989242015,-119.56019073883043,-40.42464121289,-42.18810962075827,0.0668,-0.8641,-0.3455,-0.3599
135,4195471.0,1430.106893,1.0,6.81,1.14,-7.55,-11.69,-23.56,35.5,-0.63,1.5,2.31,-0.1917326058173239,-0.13184534901281994,-0.4219400989242015,-119.56019073883043,-40.42464121289,-42.18810962075827,0.0668,-0.8641,-0.3455,-0.3599
136,4195504.0,1430.110575,1.0,6.6,1.19,-7.6,-11.69,-23.56,35.5,-5.0,-6.88,-4.19,-0.2945005419451071,0.0002734729155752236,-0.3249525068103907,-119.62852711601612,-40.43685258518578,-42.11442571308733,0.0649,-0.8644,-0.3456,-0.3593
137,4195504.0,1430.110575,1.0,6.6,1.19,-7.6,-11.69,-23.56,35.5,-5.0,-6.88,-4.19,-0.2945005419451071,0.0002734729155752236,-0.3249525068103907,-119.62852711601612,-40.43685258518578,-42.11442571308733,0.0649,-0.8644,-0.3456,-0.3593
138,4195540.0,1430.154402,1.0,6.49,1.6,-7.16,-12.0,-23.19,35.5,-12.13,-10.94,0.81,0.178789324560563,0.13569233824063942,0.014034314353699172,-119.92546492630352,-40.351383033032214,-41.90575353350423,0.0609,-0.8657,-0.3449,-0.3576
139,4195540.0,1430.154402,1.0,6.49,1.6,-7.16,-12.0,-23.19,35.5,-12.13,-10.94,0.81,0.178789324560563,0.13569233824063942,0.014034314353699172,-119.92546492630352,-40.351383033032214,-41.90575353350423,0.0609,-0.8657,-0.3449,-0.3576
140,4195575.0,1430.1730109999999,1.0,6.51,1.4,-7.08,-11.25,-22.87,36.25,7.88,2.5,3.19,0.13068828157647114,-0.05871284864046655,0.08831817944236242,-120.06296278033024,-40.314760397567724,-41.77080790377483,0.061,-0.8663,-0.3446,-0.3565
141,4195575.0,1430.1730109999999,1.0,6.51,1.4,-7.08,-11.25,-22.87,36.25,7.88,2.5,3.19,0.13068828157647114,-0.05871284864046655,0.08831817944236242,-120.06296278033024,-40.314760397567724,-41.77080790377483,0.061,-0.8663,-0.3446,-0.3565
142,4195610.0,1430.176705,1.0,6.73,1.51,-7.59,-11.25,-22.87,36.25,1.12,3.06,-1.06,0.005759059795300781,0.1223534344243028,-0.448402241227976,-119.90257635349056,-40.32696746513329,-41.91802433278389,0.0628,-0.8656,-0.3447,-0.3577
143,4195610.0,1430.176705,1.0,6.73,1.51,-7.59,-11.25,-22.87,36.25,1.12,3.06,-1.06,0.005759059795300781,0.1223534344243028,-0.448402241227976,-119.90257635349056,-40.32696746513329,-41.91802433278389,0.0628,-0.8656,-0.3447,-0.3577
144,4195645.0,1430.233971,1.0,6.51,1.22,-7.68,-11.69,-24.0,36.0,-2.44,-3.5,-3.69,-0.3439442450563054,0.04465725843992785,-0.3289608886224169,-119.90257635349056,-40.36359153375482,-41.89348323735908,0.0623,-0.8656,-0.345,-0.3575
145,4195645.0,1430.233971,1.0,6.51,1.22,-7.68,-11.69,-24.0,36.0,-2.44,-3.5,-3.69,-0.3439442450563054,0.04465725843992785,-0.3289608886224169,-119.90257635349056,-40.36359153375482,-41.89348323735908,0.0623,-0.8656,-0.345,-0.3575
146,4195682.0,1430.282592,1.0,6.22,1.54,-7.08,-12.0,-23.19,36.0,-1.31,-2.75,0.63,0.0683872040649775,0.1906375757415757,0.2596410178613766,-120.06296278033024,-40.33917501022326,-41.7585431287547,0.0601,-0.8663,-0.3448,-0.3564
147,4195682.0,1430.282592,1.0,6.22,1.54,-7.08,-12.0,-23.19,36.0,-1.31,-2.75,0.63,0.0683872040649775,0.1906375757415757,0.2596410178613766,-120.06296278033024,-40.33917501022326,-41.7585431287547,0.0601,-0.8663,-0.3448,-0.3564
148,4195717.0,1430.299741,1.0,6.41,1.53,-7.34,-12.0,-23.19,36.0,1.94,3.25,0.12,0.011125247963198193,0.18257251974694574,-0.05596342159830492,-120.01709840281569,-40.351383033032214,-41.77080790377483,0.0609,-0.8661,-0.3449,-0.3565
149,4195717.0,1430.299741,1.0,6.41,1.53,-7.34,-12.0,-23.19,36.0,1.94,3.25,0.12,0.011125247963198193,0.18257251974694574,-0.05596342159830492,-120.01709840281569,-40.351383033032214,-41.77080790377483,0.0609,-0.8661,-0.3449,-0.3565
150,4195749.0,1430.406628,1.0,6.66,1.57,-7.68,-11.69,-23.19,35.06,4.88,0.44,-2.56,-0.02712867610401426,0.21482247182201508,-0.4771243723077258,-119.92546492630352,-40.43685258518578,-41.78307317970489,0.0623,-0.8657,-0.3456,-0.3566
151,4195749.0,1430.406628,1.0,6.66,1.57,-7.68,-11.69,-23.19,35.06,4.88,0.44,-2.56,-0.02712867610401426,0.21482247182201508,-0.4771243723077258,-119.92546492630352,-40.43685258518578,-41.78307317970489,0.0623,-0.8657,-0.3456,-0.3566
152,4195784.0,1430.509164,1.0,6.16,1.23,-7.01,-12.0,-22.87,35.5,2.75,-4.94,-2.25,-0.09400631287624386,-0.01358082751333467,0.39444630616381815,-119.94836140851372,-40.57120935574602,-41.635922884224854,0.0625,-0.8658,-0.3467,-0.3554
153,4195784.0,1430.509164,1.0,6.16,1.23,-7.01,-12.0,-22.87,35.5,2.75,-4.94,-2.25,-0.09400631287624386,-0.01358082751333467,0.39444630616381815,-119.94836140851372,-40.57120935574602,-41.635922884224854,0.0625,-0.8658,-0.3467,-0.3554
154,4195821.0,1430.518754,1.0,6.36,1.46,-7.26,-12.0,-22.87,35.06,1.25,3.81,0.12,0.015678485916303386,0.14818090695277475,0.04618911928877978,-119.99417813762396,-40.497916639737895,-41.64818266123672,0.0629,-0.866,-0.3461,-0.3555
155,4195821.0,1430.518754,1.0,6.36,1.46,-7.26,-12.0,-22.87,35.06,1.25,3.81,0.12,0.015678485916303386,0.14818090695277475,0.04618911928877978,-119.99417813762396,-40.497916639737895,-41.64818266123672,0.0629,-0.866,-0.3461,-0.3555
156,4195856.0,1430.523051,1.0,6.5,1.43,-7.41,-12.0,-22.87,35.06,-0.12,3.25,-1.12,-0.034628868935111023,0.10868937541716273,-0.15276702415897958,-119.87969568097151,-40.53456083395825,-41.74627885444266,0.0631,-0.8655,-0.3464,-0.3563
157,4195856.0,1430.523051,1.0,6.5,1.43,-7.41,-12.0,-22.87,35.06,-0.12,3.25,-1.12,-0.034628868935111023,0.10868937541716273,-0.15276702415897958,-119.87969568097151,-40.53456083395825,-41.74627885444266,0.0631,-0.8655,-0.3464,-0.3563
158,4195891.0,1430.5682550000001,1.0,6.73,1.32,-7.64,-12.75,-23.19,35.5,0.31,1.31,-0.5,-0.12240727396915765,-0.0028995611111023445,-0.4593087010578252,-119.92546492630352,-40.4124303196771,-41.7953389567468,0.0635,-0.8657,-0.3454,-0.3567
159,4195891.0,1430.5682550000001,1.0,6.73,1.32,-7.64,-12.75,-23.19,35.5,0.31,1.31,-0.5,-0.12240727396915765,-0.0028995611111023445,-0.4593087010578252,-119.92546492630352,-40.4124303196771,-41.7953389567468,0.0635,-0.8657,-0.3454,-0.3567
160,4195926.0,1430.5881630000001,1.0,6.42,1.38,-7.12,-12.0,-23.19,34.69,-1.56,-4.0,0.31,0.06077508992778119,0.016292699020627244,0.12102968241564405,-120.04002661398823,-40.314760397567724,-41.7585431287547,0.0626,-0.8662,-0.3446,-0.3564
161,4195926.0,1430.5881630000001,1.0,6.42,1.38,-7.12,-12.0,-23.19,34.69,-1.56,-4.0,0.31,0.06077508992778119,0.016292699020627244,0.12102968241564405,-120.04002661398823,-40.314760397567724,-41.7585431287547,0.0626,-0.8662,-0.3446,-0.3564
162,4195960.0,1430.591487,1.0,6.64,1.53,-7.5,-12.0,-23.19,34.69,1.44,-0.06,-1.06,0.053116839798847404,0.14169996519324726,-0.3253586715909407,-120.06296278033024,-40.314760397567724,-41.74627885444266,0.0626,-0.8663,-0.3446,-0.3563
163,4195960.0,1430.591487,1.0,6.64,1.53,-7.5,-12.0,-23.19,34.69,1.44,-0.06,-1.06,0.053116839798847404,0.14169996519324726,-0.3253586715909407,-120.06296278033024,-40.314760397567724,-41.74627885444266,0.0626,-0.8663,-0.3446,-0.3563
164,4195995.0,1430.634192,1.0,6.36,1.46,-7.25,-10.88,-23.56,36.25,3.88,1.81,-3.56,0.0074066549057042455,0.14678059856039585,0.05359403802841811,-119.99417813762396,-40.42464121289,-41.73401508063692,0.0625,-0.866,-0.3455,-0.3562
165,4195995.0,1430.634192,1.0,6.36,1.46,-7.25,-10.88,-23.56,36.25,3.88,1.81,-3.56,0.0074066549057042455,0.14678059856039585,0.05359403802841811,-119.99417813762396,-40.42464121289,-41.73401508063692,0.0625,-0.866,-0.3455,-0.3562
166,4196032.0,1430.642627,1.0,6.29,1.09,-7.19,-11.25,-23.19,34.69,3.06,8.38,-3.5,-0.2516054533077622,-0.08117026870748556,0.19528141465567472,-119.69693362458544,-40.595644110417574,-41.89348323735908,0.0644,-0.8647,-0.3469,-0.3575
167,4196032.0,1430.642627,1.0,6.29,1.09,-7.19,-11.25,-23.19,34.69,3.06,8.38,-3.5,-0.2516054533077622,-0.08117026870748556,0.19528141465567472,-119.69693362458544,-40.595644110417574,-41.89348323735908,0.0644,-0.8647,-0.3469,-0.3575
168,4196065.0,1430.661767,1.0,6.65,1.11,-7.56,-11.25,-23.19,34.69,5.44,8.06,1.5,-0.2949432722008699,-0.09167154015868584,-0.3182107296549201,-119.49192425354241,-40.607862210384674,-42.10214683605518,0.066,-0.8638,-0.34700000000000003,-0.3592
169,4196065.0,1430.661767,1.0,6.65,1.11,-7.56,-11.25,-23.19,34.69,5.44,8.06,1.5,-0.2949432722008699,-0.09167154015868584,-0.3182107296549201,-119.49192425354241,-40.607862210384674,-42.10214683605518,0.066,-0.8638,-0.34700000000000003,-0.3592
170,4196100.0,1430.704144,1.0,6.57,1.51,-7.21,-12.0,-22.87,35.5,-1.81,-3.25,-0.19,0.12970128398579753,0.12295275694602925,-0.06234995929130883,-119.58296175366009,-40.53456083395825,-42.0775906009399,0.0657,-0.8642,-0.3464,-0.359
171,4196100.0,1430.704144,1.0,6.57,1.51,-7.21,-12.0,-22.87,35.5,-1.81,-3.25,-0.19,0.12970128398579753,0.12295275694602925,-0.06234995929130883,-119.58296175366009,-40.53456083395825,-42.0775906009399,0.0657,-0.8642,-0.3464,-0.359
172,4196134.0,1430.722774,1.0,6.66,1.35,-7.39,-11.69,-22.87,34.75,4.0,2.0,-0.25,-0.028312843239500143,0.027701897516408502,-0.23270411208219602,-119.58296175366009,-40.52234562197142,-42.0775906009399,0.0662,-0.8642,-0.3463,-0.359
173,4196134.0,1430.722774,1.0,6.66,1.35,-7.39,-11.69,-22.87,34.75,4.0,2.0,-0.25,-0.028312843239500143,0.027701897516408502,-0.23270411208219602,-119.58296175366009,-40.52234562197142,-42.0775906009399,0.0662,-0.8642,-0.3463,-0.359
174,4196171.0,1430.730768,1.0,6.36,1.15,-7.17,-11.69,-22.87,35.5,3.0,1.37,-1.06,-0.17468753587854294,-0.027046471673247245,0.15523804354623216,-119.53742748975634,-40.595644110417574,-42.053036389733045,0.0671,-0.8640000000000001,-0.3469,-0.3588
175,4196171.0,1430.730768,1.0,6.36,1.15,-7.17,-11.69,-22.87,35.5,3.0,1.37,-1.06,-0.17468753587854294,-0.027046471673247245,0.15523804354623216,-119.53742748975634,-40.595644110417574,-42.053036389733045,0.0671,-0.8640000000000001,-0.3469,-0.3588
