acc_x,acc_y,acc_z,lin_x,lin_y,lin_z,eul_x,eul_y,eul_z
0.45,1.78,-9.98,0.0065393211030992,-0.1563341977495309,-0.339621081332961,-134.26323636741046,-44.27121519182589,-5.812283928177061
0.45,1.78,-9.98,0.0065393211030992,-0.1563341977495309,-0.339621081332961,-134.26323636741046,-44.27121519182589,-5.812283928177061
0.36,1.56,-9.61,-0.138691746245421,-0.194309974927694,0.0671270017640512,-134.20429804752106,-44.38257587959071,-5.777862453568277
0.36,1.56,-9.61,-0.138691746245421,-0.194309974927694,0.0671270017640512,-134.20429804752106,-44.38257587959071,-5.777862453568277
0.29,1.68,-9.82,-0.1429206799293502,-0.0929732015493318,-0.1587817349045242,-134.0866361818657,-44.469220271844826,-5.789336220308418
0.29,1.68,-9.82,-0.1429206799293502,-0.0929732015493318,-0.1587817349045242,-134.0866361818657,-44.469220271844826,-5.789336220308418
0.12,1.85,-9.51,-0.0869508818643354,0.1662689086716097,0.11945256244603,-134.05726525899885,-44.50636177945312,-5.697547703194251
0.12,1.85,-9.51,-0.0869508818643354,0.1662689086716097,0.11945256244603,-134.05726525899885,-44.50636177945312,-5.697547703194251
0.32,1.49,-9.88,-0.231181018148781,-0.2492271806849768,-0.1844130640215393,-134.0866361818657,-44.531125521078216,-5.640181741583799
0.32,1.49,-9.88,-0.231181018148781,-0.2492271806849768,-0.1844130640215393,-134.0866361818657,-44.531125521078216,-5.640181741583799
0.49,1.83,-9.81,0.1409118899221565,-0.1283055615576939,-0.182783493554675,-134.0866361818657,-44.531125521078216,-5.594289991509483
0.49,1.83,-9.81,0.1409118899221565,-0.1283055615576939,-0.182783493554675,-134.0866361818657,-44.531125521078216,-5.594289991509483
0.21,1.46,-9.69,-0.2806599150786981,-0.174249178511968,0.0105963437639395,-134.0866361818657,-44.55589145397279,-5.525454047712893
0.21,1.46,-9.69,-0.2806599150786981,-0.174249178511968,0.0105963437639395,-134.0866361818657,-44.55589145397279,-5.525454047712893
0.2,1.87,-9.56,-0.0129799071486307,0.1163129091665811,0.0641245148307838,-134.1160248878201,-44.469220271844826,-5.628708719478254
0.2,1.87,-9.56,-0.0129799071486307,0.1163129091665811,0.0641245148307838,-134.1160248878201,-44.469220271844826,-5.628708719478254
0.65,2.13,-9.8,0.4267877591515512,-0.0441546502013974,-0.2340323759893952,-133.99857662596108,-44.54350821350816,-5.754915093896803
0.65,2.13,-9.8,0.4267877591515512,-0.0441546502013974,-0.2340323759893952,-133.99857662596108,-44.54350821350816,-5.754915093896803
0.22,1.87,-9.5,-0.0207636919676647,0.1258843676360848,0.1226930610684373,-133.61881240543406,-44.940044922743645,-5.881128455236522
0.22,1.87,-9.5,-0.0207636919676647,0.1258843676360848,0.1226930610684373,-133.61881240543406,-44.940044922743645,-5.881128455236522
0.31,1.48,-9.7,-0.2789803066623252,-0.185651599315359,-0.0047822844407541,-133.41553604515124,-45.16334612512468,-6.099150260471113
0.31,1.48,-9.7,-0.2789803066623252,-0.185651599315359,-0.0047822844407541,-133.41553604515124,-45.16334612512468,-6.099150260471113
0.71,1.8,-10.24,0.1070270780942628,-0.2981782636230692,-0.6097474063808335,-133.2419635150545,-45.31231413333559,-6.282764679968377
0.71,1.8,-10.24,0.1070270780942628,-0.2981782636230692,-0.6097474063808335,-133.2419635150545,-45.31231413333559,-6.282764679968377
0.4,1.69,-9.89,-0.1150159984280822,-0.1261801504331942,-0.2332230016739896,-133.15540493778332,-45.41167104755996,-6.190955481383822
0.4,1.69,-9.89,-0.1150159984280822,-0.1261801504331942,-0.2332230016739896,-133.15540493778332,-45.41167104755996,-6.190955481383822
-0.1,1.03,-9.37,-0.8011939286201809,-0.1708257052794304,0.4153398215873008,-133.12658560187518,-45.49863792387894,-5.961449757231111
-0.1,1.03,-9.37,-0.8011939286201809,-0.1708257052794304,0.4153398215873008,-133.12658560187518,-45.49863792387894,-5.961449757231111
0.32,1.62,-9.8,-0.2166296260996994,-0.1330495311497787,-0.1282465483973069,-133.18424101457546,-45.34956875764927,-6.190955481383822
0.32,1.62,-9.8,-0.2166296260996994,-0.1330495311497787,-0.1282465483973069,-133.18424101457546,-45.34956875764927,-6.190955481383822
0.42,2.34,-9.98,0.2670635286118476,0.2299240315178219,-0.4465549629087189,-133.27085000109963,-45.1509357631892,-6.386054856968827
0.42,2.34,-9.98,0.2670635286118476,0.2299240315178219,-0.4465549629087189,-133.27085000109963,-45.1509357631892,-6.386054856968827
-0.11,1.66,-9.33,-0.4713477222140865,0.183219494817038,0.3429899288920684,-133.3576107786115,-45.01445861245965,-6.328670789467022
-0.11,1.66,-9.33,-0.4713477222140865,0.183219494817038,0.3429899288920684,-133.3576107786115,-45.01445861245965,-6.328670789467022
0.12,2.18,-9.88,-0.117969909139681,0.2637513516122064,-0.3075834521732457,-133.444524198005,-44.7912774389752,-6.592650878252481
0.12,2.18,-9.88,-0.117969909139681,0.2637513516122064,-0.3075834521732457,-133.444524198005,-44.7912774389752,-6.592650878252481
-0.15,2.96,-9.65,0.260472354901008,0.9387099688835564,-0.2411148134622945,-133.61881240543406,-44.50636177945312,-6.3975318623814825
-0.15,2.96,-9.65,0.260472354901008,0.9387099688835564,-0.2411148134622945,-133.61881240543406,-44.50636177945312,-6.3975318623814825
0.11,3.39,-9.47,0.8070863453772289,1.0177094977497028,-0.1682173680052336,-133.7645266360233,-44.3578252491314,-6.030298919379606
0.11,3.39,-9.47,0.8070863453772289,1.0177094977497028,-0.1682173680052336,-133.7645266360233,-44.3578252491314,-6.030298919379606
0.0,4.45,-9.27,1.6282451507346347,1.796142223649004,-0.1862520230128534,-133.73534909546763,-44.48160022735979,-5.15836210329675
0.0,4.45,-9.27,1.6282451507346347,1.796142223649004,-0.1862520230128534,-133.73534909546763,-44.48160022735979,-5.15836210329675
0.59,2.62,-9.43,1.0054354442279645,0.1200013341599486,0.054106780547448,-133.61881240543406,-44.952445815509726,-3.977125506843028
0.59,2.62,-9.43,1.0054354442279645,0.1200013341599486,0.054106780547448,-133.61881240543406,-44.952445815509726,-3.977125506843028
-0.07,2.8,-9.5,0.9257468328232318,0.7091660049016708,-0.0287440632294728,-133.0977829759083,-45.74726752330664,-2.670224968889185
-0.07,2.8,-9.5,0.9257468328232318,0.7091660049016708,-0.0287440632294728,-133.0977829759083,-45.74726752330664,-2.670224968889185
-0.54,1.92,-8.92,0.2878051584455764,0.6031386933295941,0.6908509726310434,-132.72485553305756,-46.43217889831124,-1.5011923619341792
-0.54,1.92,-8.92,0.2878051584455764,0.6031386933295941,0.6908509726310434,-132.72485553305756,-46.43217889831124,-1.5011923619341792
-0.26,1.83,-9.88,0.7952717732357489,0.4358686872665327,-0.2037676383483138,-131.62233589525562,-47.95777627551156,0.2406424508273681
-0.26,1.83,-9.88,0.7952717732357489,0.4358686872665327,-0.2037676383483138,-131.62233589525562,-47.95777627551156,0.2406424508273681
-0.9,-0.42,-7.87,-0.90120156253147,-0.2075592945067489,1.9283218218295373,-130.62518646665285,-49.13941280029733,1.8908465277120163
-0.9,-0.42,-7.87,-0.90120156253147,-0.2075592945067489,1.9283218218295373,-130.62518646665285,-49.13941280029733,1.8908465277120163
-0.22,0.91,-9.18,0.8309685393709458,0.2365575026121411,0.6195703859695652,-129.21728949054742,-50.630692516856975,2.865087475133015
-0.22,0.91,-9.18,0.8309685393709458,0.2365575026121411,0.6195703859695652,-129.21728949054742,-50.630692516856975,2.865087475133015
-0.24,-2.37,-8.91,-1.5641833732220765,-1.4300733866606858,0.8305249739266376,-127.6108060653337,-52.29710483920904,3.117274866889664
-0.24,-2.37,-8.91,-1.5641833732220765,-1.4300733866606858,0.8305249739266376,-127.6108060653337,-52.29710483920904,3.117274866889664
0.04,0.37,-8.76,0.7633926648676751,0.2019456743912718,1.0743794141889484,-126.658333240647,-53.25651268144825,2.555603608821701
0.04,0.37,-8.76,0.7633926648676751,0.2019456743912718,1.0743794141889484,-126.658333240647,-53.25651268144825,2.555603608821701
0.04,-1.08,-9.59,-0.2191337290178578,-0.2937227072073877,0.1629055311706064,-124.67557399344672,-55.09709191896828,2.4180613422720283
0.04,-1.08,-9.59,-0.2191337290178578,-0.2937227072073877,0.1629055311706064,-124.67557399344672,-55.09709191896828,2.4180613422720283
0.22,-2.11,-9.17,-0.9488820423696278,-0.7681920909242825,0.473970653686326,-122.94788136502078,-56.73172243401768,2.1086036789736795
0.22,-2.11,-9.17,-0.9488820423696278,-0.7681920909242825,0.473970653686326,-122.94788136502078,-56.73172243401768,2.1086036789736795
0.17,-2.28,-8.4,-1.1312459396259158,-0.4430599805704246,1.1862509096041942,-121.12678863705332,-58.26094192949911,1.294912175882028
0.17,-2.28,-8.4,-1.1312459396259158,-0.4430599805704246,1.1862509096041942,-121.12678863705332,-58.26094192949911,1.294912175882028
1.99,-2.34,-10.55,-0.1147828012289863,-1.32739774301001,-1.1003679306900391,-119.87969568097152,-59.18130413501813,-0.0572957819004067
1.99,-2.34,-10.55,-0.1147828012289863,-1.32739774301001,-1.1003679306900391,-119.87969568097152,-59.18130413501813,-0.0572957819004067
1.19,-2.38,-7.98,-0.8493600679164369,-0.6489890066327993,1.4628918093344314,-118.23015155570128,-60.38409728444597,-1.5928739664684124
1.19,-2.38,-7.98,-0.8493600679164369,-0.6489890066327993,1.4628918093344314,-118.23015155570128,-60.38409728444597,-1.5928739664684124
2.0,-3.49,-9.09,-1.424392528645586,-1.264556564180787,0.0506158354264698,-117.27684633570152,-60.84866331035058,-3.140201723904295
2.0,-3.49,-9.09,-1.424392528645586,-1.264556564180787,0.0506158354264698,-117.27684633570152,-60.84866331035058,-3.140201723904295
3.24,-2.3,-11.1,0.1454706129120493,-0.6580709578160149,-1.963795230120148,-116.42333876589676,-60.86195284242213,-5.674601147870103
3.24,-2.3,-11.1,0.1454706129120493,-0.6580709578160149,-1.963795230120148,-116.42333876589676,-60.86195284242213,-5.674601147870103
3.04,-2.79,-9.46,-0.5789555764716391,-0.8443564894214636,-0.4631685261105876,-115.92476601153636,-60.782229218492176,-7.143680335170353
3.04,-2.79,-9.46,-0.5789555764716391,-0.8443564894214636,-0.4631685261105876,-115.92476601153636,-60.782229218492176,-7.143680335170353
3.34,-2.5,-8.81,-0.4013527762175435,-0.7179947338241982,0.0935094413947066,-115.6229775841169,-60.13236310008998,-9.62554711472919
3.34,-2.5,-8.81,-0.4013527762175435,-0.7179947338241982,0.0935094413947066,-115.6229775841169,-60.13236310008998,-9.62554711472919
3.71,-2.8,-9.65,-0.6705463501809202,-0.481755342521887,-0.8725297148568796,-115.45109275023192,-59.40545261479044,-11.731740790019304
3.71,-2.8,-9.65,-0.6705463501809202,-0.481755342521887,-0.8725297148568796,-115.45109275023192,-59.40545261479044,-11.731740790019304
5.11,-3.32,-10.44,-0.7864219524862899,-0.9975183887175731,-2.214772443987984,-115.38674111389928,-58.19536005826746,-14.754288420181696
5.11,-3.32,-10.44,-0.7864219524862899,-0.9975183887175731,-2.214772443987984,-115.38674111389928,-58.19536005826746,-14.754288420181696
4.38,-2.64,-8.75,-0.718330934536528,-0.6062046042081255,-0.2845846443002067,-115.75216046951115,-56.966262181573775,-16.906223928806188
4.38,-2.64,-8.75,-0.718330934536528,-0.6062046042081255,-0.2845846443002067,-115.75216046951115,-56.966262181573775,-16.906223928806188
5.11,-1.86,-8.95,-0.0584512135774115,-0.3883000371604627,-0.6585306738714518,-116.66302751124852,-54.774215005307816,-19.95948754584176
5.11,-1.86,-8.95,-0.0584512135774115,-0.3883000371604627,-0.6585306738714518,-116.66302751124852,-54.774215005307816,-19.95948754584176
6.92,-1.26,-10.05,0.7081859497896319,-0.3815052719615726,-2.4338330945508915,-117.2328235497882,-52.386481614636175,-23.70583132960312
6.92,-1.26,-10.05,0.7081859497896319,-0.3815052719615726,-2.4338330945508915,-117.2328235497882,-52.386481614636175,-23.70583132960312
6.03,-1.38,-8.88,0.0355880623724459,-0.2373583217114148,-1.012873765717741,-117.69645604638976,-50.795543233726846,-26.029278313836883
6.03,-1.38,-8.88,0.0355880623724459,-0.2373583217114148,-1.012873765717741,-117.69645604638976,-50.795543233726846,-26.029278313836883
5.85,-2.37,-8.42,-1.1200546947139385,-0.812595466975253,-0.6250788158723033,-118.72304914641389,-48.3342986251064,-28.83669047331989
5.85,-2.37,-8.42,-1.1200546947139385,-0.812595466975253,-0.6250788158723033,-118.72304914641389,-48.3342986251064,-28.83669047331989
7.08,-1.41,-8.45,-0.1056021235398716,-0.9781249866622256,-1.2635405901375891,-120.108859015364,-45.66022134435174,-31.507090202315183
7.08,-1.41,-8.45,-0.1056021235398716,-0.9781249866622256,-1.2635405901375891,-120.108859015364,-45.66022134435174,-31.507090202315183
7.18,1.67,-7.08,2.134173877096585,0.2094930445301468,-0.1868035835521908,-122.61284780254854,-41.78307317970489,-34.73506381234489
7.18,1.67,-7.08,2.134173877096585,0.2094930445301468,-0.1868035835521908,-122.61284780254854,-41.78307317970489,-34.73506381234489
6.51,1.0,-7.39,0.6763266355346776,0.2119078076878909,-0.0670462361168091,-122.80407555685306,-39.82686703824351,-37.39842842920397
6.51,1.0,-7.39,0.6763266355346776,0.2119078076878909,-0.0670462361168091,-122.80407555685306,-39.82686703824351,-37.39842842920397
8.25,1.44,-9.92,-0.2287514205543892,0.5673869872312779,-3.1613199565627874,-122.25585789752888,-37.37423381555307,-41.280605467484456
8.25,1.44,-9.92,-0.2287514205543892,0.5673869872312779,-3.1613199565627874,-122.25585789752888,-37.37423381555307,-41.280605467484456
6.0,1.57,-7.05,0.0592670085464479,0.50038714415647,0.4304300725633095,-123.40547411170807,-35.72093850046968,-41.84440708007335
6.0,1.57,-7.05,0.0592670085464479,0.50038714415647,0.4304300725633095,-123.40547411170807,-35.72093850046968,-41.84440708007335
6.54,2.86,-6.76,1.2639708801381833,0.8126183013761954,0.0911557197057053,-125.92268154117136,-33.62013451285477,-40.93793375462537
6.54,2.86,-6.76,1.2639708801381833,0.8126183013761954,0.0911557197057053,-125.92268154117136,-33.62013451285477,-40.93793375462537
6.49,3.05,-7.84,0.5937719919642812,0.9394465951492026,-0.7599518623028149,-127.30014547607834,-32.114772865183184,-40.607862210384674
6.49,3.05,-7.84,0.5937719919642812,0.9394465951492026,-0.7599518623028149,-127.30014547607834,-32.114772865183184,-40.607862210384674
5.2,2.87,-6.99,0.2299725126263969,1.0227935721483254,0.6941308119703571,-128.10621848828742,-31.47137263789784,-40.13171155486349
5.2,2.87,-6.99,0.2299725126263969,1.0227935721483254,0.6941308119703571,-128.10621848828742,-31.47137263789784,-40.13171155486349
5.06,3.63,-6.77,0.6034322361041122,1.4277034144056038,0.7396255433811145,-129.00391708769308,-30.650725683430657,-39.558846745858816
5.06,3.63,-6.77,0.6034322361041122,1.4277034144056038,0.7396255433811145,-129.00391708769308,-30.650725683430657,-39.558846745858816
4.72,3.33,-6.79,0.2006273533120994,1.2265389674976932,0.9790370255706904,-129.27076347961943,-30.24694330618832,-39.46144077446525
4.72,3.33,-6.79,0.2006273533120994,1.2265389674976932,0.9790370255706904,-129.27076347961943,-30.24694330618832,-39.46144077446525
4.98,4.63,-7.14,0.6244809066872332,2.139015418445331,0.2018836500653869,-129.32429015652528,-29.760539648089328,-39.61974059674283
4.98,4.63,-7.14,0.6244809066872332,2.139015418445331,0.2018836500653869,-129.32429015652528,-29.760539648089328,-39.61974059674283
4.99,3.03,-7.9,-0.5589696384741372,0.7879635308716202,0.0312898318383965,-129.0838339340417,-30.021467926252928,-39.68064610609173
4.99,3.03,-7.9,-0.5589696384741372,0.7879635308716202,0.0312898318383965,-129.0838339340417,-30.021467926252928,-39.68064610609173
4.45,3.16,-7.04,-0.2202654314906872,1.04917970000345,0.9635507075126152,-129.43150224575868,-30.15199174363297,-39.12075302077309
4.45,3.16,-7.04,-0.2202654314906872,1.04917970000345,0.9635507075126152,-129.43150224575868,-30.15199174363297,-39.12075302077309
5.29,2.58,-8.15,-0.6298006863437968,0.2274067257084169,-0.2240347860245073,-129.37786968902606,-30.294427058078604,-39.10859227464813
5.29,2.58,-8.15,-0.6298006863437968,0.2274067257084169,-0.2240347860245073,-129.37786968902606,-30.294427058078604,-39.10859227464813
5.43,2.64,-8.48,-0.6761726720102285,0.2367502029800277,-0.5785144117469567,-129.40467932878911,-30.54380438300529,-38.87762497174376
5.43,2.64,-8.48,-0.6761726720102285,0.2367502029800277,-0.5785144117469567,-129.40467932878911,-30.54380438300529,-38.87762497174376
4.79,2.43,-7.17,-0.2452746286619584,0.2037262586736206,0.8536484939093416,-129.97078188553854,-30.66260751391823,-38.07658496090942
4.79,2.43,-7.17,-0.2452746286619584,0.2037262586736206,0.8536484939093416,-129.97078188553854,-30.66260751391823,-38.07658496090942
4.86,2.98,-8.14,-0.5123531020439485,0.6630007313026003,-0.095749927750754,-130.0792914251156,-30.817102104618424,-37.7615559445365
4.86,2.98,-8.14,-0.5123531020439485,0.6630007313026003,-0.095749927750754,-130.0792914251156,-30.817102104618424,-37.7615559445365
5.54,2.91,-8.22,-0.1302519300240293,0.1523714252071442,-0.5223343345561045,-129.7004663573504,-31.626171458397582,-37.53152975160733
5.54,2.91,-8.22,-0.1302519300240293,0.1523714252071442,-0.5223343345561045,-129.7004663573504,-31.626171458397582,-37.53152975160733
4.94,1.78,-7.43,-0.4724232159365366,-0.566753702067437,0.7384359230035269,-129.78141812262746,-32.114772865183184,-37.011521124582174
4.94,1.78,-7.43,-0.4724232159365366,-0.566753702067437,0.7384359230035269,-129.78141812262746,-32.114772865183184,-37.011521124582174
6.02,3.82,-7.54,1.1188037811727871,0.5264111828152687,-0.4965324872628809,-130.10645331555745,-31.757201337874307,-36.80615463747225
6.02,3.82,-7.54,1.1188037811727871,0.5264111828152687,-0.4965324872628809,-130.10645331555745,-31.757201337874307,-36.80615463747225
5.97,2.77,-8.39,0.0840927714290585,-0.2752563318637981,-0.8527619142456562,-129.97078188553854,-31.91210981272961,-36.842386864351504
5.97,2.77,-8.39,0.0840927714290585,-0.2752563318637981,-0.8527619142456562,-129.97078188553854,-31.91210981272961,-36.842386864351504
5.52,2.75,-8.23,-0.1055528101001576,-0.0872897564132884,-0.4766879358409355,-129.9436888935972,-32.10284865965952,-36.73370161256758
5.52,2.75,-8.23,-0.1055528101001576,-0.0872897564132884,-0.4766879358409355,-129.9436888935972,-32.10284865965952,-36.73370161256758
4.87,2.63,-7.53,-0.124841573053191,0.1011991349368615,0.4627282689105492,-130.052143359472,-32.18632560419117,-36.504367169981776
4.87,2.63,-7.53,-0.124841573053191,0.1011991349368615,0.4627282689105492,-130.052143359472,-32.18632560419117,-36.504367169981776
5.14,2.95,-7.52,0.1865476044110376,0.261703323538953,0.2374697131762033,-129.9436888935972,-32.162473260424385,-36.685408046310336
5.14,2.95,-7.52,0.1865476044110376,0.261703323538953,0.2374697131762033,-129.9436888935972,-32.162473260424385,-36.685408046310336
5.42,2.56,-8.26,-0.2713771936959313,-0.1207862230052865,-0.3947893644756721,-129.80842917390058,-32.26982009667936,-36.83030903162442
5.42,2.56,-8.26,-0.2713771936959313,-0.1207862230052865,-0.3947893644756721,-129.80842917390058,-32.26982009667936,-36.83030903162442
5.18,2.69,-8.05,-0.24123767556114,0.1200137006131756,-0.1330884822516846,-129.72743673627951,-32.3294697942308,-36.87862290728264
5.18,2.69,-8.05,-0.24123767556114,0.1200137006131756,-0.1330884822516846,-129.72743673627951,-32.3294697942308,-36.87862290728264
5.29,2.72,-7.8,-0.0012270306668182,0.0801875631948183,-0.0023289707749238,-129.72743673627951,-32.3294697942308,-36.87862290728264
5.29,2.72,-7.8,-0.0012270306668182,0.0801875631948183,-0.0023289707749238,-129.72743673627951,-32.3294697942308,-36.87862290728264
5.67,2.79,-8.34,-0.0598846799792417,-0.0087586197765512,-0.6568550108309008,-129.7004663573504,-32.31753913524463,-36.963188541466
5.67,2.79,-8.34,-0.0598846799792417,-0.0087586197765512,-0.6568550108309008,-129.7004663573504,-32.31753913524463,-36.963188541466
5.64,2.55,-8.57,-0.286378380015915,-0.2002405835566836,-0.7590913905582735,-129.86249210271768,-32.412994497933816,-36.69748080490138
5.64,2.55,-8.57,-0.286378380015915,-0.2002405835566836,-0.7590913905582735,-129.86249210271768,-32.412994497933816,-36.69748080490138
4.73,2.43,-8.26,-0.6493902691188332,0.0675082072569119,0.0046535237546265,-130.3242488651211,-32.436861947325646,-35.98590378205003
4.73,2.43,-8.26,-0.6493902691188332,0.0675082072569119,0.0046535237546265,-130.3242488651211,-32.436861947325646,-35.98590378205003
4.92,2.64,-8.54,-0.52649641459524,0.0803435259997102,-0.3827536353090011,-130.76254599505174,-32.24596273355917,-35.4802322080149
4.92,2.64,-8.54,-0.52649641459524,0.0803435259997102,-0.3827536353090011,-130.76254599505174,-32.24596273355917,-35.4802322080149
4.69,2.9,-8.0,-0.1032515583658143,0.2269614495124592,0.0935697668231796,-131.67829939723129,-31.959785992705623,-34.375043949019776
4.69,2.9,-8.0,-0.1032515583658143,0.2269614495124592,0.0935697668231796,-131.67829939723129,-31.959785992705623,-34.375043949019776
4.56,2.99,-7.56,0.1924796619265278,0.2925793333129819,0.4918956332191566,-132.29797094336487,-31.73337455864903,-33.70393852830112
4.56,2.99,-7.56,0.1924796619265278,0.2925793333129819,0.4918956332191566,-132.29797094336487,-31.73337455864903,-33.70393852830112
