,TIME,ELAPSED_SECONDS,PSTATE,acc_x,acc_y,acc_z,mag_x,mag_y,mag_z,gyr_x,gyr_y,gyr_z,lin_x,lin_y,lin_z,eul_x,eul_y,eul_z,qua_w,qua_x,qua_y,qua_z
0,644833.0,612.184472,1.0,9.05,3.24,-1.55,-27.75,9.69,-3.75,1.12,-1.19,0.25,-0.052458517078964935,-0.030103230348180743,0.07017518107767806,-32.23403459047365,90.50238041567628,-2.509755787270372,-0.6466,-0.2776,0.7102,-0.0219
1,644833.0,612.184472,1.0,9.05,3.24,-1.55,-27.75,9.69,-3.75,1.12,-1.19,0.25,-0.052458517078964935,-0.030103230348180743,0.07017518107767806,-32.23403459047365,90.50238041567628,-2.509755787270372,-0.6466,-0.2776,0.7102,-0.0219
2,644868.0,612.187789,1.0,9.07,3.16,-1.64,-28.56,10.06,-3.75,0.06,-1.88,-0.25,0.05425625048870734,0.014319931853734369,0.06309052725931785,-32.26982009667936,90.534939503876,-2.521217704700676,-0.6462,-0.2779,0.7104,-0.022000000000000002
3,644868.0,612.187789,1.0,9.07,3.16,-1.64,-28.56,10.06,-3.75,0.06,-1.88,-0.25,0.05425625048870734,0.014319931853734369,0.06309052725931785,-32.26982009667936,90.534939503876,-2.521217704700676,-0.6462,-0.2779,0.7104,-0.022000000000000002
4,644902.0,612.249504,1.0,9.04,3.11,-1.53,-27.75,10.06,-4.19,1.56,-1.69,-0.5,-0.034391179717326935,0.09207531874914897,0.12548584570352972,-32.28174931703743,90.60008571252614,-2.521217704700676,-0.6458,-0.278,0.7108,-0.022000000000000002
5,644902.0,612.249504,1.0,9.04,3.11,-1.53,-27.75,10.06,-4.19,1.56,-1.69,-0.5,-0.034391179717326935,0.09207531874914897,0.12548584570352972,-32.28174931703743,90.60008571252614,-2.521217704700676,-0.6458,-0.278,0.7108,-0.022000000000000002
6,644937.0,612.273784,1.0,9.01,3.06,-1.48,-27.75,10.06,-4.19,1.88,-2.88,0.69,-0.07803799879538867,0.14575494089549212,0.17821473938010435,-32.305608836158264,90.69787526655077,-2.555603608821701,-0.645,-0.2782,0.7114,-0.0223
7,644937.0,612.273784,1.0,9.01,3.06,-1.48,-27.75,10.06,-4.19,1.88,-2.88,0.69,-0.07803799879538867,0.14575494089549212,0.17821473938010435,-32.305608836158264,90.69787526655077,-2.555603608821701,-0.645,-0.2782,0.7114,-0.0223
8,644972.0,612.3300879999999,1.0,9.02,3.12,-1.64,-28.56,10.5,-4.19,-0.37,-1.06,1.0,0.039320102642385,0.03245138746582499,0.12254958555882035,-32.28174931703743,90.71418173754832,-2.5670656278548973,-0.645,-0.278,0.7115,-0.0224
9,644972.0,612.3300879999999,1.0,9.02,3.12,-1.64,-28.56,10.5,-4.19,-0.37,-1.06,1.0,0.039320102642385,0.03245138746582499,0.12254958555882035,-32.28174931703743,90.71418173754832,-2.5670656278548973,-0.645,-0.278,0.7115,-0.0224
10,645009.0,612.3813849999999,1.0,8.97,3.25,-1.45,-27.75,10.06,-4.56,0.31,-0.31,0.56,-0.1893224252726468,-0.02082111836277134,0.15835359595440934,-32.26982009667936,90.73049055841386,-2.555603608821701,-0.6449,-0.2779,0.7116,-0.0223
11,645009.0,612.3813849999999,1.0,8.97,3.25,-1.45,-27.75,10.06,-4.56,0.31,-0.31,0.56,-0.1893224252726468,-0.02082111836277134,0.15835359595440934,-32.26982009667936,90.73049055841386,-2.555603608821701,-0.6449,-0.2779,0.7116,-0.0223
12,645044.0,612.422319,1.0,8.98,3.05,-1.56,-27.75,10.06,-4.56,0.88,-0.63,0.0,-0.009064895584522245,0.10779403766074247,0.19598934252629974,-32.2936788968098,90.74680173049411,-2.589989743099661,-0.6448,-0.2781,0.7117,-0.0226
13,645044.0,612.422319,1.0,8.98,3.05,-1.56,-27.75,10.06,-4.56,0.88,-0.63,0.0,-0.009064895584522245,0.10779403766074247,0.19598934252629974,-32.2936788968098,90.74680173049411,-2.589989743099661,-0.6448,-0.2781,0.7117,-0.0226
14,645076.0,612.437236,1.0,9.04,3.08,-1.79,-28.19,9.38,-4.56,-2.44,0.06,0.44,0.1902185022167227,0.013009135948472084,0.09193190404907804,-32.23403459047365,90.74680173049411,-2.544141615361497,-0.645,-0.2776,0.7117,-0.0222
15,645076.0,612.437236,1.0,9.04,3.08,-1.79,-28.19,9.38,-4.56,-2.44,0.06,0.44,0.1902185022167227,0.013009135948472084,0.09193190404907804,-32.23403459047365,90.74680173049411,-2.544141615361497,-0.645,-0.2776,0.7117,-0.0222
16,645113.0,612.441449,1.0,8.96,3.26,-1.42,-28.19,10.5,-4.19,0.06,-1.19,0.94,-0.22608944388608496,-0.02553295260806987,0.16954298431866374,-32.19825231317595,90.79574936750706,-2.532679647359437,-0.6448,-0.2773,0.7120000000000001,-0.0221
17,645113.0,612.441449,1.0,8.96,3.26,-1.42,-28.19,10.5,-4.19,0.06,-1.19,0.94,-0.22608944388608496,-0.02553295260806987,0.16954298431866374,-32.19825231317595,90.79574936750706,-2.532679647359437,-0.6448,-0.2773,0.7120000000000001,-0.0221
18,645146.0,612.480042,1.0,9.02,3.22,-1.49,-28.19,10.5,-4.19,0.12,1.69,0.19,-0.1419100961663407,0.0005173631584276528,0.1149648391550908,-32.19825231317595,90.76311525513687,-2.544141615361497,-0.645,-0.2773,0.7118,-0.0222
19,645146.0,612.480042,1.0,9.02,3.22,-1.49,-28.19,10.5,-4.19,0.12,1.69,0.19,-0.1419100961663407,0.0005173631584276528,0.1149648391550908,-32.19825231317595,90.76311525513687,-2.544141615361497,-0.645,-0.2773,0.7118,-0.0222
20,645179.0,612.497557,1.0,9.06,3.19,-1.82,-28.19,10.5,-4.56,0.31,0.06,0.75,0.17250062967464902,-0.09000876369101674,0.032488043329715666,-32.19825231317595,90.73049055841386,-2.555603608821701,-0.6451,-0.2773,0.7116,-0.0223
21,645179.0,612.497557,1.0,9.06,3.19,-1.82,-28.19,10.5,-4.56,0.31,0.06,0.75,0.17250062967464902,-0.09000876369101674,0.032488043329715666,-32.19825231317595,90.73049055841386,-2.555603608821701,-0.6451,-0.2773,0.7116,-0.0223
22,645214.0,612.5832320000001,1.0,9.02,3.21,-1.64,-28.56,10.5,-3.75,-0.5,-2.19,0.56,-0.005816057570007069,-0.04830384609222915,0.09316798210718602,-32.19825231317595,90.77943113369116,-2.544141615361497,-0.6448,-0.2773,0.7119,-0.0222
23,645214.0,612.5832320000001,1.0,9.02,3.21,-1.64,-28.56,10.5,-3.75,-0.5,-2.19,0.56,-0.005816057570007069,-0.04830384609222915,0.09316798210718602,-32.19825231317595,90.77943113369116,-2.544141615361497,-0.6448,-0.2773,0.7119,-0.0222
24,645249.0,612.641345,1.0,9.01,3.27,-1.57,-28.19,9.69,-5.0,1.12,1.12,-0.88,-0.09580128349656228,-0.07236151594839102,0.09462210027225916,-32.222106806155665,90.77943113369116,-2.544141615361497,-0.6447,-0.2775,0.7119,-0.0222
25,645249.0,612.641345,1.0,9.01,3.27,-1.57,-28.19,9.69,-5.0,1.12,1.12,-0.88,-0.09580128349656228,-0.07236151594839102,0.09462210027225916,-32.222106806155665,90.77943113369116,-2.544141615361497,-0.6447,-0.2775,0.7119,-0.0222
26,645283.0,612.645862,1.0,9.11,3.1,-1.75,-28.19,9.69,-5.0,0.06,1.37,-0.56,0.1426610008756966,0.03772291177438314,0.026935033767273357,-32.24596273355917,90.74680173049411,-2.555603608821701,-0.6449,-0.2777,0.7117,-0.0223
27,645283.0,612.645862,1.0,9.11,3.1,-1.75,-28.19,9.69,-5.0,0.06,1.37,-0.56,0.1426610008756966,0.03772291177438314,0.026935033767273357,-32.24596273355917,90.74680173049411,-2.555603608821701,-0.6449,-0.2777,0.7117,-0.0223
28,645320.0,612.735272,1.0,9.0,3.25,-1.58,-28.19,9.69,-3.75,1.69,-0.69,-0.19,-0.07805455714141647,-0.060497957086798726,0.10875602845660204,-32.24596273355917,90.77943113369116,-2.544141615361497,-0.6447,-0.2777,0.7119,-0.0222
29,645320.0,612.735272,1.0,9.0,3.25,-1.58,-28.19,9.69,-3.75,1.69,-0.69,-0.19,-0.07805455714141647,-0.060497957086798726,0.10875602845660204,-32.24596273355917,90.77943113369116,-2.544141615361497,-0.6447,-0.2777,0.7119,-0.0222
30,645355.0,612.738162,1.0,9.11,3.11,-1.7,-27.75,9.38,-5.38,0.31,0.63,-0.69,0.0897360677038617,0.05380263914696415,0.032027106293362806,-32.26982009667936,90.76311525513687,-2.544141615361497,-0.6447,-0.2779,0.7118,-0.0222
31,645355.0,612.738162,1.0,9.11,3.11,-1.7,-27.75,9.38,-5.38,0.31,0.63,-0.69,0.0897360677038617,0.05380263914696415,0.032027106293362806,-32.26982009667936,90.76311525513687,-2.544141615361497,-0.6447,-0.2779,0.7118,-0.0222
32,645390.0,612.789387,1.0,9.07,3.16,-1.64,-27.75,9.38,-5.38,1.12,-1.5,-1.06,0.00921670089992025,0.026034768313911938,0.06296808589466707,-32.28174931703743,90.79574936750706,-2.521217704700676,-0.6444,-0.278,0.7120000000000001,-0.022000000000000002
33,645390.0,612.789387,1.0,9.07,3.16,-1.64,-27.75,9.38,-5.38,1.12,-1.5,-1.06,0.00921670089992025,0.026034768313911938,0.06296808589466707,-32.28174931703743,90.79574936750706,-2.521217704700676,-0.6444,-0.278,0.7120000000000001,-0.022000000000000002
34,645425.0,612.8424160000001,1.0,9.07,3.2,-1.84,-27.75,10.06,-5.0,-0.37,-2.5,-0.75,0.1651549062935662,-0.07802977340186312,0.015984281501076225,-32.305608836158264,90.84471821404394,-2.4982938949536853,-0.644,-0.2782,0.7123,-0.0218
35,645425.0,612.8424160000001,1.0,9.07,3.2,-1.84,-27.75,10.06,-5.0,-0.37,-2.5,-0.75,0.1651549062935662,-0.07802977340186312,0.015984281501076225,-32.305608836158264,90.84471821404394,-2.4982938949536853,-0.644,-0.2782,0.7123,-0.0218
36,645462.0,612.845334,1.0,9.31,3.75,-2.25,-28.56,9.38,-4.19,-2.0,0.06,-4.94,0.3033115032762081,-0.5931646983418475,-0.4577183572162085,-32.36526393220739,90.84471821404394,-2.3951379752687134,-0.6439,-0.2787,0.7123,-0.0209
37,645462.0,612.845334,1.0,9.31,3.75,-2.25,-28.56,9.38,-4.19,-2.0,0.06,-4.94,0.3033115032762081,-0.5931646983418475,-0.4577183572162085,-32.36526393220739,90.84471821404394,-2.3951379752687134,-0.6439,-0.2787,0.7123,-0.0209
38,645496.0,612.883111,1.0,9.53,3.98,-3.18,-28.56,9.38,-4.19,-1.31,-15.63,-15.31,1.0326492466397288,-0.9911361500869602,-0.9043249633450844,-32.61591400140699,90.926380189859,-2.1086036789736795,-0.6425,-0.2808,0.7128,-0.0184
39,645496.0,612.883111,1.0,9.53,3.98,-3.18,-28.56,9.38,-4.19,-1.31,-15.63,-15.31,1.0326492466397288,-0.9911361500869602,-0.9043249633450844,-32.61591400140699,90.926380189859,-2.1086036789736795,-0.6425,-0.2808,0.7128,-0.0184
40,645529.0,612.9013940000001,1.0,9.57,4.7,-2.77,-28.56,10.5,-3.5,-4.63,-21.44,-24.87,0.2608765087792957,-1.2185194227170963,-1.138438115845771,-33.2731430190265,91.43401211484779,-1.4438918508267422,-0.6367,-0.2863,0.7159,-0.0126
41,645529.0,612.9013940000001,1.0,9.57,4.7,-2.77,-28.56,10.5,-3.5,-4.63,-21.44,-24.87,0.2608765087792957,-1.2185194227170963,-1.138438115845771,-33.2731430190265,91.43401211484779,-1.4438918508267422,-0.6367,-0.2863,0.7159,-0.0126
42,645564.0,612.904437,1.0,10.5,5.26,-4.9,-28.56,9.69,-2.56,14.94,-39.31,-36.5,1.825224881448944,-1.8724896621215288,-2.6468610148659586,-34.13522516911611,91.82860613360762,-0.7448503787209418,-0.6308,-0.2935,0.7183,-0.0065
43,645564.0,612.904437,1.0,10.5,5.26,-4.9,-28.56,9.69,-2.56,14.94,-39.31,-36.5,1.825224881448944,-1.8724896621215288,-2.6468610148659586,-34.13522516911611,91.82860613360762,-0.7448503787209418,-0.6308,-0.2935,0.7183,-0.0065
44,645601.0,612.940367,1.0,10.49,4.98,-4.04,-28.19,7.88,-2.25,10.94,-70.19,-58.25,0.8251629588329398,-0.7395845151609661,-2.438112996330481,-36.10640826375515,93.15420041095278,0.5958787923837214,-0.6135,-0.3099,0.7263,0.0052
45,645601.0,612.940367,1.0,10.49,4.98,-4.04,-28.19,7.88,-2.25,10.94,-70.19,-58.25,0.8251629588329398,-0.7395845151609661,-2.438112996330481,-36.10640826375515,93.15420041095278,0.5958787923837214,-0.6135,-0.3099,0.7263,0.0052
46,645636.0,612.999872,1.0,11.05,5.16,-5.8,-28.19,7.88,-2.25,-2.63,-96.62,-70.5,1.864734713946833,-0.3330304408293516,-3.564212170110148,-38.06446294953504,95.07171534119541,3.380941489627292,-0.5904,-0.3261,0.7377,0.0295
47,645636.0,612.999872,1.0,11.05,5.16,-5.8,-28.19,7.88,-2.25,-2.63,-96.62,-70.5,1.864734713946833,-0.3330304408293516,-3.564212170110148,-38.06446294953504,95.07171534119541,3.380941489627292,-0.5904,-0.3261,0.7377,0.0295
48,645672.0,613.015848,1.0,10.45,6.09,-4.97,-30.06,6.69,-1.5,4.63,-152.56,-82.25,0.188699624961666,-0.20471731680925087,-3.266757485110288,-39.76593345094053,97.5452305573509,5.949975106955117,-0.5621,-0.3401,0.7521,0.0519
49,645672.0,613.015848,1.0,10.45,6.09,-4.97,-30.06,6.69,-1.5,4.63,-152.56,-82.25,0.188699624961666,-0.20471731680925087,-3.266757485110288,-39.76593345094053,97.5452305573509,5.949975106955117,-0.5621,-0.3401,0.7521,0.0519
50,645707.0,613.0958969999999,1.0,9.66,7.2,-5.22,-30.06,4.88,-0.25,-0.44,-169.31,-99.5,-0.6366256803097754,-0.5471581529070121,-3.296758934276511,-41.67270371214475,100.17050104885807,9.016196458354324,-0.5281,-0.3557,0.767,0.0786
51,645707.0,613.0958969999999,1.0,9.66,7.2,-5.22,-30.06,4.88,-0.25,-0.44,-169.31,-99.5,-0.6366256803097754,-0.5471581529070121,-3.296758934276511,-41.67270371214475,100.17050104885807,9.016196458354324,-0.5281,-0.3557,0.767,0.0786
52,645742.0,613.1065679999999,1.0,8.96,6.79,-6.32,-30.06,4.88,-0.25,49.0,-180.25,-113.31,-0.4522439963632746,0.4885988443836982,-3.072979130414448,-45.23782004339508,103.36739654993116,12.50381856554563,-0.4739,-0.3846,0.7846,0.1089
53,645742.0,613.1065679999999,1.0,8.96,6.79,-6.32,-30.06,4.88,-0.25,49.0,-180.25,-113.31,-0.4522439963632746,0.4885988443836982,-3.072979130414448,-45.23782004339508,103.36739654993116,12.50381856554563,-0.4739,-0.3846,0.7846,0.1089
54,645777.0,613.1536570000001,1.0,8.25,7.03,-7.76,-32.19,1.5,3.69,35.81,-207.5,-111.69,-0.4919214143500135,1.208206451877687,-3.4598209132363102,-48.64849167574625,106.5088462839978,16.408227758317484,-0.4097,-0.4119,0.8013,0.1427
55,645777.0,613.1536570000001,1.0,8.25,7.03,-7.76,-32.19,1.5,3.69,35.81,-207.5,-111.69,-0.4919214143500135,1.208206451877687,-3.4598209132363102,-48.64849167574625,106.5088462839978,16.408227758317484,-0.4097,-0.4119,0.8013,0.1427
56,645814.0,613.161775,1.0,5.34,7.9,-4.8,-31.87,-1.75,8.38,22.44,-198.81,-119.31,-3.0513668829182503,-0.2995476418573637,-0.4190544430243275,-50.90973662321184,108.42668178324713,19.61052428537218,-0.3581,-0.4298,0.8112,0.1703
57,645814.0,613.161775,1.0,5.34,7.9,-4.8,-31.87,-1.75,8.38,22.44,-198.81,-119.31,-3.0513668829182503,-0.2995476418573637,-0.4190544430243275,-50.90973662321184,108.42668178324713,19.61052428537218,-0.3581,-0.4298,0.8112,0.1703
58,645849.0,613.1644650000001,1.0,4.66,8.02,-8.69,-31.87,-1.75,8.38,15.13,-181.38,-133.56,-1.0099131693929138,0.6149020281310031,-2.8485493617677573,-54.219965017577714,108.76048947633528,23.98691540045918,-0.2971,-0.4557,0.8129,0.2078
59,645849.0,613.1644650000001,1.0,4.66,8.02,-8.69,-31.87,-1.75,8.38,15.13,-181.38,-133.56,-1.0099131693929138,0.6149020281310031,-2.8485493617677573,-54.219965017577714,108.76048947633528,23.98691540045918,-0.2971,-0.4557,0.8129,0.2078
60,645883.0,613.2130950000001,1.0,1.87,7.06,-5.57,-29.5,-4.69,11.75,35.19,-193.81,-125.0,-2.098899218918969,-0.7257022836012239,0.8941094943755079,-56.65360014298316,109.253864399006,26.19396354392425,-0.2422,-0.4745,0.8154,0.2266
61,645883.0,613.2130950000001,1.0,1.87,7.06,-5.57,-29.5,-4.69,11.75,35.19,-193.81,-125.0,-2.098899218918969,-0.7257022836012239,0.8941094943755079,-56.65360014298316,109.253864399006,26.19396354392425,-0.2422,-0.4745,0.8154,0.2266
62,645920.0,613.253046,1.0,0.7,9.63,-6.53,-27.87,-6.06,14.88,12.06,-122.94,-135.25,-3.403934987793193,-1.4511000677379258,-1.2466452187249768,-59.76196847937517,107.31714138517356,29.950289927892534,-0.1901,-0.4982,0.8055,0.2584
63,645920.0,613.253046,1.0,0.7,9.63,-6.53,-27.87,-6.06,14.88,12.06,-122.94,-135.25,-3.403934987793193,-1.4511000677379258,-1.2466452187249768,-59.76196847937517,107.31714138517356,29.950289927892534,-0.1901,-0.4982,0.8055,0.2584
64,645955.0,613.309133,1.0,0.21,7.8,-8.02,-28.0,-10.06,17.87,109.5,-103.62,-161.63,-1.8687920115247256,-0.0978855353088708,-1.2252371839608074,-63.25572065292907,105.46176616813965,30.674489682178663,-0.1481,-0.5244,0.7958,0.2645
65,645955.0,613.309133,1.0,0.21,7.8,-8.02,-28.0,-10.06,17.87,109.5,-103.62,-161.63,-1.8687920115247256,-0.0978855353088708,-1.2252371839608074,-63.25572065292907,105.46176616813965,30.674489682178663,-0.1481,-0.5244,0.7958,0.2645
66,645990.0,613.315981,1.0,-0.29,4.91,-8.54,-28.0,-10.06,17.87,49.19,-112.69,-155.06,-0.19448216744152905,1.3284304390597064,0.04338982446811457,-68.45773265562515,101.99163135724292,31.06679175207397,-0.0895,-0.5625,0.7771,0.2678
67,645990.0,613.315981,1.0,-0.29,4.91,-8.54,-28.0,-10.06,17.87,49.19,-112.69,-155.06,-0.19448216744152905,1.3284304390597064,0.04338982446811457,-68.45773265562515,101.99163135724292,31.06679175207397,-0.0895,-0.5625,0.7771,0.2678
68,646025.0,613.333344,1.0,-1.78,5.01,-7.22,-28.06,-13.56,21.0,48.38,-100.0,-154.0,-0.8497534552510677,0.18010839600422954,0.8823920459190209,-71.6766411521629,98.89313900458244,32.28174931703743,-0.0514,-0.5855,0.7598,0.278
69,646025.0,613.333344,1.0,-1.78,5.01,-7.22,-28.06,-13.56,21.0,48.38,-100.0,-154.0,-0.8497534552510677,0.18010839600422954,0.8823920459190209,-71.6766411521629,98.89313900458244,32.28174931703743,-0.0514,-0.5855,0.7598,0.278
70,646064.0,613.470721,1.0,-1.45,2.17,-8.53,-22.06,-18.69,27.56,20.0,-95.31,-138.5,1.5243850193831547,2.039395562716616,1.2574151774295041,-75.91837365235722,94.42869817988995,33.476513522752754,-0.0079,-0.6151,0.7339,0.28800000000000003
71,646064.0,613.470721,1.0,-1.45,2.17,-8.53,-22.06,-18.69,27.56,20.0,-95.31,-138.5,1.5243850193831547,2.039395562716616,1.2574151774295041,-75.91837365235722,94.42869817988995,33.476513522752754,-0.0079,-0.6151,0.7339,0.28800000000000003
72,646098.0,613.483756,1.0,-3.04,3.51,-5.61,-22.06,-18.69,27.56,-31.12,-101.0,-110.31,-0.544062939003202,-0.19300650713642956,2.54713596622293,-77.99699333524984,91.13897874666814,35.64870955741132,0.0178,-0.6293,0.7141,0.3061
73,646098.0,613.483756,1.0,-3.04,3.51,-5.61,-22.06,-18.69,27.56,-31.12,-101.0,-110.31,-0.544062939003202,-0.19300650713642956,2.54713596622293,-77.99699333524984,91.13897874666814,35.64870955741132,0.0178,-0.6293,0.7141,0.3061
74,646133.0,613.560257,1.0,-2.97,4.76,-6.79,-15.0,-19.87,28.25,-55.25,-57.06,-108.31,-1.295548413078501,1.1247150155322043,1.1672535833973807,-80.63158949863124,86.56562406837946,38.74398218156732,0.0371,-0.647,0.6856,0.3317
75,646133.0,613.560257,1.0,-2.97,4.76,-6.79,-15.0,-19.87,28.25,-55.25,-57.06,-108.31,-1.295548413078501,1.1247150155322043,1.1672535833973807,-80.63158949863124,86.56562406837946,38.74398218156732,0.0371,-0.647,0.6856,0.3317
76,646168.0,613.57682,1.0,-3.05,4.17,-5.86,-9.75,-22.25,28.87,-23.69,-28.5,-121.62,-1.1680765569971434,1.076328836564926,2.1575903589348,-84.25767849428371,81.5968810686458,40.63229985656115,0.0504,-0.6708,0.6534,0.3472
77,646168.0,613.57682,1.0,-3.05,4.17,-5.86,-9.75,-22.25,28.87,-23.69,-28.5,-121.62,-1.1680765569971434,1.076328836564926,2.1575903589348,-84.25767849428371,81.5968810686458,40.63229985656115,0.0504,-0.6708,0.6534,0.3472
78,646205.0,613.580048,1.0,-4.27,6.56,-3.5,-4.5,-24.19,28.75,12.69,6.38,-135.63,-4.400075051074465,-0.3924149429222332,2.458054892261148,-87.32356135651855,78.12975943011051,40.97463022944533,0.0612,-0.6904,0.6302,0.35
79,646205.0,613.580048,1.0,-4.27,6.56,-3.5,-4.5,-24.19,28.75,12.69,6.38,-135.63,-4.400075051074465,-0.3924149429222332,2.458054892261148,-87.32356135651855,78.12975943011051,40.97463022944533,0.0612,-0.6904,0.6302,0.35
80,646238.0,613.583183,1.0,-2.06,2.35,-6.4,-4.5,-24.19,28.75,117.56,66.0,-159.38,-0.13760152134347134,2.1623605177601557,3.0220083136206792,-93.20422442477208,74.4576837501471,36.48023552286196,0.0905,-0.7266,0.605,0.313
81,646238.0,613.583183,1.0,-2.06,2.35,-6.4,-4.5,-24.19,28.75,117.56,66.0,-159.38,-0.13760152134347134,2.1623605177601557,3.0220083136206792,-93.20422442477208,74.4576837501471,36.48023552286196,0.0905,-0.7266,0.605,0.313
82,646275.0,613.62622,1.0,-2.8,0.17,-6.13,-0.5,-23.87,27.69,74.94,-2.06,-119.81,1.2953742426425672,0.9490391829444376,3.259350541388505,-96.4901268036236,71.87466002619819,34.05132504616154,0.1155,-0.746,0.5869,0.2928
83,646275.0,613.62622,1.0,-2.8,0.17,-6.13,-0.5,-23.87,27.69,74.94,-2.06,-119.81,1.2953742426425672,0.9490391829444376,3.259350541388505,-96.4901268036236,71.87466002619819,34.05132504616154,0.1155,-0.746,0.5869,0.2928
84,646311.0,613.645184,1.0,-4.23,0.05,-2.98,0.75,-21.5,29.19,68.12,62.81,-112.94,-0.2127537555729294,-1.813947355102294,4.965149113662476,-100.13478976112896,69.12432067193492,30.84087559172584,0.1395,-0.7668,0.5673,0.2659
85,646311.0,613.645184,1.0,-4.23,0.05,-2.98,0.75,-21.5,29.19,68.12,62.81,-112.94,-0.2127537555729294,-1.813947355102294,4.965149113662476,-100.13478976112896,69.12432067193492,30.84087559172584,0.1395,-0.7668,0.5673,0.2659
86,646346.0,613.7283259999999,1.0,-2.84,-1.45,-5.96,0.75,-21.5,29.19,31.81,88.44,-102.0,1.870381324868712,0.13159956727464606,3.3124945311591523,-103.68214546357069,66.95369808518734,27.65505415801313,0.1428,-0.7863,0.5516,0.239
87,646346.0,613.7283259999999,1.0,-2.84,-1.45,-5.96,0.75,-21.5,29.19,31.81,88.44,-102.0,1.870381324868712,0.13159956727464606,3.3124945311591523,-103.68214546357069,66.95369808518734,27.65505415801313,0.1428,-0.7863,0.5516,0.239
88,646379.0,613.77972,1.0,-3.65,-0.98,-5.72,2.19,-19.06,32.06,19.81,92.81,-79.31,0.7106855412676278,-0.7956534679808235,3.0344153894505967,-107.74364009530142,64.68782282646684,23.76437852052494,0.1378,-0.8077,0.535,0.2059
89,646379.0,613.77972,1.0,-3.65,-0.98,-5.72,2.19,-19.06,32.06,19.81,92.81,-79.31,0.7106855412676278,-0.7956534679808235,3.0344153894505967,-107.74364009530142,64.68782282646684,23.76437852052494,0.1378,-0.8077,0.535,0.2059
90,646416.0,613.790051,1.0,-1.44,-1.43,-9.82,1.37,-17.37,32.5,35.0,128.31,-58.69,2.2147900910575933,2.1420913251371405,0.2642682424236824,-110.4101987714497,63.64641513634406,20.087487431641744,0.1304,-0.8212,0.5273,0.1744
91,646416.0,613.790051,1.0,-1.44,-1.43,-9.82,1.37,-17.37,32.5,35.0,128.31,-58.69,2.2147900910575933,2.1420913251371405,0.2642682424236824,-110.4101987714497,63.64641513634406,20.087487431641744,0.1304,-0.8212,0.5273,0.1744
92,646453.0,613.83857,1.0,-1.07,-1.92,-12.22,-1.56,-17.19,34.0,39.75,14.31,-24.12,2.6146095654382453,2.8628209930790187,-1.988593650807088,-112.15639729539848,62.90613913443401,16.998909587512788,0.1317,-0.8298,0.5218,0.1478
93,646453.0,613.83857,1.0,-1.07,-1.92,-12.22,-1.56,-17.19,34.0,39.75,14.31,-24.12,2.6146095654382453,2.8628209930790187,-1.988593650807088,-112.15639729539848,62.90613913443401,16.998909587512788,0.1317,-0.8298,0.5218,0.1478
94,646486.0,613.855113,1.0,-3.43,-1.22,-8.52,-1.56,-17.19,34.0,27.12,-26.06,-11.0,0.5048339446863287,-0.02425174323354173,0.5552579673790401,-112.17693391272269,62.557208730764245,16.9525653616307,0.1413,-0.8299,0.5192,0.1474
95,646486.0,613.855113,1.0,-3.43,-1.22,-8.52,-1.56,-17.19,34.0,27.12,-26.06,-11.0,0.5048339446863287,-0.02425174323354173,0.5552579673790401,-112.17693391272269,62.557208730764245,16.9525653616307,0.1413,-0.8299,0.5192,0.1474
96,646524.0,613.857736,1.0,-3.42,-0.89,-8.0,-3.06,-16.19,35.0,30.62,-12.38,-8.25,0.05319997356992001,0.10204317891861248,1.0616367380061469,-111.91038320685794,62.36959041979664,16.96415115593626,0.1532,-0.8286,0.5178,0.1475
97,646524.0,613.857736,1.0,-3.42,-0.89,-8.0,-3.06,-16.19,35.0,30.62,-12.38,-8.25,0.05319997356992001,0.10204317891861248,1.0616367380061469,-111.91038320685794,62.36959041979664,16.96415115593626,0.1532,-0.8286,0.5178,0.1475
98,646559.0,613.89729,1.0,-3.15,-1.37,-9.08,-1.88,-15.19,34.19,34.38,4.94,-4.81,0.4960741450908796,0.6559957529295914,0.1335233072128812,-111.80810781092319,62.32941069730318,16.24615724549883,0.1627,-0.8281,0.5175,0.1413
99,646559.0,613.89729,1.0,-3.15,-1.37,-9.08,-1.88,-15.19,34.19,34.38,4.94,-4.81,0.4960741450908796,0.6559957529295914,0.1335233072128812,-111.80810781092319,62.32941069730318,16.24615724549883,0.1627,-0.8281,0.5175,0.1413
100,646594.0,613.913415,1.0,-3.93,-1.82,-7.63,-1.88,-15.19,34.19,42.25,-9.38,-2.88,0.3697661593476312,-0.6674777333022841,1.0664013500503344,-111.5428205011455,62.35619623181861,15.922114008308865,0.1708,-0.8268,0.5177,0.1385
101,646594.0,613.913415,1.0,-3.93,-1.82,-7.63,-1.88,-15.19,34.19,42.25,-9.38,-2.88,0.3697661593476312,-0.6674777333022841,1.0664013500503344,-111.5428205011455,62.35619623181861,15.922114008308865,0.1708,-0.8268,0.5177,0.1385
102,646627.0,613.968888,1.0,-3.13,-2.68,-8.06,-1.5,-14.38,35.38,52.06,8.56,7.06,1.2674927584780191,-0.09293092193336384,0.8440763768181849,-112.25913519470078,61.34098184227653,15.10100089527667,0.182,-0.8303,0.5101,0.1314
103,646627.0,613.968888,1.0,-3.13,-2.68,-8.06,-1.5,-14.38,35.38,52.06,8.56,7.06,1.2674927584780191,-0.09293092193336384,0.8440763768181849,-112.25913519470078,61.34098184227653,15.10100089527667,0.182,-0.8303,0.5101,0.1314
104,646664.0,614.010612,1.0,-3.67,-2.36,-8.35,-1.06,-13.75,35.25,22.94,5.13,-0.56,0.6606160056961098,-0.26245203060422595,0.4121992217666186,-113.46110408162376,60.05293463473585,14.950741939900693,0.1837,-0.8361,0.5004,0.1301
105,646664.0,614.010612,1.0,-3.67,-2.36,-8.35,-1.06,-13.75,35.25,22.94,5.13,-0.56,0.6606160056961098,-0.26245203060422595,0.4121992217666186,-113.46110408162376,60.05293463473585,14.950741939900693,0.1837,-0.8361,0.5004,0.1301
106,646699.0,614.068449,1.0,-4.36,-3.26,-6.97,-1.06,-13.75,35.25,26.62,1.0,-2.0,0.9920581970715991,-1.7417786909879096,1.192700410802054,-113.23167638730342,60.11912281043993,14.477016351828802,0.1896,-0.835,0.5009,0.126
107,646699.0,614.068449,1.0,-4.36,-3.26,-6.97,-1.06,-13.75,35.25,26.62,1.0,-2.0,0.9920581970715991,-1.7417786909879096,1.192700410802054,-113.23167638730342,60.11912281043993,14.477016351828802,0.1896,-0.835,0.5009,0.126
108,646733.0,614.0844099999999,1.0,-3.25,-2.49,-8.38,-1.5,-12.25,36.06,-0.63,27.87,4.94,0.7554741460382328,0.025472604380883945,0.5106503248120813,-114.32249031100716,59.128599522356026,13.968904250085991,0.1892,-0.8402,0.4934,0.1216
109,646733.0,614.0844099999999,1.0,-3.25,-2.49,-8.38,-1.5,-12.25,36.06,-0.63,27.87,4.94,0.7554741460382328,0.025472604380883945,0.5106503248120813,-114.32249031100716,59.128599522356026,13.968904250085991,0.1892,-0.8402,0.4934,0.1216
110,646768.0,614.131496,1.0,-3.03,-1.84,-9.41,-1.5,-11.19,35.75,-14.44,27.75,3.56,0.3139850977335921,0.7241640825068413,-0.2178998522381672,-115.75216046951117,58.19536005826746,13.530302549412001,0.1797,-0.8469,0.4863,0.1178
111,646768.0,614.131496,1.0,-3.03,-1.84,-9.41,-1.5,-11.19,35.75,-14.44,27.75,3.56,0.3139850977335921,0.7241640825068413,-0.2178998522381672,-115.75216046951117,58.19536005826746,13.530302549412001,0.1797,-0.8469,0.4863,0.1178
112,646805.0,614.171098,1.0,-3.71,-1.42,-7.96,-2.25,-11.19,37.38,23.19,19.06,-24.37,-0.5075493557451788,-0.25062964419154143,0.9284926217522448,-117.18882847106602,56.84895982984303,13.2187858542384,0.1785,-0.8535,0.47600000000000003,0.1151
113,646805.0,614.171098,1.0,-3.71,-1.42,-7.96,-2.25,-11.19,37.38,23.19,19.06,-24.37,-0.5075493557451788,-0.25062964419154143,0.9284926217522448,-117.18882847106602,56.84895982984303,13.2187858542384,0.1785,-0.8535,0.47600000000000003,0.1151
114,646838.0,614.1863940000001,1.0,-2.68,-4.12,-9.65,-2.25,-11.19,37.38,42.13,27.87,-31.62,1.964350789114346,-0.07752515411106753,-0.8429798446371297,-117.9183271731557,56.09455949870071,11.34014667578332,0.1872,-0.8568,0.4702,0.0988
115,646838.0,614.1863940000001,1.0,-2.68,-4.12,-9.65,-2.25,-11.19,37.38,42.13,27.87,-31.62,1.964350789114346,-0.07752515411106753,-0.8429798446371297,-117.9183271731557,56.09455949870071,11.34014667578332,0.1872,-0.8568,0.4702,0.0988
116,646875.0,614.22231,1.0,-2.71,-2.24,-8.92,-3.38,-11.69,36.56,-6.69,1.75,0.31,0.3593443670888695,0.4923096396214781,0.23812854448884654,-119.06117764081604,54.91622259305462,11.420757981123572,0.18600000000000003,-0.8619,0.4611,0.0995
117,646875.0,614.22231,1.0,-2.71,-2.24,-8.92,-3.38,-11.69,36.56,-6.69,1.75,0.31,0.3593443670888695,0.4923096396214781,0.23812854448884654,-119.06117764081604,54.91622259305462,11.420757981123572,0.18600000000000003,-0.8619,0.4611,0.0995
118,646912.0,614.285721,1.0,-2.54,-2.38,-9.36,-2.56,-10.56,36.88,-7.94,9.75,-5.13,0.5906084818829751,0.6463153925027754,-0.14116674713310218,-120.43103091016366,53.654242471908226,11.501374957383893,0.1816,-0.8679,0.4513,0.1002
119,646912.0,614.285721,1.0,-2.54,-2.38,-9.36,-2.56,-10.56,36.88,-7.94,9.75,-5.13,0.5906084818829751,0.6463153925027754,-0.14116674713310218,-120.43103091016366,53.654242471908226,11.501374957383893,0.1816,-0.8679,0.4513,0.1002
120,646946.0,614.352047,1.0,-2.69,-2.51,-9.46,-2.56,-10.56,36.88,-0.19,-7.13,-1.56,0.6166535656229015,0.5021539652700009,-0.3124102219360321,-120.5695899160874,53.525866533741606,11.535926836248436,0.1813,-0.8685,0.4503,0.1005
121,646946.0,614.352047,1.0,-2.69,-2.51,-9.46,-2.56,-10.56,36.88,-0.19,-7.13,-1.56,0.6166535656229015,0.5021539652700009,-0.3124102219360321,-120.5695899160874,53.525866533741606,11.535926836248436,0.1813,-0.8685,0.4503,0.1005
122,646979.0,614.3691809999999,1.0,-2.75,-2.75,-9.38,-3.38,-11.25,37.38,10.19,-15.44,2.69,0.7905735070388756,0.3788160736644426,-0.3097175255647855,-121.33697927503367,52.42479644291255,12.00824269100582,0.1843,-0.8718,0.4417,0.1046
123,646979.0,614.3691809999999,1.0,-2.75,-2.75,-9.38,-3.38,-11.25,37.38,10.19,-15.44,2.69,0.7905735070388756,0.3788160736644426,-0.3097175255647855,-121.33697927503367,52.42479644291255,12.00824269100582,0.1843,-0.8718,0.4417,0.1046
124,647016.0,614.37195,1.0,-3.4,-2.08,-8.05,-3.38,-11.25,37.0,-8.38,-11.81,2.38,-0.10908746736847352,-0.22232996289863194,0.8273644319795341,-121.99534211175566,51.48152030899618,12.665219075015518,0.1849,-0.8746,0.4343,0.1103
125,647016.0,614.37195,1.0,-3.4,-2.08,-8.05,-3.38,-11.25,37.0,-8.38,-11.81,2.38,-0.10908746736847352,-0.22232996289863194,0.8273644319795341,-121.99534211175566,51.48152030899618,12.665219075015518,0.1849,-0.8746,0.4343,0.1103
126,647051.0,614.4093320000001,1.0,-3.34,-2.39,-8.69,-3.38,-11.25,37.0,-1.94,9.38,-0.25,0.19429806623505247,-0.12815993365274192,0.1978195148231752,-122.89990924402274,50.64336935396991,12.7228682118641,0.1821,-0.8784,0.4277,0.1108
127,647051.0,614.4093320000001,1.0,-3.34,-2.39,-8.69,-3.38,-11.25,37.0,-1.94,9.38,-0.25,0.19429806623505247,-0.12815993365274192,0.1978195148231752,-122.89990924402274,50.64336935396991,12.7228682118641,0.1821,-0.8784,0.4277,0.1108
128,647086.0,614.4276980000001,1.0,-3.04,-2.71,-9.11,-3.0,-10.56,36.06,-0.63,11.75,4.19,0.6153404562007718,0.03962265935321629,-0.15314850036276614,-122.89990924402274,50.808228717792346,12.434654560583265,0.1812,-0.8784,0.429,0.1083
129,647086.0,614.4276980000001,1.0,-3.04,-2.71,-9.11,-3.0,-10.56,36.06,-0.63,11.75,4.19,0.6153404562007718,0.03962265935321629,-0.15314850036276614,-122.89990924402274,50.808228717792346,12.434654560583265,0.1812,-0.8784,0.429,0.1083
130,647120.0,614.467332,1.0,-3.13,-1.85,-9.42,-2.25,-10.19,36.5,-13.25,1.75,7.13,-0.05404562298269156,0.5229910125487558,-0.2769683719649798,-123.57491843142247,50.22538255847991,12.642160322280047,0.1765,-0.8812,0.4244,0.1101
131,647120.0,614.467332,1.0,-3.13,-1.85,-9.42,-2.25,-10.19,36.5,-13.25,1.75,7.13,-0.05404562298269156,0.5229910125487558,-0.2769683719649798,-123.57491843142247,50.22538255847991,12.642160322280047,0.1765,-0.8812,0.4244,0.1101
132,647155.0,614.48358,1.0,-3.49,-1.97,-8.76,-1.88,-11.25,36.88,1.44,-5.25,1.56,-0.17195482953303387,-0.05492437955038765,0.17513844421960556,-124.35555059912924,49.341094211246,13.045763563399612,0.1752,-0.8844,0.4174,0.1136
133,647155.0,614.48358,1.0,-3.49,-1.97,-8.76,-1.88,-11.25,36.88,1.44,-5.25,1.56,-0.17195482953303387,-0.05492437955038765,0.17513844421960556,-124.35555059912924,49.341094211246,13.045763563399612,0.1752,-0.8844,0.4174,0.1136
134,647190.0,614.5254639999999,1.0,-3.34,-2.18,-8.86,-1.88,-11.25,36.88,3.75,1.94,-1.12,0.06880899160658782,-0.02231741607222681,0.09056193660669187,-124.33100356461244,49.32848435315842,12.953497246186647,0.1762,-0.8843,0.4173,0.1128
135,647190.0,614.5254639999999,1.0,-3.34,-2.18,-8.86,-1.88,-11.25,36.88,3.75,1.94,-1.12,0.06880899160658782,-0.02231741607222681,0.09056193660669187,-124.33100356461244,49.32848435315842,12.953497246186647,0.1762,-0.8843,0.4173,0.1128
136,647225.0,614.540516,1.0,-3.2,-2.25,-9.61,-3.75,-10.56,35.75,-0.19,-1.37,0.37,0.24045326533643266,0.3254191289276652,-0.5611310845772106,-124.94770072590693,48.698798646668465,12.976563032466052,0.1754,-0.8868,0.4123,0.113
137,647225.0,614.540516,1.0,-3.2,-2.25,-9.61,-3.75,-10.56,35.75,-0.19,-1.37,0.37,0.24045326533643266,0.3254191289276652,-0.5611310845772106,-124.94770072590693,48.698798646668465,12.976563032466052,0.1754,-0.8868,0.4123,0.113
138,647262.0,614.579247,1.0,-3.67,-2.1,-8.4,-3.38,-11.25,36.06,-0.56,-13.19,3.38,-0.1907046552163636,-0.34556187470477784,0.4107403194406292,-125.39569465421295,48.03303658033746,13.530302549412001,0.1759,-0.8886,0.40700000000000003,0.1178
139,647262.0,614.579247,1.0,-3.67,-2.1,-8.4,-3.38,-11.25,36.06,-0.56,-13.19,3.38,-0.1907046552163636,-0.34556187470477784,0.4107403194406292,-125.39569465421295,48.03303658033746,13.530302549412001,0.1759,-0.8886,0.40700000000000003,0.1178
140,647297.0,614.676159,1.0,-3.57,-2.22,-8.51,-3.38,-11.25,36.06,-2.63,4.69,-4.5,-0.02000238752803241,-0.3132532966223609,0.32008727809443194,-125.49571017669871,47.92015436839679,13.576461659580188,0.1752,-0.889,0.4061,0.1182
141,647297.0,614.676159,1.0,-3.57,-2.22,-8.51,-3.38,-11.25,36.06,-2.63,4.69,-4.5,-0.02000238752803241,-0.3132532966223609,0.32008727809443194,-125.49571017669871,47.92015436839679,13.576461659580188,0.1752,-0.889,0.4061,0.1182
142,647329.0,614.733672,1.0,-3.05,-2.06,-9.47,-3.75,-10.56,35.75,-1.69,6.81,-1.75,0.23447801679644376,0.4888614804463183,-0.3389418759121696,-126.12469119973764,47.36899357064292,13.44952940908047,0.1735,-0.8915,0.4017,0.1171
143,647329.0,614.733672,1.0,-3.05,-2.06,-9.47,-3.75,-10.56,35.75,-1.69,6.81,-1.75,0.23447801679644376,0.4888614804463183,-0.3389418759121696,-126.12469119973764,47.36899357064292,13.44952940908047,0.1735,-0.8915,0.4017,0.1171
144,647366.0,614.743472,1.0,-3.04,-2.17,-9.36,-2.25,-11.0,36.19,-0.94,-15.13,-2.06,0.3524011298511206,0.4175378963521059,-0.25623107595382066,-126.6838681332996,46.60679955433233,13.830376539145913,0.1738,-0.8937,0.3956,0.1204
145,647366.0,614.743472,1.0,-3.04,-2.17,-9.36,-2.25,-11.0,36.19,-0.94,-15.13,-2.06,0.3524011298511206,0.4175378963521059,-0.25623107595382066,-126.6838681332996,46.60679955433233,13.830376539145913,0.1738,-0.8937,0.3956,0.1204
146,647403.0,614.7813259999999,1.0,-3.5,-2.54,-8.29,-3.38,-11.69,36.06,4.13,-14.5,-1.56,0.2853242562709841,-0.4761398246284481,0.4729700753300854,-127.068261462492,45.85922505196,14.430812668433536,0.1759,-0.8952,0.3896,0.1256
147,647403.0,614.7813259999999,1.0,-3.5,-2.54,-8.29,-3.38,-11.69,36.06,4.13,-14.5,-1.56,0.2853242562709841,-0.4761398246284481,0.4729700753300854,-127.068261462492,45.85922505196,14.430812668433536,0.1759,-0.8952,0.3896,0.1256
148,647436.0,614.8359839999999,1.0,-3.38,-2.16,-8.9,-3.38,-11.69,36.06,-8.75,0.94,-0.06,0.16350911442870286,0.07503328521644614,0.046135936918673785,-127.1197096819897,45.85922505196,14.534774284595127,0.1744,-0.8954,0.3896,0.1265
149,647436.0,614.8359839999999,1.0,-3.38,-2.16,-8.9,-3.38,-11.69,36.06,-8.75,0.94,-0.06,0.16350911442870286,0.07503328521644614,0.046135936918673785,-127.1197096819897,45.85922505196,14.534774284595127,0.1744,-0.8954,0.3896,0.1265
150,647473.0,614.842733,1.0,-3.22,-2.15,-9.22,-2.25,-11.25,36.19,-1.75,-9.69,-0.5,0.3403656969927634,0.3126903885392809,-0.18262804764817986,-127.68873899317936,45.21299316503786,14.89295693159816,0.1727,-0.8976,0.3844,0.1296
151,647473.0,614.842733,1.0,-3.22,-2.15,-9.22,-2.25,-11.25,36.19,-1.75,-9.69,-0.5,0.3403656969927634,0.3126903885392809,-0.18262804764817986,-127.68873899317936,45.21299316503786,14.89295693159816,0.1727,-0.8976,0.3844,0.1296
152,647507.0,614.858427,1.0,-3.71,-2.37,-8.27,-2.25,-10.56,36.06,-1.12,-4.38,1.06,0.09818483046991944,-0.5120601242625099,0.4523967338004021,-127.97542141388577,44.77888374446125,15.158799741488714,0.1728,-0.8987,0.3809,0.1319
153,647507.0,614.858427,1.0,-3.71,-2.37,-8.27,-2.25,-10.56,36.06,-1.12,-4.38,1.06,0.09818483046991944,-0.5120601242625099,0.4523967338004021,-127.97542141388577,44.77888374446125,15.158799741488714,0.1728,-0.8987,0.3809,0.1319
154,647542.0,614.895389,1.0,-3.49,-2.08,-8.67,-2.25,-10.56,36.06,-4.75,4.69,1.56,0.08582344877440495,-0.04891985909684782,0.2324324767228969,-128.0277034878583,44.81606648541226,15.135679738336453,0.1712,-0.8989,0.3812,0.1317
155,647542.0,614.895389,1.0,-3.49,-2.08,-8.67,-2.25,-10.56,36.06,-4.75,4.69,1.56,0.08582344877440495,-0.04891985909684782,0.2324324767228969,-128.0277034878583,44.81606648541226,15.135679738336453,0.1712,-0.8989,0.3812,0.1317
156,647577.0,614.961032,1.0,-3.34,-2.08,-9.05,-1.5,-11.69,35.38,-0.12,-1.37,-0.19,0.2286341283751311,0.1926088997370732,-0.05717928923064086,-128.55324310023371,44.24647435383947,15.216602467156429,0.1702,-0.9009,0.3766,0.1324
157,647577.0,614.961032,1.0,-3.34,-2.08,-9.05,-1.5,-11.69,35.38,-0.12,-1.37,-0.19,0.2286341283751311,0.1926088997370732,-0.05717928923064086,-128.55324310023371,44.24647435383947,15.216602467156429,0.1702,-0.9009,0.3766,0.1324
158,647614.0,614.9774309999999,1.0,-3.46,-2.28,-8.61,-2.25,-11.0,36.88,-0.56,-0.19,0.31,0.24699433218267586,-0.18956257594532253,0.25651074291737785,-128.89754271482937,43.83856273356188,15.332219618835126,0.1699,-0.9022,0.3733,0.1334
159,647614.0,614.9774309999999,1.0,-3.46,-2.28,-8.61,-2.25,-11.0,36.88,-0.56,-0.19,0.31,0.24699433218267586,-0.18956257594532253,0.25651074291737785,-128.89754271482937,43.83856273356188,15.332219618835126,0.1699,-0.9022,0.3733,0.1334
160,647647.0,615.014799,1.0,-3.41,-2.3,-8.9,-2.25,-11.0,36.88,-6.44,1.0,0.5,0.33532530891355605,-0.07018277360198821,0.008143414020093331,-128.92411693093345,43.85091508076586,15.332219618835126,0.16899999999999998,-0.9023,0.3734,0.1334
161,647647.0,615.014799,1.0,-3.41,-2.3,-8.9,-2.25,-11.0,36.88,-6.44,1.0,0.5,0.33532530891355605,-0.07018277360198821,0.008143414020093331,-128.92411693093345,43.85091508076586,15.332219618835126,0.16899999999999998,-0.9023,0.3734,0.1334
162,647682.0,615.021042,1.0,-3.68,-1.9,-8.7,-2.25,-11.25,36.88,-10.19,-2.75,1.56,-0.11953218370046115,-0.0856351754619129,0.1722959129953363,-129.32429015652528,43.480576858025245,15.563501157916,0.1662,-0.9038,0.3704,0.1354
163,647682.0,615.021042,1.0,-3.68,-1.9,-8.7,-2.25,-11.25,36.88,-10.19,-2.75,1.56,-0.11953218370046115,-0.0856351754619129,0.1722959129953363,-129.32429015652528,43.480576858025245,15.563501157916,0.1662,-0.9038,0.3704,0.1354
164,647716.0,615.037272,1.0,-3.51,-2.24,-8.71,-1.5,-11.69,36.06,-3.0,2.44,1.63,0.2486241007112411,-0.22325830547156425,0.1583267370913859,-129.78141812262746,43.01216531236248,15.656031584502133,0.1646,-0.9055,0.3666,0.1362
165,647716.0,615.037272,1.0,-3.51,-2.24,-8.71,-1.5,-11.69,36.06,-3.0,2.44,1.63,0.2486241007112411,-0.22325830547156425,0.1583267370913859,-129.78141812262746,43.01216531236248,15.656031584502133,0.1646,-0.9055,0.3666,0.1362
166,647753.0,615.0775769999999,1.0,-3.55,-1.77,-8.62,-1.88,-12.75,35.75,-9.56,4.19,2.19,-0.10267790192845327,-0.0170750508743237,0.31829051634355565,-130.29697555501406,42.59369907468167,15.737004132862339,0.1611,-0.9074,0.3632,0.1369
167,647753.0,615.0775769999999,1.0,-3.55,-1.77,-8.62,-1.88,-12.75,35.75,-9.56,4.19,2.19,-0.10267790192845327,-0.0170750508743237,0.31829051634355565,-130.29697555501406,42.59369907468167,15.737004132862339,0.1611,-0.9074,0.3632,0.1369
168,647786.0,615.1732030000001,1.0,-3.57,-2.06,-8.74,-1.88,-12.75,35.75,-2.75,0.63,-3.94,0.10697319290266503,-0.2075387407461955,0.14634025304624387,-130.46082634681812,42.48302850521899,15.725436142775802,0.1596,-0.9079999999999999,0.3623,0.1368
169,647786.0,615.1732030000001,1.0,-3.57,-2.06,-8.74,-1.88,-12.75,35.75,-2.75,0.63,-3.94,0.10697319290266503,-0.2075387407461955,0.14634025304624387,-130.46082634681812,42.48302850521899,15.725436142775802,0.1596,-0.9079999999999999,0.3623,0.1368
170,647823.0,615.264507,1.0,-3.65,-1.79,-8.58,-1.88,-12.38,36.06,-4.13,7.56,-2.0,-0.17010744046395646,-0.16238778036044932,0.3151962827084045,-130.92785324394194,42.065313242449655,15.679165793853409,0.1578,-0.9097,0.3589,0.1364
171,647823.0,615.264507,1.0,-3.65,-1.79,-8.58,-1.88,-12.38,36.06,-4.13,7.56,-2.0,-0.17010744046395646,-0.16238778036044932,0.3151962827084045,-130.92785324394194,42.065313242449655,15.679165793853409,0.1578,-0.9097,0.3589,0.1364
172,647858.0,615.325696,1.0,-3.24,-2.06,-9.47,-2.25,-13.06,36.06,-8.88,4.94,-1.37,0.42034101857442097,0.18885621644330208,-0.4016675282518776,-131.48269259246572,41.62366360590611,15.609765091037287,0.1551,-0.9117,0.3553,0.1358
173,647858.0,615.325696,1.0,-3.24,-2.06,-9.47,-2.25,-13.06,36.06,-8.88,4.94,-1.37,0.42034101857442097,0.18885621644330208,-0.4016675282518776,-131.48269259246572,41.62366360590611,15.609765091037287,0.1551,-0.9117,0.3553,0.1358
174,647890.0,615.3426820000001,1.0,-3.52,-1.91,-8.89,-2.25,-13.06,36.06,-3.25,-0.81,-0.37,0.05737669482106445,-0.1185527541251068,0.05712420848681887,-131.56643317341502,41.586888761097505,15.679165793853409,0.1536,-0.912,0.355,0.1364
175,647890.0,615.3426820000001,1.0,-3.52,-1.91,-8.89,-2.25,-13.06,36.06,-3.25,-0.81,-0.37,0.05737669482106445,-0.1185527541251068,0.05712420848681887,-131.56643317341502,41.586888761097505,15.679165793853409,0.1536,-0.912,0.355,0.1364
176,647927.0,615.345652,1.0,-3.3,-1.55,-9.63,-2.25,-12.75,36.88,-4.75,-7.88,5.13,0.1045154657367628,0.5366267617820158,-0.47588413492808,-131.7904095910964,41.341837382049434,15.875832638109523,0.1523,-0.9128,0.353,0.1381
177,647927.0,615.345652,1.0,-3.3,-1.55,-9.63,-2.25,-12.75,36.88,-4.75,-7.88,5.13,0.1045154657367628,0.5366267617820158,-0.47588413492808,-131.7904095910964,41.341837382049434,15.875832638109523,0.1523,-0.9128,0.353,0.1381
178,647964.0,615.382946,1.0,-3.7,-1.6,-8.46,-3.0,-13.06,36.06,6.0,0.37,-1.94,-0.3034159915252286,-0.1347918197601996,0.4412151515045739,-131.84655671079122,41.109221581061185,16.072546557241562,0.1539,-0.9129999999999999,0.3511,0.1398
179,647964.0,615.382946,1.0,-3.7,-1.6,-8.46,-3.0,-13.06,36.06,6.0,0.37,-1.94,-0.3034159915252286,-0.1347918197601996,0.4412151515045739,-131.84655671079122,41.109221581061185,16.072546557241562,0.1539,-0.9129999999999999,0.3511,0.1398
180,647997.0,615.394463,1.0,-3.55,-1.89,-8.97,-3.0,-13.06,36.06,-2.81,-1.94,-1.81,0.07356255348240326,-0.056174972354246185,-0.02324994471999631,-131.87465337051762,41.04803635831072,16.0609738361326,0.1539,-0.9131,0.3506,0.1397
181,647997.0,615.394463,1.0,-3.55,-1.89,-8.97,-3.0,-13.06,36.06,-2.81,-1.94,-1.81,0.07356255348240326,-0.056174972354246185,-0.02324994471999631,-131.87465337051762,41.04803635831072,16.0609738361326,0.1539,-0.9131,0.3506,0.1397
182,648032.0,615.4019049999999,1.0,-3.61,-1.77,-8.88,-1.88,-12.06,35.38,-1.25,1.12,-1.63,-0.06337470477350149,-0.048388117652079184,0.05918662551815501,-132.1847414191665,40.71784682431407,16.10726571114575,0.1531,-0.9142,0.3479,0.1401
183,648032.0,615.4019049999999,1.0,-3.61,-1.77,-8.88,-1.88,-12.06,35.38,-1.25,1.12,-1.63,-0.06337470477350149,-0.048388117652079184,0.05918662551815501,-132.1847414191665,40.71784682431407,16.10726571114575,0.1531,-0.9142,0.3479,0.1401
184,648067.0,615.404484,1.0,-3.41,-1.95,-9.14,-3.0,-12.75,35.75,2.44,2.25,-2.94,0.22305534715478226,0.035104271445249746,-0.13916389340419855,-132.38305943270692,40.53456083395825,16.026256661631813,0.153,-0.9149,0.3464,0.1394
185,648067.0,615.404484,1.0,-3.41,-1.95,-9.14,-3.0,-12.75,35.75,2.44,2.25,-2.94,0.22305534715478226,0.035104271445249746,-0.13916389340419855,-132.38305943270692,40.53456083395825,16.026256661631813,0.153,-0.9149,0.3464,0.1394
186,648101.0,615.450997,1.0,-3.58,-1.72,-8.77,-3.0,-12.75,35.75,1.81,-1.19,-0.81,-0.11948452504240192,-0.02467706656072444,0.1799779638983594,-132.66772802198363,40.19271594298347,16.0609738361326,0.1535,-0.9159,0.3436,0.1397
187,648101.0,615.450997,1.0,-3.58,-1.72,-8.77,-3.0,-12.75,35.75,1.81,-1.19,-0.81,-0.11948452504240192,-0.02467706656072444,0.1799779638983594,-132.66772802198363,40.19271594298347,16.0609738361326,0.1535,-0.9159,0.3436,0.1397
188,648136.0,615.5156360000001,1.0,-3.35,-1.97,-9.17,-1.88,-12.75,35.25,1.75,-2.88,-0.12,0.2622554490177422,0.09600371512061913,-0.14896677477310227,-132.63918862221735,40.19271594298347,16.014684599323402,0.1544,-0.9158,0.3436,0.1393
189,648136.0,615.5156360000001,1.0,-3.35,-1.97,-9.17,-1.88,-12.75,35.25,1.75,-2.88,-0.12,0.2622554490177422,0.09600371512061913,-0.14896677477310227,-132.63918862221735,40.19271594298347,16.014684599323402,0.1544,-0.9158,0.3436,0.1393
190,648171.0,615.520368,1.0,-3.59,-1.88,-8.64,-2.25,-12.75,36.56,1.56,-2.06,0.56,-0.04755749995662695,-0.16190846471106735,0.2649717444071769,-132.75344370342964,39.99754361581977,16.10726571114575,0.155,-0.9162,0.342,0.1401
191,648171.0,615.520368,1.0,-3.59,-1.88,-8.64,-2.25,-12.75,36.56,1.56,-2.06,0.56,-0.04755749995662695,-0.16190846471106735,0.2649717444071769,-132.75344370342964,39.99754361581977,16.10726571114575,0.155,-0.9162,0.342,0.1401
192,648206.0,615.529565,1.0,-3.42,-1.84,-8.92,-2.25,-12.75,36.06,-1.56,1.44,-1.19,0.0903933925936974,0.06446357643576027,0.07854260534770853,-132.95401941873996,39.79030547860814,16.118839093056636,0.1544,-0.9169,0.3403,0.1402
193,648206.0,615.529565,1.0,-3.42,-1.84,-8.92,-2.25,-12.75,36.06,-1.56,1.44,-1.19,0.0903933925936974,0.06446357643576027,0.07854260534770853,-132.95401941873996,39.79030547860814,16.118839093056636,0.1544,-0.9169,0.3403,0.1402
194,648241.0,615.616589,1.0,-3.48,-1.9,-9.02,-2.25,-12.75,36.06,3.0,-3.81,0.31,0.0985656780624623,0.04795689917840385,-0.04569920934744864,-132.86795984370113,39.802492195876724,16.1419863535435,0.1556,-0.9166,0.3404,0.1404
195,648241.0,615.616589,1.0,-3.48,-1.9,-9.02,-2.25,-12.75,36.06,3.0,-3.81,0.31,0.0985656780624623,0.04795689917840385,-0.04569920934744864,-132.86795984370113,39.802492195876724,16.1419863535435,0.1556,-0.9166,0.3404,0.1404
196,648278.0,615.67955,1.0,-3.47,-1.9,-9.08,-2.25,-12.75,35.38,-4.0,2.13,-0.63,0.11588992932387655,0.07376061096383058,-0.09680540185604157,-133.06899702903365,39.58320288872564,16.17670848781425,0.1552,-0.9173,0.3386,0.1407
197,648278.0,615.67955,1.0,-3.47,-1.9,-9.08,-2.25,-12.75,35.38,-4.0,2.13,-0.63,0.11588992932387655,0.07376061096383058,-0.09680540185604157,-133.06899702903365,39.58320288872564,16.17670848781425,0.1552,-0.9173,0.3386,0.1407
198,648312.0,615.737306,1.0,-3.45,-1.72,-8.86,-3.0,-12.75,36.06,2.19,-0.06,0.0,-0.01967684417302762,0.12433665085938415,0.1451463272243938,-133.12658560187518,39.522316021456795,16.188282864682783,0.1547,-0.9175,0.3381,0.1408
199,648312.0,615.737306,1.0,-3.45,-1.72,-8.86,-3.0,-12.75,36.06,2.19,-0.06,0.0,-0.01967684417302762,0.12433665085938415,0.1451463272243938,-133.12658560187518,39.522316021456795,16.188282864682783,0.1547,-0.9175,0.3381,0.1408
200,648347.0,615.794581,1.0,-3.55,-2.06,-8.89,-3.0,-12.75,36.06,2.06,1.06,0.31,0.12611310194569814,-0.1582461986954382,0.01699966783204765,-133.12658560187518,39.53449246452549,16.1419863535435,0.1554,-0.9175,0.3382,0.1404
201,648347.0,615.794581,1.0,-3.55,-2.06,-8.89,-3.0,-12.75,36.06,2.06,1.06,0.31,0.12611310194569814,-0.1582461986954382,0.01699966783204765,-133.12658560187518,39.53449246452549,16.1419863535435,0.1554,-0.9175,0.3382,0.1404
202,648382.0,615.800824,1.0,-3.48,-1.9,-9.01,-2.56,-12.06,36.56,1.12,1.0,0.94,0.08328085350533421,0.043244396677479265,-0.03670787328670677,-133.12658560187518,39.53449246452549,16.10726571114575,0.1555,-0.9175,0.3382,0.1401
203,648382.0,615.800824,1.0,-3.48,-1.9,-9.01,-2.56,-12.06,36.56,1.12,1.0,0.94,0.08328085350533421,0.043244396677479265,-0.03670787328670677,-133.12658560187518,39.53449246452549,16.10726571114575,0.1555,-0.9175,0.3382,0.1401
204,648417.0,615.861617,1.0,-3.41,-1.94,-9.07,-1.88,-12.75,36.56,0.37,1.12,-0.37,0.16542457855745407,0.07213701578785425,-0.073837384727657,-133.3576107786115,39.31538744994931,16.10726571114575,0.1551,-0.9183,0.3364,0.1401
205,648417.0,615.861617,1.0,-3.41,-1.94,-9.07,-1.88,-12.75,36.56,0.37,1.12,-0.37,0.16542457855745407,0.07213701578785425,-0.073837384727657,-133.3576107786115,39.31538744994931,16.10726571114575,0.1551,-0.9183,0.3364,0.1401
206,648452.0,615.879391,1.0,-3.61,-1.97,-8.69,-1.88,-12.75,36.56,2.88,-1.06,-0.88,-0.022361042734530046,-0.20090905205443646,0.19477008311743305,-133.32867360141205,39.303219344350964,16.10726571114575,0.1555,-0.9182,0.3363,0.1401
207,648452.0,615.879391,1.0,-3.61,-1.97,-8.69,-1.88,-12.75,36.56,2.88,-1.06,-0.88,-0.022361042734530046,-0.20090905205443646,0.19477008311743305,-133.32867360141205,39.303219344350964,16.10726571114575,0.1555,-0.9182,0.3363,0.1401
208,648484.0,615.882607,1.0,-3.47,-1.72,-9.06,-3.0,-12.75,35.75,-2.94,-1.44,0.88,-0.030053500305780245,0.20030361521519105,-0.04433346607338074,-133.41553604515124,39.23022039326242,16.10726571114575,0.1554,-0.9185,0.3357,0.1401
209,648484.0,615.882607,1.0,-3.47,-1.72,-9.06,-3.0,-12.75,35.75,-2.94,-1.44,0.88,-0.030053500305780245,0.20030361521519105,-0.04433346607338074,-133.41553604515124,39.23022039326242,16.10726571114575,0.1554,-0.9185,0.3357,0.1401
210,648519.0,615.9211809999999,1.0,-3.48,-1.88,-8.95,-1.06,-12.38,36.56,3.75,0.31,0.31,0.04760983141590003,0.04589969917615122,0.02181854914873149,-133.58972143720712,38.974854277526724,16.1419863535435,0.1556,-0.9191,0.3336,0.1404
211,648519.0,615.9211809999999,1.0,-3.48,-1.88,-8.95,-1.06,-12.38,36.56,3.75,0.31,0.31,0.04760983141590003,0.04589969917615122,0.02181854914873149,-133.58972143720712,38.974854277526724,16.1419863535435,0.1556,-0.9191,0.3336,0.1404
212,648556.0,615.934084,1.0,-3.49,-2.06,-8.74,-3.0,-12.38,35.75,0.31,0.44,-1.0,0.12466074518395888,-0.1643590295683388,0.1749966731817274,-133.61881240543406,38.93838987087892,16.15356023236983,0.1559,-0.9192,0.3333,0.1405
213,648556.0,615.934084,1.0,-3.49,-2.06,-8.74,-3.0,-12.38,35.75,0.31,0.44,-1.0,0.12466074518395888,-0.1643590295683388,0.1749966731817274,-133.61881240543406,38.93838987087892,16.15356023236983,0.1559,-0.9192,0.3333,0.1405
214,648591.0,615.9473,1.0,-3.48,-1.75,-8.94,-3.0,-12.38,35.75,0.37,1.63,0.5,-0.04930651187856583,0.13990004260146804,0.056034796538911635,-133.61881240543406,38.950544217121674,16.095692494623034,0.1559,-0.9192,0.3334,0.14
215,648591.0,615.9473,1.0,-3.48,-1.75,-8.94,-3.0,-12.38,35.75,0.37,1.63,0.5,-0.04930651187856583,0.13990004260146804,0.056034796538911635,-133.61881240543406,38.950544217121674,16.095692494623034,0.1559,-0.9192,0.3334,0.14
216,648628.0,615.99716,1.0,-3.44,-2.12,-9.07,-1.06,-13.5,36.88,1.81,-1.31,-0.25,0.22572633660280414,-0.05018244834475527,-0.12005284348443368,-133.91067619883825,38.61039417078352,16.072546557241562,0.1562,-0.9202,0.3306,0.1398
217,648628.0,615.99716,1.0,-3.44,-2.12,-9.07,-1.06,-13.5,36.88,1.81,-1.31,-0.25,0.22572633660280414,-0.05018244834475527,-0.12005284348443368,-133.91067619883825,38.61039417078352,16.072546557241562,0.1562,-0.9202,0.3306,0.1398
218,648663.0,616.006291,1.0,-3.51,-1.74,-8.8,-2.56,-12.38,37.25,-1.63,-2.25,0.56,-0.10596087477892058,0.0967621971444963,0.17508162458886467,-133.91067619883825,38.57397055139104,16.15356023236983,0.1565,-0.9202,0.3303,0.1405
219,648663.0,616.006291,1.0,-3.51,-1.74,-8.8,-2.56,-12.38,37.25,-1.63,-2.25,0.56,-0.10596087477892058,0.0967621971444963,0.17508162458886467,-133.91067619883825,38.57397055139104,16.15356023236983,0.1565,-0.9202,0.3303,0.1405
220,648697.0,616.058739,1.0,-3.56,-2.29,-8.59,-2.56,-12.38,37.25,3.56,0.63,-1.37,0.16917389261359178,-0.39853102970778653,0.24012747546591665,-133.88141126071122,38.549690389311564,16.10726571114575,0.1575,-0.9201,0.3301,0.1401
221,648697.0,616.058739,1.0,-3.56,-2.29,-8.59,-2.56,-12.38,37.25,3.56,0.63,-1.37,0.16917389261359178,-0.39853102970778653,0.24012747546591665,-133.88141126071122,38.549690389311564,16.10726571114575,0.1575,-0.9201,0.3301,0.1401
222,648730.0,616.138687,1.0,-3.51,-1.96,-9.08,-1.88,-12.75,34.5,-3.44,1.88,1.19,0.06522508493383382,0.04421130583085764,-0.12319849072391698,-134.1160248878201,38.343381493661,16.10726571114575,0.1566,-0.9209,0.3284,0.1401
223,648730.0,616.138687,1.0,-3.51,-1.96,-9.08,-1.88,-12.75,34.5,-3.44,1.88,1.19,0.06522508493383382,0.04421130583085764,-0.12319849072391698,-134.1160248878201,38.343381493661,16.10726571114575,0.1566,-0.9209,0.3284,0.1401
224,648767.0,616.15022,1.0,-3.56,-2.0,-8.75,-1.88,-12.38,35.38,3.19,0.31,-0.19,-0.0020543656497932767,-0.1333999456803352,0.1516875332643437,-134.1748557862076,38.23421144458892,16.10726571114575,0.1568,-0.9211,0.3275,0.1401
225,648767.0,616.15022,1.0,-3.56,-2.0,-8.75,-1.88,-12.38,35.38,3.19,0.31,-0.19,-0.0020543656497932767,-0.1333999456803352,0.1516875332643437,-134.1748557862076,38.23421144458892,16.10726571114575,0.1568,-0.9211,0.3275,0.1401
226,648802.0,616.153361,1.0,-3.47,-2.04,-9.1,-1.88,-12.38,35.38,0.5,2.25,-1.06,0.12960561699713402,0.01802859182114136,-0.14299207164859418,-134.3222466489682,38.10083031138289,16.03782888845279,0.1568,-0.9216,0.3264,0.1395
227,648802.0,616.153361,1.0,-3.47,-2.04,-9.1,-1.88,-12.38,35.38,0.5,2.25,-1.06,0.12960561699713402,0.01802859182114136,-0.14299207164859418,-134.3222466489682,38.10083031138289,16.03782888845279,0.1568,-0.9216,0.3264,0.1395
228,648837.0,616.194694,1.0,-3.45,-1.84,-9.13,-1.5,-12.06,36.19,-0.31,0.63,-0.56,0.016676359584637812,0.18310204953507647,-0.12366699083604438,-134.38132917213414,38.07658496090942,16.014684599323402,0.1566,-0.9218,0.3262,0.1393
229,648837.0,616.194694,1.0,-3.45,-1.84,-9.13,-1.5,-12.06,36.19,-0.31,0.63,-0.56,0.016676359584637812,0.18310204953507647,-0.12366699083604438,-134.38132917213414,38.07658496090942,16.014684599323402,0.1566,-0.9218,0.3262,0.1393
230,648871.0,616.300212,1.0,-3.43,-2.16,-9.1,-1.5,-12.38,34.88,2.69,-1.81,-1.19,0.22903972621762134,-0.03665285726426082,-0.15260184799885046,-134.52935339042858,37.83422856646789,16.0609738361326,0.1572,-0.9223,0.3242,0.1397
231,648871.0,616.300212,1.0,-3.43,-2.16,-9.1,-1.5,-12.38,34.88,2.69,-1.81,-1.19,0.22903972621762134,-0.03665285726426082,-0.15260184799885046,-134.52935339042858,37.83422856646789,16.0609738361326,0.1572,-0.9223,0.3242,0.1397
232,648906.0,616.353563,1.0,-3.7,-1.87,-8.55,-2.25,-12.06,35.75,-1.5,-4.06,2.13,-0.2258248591389146,-0.16758855324300193,0.3087387975399114,-134.47008902668762,37.83422856646789,16.19985740781584,0.1575,-0.9221,0.3242,0.1409
233,648906.0,616.353563,1.0,-3.7,-1.87,-8.55,-2.25,-12.06,35.75,-1.5,-4.06,2.13,-0.2258248591389146,-0.16758855324300193,0.3087387975399114,-134.47008902668762,37.83422856646789,16.19985740781584,0.1575,-0.9221,0.3242,0.1409
234,648941.0,616.3709190000001,1.0,-3.54,-1.96,-8.79,-2.25,-12.06,35.75,0.19,2.13,-1.25,-0.01578381377813853,-0.057434587265827286,0.13019651024414713,-134.49971207203987,37.81000260574194,16.16513427708501,0.1574,-0.9222,0.324,0.1406
235,648941.0,616.3709190000001,1.0,-3.54,-1.96,-8.79,-2.25,-12.06,35.75,0.19,2.13,-1.25,-0.01578381377813853,-0.057434587265827286,0.13019651024414713,-134.49971207203987,37.81000260574194,16.16513427708501,0.1574,-0.9222,0.324,0.1406
236,648978.0,616.373966,1.0,-3.44,-2.02,-9.08,-2.25,-12.06,36.56,-0.37,2.19,-1.25,0.13408558665276327,0.05734434982463533,-0.10995893052635886,-134.5590130176977,37.77366695276425,16.10726571114575,0.1572,-0.9224,0.3237,0.1401
237,648978.0,616.373966,1.0,-3.44,-2.02,-9.08,-2.25,-12.06,36.56,-0.37,2.19,-1.25,0.13408558665276327,0.05734434982463533,-0.10995893052635886,-134.5590130176977,37.77366695276425,16.10726571114575,0.1572,-0.9224,0.3237,0.1401
238,649013.0,616.411075,1.0,-3.44,-2.16,-8.8,-1.88,-12.75,35.38,2.06,-0.75,0.37,0.17031121241299324,-0.14329106345567122,0.11698221611493055,-134.6778353365212,37.640469908070976,16.095692494623034,0.1577,-0.9228,0.3226,0.14
239,649013.0,616.411075,1.0,-3.44,-2.16,-8.8,-1.88,-12.75,35.38,2.06,-0.75,0.37,0.17031121241299324,-0.14329106345567122,0.11698221611493055,-134.6778353365212,37.640469908070976,16.095692494623034,0.1577,-0.9228,0.3226,0.14
240,649046.0,616.414932,1.0,-3.57,-1.92,-8.87,-1.88,-12.75,35.38,-2.69,2.19,0.75,-0.06421218231974041,-0.01876167031721021,0.05453613707937599,-134.64810211296725,37.664683622171815,16.10726571114575,0.1572,-0.9227,0.3228,0.1401
241,649046.0,616.414932,1.0,-3.57,-1.92,-8.87,-1.88,-12.75,35.38,-2.69,2.19,0.75,-0.06421218231974041,-0.01876167031721021,0.05453613707937599,-134.64810211296725,37.664683622171815,16.10726571114575,0.1572,-0.9227,0.3228,0.1401
242,649080.0,616.433799,1.0,-3.45,-2.1,-9.15,-1.88,-11.69,36.06,0.25,2.56,-0.37,0.17316661545627401,0.0034615675156071113,-0.1936000639154916,-134.73735728971755,37.65257654707046,16.014684599323402,0.1566,-0.9229999999999999,0.3227,0.1393
243,649080.0,616.433799,1.0,-3.45,-2.1,-9.15,-1.88,-11.69,36.06,0.25,2.56,-0.37,0.17316661545627401,0.0034615675156071113,-0.1936000639154916,-134.73735728971755,37.65257654707046,16.014684599323402,0.1566,-0.9229999999999999,0.3227,0.1393
244,649117.0,616.472165,1.0,-3.46,-1.72,-9.12,-2.25,-12.38,34.88,1.25,-1.56,2.44,-0.07480626348804886,0.2655275676162953,-0.0942741555411768,-134.73735728971755,37.640469908070976,16.049401279911372,0.1563,-0.9229999999999999,0.3226,0.1396
245,649117.0,616.472165,1.0,-3.46,-1.72,-9.12,-2.25,-12.38,34.88,1.25,-1.56,2.44,-0.07480626348804886,0.2655275676162953,-0.0942741555411768,-134.73735728971755,37.640469908070976,16.049401279911372,0.1563,-0.9229999999999999,0.3226,0.1396
246,649150.0,616.4883219999999,1.0,-3.59,-2.15,-8.71,-2.25,-12.38,34.88,4.44,-1.75,-0.37,0.04037330025383496,-0.2602220855177366,0.14718032186365448,-134.64810211296725,37.664683622171815,16.095692494623034,0.1573,-0.9227,0.3228,0.14
247,649150.0,616.4883219999999,1.0,-3.59,-2.15,-8.71,-2.25,-12.38,34.88,4.44,-1.75,-0.37,0.04037330025383496,-0.2602220855177366,0.14718032186365448,-134.64810211296725,37.664683622171815,16.095692494623034,0.1573,-0.9227,0.3228,0.14
248,649185.0,616.536815,1.0,-3.47,-2.02,-9.06,-2.25,-11.0,36.88,-1.69,1.63,0.81,0.09865182822967,0.02126649930668134,-0.10267467692901457,-134.7075870499225,37.676791133557344,16.049401279911372,0.1567,-0.9229,0.3229,0.1396
249,649185.0,616.536815,1.0,-3.47,-2.02,-9.06,-2.25,-11.0,36.88,-1.69,1.63,0.81,0.09865182822967,0.02126649930668134,-0.10267467692901457,-134.7075870499225,37.676791133557344,16.049401279911372,0.1567,-0.9229,0.3229,0.1396
250,649222.0,616.546279,1.0,-3.51,-2.09,-8.87,-2.25,-12.38,35.38,7.5,-2.0,-0.06,0.07442456284432553,-0.09692286087340474,0.0419089925034104,-134.64810211296725,37.664683622171815,16.049401279911372,0.1582,-0.9227,0.3228,0.1396
251,649222.0,616.546279,1.0,-3.51,-2.09,-8.87,-2.25,-12.38,35.38,7.5,-2.0,-0.06,0.07442456284432553,-0.09692286087340474,0.0419089925034104,-134.64810211296725,37.664683622171815,16.049401279911372,0.1582,-0.9227,0.3228,0.1396
