acc_x,acc_y,acc_z,lin_x,lin_y,lin_z,eul_x,eul_y,eul_z
5.93,3.02,-7.43,0.1192524915317448,-0.1189755911225123,-0.1664048806261231,-131.93089302515688,-23.71754026504909,-39.656282501806686
5.93,3.02,-7.43,0.1192524915317448,-0.1189755911225123,-0.1664048806261231,-131.93089302515688,-23.71754026504909,-39.656282501806686
5.84,3.0,-7.42,0.0636269311383314,-0.0940669892511929,-0.1003729138307303,-132.01536875371886,-23.55363796786013,-39.60756089465345
5.84,3.0,-7.42,0.0636269311383314,-0.0940669892511929,-0.1003729138307303,-132.01536875371886,-23.55363796786013,-39.60756089465345
5.96,2.81,-7.24,0.2114810332956063,-0.2878904212547919,0.0236190341946667,-132.15647345628565,-23.37808257553645,-39.5953816587114
5.96,2.81,-7.24,0.2114810332956063,-0.2878904212547919,0.0236190341946667,-132.15647345628565,-23.37808257553645,-39.5953816587114
6.19,2.82,-7.1,0.450861644920135,-0.3244736977830871,-0.0101692708527991,-132.32631788342704,-22.898513619526447,-39.70501157955701
6.19,2.82,-7.1,0.450861644920135,-0.3244736977830871,-0.0101692708527991,-132.32631788342704,-22.898513619526447,-39.70501157955701
6.74,2.48,-7.07,0.7595930376555057,-0.8118692942726697,-0.2096760063838996,-132.63918862221735,-22.39598723123728,-39.69282860908111
6.74,2.48,-7.07,0.7595930376555057,-0.8118692942726697,-0.2096760063838996,-132.63918862221735,-22.39598723123728,-39.69282860908111
6.75,1.77,-6.59,0.9124969970795458,-1.3577379597844146,0.3489866065987908,-133.27085000109963,-21.392231414012297,-39.5953816587114
6.75,1.77,-6.59,0.9124969970795458,-1.3577379597844146,0.3489866065987908,-133.27085000109963,-21.392231414012297,-39.5953816587114
7.8,3.7,-5.86,2.609879742315848,0.0351261348942861,-0.2956712127360514,-133.41553604515124,-20.506574164810864,-39.79030547860814
7.8,3.7,-5.86,2.609879742315848,0.0351261348942861,-0.2956712127360514,-133.41553604515124,-20.506574164810864,-39.79030547860814
7.17,3.95,-6.62,1.7219740130837569,0.5160347897936719,-0.5665999051158899,-133.706188934986,-19.85477908376032,-39.76593345094053
7.17,3.95,-6.62,1.7219740130837569,0.5160347897936719,-0.5665999051158899,-133.706188934986,-19.85477908376032,-39.76593345094053
5.54,2.05,-6.22,0.381663663060549,-0.528501628833891,1.2534331269972387,-133.99857662596108,-19.66867198617123,-39.63192076517069
5.54,2.05,-6.22,0.381663663060549,-0.528501628833891,1.2534331269972387,-133.99857662596108,-19.66867198617123,-39.63192076517069
4.0,3.64,-5.12,0.3172340979752366,1.4552710618502098,2.509695247253948,-133.32867360141205,-19.69193249784897,-40.05852194281655
4.0,3.64,-5.12,0.3172340979752366,1.4552710618502098,2.509695247253948,-133.32867360141205,-19.69193249784897,-40.05852194281655
3.96,2.21,-5.54,-0.509484822555731,0.1781980561724496,2.667604498788952,-131.9590360744759,-20.00603003933895,-41.55011839728967
3.96,2.21,-5.54,-0.509484822555731,0.1781980561724496,2.667604498788952,-131.9590360744759,-20.00603003933895,-41.55011839728967
3.87,1.88,-5.47,-1.0213572200547048,-0.0355500511821456,2.9227727768863385,-128.6854111372357,-20.21551264575777,-45.051672965046905
3.87,1.88,-5.47,-1.0213572200547048,-0.0355500511821456,2.9227727768863385,-128.6854111372357,-20.21551264575777,-45.051672965046905
1.76,0.16,-1.33,0.0167014146425148,-0.622521829049575,7.684319291767725,-123.84213593724544,-20.751169149926103,-49.84601386938241
1.76,0.16,-1.33,0.0167014146425148,-0.622521829049575,7.684319291767725,-123.84213593724544,-20.751169149926103,-49.84601386938241
6.63,2.24,-2.22,1.0259711240381646,-0.8020153821501868,2.5812050601063774,-111.91038320685794,-19.6570420373131,-62.34280299111539
6.63,2.24,-2.22,1.0259711240381646,-0.8020153821501868,2.5812050601063774,-111.91038320685794,-19.6570420373131,-62.34280299111539
8.16,1.8,-2.34,-0.045575188090612,-1.8131795947949787,1.3206908521340583,-102.30167093062992,-18.36735912324753,-72.32820965004784
8.16,1.8,-2.34,-0.045575188090612,-1.8131795947949787,1.3206908521340583,-102.30167093062992,-18.36735912324753,-72.32820965004784
8.31,3.28,1.22,1.636597980520505,-0.7835425371869222,0.9742942472817636,-89.93409723395683,-16.327188391573927,-83.53353964844825
8.31,3.28,1.22,1.636597980520505,-0.7835425371869222,0.9742942472817636,-89.93409723395683,-16.327188391573927,-83.53353964844825
11.19,5.57,-0.07,-1.9423508527339937,-0.5619325420380825,-2.528559969152621,-79.58363899911447,-13.195714475135588,-92.754835123964
11.19,5.57,-0.07,-1.9423508527339937,-0.5619325420380825,-2.528559969152621,-79.58363899911447,-13.195714475135588,-92.754835123964
8.61,1.45,-1.81,-3.199044823234048,-3.492197130413333,2.2514285326125405,-75.00557127858174,-13.253393932396618,-95.88962981558169
8.61,1.45,-1.81,-3.199044823234048,-3.492197130413333,2.2514285326125405,-75.00557127858174,-13.253393932396618,-95.88962981558169
4.36,-0.63,1.1,0.8271836831336409,-2.7741251885463054,6.308579590098221,-73.26783271865594,-11.835420883076136,-94.22644947426409
4.36,-0.63,1.1,0.8271836831336409,-2.7741251885463054,6.308579590098221,-73.26783271865594,-11.835420883076136,-94.22644947426409
5.26,1.99,5.11,3.2824955713620474,0.0404141718254523,2.953666013538029,-71.18267056189946,-7.086273935339353,-94.15911861877714
5.26,1.99,5.11,3.2824955713620474,0.0404141718254523,2.953666013538029,-71.18267056189946,-7.086273935339353,-94.15911861877714
6.01,4.76,4.9,0.500875682569796,1.9329946846293613,0.9296935902948746,-65.55798771264952,0.3323159869732291,-96.33537777908649
6.01,4.76,4.9,0.500875682569796,1.9329946846293613,0.9296935902948746,-65.55798771264952,0.3323159869732291,-96.33537777908649
5.21,5.21,7.25,1.2236363076954708,3.9047506860290624,0.3142142606101892,-62.14201779296097,4.906017344265486,-96.06084314103792
5.21,5.21,7.25,1.2236363076954708,3.9047506860290624,0.3142142606101892,-62.14201779296097,4.906017344265486,-96.06084314103792
6.14,6.07,9.82,0.8397178227304034,5.501360992559049,-2.025796966191677,-57.97253764637914,10.776022876638455,-94.8512940516321
6.14,6.07,9.82,0.8397178227304034,5.501360992559049,-2.025796966191677,-57.97253764637914,10.776022876638455,-94.8512940516321
6.86,6.21,9.82,-0.508015037398351,4.864995467583118,-2.768318780166928,-53.667084063629616,13.461068017168213,-94.80049313653744
6.86,6.21,9.82,-0.508015037398351,4.864995467583118,-2.768318780166928,-53.667084063629616,13.461068017168213,-94.80049313653744
7.34,5.5,8.8,-1.531590387463562,2.5816387257945643,-2.5446646010660388,-47.66948159847917,13.703410648771609,-95.1226475867278
7.34,5.5,8.8,-1.531590387463562,2.5816387257945643,-2.5446646010660388,-47.66948159847917,13.703410648771609,-95.1226475867278
7.08,1.52,9.21,1.7683844025971922,0.63305855031959,-1.7576464972590635,-43.66568603094216,12.549930441445206,-95.30961142661364
7.08,1.52,9.21,1.7683844025971922,0.63305855031959,-1.7576464972590635,-43.66568603094216,12.549930441445206,-95.30961142661364
6.16,2.43,10.46,0.9771549269041392,1.9149569631099088,-2.3851590568325403,-39.98534936807032,13.091899903813276,-94.98688318439542
6.16,2.43,10.46,0.9771549269041392,1.9149569631099088,-2.3851590568325403,-39.98534936807032,13.091899903813276,-94.98688318439542
6.88,1.43,10.13,1.0484519598218478,0.0759647348813756,-2.4771270187756222,-35.02333444123644,12.630631138714769,-95.08869000700686
6.88,1.43,10.13,1.0484519598218478,0.0759647348813756,-2.4771270187756222,-35.02333444123644,12.630631138714769,-95.08869000700686
6.74,0.56,9.11,1.1739495511690723,-1.0200848804433085,-1.4323254554408074,-31.495183998739208,12.7228682118641,-94.36123915025333
6.74,0.56,9.11,1.1739495511690723,-1.0200848804433085,-1.4323254554408074,-31.495183998739208,12.7228682118641,-94.36123915025333
6.22,1.23,10.37,0.147855918697038,-0.1915390226828564,-2.345701683114505,-26.97108530932781,14.627194705880914,-92.15850909816106
6.22,1.23,10.37,0.147855918697038,-0.1915390226828564,-2.345701683114505,-26.97108530932781,14.627194705880914,-92.15850909816106
5.8,2.03,10.09,-1.2346633653462729,-0.0712742528338192,-1.9423723574199887,-23.95177191669858,16.454539675361616,-90.6163781125308
5.8,2.03,10.09,-1.2346633653462729,-0.0712742528338192,-1.9423723574199887,-23.95177191669858,16.454539675361616,-90.6163781125308
6.11,1.83,9.15,-1.768031726554261,-1.1315156317192907,-1.147674999244476,-20.157316215575328,18.36735912324753,-89.22365166336527
6.11,1.83,9.15,-1.768031726554261,-1.1315156317192907,-1.147674999244476,-20.157316215575328,18.36735912324753,-89.22365166336527
4.83,1.05,10.74,-1.370931084899574,0.5882645789250238,-1.921670116096692,-18.03080801097451,19.92458285893285,-88.27776872555569
4.83,1.05,10.74,-1.370931084899574,0.5882645789250238,-1.921670116096692,-18.03080801097451,19.92458285893285,-88.27776872555569
5.06,3.18,10.19,-4.2491007933139375,0.1200883980642897,-1.2152745699156018,-15.205041610922963,22.88682192770989,-87.79970924377666
5.06,3.18,10.19,-4.2491007933139375,0.1200883980642897,-1.2152745699156018,-15.205041610922963,22.88682192770989,-87.79970924377666
4.79,1.29,8.71,-2.4030286776647087,-0.4095744693615866,0.0839959421633143,-14.08435967436596,23.10900551875196,-88.32568102255905
4.79,1.29,8.71,-2.4030286776647087,-0.4095744693615866,0.0839959421633143,-14.08435967436596,23.10900551875196,-88.32568102255905
4.46,-1.07,9.43,-0.0576852628634433,0.0563676393134271,-0.6792879694754355,-14.292215737283833,21.95225731085252,-91.28639832349864
4.46,-1.07,9.43,-0.0576852628634433,0.0563676393134271,-0.6792879694754355,-14.292215737283833,21.95225731085252,-91.28639832349864
5.53,1.46,9.44,-2.952883305263424,-0.5825831400996012,-0.8125390966480222,-14.061267443693245,22.431032941974188,-94.74971670141692
5.53,1.46,9.44,-2.952883305263424,-0.5825831400996012,-0.8125390966480222,-14.061267443693245,22.431032941974188,-94.74971670141692
5.6,0.63,9.0,-2.1124960692250747,-0.7287669492577015,-0.5742535777806115,-15.517239777173634,21.28728450329616,-100.20622564478924
5.6,0.63,9.0,-2.1124960692250747,-0.7287669492577015,-0.5742535777806115,-15.517239777173634,21.28728450329616,-100.20622564478924
5.38,-2.0,9.37,0.8874120515889224,-1.0895361541208004,-1.0913640768654904,-18.320928845487863,18.51827857520288,-105.00878353257924
5.38,-2.0,9.37,0.8874120515889224,-1.0895361541208004,-1.0913640768654904,-18.320928845487863,18.51827857520288,-105.00878353257924
4.77,-0.53,8.52,-0.2253415847955592,-0.3676866885745186,0.0374009157967059,-19.66867198617123,18.30932175034793,-105.746078748701
4.77,-0.53,8.52,-0.2253415847955592,-0.3676866885745186,0.0374009157967059,-19.66867198617123,18.30932175034793,-105.746078748701
4.0,-1.71,9.35,1.6666860430118815,0.3498016848555505,-0.3642101610336557,-22.30254236550936,17.253853117357277,-105.93613916476912
4.0,-1.71,9.35,1.6666860430118815,0.3498016848555505,-0.3642101610336557,-22.30254236550936,17.253853117357277,-105.93613916476912
4.59,-0.61,9.15,0.6795150750119636,0.2528359820973309,-0.4225744685991923,-23.89320452199912,16.767216307875252,-105.93613916476912
4.59,-0.61,9.15,0.6795150750119636,0.2528359820973309,-0.4225744685991923,-23.89320452199912,16.767216307875252,-105.93613916476912
4.48,-0.26,8.93,0.6495302407984189,0.5330983319708521,-0.152105777442193,-25.82937687407415,16.581911426258042,-105.1029620001446
4.48,-0.26,8.93,0.6495302407984189,0.5330983319708521,-0.152105777442193,-25.82937687407415,16.581911426258042,-105.1029620001446
3.97,-1.51,8.75,2.236391224758615,0.448046780782928,0.3514234891197478,-27.560654449020664,15.760140597334962,-104.74561874233255
3.97,-1.51,8.75,2.236391224758615,0.448046780782928,0.3514234891197478,-27.560654449020664,15.760140597334962,-104.74561874233255
3.53,-0.98,8.86,2.1733480851331413,1.1619054206744042,0.5412609690820016,-29.381288812129693,15.39003407585724,-104.10974226118626
3.53,-0.98,8.86,2.1733480851331413,1.1619054206744042,0.5412609690820016,-29.381288812129693,15.39003407585724,-104.10974226118626
3.34,-0.47,9.01,1.9525026160211327,1.6358039428996871,0.5293400992354211,-30.425034873037013,15.147239662385427,-103.84922334055192
3.34,-0.47,9.01,1.9525026160211327,1.6358039428996871,0.5293400992354211,-30.425034873037013,15.147239662385427,-103.84922334055192
3.74,-0.89,8.53,2.297471900103336,0.8954434863107772,0.7811082527662521,-31.47137263789784,14.292215737283833,-104.01661275346248
3.74,-0.89,8.53,2.297471900103336,0.8954434863107772,0.7811082527662521,-31.47137263789784,14.292215737283833,-104.01661275346248
3.59,-0.4,8.88,2.023371381385657,1.3360293226406768,0.5317648846989069,-31.542810907574808,13.991994191085649,-104.29629314706914
3.59,-0.4,8.88,2.023371381385657,1.3360293226406768,0.5317648846989069,-31.542810907574808,13.991994191085649,-104.29629314706914
4.0,-0.2,8.49,1.698125905338672,0.8530916836981164,0.6137884765774437,-31.888273849894752,13.39183842112712,-104.61433000481748
4.0,-0.2,8.49,1.698125905338672,0.8530916836981164,0.6137884765774437,-31.888273849894752,13.39183842112712,-104.61433000481748
3.96,-1.24,8.37,2.70087916057974,0.3225158232088558,0.8692378855383449,-32.23403459047365,12.653689634339962,-105.15951761656832
3.96,-1.24,8.37,2.70087916057974,0.3225158232088558,0.8692378855383449,-32.23403459047365,12.653689634339962,-105.15951761656832
4.22,-0.26,8.42,1.7180557201149853,0.4968716959250856,0.5560390439404639,-32.007467853657644,12.423127669242316,-106.18384425288782
4.22,-0.26,8.42,1.7180557201149853,0.4968716959250856,0.5560390439404639,-32.007467853657644,12.423127669242316,-106.18384425288782
4.43,-0.34,8.4,1.6901356300879136,0.2296116692830364,0.4583228751483919,-31.757201337874307,12.158043754647911,-106.79664141842296
4.43,-0.34,8.4,1.6901356300879136,0.2296116692830364,0.4583228751483919,-31.757201337874307,12.158043754647911,-106.79664141842296
4.64,-0.27,8.17,1.4352542599467963,-0.1304714823043076,0.5182474246585382,-31.24523405697452,11.581997645669874,-107.7630780368658
4.64,-0.27,8.17,1.4352542599467963,-0.1304714823043076,0.5182474246585382,-31.24523405697452,11.581997645669874,-107.7630780368658
4.84,0.09,8.33,1.0307916305327365,-0.1424835907005196,0.2285621406825271,-30.710138215163173,11.248026360967865,-108.6425203865957
4.84,0.09,8.33,1.0307916305327365,-0.1424835907005196,0.2285621406825271,-30.710138215163173,11.248026360967865,-108.6425203865957
4.94,0.54,8.38,0.5080696164528481,-0.0951020099102167,0.0777024272895534,-29.879123753551497,11.029269725697889,-109.23407202946328
4.94,0.54,8.38,0.5080696164528481,-0.0951020099102167,0.0777024272895534,-29.879123753551497,11.029269725697889,-109.23407202946328
5.13,0.1,8.32,0.7739893116871402,-0.5680265066462998,0.0789788278673171,-29.404982305122267,10.67243717618693,-109.43221295455638
5.13,0.1,8.32,0.7739893116871402,-0.5680265066462998,0.0789788278673171,-29.404982305122267,10.67243717618693,-109.43221295455638
5.21,0.48,8.31,0.2836150962652703,-0.5252017081873624,0.0048988481451672,-28.588291341239625,10.72998370230972,-109.81002132963994
5.21,0.48,8.31,0.2836150962652703,-0.5252017081873624,0.0048988481451672,-28.588291341239625,10.72998370230972,-109.81002132963994
5.13,0.74,8.45,0.0743524129086016,-0.3284629370814258,-0.1005990539835774,-28.18641141984425,10.718474180434589,-109.8498937322769
5.13,0.74,8.45,0.0743524129086016,-0.3284629370814258,-0.1005990539835774,-28.18641141984425,10.718474180434589,-109.8498937322769
5.17,0.66,8.34,0.0468869877907204,-0.4651472837515973,-0.016869716211417,-27.77308072525798,10.925662281710132,-109.43221295455638
5.17,0.66,8.34,0.0468869877907204,-0.4651472837515973,-0.016869716211417,-27.77308072525798,10.925662281710132,-109.43221295455638
4.95,1.14,8.35,-0.3522594672032751,-0.0476414175344492,0.0394475569715453,-27.560654449020664,11.271055753655435,-109.27366158489086
4.95,1.14,8.35,-0.3522594672032751,-0.0476414175344492,0.0394475569715453,-27.560654449020664,11.271055753655435,-109.27366158489086
4.73,1.34,8.69,-0.4009438632465261,0.3981752211882159,-0.1615645097182109,-27.44268161964677,11.789339646395064,-108.68182460772248
4.73,1.34,8.69,-0.4009438632465261,0.3981752211882159,-0.1615645097182109,-27.44268161964677,11.789339646395064,-108.68182460772248
4.69,1.04,8.63,-0.122487158934117,0.2771632580140862,-0.0656738107500949,-27.466273808985672,11.881504040605064,-108.17232459490296
4.69,1.04,8.63,-0.122487158934117,0.2771632580140862,-0.0656738107500949,-27.466273808985672,11.881504040605064,-108.17232459490296
4.66,1.5,8.5,-0.5660244290295497,0.4646860197766536,0.0250712292306349,-27.50166431915293,12.146519858742266,-107.627107150319
4.66,1.5,8.5,-0.5660244290295497,0.4646860197766536,0.0250712292306349,-27.50166431915293,12.146519858742266,-107.627107150319
4.33,1.33,8.81,-0.1819569814327828,0.8271890216965914,-0.0633322684386072,-27.796689641349,12.238714488577818,-107.31714138517356
4.33,1.33,8.81,-0.1819569814327828,0.8271890216965914,-0.0633322684386072,-27.796689641349,12.238714488577818,-107.31714138517356
4.26,1.33,8.77,-0.1075861653721739,0.8797249611130262,0.006450552549186,-28.139154785319608,12.146519858742266,-106.96978646170278
4.26,1.33,8.77,-0.1075861653721739,0.8797249611130262,0.006450552549186,-28.139154785319608,12.146519858742266,-106.96978646170278
4.18,1.4,9.09,0.0494564549493539,1.0324079680609717,-0.2428369444438853,-28.399126966206964,11.455307417011952,-106.83508762590432
4.18,1.4,9.09,0.0494564549493539,1.0324079680609717,-0.2428369444438853,-28.399126966206964,11.455307417011952,-106.83508762590432
4.68,1.02,8.61,0.2394939018212777,0.1706355341235681,-0.0416202128589464,-28.76570522000204,10.51132121524803,-106.77742482625295
4.68,1.02,8.61,0.2394939018212777,0.1706355341235681,-0.0416202128589464,-28.76570522000204,10.51132121524803,-106.77742482625295
4.65,0.26,8.36,0.9956789561362608,-0.3020183639968801,0.2936531891040754,-29.227312357898,9.62554711472919,-106.77742482625295
4.65,0.26,8.36,0.9956789561362608,-0.3020183639968801,0.2936531891040754,-29.227312357898,9.62554711472919,-106.77742482625295
4.28,0.47,8.32,1.030039392980124,0.0704929553843645,0.4955947648426911,-29.89098396291072,9.17713147157167,-106.6622162163593
4.28,0.47,8.32,1.030039392980124,0.0704929553843645,0.4955947648426911,-29.89098396291072,9.17713147157167,-106.6622162163593
4.16,0.55,8.31,1.0616684528009035,0.2002668485849377,0.5601937444561926,-30.318170931025325,8.889760035755181,-106.85431724818577
4.16,0.55,8.31,1.0616684528009035,0.2002668485849377,0.5601937444561926,-30.318170931025325,8.889760035755181,-106.85431724818577
4.26,0.39,8.42,1.2200670000939229,0.0545691263868789,0.4415787922767382,-30.28255562108873,8.602444609340731,-107.20119776385688
4.26,0.39,8.42,1.2200670000939229,0.0545691263868789,0.4415787922767382,-30.28255562108873,8.602444609340731,-107.20119776385688
4.28,0.63,8.43,0.9219524066698752,0.1340548213888598,0.3773216535747874,-29.83168618976498,8.797813093528106,-107.47198140386222
4.28,0.63,8.43,0.9219524066698752,0.1340548213888598,0.3773216535747874,-29.83168618976498,8.797813093528106,-107.47198140386222
4.12,0.61,8.4,0.9643214252390636,0.2409960832387521,0.4836405568701405,-29.772396589189743,8.797813093528106,-107.72420666963671
4.12,0.61,8.4,0.9643214252390636,0.2409960832387521,0.4836405568701405,-29.772396589189743,8.797813093528106,-107.72420666963671
4.49,0.7,8.51,0.7190228514058319,-0.0029851571492027,0.1861927744834784,-29.310216034057568,8.855279263547427,-108.32875958573808
4.49,0.7,8.51,0.7190228514058319,-0.0029851571492027,0.1861927744834784,-29.310216034057568,8.855279263547427,-108.32875958573808
4.42,0.59,8.55,0.8301640946633599,0.0050766148621093,0.1994755036190092,-29.1444243172648,8.855279263547427,-108.36791454974384
4.42,0.59,8.55,0.8301640946633599,0.0050766148621093,0.1994755036190092,-29.1444243172648,8.855279263547427,-108.36791454974384
4.66,0.86,8.29,0.3264714473001013,-0.1757909774415943,0.2650665922867965,-28.63559484770936,9.119652615329128,-108.74081619599784
4.66,0.86,8.29,0.3264714473001013,-0.1757909774415943,0.2650665922867965,-28.63559484770936,9.119652615329128,-108.74081619599784
4.43,0.89,8.6,0.4478760524979138,0.1516389964217056,0.1033818569276334,-28.54099280947513,9.21161989509871,-108.957482283889
4.43,0.89,8.6,0.4478760524979138,0.1516389964217056,0.1033818569276334,-28.54099280947513,9.21161989509871,-108.957482283889
4.28,0.94,8.6,0.3880293022052649,0.2794348523295599,0.1664555297658179,-28.16278249153404,9.3380846266553,-109.15495063272716
4.28,0.94,8.6,0.3880293022052649,0.2794348523295599,0.1664555297658179,-28.16278249153404,9.3380846266553,-109.15495063272716
4.46,1.07,8.57,0.1443134564590192,0.1537193779681894,0.0887827453436607,-27.77308072525798,9.441564242690683,-109.09565995624818
4.46,1.07,8.57,0.1443134564590192,0.1537193779681894,0.0887827453436607,-27.77308072525798,9.441564242690683,-109.09565995624818
4.62,1.04,8.55,0.0568498422909922,-0.0206045855669998,0.0329688333931663,-27.44268161964677,9.464560757916416,-109.33308208171762
4.62,1.04,8.55,0.0568498422909922,-0.0206045855669998,0.0329688333931663,-27.44268161964677,9.464560757916416,-109.33308208171762
4.36,1.16,8.67,0.039511604199707,0.292543486141416,0.0374659428819317,-27.27756943376897,9.579549083642284,-109.47189924933484
4.36,1.16,8.67,0.039511604199707,0.292543486141416,0.0374659428819317,-27.27756943376897,9.579549083642284,-109.47189924933484
4.39,1.13,8.47,-0.0486972250248776,0.1689376606120666,0.2014957249713163,-27.006438787370872,9.729048380447908,-109.37271990346242
4.39,1.13,8.47,-0.0486972250248776,0.1689376606120666,0.2014957249713163,-27.006438787370872,9.729048380447908,-109.37271990346242
4.39,1.12,8.56,-0.0405702025254605,0.193643720447021,0.1236258769174547,-26.85325924989716,9.786552516199244,-109.43221295455638
4.39,1.12,8.56,-0.0405702025254605,0.193643720447021,0.1236258769174547,-26.85325924989716,9.786552516199244,-109.43221295455638
4.52,1.25,8.61,-0.215968036167049,0.1537740014294935,0.0058994489534853,-26.6883513110376,9.786552516199244,-109.65072872045307
4.52,1.25,8.61,-0.215968036167049,0.1537740014294935,0.0058994489534853,-26.6883513110376,9.786552516199244,-109.65072872045307
4.49,1.21,8.67,-0.1601365192064843,0.1766375337293024,-0.0288090882629621,-26.629469277048536,9.786552516199244,-109.65072872045307
4.49,1.21,8.67,-0.1601365192064843,0.1766375337293024,-0.0288090882629621,-26.629469277048536,9.786552516199244,-109.65072872045307
4.52,1.24,8.49,-0.2418807485767185,0.084773974438724,0.1121976133653728,-26.641245110498453,9.648546712798437,-109.8498937322769
4.52,1.24,8.49,-0.2418807485767185,0.084773974438724,0.1121976133653728,-26.641245110498453,9.648546712798437,-109.8498937322769
4.45,1.06,8.69,0.0166009107946775,0.1322752152553468,-0.0129440688599711,-26.71190613338563,9.556550648732504,-109.90973941260324
4.45,1.06,8.69,0.0166009107946775,0.1322752152553468,-0.0129440688599711,-26.71190613338563,9.556550648732504,-109.90973941260324
4.51,1.15,8.65,-0.0860329114102033,0.1013984793254758,-0.0151327651880386,-26.73546210533703,9.499056247386587,-109.8498937322769
4.51,1.15,8.65,-0.0860329114102033,0.1013984793254758,-0.0151327651880386,-26.73546210533703,9.499056247386587,-109.8498937322769
4.53,1.0,8.4,0.0062422654232952,-0.0849806249386675,0.2111490059138958,-26.935734446758048,9.246109154854068,-110.08954448644468
4.53,1.0,8.4,0.0062422654232952,-0.0849806249386675,0.2111490059138958,-26.935734446758048,9.246109154854068,-110.08954448644468
4.33,0.83,8.6,0.3191469143040976,0.0740801448207354,0.1479514655579237,-27.11251495381608,9.09666171745326,-110.22967237255024
4.33,0.83,8.6,0.3191469143040976,0.0740801448207354,0.1479514655579237,-27.11251495381608,9.09666171745326,-110.22967237255024
4.34,0.91,8.65,0.2813759685560235,0.1218731461736734,0.0910864805452025,-27.230405140191408,9.016196458354324,-110.26975406580355
4.34,0.91,8.65,0.2813759685560235,0.1218731461736734,0.0910864805452025,-27.230405140191408,9.016196458354324,-110.26975406580355
4.3,0.87,8.54,0.3148493826169363,0.0897915133705419,0.2112705207718672,-27.301153346475186,8.935735653853007,-110.22967237255024
4.3,0.87,8.54,0.3148493826169363,0.0897915133705419,0.2112705207718672,-27.301153346475186,8.935735653853007,-110.22967237255024
4.31,0.8,8.62,0.4142020594877088,0.0734552845678858,0.1452038879997275,-27.3719121623715,8.843785851491393,-110.24971070475245
4.31,0.8,8.62,0.4142020594877088,0.0734552845678858,0.1452038879997275,-27.3719121623715,8.843785851491393,-110.24971070475245
4.18,0.75,8.66,0.5136003315027782,0.1686369168337527,0.1765785418143934,-27.3719121623715,8.797813093528106,-110.49056420469132
4.18,0.75,8.66,0.5136003315027782,0.1686369168337527,0.1765785418143934,-27.3719121623715,8.797813093528106,-110.49056420469132
4.16,0.79,8.46,0.401444163554629,0.1215261433951839,0.3554398139963339,-27.230405140191408,8.832292528579133,-110.5307773959204
4.16,0.79,8.46,0.401444163554629,0.1215261433951839,0.3554398139963339,-27.230405140191408,8.832292528579133,-110.5307773959204
4.36,0.79,8.42,0.3027795244076908,-0.0632907647939617,0.2969486987660179,-27.15966751179376,8.774827247055486,-110.81284195033062
4.36,0.79,8.42,0.3027795244076908,-0.0632907647939617,0.2969486987660179,-27.15966751179376,8.774827247055486,-110.81284195033062
4.28,0.8,8.64,0.3661761804269755,0.0910147292499757,0.1388875223660246,-27.053580833430228,8.866772764864926,-110.91382347990452
4.28,0.8,8.64,0.3661761804269755,0.0910147292499757,0.1388875223660246,-27.053580833430228,8.866772764864926,-110.91382347990452
4.31,0.98,8.62,0.1649113328921355,0.1381366450932377,0.1218876116103864,-26.90038619571759,8.935735653853007,-110.91382347990452
4.31,0.98,8.62,0.1649113328921355,0.1381366450932377,0.1218876116103864,-26.90038619571759,8.935735653853007,-110.91382347990452
4.5,0.89,8.4,0.0919755773652658,-0.1441532346612472,0.2372790521212931,-26.806136930452627,8.935735653853007,-110.99470186962544
4.5,0.89,8.4,0.0919755773652658,-0.1441532346612472,0.2372790521212931,-26.806136930452627,8.935735653853007,-110.99470186962544
4.33,1.01,8.61,0.0970442598254713,0.1338414228976396,0.1178023448269822,-26.770798221316568,8.970218312913039,-111.25813232752796
4.33,1.01,8.61,0.0970442598254713,0.1338414228976396,0.1178023448269822,-26.770798221316568,8.970218312913039,-111.25813232752796
4.33,1.01,8.62,0.0860496315546874,0.1422236323691526,0.1089302732134509,-26.71190613338563,9.050681021579294,-111.23783703748737
4.33,1.01,8.62,0.0860496315546874,0.1422236323691526,0.1089302732134509,-26.71190613338563,9.050681021579294,-111.23783703748737
4.39,1.06,8.52,-0.0294078234540829,0.0747677068116878,0.1640546559062823,-26.59414349441812,9.085166406176857,-111.25813232752796
4.39,1.06,8.52,-0.0294078234540829,0.0747677068116878,0.1640546559062823,-26.59414349441812,9.085166406176857,-111.25813232752796
4.41,1.01,8.57,0.0135032583282529,0.0508417202817961,0.1159156221784041,-26.558820285317804,9.050681021579294,-111.46137512854489
4.41,1.01,8.57,0.0135032583282529,0.0508417202817961,0.1159156221784041,-26.558820285317804,9.050681021579294,-111.46137512854489
4.38,1.05,8.57,-0.0147920739796453,0.0946997290069475,0.1256059883309408,-26.535272907054928,9.085166406176857,-111.42068428698192
4.38,1.05,8.57,-0.0147920739796453,0.0946997290069475,0.1256059883309408,-26.535272907054928,9.085166406176857,-111.42068428698192
4.3,1.04,8.51,0.006770401964788,0.1293126880538756,0.2162937818835146,-26.52349964582953,9.073671186517632,-111.38001462419376
4.3,1.04,8.51,0.006770401964788,0.1293126880538756,0.2162937818835146,-26.52349964582953,9.073671186517632,-111.38001462419376
4.3,1.01,8.66,0.0751553301252242,0.1617154135458859,0.0868814944554632,-26.48818157203767,9.039186076064473,-111.42068428698192
4.3,1.01,8.66,0.0751553301252242,0.1617154135458859,0.0868814944554632,-26.48818157203767,9.039186076064473,-111.42068428698192
4.4,1.07,8.6,-0.0365340471367167,0.0804963168312263,0.0877464812703081,-26.46463761296408,8.95872400294449,-111.6447470313604
4.4,1.07,8.6,-0.0365340471367167,0.0804963168312263,0.0877464812703081,-26.46463761296408,8.95872400294449,-111.6447470313604
4.38,1.1,8.56,-0.0599862495778613,0.0918875353389323,0.1290491438626215,-26.48818157203767,8.912747665103913,-111.6447470313604
4.38,1.1,8.56,-0.0599862495778613,0.0918875353389323,0.1290491438626215,-26.48818157203767,8.912747665103913,-111.6447470313604
4.36,0.98,8.54,0.0585051338844467,0.0404219712835833,0.1683647161153842,-26.54704645350268,8.832292528579133,-111.72638448420555
4.36,0.98,8.54,0.0585051338844467,0.0404219712835833,0.1683647161153842,-26.54704645350268,8.832292528579133,-111.72638448420555
4.34,0.95,8.68,0.1451331846824566,0.0835403507488409,0.057165020345911,-26.582368805630427,8.72885661442212,-111.82855209706509
4.34,0.95,8.68,0.1451331846824566,0.0835403507488409,0.057165020345911,-26.582368805630427,8.72885661442212,-111.82855209706509
4.35,0.91,8.64,0.1688488883145424,0.037264757163747,0.0922122195214765,-26.59414349441812,8.68288738926451,-111.84900177480624
4.35,0.91,8.64,0.1688488883145424,0.037264757163747,0.0922122195214765,-26.59414349441812,8.68288738926451,-111.84900177480624
4.29,0.9,8.53,0.1746824909169954,0.0350412712193891,0.2179452836851627,-26.617693729981983,8.625427825614647,-111.86945684906637
4.29,0.9,8.53,0.1746824909169954,0.0350412712193891,0.2179452836851627,-26.617693729981983,8.625427825614647,-111.86945684906637
4.4,0.86,8.57,0.1804849247385377,-0.0645541618799563,0.1367090512596132,-26.605918469153576,8.579461739762628,-111.91038320685794
4.4,0.86,8.57,0.1804849247385377,-0.0645541618799563,0.1367090512596132,-26.605918469153576,8.579461739762628,-111.91038320685794
4.3,0.83,8.66,0.2704649177130468,0.0370109434363064,0.1061356364029642,-26.605918469153576,8.602444609340731,-111.91038320685794
4.3,0.83,8.66,0.2704649177130468,0.0370109434363064,0.1061356364029642,-26.605918469153576,8.602444609340731,-111.91038320685794
4.4,0.93,8.51,0.09153036885434,-0.0473174426171089,0.1819742521526191,-26.57059440264536,8.636919564056372,-111.91038320685794
4.4,0.93,8.51,0.09153036885434,-0.0473174426171089,0.1819742521526191,-26.57059440264536,8.636919564056372,-111.91038320685794
4.4,0.94,8.6,0.1029090874622515,-0.0021409929346299,0.1013419092763001,-26.558820285317804,8.705871826379285,-111.91038320685794
4.4,0.94,8.6,0.1029090874622515,-0.0021409929346299,0.1013419092763001,-26.558820285317804,8.705871826379285,-111.91038320685794
