,TIME,ELAPSED_SECONDS,PSTATE,acc_x,acc_y,acc_z,mag_x,mag_y,mag_z,gyr_x,gyr_y,gyr_z,lin_x,lin_y,lin_z,eul_x,eul_y,eul_z,qua_w,qua_x,qua_y,qua_z
0,1494812.0,274.02154,1.0,7.55,6.52,-4.75,-23.0,-34.75,10.75,-36.13,3.69,25.06,1.5018726603029668,1.4028928435821268,-1.0493009109824405,-121.66531355494112,18.88991127772655,-29.55902139879445,-0.3815,-0.8732,0.1641,-0.2551
1,1494812.0,274.02154,1.0,7.55,6.52,-4.75,-23.0,-34.75,10.75,-36.13,3.69,25.06,1.5018726603029668,1.4028928435821268,-1.0493009109824405,-121.66531355494112,18.88991127772655,-29.55902139879445,-0.3815,-0.8732,0.1641,-0.2551
2,1494849.0,274.064398,1.0,3.47,2.99,-4.84,-23.37,-35.06,9.06,26.25,32.0,37.0,-0.2912552175273638,-1.2919113544076009,3.2757438262278034,-121.40719542947477,19.56400979675284,-30.50817000692102,-0.3759,-0.8721,0.1699,-0.2631
3,1494849.0,274.064398,1.0,3.47,2.99,-4.84,-23.37,-35.06,9.06,26.25,32.0,37.0,-0.2912552175273638,-1.2919113544076009,3.2757438262278034,-121.40719542947477,19.56400979675284,-30.50817000692102,-0.3759,-0.8721,0.1699,-0.2631
4,1494886.0,274.091331,1.0,5.55,3.81,-4.39,-24.06,-33.56,7.5,-51.75,11.88,23.0,0.9738034966855744,-0.3258861191163587,1.8356898955200995,-119.78825181236216,20.506574164810864,-31.340435037267948,-0.3834,-0.8651,0.17800000000000002,-0.2701
5,1494886.0,274.091331,1.0,5.55,3.81,-4.39,-24.06,-33.56,7.5,-51.75,11.88,23.0,0.9738034966855744,-0.3258861191163587,1.8356898955200995,-119.78825181236216,20.506574164810864,-31.340435037267948,-0.3834,-0.8651,0.17800000000000002,-0.2701
6,1494919.0,274.171478,1.0,5.47,5.39,-4.25,-24.06,-33.56,7.5,-46.13,3.19,14.0,0.10890073209575568,0.5393596593787109,1.046927870366897,-117.98502779819529,21.24064723466595,-31.233335490801053,-0.3986,-0.8571,0.1843,-0.2692
7,1494919.0,274.171478,1.0,5.47,5.39,-4.25,-24.06,-33.56,7.5,-46.13,3.19,14.0,0.10890073209575568,0.5393596593787109,1.046927870366897,-117.98502779819529,21.24064723466595,-31.233335490801053,-0.3986,-0.8571,0.1843,-0.2692
8,1494956.0,274.176811,1.0,3.17,2.3,-3.61,-26.75,-34.38,6.25,-19.19,23.0,36.63,0.05191630195117042,-1.0955339384667486,4.594346278298888,-116.99119192350858,22.501130743263236,-31.888273849894752,-0.3994,-0.8526,0.1951,-0.2747
9,1494956.0,274.176811,1.0,3.17,2.3,-3.61,-26.75,-34.38,6.25,-19.19,23.0,36.63,0.05191630195117042,-1.0955339384667486,4.594346278298888,-116.99119192350858,22.501130743263236,-31.888273849894752,-0.3994,-0.8526,0.1951,-0.2747
10,1494990.0,274.224626,1.0,2.76,1.32,-2.29,-27.87,-33.56,5.38,-79.25,61.69,43.5,0.6043925835504915,-0.7963711187817347,6.118208236040659,-114.34362489902875,23.694122645249475,-33.11769717298479,-0.413,-0.8403,0.2053,-0.285
11,1494990.0,274.224626,1.0,2.76,1.32,-2.29,-27.87,-33.56,5.38,-79.25,61.69,43.5,0.6043925835504915,-0.7963711187817347,6.118208236040659,-114.34362489902875,23.694122645249475,-33.11769717298479,-0.413,-0.8403,0.2053,-0.285
12,1495025.0,274.24764,1.0,6.37,3.63,-2.09,-27.87,-33.56,5.38,-118.56,90.62,44.63,1.6498315504697652,0.5619057523964277,2.384775723208567,-108.70148376565115,25.042301608577386,-35.841352697842005,-0.4449,-0.8126,0.2168,-0.3077
13,1495025.0,274.24764,1.0,6.37,3.63,-2.09,-27.87,-33.56,5.38,-118.56,90.62,44.63,1.6498315504697652,0.5619057523964277,2.384775723208567,-108.70148376565115,25.042301608577386,-35.841352697842005,-0.4449,-0.8126,0.2168,-0.3077
14,1495062.0,274.299525,1.0,5.33,3.53,-0.89,-29.37,-33.56,3.0,-130.06,86.94,55.31,1.0500234440083502,1.1204555669079466,3.5373653446650835,-104.1843158106976,26.499953978465857,-37.664683622171815,-0.4698,-0.789,0.2292,-0.3228
15,1495062.0,274.299525,1.0,5.33,3.53,-0.89,-29.37,-33.56,3.0,-130.06,86.94,55.31,1.0500234440083502,1.1204555669079466,3.5373653446650835,-104.1843158106976,26.499953978465857,-37.664683622171815,-0.4698,-0.789,0.2292,-0.3228
16,1495099.0,274.33982000000003,1.0,6.0,4.78,1.4,-30.87,-31.75,-2.56,-195.63,126.06,61.5,0.7495448078082603,3.0222290501955356,2.6573343579792987,-96.19801883290823,28.375486985220768,-40.6200807923672,-0.5153,-0.7443,0.2451,-0.3471
17,1495099.0,274.33982000000003,1.0,6.0,4.78,1.4,-30.87,-31.75,-2.56,-195.63,126.06,61.5,0.7495448078082603,3.0222290501955356,2.6573343579792987,-96.19801883290823,28.375486985220768,-40.6200807923672,-0.5153,-0.7443,0.2451,-0.3471
18,1495134.0,274.347775,1.0,10.17,8.21,1.92,-30.87,-31.75,-2.56,-234.81,141.31,38.31,0.2724031742271211,3.258083363510707,-2.9929628577033838,-88.37361278323944,29.535319528051428,-42.86440291129757,-0.5619,-0.6970000000000001,0.2549,-0.3654
19,1495134.0,274.347775,1.0,10.17,8.21,1.92,-30.87,-31.75,-2.56,-234.81,141.31,38.31,0.2724031742271211,3.258083363510707,-2.9929628577033838,-88.37361278323944,29.535319528051428,-42.86440291129757,-0.5619,-0.6970000000000001,0.2549,-0.3654
20,1495169.0,274.410109,1.0,5.57,5.05,3.4,-32.69,-29.25,-10.0,-161.69,147.81,75.25,-0.40499515960658,3.2095944481728518,2.2157421228779697,-79.52399794108469,30.69825503264451,-45.93388911170107,-0.6071,-0.6396,0.2647,-0.3902
21,1495169.0,274.410109,1.0,5.57,5.05,3.4,-32.69,-29.25,-10.0,-161.69,147.81,75.25,-0.40499515960658,3.2095944481728518,2.2157421228779697,-79.52399794108469,30.69825503264451,-45.93388911170107,-0.6071,-0.6396,0.2647,-0.3902
22,1495203.0,274.426596,1.0,6.57,5.18,7.71,-32.0,-25.87,-18.19,-222.88,215.88,90.0,-0.2991066207003277,5.647102678239664,-0.06564287302963301,-67.83519390579393,31.078685498016352,-51.0874785737173,-0.6564,-0.5579999999999999,0.2679,-0.4312
23,1495203.0,274.426596,1.0,6.57,5.18,7.71,-32.0,-25.87,-18.19,-222.88,215.88,90.0,-0.2991066207003277,5.647102678239664,-0.06564287302963301,-67.83519390579393,31.078685498016352,-51.0874785737173,-0.6564,-0.5579999999999999,0.2679,-0.4312
24,1495240.0,274.516979,1.0,9.12,5.9,7.47,-30.5,-21.5,-23.87,-178.25,274.81,95.12,-0.6778240840028495,2.619303138940788,-3.0954856983051684,-57.8546700143526,29.92656655764556,-55.744276234982536,-0.6934,-0.4837,0.2582,-0.4675
25,1495240.0,274.516979,1.0,9.12,5.9,7.47,-30.5,-21.5,-23.87,-178.25,274.81,95.12,-0.6778240840028495,2.619303138940788,-3.0954856983051684,-57.8546700143526,29.92656655764556,-55.744276234982536,-0.6934,-0.4837,0.2582,-0.4675
26,1495275.0,274.52873,1.0,8.86,1.92,7.68,-30.5,-21.5,-23.87,-92.25,254.88,109.81,2.0115673772090723,1.112758164940687,-1.850269230796192,-47.88253794953186,26.688351311037593,-63.04051613304179,-0.7133,-0.4058,0.2308,-0.5228
27,1495275.0,274.52873,1.0,8.86,1.92,7.68,-30.5,-21.5,-23.87,-92.25,254.88,109.81,2.0115673772090723,1.112758164940687,-1.850269230796192,-47.88253794953186,26.688351311037593,-63.04051613304179,-0.7133,-0.4058,0.2308,-0.5228
28,1495312.0,274.56924,1.0,8.76,1.87,9.27,-23.69,-14.56,-34.38,-189.19,210.25,41.19,1.4387387761211212,0.8316610744764863,-2.976376660039717,-40.07071902721768,25.112736460930662,-66.29551072464068,-0.7324,-0.3426,0.2174,-0.5468
29,1495312.0,274.56924,1.0,8.76,1.87,9.27,-23.69,-14.56,-34.38,-189.19,210.25,41.19,1.4387387761211212,0.8316610744764863,-2.976376660039717,-40.07071902721768,25.112736460930662,-66.29551072464068,-0.7324,-0.3426,0.2174,-0.5468
30,1495349.0,274.575683,1.0,7.87,3.23,10.48,-16.06,-9.25,-40.06,-221.31,146.56,-28.12,-1.1435681650488418,-0.03553321746314109,-3.642929519165035,-29.68940484166728,24.772390131710253,-66.30919770158441,-0.7676,-0.2562,0.2145,-0.5469
31,1495349.0,274.575683,1.0,7.87,3.23,10.48,-16.06,-9.25,-40.06,-221.31,146.56,-28.12,-1.1435681650488418,-0.03553321746314109,-3.642929519165035,-29.68940484166728,24.772390131710253,-66.30919770158441,-0.7676,-0.2562,0.2145,-0.5469
32,1495384.0,274.626761,1.0,6.43,2.24,12.04,-16.06,-9.25,-40.06,-193.88,113.87,-52.13,-1.4287684680240151,0.9539935794995522,-3.91824041541148,-23.284475807440252,24.854522251558684,-64.45738978708853,-0.7928,-0.2018,0.2152,-0.5333
33,1495384.0,274.626761,1.0,6.43,2.24,12.04,-16.06,-9.25,-40.06,-193.88,113.87,-52.13,-1.4287684680240151,0.9539935794995522,-3.91824041541148,-23.284475807440252,24.854522251558684,-64.45738978708853,-0.7928,-0.2018,0.2152,-0.5333
34,1495418.0,274.633269,1.0,6.43,2.53,14.16,-8.19,-2.25,-42.56,-186.56,102.69,36.44,-3.1053739184719134,0.17024191679507128,-5.639355001819737,-15.274409087771584,25.394572616004382,-63.1884425474074,-0.8121,-0.1329,0.2198,-0.5239
35,1495418.0,274.633269,1.0,6.43,2.53,14.16,-8.19,-2.25,-42.56,-186.56,102.69,36.44,-3.1053739184719134,0.17024191679507128,-5.639355001819737,-15.274409087771584,25.394572616004382,-63.1884425474074,-0.8121,-0.1329,0.2198,-0.5239
36,1495455.0,274.689948,1.0,8.29,5.07,12.81,-3.38,4.88,-44.38,-146.0,97.5,142.25,-5.847636184296517,-4.545924429902536,-4.464468461204131,-7.465189762811248,25.841133562817532,-66.69286830197329,-0.8022,-0.0651,0.2236,-0.5497
37,1495455.0,274.689948,1.0,8.29,5.07,12.81,-3.38,4.88,-44.38,-146.0,97.5,142.25,-5.847636184296517,-4.545924429902536,-4.464468461204131,-7.465189762811248,25.841133562817532,-66.69286830197329,-0.8022,-0.0651,0.2236,-0.5497
38,1495492.0,274.70655800000003,1.0,9.93,4.89,9.12,1.37,11.56,-44.38,24.5,88.0,173.44,-4.913451832059684,-7.651362003846074,-1.2841592842736222,-4.424333322525307,24.31503217113493,-71.71905293720884,-0.7817,-0.0386,0.2106,-0.5858
39,1495492.0,274.70655800000003,1.0,9.93,4.89,9.12,1.37,11.56,-44.38,24.5,88.0,173.44,-4.913451832059684,-7.651362003846074,-1.2841592842736222,-4.424333322525307,24.31503217113493,-71.71905293720884,-0.7817,-0.0386,0.2106,-0.5858
40,1495525.0,274.75034300000004,1.0,9.66,2.86,7.5,1.37,11.56,-44.38,103.69,35.94,81.62,-2.7526161224134293,-7.409282222536451,0.045971671654424284,-5.318958088351593,20.832722001771078,-76.42794195968905,-0.7632,-0.0464,0.1808,-0.6186
41,1495525.0,274.75034300000004,1.0,9.66,2.86,7.5,1.37,11.56,-44.38,103.69,35.94,81.62,-2.7526161224134293,-7.409282222536451,0.045971671654424284,-5.318958088351593,20.832722001771078,-76.42794195968905,-0.7632,-0.0464,0.1808,-0.6186
42,1495562.0,274.81341299999997,1.0,6.74,-1.63,8.14,6.56,11.38,-43.56,118.69,-35.88,33.06,1.3341435051268038,-3.3420882637863727,-0.2628389217273241,-8.453062112264227,18.959614614971002,-78.23310832001327,-0.7546,-0.0737,0.1647,-0.6309
43,1495562.0,274.81341299999997,1.0,6.74,-1.63,8.14,6.56,11.38,-43.56,118.69,-35.88,33.06,1.3341435051268038,-3.3420882637863727,-0.2628389217273241,-8.453062112264227,18.959614614971002,-78.23310832001327,-0.7546,-0.0737,0.1647,-0.6309
44,1495599.0,274.85506200000003,1.0,4.92,-1.23,8.78,8.75,5.38,-44.38,25.12,-82.19,26.19,0.7193046582624111,-1.0873128064997968,-0.2485999555915317,-11.443790822449785,19.6570420373131,-79.37500813467463,-0.7437,-0.0997,0.1707,-0.6386
45,1495599.0,274.85506200000003,1.0,4.92,-1.23,8.78,8.75,5.38,-44.38,25.12,-82.19,26.19,0.7193046582624111,-1.0873128064997968,-0.2485999555915317,-11.443790822449785,19.6570420373131,-79.37500813467463,-0.7437,-0.0997,0.1707,-0.6386
46,1495633.0,274.876961,1.0,1.9,-0.21,10.56,8.75,5.38,-44.38,40.44,-65.19,49.44,-0.8052891815120321,2.5847473338499936,-0.5778716815361822,-13.414914406298776,20.832722001771078,-80.4963997494357,-0.7323,-0.1168,0.1808,-0.6461
47,1495633.0,274.876961,1.0,1.9,-0.21,10.56,8.75,5.38,-44.38,40.44,-65.19,49.44,-0.8052891815120321,2.5847473338499936,-0.5778716815361822,-13.414914406298776,20.832722001771078,-80.4963997494357,-0.7323,-0.1168,0.1808,-0.6461
48,1495668.0,274.89243700000003,1.0,1.52,-0.88,9.52,6.19,3.25,-44.88,64.62,-3.38,61.56,0.2744209198152405,2.7229221794355123,0.5208765823731252,-15.332219618835126,20.087487431641744,-83.0275358707213,-0.7159,-0.1334,0.1744,-0.6628
49,1495668.0,274.89243700000003,1.0,1.52,-0.88,9.52,6.19,3.25,-44.88,64.62,-3.38,61.56,0.2744209198152405,2.7229221794355123,0.5208765823731252,-15.332219618835126,20.087487431641744,-83.0275358707213,-0.7159,-0.1334,0.1744,-0.6628
50,1495703.0,274.934298,1.0,1.7,-0.31,9.5,3.56,1.37,-45.69,44.69,-18.0,60.44,-0.036632963194938695,2.590661898953104,0.5048636687988672,-16.66297690980209,19.505871262305693,-85.62478707023612,-0.6989,-0.1449,0.1694,-0.6796
51,1495703.0,274.934298,1.0,1.7,-0.31,9.5,3.56,1.37,-45.69,44.69,-18.0,60.44,-0.036632963194938695,2.590661898953104,0.5048636687988672,-16.66297690980209,19.505871262305693,-85.62478707023612,-0.6989,-0.1449,0.1694,-0.6796
52,1495740.0,274.997346,1.0,2.43,0.2,9.58,3.56,-0.88,-44.88,61.06,-0.88,52.81,-0.3438250178072201,1.9977837234181002,0.1313234136993824,-17.636430239406273,18.820214993044136,-87.45034897247223,-0.687,-0.1533,0.1635,-0.6912
53,1495740.0,274.997346,1.0,2.43,0.2,9.58,3.56,-0.88,-44.88,61.06,-0.88,52.81,-0.3438250178072201,1.9977837234181002,0.1313234136993824,-17.636430239406273,18.820214993044136,-87.45034897247223,-0.687,-0.1533,0.1635,-0.6912
54,1495773.0,275.01050699999996,1.0,2.61,0.48,9.43,3.56,-0.88,-44.88,60.88,2.31,42.81,-0.3044089987968257,1.7686957974217754,0.17615414892181747,-18.959614614971002,17.32339805412093,-89.65908810035471,-0.6732,-0.1647,0.1506,-0.705
55,1495773.0,275.01050699999996,1.0,2.61,0.48,9.43,3.56,-0.88,-44.88,60.88,2.31,42.81,-0.3044089987968257,1.7686957974217754,0.17615414892181747,-18.959614614971002,17.32339805412093,-89.65908810035471,-0.6732,-0.1647,0.1506,-0.705
56,1495810.0,275.061981,1.0,2.45,1.43,9.77,2.38,-2.38,-44.75,91.81,-1.31,26.44,-0.8898254054652838,2.129741092523296,-0.10156445198912856,-20.355205608113067,15.875832638109523,-90.95906154292842,-0.6643,-0.1767,0.1381,-0.713
57,1495810.0,275.061981,1.0,2.45,1.43,9.77,2.38,-2.38,-44.75,91.81,-1.31,26.44,-0.8898254054652838,2.129741092523296,-0.10156445198912856,-20.355205608113067,15.875832638109523,-90.95906154292842,-0.6643,-0.1767,0.1381,-0.713
58,1495846.0,275.08008,1.0,0.89,0.0,10.93,3.56,-5.25,-44.5,131.5,5.94,-3.13,1.6128790528991497,3.7838353458169216,-0.35889038093724146,-23.42489188862897,12.227189726180756,-91.96044935664196,-0.6561,-0.203,0.1065,-0.7191
59,1495846.0,275.08008,1.0,0.89,0.0,10.93,3.56,-5.25,-44.5,131.5,5.94,-3.13,1.6128790528991497,3.7838353458169216,-0.35889038093724146,-23.42489188862897,12.227189726180756,-91.96044935664196,-0.6561,-0.203,0.1065,-0.7191
60,1495881.0,275.119579,1.0,-0.8,-2.64,11.74,3.56,-5.25,-44.5,81.37,94.25,-47.13,5.0237868643011305,4.919188570852082,0.008673201370923422,-24.31503217113493,8.487533709607298,-91.84507796689995,-0.6588,-0.2106,0.07400000000000001,-0.7184
61,1495881.0,275.119579,1.0,-0.8,-2.64,11.74,3.56,-5.25,-44.5,81.37,94.25,-47.13,5.0237868643011305,4.919188570852082,0.008673201370923422,-24.31503217113493,8.487533709607298,-91.84507796689995,-0.6588,-0.2106,0.07400000000000001,-0.7184
62,1495914.0,275.170189,1.0,0.09,-2.36,11.88,4.69,-9.25,-43.19,9.63,223.38,-24.94,4.8420183468110904,2.656304504762476,-0.9734708113417464,-19.23849904872923,2.4868320276357756,-93.40455194632291,-0.6648,-0.1671,0.0217,-0.7278
63,1495914.0,275.170189,1.0,0.09,-2.36,11.88,4.69,-9.25,-43.19,9.63,223.38,-24.94,4.8420183468110904,2.656304504762476,-0.9734708113417464,-19.23849904872923,2.4868320276357756,-93.40455194632291,-0.6648,-0.1671,0.0217,-0.7278
64,1495951.0,275.18694700000003,1.0,1.84,-1.5,10.58,9.75,-12.0,-41.56,-72.75,321.44,16.0,3.2331653588100884,-0.8808672403356321,-0.5056104053376149,-11.962154211464537,-2.555603608821701,-95.54805066002704,-0.6635,-0.1042,-0.0223,-0.7405
65,1495951.0,275.18694700000003,1.0,1.84,-1.5,10.58,9.75,-12.0,-41.56,-72.75,321.44,16.0,3.2331653588100884,-0.8808672403356321,-0.5056104053376149,-11.962154211464537,-2.555603608821701,-95.54805066002704,-0.6635,-0.1042,-0.0223,-0.7405
66,1495988.0,275.20281,1.0,3.52,0.57,7.58,21.5,-12.0,-38.38,-93.5,262.19,-1.94,-0.24098216996249236,-3.9544256699349885,2.42585429664122,-1.638715147453804,-6.868145731332586,-96.7830712993422,-0.6612,-0.0143,-0.0599,-0.7477
67,1495988.0,275.20281,1.0,3.52,0.57,7.58,21.5,-12.0,-38.38,-93.5,262.19,-1.94,-0.24098216996249236,-3.9544256699349885,2.42585429664122,-1.638715147453804,-6.868145731332586,-96.7830712993422,-0.6612,-0.0143,-0.0599,-0.7477
68,1496023.0,275.247413,1.0,0.86,0.5,9.01,21.5,-12.0,-38.38,-46.25,66.12,-10.94,-0.004817117087799527,-1.8977569230208569,0.9427797698742584,1.8220825674649568,-7.832701331508732,-96.73131402375058,-0.6606,0.0159,-0.0683,-0.7474
69,1496023.0,275.247413,1.0,0.86,0.5,9.01,21.5,-12.0,-38.38,-46.25,66.12,-10.94,-0.004817117087799527,-1.8977569230208569,0.9427797698742584,1.8220825674649568,-7.832701331508732,-96.73131402375058,-0.6606,0.0159,-0.0683,-0.7474
70,1496059.0,275.30737799999997,1.0,-1.07,0.89,10.9,29.37,-9.25,-34.75,-56.44,30.75,-27.5,-0.4738782537880106,-0.3980489424024677,-1.164402658703226,4.298191253728037,-7.097755072388746,-96.0094493123457,-0.6652,0.0375,-0.0619,-0.7432
71,1496059.0,275.30737799999997,1.0,-1.07,0.89,10.9,29.37,-9.25,-34.75,-56.44,30.75,-27.5,-0.4738782537880106,-0.3980489424024677,-1.164402658703226,4.298191253728037,-7.097755072388746,-96.0094493123457,-0.6652,0.0375,-0.0619,-0.7432
72,1496094.0,275.365281,1.0,-1.49,1.67,11.16,29.75,-8.19,-32.56,-67.37,104.5,-29.94,-1.6079663283247798,-0.3292737260747073,-1.456592122066391,7.109236280779951,-7.143680335170353,-95.1566161753118,-0.6688,0.062,-0.0623,-0.7382
73,1496094.0,275.365281,1.0,-1.49,1.67,11.16,29.75,-8.19,-32.56,-67.37,104.5,-29.94,-1.6079663283247798,-0.3292737260747073,-1.456592122066391,7.109236280779951,-7.143680335170353,-95.1566161753118,-0.6688,0.062,-0.0623,-0.7382
74,1496129.0,275.36946800000004,1.0,-0.37,1.78,9.63,29.75,-8.19,-32.56,19.44,82.31,-0.44,-2.0432358884329918,-1.8689255670765847,0.4058785247993075,11.017757342406151,-9.361079434368333,-94.17594734269699,-0.6691,0.096,-0.0816,-0.7324
75,1496129.0,275.36946800000004,1.0,-0.37,1.78,9.63,29.75,-8.19,-32.56,19.44,82.31,-0.44,-2.0432358884329918,-1.8689255670765847,0.4058785247993075,11.017757342406151,-9.361079434368333,-94.17594734269699,-0.6691,0.096,-0.0816,-0.7324
76,1496164.0,275.38771,1.0,-1.1,1.15,9.32,32.5,-5.0,-32.69,50.19,6.63,-7.38,-1.0676439326108085,-1.2948347659239756,0.5018964104569665,10.338720083250598,-11.121372822035768,-93.6554852891658,-0.6713,0.0901,-0.0969,-0.7293
77,1496164.0,275.38771,1.0,-1.1,1.15,9.32,32.5,-5.0,-32.69,50.19,6.63,-7.38,-1.0676439326108085,-1.2948347659239756,0.5018964104569665,10.338720083250598,-11.121372822035768,-93.6554852891658,-0.6713,0.0901,-0.0969,-0.7293
78,1496201.0,275.428751,1.0,-1.76,0.89,9.89,33.56,-5.0,-29.25,54.31,-113.37,-19.5,-0.47956970666433707,-0.4562327793611526,-0.25633487266508403,7.660420468145224,-10.6148933492606,-93.17087251757091,-0.6777,0.0668,-0.0925,-0.7264
79,1496201.0,275.428751,1.0,-1.76,0.89,9.89,33.56,-5.0,-29.25,54.31,-113.37,-19.5,-0.47956970666433707,-0.4562327793611526,-0.25633487266508403,7.660420468145224,-10.6148933492606,-93.17087251757091,-0.6777,0.0668,-0.0925,-0.7264
80,1496236.0,275.489566,1.0,-2.53,0.67,10.12,33.56,-5.0,-29.25,57.81,-122.06,-12.0,0.09873254959357053,0.8647354567059223,-0.6100041880570419,3.965659465674837,-9.257605761151561,-92.78805970081837,-0.6841,0.0346,-0.0807,-0.7241
81,1496236.0,275.489566,1.0,-2.53,0.67,10.12,33.56,-5.0,-29.25,57.81,-122.06,-12.0,0.09873254959357053,0.8647354567059223,-0.6100041880570419,3.965659465674837,-9.257605761151561,-92.78805970081837,-0.6841,0.0346,-0.0807,-0.7241
82,1496270.0,275.497412,1.0,-2.74,0.14,10.08,32.88,-6.06,-32.19,50.63,-97.69,9.5,1.0377561536546345,1.7946834802211609,-0.4322841911828501,-0.5500415954991054,-7.890132207309978,-92.67181786365627,-0.6869,-0.0048,-0.0688,-0.7234
83,1496270.0,275.497412,1.0,-2.74,0.14,10.08,32.88,-6.06,-32.19,50.63,-97.69,9.5,1.0377561536546345,1.7946834802211609,-0.4322841911828501,-0.5500415954991054,-7.890132207309978,-92.67181786365627,-0.6869,-0.0048,-0.0688,-0.7234
84,1496305.0,275.514848,1.0,-2.07,0.2,9.8,28.69,-6.75,-35.06,34.5,-71.5,24.12,1.2097396603020305,1.6546230606600774,0.00034322928227759064,-3.7478120989556993,-6.9140653613570215,-93.30434180891346,-0.6829999999999999,-0.0327,-0.0603,-0.7272
85,1496305.0,275.514848,1.0,-2.07,0.2,9.8,28.69,-6.75,-35.06,34.5,-71.5,24.12,1.2097396603020305,1.6546230606600774,0.00034322928227759064,-3.7478120989556993,-6.9140653613570215,-93.30434180891346,-0.6829999999999999,-0.0327,-0.0603,-0.7272
86,1496342.0,275.558037,1.0,-2.45,-0.12,9.89,26.5,-8.25,-36.75,23.81,-48.25,24.94,1.7478504175378218,2.2845453451555096,0.031432790963611616,-5.571344453661866,-6.3631010384043885,-93.90700572648474,-0.6786,-0.0486,-0.0555,-0.7308
87,1496342.0,275.558037,1.0,-2.45,-0.12,9.89,26.5,-8.25,-36.75,23.81,-48.25,24.94,1.7478504175378218,2.2845453451555096,0.031432790963611616,-5.571344453661866,-6.3631010384043885,-93.90700572648474,-0.6786,-0.0486,-0.0555,-0.7308
88,1496377.0,275.61749,1.0,-1.67,0.12,9.47,26.5,-8.25,-36.75,5.5,-17.06,18.0,1.3914879171413006,1.5502894621929864,0.4181163573131297,-5.605762844556931,-6.168003805570946,-94.54685485638409,-0.6746,-0.0489,-0.0538,-0.7346
89,1496377.0,275.61749,1.0,-1.67,0.12,9.47,26.5,-8.25,-36.75,5.5,-17.06,18.0,1.3914879171413006,1.5502894621929864,0.4181163573131297,-5.605762844556931,-6.168003805570946,-94.54685485638409,-0.6746,-0.0489,-0.0538,-0.7346
90,1496412.0,275.634529,1.0,-0.76,0.42,9.18,24.19,-9.0,-37.56,0.12,-17.5,17.37,0.994506884268764,0.7356857395606835,0.6690287258527139,-5.938500516393254,-5.915551513947968,-95.02080781947748,-0.6714,-0.0518,-0.0516,-0.7374
91,1496412.0,275.634529,1.0,-0.76,0.42,9.18,24.19,-9.0,-37.56,0.12,-17.5,17.37,0.994506884268764,0.7356857395606835,0.6690287258527139,-5.938500516393254,-5.915551513947968,-95.02080781947748,-0.6714,-0.0518,-0.0516,-0.7374
92,1496449.0,275.67182,1.0,0.03,0.7,9.65,23.06,-9.69,-36.25,-3.63,-48.56,1.75,0.7133998893611833,0.22276490159439447,0.16015652327608088,-6.937025592767178,-4.814261580058959,-95.207589729786,-0.6702,-0.0605,-0.042,-0.7385
93,1496449.0,275.67182,1.0,0.03,0.7,9.65,23.06,-9.69,-36.25,-3.63,-48.56,1.75,0.7133998893611833,0.22276490159439447,0.16015652327608088,-6.937025592767178,-4.814261580058959,-95.207589729786,-0.6702,-0.0605,-0.042,-0.7385
94,1496483.0,275.730095,1.0,-0.56,0.85,10.25,23.06,-9.69,-36.25,-18.06,-22.5,-11.25,0.6635588251040885,1.0293251252581876,-0.4207044708364709,-7.499640647274437,-3.862466868736162,-94.93601676687223,-0.672,-0.0654,-0.0337,-0.7369
95,1496483.0,275.730095,1.0,-0.56,0.85,10.25,23.06,-9.69,-36.25,-18.06,-22.5,-11.25,0.6635588251040885,1.0293251252581876,-0.4207044708364709,-7.499640647274437,-3.862466868736162,-94.93601676687223,-0.672,-0.0654,-0.0337,-0.7369
96,1496518.0,275.74879500000003,1.0,0.34,1.26,9.57,22.37,-10.19,-38.38,-15.0,1.88,-8.75,-0.04378921294639701,0.13772551531495514,0.14915476638684488,-6.925545442265205,-3.369477361207863,-94.54685485638409,-0.6752,-0.0604,-0.0294,-0.7346
97,1496518.0,275.74879500000003,1.0,0.34,1.26,9.57,22.37,-10.19,-38.38,-15.0,1.88,-8.75,-0.04378921294639701,0.13772551531495514,0.14915476638684488,-6.925545442265205,-3.369477361207863,-94.54685485638409,-0.6752,-0.0604,-0.0294,-0.7346
98,1496553.0,275.79062799999997,1.0,0.28,1.33,9.8,22.37,-10.56,-39.19,-11.56,-13.81,-9.56,-0.12712700739931646,0.2587917745068549,-0.0829488564469738,-6.89110540785609,-2.9911793597011727,-94.76663946259286,-0.674,-0.0601,-0.0261,-0.7359
99,1496553.0,275.79062799999997,1.0,0.28,1.33,9.8,22.37,-10.56,-39.19,-11.56,-13.81,-9.56,-0.12712700739931646,0.2587917745068549,-0.0829488564469738,-6.89110540785609,-2.9911793597011727,-94.76663946259286,-0.674,-0.0601,-0.0261,-0.7359
100,1496590.0,275.84269700000004,1.0,0.27,1.28,9.98,22.0,-9.06,-39.25,-4.06,-15.0,-8.13,-0.0962135160789332,0.3637762605872992,-0.2516853389890965,-7.074792869515193,-2.440984806055245,-94.68205278958663,-0.6744,-0.0617,-0.0213,-0.7354
101,1496590.0,275.84269700000004,1.0,0.27,1.28,9.98,22.0,-9.06,-39.25,-4.06,-15.0,-8.13,-0.0962135160789332,0.3637762605872992,-0.2516853389890965,-7.074792869515193,-2.440984806055245,-94.68205278958663,-0.6744,-0.0617,-0.0213,-0.7354
102,1496625.0,275.859097,1.0,0.34,1.33,9.63,22.0,-9.06,-39.25,-4.69,-1.56,-7.31,-0.2121240966206968,0.2913848696360343,0.08597624632530376,-7.051830951076286,-2.3034454566839293,-94.42869817988995,-0.6761,-0.0615,-0.0201,-0.7339
103,1496625.0,275.859097,1.0,0.34,1.33,9.63,22.0,-9.06,-39.25,-4.69,-1.56,-7.31,-0.2121240966206968,0.2913848696360343,0.08597624632530376,-7.051830951076286,-2.3034454566839293,-94.42869817988995,-0.6761,-0.0615,-0.0201,-0.7339
104,1496659.0,275.905668,1.0,0.3,1.06,9.59,20.5,-8.69,-39.19,3.5,-7.81,2.25,0.07657968661058026,0.3273838245587609,0.15944027992985174,-7.22405231414402,-2.314906939637541,-94.76663946259286,-0.6738,-0.063,-0.0202,-0.7359
105,1496659.0,275.905668,1.0,0.3,1.06,9.59,20.5,-8.69,-39.19,3.5,-7.81,2.25,0.07657968661058026,0.3273838245587609,0.15944027992985174,-7.22405231414402,-2.314906939637541,-94.76663946259286,-0.6738,-0.063,-0.0202,-0.7359
106,1496694.0,275.923691,1.0,0.42,0.96,9.69,21.69,-8.69,-39.19,3.19,-12.06,4.44,0.19263467333374046,0.2452711564503592,0.06514939986435486,-7.442222882076424,-2.2117544130994498,-95.1566161753118,-0.6711,-0.0649,-0.0193,-0.7382
107,1496694.0,275.923691,1.0,0.42,0.96,9.69,21.69,-8.69,-39.19,3.19,-12.06,4.44,0.19263467333374046,0.2452711564503592,0.06514939986435486,-7.442222882076424,-2.2117544130994498,-95.1566161753118,-0.6711,-0.0649,-0.0193,-0.7382
108,1496729.0,275.97235,1.0,-0.07,0.83,9.89,21.69,-8.69,-39.19,0.63,-3.81,3.0,0.4109085703279245,0.7923145347770857,-0.07815105135212264,-7.763786880218299,-2.0283765158457068,-95.30961142661364,-0.6699,-0.0677,-0.0177,-0.7391
109,1496729.0,275.97235,1.0,-0.07,0.83,9.89,21.69,-8.69,-39.19,0.63,-3.81,3.0,0.4109085703279245,0.7923145347770857,-0.07815105135212264,-7.763786880218299,-2.0283765158457068,-95.30961142661364,-0.6699,-0.0677,-0.0177,-0.7391
110,1496764.0,275.99151,1.0,0.44,0.77,9.53,20.19,-8.25,-38.0,1.81,3.56,7.13,0.3831994133895876,0.2349394338749513,0.24603486958143786,-7.694875241065197,-2.1544482337672357,-95.73577991639958,-0.6672,-0.0671,-0.0188,-0.7416
111,1496764.0,275.99151,1.0,0.44,0.77,9.53,20.19,-8.25,-38.0,1.81,3.56,7.13,0.3831994133895876,0.2349394338749513,0.24603486958143786,-7.694875241065197,-2.1544482337672357,-95.73577991639958,-0.6672,-0.0671,-0.0188,-0.7416
112,1496801.0,276.03590499999996,1.0,0.22,0.74,9.81,20.5,-9.06,-39.69,-1.19,-4.75,3.5,0.4639770191451888,0.4856645696747162,-0.01073026417780376,-7.729330710703709,-2.051298459271143,-96.24950691257419,-0.6638,-0.0674,-0.0179,-0.7446
113,1496801.0,276.03590499999996,1.0,0.22,0.74,9.81,20.5,-9.06,-39.69,-1.19,-4.75,3.5,0.4639770191451888,0.4856645696747162,-0.01073026417780376,-7.729330710703709,-2.051298459271143,-96.24950691257419,-0.6638,-0.0674,-0.0179,-0.7446
114,1496834.0,276.09671000000003,1.0,0.3,0.75,9.81,20.5,-9.06,-39.69,-1.25,-3.94,2.88,0.4157157253266859,0.3997719584211389,-0.01963937173011665,-7.568544455864769,-1.9710720103882065,-96.35256057889305,-0.6633,-0.066,-0.0172,-0.7452
115,1496834.0,276.09671000000003,1.0,0.3,0.75,9.81,20.5,-9.06,-39.69,-1.25,-3.94,2.88,0.4157157253266859,0.3997719584211389,-0.01963937173011665,-7.568544455864769,-1.9710720103882065,-96.35256057889305,-0.6633,-0.066,-0.0172,-0.7452
116,1496868.0,276.104111,1.0,0.3,0.89,9.7,21.25,-8.25,-40.0,-5.06,-3.31,-0.06,0.21582833986888397,0.4085853639675476,0.07224831689379307,-7.35035834348681,-1.7877008349543104,-96.43851781128038,-0.6631,-0.0641,-0.0156,-0.7457
117,1496868.0,276.104111,1.0,0.3,0.89,9.7,21.25,-8.25,-40.0,-5.06,-3.31,-0.06,0.21582833986888397,0.4085853639675476,0.07224831689379307,-7.35035834348681,-1.7877008349543104,-96.43851781128038,-0.6631,-0.0641,-0.0156,-0.7457
118,1496903.0,276.166638,1.0,0.35,0.93,9.77,20.19,-8.69,-40.75,-3.31,-1.94,-0.19,0.1481067351855609,0.3627675553581656,-0.005931928104965678,-7.189606746883267,-1.6960169933572922,-96.59342299000929,-0.6621,-0.0627,-0.0148,-0.7466
119,1496903.0,276.166638,1.0,0.35,0.93,9.77,20.19,-8.69,-40.75,-3.31,-1.94,-0.19,0.1481067351855609,0.3627675553581656,-0.005931928104965678,-7.189606746883267,-1.6960169933572922,-96.59342299000929,-0.6621,-0.0627,-0.0148,-0.7466
120,1496938.0,276.174205,1.0,0.38,0.9,9.77,20.19,-8.69,-40.75,-0.94,-0.44,0.25,0.1595211333855397,0.3166918322767364,-0.005666713772166432,-7.074792869515193,-1.6960169933572922,-96.66234520218386,-0.6618,-0.0617,-0.0148,-0.747
121,1496938.0,276.174205,1.0,0.38,0.9,9.77,20.19,-8.69,-40.75,-0.94,-0.44,0.25,0.1595211333855397,0.3166918322767364,-0.005666713772166432,-7.074792869515193,-1.6960169933572922,-96.66234520218386,-0.6618,-0.0617,-0.0148,-0.747
122,1496971.0,276.19271000000003,1.0,0.37,0.86,9.68,20.5,-7.88,-40.5,-2.13,0.75,-0.56,0.1702723226053951,0.3064010442406365,0.08780100764278842,-6.948505812979428,-1.6616358358374437,-96.64511028417601,-0.6619,-0.0606,-0.0145,-0.7469
123,1496971.0,276.19271000000003,1.0,0.37,0.86,9.68,20.5,-7.88,-40.5,-2.13,0.75,-0.56,0.1702723226053951,0.3064010442406365,0.08780100764278842,-6.948505812979428,-1.6616358358374437,-96.64511028417601,-0.6619,-0.0606,-0.0145,-0.7469
124,1497006.0,276.235524,1.0,0.37,0.85,9.73,21.25,-8.25,-39.69,-1.5,0.19,0.69,0.16929347625496033,0.2920840822534563,0.038419525252196614,-6.810747745686069,-1.6730962049034406,-96.83485491073408,-0.6609,-0.0594,-0.0146,-0.748
125,1497006.0,276.235524,1.0,0.37,0.85,9.73,21.25,-8.25,-39.69,-1.5,0.19,0.69,0.16929347625496033,0.2920840822534563,0.038419525252196614,-6.810747745686069,-1.6730962049034406,-96.83485491073408,-0.6609,-0.0594,-0.0146,-0.748
126,1497042.0,276.290529,1.0,0.44,0.77,9.82,21.25,-8.69,-39.69,-1.37,1.06,2.56,0.2402005215387555,0.2087947082306784,-0.04817665901675916,-6.730393436549607,-1.6845565907051554,-97.16343265081737,-0.6588,-0.0587,-0.0147,-0.7499
127,1497042.0,276.290529,1.0,0.44,0.77,9.82,21.25,-8.69,-39.69,-1.37,1.06,2.56,0.2402005215387555,0.2087947082306784,-0.04817665901675916,-6.730393436549607,-1.6845565907051554,-97.16343265081737,-0.6588,-0.0587,-0.0147,-0.7499
128,1497075.0,276.30667,1.0,0.4,0.81,9.69,21.25,-8.69,-39.69,-2.69,0.94,2.06,0.17015574972562014,0.23326362671346745,0.07891464683132021,-6.581172764918962,-1.6616358358374437,-97.26741602219177,-0.6582,-0.0574,-0.0145,-0.7505
129,1497075.0,276.30667,1.0,0.4,0.81,9.69,21.25,-8.69,-39.69,-2.69,0.94,2.06,0.17015574972562014,0.23326362671346745,0.07891464683132021,-6.581172764918962,-1.6616358358374437,-97.26741602219177,-0.6582,-0.0574,-0.0145,-0.7505
130,1497112.0,276.346898,1.0,0.46,0.88,9.65,20.87,-8.69,-39.19,-1.88,-0.19,2.63,0.07177366531578748,0.17657905887833858,0.10756919938117272,-6.4778727055513645,-1.6272548279067642,-97.63220528770944,-0.6559,-0.0565,-0.0142,-0.7526
131,1497112.0,276.346898,1.0,0.46,0.88,9.65,20.87,-8.69,-39.19,-1.88,-0.19,2.63,0.07177366531578748,0.17657905887833858,0.10756919938117272,-6.4778727055513645,-1.6272548279067642,-97.63220528770944,-0.6559,-0.0565,-0.0142,-0.7526
132,1497147.0,276.40826699999997,1.0,0.34,0.76,9.79,19.75,-8.69,-39.19,0.0,-0.63,1.75,0.2160811340531617,0.28106913334297745,-0.012291342415080564,-6.4319632645356775,-1.638715147453804,-97.98086184027687,-0.6536,-0.0561,-0.0143,-0.7546
133,1497147.0,276.40826699999997,1.0,0.34,0.76,9.79,19.75,-8.69,-39.19,0.0,-0.63,1.75,0.2160811340531617,0.28106913334297745,-0.012291342415080564,-6.4319632645356775,-1.638715147453804,-97.98086184027687,-0.6536,-0.0561,-0.0143,-0.7546
134,1497182.0,276.41596499999997,1.0,0.4,0.81,9.75,19.75,-8.69,-39.19,-1.0,-0.81,0.75,0.14408787987402616,0.22097426419085392,0.018442347041327526,-6.3631010384043885,-1.6272548279067642,-98.0332655181114,-0.6534,-0.0555,-0.0142,-0.7549
135,1497182.0,276.41596499999997,1.0,0.4,0.81,9.75,19.75,-8.69,-39.19,-1.0,-0.81,0.75,0.14408787987402616,0.22097426419085392,0.018442347041327526,-6.3631010384043885,-1.6272548279067642,-98.0332655181114,-0.6534,-0.0555,-0.0142,-0.7549
136,1497214.0,276.480308,1.0,0.39,0.75,9.62,20.5,-7.56,-40.0,0.5,0.06,1.25,0.18373723927407554,0.20667945474442845,0.1535404372792648,-6.294241112432486,-1.638715147453804,-98.0856967948129,-0.6531,-0.0549,-0.0143,-0.7552
137,1497214.0,276.480308,1.0,0.39,0.75,9.62,20.5,-7.56,-40.0,0.5,0.06,1.25,0.18373723927407554,0.20667945474442845,0.1535404372792648,-6.294241112432486,-1.638715147453804,-98.0856967948129,-0.6531,-0.0549,-0.0143,-0.7552
138,1497251.0,276.487933,1.0,0.44,0.82,9.78,20.19,-10.19,-40.0,-0.31,-0.31,-0.25,0.11719824045131585,0.17097586268368326,-0.015337162830887154,-6.236859579751598,-1.6501754833924644,-98.59396637382844,-0.6498,-0.0544,-0.0144,-0.7581
139,1497251.0,276.487933,1.0,0.44,0.82,9.78,20.19,-10.19,-40.0,-0.31,-0.31,-0.25,0.11719824045131585,0.17097586268368326,-0.015337162830887154,-6.236859579751598,-1.6501754833924644,-98.59396637382844,-0.6498,-0.0544,-0.0144,-0.7581
140,1497286.0,276.505762,1.0,0.35,0.74,9.71,20.19,-10.19,-40.0,1.37,-2.25,-0.31,0.2052979010163838,0.2464704777403545,0.06748653102378732,-6.259812004164343,-1.6501754833924644,-98.57639627494255,-0.6498,-0.0546,-0.0144,-0.758
141,1497286.0,276.505762,1.0,0.35,0.74,9.71,20.19,-10.19,-40.0,1.37,-2.25,-0.31,0.2052979010163838,0.2464704777403545,0.06748653102378732,-6.259812004164343,-1.6501754833924644,-98.57639627494255,-0.6498,-0.0546,-0.0144,-0.758
142,1497319.0,276.553535,1.0,0.41,0.73,9.62,20.19,-8.25,-41.25,-0.5,-1.12,0.12,0.19381272814894207,0.17653332815036404,0.15384353708675924,-6.225383461526625,-1.6616358358374437,-98.66427811303318,-0.6492,-0.0543,-0.0145,-0.7585
143,1497319.0,276.553535,1.0,0.41,0.73,9.62,20.19,-8.25,-41.25,-0.5,-1.12,0.12,0.19381272814894207,0.17653332815036404,0.15384353708675924,-6.225383461526625,-1.6616358358374437,-98.66427811303318,-0.6492,-0.0543,-0.0145,-0.7585
144,1497354.0,276.614561,1.0,0.43,0.8,9.73,20.5,-8.25,-39.25,-1.0,-0.88,0.44,0.12463244089299826,0.1744334937415863,0.03670426264105764,-6.190955481383822,-1.6272548279067642,-98.78744465249004,-0.6485,-0.054000000000000006,-0.0142,-0.7592
145,1497354.0,276.614561,1.0,0.43,0.8,9.73,20.5,-8.25,-39.25,-1.0,-0.88,0.44,0.12463244089299826,0.1744334937415863,0.03670426264105764,-6.190955481383822,-1.6272548279067642,-98.78744465249004,-0.6485,-0.054000000000000006,-0.0142,-0.7592
146,1497391.0,276.623119,1.0,0.42,0.86,9.76,21.25,-9.06,-39.19,-0.06,-1.06,-0.06,0.06449828876862228,0.1977054305173097,0.0020412605606789924,-6.168003805570946,-1.6043342375287626,-99.05189452300688,-0.6467,-0.0538,-0.013999999999999999,-0.7607
147,1497391.0,276.623119,1.0,0.42,0.86,9.76,21.25,-9.06,-39.19,-0.06,-1.06,-0.06,0.06449828876862228,0.1977054305173097,0.0020412605606789924,-6.168003805570946,-1.6043342375287626,-99.05189452300688,-0.6467,-0.0538,-0.013999999999999999,-0.7607
148,1497425.0,276.68772,1.0,0.42,0.82,9.75,21.25,-9.06,-39.19,1.37,-0.5,0.75,0.10660023055761753,0.1862244226611916,0.01556952564735603,-6.168003805570946,-1.638715147453804,-99.05189452300688,-0.6467,-0.0538,-0.0143,-0.7607
149,1497425.0,276.68772,1.0,0.42,0.82,9.75,21.25,-9.06,-39.19,1.37,-0.5,0.75,0.10660023055761753,0.1862244226611916,0.01556952564735603,-6.168003805570946,-1.638715147453804,-99.05189452300688,-0.6467,-0.0538,-0.0143,-0.7607
150,1497462.0,276.705929,1.0,0.49,0.79,9.66,20.19,-9.06,-40.5,-0.25,0.63,0.88,0.1159197910689716,0.1003203852506842,0.10323315734392048,-6.133576755953128,-1.6845565907051554,-99.35247172605571,-0.6447,-0.0535,-0.0147,-0.7624
151,1497462.0,276.705929,1.0,0.49,0.79,9.66,20.19,-9.06,-40.5,-0.25,0.63,0.88,0.1159197910689716,0.1003203852506842,0.10323315734392048,-6.133576755953128,-1.6845565907051554,-99.35247172605571,-0.6447,-0.0535,-0.0147,-0.7624
152,1497495.0,276.710522,1.0,0.52,0.84,9.86,20.87,-8.25,-40.0,-0.12,-1.37,0.31,0.08067159538757705,0.09045068662685253,-0.1019780971175006,-6.133576755953128,-1.6730962049034406,-99.40561118069314,-0.6443,-0.0535,-0.0146,-0.7627
153,1497495.0,276.710522,1.0,0.52,0.84,9.86,20.87,-8.25,-40.0,-0.12,-1.37,0.31,0.08067159538757705,0.09045068662685253,-0.1019780971175006,-6.133576755953128,-1.6730962049034406,-99.40561118069314,-0.6443,-0.0535,-0.0146,-0.7627
154,1497530.0,276.75344,1.0,0.44,0.8,9.74,20.87,-8.25,-40.0,1.88,-1.0,-0.75,0.12822824154125312,0.160104741354945,0.026101754126106158,-6.17947961245989,-1.6845565907051554,-99.37018165058248,-0.6446,-0.0539,-0.0147,-0.7625
155,1497530.0,276.75344,1.0,0.44,0.8,9.74,20.87,-8.25,-40.0,1.88,-1.0,-0.75,0.12822824154125312,0.160104741354945,0.026101754126106158,-6.17947961245989,-1.6845565907051554,-99.37018165058248,-0.6446,-0.0539,-0.0147,-0.7625
