,TIME,ELAPSED_SECONDS,PSTATE,acc_x,acc_y,acc_z,mag_x,mag_y,mag_z,gyr_x,gyr_y,gyr_z,lin_x,lin_y,lin_z,eul_x,eul_y,eul_z,qua_w,qua_x,qua_y,qua_z
0,2030024.0,810.185829,1.0,6.62,4.0,-6.18,-26.06,-32.19,14.69,2.94,-4.38,1.06,0.1212763271318453,-0.05260271327670596,-0.09281084425981943,-127.76677999527551,10.235170717586842,-39.87562235967538,-0.2637,-0.8979,0.0892,-0.341
1,2030024.0,810.185829,1.0,6.62,4.0,-6.18,-26.06,-32.19,14.69,2.94,-4.38,1.06,0.1212763271318453,-0.05260271327670596,-0.09281084425981943,-127.76677999527551,10.235170717586842,-39.87562235967538,-0.2637,-0.8979,0.0892,-0.341
2,2030059.0,810.231298,1.0,6.66,3.76,-6.06,-25.37,-32.19,13.06,2.19,-2.25,2.44,0.29764803577458965,-0.1684130978457934,0.05473517903927139,-127.81886761171008,10.292697102933527,-39.87562235967538,-0.2626,-0.8981,0.0897,-0.341
3,2030059.0,810.231298,1.0,6.66,3.76,-6.06,-25.37,-32.19,13.06,2.19,-2.25,2.44,0.29764803577458965,-0.1684130978457934,0.05473517903927139,-127.81886761171008,10.292697102933527,-39.87562235967538,-0.2626,-0.8981,0.0897,-0.341
4,2030096.0,810.2638860000001,1.0,6.47,3.64,-5.78,-25.37,-32.56,14.25,3.44,-4.63,4.81,0.34349131875377936,-0.07192927015173955,0.4047491340029392,-127.92318817469021,10.48830635783265,-39.88781236546699,-0.2607,-0.8985,0.0914,-0.3411
5,2030096.0,810.2638860000001,1.0,6.47,3.64,-5.78,-25.37,-32.56,14.25,3.44,-4.63,4.81,0.34349131875377936,-0.07192927015173955,0.4047491340029392,-127.92318817469021,10.48830635783265,-39.88781236546699,-0.2607,-0.8985,0.0914,-0.3411
6,2030129.0,810.35381,1.0,6.63,3.45,-5.74,-25.37,-32.56,14.25,0.81,-0.69,8.44,0.5199725332910198,-0.1798550047410199,0.3989786227731944,-127.87100362286014,10.706964767003905,-40.02193352838936,-0.2593,-0.8983,0.0933,-0.3422
7,2030129.0,810.35381,1.0,6.63,3.45,-5.74,-25.37,-32.56,14.25,0.81,-0.69,8.44,0.5199725332910198,-0.1798550047410199,0.3989786227731944,-127.87100362286014,10.706964767003905,-40.02193352838936,-0.2593,-0.8983,0.0933,-0.3422
8,2030163.0,810.359013,1.0,6.52,3.0,-5.65,-25.0,-31.75,13.88,-1.69,1.63,15.06,0.5920719021724989,-0.4680053780276046,0.7037207006593159,-127.68873899317936,11.213483126166134,-40.22932427895751,-0.2581,-0.8976,0.0977,-0.3439
9,2030163.0,810.359013,1.0,6.52,3.0,-5.65,-25.0,-31.75,13.88,-1.69,1.63,15.06,0.5920719021724989,-0.4680053780276046,0.7037207006593159,-127.68873899317936,11.213483126166134,-40.22932427895751,-0.2581,-0.8976,0.0977,-0.3439
10,2030200.0,810.3725919999999,1.0,6.72,3.39,-5.21,-25.37,-32.19,13.38,-17.0,0.94,15.06,0.8147108143021146,0.08868510844010613,0.6894694467477986,-127.3259688536123,11.720221376139571,-40.314760397567724,-0.2602,-0.8962,0.1021,-0.3446
11,2030200.0,810.3725919999999,1.0,6.72,3.39,-5.21,-25.37,-32.19,13.38,-17.0,0.94,15.06,0.8147108143021146,0.08868510844010613,0.6894694467477986,-127.3259688536123,11.720221376139571,-40.314760397567724,-0.2602,-0.8962,0.1021,-0.3446
12,2030237.0,810.421815,1.0,7.29,3.2,-5.29,-25.37,-32.19,13.38,-11.88,6.25,22.81,1.1589599084646298,-0.08787523835627843,0.318905806934108,-126.6838681332996,12.58451568698019,-40.69340241756593,-0.2615,-0.8937,0.1096,-0.3477
13,2030237.0,810.421815,1.0,7.29,3.2,-5.29,-25.37,-32.19,13.38,-11.88,6.25,22.81,1.1589599084646298,-0.08787523835627843,0.318905806934108,-126.6838681332996,12.58451568698019,-40.69340241756593,-0.2615,-0.8937,0.1096,-0.3477
14,2030270.0,810.482129,1.0,6.97,2.81,-4.93,-26.06,-31.06,13.38,-24.37,12.94,15.94,1.2084205954175151,-0.2506654156681858,0.9039096065054936,-126.02359896120804,13.195714475135588,-40.96239758351413,-0.2651,-0.8911,0.1149,-0.3499
15,2030270.0,810.482129,1.0,6.97,2.81,-4.93,-26.06,-31.06,13.38,-24.37,12.94,15.94,1.2084205954175151,-0.2506654156681858,0.9039096065054936,-126.02359896120804,13.195714475135588,-40.96239758351413,-0.2651,-0.8911,0.1149,-0.3499
16,2030307.0,810.497313,1.0,6.62,3.7,-4.67,-26.5,-31.06,13.88,-43.69,22.37,9.13,0.6265619955146133,0.4750629762336305,0.935064164627116,-124.57692406667047,13.945814879054648,-41.51335250906026,-0.2758,-0.8853,0.1214,-0.3544
17,2030307.0,810.497313,1.0,6.62,3.7,-4.67,-26.5,-31.06,13.88,-43.69,22.37,9.13,0.6265619955146133,0.4750629762336305,0.935064164627116,-124.57692406667047,13.945814879054648,-41.51335250906026,-0.2758,-0.8853,0.1214,-0.3544
18,2030342.0,810.5365820000001,1.0,5.42,4.29,-4.58,-27.19,-31.5,13.06,-20.12,40.88,-4.63,-0.5465434324259701,0.8203519902132816,1.5734724306392405,-123.21239151549196,13.98044914927855,-42.335532323855574,-0.2845,-0.8797,0.1217,-0.3611
19,2030342.0,810.5365820000001,1.0,5.42,4.29,-4.58,-27.19,-31.5,13.06,-20.12,40.88,-4.63,-0.5465434324259701,0.8203519902132816,1.5734724306392405,-123.21239151549196,13.98044914927855,-42.335532323855574,-0.2845,-0.8797,0.1217,-0.3611
20,2030376.0,810.543539,1.0,4.3,3.61,-3.84,-27.19,-31.5,13.06,18.19,81.56,7.63,-0.8464969807500415,0.5746979313544545,3.0820039015589837,-121.33697927503367,13.2187858542384,-44.55589145397279,-0.2881,-0.8718,0.1151,-0.3791
21,2030376.0,810.543539,1.0,4.3,3.61,-3.84,-27.19,-31.5,13.06,18.19,81.56,7.63,-0.8464969807500415,0.5746979313544545,3.0820039015589837,-121.33697927503367,13.2187858542384,-44.55589145397279,-0.2881,-0.8718,0.1151,-0.3791
22,2030411.0,810.606129,1.0,4.15,0.55,-2.8,-28.69,-32.19,11.38,-40.5,127.0,18.81,0.6706242800474538,-1.3831114840300158,5.010582267184384,-118.38659680691794,13.06883146764636,-47.895076146413096,-0.2908,-0.8589,0.1138,-0.4059
23,2030411.0,810.606129,1.0,4.15,0.55,-2.8,-28.69,-32.19,11.38,-40.5,127.0,18.81,0.6706242800474538,-1.3831114840300158,5.010582267184384,-118.38659680691794,13.06883146764636,-47.895076146413096,-0.2908,-0.8589,0.1138,-0.4059
24,2030450.0,810.623819,1.0,4.12,0.92,-1.01,-28.69,-31.5,8.5,-100.37,166.44,-9.44,1.2794696925381377,-0.3504927826510601,5.673731888642615,-112.09482025042286,12.388547751922633,-53.000280019764396,-0.3182,-0.8295,0.1079,-0.4462
25,2030450.0,810.623819,1.0,4.12,0.92,-1.01,-28.69,-31.5,8.5,-100.37,166.44,-9.44,1.2794696925381377,-0.3504927826510601,5.673731888642615,-112.09482025042286,12.388547751922633,-53.000280019764396,-0.3182,-0.8295,0.1079,-0.4462
26,2030483.0,810.690009,1.0,4.59,0.88,-0.61,-28.69,-31.5,8.5,-121.81,190.63,-14.13,1.5220323554072719,-0.5327789098503825,5.377861887851031,-106.01228040091104,11.835420883076136,-57.26633156409672,-0.349,-0.7987,0.1031,-0.4792
27,2030483.0,810.690009,1.0,4.59,0.88,-0.61,-28.69,-31.5,8.5,-121.81,190.63,-14.13,1.5220323554072719,-0.5327789098503825,5.377861887851031,-106.01228040091104,11.835420883076136,-57.26633156409672,-0.349,-0.7987,0.1031,-0.4792
28,2030518.0,810.693161,1.0,5.13,0.97,-0.13,-30.56,-31.75,1.88,-168.06,194.94,-8.31,1.551932862082683,-0.7915816885461606,4.883276885767619,-96.61064917995199,11.720221376139571,-63.34995089580225,-0.3953,-0.7467,0.1021,-0.5251
29,2030518.0,810.693161,1.0,5.13,0.97,-0.13,-30.56,-31.75,1.88,-168.06,194.94,-8.31,1.551932862082683,-0.7915816885461606,4.883276885767619,-96.61064917995199,11.720221376139571,-63.34995089580225,-0.3953,-0.7467,0.1021,-0.5251
30,2030555.0,810.816006,1.0,5.72,3.43,2.12,-29.5,-32.56,-5.0,-218.44,178.0,-38.69,1.1897295833631163,1.3992809622881257,3.05355764856213,-86.26691017894268,12.273289521851867,-67.71095944217275,-0.4591,-0.6837,0.1069,-0.5571
31,2030555.0,810.816006,1.0,5.72,3.43,2.12,-29.5,-32.56,-5.0,-218.44,178.0,-38.69,1.1897295833631163,1.3992809622881257,3.05355764856213,-86.26691017894268,12.273289521851867,-67.71095944217275,-0.4591,-0.6837,0.1069,-0.5571
32,2030592.0,810.826972,1.0,6.07,4.85,4.44,-27.56,-30.69,-14.0,-225.5,195.75,-16.37,1.0333807377415218,2.9493486383408376,1.4212778043021963,-77.90855177137034,12.930431986971733,-70.9010852783508,-0.5056,-0.6287,0.1126,-0.58
33,2030592.0,810.826972,1.0,6.07,4.85,4.44,-27.56,-30.69,-14.0,-225.5,195.75,-16.37,1.0333807377415218,2.9493486383408376,1.4212778043021963,-77.90855177137034,12.930431986971733,-70.9010852783508,-0.5056,-0.6287,0.1126,-0.58
34,2030626.0,810.8298589999999,1.0,5.86,3.41,6.29,-27.56,-30.69,-14.0,-210.5,185.13,9.31,1.9390203954752845,2.8351262206689576,1.2197961396617298,-67.09113465509711,14.084359674365961,-75.17900592971374,-0.5546,-0.5526,0.1226,-0.61
35,2030626.0,810.8298589999999,1.0,5.86,3.41,6.29,-27.56,-30.69,-14.0,-210.5,185.13,9.31,1.9390203954752845,2.8351262206689576,1.2197961396617298,-67.09113465509711,14.084359674365961,-75.17900592971374,-0.5546,-0.5526,0.1226,-0.61
36,2030661.0,810.883202,1.0,7.31,4.13,11.51,-23.06,-27.69,-24.69,-276.31,188.88,2.44,2.8370183311049932,5.235489043205937,-3.1360731086601263,-58.30030109286572,15.702300646279072,-77.77599278422385,-0.5916,-0.4871,0.1366,-0.6278
37,2030661.0,810.883202,1.0,7.31,4.13,11.51,-23.06,-27.69,-24.69,-276.31,188.88,2.44,2.8370183311049932,5.235489043205937,-3.1360731086601263,-58.30030109286572,15.702300646279072,-77.77599278422385,-0.5916,-0.4871,0.1366,-0.6278
38,2030700.0,810.902237,1.0,9.56,7.56,12.39,-19.06,-22.06,-31.69,-258.06,204.06,11.0,-2.4237810984892527,2.7126807392773764,-7.1882300641063575,-44.878048779944685,18.06561632088332,-80.04673804640113,-0.6451,-0.3817,0.157,-0.6431
39,2030700.0,810.902237,1.0,9.56,7.56,12.39,-19.06,-22.06,-31.69,-258.06,204.06,11.0,-2.4237810984892527,2.7126807392773764,-7.1882300641063575,-44.878048779944685,18.06561632088332,-80.04673804640113,-0.6451,-0.3817,0.157,-0.6431
40,2030735.0,810.906032,1.0,8.88,3.58,9.24,-19.06,-22.06,-31.69,-88.0,188.88,36.88,-0.5718181314359632,-0.7577626742356343,-3.465396554849644,-38.11295365085032,17.184314583414665,-82.72182782084748,-0.6591,-0.3265,0.1494,-0.6608
41,2030735.0,810.906032,1.0,8.88,3.58,9.24,-19.06,-22.06,-31.69,-88.0,188.88,36.88,-0.5718181314359632,-0.7577626742356343,-3.465396554849644,-38.11295365085032,17.184314583414665,-82.72182782084748,-0.6591,-0.3265,0.1494,-0.6608
42,2030770.0,810.947543,1.0,6.11,2.39,11.72,-13.0,-13.5,-38.38,-155.94,87.87,-40.5,-0.016404631323887142,1.6632560745999962,-3.521362234327272,-31.542810907574808,16.906223928806188,-83.36465078667902,-0.6799,-0.2718,0.147,-0.665
43,2030770.0,810.947543,1.0,6.11,2.39,11.72,-13.0,-13.5,-38.38,-155.94,87.87,-40.5,-0.016404631323887142,1.6632560745999962,-3.521362234327272,-31.542810907574808,16.906223928806188,-83.36465078667902,-0.6799,-0.2718,0.147,-0.665
44,2030804.0,811.017977,1.0,5.72,3.81,12.0,-6.25,-10.69,-42.06,-184.25,102.56,-59.0,-2.619023357494562,0.9346469652000322,-3.739628149489631,-24.38536915234885,18.320928845487863,-81.15862069013602,-0.7120000000000001,-0.2112,0.1592,-0.6505
45,2030804.0,811.017977,1.0,5.72,3.81,12.0,-6.25,-10.69,-42.06,-184.25,102.56,-59.0,-2.619023357494562,0.9346469652000322,-3.739628149489631,-24.38536915234885,18.320928845487863,-81.15862069013602,-0.7120000000000001,-0.2112,0.1592,-0.6505
46,2030841.0,811.031871,1.0,4.14,3.97,14.28,-2.5,-5.06,-43.19,-114.31,120.87,-39.0,-3.579066404838915,2.2900357629839907,-4.984053832948847,-19.55238168351347,18.06561632088332,-79.88223328250281,-0.731,-0.1698,0.157,-0.642
47,2030841.0,811.031871,1.0,4.14,3.97,14.28,-2.5,-5.06,-43.19,-114.31,120.87,-39.0,-3.579066404838915,2.2900357629839907,-4.984053832948847,-19.55238168351347,18.06561632088332,-79.88223328250281,-0.731,-0.1698,0.157,-0.642
48,2030876.0,811.082008,1.0,4.95,3.43,11.35,-2.5,-5.06,-43.19,-76.37,157.06,-8.38,-3.3071625856177205,-1.0959991260019977,-2.5607006276846977,-13.530302549412001,15.748572284340513,-79.85234457633116,-0.7453,-0.1178,0.13699999999999998,-0.6418
49,2030876.0,811.082008,1.0,4.95,3.43,11.35,-2.5,-5.06,-43.19,-76.37,157.06,-8.38,-3.3071625856177205,-1.0959991260019977,-2.5607006276846977,-13.530302549412001,15.748572284340513,-79.85234457633116,-0.7453,-0.1178,0.13699999999999998,-0.6418
50,2030913.0,811.1019299999999,1.0,4.5,2.55,9.84,3.06,0.06,-43.69,-42.88,104.69,47.38,-2.6143616380627672,-1.8011533555798709,-0.8469437511766014,-9.993587967554063,13.807290567361374,-81.23408016823862,-0.7444,-0.0871,0.1202,-0.6509999999999999
51,2030913.0,811.1019299999999,1.0,4.5,2.55,9.84,3.06,0.06,-43.69,-42.88,104.69,47.38,-2.6143616380627672,-1.8011533555798709,-0.8469437511766014,-9.993587967554063,13.807290567361374,-81.23408016823862,-0.7444,-0.0871,0.1202,-0.6509999999999999
52,2030950.0,811.146124,1.0,2.92,2.05,10.26,9.5,1.56,-43.69,-3.94,65.62,63.06,-2.5658398077132976,-0.5422933261188649,-0.7346442293439832,-7.396290017779932,12.630631138714767,-83.87198638988208,-0.7329,-0.0645,0.11,-0.6683
53,2030950.0,811.146124,1.0,2.92,2.05,10.26,9.5,1.56,-43.69,-3.94,65.62,63.06,-2.5658398077132976,-0.5422933261188649,-0.7346442293439832,-7.396290017779932,12.630631138714767,-83.87198638988208,-0.7329,-0.0645,0.11,-0.6683
54,2030985.0,811.206348,1.0,0.08,-0.16,11.45,9.5,1.56,-43.69,2.5,125.5,49.06,-0.6380072208371343,2.1227594504640317,-1.4281770614916611,-5.284543793645802,10.48830635783265,-85.67165837028584,-0.7261,-0.0461,0.0914,-0.6799
55,2030985.0,811.206348,1.0,0.08,-0.16,11.45,9.5,1.56,-43.69,2.5,125.5,49.06,-0.6380072208371343,2.1227594504640317,-1.4281770614916611,-5.284543793645802,10.48830635783265,-85.67165837028584,-0.7261,-0.0461,0.0914,-0.6799
56,2031017.0,811.2133269999999,1.0,0.22,-0.26,12.01,14.0,1.06,-42.0,-24.37,231.44,55.88,-0.615426547046592,0.5211005103132909,-2.1810855836430427,0.4125305035633525,5.456620099259026,-87.78380702299309,-0.7191,0.0036,0.0476,-0.6933
57,2031017.0,811.2133269999999,1.0,0.22,-0.26,12.01,14.0,1.06,-42.0,-24.37,231.44,55.88,-0.615426547046592,0.5211005103132909,-2.1810855836430427,0.4125305035633525,5.456620099259026,-87.78380702299309,-0.7191,0.0036,0.0476,-0.6933
58,2031052.0,811.2695719999999,1.0,2.25,-0.16,11.6,19.06,0.37,-40.38,48.44,231.19,47.0,-0.5669775967862307,-2.93753191498638,-1.625652596291742,5.089538374458754,0.27502000568243146,-89.09494687724344,-0.7113,0.0444,0.0024,-0.7015
59,2031052.0,811.2695719999999,1.0,2.25,-0.16,11.6,19.06,0.37,-40.38,48.44,231.19,47.0,-0.5669775967862307,-2.93753191498638,-1.625652596291742,5.089538374458754,0.27502000568243146,-89.09494687724344,-0.7113,0.0444,0.0024,-0.7015
60,2031089.0,811.276617,1.0,4.27,-6.63,8.27,26.87,-1.06,-34.38,102.25,164.94,20.31,6.845526832857896,-5.751580632005353,2.6904162619779437,6.937025592767178,-8.947229783297066,-89.17537067204425,-0.7054,0.0605,-0.078,-0.7020000000000001
61,2031089.0,811.276617,1.0,4.27,-6.63,8.27,26.87,-1.06,-34.38,102.25,164.94,20.31,6.845526832857896,-5.751580632005353,2.6904162619779437,6.937025592767178,-8.947229783297066,-89.17537067204425,-0.7054,0.0605,-0.078,-0.7020000000000001
62,2031124.0,811.340915,1.0,2.34,-2.66,7.52,26.87,-1.06,-34.38,-104.75,-55.75,39.88,2.4608945462369003,-3.766634569524329,2.8167957774882213,8.326672787534774,-6.89110540785609,-90.79574936750706,-0.6958,0.0726,-0.0601,-0.7120000000000001
63,2031124.0,811.340915,1.0,2.34,-2.66,7.52,26.87,-1.06,-34.38,-104.75,-55.75,39.88,2.4608945462369003,-3.766634569524329,2.8167957774882213,8.326672787534774,-6.89110540785609,-90.79574936750706,-0.6958,0.0726,-0.0601,-0.7120000000000001
64,2031161.0,811.3599280000001,1.0,-0.15,2.54,11.37,33.38,-4.88,-30.0,-58.06,-195.44,57.0,-3.286040983657544,-0.7778986119961885,-1.344484848219592,6.512305468988996,-1.2719924264668117,-92.85453921675224,-0.6868,0.0568,-0.0111,-0.7245
65,2031161.0,811.3599280000001,1.0,-0.15,2.54,11.37,33.38,-4.88,-30.0,-58.06,-195.44,57.0,-3.286040983657544,-0.7778986119961885,-1.344484848219592,6.512305468988996,-1.2719924264668117,-92.85453921675224,-0.6868,0.0568,-0.0111,-0.7245
66,2031198.0,811.363437,1.0,0.83,2.31,11.01,29.37,-2.69,-35.88,51.38,-130.13,75.0,-2.8020362671519043,-0.5624697400024606,-1.1056055207045503,1.5470330404085568,1.5470330404085568,-95.97520098011694,-0.6691,0.0135,0.0135,-0.743
67,2031198.0,811.363437,1.0,0.83,2.31,11.01,29.37,-2.69,-35.88,51.38,-130.13,75.0,-2.8020362671519043,-0.5624697400024606,-1.1056055207045503,1.5470330404085568,1.5470330404085568,-95.97520098011694,-0.6691,0.0135,0.0135,-0.743
68,2031233.0,811.404258,1.0,-0.37,-0.66,10.27,29.37,-2.69,-35.88,65.56,-145.56,10.19,0.8487481956208671,0.9603536432103894,-0.41111626178162375,-3.117274866889664,2.269061145645111,-96.92121959185582,-0.6623,-0.0272,0.0198,-0.7485
69,2031233.0,811.404258,1.0,-0.37,-0.66,10.27,29.37,-2.69,-35.88,65.56,-145.56,10.19,0.8487481956208671,0.9603536432103894,-0.41111626178162375,-3.117274866889664,2.269061145645111,-96.92121959185582,-0.6623,-0.0272,0.0198,-0.7485
70,2031267.0,811.461633,1.0,-0.93,0.16,10.99,24.75,-6.06,-39.19,4.19,-145.44,-41.25,0.2926781250001882,2.700822094338494,-0.8840234834564757,-7.6259663887868285,5.605762844556931,-95.29260089270693,-0.6686,-0.0665,0.0489,-0.7390000000000001
71,2031267.0,811.461633,1.0,-0.93,0.16,10.99,24.75,-6.06,-39.19,4.19,-145.44,-41.25,0.2926781250001882,2.700822094338494,-0.8840234834564757,-7.6259663887868285,5.605762844556931,-95.29260089270693,-0.6686,-0.0665,0.0489,-0.7390000000000001
72,2031302.0,811.477887,1.0,-0.01,0.05,10.81,19.56,-7.06,-40.0,49.0,-68.19,-4.94,0.5246081014839254,2.2292731840224898,-0.7580945501940892,-10.22366575133618,6.6729995322127,-94.63133329841952,-0.6696,-0.0891,0.0582,-0.7351
73,2031302.0,811.477887,1.0,-0.01,0.05,10.81,19.56,-7.06,-40.0,49.0,-68.19,-4.94,0.5246081014839254,2.2292731840224898,-0.7580945501940892,-10.22366575133618,6.6729995322127,-94.63133329841952,-0.6696,-0.0891,0.0582,-0.7351
74,2031341.0,811.517373,1.0,1.28,-0.31,9.63,15.75,-7.06,-43.25,54.63,-43.63,7.63,1.1265925780998811,0.9277573030807914,0.19720383752265924,-13.034229810442689,6.04177399090254,-94.91906676360666,-0.6645,-0.1135,0.0527,-0.7368
75,2031341.0,811.517373,1.0,1.28,-0.31,9.63,15.75,-7.06,-43.25,54.63,-43.63,7.63,1.1265925780998811,0.9277573030807914,0.19720383752265924,-13.034229810442689,6.04177399090254,-94.91906676360666,-0.6645,-0.1135,0.0527,-0.7368
76,2031374.0,811.579823,1.0,0.86,-0.12,9.86,15.75,-7.06,-43.25,46.63,-48.06,0.5,1.3429267957559403,1.6833758426664605,0.14557379734184472,-15.632898017228825,5.915551513947968,-94.7327966552025,-0.6615,-0.136,0.0516,-0.7357
77,2031374.0,811.579823,1.0,0.86,-0.12,9.86,15.75,-7.06,-43.25,46.63,-48.06,0.5,1.3429267957559403,1.6833758426664605,0.14557379734184472,-15.632898017228825,5.915551513947968,-94.7327966552025,-0.6615,-0.136,0.0516,-0.7357
78,2031411.0,811.598619,1.0,1.45,-0.4,9.56,14.25,-9.69,-42.0,27.81,-17.06,-8.13,1.622082904757652,1.011995036906379,0.31977416570292583,-16.072546557241562,5.5598717686300585,-94.59753382343494,-0.6619,-0.1398,0.0485,-0.7349
79,2031411.0,811.598619,1.0,1.45,-0.4,9.56,14.25,-9.69,-42.0,27.81,-17.06,-8.13,1.622082904757652,1.011995036906379,0.31977416570292583,-16.072546557241562,5.5598717686300585,-94.59753382343494,-0.6619,-0.1398,0.0485,-0.7349
80,2031448.0,811.644055,1.0,1.62,-0.19,9.81,13.19,-10.5,-42.38,10.38,-15.88,0.88,1.5274268555868036,1.028387063680832,0.033933527693735144,-16.825133117850115,5.594289991509483,-94.46244378855971,-0.6613,-0.1463,0.0488,-0.7341
81,2031448.0,811.644055,1.0,1.62,-0.19,9.81,13.19,-10.5,-42.38,10.38,-15.88,0.88,1.5274268555868036,1.028387063680832,0.033933527693735144,-16.825133117850115,5.594289991509483,-94.46244378855971,-0.6613,-0.1463,0.0488,-0.7341
82,2031482.0,811.6501820000001,1.0,1.93,0.23,9.64,13.19,-10.5,-42.38,-6.44,-7.31,-0.5,1.0564146117368944,0.7798307033388691,0.060714834904819874,-16.96415115593626,5.800810045139373,-94.44556964169912,-0.6609,-0.1475,0.0506,-0.7340000000000001
83,2031482.0,811.6501820000001,1.0,1.93,0.23,9.64,13.19,-10.5,-42.38,-6.44,-7.31,-0.5,1.0564146117368944,0.7798307033388691,0.060714834904819874,-16.96415115593626,5.800810045139373,-94.44556964169912,-0.6609,-0.1475,0.0506,-0.7340000000000001
84,2031515.0,811.709694,1.0,1.9,0.57,9.47,13.19,-11.19,-42.0,-14.31,-5.81,-3.38,0.6220472961964963,0.8504144942937995,0.18866412201132302,-16.801965875210325,6.317194167065648,-94.24328884347399,-0.6622,-0.1461,0.0551,-0.7328
85,2031515.0,811.709694,1.0,1.9,0.57,9.47,13.19,-11.19,-42.0,-14.31,-5.81,-3.38,0.6220472961964963,0.8504144942937995,0.18866412201132302,-16.801965875210325,6.317194167065648,-94.24328884347399,-0.6622,-0.1461,0.0551,-0.7328
86,2031552.0,811.7260809999999,1.0,2.07,1.06,9.43,12.5,-11.56,-41.56,-15.06,1.44,-6.06,0.05205366707565129,0.7444188423933795,0.12282167630313445,-16.5471716366683,6.650042440520529,-94.05820202109098,-0.6638,-0.1439,0.057999999999999996,-0.7317
87,2031552.0,811.7260809999999,1.0,2.07,1.06,9.43,12.5,-11.56,-41.56,-15.06,1.44,-6.06,0.05205366707565129,0.7444188423933795,0.12282167630313445,-16.5471716366683,6.650042440520529,-94.05820202109098,-0.6638,-0.1439,0.057999999999999996,-0.7317
88,2031589.0,811.770942,1.0,2.4,1.03,9.35,12.5,-11.56,-41.56,-5.44,6.0,-1.94,-0.0017102335666019652,0.3698137795538229,0.10579257173350244,-16.19985740781584,6.707435672786218,-93.95738073569972,-0.665,-0.1409,0.0585,-0.7311
89,2031589.0,811.770942,1.0,2.4,1.03,9.35,12.5,-11.56,-41.56,-5.44,6.0,-1.94,-0.0017102335666019652,0.3698137795538229,0.10579257173350244,-16.19985740781584,6.707435672786218,-93.95738073569972,-0.665,-0.1409,0.0585,-0.7311
90,2031622.0,811.832597,1.0,2.69,0.8,9.3,12.06,-9.25,-42.0,1.75,4.94,-2.44,0.19778188999003127,0.027365653019729645,0.09448065195901913,-16.095692494623034,6.592650878252481,-93.95738073569972,-0.6653,-0.14,0.0575,-0.7311
91,2031622.0,811.832597,1.0,2.69,0.8,9.3,12.06,-9.25,-42.0,1.75,4.94,-2.44,0.19778188999003127,0.027365653019729645,0.09448065195901913,-16.095692494623034,6.592650878252481,-93.95738073569972,-0.6653,-0.14,0.0575,-0.7311
92,2031659.0,811.850369,1.0,2.81,0.63,9.52,12.75,-10.06,-42.0,-1.06,2.13,-5.0,0.3877655490842615,-0.07054709168491335,-0.1315621624967438,-16.049401279911372,6.4319632645356775,-94.36123915025331,-0.6628,-0.1396,0.0561,-0.7335
93,2031659.0,811.850369,1.0,2.81,0.63,9.52,12.75,-10.06,-42.0,-1.06,2.13,-5.0,0.3877655490842615,-0.07054709168491335,-0.1315621624967438,-16.049401279911372,6.4319632645356775,-94.36123915025331,-0.6628,-0.1396,0.0561,-0.7335
94,2031693.0,811.895671,1.0,2.46,0.64,9.58,12.06,-9.69,-41.56,-4.63,-4.5,-0.88,0.3910896399886397,0.29238825307367755,-0.09280240924760186,-16.014684599323402,6.535260971441647,-94.74971670141693,-0.6603,-0.1393,0.057,-0.7358
95,2031693.0,811.895671,1.0,2.46,0.64,9.58,12.06,-9.69,-41.56,-4.63,-4.5,-0.88,0.3910896399886397,0.29238825307367755,-0.09280240924760186,-16.014684599323402,6.535260971441647,-94.74971670141693,-0.6603,-0.1393,0.057,-0.7358
96,2031726.0,811.904128,1.0,2.13,0.5,9.47,12.06,-9.69,-41.56,-3.94,-4.44,2.0,0.5144622381803974,0.5948360565916107,0.11906523024107862,-16.014684599323402,6.7992683543101915,-94.76663946259286,-0.66,-0.1393,0.0593,-0.7359
97,2031726.0,811.904128,1.0,2.13,0.5,9.47,12.06,-9.69,-41.56,-3.94,-4.44,2.0,0.5144622381803974,0.5948360565916107,0.11906523024107862,-16.014684599323402,6.7992683543101915,-94.76663946259286,-0.66,-0.1393,0.0593,-0.7359
98,2031763.0,811.970379,1.0,2.17,0.88,9.27,12.75,-10.06,-42.38,-8.81,-1.37,6.75,0.06524473900806937,0.5664400618352278,0.2624848306213874,-15.898972996932855,6.994427393261249,-95.44579560430292,-0.6555,-0.1383,0.061,-0.7399
99,2031763.0,811.970379,1.0,2.17,0.88,9.27,12.75,-10.06,-42.38,-8.81,-1.37,6.75,0.06524473900806937,0.5664400618352278,0.2624848306213874,-15.898972996932855,6.994427393261249,-95.44579560430292,-0.6555,-0.1383,0.061,-0.7399
100,2031800.0,811.9897129999999,1.0,2.26,0.63,9.4,12.5,-9.25,-42.38,0.63,0.69,11.0,0.28991978694348985,0.4654384821073481,0.13381104049528325,-15.737004132862339,6.971466463000762,-96.21517866036496,-0.6508,-0.1369,0.0608,-0.7444
101,2031800.0,811.9897129999999,1.0,2.26,0.63,9.4,12.5,-9.25,-42.38,0.63,0.69,11.0,0.28991978694348985,0.4654384821073481,0.13381104049528325,-15.737004132862339,6.971466463000762,-96.21517866036496,-0.6508,-0.1369,0.0608,-0.7444
102,2031833.0,812.037664,1.0,2.28,0.59,9.41,12.5,-9.25,-42.38,-3.31,1.69,4.75,0.2910531304411155,0.4189577047091609,0.11983615245831734,-15.482545411826456,6.994427393261249,-96.40412626430498,-0.6498,-0.1347,0.061,-0.7455
103,2031833.0,812.037664,1.0,2.28,0.59,9.41,12.5,-9.25,-42.38,-3.31,1.69,4.75,0.2910531304411155,0.4189577047091609,0.11983615245831734,-15.482545411826456,6.994427393261249,-96.40412626430498,-0.6498,-0.1347,0.061,-0.7455
104,2031867.0,812.105881,1.0,2.45,0.64,9.49,12.06,-9.0,-42.38,-2.75,2.38,4.44,0.19125146276792293,0.24880946685460345,-0.010361598607426359,-15.1934809103634,6.937025592767178,-96.95578604014551,-0.6468,-0.1322,0.0605,-0.7487
105,2031867.0,812.105881,1.0,2.45,0.64,9.49,12.06,-9.0,-42.38,-2.75,2.38,4.44,0.19125146276792293,0.24880946685460345,-0.010361598607426359,-15.1934809103634,6.937025592767178,-96.95578604014551,-0.6468,-0.1322,0.0605,-0.7487
106,2031902.0,812.127574,1.0,2.62,0.44,9.57,11.69,-10.5,-42.75,0.31,1.37,-2.44,0.3699239528594521,0.05983721148352405,-0.11819134771043592,-15.147239662385427,6.833706733841952,-97.49308186392095,-0.6434,-0.1318,0.0596,-0.7518
107,2031902.0,812.127574,1.0,2.62,0.44,9.57,11.69,-10.5,-42.75,0.31,1.37,-2.44,0.3699239528594521,0.05983721148352405,-0.11819134771043592,-15.147239662385427,6.833706733841952,-97.49308186392095,-0.6434,-0.1318,0.0596,-0.7518
108,2031939.0,812.131403,1.0,2.33,0.47,9.55,12.06,-9.0,-42.38,-5.19,-4.0,-6.25,0.3505124789820953,0.34225862966868703,-0.02250561136841434,-15.054764601110485,6.959986103018456,-97.58001140346657,-0.6428,-0.131,0.0607,-0.7523
109,2031939.0,812.131403,1.0,2.33,0.47,9.55,12.06,-9.0,-42.38,-5.19,-4.0,-6.25,0.3505124789820953,0.34225862966868703,-0.02250561136841434,-15.054764601110485,6.959986103018456,-97.58001140346657,-0.6428,-0.131,0.0607,-0.7523
110,2031974.0,812.176517,1.0,2.24,0.75,9.5,12.06,-9.0,-42.38,-6.13,-2.88,-0.56,0.05704236093085005,0.4821137224046718,0.02941048530422208,-15.02008899858815,7.155161830094744,-97.49308186392095,-0.6433,-0.1307,0.0624,-0.7518
111,2031974.0,812.176517,1.0,2.24,0.75,9.5,12.06,-9.0,-42.38,-6.13,-2.88,-0.56,0.05704236093085005,0.4821137224046718,0.02941048530422208,-15.02008899858815,7.155161830094744,-97.49308186392095,-0.6433,-0.1307,0.0624,-0.7518
112,2032011.0,812.1918019999999,1.0,2.22,0.7,9.49,12.06,-9.0,-42.0,1.12,-1.75,3.13,0.09432297796395236,0.4845314643608113,0.047816440815150685,-14.950741939900693,7.143680335170353,-97.91103310726488,-0.6406,-0.1301,0.0623,-0.7542
113,2032011.0,812.1918019999999,1.0,2.22,0.7,9.49,12.06,-9.0,-42.0,1.12,-1.75,3.13,0.09432297796395236,0.4845314643608113,0.047816440815150685,-14.950741939900693,7.143680335170353,-97.91103310726488,-0.6406,-0.1301,0.0623,-0.7542
114,2032046.0,812.252816,1.0,2.11,0.42,9.36,12.06,-9.69,-42.38,0.63,3.44,2.25,0.3610856369146336,0.4665600004799975,0.22072078428147,-14.777398324484167,6.959986103018456,-98.4534931114122,-0.6374,-0.1286,0.0607,-0.7573
115,2032046.0,812.252816,1.0,2.11,0.42,9.36,12.06,-9.69,-42.38,0.63,3.44,2.25,0.3610856369146336,0.4665600004799975,0.22072078428147,-14.777398324484167,6.959986103018456,-98.4534931114122,-0.6374,-0.1286,0.0607,-0.7573
116,2032078.0,812.271237,1.0,2.45,0.59,9.26,12.06,-9.69,-42.38,-0.25,4.0,2.94,0.11642680755296066,0.11472605057840785,0.2112613819292477,-14.592535930080526,6.845186330854816,-98.61153960499006,-0.6368,-0.127,0.0597,-0.7582
117,2032078.0,812.271237,1.0,2.45,0.59,9.26,12.06,-9.69,-42.38,-0.25,4.0,2.94,0.11642680755296066,0.11472605057840785,0.2112613819292477,-14.592535930080526,6.845186330854816,-98.61153960499006,-0.6368,-0.127,0.0597,-0.7582
118,2032113.0,812.318814,1.0,2.54,0.3,9.36,11.69,-9.25,-42.38,4.25,1.25,-1.0,0.413689959153326,-0.010332538150558679,0.11232414121275268,-14.650301303680088,6.695956892035202,-98.98130473446213,-0.6343,-0.1275,0.0584,-0.7603
119,2032113.0,812.318814,1.0,2.54,0.3,9.36,11.69,-9.25,-42.38,4.25,1.25,-1.0,0.413689959153326,-0.010332538150558679,0.11232414121275268,-14.650301303680088,6.695956892035202,-98.98130473446213,-0.6343,-0.1275,0.0584,-0.7603
120,2032150.0,812.342226,1.0,2.56,0.41,9.55,12.06,-9.25,-42.75,-4.06,-2.38,-7.06,0.3142153468530254,0.03777841969436047,-0.08395369779355022,-14.604088706058507,6.718914520918895,-99.10487032365977,-0.6334,-0.1271,0.0586,-0.7609999999999999
121,2032150.0,812.342226,1.0,2.56,0.41,9.55,12.06,-9.25,-42.75,-4.06,-2.38,-7.06,0.3142153468530254,0.03777841969436047,-0.08395369779355022,-14.604088706058507,6.718914520918895,-99.10487032365977,-0.6334,-0.1271,0.0586,-0.7609999999999999
122,2032185.0,812.392775,1.0,2.27,0.61,9.63,12.06,-9.25,-42.75,-4.25,-4.5,-2.19,0.15704579920940231,0.3861594691857177,-0.09729454151016093,-14.569430825374987,6.868145731332586,-98.96366523953266,-0.6343,-0.1268,0.0599,-0.7602
123,2032185.0,812.392775,1.0,2.27,0.61,9.63,12.06,-9.25,-42.75,-4.25,-4.5,-2.19,0.15704579920940231,0.3861594691857177,-0.09729454151016093,-14.569430825374987,6.868145731332586,-98.96366523953266,-0.6343,-0.1268,0.0599,-0.7602
124,2032218.0,812.4123139999999,1.0,2.15,0.64,9.43,12.75,-9.25,-42.0,-2.56,-2.38,0.75,0.10856048912913976,0.4683648111301688,0.1254388658549015,-14.557878496401068,6.959986103018456,-99.24627980878144,-0.6323,-0.1267,0.0607,-0.7618
125,2032218.0,812.4123139999999,1.0,2.15,0.64,9.43,12.75,-9.25,-42.0,-2.56,-2.38,0.75,0.10856048912913976,0.4683648111301688,0.1254388658549015,-14.557878496401068,6.959986103018456,-99.24627980878144,-0.6323,-0.1267,0.0607,-0.7618
126,2032254.0,812.460778,1.0,2.4,0.57,9.36,12.75,-9.0,-42.75,3.25,1.0,6.0,0.12553649904246844,0.1861678180956311,0.12966275546393646,-14.523222401516824,6.856665996646211,-99.68951411614924,-0.6295,-0.1264,0.0598,-0.7643
127,2032254.0,812.460778,1.0,2.4,0.57,9.36,12.75,-9.0,-42.75,3.25,1.0,6.0,0.12553649904246844,0.1861678180956311,0.12966275546393646,-14.523222401516824,6.856665996646211,-99.68951411614924,-0.6295,-0.1264,0.0598,-0.7643
128,2032287.0,812.46862,1.0,2.21,0.47,9.47,12.75,-9.0,-42.75,3.81,-1.5,4.63,0.2750614325903654,0.3682506664106435,0.08170102044285876,-14.534774284595127,6.7992683543101915,-99.8317785547328,-0.6285,-0.1265,0.0593,-0.7651
129,2032287.0,812.46862,1.0,2.21,0.47,9.47,12.75,-9.0,-42.75,3.81,-1.5,4.63,0.2750614325903654,0.3682506664106435,0.08170102044285876,-14.534774284595127,6.7992683543101915,-99.8317785547328,-0.6285,-0.1265,0.0593,-0.7651
130,2032322.0,812.533811,1.0,2.33,0.5,9.38,12.5,-8.19,-42.75,1.63,2.19,1.12,0.2081340891023749,0.2172901932915264,0.13334833134245727,-14.442363367873067,6.707435672786218,-100.04556964502136,-0.6274,-0.1257,0.0585,-0.7663
131,2032322.0,812.533811,1.0,2.33,0.5,9.38,12.5,-8.19,-42.75,1.63,2.19,1.12,0.2081340891023749,0.2172901932915264,0.13334833134245727,-14.442363367873067,6.707435672786218,-100.04556964502136,-0.6274,-0.1257,0.0585,-0.7663
132,2032355.0,812.5436030000001,1.0,2.57,0.32,9.44,12.06,-9.25,-41.56,2.63,2.06,-3.38,0.3503162228273224,-0.0514909367603642,0.02424092925185839,-14.407711711634985,6.581172764918962,-100.33136679814685,-0.6256,-0.1254,0.0574,-0.7679
133,2032355.0,812.5436030000001,1.0,2.57,0.32,9.44,12.06,-9.25,-41.56,2.63,2.06,-3.38,0.3503162228273224,-0.0514909367603642,0.02424092925185839,-14.407711711634985,6.581172764918962,-100.33136679814685,-0.6256,-0.1254,0.0574,-0.7679
134,2032392.0,812.599804,1.0,2.45,0.35,9.49,12.5,-9.25,-42.75,-3.31,-2.31,-6.88,0.3462901480228146,0.07839072672020497,0.005678720206011789,-14.38461134345722,6.581172764918962,-100.33136679814685,-0.6255,-0.1252,0.0574,-0.7679
135,2032392.0,812.599804,1.0,2.45,0.35,9.49,12.5,-9.25,-42.75,-3.31,-2.31,-6.88,0.3462901480228146,0.07839072672020497,0.005678720206011789,-14.38461134345722,6.581172764918962,-100.33136679814685,-0.6255,-0.1252,0.0574,-0.7679
136,2032424.0,812.607481,1.0,2.2,0.59,9.51,12.5,-9.25,-42.75,-5.0,-1.75,-3.63,0.13836219555526102,0.3782823787526753,0.035981734995486285,-14.303764676023915,6.718914520918895,-100.17050104885807,-0.6268,-0.1245,0.0586,-0.767
137,2032424.0,812.607481,1.0,2.2,0.59,9.51,12.5,-9.25,-42.75,-5.0,-1.75,-3.63,0.13836219555526102,0.3782823787526753,0.035981734995486285,-14.303764676023915,6.718914520918895,-100.17050104885807,-0.6268,-0.1245,0.0586,-0.767
138,2032461.0,812.668929,1.0,2.4,0.64,9.48,12.75,-8.56,-41.56,-0.06,2.06,3.69,0.03316867534414941,0.18512787264975328,0.008454885095209974,-14.211377245158012,6.730393436549607,-100.33136679814685,-0.6257,-0.1237,0.0587,-0.7679
139,2032461.0,812.668929,1.0,2.4,0.64,9.48,12.75,-8.56,-41.56,-0.06,2.06,3.69,0.03316867534414941,0.18512787264975328,0.008454885095209974,-14.211377245158012,6.730393436549607,-100.33136679814685,-0.6257,-0.1237,0.0587,-0.7679
140,2032496.0,812.682996,1.0,2.36,0.6,9.45,12.75,-9.0,-41.56,1.44,-0.44,4.88,0.07445069526572584,0.2043781319288341,0.05038090402054785,-14.211377245158012,6.684478178549483,-100.70777770605257,-0.6232,-0.1237,0.0583,-0.77
141,2032496.0,812.682996,1.0,2.36,0.6,9.45,12.75,-9.0,-41.56,1.44,-0.44,4.88,0.07445069526572584,0.2043781319288341,0.05038090402054785,-14.211377245158012,6.684478178549483,-100.70777770605257,-0.6232,-0.1237,0.0583,-0.77
142,2032529.0,812.740405,1.0,2.26,0.55,9.42,12.75,-9.0,-41.56,1.56,0.44,2.5,0.14411727764574855,0.2756277448095612,0.10872447148746113,-14.222925164993965,6.627085616027942,-100.85156520381315,-0.6222,-0.1238,0.0578,-0.7708
143,2032529.0,812.740405,1.0,2.26,0.55,9.42,12.75,-9.0,-41.56,1.56,0.44,2.5,0.14411727764574855,0.2756277448095612,0.10872447148746113,-14.222925164993965,6.627085616027942,-100.85156520381315,-0.6222,-0.1238,0.0578,-0.7708
144,2032566.0,812.759738,1.0,2.4,0.35,9.38,11.25,-9.69,-42.0,4.5,1.44,-0.75,0.3193466985151577,0.07282287783946778,0.12369515581061385,-14.24602144035678,6.46639524800481,-101.23005073336391,-0.6197,-0.124,0.0564,-0.7729
145,2032566.0,812.759738,1.0,2.4,0.35,9.38,11.25,-9.69,-42.0,4.5,1.44,-0.75,0.3193466985151577,0.07282287783946778,0.12369515581061385,-14.24602144035678,6.46639524800481,-101.23005073336391,-0.6197,-0.124,0.0564,-0.7729
146,2032601.0,812.8117490000001,1.0,2.55,0.29,9.45,11.69,-9.25,-42.38,-2.5,-0.63,-6.31,0.3513430115628204,-0.07598803604476684,0.02095207360742002,-14.188281840563285,6.4319632645356775,-101.26617635567743,-0.6195,-0.1235,0.0561,-0.7731
147,2032601.0,812.8117490000001,1.0,2.55,0.29,9.45,11.69,-9.25,-42.38,-2.5,-0.63,-6.31,0.3513430115628204,-0.07598803604476684,0.02095207360742002,-14.188281840563285,6.4319632645356775,-101.26617635567743,-0.6195,-0.1235,0.0561,-0.7731
148,2032635.0,812.831092,1.0,2.34,0.55,9.61,11.69,-9.25,-42.38,-5.81,-3.25,-4.31,0.1381220433170346,0.23338082865570905,-0.09570606762178356,-14.130545861300053,6.592650878252481,-101.12175699059144,-0.6206,-0.12300000000000001,0.0575,-0.7723
149,2032635.0,812.831092,1.0,2.34,0.55,9.61,11.69,-9.25,-42.38,-5.81,-3.25,-4.31,0.1381220433170346,0.23338082865570905,-0.09570606762178356,-14.130545861300053,6.592650878252481,-101.12175699059144,-0.6206,-0.12300000000000001,0.0575,-0.7723
150,2032668.0,812.834804,1.0,2.27,0.68,9.44,11.69,-10.06,-43.19,-2.81,0.0,-0.5,-0.013103414291171069,0.29589081491064395,0.07828030481543458,-14.084359674365961,6.6729995322127,-101.37463662093218,-0.6188,-0.1226,0.0582,-0.7737
151,2032668.0,812.834804,1.0,2.27,0.68,9.44,11.69,-10.06,-43.19,-2.81,0.0,-0.5,-0.013103414291171069,0.29589081491064395,0.07828030481543458,-14.084359674365961,6.6729995322127,-101.37463662093218,-0.6188,-0.1226,0.0582,-0.7737
152,2032705.0,812.875632,1.0,2.33,0.64,9.45,12.5,-9.0,-42.38,2.0,0.0,5.5,0.014995703381266571,0.2291108981235156,0.05532786783550669,-14.084359674365961,6.627085616027942,-101.64633756490149,-0.617,-0.1226,0.0578,-0.7752
153,2032705.0,812.875632,1.0,2.33,0.64,9.45,12.5,-9.0,-42.38,2.0,0.0,5.5,0.014995703381266571,0.2291108981235156,0.05532786783550669,-14.084359674365961,6.627085616027942,-101.64633756490149,-0.617,-0.1226,0.0578,-0.7752
154,2032738.0,812.9423830000001,1.0,2.42,0.63,9.44,12.5,-9.0,-42.38,1.88,1.12,5.44,0.008978660599623767,0.13492162721640089,0.04198843196994595,-14.095906005217,6.569694717687418,-101.827911474709,-0.6158,-0.1227,0.0573,-0.7762
155,2032738.0,812.9423830000001,1.0,2.42,0.63,9.44,12.5,-9.0,-42.38,1.88,1.12,5.44,0.008978660599623767,0.13492162721640089,0.04198843196994595,-14.095906005217,6.569694717687418,-101.827911474709,-0.6158,-0.1227,0.0573,-0.7762
156,2032773.0,812.960166,1.0,2.52,0.6,9.33,11.0,-8.56,-42.75,4.5,-1.69,1.37,0.024138035853632108,0.005745861813538533,0.12374318746187818,-14.199829470388696,6.454917855397503,-102.06448850767781,-0.614,-0.1236,0.0563,-0.7775
157,2032773.0,812.960166,1.0,2.52,0.6,9.33,11.0,-8.56,-42.75,4.5,-1.69,1.37,0.024138035853632108,0.005745861813538533,0.12374318746187818,-14.199829470388696,6.454917855397503,-102.06448850767781,-0.614,-0.1236,0.0563,-0.7775
158,2032807.0,813.0146589999999,1.0,2.35,0.28,9.44,11.0,-10.06,-41.19,4.31,-2.25,-4.13,0.4085610363263018,0.11564471504277385,0.08377983839243798,-14.338412369029564,6.340147475413156,-102.3747728112858,-0.6118,-0.1248,0.0553,-0.7792
159,2032807.0,813.0146589999999,1.0,2.35,0.28,9.44,11.0,-10.06,-41.19,4.31,-2.25,-4.13,0.4085610363263018,0.11564471504277385,0.08377983839243798,-14.338412369029564,6.340147475413156,-102.3747728112858,-0.6118,-0.1248,0.0553,-0.7792
160,2032842.0,813.0342099999999,1.0,2.29,0.26,9.53,13.19,-8.56,-42.0,-3.31,-0.81,-4.31,0.43512900129835136,0.18916965374510186,0.013413681278233723,-14.24602144035678,6.420486066048695,-102.19212653307552,-0.6131,-0.124,0.055999999999999994,-0.7782
161,2032842.0,813.0342099999999,1.0,2.29,0.26,9.53,13.19,-8.56,-42.0,-3.31,-0.81,-4.31,0.43512900129835136,0.18916965374510186,0.013413681278233723,-14.24602144035678,6.420486066048695,-102.19212653307552,-0.6131,-0.124,0.055999999999999994,-0.7782
162,2032877.0,813.086363,1.0,2.36,0.63,9.43,13.19,-8.56,-42.0,-5.44,-1.31,-0.63,0.021953518298853003,0.19284999667707536,0.06736219637616793,-14.130545861300053,6.546738821065048,-102.13740297255077,-0.6136,-0.12300000000000001,0.0571,-0.7779
163,2032877.0,813.086363,1.0,2.36,0.63,9.43,13.19,-8.56,-42.0,-5.44,-1.31,-0.63,0.021953518298853003,0.19284999667707536,0.06736219637616793,-14.130545861300053,6.546738821065048,-102.13740297255077,-0.6136,-0.12300000000000001,0.0571,-0.7779
164,2032914.0,813.104782,1.0,2.27,0.66,9.38,12.5,-9.0,-41.56,-0.12,0.19,4.56,-0.009832580198015084,0.28281199737070906,0.1374814372687716,-14.095906005217,6.638563994932457,-102.2651416958551,-0.6126,-0.1227,0.0579,-0.7786
165,2032914.0,813.104782,1.0,2.27,0.66,9.38,12.5,-9.0,-41.56,-0.12,0.19,4.56,-0.009832580198015084,0.28281199737070906,0.1374814372687716,-14.095906005217,6.638563994932457,-102.2651416958551,-0.6126,-0.1227,0.0579,-0.7786
