TIME,ELAPSED_SECONDS,PSTATE,acc_x,acc_y,acc_z,mag_x,mag_y,mag_z,gyr_x,gyr_y,gyr_z,lin_x,lin_y,lin_z,eul_x,eul_y,eul_z,qua_w,qua_x,qua_y,qua_z
1554157.0,163.995887,1.0,2.22,2.3,-9.68,10.06,-22.19,44.88,-3.0,5.5,6.88,0.3986380906388338,0.5200356241950143,-0.366424787017932,-126.32740410450675,-50.63069251685698,-16.396650200988272,-0.0236,-0.8923,-0.4276,-0.1426
1554192.0,164.022656,1.0,2.2,1.58,-9.65,9.25,-23.0,44.5,-0.69,1.06,-2.69,-0.15054903963837973,0.08398449291073945,-0.2147861042524486,-126.32740410450675,-50.64336935396991,-16.419805484293857,-0.0233,-0.8923,-0.4277,-0.1428
1554229.0,164.056381,1.0,2.27,1.62,-9.33,9.69,-23.69,44.5,-4.75,-0.88,5.81,-0.007978661415587673,0.013226108520001084,0.06878773916392866,-126.32740410450675,-50.592665984474735,-16.466118077182383,-0.0245,-0.8923,-0.4273,-0.1432
1554264.0,164.098392,1.0,2.21,2.08,-9.23,9.69,-23.69,44.5,-0.56,-0.56,5.38,0.32757333661647814,0.3489173578100417,0.10230291291800242,-126.53082829262021,-50.3899583498149,-16.489275388774946,-0.0246,-0.8931,-0.4257,-0.1434
1554296.0,164.121892,1.0,2.46,2.07,-9.61,9.0,-23.0,44.5,-9.38,3.5,-0.81,0.3095606564777842,0.15840740276991114,-0.320920256221811,-126.47990511760632,-50.339307819368216,-16.709303811577854,-0.0268,-0.8929,-0.4253,-0.1453
1554333.0,164.167482,1.0,2.3,2.33,-9.46,9.69,-24.06,44.88,5.44,-0.44,1.69,0.43505107418802513,0.4252474126510679,-0.18536657328897022,-126.50536109240298,-50.28866780725309,-16.767216307875252,-0.0277,-0.893,-0.4249,-0.1458
1554368.0,164.187293,1.0,2.07,1.79,-9.25,8.56,-23.69,42.88,6.56,-0.75,-1.69,-0.007021727913982367,0.26736716332858973,0.16403803563522246,-126.47990511760632,-50.36463176877203,-16.616652750638245,-0.0255,-0.8929,-0.4255,-0.1445
1554403.0,164.232473,1.0,2.06,1.75,-9.37,8.56,-23.69,42.88,-0.69,-2.38,-0.81,-0.0710656534060552,0.2504110657929951,0.05804784527882134,-126.45446035214495,-50.440619415051984,-16.570331326030242,-0.0257,-0.8928,-0.4261,-0.1441
1554440.0,164.272953,1.0,2.11,1.8,-9.27,9.0,-23.37,44.19,-0.44,0.5,0.75,0.028687203404607065,0.22851633001458704,0.1333900876810148,-126.47990511760632,-50.402622627844096,-16.524012627926176,-0.026,-0.8929,-0.4258,-0.1437
1554475.0,164.297886,1.0,2.16,1.84,-9.38,8.19,-24.06,44.88,-0.75,2.63,0.31,0.04382553578725812,0.2218704259762861,0.009484448857666194,-126.45446035214495,-50.402622627844096,-16.59349169701811,-0.0264,-0.8928,-0.4258,-0.1443
1554507.0,164.34591,1.0,2.16,1.37,-9.42,8.19,-24.06,44.88,-0.5,4.25,1.81,-0.34215426870445353,-0.06745836837497024,0.05179070706586053,-126.45446035214495,-50.351969465243805,-16.720885966499374,-0.0266,-0.8928,-0.4254,-0.1454
1554542.0,164.377463,1.0,1.97,1.97,-9.42,9.0,-24.06,43.25,-5.31,-1.31,4.94,-0.03503430611761216,0.43756072303135013,-0.00688724255709694,-126.55630673438098,-50.187419272308674,-16.81354941000451,-0.0285,-0.8932,-0.4241,-0.1462
1554581.0,164.41739,1.0,1.95,1.81,-9.36,9.0,-23.69,44.5,-7.94,2.19,5.81,-0.17043369258535523,0.33987486012892576,0.08329474392280467,-126.76054091134182,-49.947121594647854,-16.894639006068054,-0.0295,-0.894,-0.4222,-0.1469
1554614.0,164.428259,1.0,2.48,1.81,-10.67,9.0,-23.69,44.5,-11.25,-3.5,6.38,-0.26751667808916935,-0.002856431066083409,-1.2930719184872252,-126.93984342653314,-49.69442993487327,-16.998909587512788,-0.0318,-0.8947,-0.4202,-0.1478
1554649.0,164.481069,1.0,2.52,2.47,-11.17,9.0,-23.37,42.0,-19.31,-38.81,15.81,0.17637215596608602,0.20525904448673982,-1.9043261159032454,-127.81886761171006,-49.02603833164671,-16.15356023236983,-0.04,-0.8981,-0.4149,-0.1405
1554683.0,164.50835,1.0,2.41,3.68,-10.48,8.56,-24.5,42.0,20.31,-80.37,7.0,1.4748051728389804,0.7889182060622987,-1.4353897511444007,-128.76486449761617,-48.610767998557584,-14.188281840563283,-0.0464,-0.9017,-0.4116,-0.1235
1554720.0,164.545388,1.0,2.37,4.63,-11.53,11.56,-23.69,43.25,34.31,-158.25,-0.94,2.7587388932237573,0.8906157392194269,-2.505574142049607,-130.18802216268048,-48.38454346943903,-9.188627520029689,-0.0541,-0.907,-0.4098,-0.0801
1554755.0,164.587321,1.0,0.52,5.49,-9.55,11.56,-23.69,43.25,66.75,-191.06,-46.5,3.7638527994732853,2.175368907958947,-0.32815055147523076,-129.8895440244663,-49.51769926487409,-1.581413711340907,-0.0614,-0.9059,-0.4188,-0.0138
1554792.0,164.637292,1.0,-0.42,1.42,-7.92,17.19,-23.37,41.69,95.56,-139.44,-105.0,0.9576057654011992,0.19819443126364922,1.8089684506079244,-127.40350962041992,-52.029179404570776,3.782208130568333,-0.054,-0.8965,-0.4386,0.033
1554829.0,164.666596,1.0,-1.57,1.17,-5.34,23.87,-19.19,41.69,69.62,-73.31,-129.44,0.5888575570635748,1.162491194145673,4.270291900940394,-122.39841108220122,-56.640582553149535,8.2807155569704,-0.0434,-0.8763,-0.4744,0.0722
1554864.0,164.697349,1.0,-1.12,-1.99,-6.03,23.87,-19.19,41.69,42.5,7.0,-149.5,-1.5994275463664809,-0.8076879489502704,3.6127116970263105,-118.29715573552454,-60.715817707521275,9.407070184120801,-0.0294,-0.8585,-0.5054,0.082
1554898.0,164.768811,1.0,-1.21,-0.55,-4.07,29.06,-13.56,40.06,-24.69,87.5,-152.38,-0.6235206295611686,0.5200948024040676,5.602815628735605,-112.71282300150172,-66.78891793624743,6.994427393261249,-0.0143,-0.8325,-0.5504,0.061
1554933.0,164.771802,1.0,0.37,-2.68,-4.23,29.37,-9.5,40.5,-13.31,279.44,-146.94,-2.255489357834383,-1.1537109589434573,5.4714546433972995,-108.7801674720705,-71.1544897805901,1.2834522947560847,0.0168,-0.813,-0.5818,0.0112
1554970.0,164.792463,1.0,2.63,-4.13,-4.28,23.06,-7.19,45.38,-77.56,450.44,-107.19,-3.6454384956463954,-2.347753199178908,4.959895096953574,-102.92489803406494,-74.89006002631827,-12.204140573704523,0.0851,-0.7822,-0.608,-0.1063
1555005.0,164.838313,1.0,6.92,-2.61,-7.23,23.06,-7.19,45.38,-154.75,380.06,-39.88,-2.9062039836350975,-2.98596935045033,0.3404276571815785,-97.70183943099727,-73.51078365135078,-28.080090858618387,0.1269,-0.753,-0.5984,-0.2426
1555042.0,164.869972,1.0,9.96,-2.2,-10.58,6.56,-7.19,49.75,-189.31,263.31,51.94,-4.081077431574989,-2.136413903248912,-4.148941805132955,-95.83832110194955,-69.50045150736491,-37.810002605741936,0.1385,-0.7422,-0.57,-0.324
1555079.0,164.911643,1.0,10.19,-0.78,-10.14,-8.0,-14.56,48.25,-245.31,120.44,107.69,-3.886256152527092,-1.2457975579711695,-3.999475508682673,-97.68442635735761,-61.22111365086855,-47.093849573149654,0.1194,-0.7529,-0.5092,-0.3995
1555113.0,164.939995,1.0,10.82,1.46,-9.07,-8.0,-14.56,48.25,-229.69,3.25,171.13,-1.6803058575940781,-1.0481364691822632,-4.248487216224721,-101.80973815523876,-53.949783779378244,-50.63069251685698,0.0951,-0.7761,-0.4536,-0.4276
1555148.0,164.986405,1.0,10.73,3.8,-8.48,-15.19,-22.06,45.0,-186.19,-149.06,173.63,0.615341059265246,-0.02285689286581799,-4.374468888974556,-110.00958136957878,-44.38257587959071,-50.757490780754914,0.0509,-0.8192,-0.3777,-0.4286
1555185.0,165.01468,1.0,10.22,8.79,-9.57,-18.5,-28.06,38.88,-176.5,-230.94,127.81,3.2235066849365532,3.890419659074679,-5.9340945671561105,-117.58578661368068,-38.30698746477587,-47.25639974151138,0.0087,-0.8553,-0.3281,-0.4008
1555222.0,165.048592,1.0,7.38,10.26,-9.56,-15.75,-31.25,37.25,-41.06,-276.88,8.19,3.816916584362359,5.472168961537344,-4.5673583012501044,-127.04255474483057,-34.687040804634904,-38.44045190034536,-0.0396,-0.8951,-0.2981,-0.3292
1555257.0,165.088642,1.0,6.45,14.35,-7.23,-15.75,-31.25,37.25,74.81,-248.06,-117.44,8.97366951975868,7.566966614253141,-2.921750198333349,-131.1213744286973,-38.3312497043692,-28.41094741939909,-0.0557,-0.9104,-0.3283,-0.2454
1555294.0,165.123499,1.0,4.33,5.42,-4.86,-8.0,-32.75,39.69,273.81,-150.38,-282.75,4.840286435150253,1.0015429869903503,2.928173506552417,-128.4213907260083,-46.681672051659035,-20.459995384570266,-0.0294,-0.9004,-0.3962,-0.1776
1555331.0,165.162836,1.0,1.97,-0.96,-2.6,4.69,-27.06,43.69,155.88,-17.25,-251.25,-0.3727478459410257,-1.7827666810292762,6.935186609260326,-119.26487102928002,-58.68116315004746,-14.222925164993965,0.0133,-0.8628,-0.49,-0.1238
1555367.0,165.19468,1.0,1.81,-3.83,-8.83,4.69,-27.06,43.69,67.06,20.12,-139.25,-4.148743320901693,-1.7139499197217063,1.1023864165623092,-113.94309450479719,-64.20019215099852,-13.426452603767608,0.0303,-0.8384,-0.5314,-0.1169
1555400.0,165.236413,1.0,2.09,-4.86,-8.09,11.38,-16.56,48.19,74.19,8.56,-37.19,-4.788694024405768,-2.222394722568752,1.7094176803910894,-111.19726220866139,-67.10488432031785,-12.492290914481536,0.0423,-0.8251,-0.5527,-0.1088
1555435.0,165.278685,1.0,2.2,-6.75,-8.38,13.25,-12.19,49.0,-46.44,3.63,71.12,-6.426923736459479,-3.1958150379252563,1.4935087447881976,-113.2733386110762,-64.9321310357427,-12.838176201348999,0.0419,-0.8352,-0.5368,-0.1118
1555472.0,165.302652,1.0,4.03,-4.24,-11.0,12.5,-12.56,48.5,-125.69,54.25,165.31,-4.093225626910109,-3.504496330511354,-1.426448834989337,-117.14486104081259,-60.30456759010976,-15.725436142775802,0.0268,-0.8533,-0.5023,-0.1368
1555507.0,165.339539,1.0,4.83,0.51,-10.09,12.5,-12.56,48.5,-158.13,-2.38,224.0,0.18145608122253032,-2.081828130626282,-1.1947210656954237,-125.1215196986378,-51.03668173616908,-18.820214993044136,-0.0067,-0.8875,-0.4308,-0.1635
1555544.0,165.368344,1.0,4.52,7.35,-8.36,10.25,-18.56,47.25,-160.44,-74.37,219.0,5.136204791559975,2.65790407268168,-0.7241356439858517,-131.70630400699523,-43.62865462912294,-19.23849904872923,-0.0367,-0.9125,-0.3716,-0.1671
1555580.0,165.418747,1.0,3.39,7.71,-6.71,5.38,-25.69,43.19,-31.37,-21.62,64.19,4.5823124915408915,3.6526841925137266,0.7722374336164695,-136.28110106832045,-38.0038595239246,-18.959614614971,-0.0743,-0.9281,-0.3256,-0.1647
1555617.0,165.433464,1.0,2.89,5.53,-9.13,5.38,-25.69,43.19,-27.62,18.31,27.0,1.9530739575369223,2.2591920403619694,-0.8409531782348196,-136.96325573717925,-36.92694357562124,-19.436111711406607,-0.0763,-0.9303,-0.3167,-0.1688
1555650.0,165.485447,1.0,2.77,3.8,-9.96,3.5,-30.87,42.06,8.63,-5.31,-3.13,0.511168580985875,0.9844090509532958,-1.1516411761923049,-136.99450746728783,-36.661263794005485,-19.854779083760313,-0.0759,-0.9304,-0.3145,-0.1724
1555685.0,165.527318,1.0,2.45,3.12,-8.97,3.06,-31.19,42.06,10.56,4.63,-18.31,0.2942915454803301,0.6794750493223131,0.026593448854333346,-136.52797852346418,-37.301660334972226,-19.761718953980246,-0.0741,-0.9289,-0.3198,-0.1716
1555722.0,165.550256,1.0,2.12,2.47,-8.85,3.5,-30.87,42.5,2.06,5.44,-7.0,-0.2517008905230278,0.41955012069401854,0.3897277661735181,-136.21958862710648,-37.71311628724267,-19.761718953980246,-0.0711,-0.9279,-0.3232,-0.1716
1555757.0,165.589953,1.0,2.44,2.18,-9.57,3.5,-30.87,42.5,4.5,15.5,-10.19,-0.5073974511024717,0.020524652564470502,-0.2944898646515046,-135.70001200168377,-38.11295365085032,-20.19223344229395,-0.0696,-0.9262,-0.3265,-0.1753
1555793.0,165.626351,1.0,2.54,3.07,-9.45,3.5,-30.87,41.19,8.13,-2.06,-8.38,0.14148625623895894,0.6736195156954488,-0.4259067864229156,-135.4877437505904,-38.379779541740355,-20.19223344229395,-0.0679,-0.9255,-0.3287,-0.1753
1555828.0,165.667489,1.0,2.69,2.08,-8.4,3.5,-30.06,42.06,7.44,-9.69,-6.56,0.11313184339447924,-0.1965059548880858,0.7473406115474948,-135.3668779333915,-38.719689385129655,-19.843145845453694,-0.0674,-0.9251,-0.3315,-0.1723
1555863.0,165.682926,1.0,2.7,2.87,-8.99,3.5,-30.06,42.06,-4.81,7.38,-4.81,0.3221828759832055,0.36031732087043644,0.0029073665612813215,-135.18615927411605,-38.75612925877516,-20.040939097265657,-0.0701,-0.9245,-0.3318,-0.174
1555898.0,165.736457,1.0,2.77,2.69,-9.43,4.25,-29.37,42.0,2.69,7.5,-4.94,0.07757585781851262,0.20868357706033847,-0.38080960242046835,-134.85662424793804,-39.03563741685095,-20.285355318851703,-0.0683,-0.9234,-0.3341,-0.1761
1555933.0,165.767389,1.0,2.85,1.33,-9.39,4.25,-29.37,41.75,7.31,8.69,-11.25,-0.6701136803251975,-0.8471255862118372,-0.036968536728569035,-134.38132917213414,-39.54666937259589,-20.4134200209308,-0.066,-0.9218,-0.3383,-0.1772
1555970.0,165.802294,1.0,2.76,2.92,-9.47,4.25,-29.37,41.75,-12.88,4.13,-0.81,0.13173566573158468,0.40091806040092637,-0.4718134271479837,-134.1160248878201,-39.65628250180669,-20.69292362085707,-0.0678,-0.9209,-0.3392,-0.1796
1556002.0,165.831344,1.0,2.56,2.56,-8.92,4.56,-29.69,41.19,10.69,-0.19,-9.13,0.01170565817613678,0.2775151340932277,0.18394516570752018,-133.99857662596108,-39.88781236546699,-20.588095276846204,-0.066,-0.9205,-0.3411,-0.1787
