TIME,ELAPSED_SECONDS,PSTATE,acc_x,acc_y,acc_z,mag_x,mag_y,mag_z,gyr_x,gyr_y,gyr_z,lin_x,lin_y,lin_z,eul_x,eul_y,eul_z,qua_w,qua_x,qua_y,qua_z
1585674.0,195.547526,1.0,-0.65,-0.44,-9.71,23.0,-8.88,44.38,3.81,-14.88,0.25,-0.1789071799169272,0.4057142049038531,0.07507313882722144,-115.17264708179559,-64.72851792100349,2.452446574526375,0.0139,-0.8442,-0.5353,0.0214
1585711.0,195.591211,1.0,-0.48,-0.7,-10.06,23.37,-8.5,43.56,6.25,-13.75,-0.25,-0.2569975970531435,0.07287735449599267,-0.2855569502319746,-115.17264708179559,-64.72851792100349,2.9797163137078666,0.0128,-0.8442,-0.5353,0.026
1585745.0,195.629138,1.0,-0.71,-0.58,-9.66,23.37,-8.5,43.56,3.06,-25.31,1.31,-0.20757057721270217,0.2402928031181411,0.10844017425147534,-115.1512723286105,-64.71495187215974,3.5873017007906127,0.0104,-0.8441,-0.5352,0.0313
1585778.0,195.655859,1.0,-1.08,-0.61,-9.54,25.19,-8.06,42.75,5.38,-20.69,2.0,-0.29663926553982756,0.4285196138381983,0.20048135237070674,-115.10854164041076,-64.70138684078717,4.539012581284228,0.0073,-0.8439,-0.5351,0.0396
1585813.0,195.704276,1.0,-1.05,-0.73,-9.31,25.56,-8.5,42.88,-1.88,-5.81,-1.94,-0.3875462069209656,0.310712808637392,0.4223671031532792,-115.04449255970867,-64.72851792100349,4.802792327898412,0.0058,-0.8436,-0.5353,0.0419
1585850.0,195.742052,1.0,-0.92,-0.7,-9.5,25.19,-8.88,42.5,1.31,6.69,0.94,-0.2873390818299826,0.20833083736778138,0.24315510983276667,-115.04449255970867,-64.71495187215974,4.791323123878448,0.0063,-0.8436,-0.5352,0.0418
1585885.0,195.767382,1.0,-1.36,-0.7,-9.04,25.19,-8.88,42.5,-4.5,22.0,0.44,-0.5379655348941679,0.6756879997661782,0.6789318398989757,-115.10854164041076,-64.70138684078717,4.4587366294239885,0.008,-0.8439,-0.5351,0.0389
1585922.0,195.808368,1.0,-0.26,-0.84,-9.48,25.56,-8.06,44.5,-34.13,124.12,-18.12,-0.5250967829458723,0.057552972919781786,0.30062238464731017,-114.87396927454428,-65.08159370090407,1.1917736982377245,0.0176,-0.8428,-0.5379,0.0104
1585956.0,195.831224,1.0,1.08,0.37,-11.04,23.0,-8.88,45.25,-43.44,123.0,-19.94,0.656033780326795,-0.0594699225996429,-1.2726542654932125,-114.4070649484192,-65.43536500136206,-2.7160742546883188,0.0261,-0.8406,-0.5405,-0.0237
1585991.0,195.867449,1.0,1.03,0.09,-10.26,23.0,-8.88,45.25,-6.38,51.81,-13.25,0.048953147695521504,0.2460664642502607,-0.5022614306265201,-113.58654197734045,-65.9536821068983,-5.594289991509483,0.0349,-0.8367,-0.5443,-0.0488
1586026.0,195.905493,1.0,1.08,0.66,-10.92,18.5,-10.75,45.69,-3.0,1.81,-1.88,0.5004024369137894,0.5775485722714824,-1.159864261505243,-113.62840124543838,-65.85808871965587,-6.064724315991071,0.0361,-0.8369,-0.5436,-0.0529
1586063.0,195.953054,1.0,1.85,0.12,-12.03,17.0,-10.0,47.0,15.06,-57.44,3.44,0.4405679324301597,-0.4228681794721583,-2.3500305666556898,-113.7750931947259,-65.8853958422196,-4.814261580058959,0.0327,-0.8376,-0.5438,-0.042
1586098.0,196.004489,1.0,0.78,0.22,-11.25,17.0,-10.0,47.0,33.69,-166.0,18.56,0.7723974073744492,-0.3899574970958241,-1.4392663875399663,-114.51291967073887,-65.44898558136794,0.43544897228423995,0.0145,-0.8411,-0.5406,0.0038
1586132.0,196.029417,1.0,-1.12,-0.5,-9.06,18.06,-10.0,44.75,36.81,-129.06,12.06,-0.27596943278064345,0.4525439327172991,0.6793807007445274,-114.810125415467,-64.97288126664844,4.642227799866185,0.0029,-0.8425,-0.5371,0.0405
1586167.0,196.051894,1.0,-1.98,-0.72,-7.93,24.06,-8.06,42.5,28.19,-93.37,-1.44,-0.533656566919563,0.7574739747524372,1.654034232888419,-114.30136176070127,-65.00005321390788,8.522006076442151,-0.0068,-0.8401,-0.5373,0.0743
1586204.0,196.087521,1.0,-2.55,-2.12,-5.49,28.19,-8.06,41.25,32.0,-12.31,-7.81,-2.18369657947744,0.8514250518417801,3.836428510819321,-113.90105869290856,-65.16317122703664,9.91307033213892,-0.0051,-0.8382,-0.5385,0.0864
1586237.0,196.125753,1.0,-2.57,-3.81,-3.05,28.19,-8.06,41.25,9.75,79.31,9.88,-4.118615940815736,0.5352646774450365,6.177050234579827,-114.5341088647508,-64.86423446267784,7.786758050274272,0.0102,-0.8412,-0.5363,0.0679
1586274.0,196.158929,1.0,0.1,-1.08,6.2,30.5,-6.56,41.25,-170.5,582.06,6.63,-0.8121605570300221,-1.27699155647538,15.91615798299628,-115.5369840524082,-64.0109096555285,-4.447268815934102,0.0442,-0.8459,-0.53,-0.0388
1586311.0,196.199264,1.0,11.92,4.85,-6.8,23.69,-8.06,44.69,-189.94,629.88,1.37,6.082885440943267,-3.826575719252295,-2.8505504399546915,-109.07590597018144,-60.384097284445964,-31.423754097001943,0.1021,-0.8145,-0.5029,-0.2708
1586345.0,196.22899,1.0,12.32,2.95,-15.44,23.69,-8.06,44.69,-94.75,401.69,-16.44,-1.5824464575354877,2.4834167426768494,-9.947008002790922,-102.19212653307551,-57.35774212215938,-44.85325420187506,0.1361,-0.7782,-0.4799,-0.3815
1586380.0,196.261942,1.0,10.25,3.72,-9.09,-4.0,-16.75,47.75,-64.44,242.75,-45.88,-0.6531799071667059,2.508235125136406,-4.150825150108831,-94.09183027952132,-55.56287082864312,-56.35439663135928,0.1556,-0.7319,-0.4661,-0.4722
1586415.0,196.289796,1.0,12.55,4.27,-8.62,-19.37,-22.0,40.75,-52.19,72.87,-14.75,-0.5803210228967641,2.00945150023425,-5.867058309732906,-91.15534914020603,-54.567821054447855,-60.59633374710181,0.1594,-0.7142,-0.4584,-0.5045
1586452.0,196.331922,1.0,13.22,12.81,-11.47,-24.56,-25.0,38.0,27.56,-393.69,-0.94,5.560863874014911,6.215880269223165,-10.214963957255248,-96.81759077760199,-55.07124433789577,-54.92913690533025,0.1191,-0.7479,-0.4623,-0.4612
1586487.0,196.383395,1.0,7.08,10.56,-6.19,-24.56,-25.0,38.0,303.38,-533.0,-39.44,9.245739701441591,2.002888583503693,-0.7033849521425157,-105.97420139443399,-62.624260485526946,-33.40472333858408,0.0989,-0.7985,-0.5197,-0.2874
1586524.0,196.407852,1.0,3.14,-5.87,-1.7,-16.37,-25.0,43.06,318.81,-119.81,-111.69,-4.986211866028989,-3.769451486687708,6.954383056570698,-103.75636397061545,-69.44467449288967,-22.86343926833653,0.132,-0.7867,-0.5696,-0.1982
1586561.0,196.450649,1.0,2.59,-7.6,-3.54,0.56,-11.88,50.06,-145.5,-2.0,11.06,-7.1023163290392475,-3.002570977773824,5.618408091311724,-103.07215846453475,-70.81670578777461,-21.567183329657436,0.1275,-0.783,-0.5794,-0.1871
1586597.0,196.480089,1.0,3.84,-4.98,-10.37,0.56,-11.88,50.06,-30.19,26.75,61.81,-5.546648233520801,-0.5766647474070847,-0.9629856086303352,-104.52067140467182,-68.81847155097869,-23.378082575536453,0.1191,-0.7908,-0.5651,-0.2026
1586632.0,196.517267,1.0,4.01,-4.72,-8.47,3.88,-9.25,50.88,-122.19,5.0,104.44,-4.9865232888389475,-1.8357645298846093,0.7587798594263422,-108.25050517877196,-64.6606978473082,-24.94840342099723,0.1036,-0.8103,-0.5348,-0.216
1586667.0,196.553461,1.0,4.47,-3.05,-6.92,2.0,-11.5,50.19,-127.19,23.5,118.19,-3.056282343733462,-2.4618250496934397,1.9473653213485793,-112.79560178360884,-58.93107948112415,-27.855717200127586,0.0802,-0.8329,-0.4919,-0.2407
1586704.0,196.588039,1.0,5.89,-0.92,-7.77,0.56,-16.37,47.25,-162.5,24.44,139.5,-1.1671094563889817,-2.2762821051014774,0.3531958537737516,-116.40158899740273,-53.78269118475608,-30.650725683430657,0.0571,-0.8499,-0.4523,-0.2643
1586739.0,196.640766,1.0,5.36,3.24,-5.98,0.56,-16.37,47.25,-199.0,58.06,129.06,1.9135300077699517,0.28708511039916973,1.3660584894036596,-120.108859015364,-46.58184673902731,-35.37196719600466,0.022,-0.8665,-0.3954,-0.3038
1586774.0,196.661188,1.0,6.73,7.94,-7.93,-3.56,-22.37,45.19,-84.56,31.0,52.13,4.10790882345029,3.4100147627366617,-2.1398258157432064,-121.08017234591216,-43.27093047786308,-37.97962124483598,0.0026,-0.8707,-0.3687,-0.3254
1586810.0,196.7023,1.0,6.11,5.56,-6.37,-7.69,-29.06,42.38,-35.0,16.87,22.5,2.900119619745948,1.8332325370932516,-0.044804951229656,-121.45404882910115,-41.74627885444266,-39.14507588885785,-0.0025,-0.8723,-0.3563,-0.335
1586847.0,196.743481,1.0,6.9,6.36,-10.06,-7.69,-29.06,42.38,-38.31,28.69,8.06,1.3286109283826288,2.8713189814853437,-3.5819093066447696,-121.15010938852664,-40.962397583514125,-40.3269674651333,-0.0068,-0.871,-0.3499,-0.3447
1586880.0,196.768413,1.0,8.39,9.15,-16.13,-9.56,-30.19,40.75,0.56,-184.63,-38.94,0.6420707954732583,4.5367543912614945,-10.025069660356484,-122.85197400573631,-41.19490148271794,-37.701007465910344,-0.0243,-0.8782,-0.3518,-0.3231
1586917.0,196.80351,1.0,6.55,11.48,-12.58,-9.88,-32.06,39.88,192.5,-463.0,-151.81,6.074236392101412,4.752803977796903,-6.730091111885043,-127.19696922706022,-44.69214333160207,-26.19396354392425,-0.0421,-0.8957,-0.3802,-0.2266
1586954.0,196.839341,1.0,1.72,-4.46,-2.94,2.38,-29.0,43.56,355.0,-408.0,-176.63,-2.798756406848828,-3.99636301055507,7.033629036684028,-126.2513038466384,-53.500200054022216,-4.504608331312204,-0.0126,-0.892,-0.4501,-0.0393
1586989.0,196.878414,1.0,-1.94,-4.16,-8.45,2.38,-29.0,43.56,42.5,-306.94,-18.31,-3.616914032701631,-1.7989363225366009,1.0800549602663185,-123.84213593724546,-55.278110287373416,8.579461739762628,-0.0288,-0.8823,-0.4639,0.0748
1587025.0,196.910161,1.0,-2.58,-1.41,-6.61,22.19,-14.75,43.19,47.63,-194.69,-12.13,-1.4497708301872816,-0.14533848530268934,2.7204915721472878,-122.56513191438965,-54.87748419254249,14.32686299177392,-0.0546,-0.877,-0.4608,0.1247
1587062.0,196.952891,1.0,-5.21,-6.94,6.18,32.25,-13.25,37.25,60.25,207.13,65.81,-9.81474953926976,1.1519454342116249,13.78707877062296,-123.42965193046733,-53.56437169079451,16.373495591769156,-0.035,-0.8806,-0.4506,0.1424
1587097.0,196.978407,1.0,2.97,2.53,6.29,32.25,-13.25,37.25,-334.38,732.19,88.69,4.047144305512571,-0.6220474035234522,15.972651946004145,-128.89754271482937,-51.062078810532164,-1.3751317128217122,-0.0145,-0.9022,-0.431,-0.012
1587132.0,197.01541,1.0,11.7,6.5,-4.59,32.25,-11.0,38.88,-36.06,739.88,7.5,8.463136399845359,-2.5687991651221695,-1.2380180858629757,-118.90317397360042,-49.61867279340942,-32.97426433366517,0.0416,-0.8612,-0.4196,-0.2838
1587167.0,197.057323,1.0,13.52,0.51,-9.2,5.25,-22.69,45.25,23.75,608.06,-18.69,-1.8161046241778749,-1.3951560769317608,-6.393529119844326,-102.42963728896297,-48.25894988610852,-54.31009785710634,0.1299,-0.7795,-0.4088,-0.4564
1587204.0,197.093445,1.0,12.59,1.19,-9.82,-20.5,-23.75,41.06,-79.25,153.19,37.5,-3.470373874102667,1.432791544057898,-5.758060519801576,-97.11148105928523,-45.846783043563605,-61.92808029086676,0.1471,-0.7496,-0.3895,-0.5145
1587238.0,197.118586,1.0,11.68,4.13,-6.87,-20.5,-23.75,41.06,-86.37,16.44,35.06,0.02279072396293902,2.260757903935212,-4.177793295415652,-97.59740634756899,-42.64289936464318,-64.28137325688984,0.1366,-0.7524,-0.3636,-0.532
1587275.0,197.161924,1.0,10.55,3.7,-4.61,-29.37,-25.25,35.06,-42.0,-15.13,19.5,1.1466740405621634,1.0942972384418386,-2.1821886509552915,-98.61153960499006,-41.47659109099214,-64.25430887597265,0.1305,-0.7582,-0.3541,-0.5318
1587312.0,197.203894,1.0,9.9,5.59,-5.13,-29.69,-27.06,33.38,-18.69,28.25,-14.81,1.6189308391572288,3.0651594032832357,-2.174955099922551,-98.41840599370693,-40.4124303196771,-65.51710409627202,0.1208,-0.7571,-0.3454,-0.5411
1587347.0,197.224441,1.0,9.65,1.97,-5.42,-29.69,-27.06,33.38,33.13,-5.81,-15.81,-1.0290997502048462,0.672362348029447,-1.3678156506286978,-97.7889502665729,-41.256116153254155,-65.5034783098702,0.1241,-0.7535,-0.3523,-0.541
1587382.0,197.27616,1.0,8.86,3.07,-5.81,-30.87,-27.87,33.5,16.75,-66.31,-3.19,-0.44195419869191177,1.7714899879314459,-1.0720953186898914,-99.03424230026711,-41.9548397514564,-63.71385970818783,0.1214,-0.7606,-0.358,-0.5278
1587417.0,197.308322,1.0,7.44,1.34,-3.16,-28.06,-27.87,33.5,25.62,-75.69,-0.75,0.3606320429470835,-0.6191397091219389,1.6444560210389394,-101.10372013014187,-42.87671358451489,-60.80880014298898,0.1182,-0.7722,-0.3655,-0.5061
1587453.0,197.342573,1.0,7.11,2.53,-4.54,-28.5,-27.5,36.06,-7.25,-6.69,-4.81,0.18468910433890695,1.048514696797711,1.0641614031908642,-101.61006514803412,-42.901336489189035,-60.344328426173725,0.1144,-0.775,-0.3657,-0.5026
1587488.0,197.391932,1.0,7.52,1.78,-5.22,-28.5,-27.5,36.06,19.06,2.0,-9.44,-0.6929081213707171,0.6997699769110198,0.5331716711984225,-101.28424437309432,-43.4682404912652,-60.19857784037951,0.1168,-0.7732,-0.3703,-0.5015
1587525.0,197.41349,1.0,7.58,1.32,-4.61,-27.0,-26.37,36.06,11.5,-7.81,-4.13,-0.5417726432195757,-0.007047792819035448,0.8535872429500273,-101.23005073336391,-43.887975339090566,-59.8677251126705,0.1183,-0.7729,-0.3737,-0.499
1587560.0,197.453401,1.0,7.83,2.07,-4.65,-25.5,-27.5,36.56,-12.25,-0.75,1.31,-0.004610966283157936,0.3993102636225253,0.47622503366777913,-101.35655120840237,-43.72741569250491,-59.90739833750701,0.116,-0.7736,-0.3724,-0.4993
1587595.0,197.477291,1.0,8.42,2.35,-5.1,-25.5,-27.5,36.56,-11.31,2.25,1.56,-0.023511147281071842,0.5773007218314374,-0.29756056305372525,-101.37463662093221,-43.49291375439449,-60.13236310008998,0.1144,-0.7737,-0.3705,-0.501
1587630.0,197.519257,1.0,8.13,2.68,-5.18,-26.25,-27.06,36.5,-6.13,-4.81,-4.69,0.06399368059510735,0.9403671890738043,-0.1544400185952206,-101.46511602909902,-43.48057685802525,-60.13236310008998,0.1115,-0.7742,-0.3704,-0.501
1587664.0,197.560587,1.0,7.92,1.79,-4.82,-26.56,-27.5,35.69,6.75,-8.0,-7.0,-0.3296853021594943,0.17950605653383622,0.37150372783189844,-101.39272551986971,-43.85091508076586,-59.92062450463772,0.1114,-0.7738,-0.3734,-0.4994
1587701.0,197.591187,1.0,7.9,2.26,-4.96,-25.5,-27.75,36.06,-4.69,-3.88,-1.31,-0.1033624427013633,0.5549569459361103,0.22539021886495014,-101.5194456395094,-43.87562138331682,-59.81483977840182,0.1095,-0.7745,-0.3736,-0.4986
1587736.0,197.637907,1.0,8.1,2.35,-5.41,-25.5,-27.75,36.06,-4.19,-2.56,-3.5,-0.3159878416255575,0.7367456339989082,-0.1812405457923596,-101.55568290678625,-43.92504042696693,-59.78840237588515,0.1079,-0.7747,-0.374,-0.4984
