,TIME,ELAPSED_SECONDS,PSTATE,acc_x,acc_y,acc_z,mag_x,mag_y,mag_z,gyr_x,gyr_y,gyr_z,lin_x,lin_y,lin_z,eul_x,eul_y,eul_z,qua_w,qua_x,qua_y,qua_z
0,654798.0,626.459493,1.0,2.72,3.03,-9.02,11.38,-20.25,43.0,5.69,2.25,-0.12,0.1623832830100876,-0.03545004774318272,-0.08840305511364477,-103.03532104245025,-72.08709874052984,-22.95697570537593,-0.0372,-0.7828,-0.5884,-0.19899999999999998
1,654798.0,626.459493,1.0,2.72,3.03,-9.02,11.38,-20.25,43.0,5.69,2.25,-0.12,0.1623832830100876,-0.03545004774318272,-0.08840305511364477,-103.03532104245025,-72.08709874052984,-22.95697570537593,-0.0372,-0.7828,-0.5884,-0.19899999999999998
2,654831.0,626.522377,1.0,2.64,2.73,-9.1,12.56,-20.56,43.0,12.31,3.06,0.12,-0.0947102316758395,-0.004140149500573731,-0.053548417434511116,-103.03532104245025,-72.18633490403623,-22.79329707445838,-0.0338,-0.7828,-0.5891,-0.1976
3,654831.0,626.522377,1.0,2.64,2.73,-9.1,12.56,-20.56,43.0,12.31,3.06,0.12,-0.0947102316758395,-0.004140149500573731,-0.053548417434511116,-103.03532104245025,-72.18633490403623,-22.79329707445838,-0.0338,-0.7828,-0.5891,-0.1976
4,654868.0,626.538687,1.0,2.71,2.69,-9.13,12.19,-19.5,44.19,3.44,2.81,-0.44,-0.10158858520711136,-0.05202400890393588,-0.08900931415654689,-102.96169084903136,-72.2856337588228,-22.769918267605057,-0.0319,-0.7824,-0.5898,-0.1974
5,654868.0,626.538687,1.0,2.71,2.69,-9.13,12.19,-19.5,44.19,3.44,2.81,-0.44,-0.10158858520711136,-0.05202400890393588,-0.08900931415654689,-102.96169084903136,-72.2856337588228,-22.769918267605057,-0.0319,-0.7824,-0.5898,-0.1974
6,654903.0,626.543415,1.0,2.65,2.71,-9.01,12.19,-19.87,42.56,1.63,-0.56,-0.94,-0.04376340606062787,-0.009569299469215142,0.031953421957403805,-102.94329258700417,-72.31401640199769,-22.723163534007305,-0.0314,-0.7823,-0.59,-0.19699999999999998
7,654903.0,626.543415,1.0,2.65,2.71,-9.01,12.19,-19.87,42.56,1.63,-0.56,-0.94,-0.04376340606062787,-0.009569299469215142,0.031953421957403805,-102.94329258700417,-72.31401640199769,-22.723163534007305,-0.0314,-0.7823,-0.59,-0.19699999999999998
8,654938.0,626.589208,1.0,2.73,2.68,-9.14,12.19,-19.87,42.56,5.44,1.25,0.44,-0.07943351105248178,-0.06300465244776833,-0.1011560503368667,-102.94329258700417,-72.37079710684984,-22.66472550596455,-0.0305,-0.7823,-0.5904,-0.1965
9,654938.0,626.589208,1.0,2.73,2.68,-9.14,12.19,-19.87,42.56,5.44,1.25,0.44,-0.07943351105248178,-0.06300465244776833,-0.1011560503368667,-102.94329258700417,-72.37079710684984,-22.66472550596455,-0.0305,-0.7823,-0.5904,-0.1965
10,654972.0,626.631275,1.0,2.73,2.49,-9.18,11.75,-19.5,43.0,5.81,-0.06,0.0,-0.2286956665661465,-0.10262150549682514,-0.08590109254955712,-102.96169084903136,-72.3991951776014,-22.524498571325392,-0.0289,-0.7824,-0.5906,-0.1953
11,654972.0,626.631275,1.0,2.73,2.49,-9.18,11.75,-19.5,43.0,5.81,-0.06,0.0,-0.2286956665661465,-0.10262150549682514,-0.08590109254955712,-102.96169084903136,-72.3991951776014,-22.524498571325392,-0.0289,-0.7824,-0.5906,-0.1953
12,655007.0,626.680358,1.0,2.77,2.63,-9.15,12.56,-19.5,43.75,0.31,-2.88,-0.19,-0.07737448267655495,-0.11126086388361434,-0.10767974081447383,-102.9800928228657,-72.3991951776014,-22.477763863075143,-0.0291,-0.7825,-0.5906,-0.1949
13,655007.0,626.680358,1.0,2.77,2.63,-9.15,12.56,-19.5,43.75,0.31,-2.88,-0.19,-0.07737448267655495,-0.11126086388361434,-0.10767974081447383,-102.9800928228657,-72.3991951776014,-22.477763863075143,-0.0291,-0.7825,-0.5906,-0.1949
14,655042.0,626.700743,1.0,2.69,2.61,-9.18,12.56,-19.5,43.75,1.44,-2.0,0.69,-0.11000417718910084,-0.04848230489394245,-0.10829571579255592,-103.03532104245025,-72.38499549855874,-22.372624603038307,-0.0292,-0.7828,-0.5905,-0.19399999999999998
15,655042.0,626.700743,1.0,2.69,2.61,-9.18,12.56,-19.5,43.75,1.44,-2.0,0.69,-0.11000417718910084,-0.04848230489394245,-0.10829571579255592,-103.03532104245025,-72.38499549855874,-22.372624603038307,-0.0292,-0.7828,-0.5905,-0.19399999999999998
16,655077.0,626.742015,1.0,2.76,2.74,-9.4,11.38,-19.5,43.0,-0.94,-1.5,0.06,-0.0500711512939156,-0.04116168057174452,-0.3659110637567888,-103.10901079937445,-72.31401640199769,-22.349262916740443,-0.0296,-0.7832,-0.59,-0.1938
17,655077.0,626.742015,1.0,2.76,2.74,-9.4,11.38,-19.5,43.0,-0.94,-1.5,0.06,-0.0500711512939156,-0.04116168057174452,-0.3659110637567888,-103.10901079937445,-72.31401640199769,-22.349262916740443,-0.0296,-0.7832,-0.59,-0.1938
18,655112.0,626.797239,1.0,2.64,2.74,-9.04,12.88,-19.5,42.25,-2.44,-2.69,-0.5,0.035670864025609345,-0.01512151061795586,-0.0013721721495052466,-103.14587806891129,-72.27144436256579,-22.314222150985408,-0.0308,-0.7834,-0.5897,-0.1935
19,655112.0,626.797239,1.0,2.64,2.74,-9.04,12.88,-19.5,42.25,-2.44,-2.69,-0.5,0.035670864025609345,-0.01512151061795586,-0.0013721721495052466,-103.14587806891129,-72.27144436256579,-22.314222150985408,-0.0308,-0.7834,-0.5897,-0.1935
20,655147.0,626.804119,1.0,2.54,2.85,-8.92,12.88,-19.5,42.25,0.0,-1.94,-0.69,0.14650884302907194,0.07697650906062492,0.10545884757097923,-103.16431731106186,-72.27144436256579,-22.302542365509357,-0.0316,-0.7835,-0.5897,-0.1934
21,655147.0,626.804119,1.0,2.54,2.85,-8.92,12.88,-19.5,42.25,0.0,-1.94,-0.69,0.14650884302907194,0.07697650906062492,0.10545884757097923,-103.16431731106186,-72.27144436256579,-22.302542365509357,-0.0316,-0.7835,-0.5897,-0.1934
22,655179.0,626.858515,1.0,2.74,2.76,-9.36,11.75,-19.06,44.56,2.38,1.5,0.31,-0.026466972644925896,-0.05261164837662746,-0.3289965760115248,-103.14587806891129,-72.31401640199769,-22.267504416511226,-0.0309,-0.7834,-0.59,-0.1931
23,655179.0,626.858515,1.0,2.74,2.76,-9.36,11.75,-19.06,44.56,2.38,1.5,0.31,-0.026466972644925896,-0.05261164837662746,-0.3289965760115248,-103.14587806891129,-72.31401640199769,-22.267504416511226,-0.0309,-0.7834,-0.59,-0.1931
24,655216.0,626.878397,1.0,2.5,2.63,-9.07,11.38,-18.75,43.75,2.63,-1.31,-2.56,-0.09917937026909734,0.07422593151875745,0.03851537953109308,-103.09058276649,-72.37079710684984,-22.232468575814032,-0.031,-0.7831,-0.5904,-0.1928
25,655216.0,626.878397,1.0,2.5,2.63,-9.07,11.38,-18.75,43.75,2.63,-1.31,-2.56,-0.09917937026909734,0.07422593151875745,0.03851537953109308,-103.09058276649,-72.37079710684984,-22.232468575814032,-0.031,-0.7831,-0.5904,-0.1928
26,655251.0,626.919115,1.0,2.76,2.86,-9.29,11.38,-18.75,43.75,-2.13,-0.06,-0.25,0.09934783429364802,-0.05961883690611214,-0.29720449232653395,-103.07215846453477,-72.3991951776014,-22.22079043012782,-0.0308,-0.7829999999999999,-0.5906,-0.1927
27,655251.0,626.919115,1.0,2.76,2.86,-9.29,11.38,-18.75,43.75,-2.13,-0.06,-0.25,0.09934783429364802,-0.05961883690611214,-0.29720449232653395,-103.07215846453477,-72.3991951776014,-22.22079043012782,-0.0308,-0.7829999999999999,-0.5906,-0.1927
28,655284.0,626.936384,1.0,2.63,2.9,-9.21,12.88,-19.06,43.38,-0.94,-2.44,-3.0,0.12464484118226513,0.04066566828127405,-0.2000382617072649,-102.9984985112295,-72.48442031771656,-22.197434839762675,-0.0317,-0.7826,-0.5912,-0.1925
29,655284.0,626.936384,1.0,2.63,2.9,-9.21,12.88,-19.06,43.38,-0.94,-2.44,-3.0,0.12464484118226513,0.04066566828127405,-0.2000382617072649,-102.9984985112295,-72.48442031771656,-22.197434839762675,-0.0317,-0.7826,-0.5912,-0.1925
30,655319.0,626.977592,1.0,2.65,2.68,-9.16,12.19,-19.06,45.0,7.31,1.75,-0.81,-0.03488346739988185,-0.050274209125574336,-0.09823544343643853,-102.90650718749764,-72.59812617311991,-22.11569761985897,-0.0308,-0.7821,-0.5920000000000001,-0.1918
31,655319.0,626.977592,1.0,2.65,2.68,-9.16,12.19,-19.06,45.0,7.31,1.75,-0.81,-0.03488346739988185,-0.050274209125574336,-0.09823544343643853,-102.90650718749764,-72.59812617311991,-22.11569761985897,-0.0308,-0.7821,-0.5920000000000001,-0.1918
32,655353.0,627.031852,1.0,2.75,2.74,-9.25,12.19,-19.06,45.0,1.31,-2.06,-3.63,0.029934959008805526,-0.11869100995503512,-0.22418328255360187,-102.83298081073578,-72.74037515744728,-22.01062364188303,-0.0304,-0.7817,-0.593,-0.1909
33,655353.0,627.031852,1.0,2.75,2.74,-9.25,12.19,-19.06,45.0,1.31,-2.06,-3.63,0.029934959008805526,-0.11869100995503512,-0.22418328255360187,-102.83298081073578,-72.74037515744728,-22.01062364188303,-0.0304,-0.7817,-0.593,-0.1909
34,655386.0,627.047362,1.0,2.45,2.42,-9.02,12.19,-19.06,43.0,5.88,-0.56,-2.31,-0.2306619927556669,0.02079677520619749,0.15441385808764885,-102.75951351944929,-72.86851051764684,-21.882225322200526,-0.0298,-0.7813,-0.5939,-0.1898
35,655386.0,627.047362,1.0,2.45,2.42,-9.02,12.19,-19.06,43.0,5.88,-0.56,-2.31,-0.2306619927556669,0.02079677520619749,0.15441385808764885,-102.75951351944929,-72.86851051764684,-21.882225322200526,-0.0298,-0.7813,-0.5939,-0.1898
36,655421.0,627.1066440000001,1.0,2.42,2.57,-9.1,11.75,-18.75,43.75,-1.81,3.69,-0.37,-0.12919786263198893,0.1229107748459517,0.04757725440997085,-102.7228019769725,-72.88275430640832,-21.952257310852513,-0.0292,-0.7811,-0.594,-0.1904
37,655421.0,627.1066440000001,1.0,2.42,2.57,-9.1,11.75,-18.75,43.75,-1.81,3.69,-0.37,-0.12919786263198893,0.1229107748459517,0.04757725440997085,-102.7228019769725,-72.88275430640832,-21.952257310852513,-0.0292,-0.7811,-0.594,-0.1904
38,655458.0,627.151936,1.0,2.39,2.57,-9.11,12.56,-18.37,43.75,-0.25,2.75,0.12,-0.1454409204093661,0.16127946884731734,0.046427877957960106,-102.66776223181776,-72.89699940259716,-22.01062364188303,-0.028999999999999998,-0.7808,-0.5941,-0.1909
39,655458.0,627.151936,1.0,2.39,2.57,-9.11,12.56,-18.37,43.75,-0.25,2.75,0.12,-0.1454409204093661,0.16127946884731734,0.046427877957960106,-102.66776223181776,-72.89699940259716,-22.01062364188303,-0.028999999999999998,-0.7808,-0.5941,-0.1909
40,655491.0,627.15614,1.0,2.64,2.61,-9.05,12.56,-18.37,43.75,-0.37,1.88,1.37,-0.03624640718137112,-0.05993523791230016,0.02507068144295843,-102.68610514129891,-72.86851051764684,-22.068995754971112,-0.0286,-0.7809,-0.5939,-0.1914
41,655491.0,627.15614,1.0,2.64,2.61,-9.05,12.56,-18.37,43.75,-0.37,1.88,1.37,-0.03624640718137112,-0.05993523791230016,0.02507068144295843,-102.68610514129891,-72.86851051764684,-22.068995754971112,-0.0286,-0.7809,-0.5939,-0.1914
42,655527.0,627.172247,1.0,2.82,2.45,-9.48,12.19,-18.75,44.56,3.31,4.38,0.5,-0.28249818147276035,-0.16862600852918974,-0.3775073066558683,-102.64942299100883,-72.89699940259716,-22.150726459273766,-0.0273,-0.7807,-0.5941,-0.1921
43,655527.0,627.172247,1.0,2.82,2.45,-9.48,12.19,-18.75,44.56,3.31,4.38,0.5,-0.28249818147276035,-0.16862600852918974,-0.3775073066558683,-102.64942299100883,-72.89699940259716,-22.150726459273766,-0.0273,-0.7807,-0.5941,-0.1921
44,655564.0,627.213523,1.0,2.87,2.63,-9.12,12.88,-19.06,43.0,-2.63,-2.13,0.81,0.00932324636917814,-0.234597182035571,-0.10662782518265068,-102.68610514129891,-72.85426803573273,-22.150726459273766,-0.0277,-0.7809,-0.5938,-0.1921
45,655564.0,627.213523,1.0,2.87,2.63,-9.12,12.88,-19.06,43.0,-2.63,-2.13,0.81,0.00932324636917814,-0.234597182035571,-0.10662782518265068,-102.68610514129891,-72.85426803573273,-22.150726459273766,-0.0277,-0.7809,-0.5938,-0.1921
46,655597.0,627.275884,1.0,2.89,2.53,-9.21,12.88,-19.06,43.0,0.12,-1.37,0.31,-0.10397690554272032,-0.2641124003585913,-0.16814490731967702,-102.68610514129891,-72.85426803573273,-22.139049946746336,-0.0275,-0.7809,-0.5938,-0.192
47,655597.0,627.275884,1.0,2.89,2.53,-9.21,12.88,-19.06,43.0,0.12,-1.37,0.31,-0.10397690554272032,-0.2641124003585913,-0.16814490731967702,-102.68610514129891,-72.85426803573273,-22.139049946746336,-0.0275,-0.7809,-0.5938,-0.192
48,655632.0,627.291125,1.0,2.6,2.65,-9.12,12.19,-18.75,45.0,-1.88,-3.44,-2.19,-0.03002681444628122,0.007099836123551474,-0.03997114548646508,-102.66776223181776,-72.89699940259716,-22.080670872919914,-0.0283,-0.7808,-0.5941,-0.1915
49,655632.0,627.291125,1.0,2.6,2.65,-9.12,12.19,-18.75,45.0,-1.88,-3.44,-2.19,-0.03002681444628122,0.007099836123551474,-0.03997114548646508,-102.66776223181776,-72.89699940259716,-22.080670872919914,-0.0283,-0.7808,-0.5941,-0.1915
50,655667.0,627.330159,1.0,2.51,2.73,-9.04,12.56,-19.06,43.38,4.31,-3.75,0.81,0.0666911606744536,0.0865833719603728,0.036150749256060884,-102.7228019769725,-72.88275430640832,-21.952257310852513,-0.0284,-0.7811,-0.594,-0.1904
51,655667.0,627.330159,1.0,2.51,2.73,-9.04,12.56,-19.06,43.38,4.31,-3.75,0.81,0.0666911606744536,0.0865833719603728,0.036150749256060884,-102.7228019769725,-72.88275430640832,-21.952257310852513,-0.0284,-0.7811,-0.594,-0.1904
52,655704.0,627.386368,1.0,2.36,2.48,-8.95,12.56,-19.06,43.38,12.69,-2.06,1.81,-0.0956323904866333,0.140043678847124,0.2257449167677894,-102.83298081073578,-72.91124580679356,-21.625511921173292,-0.0261,-0.7817,-0.5942,-0.1876
53,655704.0,627.386368,1.0,2.36,2.48,-8.95,12.56,-19.06,43.38,12.69,-2.06,1.81,-0.0956323904866333,0.140043678847124,0.2257449167677894,-102.83298081073578,-72.91124580679356,-21.625511921173292,-0.0261,-0.7817,-0.5942,-0.1876
54,655736.0,627.403184,1.0,2.64,2.73,-9.39,11.75,-18.37,42.56,6.69,-1.56,1.94,0.08456880850045817,0.036446305113777784,-0.32183062561568754,-102.90650718749764,-72.89699940259716,-21.50886039245491,-0.025,-0.7821,-0.5941,-0.1866
55,655736.0,627.403184,1.0,2.64,2.73,-9.39,11.75,-18.37,42.56,6.69,-1.56,1.94,0.08456880850045817,0.036446305113777784,-0.32183062561568754,-102.90650718749764,-72.89699940259716,-21.50886039245491,-0.025,-0.7821,-0.5941,-0.1866
56,655773.0,627.442057,1.0,2.46,2.37,-8.95,12.56,-18.75,43.0,13.31,-7.5,1.06,-0.059562263058151065,0.004074914222951254,0.2271178751050975,-103.07215846453477,-72.91124580679356,-21.042478443283557,-0.023,-0.7829999999999999,-0.5942,-0.1826
57,655773.0,627.442057,1.0,2.46,2.37,-8.95,12.56,-18.75,43.0,13.31,-7.5,1.06,-0.059562263058151065,0.004074914222951254,0.2271178751050975,-103.07215846453477,-72.91124580679356,-21.042478443283557,-0.023,-0.7829999999999999,-0.5942,-0.1826
58,655808.0,627.496604,1.0,2.66,2.34,-9.45,11.75,-18.37,43.38,3.88,-5.19,1.69,-0.1526317852703133,-0.10929557357049167,-0.28386326820013963,-103.18276029513798,-72.88275430640832,-20.809420100088577,-0.022000000000000002,-0.7836,-0.594,-0.1806
59,655808.0,627.496604,1.0,2.66,2.34,-9.45,11.75,-18.37,43.38,3.88,-5.19,1.69,-0.1526317852703133,-0.10929557357049167,-0.28386326820013963,-103.18276029513798,-72.88275430640832,-20.809420100088577,-0.022000000000000002,-0.7836,-0.594,-0.1806
60,655843.0,627.5110530000001,1.0,2.32,2.26,-9.11,11.75,-18.37,43.38,2.25,-9.31,-0.69,-0.17423910927606953,0.07383397774386169,0.1398879114550855,-103.27503144100895,-72.89699940259716,-20.506574164810864,-0.0234,-0.7841,-0.5941,-0.17800000000000002
61,655843.0,627.5110530000001,1.0,2.32,2.26,-9.11,11.75,-18.37,43.38,2.25,-9.31,-0.69,-0.17423910927606953,0.07383397774386169,0.1398879114550855,-103.27503144100895,-72.89699940259716,-20.506574164810864,-0.0234,-0.7841,-0.5941,-0.17800000000000002
62,655878.0,627.5196070000001,1.0,2.47,2.38,-9.5,12.88,-18.0,43.75,-2.56,-1.5,1.37,-0.13807484526617275,0.02972797063863442,-0.29262480489893505,-103.33043920857978,-72.86851051764684,-20.436707276203283,-0.0234,-0.7844,-0.5939,-0.1774
63,655878.0,627.5196070000001,1.0,2.47,2.38,-9.5,12.88,-18.0,43.75,-2.56,-1.5,1.37,-0.13807484526617275,0.02972797063863442,-0.29262480489893505,-103.33043920857978,-72.86851051764684,-20.436707276203283,-0.0234,-0.7844,-0.5939,-0.1774
64,655912.0,627.561785,1.0,2.41,2.48,-9.36,12.88,-18.0,43.38,-0.19,-7.56,-0.19,-0.013448103192057805,0.04883295528644238,-0.1716030781193627,-103.42286086216532,-72.84002686008644,-20.27371434520358,-0.0251,-0.7849,-0.5937,-0.17600000000000002
65,655912.0,627.561785,1.0,2.41,2.48,-9.36,12.88,-18.0,43.38,-0.19,-7.56,-0.19,-0.013448103192057805,0.04883295528644238,-0.1716030781193627,-103.42286086216532,-72.84002686008644,-20.27371434520358,-0.0251,-0.7849,-0.5937,-0.17600000000000002
66,655947.0,627.61506,1.0,2.34,2.42,-9.19,12.88,-18.0,43.38,1.56,-10.19,0.63,-0.0013126996135959525,0.02210379472527224,0.01953552743565368,-103.53389164446942,-72.82578699012866,-19.95948754584176,-0.0261,-0.7855,-0.5936,-0.1733
67,655947.0,627.61506,1.0,2.34,2.42,-9.19,12.88,-18.0,43.38,1.56,-10.19,0.63,-0.0013126996135959525,0.02210379472527224,0.01953552743565368,-103.53389164446942,-72.82578699012866,-19.95948754584176,-0.0261,-0.7855,-0.5936,-0.1733
68,655980.0,627.630668,1.0,2.62,2.52,-9.8,13.25,-18.0,44.25,0.56,-8.56,0.75,-0.007465941354849002,-0.1679511861613383,-0.6445000160885002,-103.64505914352164,-72.78307520859934,-19.68030213963965,-0.0278,-0.7861,-0.5933,-0.1709
69,655980.0,627.630668,1.0,2.62,2.52,-9.8,13.25,-18.0,44.25,0.56,-8.56,0.75,-0.007465941354849002,-0.1679511861613383,-0.6445000160885002,-103.64505914352164,-72.78307520859934,-19.68030213963965,-0.0278,-0.7861,-0.5933,-0.1709
70,656017.0,627.693434,1.0,2.28,2.49,-9.23,12.88,-17.56,43.38,2.88,-28.31,-2.25,0.09325474832714033,-0.05253864489800275,-0.02085951374287376,-103.81206807438305,-72.79731116496349,-19.13390399645449,-0.0311,-0.787,-0.5934,-0.1662
71,656017.0,627.693434,1.0,2.28,2.49,-9.23,12.88,-17.56,43.38,2.88,-28.31,-2.25,0.09325474832714033,-0.05253864489800275,-0.02085951374287376,-103.81206807438305,-72.79731116496349,-19.13390399645449,-0.0311,-0.787,-0.5934,-0.1662
72,656054.0,627.736718,1.0,2.13,2.45,-9.16,12.88,-17.56,43.38,2.75,-22.0,-0.25,0.10798579909235698,-0.0713380624954627,0.08923007761145385,-104.01661275346248,-72.81154842528053,-18.320928845487863,-0.0349,-0.7881,-0.5935,-0.1592
73,656054.0,627.736718,1.0,2.13,2.45,-9.16,12.88,-17.56,43.38,2.75,-22.0,-0.25,0.10798579909235698,-0.0713380624954627,0.08923007761145385,-104.01661275346248,-72.81154842528053,-18.320928845487863,-0.0349,-0.7881,-0.5935,-0.1592
74,656087.0,627.7524980000001,1.0,2.24,2.62,-9.44,14.75,-17.56,43.38,-1.5,-13.5,-0.44,0.221199317800859,-0.15052398658900512,-0.23944443471769186,-104.12837981117883,-72.78307520859934,-18.054013364312716,-0.0372,-0.7887,-0.5933,-0.1569
75,656087.0,627.7524980000001,1.0,2.24,2.62,-9.44,14.75,-17.56,43.38,-1.5,-13.5,-0.44,0.221199317800859,-0.15052398658900512,-0.23944443471769186,-104.12837981117883,-72.78307520859934,-18.054013364312716,-0.0372,-0.7887,-0.5933,-0.1569
76,656121.0,627.7934190000001,1.0,2.1,2.39,-9.35,15.19,-18.0,43.75,2.94,-14.0,-1.0,0.022702704329758627,-0.15616975355784812,-0.06855610393979639,-104.20296893682892,-72.78307520859934,-17.740803669389525,-0.039,-0.7891,-0.5933,-0.1542
77,656121.0,627.7934190000001,1.0,2.1,2.39,-9.35,15.19,-18.0,43.75,2.94,-14.0,-1.0,0.022702704329758627,-0.15616975355784812,-0.06855610393979639,-104.20296893682892,-72.78307520859934,-17.740803669389525,-0.039,-0.7891,-0.5933,-0.1542
78,656156.0,627.811721,1.0,2.02,2.25,-9.35,15.19,-17.56,43.0,1.44,-11.38,-1.12,-0.08597687397388706,-0.18987236150326514,-0.017908843198956248,-104.29629314706914,-72.82578699012866,-17.31180678552449,-0.0406,-0.7896,-0.5936,-0.1505
79,656156.0,627.811721,1.0,2.02,2.25,-9.35,15.19,-17.56,43.0,1.44,-11.38,-1.12,-0.08597687397388706,-0.18987236150326514,-0.017908843198956248,-104.29629314706914,-72.82578699012866,-17.31180678552449,-0.0406,-0.7896,-0.5936,-0.1505
80,656191.0,627.849218,1.0,1.56,2.19,-9.35,15.19,-17.56,43.0,2.94,-11.69,-3.38,-0.2334880212709956,0.17490400694935526,0.0820887280311684,-104.29629314706914,-72.89699940259716,-17.010496081346126,-0.0421,-0.7896,-0.5941,-0.1479
81,656191.0,627.849218,1.0,1.56,2.19,-9.35,15.19,-17.56,43.0,2.94,-11.69,-3.38,-0.2334880212709956,0.17490400694935526,0.0820887280311684,-104.29629314706914,-72.89699940259716,-17.010496081346126,-0.0421,-0.7896,-0.5941,-0.1479
82,656228.0,627.9016019999999,1.0,1.44,2.3,-9.1,16.25,-17.56,43.0,-0.56,-11.25,-0.44,-0.05361914519591268,0.2263715009351266,0.3135219101218869,-104.37102298797173,-72.91124580679356,-16.581911426258042,-0.0438,-0.79,-0.5942,-0.1442
83,656228.0,627.9016019999999,1.0,1.44,2.3,-9.1,16.25,-17.56,43.0,-0.56,-11.25,-0.44,-0.05361914519591268,0.2263715009351266,0.3135219101218869,-104.37102298797173,-72.91124580679356,-16.581911426258042,-0.0438,-0.79,-0.5942,-0.1442
84,656263.0,627.917146,1.0,1.58,2.18,-9.27,17.06,-17.25,42.56,2.0,-4.38,1.0,-0.15960101010095895,0.04359060669826098,0.15500105401245712,-104.40841146453569,-72.93974254153213,-16.38507281218067,-0.0446,-0.7902,-0.5944,-0.1425
85,656263.0,627.917146,1.0,1.58,2.18,-9.27,17.06,-17.25,42.56,2.0,-4.38,1.0,-0.15960101010095895,0.04359060669826098,0.15500105401245712,-104.40841146453569,-72.93974254153213,-16.38507281218067,-0.0446,-0.7902,-0.5944,-0.1425
86,656295.0,627.960396,1.0,1.6,2.28,-9.65,17.06,-17.25,42.56,3.94,-8.31,2.19,-0.14313151800066745,0.0612202870582117,-0.2360919286272303,-104.55812296797363,-72.84002686008644,-16.16513427708501,-0.0452,-0.7909999999999999,-0.5937,-0.1406
87,656295.0,627.960396,1.0,1.6,2.28,-9.65,17.06,-17.25,42.56,3.94,-8.31,2.19,-0.14313151800066745,0.0612202870582117,-0.2360919286272303,-104.55812296797363,-72.84002686008644,-16.16513427708501,-0.0452,-0.7909999999999999,-0.5937,-0.1406
88,656330.0,628.019444,1.0,1.54,2.26,-9.44,17.06,-17.25,43.5,1.12,-10.56,0.69,-0.09170574236160167,0.047381645330714095,-0.02097153506654159,-104.67057274431014,-72.79731116496349,-15.875832638109523,-0.0463,-0.7916,-0.5934,-0.1381
89,656330.0,628.019444,1.0,1.54,2.26,-9.44,17.06,-17.25,43.5,1.12,-10.56,0.69,-0.09170574236160167,0.047381645330714095,-0.02097153506654159,-104.67057274431014,-72.79731116496349,-15.875832638109523,-0.0463,-0.7916,-0.5934,-0.1381
90,656367.0,628.036842,1.0,1.73,2.43,-10.0,17.06,-17.56,42.56,0.12,-18.62,-0.56,-0.012438206832409092,-0.1198446695804758,-0.6280652594684604,-104.78316565832016,-72.75460720541858,-15.470980940849387,-0.049,-0.7922,-0.5931,-0.1346
91,656367.0,628.036842,1.0,1.73,2.43,-10.0,17.06,-17.56,42.56,0.12,-18.62,-0.56,-0.012438206832409092,-0.1198446695804758,-0.6280652594684604,-104.78316565832016,-72.75460720541858,-15.470980940849387,-0.049,-0.7922,-0.5931,-0.1346
92,656402.0,628.076113,1.0,1.25,2.1,-9.12,17.06,-17.56,42.56,6.25,-31.0,-3.25,-0.14834059644257208,0.04164558993306211,0.3661436199223829,-104.89590236711722,-72.79731116496349,-14.731179119281881,-0.0527,-0.7928,-0.5934,-0.1282
93,656402.0,628.076113,1.0,1.25,2.1,-9.12,17.06,-17.56,42.56,6.25,-31.0,-3.25,-0.14834059644257208,0.04164558993306211,0.3661436199223829,-104.89590236711722,-72.79731116496349,-14.731179119281881,-0.0527,-0.7928,-0.5934,-0.1282
94,656437.0,628.083388,1.0,1.14,1.97,-9.43,17.75,-18.0,43.75,-0.25,-17.0,-1.06,-0.31249807088668125,-0.003273722953385461,0.11089143047950324,-105.04644280430534,-72.81154842528053,-13.93427040697098,-0.0562,-0.7936,-0.5935,-0.1213
95,656437.0,628.083388,1.0,1.14,1.97,-9.43,17.75,-18.0,43.75,-0.25,-17.0,-1.06,-0.31249807088668125,-0.003273722953385461,0.11089143047950324,-105.04644280430534,-72.81154842528053,-13.93427040697098,-0.0562,-0.7936,-0.5935,-0.1213
96,656472.0,628.177128,1.0,1.0,2.29,-9.31,18.87,-16.87,41.06,-3.5,-14.69,-0.19,-0.014840861663353078,0.1462504736517447,0.16825850827371092,-105.140661692498,-72.7688405556102,-13.645704477358525,-0.059000000000000004,-0.7941,-0.5932,-0.1188
97,656472.0,628.177128,1.0,1.0,2.29,-9.31,18.87,-16.87,41.06,-3.5,-14.69,-0.19,-0.014840861663353078,0.1462504736517447,0.16825850827371092,-105.140661692498,-72.7688405556102,-13.645704477358525,-0.059000000000000004,-0.7941,-0.5932,-0.1188
98,656506.0,628.1827400000001,1.0,0.79,2.15,-9.06,20.0,-16.87,42.19,3.31,-4.56,3.5,-0.1187403451307722,0.2389012155601093,0.465395965361921,-105.23498190512574,-72.71191496585868,-13.345688086437221,-0.0609,-0.7946,-0.5928,-0.1162
99,656506.0,628.1827400000001,1.0,0.79,2.15,-9.06,20.0,-16.87,42.19,3.31,-4.56,3.5,-0.1187403451307722,0.2389012155601093,0.465395965361921,-105.23498190512574,-72.71191496585868,-13.345688086437221,-0.0609,-0.7946,-0.5928,-0.1162
100,656541.0,628.1934190000001,1.0,0.99,2.46,-9.15,20.0,-16.87,42.19,-2.31,11.38,4.25,0.1902625877519885,0.17211404469193534,0.28360548139558084,-105.32940383389915,-72.59812617311991,-13.495684664619233,-0.06,-0.7951,-0.5920000000000001,-0.1175
101,656541.0,628.1934190000001,1.0,0.99,2.46,-9.15,20.0,-16.87,42.19,-2.31,11.38,4.25,0.1902625877519885,0.17211404469193534,0.28360548139558084,-105.32940383389915,-72.59812617311991,-13.495684664619233,-0.06,-0.7951,-0.5920000000000001,-0.1175
102,656578.0,628.2361530000001,1.0,1.49,2.34,-9.84,20.75,-18.37,43.0,5.69,8.0,2.94,0.03565285764298076,-0.2217007465424241,-0.4144496303100613,-105.38610597876014,-72.4986290240276,-13.79574779269871,-0.0566,-0.7954,-0.5913,-0.1201
103,656578.0,628.2361530000001,1.0,1.49,2.34,-9.84,20.75,-18.37,43.0,5.69,8.0,2.94,0.03565285764298076,-0.2217007465424241,-0.4144496303100613,-105.38610597876014,-72.4986290240276,-13.79574779269871,-0.0566,-0.7954,-0.5913,-0.1201
104,656613.0,628.255693,1.0,1.07,2.05,-9.23,19.25,-16.87,41.5,6.56,7.63,2.06,-0.17092923492065215,0.10032573998420592,0.2934477030578151,-105.42392787292214,-72.48442031771656,-13.841919736512358,-0.0544,-0.7956,-0.5912,-0.1205
105,656613.0,628.255693,1.0,1.07,2.05,-9.23,19.25,-16.87,41.5,6.56,7.63,2.06,-0.17092923492065215,0.10032573998420592,0.2934477030578151,-105.42392787292214,-72.48442031771656,-13.841919736512358,-0.0544,-0.7956,-0.5912,-0.1205
106,656646.0,628.309488,1.0,1.24,2.16,-9.37,19.25,-16.87,41.5,0.56,15.5,2.63,-0.07366868521671778,0.0689899769335427,0.11181048054939956,-105.40501487729964,-72.44180194441707,-14.2344732300193,-0.0511,-0.7955,-0.5909,-0.1239
107,656646.0,628.309488,1.0,1.24,2.16,-9.37,19.25,-16.87,41.5,0.56,15.5,2.63,-0.07366868521671778,0.0689899769335427,0.11181048054939956,-105.40501487729964,-72.44180194441707,-14.2344732300193,-0.0511,-0.7955,-0.5909,-0.1239
108,656680.0,628.346947,1.0,1.25,2.0,-9.12,18.87,-17.56,43.0,6.5,20.0,5.13,-0.1568742885578297,0.08225013046991803,0.3882889231657103,-105.4428449688075,-72.37079710684984,-14.557878496401068,-0.0475,-0.7957,-0.5904,-0.1267
109,656680.0,628.346947,1.0,1.25,2.0,-9.12,18.87,-17.56,43.0,6.5,20.0,5.13,-0.1568742885578297,0.08225013046991803,0.3882889231657103,-105.4428449688075,-72.37079710684984,-14.557878496401068,-0.0475,-0.7957,-0.5904,-0.1267
110,656717.0,628.399762,1.0,1.75,2.28,-9.99,18.19,-16.87,42.19,-2.81,20.0,1.56,-0.043311673849465236,-0.07708986532015816,-0.5882132146639272,-105.38610597876014,-72.27144436256579,-15.366907820940328,-0.0426,-0.7954,-0.5897,-0.1337
111,656717.0,628.399762,1.0,1.75,2.28,-9.99,18.19,-16.87,42.19,-2.81,20.0,1.56,-0.043311673849465236,-0.07708986532015816,-0.5882132146639272,-105.38610597876014,-72.27144436256579,-15.366907820940328,-0.0426,-0.7954,-0.5897,-0.1337
112,656752.0,628.4060929999999,1.0,1.3,1.93,-9.0,18.19,-16.87,42.19,10.0,16.31,3.69,-0.21475534635921045,0.23346370319561796,0.5161023928618498,-105.38610597876014,-72.24306941788456,-15.586632804931574,-0.0388,-0.7954,-0.5895,-0.1356
113,656752.0,628.4060929999999,1.0,1.3,1.93,-9.0,18.19,-16.87,42.19,10.0,16.31,3.69,-0.21475534635921045,0.23346370319561796,0.5161023928618498,-105.38610597876014,-72.24306941788456,-15.586632804931574,-0.0388,-0.7954,-0.5895,-0.1356
114,656785.0,628.43938,1.0,1.48,1.85,-8.74,17.06,-16.5,42.56,-5.5,49.0,9.69,-0.2295500561644521,0.22530547379955254,0.7569514295949684,-105.34830046023008,-72.01625404214369,-16.674558377811383,-0.0313,-0.7952,-0.5879,-0.145
115,656785.0,628.43938,1.0,1.48,1.85,-8.74,17.06,-16.5,42.56,-5.5,49.0,9.69,-0.2295500561644521,0.22530547379955254,0.7569514295949684,-105.34830046023008,-72.01625404214369,-16.674558377811383,-0.0313,-0.7952,-0.5879,-0.145
116,656820.0,628.460861,1.0,2.26,2.51,-9.67,16.25,-16.87,44.56,-2.5,37.63,6.56,0.2483826092539217,0.019605376962267496,-0.4331996917002812,-105.23498190512574,-71.81805792972114,-17.81039419409229,-0.0255,-0.7946,-0.5865,-0.1548
117,656820.0,628.460861,1.0,2.26,2.51,-9.67,16.25,-16.87,44.56,-2.5,37.63,6.56,0.2483826092539217,0.019605376962267496,-0.4331996917002812,-105.23498190512574,-71.81805792972114,-17.81039419409229,-0.0255,-0.7946,-0.5865,-0.1548
118,656857.0,628.514491,1.0,2.04,2.03,-8.78,14.75,-16.87,42.56,6.25,37.31,7.56,-0.02307860622252497,0.1604142742377228,0.5684340121289839,-105.17837759673445,-71.64837292642449,-18.657617598655087,-0.0169,-0.7943,-0.5853,-0.1621
119,656857.0,628.514491,1.0,2.04,2.03,-8.78,14.75,-16.87,42.56,6.25,37.31,7.56,-0.02307860622252497,0.1604142742377228,0.5684340121289839,-105.17837759673445,-71.64837292642449,-18.657617598655087,-0.0169,-0.7943,-0.5853,-0.1621
120,656891.0,628.5689150000001,1.0,2.48,2.4,-9.57,14.75,-16.87,42.56,-0.5,35.31,5.19,0.16045652267678173,0.1904347739822143,-0.36356574506602257,-105.04644280430534,-71.47886911000296,-19.56400979675284,-0.0107,-0.7936,-0.5841,-0.1699
121,656891.0,628.5689150000001,1.0,2.48,2.4,-9.57,14.75,-16.87,42.56,-0.5,35.31,5.19,0.16045652267678173,0.1904347739822143,-0.36356574506602257,-105.04644280430534,-71.47886911000296,-19.56400979675284,-0.0107,-0.7936,-0.5841,-0.1699
122,656928.0,628.623341,1.0,2.81,1.84,-9.04,12.88,-17.25,44.19,7.75,47.25,6.81,-0.14166719415661316,-0.13271622239952252,0.16478208914310954,-104.83951599711521,-71.3377536515333,-20.56480245757989,-0.0004,-0.7925,-0.5831,-0.1785
123,656928.0,628.623341,1.0,2.81,1.84,-9.04,12.88,-17.25,44.19,7.75,47.25,6.81,-0.14166719415661316,-0.13271622239952252,0.16478208914310954,-104.83951599711521,-71.3377536515333,-20.56480245757989,-0.0004,-0.7925,-0.5831,-0.1785
124,656963.0,628.635311,1.0,3.27,2.61,-9.34,12.56,-16.87,44.56,-1.25,44.31,6.06,0.5240263069087079,-0.013439143509315963,-0.4142020104289443,-104.61433000481749,-71.1404012489265,-21.707181480459113,0.0067,-0.7913,-0.5817,-0.1883
125,656963.0,628.635311,1.0,3.27,2.61,-9.34,12.56,-16.87,44.56,-1.25,44.31,6.06,0.5240263069087079,-0.013439143509315963,-0.4142020104289443,-104.61433000481749,-71.1404012489265,-21.707181480459113,0.0067,-0.7913,-0.5817,-0.1883
126,656998.0,628.642151,1.0,3.0,1.64,-9.07,12.56,-16.87,44.56,10.06,47.81,5.56,-0.3643475155445157,0.1680040667233511,0.12194424703667114,-104.2402868961662,-71.04181617810505,-22.79329707445838,0.0197,-0.7893,-0.581,-0.1976
127,656998.0,628.642151,1.0,3.0,1.64,-9.07,12.56,-16.87,44.56,10.06,47.81,5.56,-0.3643475155445157,0.1680040667233511,0.12194424703667114,-104.2402868961662,-71.04181617810505,-22.79329707445838,0.0197,-0.7893,-0.581,-0.1976
128,657031.0,628.679893,1.0,3.42,2.02,-9.01,9.56,-16.5,45.0,-0.81,47.06,1.56,0.03075019634104527,0.11859381461983375,-0.039257268127142815,-103.84922334055193,-70.92922160534616,-23.928344197778117,0.0268,-0.7872,-0.5802,-0.2073
129,657031.0,628.679893,1.0,3.42,2.02,-9.01,9.56,-16.5,45.0,-0.81,47.06,1.56,0.03075019634104527,0.11859381461983375,-0.039257268127142815,-103.84922334055193,-70.92922160534616,-23.928344197778117,0.0268,-0.7872,-0.5802,-0.2073
130,657068.0,628.738438,1.0,4.1,2.08,-9.5,6.56,-16.87,44.56,0.25,41.63,9.13,0.03707011456640735,0.0017007824383470373,-0.7472603139047518,-103.55241005030376,-70.53575900749587,-25.312354349514575,0.0377,-0.7856,-0.5774,-0.2191
131,657068.0,628.738438,1.0,4.1,2.08,-9.5,6.56,-16.87,44.56,0.25,41.63,9.13,0.03707011456640735,0.0017007824383470373,-0.7472603139047518,-103.55241005030376,-70.53575900749587,-25.312354349514575,0.0377,-0.7856,-0.5774,-0.2191
132,657102.0,628.754004,1.0,3.44,1.69,-7.88,6.56,-16.87,44.56,19.25,35.19,4.81,0.006799849920745504,0.10467842933541592,1.0446241960849625,-103.33043920857978,-70.42351668923327,-25.88816308640127,0.0447,-0.7844,-0.5766,-0.22399999999999998
133,657102.0,628.754004,1.0,3.44,1.69,-7.88,6.56,-16.87,44.56,19.25,35.19,4.81,0.006799849920745504,0.10467842933541592,1.0446241960849625,-103.33043920857978,-70.42351668923327,-25.88816308640127,0.0447,-0.7844,-0.5766,-0.22399999999999998
134,657137.0,628.795501,1.0,3.88,1.45,-8.25,5.75,-16.06,44.69,5.56,85.12,11.94,-0.2748049650849435,0.19747536633526372,0.5814190700527497,-102.64942299100883,-70.0172862891219,-27.737669605365127,0.0624,-0.7807,-0.5737,-0.2397
135,657137.0,628.795501,1.0,3.88,1.45,-8.25,5.75,-16.06,44.69,5.56,85.12,11.94,-0.2748049650849435,0.19747536633526372,0.5814190700527497,-102.64942299100883,-70.0172862891219,-27.737669605365127,0.0624,-0.7807,-0.5737,-0.2397
136,657172.0,628.853895,1.0,4.95,2.19,-9.15,3.5,-16.5,45.88,5.63,69.69,10.31,0.27553905730419304,0.2724965592063562,-0.8174228467532938,-102.11916897408959,-69.44467449288967,-29.523469077350697,0.0751,-0.7778,-0.5696,-0.2548
137,657172.0,628.853895,1.0,4.95,2.19,-9.15,3.5,-16.5,45.88,5.63,69.69,10.31,0.27553905730419304,0.2724965592063562,-0.8174228467532938,-102.11916897408959,-69.44467449288967,-29.523469077350697,0.0751,-0.7778,-0.5696,-0.2548
138,657207.0,628.911027,1.0,4.82,1.26,-8.03,-0.19,-16.06,45.88,11.44,77.25,13.13,-0.3007201197950309,0.0824842552920243,0.36188087856672796,-101.23005073336391,-68.99913278198008,-31.328533702747045,0.0944,-0.7729,-0.5664,-0.27
139,657207.0,628.911027,1.0,4.82,1.26,-8.03,-0.19,-16.06,45.88,11.44,77.25,13.13,-0.3007201197950309,0.0824842552920243,0.36188087856672796,-101.23005073336391,-68.99913278198008,-31.328533702747045,0.0944,-0.7729,-0.5664,-0.27
140,657242.0,628.927284,1.0,5.53,2.04,-8.24,-0.19,-16.06,45.88,5.69,31.69,0.19,0.4413229889109878,0.08760538289353081,-0.3144991104689669,-100.77964420318249,-68.70739234130575,-32.38912849332685,0.1016,-0.7704,-0.5643,-0.2789
141,657242.0,628.927284,1.0,5.53,2.04,-8.24,-0.19,-16.06,45.88,5.69,31.69,0.19,0.4413229889109878,0.08760538289353081,-0.3144991104689669,-100.77964420318249,-68.70739234130575,-32.38912849332685,0.1016,-0.7704,-0.5643,-0.2789
142,657278.0,628.932141,1.0,5.41,1.16,-8.11,-2.75,-15.75,46.25,4.38,36.31,6.25,-0.3418110410758061,0.061700091911130024,-0.004830943815607114,-100.24196356728784,-68.5825161330216,-33.08183396795116,0.1123,-0.7674,-0.5634,-0.2847
143,657278.0,628.932141,1.0,5.41,1.16,-8.11,-2.75,-15.75,46.25,4.38,36.31,6.25,-0.3418110410758061,0.061700091911130024,-0.004830943815607114,-100.24196356728784,-68.5825161330216,-33.08183396795116,0.1123,-0.7674,-0.5634,-0.2847
144,657313.0,628.96887,1.0,5.23,1.73,-7.47,-5.75,-15.06,46.69,-0.69,32.13,2.0,0.2920480189233546,0.2280064816424292,0.5325235721917156,-99.99207732629806,-68.2499653014806,-33.8955603834521,0.1163,-0.7659999999999999,-0.561,-0.2915
145,657313.0,628.96887,1.0,5.23,1.73,-7.47,-5.75,-15.06,46.69,-0.69,32.13,2.0,0.2920480189233546,0.2280064816424292,0.5325235721917156,-99.99207732629806,-68.2499653014806,-33.8955603834521,0.1163,-0.7659999999999999,-0.561,-0.2915
146,657348.0,629.0225849999999,1.0,5.8,1.55,-8.38,-5.75,-15.06,46.69,0.25,24.81,0.37,-0.10386714696637313,0.41558855282392,-0.4930294984379398,-99.38789480139916,-68.04245292301711,-34.903193986048876,0.1243,-0.7626,-0.5595,-0.2999
147,657348.0,629.0225849999999,1.0,5.8,1.55,-8.38,-5.75,-15.06,46.69,0.25,24.81,0.37,-0.10386714696637313,0.41558855282392,-0.4930294984379398,-99.38789480139916,-68.04245292301711,-34.903193986048876,0.1243,-0.7626,-0.5595,-0.2999
148,657383.0,629.0807179999999,1.0,6.35,1.32,-8.33,-6.06,-14.0,46.0,5.38,17.0,2.81,-0.20920639991680345,-0.013445723026755951,-0.7484365413205474,-99.10487032365977,-68.00098090210307,-35.27575900730597,0.1281,-0.7609999999999999,-0.5592,-0.303
149,657383.0,629.0807179999999,1.0,6.35,1.32,-8.33,-6.06,-14.0,46.0,5.38,17.0,2.81,-0.20920639991680345,-0.013445723026755951,-0.7484365413205474,-99.10487032365977,-68.00098090210307,-35.27575900730597,0.1281,-0.7609999999999999,-0.5592,-0.303
150,657418.0,629.101638,1.0,5.44,1.83,-7.19,-8.0,-14.25,46.38,9.0,10.38,-4.63,0.4537578879539335,0.2952276601982784,0.6226669638781743,-98.99894740813559,-67.95951900274443,-35.408051904136364,0.1299,-0.7604,-0.5589,-0.3041
151,657418.0,629.101638,1.0,5.44,1.83,-7.19,-8.0,-14.25,46.38,9.0,10.38,-4.63,0.4537578879539335,0.2952276601982784,0.6226669638781743,-98.99894740813559,-67.95951900274443,-35.408051904136364,0.1299,-0.7604,-0.5589,-0.3041
152,657453.0,629.104342,1.0,5.72,1.48,-7.65,-8.0,-14.25,46.38,-0.69,18.31,-0.37,0.02181468557024413,0.2860795113097251,0.1449222749654009,-98.73464010261608,-67.94570061664109,-35.73297808318577,0.133,-0.7589,-0.5588,-0.3068
153,657453.0,629.104342,1.0,5.72,1.48,-7.65,-8.0,-14.25,46.38,-0.69,18.31,-0.37,0.02181468557024413,0.2860795113097251,0.1449222749654009,-98.73464010261608,-67.94570061664109,-35.73297808318577,0.133,-0.7589,-0.5588,-0.3068
154,657485.0,629.142627,1.0,6.7,1.35,-8.23,-7.56,-14.25,46.75,-0.12,7.25,4.69,-0.12544691205135272,-0.08803209208985717,-0.8901679110901526,-98.50614716044564,-67.80757842682634,-36.16667598822457,0.1362,-0.7576,-0.5578,-0.3104
155,657485.0,629.142627,1.0,6.7,1.35,-8.23,-7.56,-14.25,46.75,-0.12,7.25,4.69,-0.12544691205135272,-0.08803209208985717,-0.8901679110901526,-98.50614716044564,-67.80757842682634,-36.16667598822457,0.1362,-0.7576,-0.5578,-0.3104
156,657522.0,629.2417009999999,1.0,6.09,1.33,-7.78,-7.88,-14.0,46.38,-1.69,-2.81,-1.19,-0.11499708757982695,0.10947158532473078,-0.16130824840045402,-98.55882930624523,-67.77996741979399,-36.14256765746203,0.1356,-0.7579,-0.5576,-0.3102
157,657522.0,629.2417009999999,1.0,6.09,1.33,-7.78,-7.88,-14.0,46.38,-1.69,-2.81,-1.19,-0.11499708757982695,0.10947158532473078,-0.16130824840045402,-98.55882930624523,-67.77996741979399,-36.14256765746203,0.1356,-0.7579,-0.5576,-0.3102
158,657557.0,629.251543,1.0,6.05,1.56,-7.73,-7.88,-14.25,44.38,-8.31,-15.19,-2.25,0.09417472434961782,0.117427429556625,-0.13147567439562025,-98.82266345911141,-67.73855928586947,-35.98590378205003,0.1318,-0.7594,-0.5573,-0.3089
159,657557.0,629.251543,1.0,6.05,1.56,-7.73,-7.88,-14.25,44.38,-8.31,-15.19,-2.25,0.09417472434961782,0.117427429556625,-0.13147567439562025,-98.82266345911141,-67.73855928586947,-35.98590378205003,0.1318,-0.7594,-0.5573,-0.3089
160,657592.0,629.2572299999999,1.0,6.24,1.71,-8.2,-7.88,-14.25,44.38,-11.81,-26.69,-5.69,0.10298093185797907,0.1575048462998594,-0.6368306051941204,-99.05189452300688,-67.83519390579393,-35.67278424373711,0.1265,-0.7607,-0.5579999999999999,-0.3063
161,657592.0,629.2572299999999,1.0,6.24,1.71,-8.2,-7.88,-14.25,44.38,-11.81,-26.69,-5.69,0.10298093185797907,0.1575048462998594,-0.6368306051941204,-99.05189452300688,-67.83519390579393,-35.67278424373711,0.1265,-0.7607,-0.5579999999999999,-0.3063
162,657629.0,629.298135,1.0,5.87,1.55,-8.13,-7.69,-14.69,46.0,-14.63,-45.38,-7.63,-0.09948248667195136,0.05898804395326417,-0.3394292252729887,-99.58295302275093,-68.19460380315536,-34.77108519878443,0.1147,-0.7637,-0.5606,-0.2988
163,657629.0,629.298135,1.0,5.87,1.55,-8.13,-7.69,-14.69,46.0,-14.63,-45.38,-7.63,-0.09948248667195136,0.05898804395326417,-0.3394292252729887,-99.58295302275093,-68.19460380315536,-34.77108519878443,0.1147,-0.7637,-0.5606,-0.2988
164,657664.0,629.313259,1.0,5.97,1.97,-8.66,-6.88,-15.38,45.19,-9.56,-59.38,-9.38,0.1585405843445119,0.10258796861203824,-0.8929640393853351,-100.20622564478924,-68.43001555142907,-33.775785318620265,0.10400000000000001,-0.7672,-0.5623,-0.2905
165,657664.0,629.313259,1.0,5.97,1.97,-8.66,-6.88,-15.38,45.19,-9.56,-59.38,-9.38,0.1585405843445119,0.10258796861203824,-0.8929640393853351,-100.20622564478924,-68.43001555142907,-33.775785318620265,0.10400000000000001,-0.7672,-0.5623,-0.2905
166,657696.0,629.349651,1.0,5.37,1.8,-8.0,-6.88,-15.38,45.19,-2.81,-76.37,-13.5,0.20765382831962914,-0.28824527813029843,0.011207460368634514,-101.0856867194038,-69.1660709028975,-31.59044340777591,0.0873,-0.7721,-0.5676,-0.2722
167,657696.0,629.349651,1.0,5.37,1.8,-8.0,-6.88,-15.38,45.19,-2.81,-76.37,-13.5,0.20765382831962914,-0.28824527813029843,0.011207460368634514,-101.0856867194038,-69.1660709028975,-31.59044340777591,0.0873,-0.7721,-0.5676,-0.2722
168,657733.0,629.424213,1.0,4.92,1.83,-8.54,-4.25,-15.0,44.75,-5.56,-60.63,-10.06,0.03584798581943677,0.007618227145850699,-0.2175984448724524,-101.61006514803414,-69.61206209055514,-30.187596092266823,0.0763,-0.775,-0.5708,-0.2604
169,657733.0,629.424213,1.0,4.92,1.83,-8.54,-4.25,-15.0,44.75,-5.56,-60.63,-10.06,0.03584798581943677,0.007618227145850699,-0.2175984448724524,-101.61006514803414,-69.61206209055514,-30.187596092266823,0.0763,-0.775,-0.5708,-0.2604
170,657770.0,629.427285,1.0,4.47,1.71,-8.47,-0.19,-15.75,46.75,0.37,-60.0,-6.81,-0.05341887873309858,-0.07890492513848046,0.07850421387077411,-102.24688249571881,-70.12924881260771,-28.36366745712689,0.0629,-0.7785,-0.5745,-0.245
171,657770.0,629.427285,1.0,4.47,1.71,-8.47,-0.19,-15.75,46.75,0.37,-60.0,-6.81,-0.05341887873309858,-0.07890492513848046,0.07850421387077411,-102.24688249571881,-70.12924881260771,-28.36366745712689,0.0629,-0.7785,-0.5745,-0.245
172,657803.0,629.502298,1.0,4.54,2.29,-9.43,-0.19,-15.75,46.75,-9.94,-71.69,-13.5,0.2610749141606318,0.06830375982038682,-0.9035215432382504,-102.74115590851987,-70.4375427333033,-27.006438787370872,0.0513,-0.7812,-0.5767,-0.2335
173,657803.0,629.502298,1.0,4.54,2.29,-9.43,-0.19,-15.75,46.75,-9.94,-71.69,-13.5,0.2610749141606318,0.06830375982038682,-0.9035215432382504,-102.74115590851987,-70.4375427333033,-27.006438787370872,0.0513,-0.7812,-0.5767,-0.2335
174,657838.0,629.5118309999999,1.0,3.4,1.57,-8.63,2.38,-15.38,45.56,5.44,-83.37,-14.69,-0.26782143726105523,0.02760606777241104,0.40296404274017306,-103.29349693464754,-71.25314422862833,-24.373645675055762,0.0341,-0.7842,-0.5825,-0.2111
175,657838.0,629.5118309999999,1.0,3.4,1.57,-8.63,2.38,-15.38,45.56,5.44,-83.37,-14.69,-0.26782143726105523,0.02760606777241104,0.40296404274017306,-103.29349693464754,-71.25314422862833,-24.373645675055762,0.0341,-0.7842,-0.5825,-0.2111
176,657872.0,629.552861,1.0,3.19,2.15,-8.93,5.38,-15.75,45.56,-11.31,-76.37,-13.13,0.19952660281490295,0.1101182134001828,0.0859729086731491,-103.66360039479626,-71.66250640989891,-22.723163534007305,0.0204,-0.7862,-0.5854,-0.19699999999999998
177,657872.0,629.552861,1.0,3.19,2.15,-8.93,5.38,-15.75,45.56,-11.31,-76.37,-13.13,0.19952660281490295,0.1101182134001828,0.0859729086731491,-103.66360039479626,-71.66250640989891,-22.723163534007305,0.0204,-0.7862,-0.5854,-0.19699999999999998
178,657909.0,629.5701349999999,1.0,3.05,1.55,-9.55,9.19,-15.38,44.75,2.31,-61.38,-10.31,-0.4436302592404929,-0.2595169179245965,-0.3246551065692973,-103.97938807566652,-72.21469959987994,-20.56480245757989,0.0056,-0.7879,-0.5893,-0.1785
179,657909.0,629.5701349999999,1.0,3.05,1.55,-9.55,9.19,-15.38,44.75,2.31,-61.38,-10.31,-0.4436302592404929,-0.2595169179245965,-0.3246551065692973,-103.97938807566652,-72.21469959987994,-20.56480245757989,0.0056,-0.7879,-0.5893,-0.1785
180,657944.0,629.612941,1.0,2.15,1.92,-9.07,9.19,-15.38,44.75,-10.38,-80.12,-14.13,-0.0975668597611069,0.11096222264467036,0.29077021445089457,-104.33365022340344,-72.59812617311991,-18.437010245615284,-0.0115,-0.7898,-0.5920000000000001,-0.1602
181,657944.0,629.612941,1.0,2.15,1.92,-9.07,9.19,-15.38,44.75,-10.38,-80.12,-14.13,-0.0975668597611069,0.11096222264467036,0.29077021445089457,-104.33365022340344,-72.59812617311991,-18.437010245615284,-0.0115,-0.7898,-0.5920000000000001,-0.1602
182,657981.0,629.668307,1.0,2.06,1.69,-9.67,12.5,-15.75,44.88,-2.44,-57.63,-0.63,-0.3795366003032559,-0.08090943686092278,-0.21622412033380375,-104.67057274431014,-72.71191496585868,-16.848301053200124,-0.0206,-0.7916,-0.5928,-0.1465
183,657981.0,629.668307,1.0,2.06,1.69,-9.67,12.5,-15.75,44.88,-2.44,-57.63,-0.63,-0.3795366003032559,-0.08090943686092278,-0.21622412033380375,-104.67057274431014,-72.71191496585868,-16.848301053200124,-0.0206,-0.7916,-0.5928,-0.1465
184,658016.0,629.6838759999999,1.0,1.65,2.3,-8.91,14.69,-15.38,43.25,-18.06,-67.69,-6.56,0.2854333536658603,0.08382495879320895,0.4625555453779597,-104.91470584503644,-72.72614441111948,-15.713868313956251,-0.0334,-0.7929,-0.5929,-0.1367
185,658016.0,629.6838759999999,1.0,1.65,2.3,-8.91,14.69,-15.38,43.25,-18.06,-67.69,-6.56,0.2854333536658603,0.08382495879320895,0.4625555453779597,-104.91470584503644,-72.72614441111948,-15.713868313956251,-0.0334,-0.7929,-0.5929,-0.1367
186,658051.0,629.716482,1.0,1.3,1.75,-9.43,14.69,-15.38,43.25,-2.63,-46.5,-2.25,-0.34562040313137954,-0.04498772728307343,0.13421893840368604,-105.19724163612636,-72.79731116496349,-13.945814879054648,-0.045,-0.7944,-0.5934,-0.1214
187,658051.0,629.716482,1.0,1.3,1.75,-9.43,14.69,-15.38,43.25,-2.63,-46.5,-2.25,-0.34562040313137954,-0.04498772728307343,0.13421893840368604,-105.19724163612636,-72.79731116496349,-13.945814879054648,-0.045,-0.7944,-0.5934,-0.1214
188,658083.0,629.732582,1.0,0.8,1.95,-9.3,17.75,-16.5,43.25,-11.31,-43.25,0.75,-0.25566225223640965,0.1990588943958853,0.2763030824243717,-105.49962088989868,-72.61234523055688,-12.88430304585338,-0.0569,-0.7959999999999999,-0.5921,-0.1122
189,658083.0,629.732582,1.0,0.8,1.95,-9.3,17.75,-16.5,43.25,-11.31,-43.25,0.75,-0.25566225223640965,0.1990588943958853,0.2763030824243717,-105.49962088989868,-72.61234523055688,-12.88430304585338,-0.0569,-0.7959999999999999,-0.5921,-0.1122
190,658120.0,629.794758,1.0,1.11,2.09,-9.21,19.5,-17.25,42.5,-16.62,-28.25,5.75,-0.026307131624373536,-0.2058867012687053,0.29974626634063384,-105.822052873486,-72.2856337588228,-12.377021364647927,-0.0637,-0.7977,-0.5898,-0.1078
191,658120.0,629.794758,1.0,1.11,2.09,-9.21,19.5,-17.25,42.5,-16.62,-28.25,5.75,-0.026307131624373536,-0.2058867012687053,0.29974626634063384,-105.822052873486,-72.2856337588228,-12.377021364647927,-0.0637,-0.7977,-0.5898,-0.1078
192,658155.0,629.837223,1.0,1.41,2.25,-9.99,19.5,-17.25,42.5,-14.44,-21.12,7.38,-0.028308898537538263,-0.5346937151937947,-0.5163341246219044,-106.10755148916279,-71.95960119494845,-12.192616183384214,-0.0696,-0.7992,-0.5875,-0.1062
193,658155.0,629.837223,1.0,1.41,2.25,-9.99,19.5,-17.25,42.5,-14.44,-21.12,7.38,-0.028308898537538263,-0.5346937151937947,-0.5163341246219044,-106.10755148916279,-71.95960119494845,-12.192616183384214,-0.0696,-0.7992,-0.5875,-0.1062
194,658190.0,629.8492610000001,1.0,0.57,2.11,-9.93,20.69,-17.25,41.75,-6.44,-35.25,6.69,-0.4157523300175686,-0.003989454354978328,-0.3525347155339613,-106.45140340836085,-71.56359842931408,-11.547444362906596,-0.0798,-0.8009999999999999,-0.5847,-0.1006
195,658190.0,629.8492610000001,1.0,0.57,2.11,-9.93,20.69,-17.25,41.75,-6.44,-35.25,6.69,-0.4157523300175686,-0.003989454354978328,-0.3525347155339613,-106.45140340836085,-71.56359842931408,-11.547444362906596,-0.0798,-0.8009999999999999,-0.5847,-0.1006
196,658225.0,629.886726,1.0,0.36,1.85,-9.6,21.0,-17.25,41.75,-10.13,-44.81,11.81,-0.6064302975577927,-0.14658876672715915,0.0433076405580568,-107.0468533184743,-70.97143532628913,-10.465291924669183,-0.0903,-0.8041,-0.5805,-0.0912
197,658225.0,629.886726,1.0,0.36,1.85,-9.6,21.0,-17.25,41.75,-10.13,-44.81,11.81,-0.6064302975577927,-0.14658876672715915,0.0433076405580568,-107.0468533184743,-70.97143532628913,-10.465291924669183,-0.0903,-0.8041,-0.5805,-0.0912
198,658262.0,629.940195,1.0,0.17,2.37,-9.13,23.69,-18.0,40.19,-28.37,-49.13,7.38,-0.14486979257789098,-0.04070307266801576,0.3737259568904712,-107.27847580775386,-70.52172446832354,-9.878564278366849,-0.1038,-0.8053,-0.5773,-0.0861
199,658262.0,629.940195,1.0,0.17,2.37,-9.13,23.69,-18.0,40.19,-28.37,-49.13,7.38,-0.14486979257789098,-0.04070307266801576,0.3737259568904712,-107.27847580775386,-70.52172446832354,-9.878564278366849,-0.1038,-0.8053,-0.5773,-0.0861
200,658294.0,629.958164,1.0,-0.49,2.69,-8.8,23.69,-18.0,40.19,-16.25,-30.0,8.19,-0.037833447598992716,0.4893237890982634,0.6047300449218564,-107.68535335119316,-69.90540033624497,-9.280599254023052,-0.1155,-0.8074,-0.5729,-0.0809
201,658294.0,629.958164,1.0,-0.49,2.69,-8.8,23.69,-18.0,40.19,-16.25,-30.0,8.19,-0.037833447598992716,0.4893237890982634,0.6047300449218564,-107.68535335119316,-69.90540033624497,-9.280599254023052,-0.1155,-0.8074,-0.5729,-0.0809
202,658331.0,629.997385,1.0,-0.49,2.56,-9.1,23.56,-19.06,39.75,-23.69,-6.56,20.5,-0.31790196880141475,0.36344625003066294,0.35305041245818103,-108.09421758930814,-69.31924492932319,-9.418568108565768,-0.1206,-0.8095,-0.5687,-0.0821
203,658331.0,629.997385,1.0,-0.49,2.56,-9.1,23.56,-19.06,39.75,-23.69,-6.56,20.5,-0.31790196880141475,0.36344625003066294,0.35305041245818103,-108.09421758930814,-69.31924492932319,-9.418568108565768,-0.1206,-0.8095,-0.5687,-0.0821
204,658368.0,630.013065,1.0,0.02,2.62,-9.79,25.06,-19.5,37.88,-23.44,-3.75,28.81,-0.4406760792746391,-0.18950125225144945,-0.31653101530098304,-108.83922979141936,-68.26380850791266,-10.016593913069029,-0.1266,-0.8133,-0.5611,-0.0873
205,658368.0,630.013065,1.0,0.02,2.62,-9.79,25.06,-19.5,37.88,-23.44,-3.75,28.81,-0.4406760792746391,-0.18950125225144945,-0.31653101530098304,-108.83922979141936,-68.26380850791266,-10.016593913069029,-0.1266,-0.8133,-0.5611,-0.0873
206,658403.0,630.050338,1.0,0.07,3.43,-9.08,25.06,-19.5,37.88,-45.0,-18.81,22.37,0.33399332056216113,0.027704495902175275,0.10593451490681538,-109.37271990346242,-67.33879642330523,-10.396251161173769,-0.1359,-0.816,-0.5544,-0.0906
207,658403.0,630.050338,1.0,0.07,3.43,-9.08,25.06,-19.5,37.88,-45.0,-18.81,22.37,0.33399332056216113,0.027704495902175275,0.10593451490681538,-109.37271990346242,-67.33879642330523,-10.396251161173769,-0.1359,-0.816,-0.5544,-0.0906
208,658436.0,630.1063280000001,1.0,-0.75,3.61,-8.36,24.69,-21.0,37.88,-19.19,-10.13,22.87,0.2339440546669477,0.8563789293227977,0.7129112029650901,-109.98960304245053,-66.32288574654007,-10.764512919793646,-0.1454,-0.8191,-0.547,-0.0938
209,658436.0,630.1063280000001,1.0,-0.75,3.61,-8.36,24.69,-21.0,37.88,-19.19,-10.13,22.87,0.2339440546669477,0.8563789293227977,0.7129112029650901,-109.98960304245053,-66.32288574654007,-10.764512919793646,-0.1454,-0.8191,-0.547,-0.0938
210,658472.0,630.162901,1.0,0.06,2.98,-8.88,24.25,-22.87,37.5,-4.25,23.75,29.87,-0.19175335280589836,-0.06981234894259658,0.4419953407174262,-110.79266112612923,-65.54435879722949,-11.213483126166134,-0.1415,-0.8231,-0.5413,-0.0977
211,658472.0,630.162901,1.0,0.06,2.98,-8.88,24.25,-22.87,37.5,-4.25,23.75,29.87,-0.19175335280589836,-0.06981234894259658,0.4419953407174262,-110.79266112612923,-65.54435879722949,-11.213483126166134,-0.1415,-0.8231,-0.5413,-0.0977
212,658509.0,630.178688,1.0,0.44,3.38,-9.71,24.69,-24.0,37.88,-28.75,22.5,23.31,-0.2163870189874011,-0.2329891147019749,-0.4793109531848874,-111.1972622086614,-64.70138684078718,-12.780520582262024,-0.1431,-0.8251,-0.5351,-0.1113
213,658509.0,630.178688,1.0,0.44,3.38,-9.71,24.69,-24.0,37.88,-28.75,22.5,23.31,-0.2163870189874011,-0.2329891147019749,-0.4793109531848874,-111.1972622086614,-64.70138684078718,-12.780520582262024,-0.1431,-0.8251,-0.5351,-0.1113
214,658544.0,630.26698,1.0,0.16,3.68,-9.12,24.69,-24.0,37.88,-21.31,4.81,25.31,-0.02029256623975073,0.2490258302012565,-0.025947538171079643,-111.68555504305651,-63.916341681484134,-13.507223821905177,-0.1459,-0.8275,-0.5293,-0.1176
215,658544.0,630.26698,1.0,0.16,3.68,-9.12,24.69,-24.0,37.88,-21.31,4.81,25.31,-0.02029256623975073,0.2490258302012565,-0.025947538171079643,-111.68555504305651,-63.916341681484134,-13.507223821905177,-0.1459,-0.8275,-0.5293,-0.1176
216,658581.0,630.306811,1.0,0.52,3.63,-8.71,22.06,-25.5,37.0,-29.37,16.44,15.38,0.03934759414389655,-0.03217698771033595,0.3563158044121533,-112.03329231056664,-63.09429398938783,-14.430812668433536,-0.1511,-0.8292,-0.5232,-0.1256
217,658581.0,630.306811,1.0,0.52,3.63,-8.71,22.06,-25.5,37.0,-29.37,16.44,15.38,0.03934759414389655,-0.03217698771033595,0.3563158044121533,-112.03329231056664,-63.09429398938783,-14.430812668433536,-0.1511,-0.8292,-0.5232,-0.1256
218,658616.0,630.314727,1.0,0.29,3.7,-8.76,22.37,-26.56,38.19,-30.44,31.62,19.12,-0.21618221359306852,0.28093701242634483,0.2994927147977133,-112.03329231056664,-62.66450299518854,-15.667598608855753,-0.1531,-0.8292,-0.52,-0.1363
219,658616.0,630.314727,1.0,0.29,3.7,-8.76,22.37,-26.56,38.19,-30.44,31.62,19.12,-0.21618221359306852,0.28093701242634483,0.2994927147977133,-112.03329231056664,-62.66450299518854,-15.667598608855753,-0.1531,-0.8292,-0.52,-0.1363
220,658651.0,630.330372,1.0,0.58,3.83,-8.12,22.37,-26.56,38.19,-19.19,46.13,34.63,0.04053976268623094,0.3406156557850868,0.8165422418763288,-112.44441011743349,-61.75443240547686,-17.404541942676424,-0.1509,-0.8312,-0.5132,-0.1513
221,658651.0,630.330372,1.0,0.58,3.83,-8.12,22.37,-26.56,38.19,-19.19,46.13,34.63,0.04053976268623094,0.3406156557850868,0.8165422418763288,-112.44441011743349,-61.75443240547686,-17.404541942676424,-0.1509,-0.8312,-0.5132,-0.1513
222,658685.0,630.333465,1.0,1.33,4.22,-8.49,20.87,-28.0,36.69,-33.5,80.62,27.44,0.1297078318422633,0.1766494851165339,0.2353715672217067,-112.34142441987677,-60.91512002849741,-20.57644875978384,-0.145,-0.8307,-0.5069,-0.1786
223,658685.0,630.333465,1.0,1.33,4.22,-8.49,20.87,-28.0,36.69,-33.5,80.62,27.44,0.1297078318422633,0.1766494851165339,0.2353715672217067,-112.34142441987677,-60.91512002849741,-20.57644875978384,-0.145,-0.8307,-0.5069,-0.1786
224,658722.0,630.409726,1.0,2.04,4.02,-9.25,17.19,-28.69,36.69,-16.0,94.75,29.31,-0.40712556931828425,-0.18903573077428693,-0.4735744266989581,-111.9308545002648,-60.46365910623083,-23.37808257553645,-0.1365,-0.8287,-0.5035,-0.2026
225,658722.0,630.409726,1.0,2.04,4.02,-9.25,17.19,-28.69,36.69,-16.0,94.75,29.31,-0.40712556931828425,-0.18903573077428693,-0.4735744266989581,-111.9308545002648,-60.46365910623083,-23.37808257553645,-0.1365,-0.8287,-0.5035,-0.2026
226,658757.0,630.420967,1.0,2.78,4.56,-9.09,17.19,-28.69,36.69,-16.87,65.37,30.87,0.13806270961677536,-0.22815084569355104,-0.7327515902148161,-111.82855209706509,-59.814839778401826,-25.59430098947942,-0.1279,-0.8282,-0.4986,-0.2215
227,658757.0,630.420967,1.0,2.78,4.56,-9.09,17.19,-28.69,36.69,-16.87,65.37,30.87,0.13806270961677536,-0.22815084569355104,-0.7327515902148161,-111.82855209706509,-59.814839778401826,-25.59430098947942,-0.1279,-0.8282,-0.4986,-0.2215
228,658790.0,630.464328,1.0,2.72,4.4,-8.63,13.5,-29.87,37.06,-5.88,43.44,16.56,-0.038768602534392634,0.025509843831637458,-0.254818393993256,-111.58357510903522,-59.194482438730184,-27.65505415801313,-0.1227,-0.8270000000000001,-0.4939,-0.239
229,658790.0,630.464328,1.0,2.72,4.4,-8.63,13.5,-29.87,37.06,-5.88,43.44,16.56,-0.038768602534392634,0.025509843831637458,-0.254818393993256,-111.58357510903522,-59.194482438730184,-27.65505415801313,-0.1227,-0.8270000000000001,-0.4939,-0.239
230,658825.0,630.5231190000001,1.0,2.73,4.31,-7.9,11.56,-30.25,37.5,3.13,43.38,19.25,0.15793934896989692,0.22551527314513156,0.4064798938995118,-111.52245118481588,-58.74690084345127,-29.132584441928433,-0.1133,-0.8267,-0.4905,-0.2515
231,658825.0,630.5231190000001,1.0,2.73,4.31,-7.9,11.56,-30.25,37.5,3.13,43.38,19.25,0.15793934896989692,0.22551527314513156,0.4064798938995118,-111.52245118481588,-58.74690084345127,-29.132584441928433,-0.1133,-0.8267,-0.4905,-0.2515
232,658862.0,630.538521,1.0,3.54,4.32,-8.89,9.69,-31.5,38.0,8.19,66.75,22.0,-0.1645070198665325,-0.09443589805695307,-0.6904981508823518,-111.27843287427478,-58.41842386753149,-30.626963035148037,-0.10300000000000001,-0.8255,-0.488,-0.2641
233,658862.0,630.538521,1.0,3.54,4.32,-8.89,9.69,-31.5,38.0,8.19,66.75,22.0,-0.1645070198665325,-0.09443589805695307,-0.6904981508823518,-111.27843287427478,-58.41842386753149,-30.626963035148037,-0.10300000000000001,-0.8255,-0.488,-0.2641
234,658896.0,630.5757120000001,1.0,3.66,4.23,-8.9,9.69,-31.5,38.0,5.75,29.31,15.81,-0.2798012999998523,0.05095619017538944,-0.7013286209908713,-111.15670835013724,-58.06425892056141,-31.864439303449732,-0.0931,-0.8249,-0.4853,-0.2745
235,658896.0,630.5757120000001,1.0,3.66,4.23,-8.9,9.69,-31.5,38.0,5.75,29.31,15.81,-0.2798012999998523,0.05095619017538944,-0.7013286209908713,-111.15670835013724,-58.06425892056141,-31.864439303449732,-0.0931,-0.8249,-0.4853,-0.2745
236,658931.0,630.612809,1.0,3.59,4.1,-7.75,6.06,-31.06,38.0,6.56,31.0,13.69,0.1926945499082297,0.034963435809631786,0.3344672331509546,-111.1972622086614,-57.802305908948476,-32.377196032412236,-0.0886,-0.8251,-0.4833,-0.2788
237,658931.0,630.612809,1.0,3.59,4.1,-7.75,6.06,-31.06,38.0,6.56,31.0,13.69,0.1926945499082297,0.034963435809631786,0.3344672331509546,-111.1972622086614,-57.802305908948476,-32.377196032412236,-0.0886,-0.8251,-0.4833,-0.2788
238,658968.0,630.642319,1.0,3.57,3.69,-7.9,5.69,-31.06,37.56,27.44,51.69,14.94,-0.2314404767754735,0.20295216303335284,0.3898434433572415,-110.9542523014697,-57.61913540426363,-33.62013451285477,-0.073,-0.8239,-0.4819,-0.2892
239,658968.0,630.642319,1.0,3.57,3.69,-7.9,5.69,-31.06,37.56,27.44,51.69,14.94,-0.2314404767754735,0.20295216303335284,0.3898434433572415,-110.9542523014697,-57.61913540426363,-33.62013451285477,-0.073,-0.8239,-0.4819,-0.2892
240,659003.0,630.657238,1.0,4.22,3.53,-8.13,5.69,-31.06,37.56,46.69,59.81,28.37,-0.1961827570333379,-0.029736472801511038,-0.007973175039790448,-110.91382347990452,-57.40999463594625,-34.48301299993159,-0.0557,-0.8237,-0.4803,-0.2964
241,659003.0,630.657238,1.0,4.22,3.53,-8.13,5.69,-31.06,37.56,46.69,59.81,28.37,-0.1961827570333379,-0.029736472801511038,-0.007973175039790448,-110.91382347990452,-57.40999463594625,-34.48301299993159,-0.0557,-0.8237,-0.4803,-0.2964
242,659036.0,630.707566,1.0,4.29,3.25,-8.43,3.25,-29.56,40.0,36.38,57.94,22.19,-0.5001011598354484,0.31806823846750354,-0.17734876931129406,-110.55089162584848,-57.22716779893635,-35.70889932534101,-0.0323,-0.8219,-0.4789,-0.3066
243,659036.0,630.707566,1.0,4.29,3.25,-8.43,3.25,-29.56,40.0,36.38,57.94,22.19,-0.5001011598354484,0.31806823846750354,-0.17734876931129406,-110.55089162584848,-57.22716779893635,-35.70889932534101,-0.0323,-0.8219,-0.4789,-0.3066
244,659073.0,630.753567,1.0,5.42,3.58,-8.58,0.37,-29.19,40.25,38.13,47.19,24.75,0.12124870478320934,-0.05477468117717477,-0.9539958210411488,-110.49056420469131,-56.953225372056934,-36.35960237870008,-0.0178,-0.8216,-0.4768,-0.312
245,659073.0,630.753567,1.0,5.42,3.58,-8.58,0.37,-29.19,40.25,38.13,47.19,24.75,0.12124870478320934,-0.05477468117717477,-0.9539958210411488,-110.49056420469131,-56.953225372056934,-36.35960237870008,-0.0178,-0.8216,-0.4768,-0.312
246,659107.0,630.8063900000001,1.0,4.59,2.66,-8.03,0.37,-29.19,40.25,29.0,15.06,6.25,-0.4839386986369448,0.1795353115382552,0.19633416711123708,-110.32991436609802,-57.0836297204198,-36.48023552286196,-0.0042,-0.8208,-0.4778,-0.313
247,659107.0,630.8063900000001,1.0,4.59,2.66,-8.03,0.37,-29.19,40.25,29.0,15.06,6.25,-0.4839386986369448,0.1795353115382552,0.19633416711123708,-110.32991436609802,-57.0836297204198,-36.48023552286196,-0.0042,-0.8208,-0.4778,-0.313
248,659142.0,630.812859,1.0,5.07,2.85,-7.99,-1.37,-27.25,41.5,24.06,13.75,14.5,-0.09471764141138583,-0.006946649126650328,-0.07558053325874248,-110.45037134177934,-56.940189367000634,-36.504367169981776,0.0014,-0.8214,-0.4767,-0.3132
249,659142.0,630.812859,1.0,5.07,2.85,-7.99,-1.37,-27.25,41.5,24.06,13.75,14.5,-0.09471764141138583,-0.006946649126650328,-0.07558053325874248,-110.45037134177934,-56.940189367000634,-36.504367169981776,0.0014,-0.8214,-0.4767,-0.3132
250,659177.0,630.864382,1.0,5.18,2.81,-8.17,-1.75,-27.0,42.0,21.69,19.75,12.44,-0.10311150093706796,0.13310370604028288,-0.2655419869417113,-110.45037134177934,-56.78381993878929,-36.673335709404434,0.0118,-0.8214,-0.4755,-0.3146
251,659177.0,630.864382,1.0,5.18,2.81,-8.17,-1.75,-27.0,42.0,21.69,19.75,12.44,-0.10311150093706796,0.13310370604028288,-0.2655419869417113,-110.45037134177934,-56.78381993878929,-36.673335709404434,0.0118,-0.8214,-0.4755,-0.3146
252,659214.0,630.871271,1.0,5.12,2.38,-8.02,-2.5,-25.5,42.69,18.5,17.44,4.94,-0.3617294238954539,0.009662486256035495,0.005208347862922125,-110.30985589206541,-56.78381993878929,-36.86654380200172,0.0178,-0.8207,-0.4755,-0.3162
253,659214.0,630.871271,1.0,5.12,2.38,-8.02,-2.5,-25.5,42.69,18.5,17.44,4.94,-0.3617294238954539,0.009662486256035495,0.005208347862922125,-110.30985589206541,-56.78381993878929,-36.86654380200172,0.0178,-0.8207,-0.4755,-0.3162
254,659247.0,630.9232900000001,1.0,5.01,2.76,-8.0,-2.5,-25.5,42.69,11.88,16.06,9.06,-0.055339418748850455,0.4437369954806454,-0.017693999859446308,-110.22967237255024,-56.65360014298316,-37.1323824635344,0.0253,-0.8203,-0.4745,-0.3184
255,659247.0,630.9232900000001,1.0,5.01,2.76,-8.0,-2.5,-25.5,42.69,11.88,16.06,9.06,-0.055339418748850455,0.4437369954806454,-0.017693999859446308,-110.22967237255024,-56.65360014298316,-37.1323824635344,0.0253,-0.8203,-0.4745,-0.3184
256,659283.0,630.936899,1.0,5.3,2.39,-7.9,-3.56,-25.5,42.25,23.44,24.75,13.0,-0.1567324232473449,0.1358002809762029,6.582245938879794e-05,-110.1295559906411,-56.53647049567268,-37.35004092959612,0.0332,-0.8198,-0.4736,-0.3202
257,659283.0,630.936899,1.0,5.3,2.39,-7.9,-3.56,-25.5,42.25,23.44,24.75,13.0,-0.1567324232473449,0.1358002809762029,6.582245938879794e-05,-110.1295559906411,-56.53647049567268,-37.35004092959612,0.0332,-0.8198,-0.4736,-0.3202
258,659318.0,630.997261,1.0,5.6,2.44,-8.1,-6.38,-24.69,42.25,12.19,25.75,9.81,-0.1028763670384966,0.21849045582257265,-0.3356021351926284,-109.92969787688708,-56.27641242483391,-37.89480115121914,0.0424,-0.8188,-0.4716,-0.3247
259,659318.0,630.997261,1.0,5.6,2.44,-8.1,-6.38,-24.69,42.25,12.19,25.75,9.81,-0.1028763670384966,0.21849045582257265,-0.3356021351926284,-109.92969787688708,-56.27641242483391,-37.89480115121914,0.0424,-0.8188,-0.4716,-0.3247
260,659353.0,631.012236,1.0,5.62,2.12,-8.07,-6.38,-24.69,42.25,6.44,3.88,0.63,-0.3227869755551852,0.06983283598734502,-0.24793263397491394,-109.82995506205258,-56.28940782045202,-37.96750276694696,0.0453,-0.8183,-0.4717,-0.3253
261,659353.0,631.012236,1.0,5.62,2.12,-8.07,-6.38,-24.69,42.25,6.44,3.88,0.63,-0.3227869755551852,0.06983283598734502,-0.24793263397491394,-109.82995506205258,-56.28940782045202,-37.96750276694696,0.0453,-0.8183,-0.4717,-0.3253
262,659386.0,631.0823,1.0,5.54,2.49,-7.91,-6.38,-24.37,42.25,-2.69,2.13,1.0,0.01133603772211854,0.2827016379111671,-0.16228932563395482,-109.86983734458828,-56.15948929286995,-38.06446294953504,0.0451,-0.8185,-0.4707,-0.3261
263,659386.0,631.0823,1.0,5.54,2.49,-7.91,-6.38,-24.37,42.25,-2.69,2.13,1.0,0.01133603772211854,0.2827016379111671,-0.16228932563395482,-109.86983734458828,-56.15948929286995,-38.06446294953504,0.0451,-0.8185,-0.4707,-0.3261
264,659423.0,631.105509,1.0,5.6,2.38,-8.07,-6.38,-24.25,43.5,-10.06,-6.81,-6.06,-0.16160887836635254,0.20659195264730568,-0.2968396117893146,-109.86983734458828,-56.17247760648797,-38.11295365085032,0.043,-0.8185,-0.4708,-0.3265
265,659423.0,631.105509,1.0,5.6,2.38,-8.07,-6.38,-24.25,43.5,-10.06,-6.81,-6.06,-0.16160887836635254,0.20659195264730568,-0.2968396117893146,-109.86983734458828,-56.17247760648797,-38.11295365085032,0.043,-0.8185,-0.4708,-0.3265
266,659456.0,631.147516,1.0,5.48,2.54,-7.68,-6.38,-24.25,43.5,-12.88,-15.5,-4.56,0.09920256304202246,0.1409549053370387,0.03758194996844644,-110.00958136957878,-56.2114472624779,-37.931149977697146,0.038,-0.8192,-0.4711,-0.325
267,659456.0,631.147516,1.0,5.48,2.54,-7.68,-6.38,-24.25,43.5,-12.88,-15.5,-4.56,0.09920256304202246,0.1409549053370387,0.03758194996844644,-110.00958136957878,-56.2114472624779,-37.931149977697146,0.038,-0.8192,-0.4711,-0.325
268,659490.0,631.163876,1.0,5.6,2.34,-8.54,-7.5,-25.06,41.88,-18.87,-26.25,-10.19,-0.4629631501633108,0.09576459092700196,-0.6596623527207726,-110.43028252227127,-56.04262977353804,-37.59204770944774,0.03,-0.8213,-0.4698,-0.3222
269,659490.0,631.163876,1.0,5.6,2.34,-8.54,-7.5,-25.06,41.88,-18.87,-26.25,-10.19,-0.4629631501633108,0.09576459092700196,-0.6596623527207726,-110.43028252227127,-56.04262977353804,-37.59204770944774,0.03,-0.8213,-0.4698,-0.3222
270,659525.0,631.20682,1.0,4.98,2.68,-7.57,-6.0,-24.0,42.0,-35.5,-54.19,-23.12,0.04947883513236047,0.12623002666200267,0.3584058337412301,-110.79266112612923,-56.250423997675526,-36.86654380200172,0.0158,-0.8231,-0.4714,-0.3162
271,659525.0,631.20682,1.0,4.98,2.68,-7.57,-6.0,-24.0,42.0,-35.5,-54.19,-23.12,0.04947883513236047,0.12623002666200267,0.3584058337412301,-110.79266112612923,-56.250423997675526,-36.86654380200172,0.0158,-0.8231,-0.4714,-0.3162
272,659562.0,631.2232700000001,1.0,5.46,3.15,-8.49,-4.06,-25.5,42.25,-30.19,-43.25,-18.37,0.08807201682769382,-0.062092267103996075,-0.7670242842882118,-111.13643927299914,-56.51045043124189,-36.01000138130928,-0.0012,-0.8248,-0.4734,-0.3091
273,659562.0,631.2232700000001,1.0,5.46,3.15,-8.49,-4.06,-25.5,42.25,-30.19,-43.25,-18.37,0.08807201682769382,-0.062092267103996075,-0.7670242842882118,-111.13643927299914,-56.51045043124189,-36.01000138130928,-0.0012,-0.8248,-0.4734,-0.3091
274,659595.0,631.305309,1.0,4.81,3.49,-8.54,-4.06,-25.5,42.25,-35.25,-67.56,-19.31,0.10365146458790596,0.15384841217940415,-0.5959163679670265,-111.74680725300392,-56.75776958698043,-34.56701075551299,-0.0225,-0.8278,-0.4753,-0.2971
275,659595.0,631.305309,1.0,4.81,3.49,-8.54,-4.06,-25.5,42.25,-35.25,-67.56,-19.31,0.10365146458790596,0.15384841217940415,-0.5959163679670265,-111.74680725300392,-56.75776958698043,-34.56701075551299,-0.0225,-0.8278,-0.4753,-0.2971
276,659634.0,631.357504,1.0,4.36,3.2,-8.55,-2.19,-26.19,41.88,14.63,-74.31,-22.56,-0.09408791199077182,0.026128274573189447,-0.3098002063760035,-112.32084385114356,-57.33162075280612,-32.651734221557824,-0.0316,-0.8306,-0.4797,-0.2811
277,659634.0,631.357504,1.0,4.36,3.2,-8.55,-2.19,-26.19,41.88,14.63,-74.31,-22.56,-0.09408791199077182,0.026128274573189447,-0.3098002063760035,-112.32084385114356,-57.33162075280612,-32.651734221557824,-0.0316,-0.8306,-0.4797,-0.2811
278,659668.0,631.372697,1.0,3.87,3.01,-7.94,1.5,-27.0,41.06,15.19,-69.5,-21.12,0.16590719198790466,-0.18111170914211905,0.4781842444505706,-112.91993898771477,-58.23470667250937,-29.96215210560615,-0.0403,-0.8335,-0.4866,-0.2585
279,659668.0,631.372697,1.0,3.87,3.01,-7.94,1.5,-27.0,41.06,15.19,-69.5,-21.12,0.16590719198790466,-0.18111170914211905,0.4781842444505706,-112.91993898771477,-58.23470667250937,-29.96215210560615,-0.0403,-0.8335,-0.4866,-0.2585
280,659703.0,631.3756950000001,1.0,3.54,2.73,-8.85,1.5,-27.0,41.06,14.56,-50.13,-18.31,-0.42929104458248657,-0.10457992922967296,-0.09848867835496657,-113.16922611259191,-58.825814107213525,-28.41094741939909,-0.0447,-0.8347,-0.4911,-0.2454
281,659703.0,631.3756950000001,1.0,3.54,2.73,-8.85,1.5,-27.0,41.06,14.56,-50.13,-18.31,-0.42929104458248657,-0.10457992922967296,-0.09848867835496657,-113.16922611259191,-58.825814107213525,-28.41094741939909,-0.0447,-0.8347,-0.4911,-0.2454
282,659736.0,631.4080730000001,1.0,3.64,2.92,-9.24,3.25,-26.19,42.0,2.94,-54.75,-13.81,-0.2050539727667317,-0.3663164019580841,-0.5363362787257504,-113.52379683838042,-59.36587885432352,-26.452866060028953,-0.0535,-0.8364,-0.4952,-0.2288
283,659736.0,631.4080730000001,1.0,3.64,2.92,-9.24,3.25,-26.19,42.0,2.94,-54.75,-13.81,-0.2050539727667317,-0.3663164019580841,-0.5363362787257504,-113.52379683838042,-59.36587885432352,-26.452866060028953,-0.0535,-0.8364,-0.4952,-0.2288
284,659773.0,631.460955,1.0,3.65,3.2,-9.91,6.0,-26.19,42.69,-0.44,-102.69,-25.94,-0.04406865743863608,-0.6057578712403171,-1.2115946585135298,-113.9220736351645,-59.84128068972836,-24.22126399043484,-0.0665,-0.8383,-0.4988,-0.2098
285,659773.0,631.460955,1.0,3.65,3.2,-9.91,6.0,-26.19,42.69,-0.44,-102.69,-25.94,-0.04406865743863608,-0.6057578712403171,-1.2115946585135298,-113.9220736351645,-59.84128068972836,-24.22126399043484,-0.0665,-0.8383,-0.4988,-0.2098
286,659810.0,631.480389,1.0,2.26,2.87,-8.7,6.0,-26.19,42.69,-0.81,-117.06,-29.12,-0.04035941645742669,-0.3587882932688722,0.37775069636352576,-114.49173656786448,-60.503452089085286,-20.331921330362565,-0.0881,-0.841,-0.5038,-0.1765
287,659810.0,631.480389,1.0,2.26,2.87,-8.7,6.0,-26.19,42.69,-0.81,-117.06,-29.12,-0.04035941645742669,-0.3587882932688722,0.37775069636352576,-114.49173656786448,-60.503452089085286,-20.331921330362565,-0.0881,-0.841,-0.5038,-0.1765
288,659843.0,631.521013,1.0,1.33,2.74,-8.74,9.56,-26.19,40.75,5.38,-106.25,-22.87,-0.3134889124149927,-0.06452618682413469,0.5566953475161949,-114.7888564887898,-60.87524327990863,-17.520477052231193,-0.1027,-0.8424,-0.5066,-0.1523
289,659843.0,631.521013,1.0,1.33,2.74,-8.74,9.56,-26.19,40.75,5.38,-106.25,-22.87,-0.3134889124149927,-0.06452618682413469,0.5566953475161949,-114.7888564887898,-60.87524327990863,-17.520477052231193,-0.1027,-0.8424,-0.5066,-0.1523
290,659879.0,631.538403,1.0,0.69,2.61,-8.6,14.88,-25.75,40.38,-17.25,-71.69,-12.13,-0.44591028233463664,-0.03557449898354892,0.8039782590594093,-114.98049967133859,-61.048101525799574,-14.788953503219902,-0.1197,-0.8433,-0.5079,-0.1287
291,659879.0,631.538403,1.0,0.69,2.61,-8.6,14.88,-25.75,40.38,-17.25,-71.69,-12.13,-0.44591028233463664,-0.03557449898354892,0.8039782590594093,-114.98049967133859,-61.048101525799574,-14.788953503219902,-0.1197,-0.8433,-0.5079,-0.1287
292,659914.0,631.61495,1.0,0.36,3.04,-8.73,17.87,-25.5,39.19,-24.94,-63.5,-10.5,-0.23688359182635765,0.1189026459069551,0.5592801942271297,-114.91656280775707,-61.02149795384262,-13.461068017168213,-0.1335,-0.843,-0.5077,-0.1172
293,659914.0,631.61495,1.0,0.36,3.04,-8.73,17.87,-25.5,39.19,-24.94,-63.5,-10.5,-0.23688359182635765,0.1189026459069551,0.5592801942271297,-114.91656280775707,-61.02149795384262,-13.461068017168213,-0.1335,-0.843,-0.5077,-0.1172
294,659949.0,631.619977,1.0,0.03,3.02,-8.89,17.87,-25.5,39.19,-26.69,-47.75,-1.37,-0.4566384380511379,0.032131053289927936,0.42881181989107375,-114.9378688809502,-60.71581770752129,-12.273289521851867,-0.1497,-0.8431,-0.5054,-0.1069
295,659949.0,631.619977,1.0,0.03,3.02,-8.89,17.87,-25.5,39.19,-26.69,-47.75,-1.37,-0.4566384380511379,0.032131053289927936,0.42881181989107375,-114.9378688809502,-60.71581770752129,-12.273289521851867,-0.1497,-0.8431,-0.5054,-0.1069
296,659984.0,631.6677080000001,1.0,-0.01,3.53,-9.64,20.5,-25.5,36.88,-25.12,-60.56,-1.75,-0.3074046508346425,-0.11628436330921632,-0.4540800094825155,-114.9378688809502,-60.41061431817495,-11.351662230904264,-0.1625,-0.8431,-0.5031,-0.0989
297,659984.0,631.6677080000001,1.0,-0.01,3.53,-9.64,20.5,-25.5,36.88,-25.12,-60.56,-1.75,-0.3074046508346425,-0.11628436330921632,-0.4540800094825155,-114.9378688809502,-60.41061431817495,-11.351662230904264,-0.1625,-0.8431,-0.5031,-0.0989
298,660023.0,631.683242,1.0,-0.52,3.07,-8.58,22.25,-26.56,36.38,-24.5,-59.13,-1.12,-0.5195048961169768,-0.08918716736213493,0.6943582842959604,-114.91656280775707,-59.9867685475142,-9.660046657878476,-0.1799,-0.843,-0.4999,-0.0842
299,660023.0,631.683242,1.0,-0.52,3.07,-8.58,22.25,-26.56,36.38,-24.5,-59.13,-1.12,-0.5195048961169768,-0.08918716736213493,0.6943582842959604,-114.91656280775707,-59.9867685475142,-9.660046657878476,-0.1799,-0.843,-0.4999,-0.0842
300,660056.0,631.733181,1.0,-0.63,3.66,-8.88,22.25,-26.56,36.38,-46.94,-49.13,3.75,-0.24874772853888666,-0.09526308544725226,0.1850103522009885,-114.85268180222258,-59.471426215105645,-8.970218312913039,-0.1946,-0.8427,-0.496,-0.0782
301,660056.0,631.733181,1.0,-0.63,3.66,-8.88,22.25,-26.56,36.38,-46.94,-49.13,3.75,-0.24874772853888666,-0.09526308544725226,0.1850103522009885,-114.85268180222258,-59.471426215105645,-8.970218312913039,-0.1946,-0.8427,-0.496,-0.0782
302,660090.0,631.7678139999999,1.0,-1.03,3.66,-8.81,25.25,-27.25,33.25,-56.81,-45.13,8.75,-0.5989598289049669,-0.1390158020074177,0.2309243496824056,-114.51291967073887,-58.66801815565057,-8.499024412896564,-0.2172,-0.8411,-0.4899,-0.0741
303,660090.0,631.7678139999999,1.0,-1.03,3.66,-8.81,25.25,-27.25,33.25,-56.81,-45.13,8.75,-0.5989598289049669,-0.1390158020074177,0.2309243496824056,-114.51291967073887,-58.66801815565057,-8.499024412896564,-0.2172,-0.8411,-0.4899,-0.0741
304,660125.0,631.788707,1.0,-1.07,3.82,-8.66,26.5,-28.75,31.75,-75.44,-55.19,16.0,-0.6344903224812919,-0.33582381844533216,0.3083583434102533,-114.17471692174006,-57.802305908948476,-8.326672787534774,-0.2375,-0.8395,-0.4833,-0.0726
305,660125.0,631.788707,1.0,-1.07,3.82,-8.66,26.5,-28.75,31.75,-75.44,-55.19,16.0,-0.6344903224812919,-0.33582381844533216,0.3083583434102533,-114.17471692174006,-57.802305908948476,-8.326672787534774,-0.2375,-0.8395,-0.4833,-0.0726
306,660162.0,631.831281,1.0,-1.53,4.47,-7.8,27.87,-30.06,31.0,-113.56,-45.44,20.62,-0.5106682423396883,0.05653888771289273,0.7018259324827216,-113.1484208155573,-56.250423997675526,-8.705871826379285,-0.2748,-0.8346,-0.4714,-0.0759
307,660162.0,631.831281,1.0,-1.53,4.47,-7.8,27.87,-30.06,31.0,-113.56,-45.44,20.62,-0.5106682423396883,0.05653888771289273,0.7018259324827216,-113.1484208155573,-56.250423997675526,-8.705871826379285,-0.2748,-0.8346,-0.4714,-0.0759
308,660197.0,631.89406,1.0,-1.69,5.1,-7.72,27.87,-30.06,31.0,-131.94,-46.19,31.75,-0.7322982139721191,-0.1229080264308826,0.4304496532256152,-111.70596708251541,-54.12986845766676,-9.878564278366849,-0.3173,-0.8276,-0.455,-0.0861
309,660197.0,631.89406,1.0,-1.69,5.1,-7.72,27.87,-30.06,31.0,-131.94,-46.19,31.75,-0.7322982139721191,-0.1229080264308826,0.4304496532256152,-111.70596708251541,-54.12986845766676,-9.878564278366849,-0.3173,-0.8276,-0.455,-0.0861
310,660234.0,631.9030349999999,1.0,-1.72,7.6,-6.84,28.19,-33.25,25.0,-113.87,-48.31,22.0,0.8352484328436703,0.777422825416537,-0.4987841881336354,-110.30985589206541,-52.50144503161559,-10.764512919793646,-0.3494,-0.8207,-0.4423,-0.0938
311,660234.0,631.9030349999999,1.0,-1.72,7.6,-6.84,28.19,-33.25,25.0,-113.87,-48.31,22.0,0.8352484328436703,0.777422825416537,-0.4987841881336354,-110.30985589206541,-52.50144503161559,-10.764512919793646,-0.3494,-0.8207,-0.4423,-0.0938
312,660271.0,631.941605,1.0,-2.17,5.95,-5.74,29.0,-37.75,20.75,-27.0,-23.0,23.37,-0.2373430853823005,0.8770696768735992,1.307625524112778,-110.08954448644468,-51.0874785737173,-10.960197096754332,-0.3649,-0.8196,-0.4312,-0.0955
313,660271.0,631.941605,1.0,-2.17,5.95,-5.74,29.0,-37.75,20.75,-27.0,-23.0,23.37,-0.2373430853823005,0.8770696768735992,1.307625524112778,-110.08954448644468,-51.0874785737173,-10.960197096754332,-0.3649,-0.8196,-0.4312,-0.0955
314,660305.0,631.997618,1.0,-0.8,7.67,-8.5,29.0,-37.75,20.75,-33.69,16.94,33.0,0.11606991061211502,-0.95739010025354,-1.6296445035438385,-110.10954773943891,-50.28866780725309,-12.100425506938455,-0.3693,-0.8197,-0.4249,-0.1054
315,660305.0,631.997618,1.0,-0.8,7.67,-8.5,29.0,-37.75,20.75,-33.69,16.94,33.0,0.11606991061211502,-0.95739010025354,-1.6296445035438385,-110.10954773943891,-50.28866780725309,-12.100425506938455,-0.3693,-0.8197,-0.4249,-0.1054
316,660338.0,632.0142179999999,1.0,-1.97,6.38,-6.18,28.87,-38.5,19.06,-6.56,-25.19,20.0,-0.3920304483001103,0.6404501740749229,0.7394654478838891,-110.34997788662331,-49.441996043237744,-12.353968967121856,-0.3738,-0.8209,-0.4182,-0.1076
317,660338.0,632.0142179999999,1.0,-1.97,6.38,-6.18,28.87,-38.5,19.06,-6.56,-25.19,20.0,-0.3920304483001103,0.6404501740749229,0.7394654478838891,-110.34997788662331,-49.441996043237744,-12.353968967121856,-0.3738,-0.8209,-0.4182,-0.1076
318,660375.0,632.058672,1.0,-1.5,6.71,-6.52,27.06,-40.69,17.87,-4.5,52.75,43.75,-0.2263106380648927,0.4096508944908548,0.34274649036183824,-110.97447448991244,-48.78685991006569,-13.588001782657653,-0.3694,-0.8240000000000001,-0.413,-0.1183
319,660375.0,632.058672,1.0,-1.5,6.71,-6.52,27.06,-40.69,17.87,-4.5,52.75,43.75,-0.2263106380648927,0.4096508944908548,0.34274649036183824,-110.97447448991244,-48.78685991006569,-13.588001782657653,-0.3694,-0.8240000000000001,-0.413,-0.1183
320,660412.0,632.076236,1.0,-0.28,7.28,-9.14,26.69,-40.69,19.25,-4.31,-0.31,23.19,-0.7165932320553248,-1.3945156600523596,-1.7760189589939142,-111.1972622086614,-48.397106226699925,-15.37847086963133,-0.3651,-0.8251,-0.4099,-0.1338
321,660412.0,632.076236,1.0,-0.28,7.28,-9.14,26.69,-40.69,19.25,-4.31,-0.31,23.19,-0.7165932320553248,-1.3945156600523596,-1.7760189589939142,-111.1972622086614,-48.397106226699925,-15.37847086963133,-0.3651,-0.8251,-0.4099,-0.1338
322,660445.0,632.119505,1.0,-1.81,6.55,-5.68,26.69,-40.69,19.25,3.44,28.75,46.13,-0.3911899922266751,1.324353129725082,1.0582753407979215,-112.03329231056664,-47.53171485619927,-15.910543420989347,-0.3618,-0.8292,-0.40299999999999997,-0.1384
323,660445.0,632.119505,1.0,-1.81,6.55,-5.68,26.69,-40.69,19.25,3.44,28.75,46.13,-0.3911899922266751,1.324353129725082,1.0582753407979215,-112.03329231056664,-47.53171485619927,-15.910543420989347,-0.3618,-0.8292,-0.40299999999999997,-0.1384
324,660482.0,632.135768,1.0,-0.24,7.37,-6.54,24.75,-41.69,18.0,-13.75,28.81,29.37,0.3646450306831881,0.2873737549652917,-0.03868139749776312,-112.50626800349724,-46.769049990136345,-17.81039419409229,-0.3564,-0.8315,-0.3969,-0.1548
325,660482.0,632.135768,1.0,-0.24,7.37,-6.54,24.75,-41.69,18.0,-13.75,28.81,29.37,0.3646450306831881,0.2873737549652917,-0.03868139749776312,-112.50626800349724,-46.769049990136345,-17.81039419409229,-0.3564,-0.8315,-0.3969,-0.1548
326,660518.0,632.193213,1.0,0.45,7.07,-7.74,21.75,-42.06,18.87,1.94,56.81,36.5,-0.19578208544699804,-0.6921054319171871,-0.6612848224054542,-112.8163105430652,-46.494530291688996,-19.319861939553064,-0.3496,-0.833,-0.3947,-0.1678
327,660518.0,632.193213,1.0,0.45,7.07,-7.74,21.75,-42.06,18.87,1.94,56.81,36.5,-0.19578208544699804,-0.6921054319171871,-0.6612848224054542,-112.8163105430652,-46.494530291688996,-19.319861939553064,-0.3496,-0.833,-0.3947,-0.1678
328,660551.0,632.23339,1.0,-0.23,6.61,-5.82,21.75,-42.06,18.87,13.38,52.75,32.44,0.007549925674536606,0.7498720282878311,1.028550266013502,-113.1484208155573,-46.09573205363145,-21.182355652510953,-0.341,-0.8346,-0.3915,-0.1838
329,660551.0,632.23339,1.0,-0.23,6.61,-5.82,21.75,-42.06,18.87,13.38,52.75,32.44,0.007549925674536606,0.7498720282878311,1.028550266013502,-113.1484208155573,-46.09573205363145,-21.182355652510953,-0.341,-0.8346,-0.3915,-0.1838
330,660586.0,632.250183,1.0,1.07,6.97,-7.93,19.87,-42.38,20.37,6.44,71.94,34.69,-0.5068905209028169,-0.5545262075510764,-0.7785407250156755,-113.25250462483365,-45.99612491286469,-23.834643460050298,-0.3275,-0.8351,-0.3907,-0.2065
331,660586.0,632.250183,1.0,1.07,6.97,-7.93,19.87,-42.38,20.37,6.44,71.94,34.69,-0.5068905209028169,-0.5545262075510764,-0.7785407250156755,-113.25250462483365,-45.99612491286469,-23.834643460050298,-0.3275,-0.8351,-0.3907,-0.2065
332,660623.0,632.289312,1.0,0.9,7.05,-6.29,17.25,-42.38,21.69,8.31,53.75,32.0,0.2662816856899564,0.4825624413413165,0.33179762362638066,-113.3567321523323,-45.821900740364754,-25.371080328389592,-0.3193,-0.8356,-0.3893,-0.2196
333,660623.0,632.289312,1.0,0.9,7.05,-6.29,17.25,-42.38,21.69,8.31,53.75,32.0,0.2662816856899564,0.4825624413413165,0.33179762362638066,-113.3567321523323,-45.821900740364754,-25.371080328389592,-0.3193,-0.8356,-0.3893,-0.2196
334,660658.0,632.3643099999999,1.0,1.3,6.76,-6.89,17.25,-42.38,21.69,20.0,68.19,34.63,-0.17057695773017456,0.1266701249911275,0.06937326669687671,-113.52379683838042,-45.69752343772229,-27.15966751179376,-0.3073,-0.8364,-0.3883,-0.2348
335,660658.0,632.3643099999999,1.0,1.3,6.76,-6.89,17.25,-42.38,21.69,20.0,68.19,34.63,-0.17057695773017456,0.1266701249911275,0.06937326669687671,-113.52379683838042,-45.69752343772229,-27.15966751179376,-0.3073,-0.8364,-0.3883,-0.2348
336,660692.0,632.404108,1.0,1.75,6.31,-7.8,15.06,-42.75,21.56,8.69,29.06,23.81,-0.8973127816696322,-0.4037739034364218,-0.3299370196410845,-113.69123402259356,-45.461363019954995,-29.0497142065708,-0.295,-0.8372,-0.3864,-0.2508
337,660692.0,632.404108,1.0,1.75,6.31,-7.8,15.06,-42.75,21.56,8.69,29.06,23.81,-0.8973127816696322,-0.4037739034364218,-0.3299370196410845,-113.69123402259356,-45.461363019954995,-29.0497142065708,-0.295,-0.8372,-0.3864,-0.2508
338,660727.0,632.419639,1.0,1.7,6.6,-6.35,13.56,-43.56,22.87,3.31,37.94,30.06,0.04277647876588087,0.4081141419521872,0.5005169136959449,-113.85904656766621,-45.02686284001362,-30.15199174363297,-0.2888,-0.838,-0.3829,-0.2601
339,660727.0,632.419639,1.0,1.7,6.6,-6.35,13.56,-43.56,22.87,3.31,37.94,30.06,0.04277647876588087,0.4081141419521872,0.5005169136959449,-113.85904656766621,-45.02686284001362,-30.15199174363297,-0.2888,-0.838,-0.3829,-0.2601
340,660764.0,632.4224389999999,1.0,2.08,6.7,-7.08,11.69,-43.06,23.56,32.75,82.31,33.63,-0.3715389025173053,0.36090830846934097,-0.14696763565358315,-113.77509319472591,-44.91524480207666,-32.38912849332685,-0.2734,-0.8376,-0.382,-0.2789
341,660764.0,632.4224389999999,1.0,2.08,6.7,-7.08,11.69,-43.06,23.56,32.75,82.31,33.63,-0.3715389025173053,0.36090830846934097,-0.14696763565358315,-113.77509319472591,-44.91524480207666,-32.38912849332685,-0.2734,-0.8376,-0.382,-0.2789
342,660797.0,632.461196,1.0,3.06,6.36,-7.76,11.69,-43.06,23.56,35.31,39.38,26.0,-0.4776819456342981,-0.30598288388467143,-0.6675561481328831,-114.28023924222178,-44.989651826175965,-33.71591204499429,-0.2529,-0.84,-0.3826,-0.29
343,660797.0,632.461196,1.0,3.06,6.36,-7.76,11.69,-43.06,23.56,35.31,39.38,26.0,-0.4776819456342981,-0.30598288388467143,-0.6675561481328831,-114.28023924222178,-44.989651826175965,-33.71591204499429,-0.2529,-0.84,-0.3826,-0.29
344,660834.0,632.5188440000001,1.0,2.95,6.04,-7.47,7.56,-43.06,25.19,10.81,20.44,17.37,-0.5408696055714894,-0.20917587689683306,-0.2257328436864068,-114.38591221182236,-44.84085774318776,-34.279097871531036,-0.2476,-0.8405,-0.3814,-0.2947
345,660834.0,632.5188440000001,1.0,2.95,6.04,-7.47,7.56,-43.06,25.19,10.81,20.44,17.37,-0.5408696055714894,-0.20917587689683306,-0.2257328436864068,-114.38591221182236,-44.84085774318776,-34.279097871531036,-0.2476,-0.8405,-0.3814,-0.2947
346,660871.0,632.536752,1.0,2.73,5.78,-7.23,6.88,-42.88,25.56,5.38,10.94,24.06,-0.6645946015128508,0.02743927176412031,0.17899394559064594,-114.85268180222258,-44.27121519182589,-34.85514889719688,-0.2414,-0.8427,-0.3768,-0.2995
347,660871.0,632.536752,1.0,2.73,5.78,-7.23,6.88,-42.88,25.56,5.38,10.94,24.06,-0.6645946015128508,0.02743927176412031,0.17899394559064594,-114.85268180222258,-44.27121519182589,-34.85514889719688,-0.2414,-0.8427,-0.3768,-0.2995
348,660903.0,632.5771070000001,1.0,2.84,6.13,-6.65,6.88,-42.88,25.56,4.06,12.81,16.81,-0.08104012246425317,0.3611967110309395,0.3341651393896949,-115.04449255970869,-43.887975339090566,-35.31183406453793,-0.2379,-0.8436,-0.3737,-0.3033
349,660903.0,632.5771070000001,1.0,2.84,6.13,-6.65,6.88,-42.88,25.56,4.06,12.81,16.81,-0.08104012246425317,0.3611967110309395,0.3341651393896949,-115.04449255970869,-43.887975339090566,-35.31183406453793,-0.2379,-0.8436,-0.3737,-0.3033
350,660938.0,632.629563,1.0,2.88,5.77,-6.85,6.06,-42.19,26.37,5.13,16.69,15.13,-0.4340805139363498,0.19292157495053264,0.4106851547411932,-115.1512723286105,-43.56694626623634,-35.92566698091841,-0.2339,-0.8441,-0.3711,-0.3084
351,660938.0,632.629563,1.0,2.88,5.77,-6.85,6.06,-42.19,26.37,5.13,16.69,15.13,-0.4340805139363498,0.19292157495053264,0.4106851547411932,-115.1512723286105,-43.56694626623634,-35.92566698091841,-0.2339,-0.8441,-0.3711,-0.3084
352,660975.0,632.644991,1.0,3.63,6.34,-7.03,4.25,-43.19,27.19,2.63,13.44,14.44,0.06450389681597958,0.043806738014845685,-0.3317581697769523,-115.25820896831397,-43.27093047786308,-36.41991372856602,-0.2304,-0.8446,-0.3687,-0.3125
353,660975.0,632.644991,1.0,3.63,6.34,-7.03,4.25,-43.19,27.19,2.63,13.44,14.44,0.06450389681597958,0.043806738014845685,-0.3317581697769523,-115.25820896831397,-43.27093047786308,-36.41991372856602,-0.2304,-0.8446,-0.3687,-0.3125
354,661010.0,632.685075,1.0,3.56,5.98,-7.26,4.25,-43.19,27.19,-4.25,4.88,7.88,-0.34224604391465074,-0.11169809812010544,-0.243822186932368,-115.27961518989136,-43.08607465863793,-36.70955398535576,-0.22899999999999998,-0.8447,-0.3672,-0.3149
355,661010.0,632.685075,1.0,3.56,5.98,-7.26,4.25,-43.19,27.19,-4.25,4.88,7.88,-0.34224604391465074,-0.11169809812010544,-0.243822186932368,-115.27961518989136,-43.08607465863793,-36.70955398535576,-0.22899999999999998,-0.8447,-0.3672,-0.3149
356,661043.0,632.697944,1.0,3.63,6.21,-7.12,4.56,-42.5,27.19,-6.81,5.38,10.44,-0.15233475893695492,0.012850900964601395,-0.3132328538458893,-115.23680905302649,-42.8397831220635,-36.975271048101675,-0.2299,-0.8445,-0.3652,-0.3171
357,661043.0,632.697944,1.0,3.63,6.21,-7.12,4.56,-42.5,27.19,-6.81,5.38,10.44,-0.15233475893695492,0.012850900964601395,-0.3132328538458893,-115.23680905302649,-42.8397831220635,-36.975271048101675,-0.2299,-0.8445,-0.3652,-0.3171
358,661078.0,632.74445,1.0,3.53,6.13,-7.01,3.5,-42.88,27.56,-9.0,2.13,3.69,-0.22678924044411275,0.06491711801278477,-0.14936589031514735,-115.1512723286105,-42.61829818967321,-37.277472623411406,-0.231,-0.8441,-0.3634,-0.3196
359,661078.0,632.74445,1.0,3.53,6.13,-7.01,3.5,-42.88,27.56,-9.0,2.13,3.69,-0.22678924044411275,0.06491711801278477,-0.14936589031514735,-115.1512723286105,-42.61829818967321,-37.277472623411406,-0.231,-0.8441,-0.3634,-0.3196
360,661114.0,632.802288,1.0,3.28,5.84,-6.9,2.75,-42.88,25.56,-0.88,6.75,3.38,-0.4389798066175489,0.096920113008939,0.200823475380874,-115.10854164041076,-42.53221028877852,-37.39842842920397,-0.2312,-0.8439,-0.3627,-0.3206
361,661114.0,632.802288,1.0,3.28,5.84,-6.9,2.75,-42.88,25.56,-0.88,6.75,3.38,-0.4389798066175489,0.096920113008939,0.200823475380874,-115.10854164041076,-42.53221028877852,-37.39842842920397,-0.2312,-0.8439,-0.3627,-0.3206
362,661147.0,632.810771,1.0,3.55,6.37,-6.77,2.75,-42.88,25.56,-3.06,3.88,7.69,-0.0008987362196007932,0.2859237146319664,-0.13973360519461586,-115.10854164041076,-42.32324429701836,-37.688899081409396,-0.2305,-0.8439,-0.361,-0.32299999999999995
363,661147.0,632.810771,1.0,3.55,6.37,-6.77,2.75,-42.88,25.56,-3.06,3.88,7.69,-0.0008987362196007932,0.2859237146319664,-0.13973360519461586,-115.10854164041076,-42.32324429701836,-37.688899081409396,-0.2305,-0.8439,-0.361,-0.32299999999999995
364,661184.0,632.851321,1.0,3.65,5.7,-7.27,2.75,-43.19,26.75,-1.94,-1.75,-3.19,-0.6185562673483611,-0.2855600161146117,-0.1030040616370993,-115.06583600138664,-42.36010990852977,-37.74944537405314,-0.2302,-0.8437,-0.3613,-0.3235
365,661184.0,632.851321,1.0,3.65,5.7,-7.27,2.75,-43.19,26.75,-1.94,-1.75,-3.19,-0.6185562673483611,-0.2855600161146117,-0.1030040616370993,-115.06583600138664,-42.36010990852977,-37.74944537405314,-0.2302,-0.8437,-0.3613,-0.3235
366,661219.0,632.907192,1.0,3.52,6.08,-6.91,3.5,-43.56,25.56,-7.94,-1.12,-2.56,-0.2723423259965344,0.07090929883458852,-0.043512512812142745,-114.98049967133859,-42.32324429701836,-37.72522554558885,-0.2324,-0.8433,-0.361,-0.3233
367,661219.0,632.907192,1.0,3.52,6.08,-6.91,3.5,-43.56,25.56,-7.94,-1.12,-2.56,-0.2723423259965344,0.07090929883458852,-0.043512512812142745,-114.98049967133859,-42.32324429701836,-37.72522554558885,-0.2324,-0.8433,-0.361,-0.3233
368,661252.0,632.915166,1.0,3.53,6.13,-6.91,3.5,-43.56,25.56,-3.69,-0.5,-1.94,-0.2608023293949161,0.08082160879684608,-0.07825515951132722,-114.91656280775707,-42.298669773319475,-37.77366695276425,-0.2334,-0.843,-0.3608,-0.3237
369,661252.0,632.915166,1.0,3.53,6.13,-6.91,3.5,-43.56,25.56,-3.69,-0.5,-1.94,-0.2608023293949161,0.08082160879684608,-0.07825515951132722,-114.91656280775707,-42.298669773319475,-37.77366695276425,-0.2334,-0.843,-0.3608,-0.3237
370,661286.0,632.970185,1.0,3.16,5.98,-6.84,2.38,-42.19,26.0,0.56,-0.75,-0.44,-0.4747004284121754,0.2638687191415632,0.20265953757637512,-114.87396927454428,-42.335532323855574,-37.737335241131476,-0.23399999999999999,-0.8428,-0.3611,-0.3234
371,661286.0,632.970185,1.0,3.16,5.98,-6.84,2.38,-42.19,26.0,0.56,-0.75,-0.44,-0.4747004284121754,0.2638687191415632,0.20265953757637512,-114.87396927454428,-42.335532323855574,-37.737335241131476,-0.23399999999999999,-0.8428,-0.3611,-0.3234
372,661323.0,633.031523,1.0,3.65,6.29,-6.96,2.75,-42.88,26.37,-2.63,1.37,0.37,-0.1708631083802974,0.06114898003242564,-0.2579049628602892,-114.76759373176695,-42.384689535903355,-37.79789028318413,-0.2343,-0.8423,-0.3615,-0.3239
373,661323.0,633.031523,1.0,3.65,6.29,-6.96,2.75,-42.88,26.37,-2.63,1.37,0.37,-0.1708631083802974,0.06114898003242564,-0.2579049628602892,-114.76759373176695,-42.384689535903355,-37.79789028318413,-0.2343,-0.8423,-0.3615,-0.3239
374,661358.0,633.048771,1.0,3.68,6.22,-6.96,2.75,-42.88,26.37,-1.06,0.06,-3.0,-0.18887780137731205,-0.020150416260654502,-0.2251155044798292,-114.74633713830113,-42.396980116115046,-37.77366695276425,-0.235,-0.8422,-0.3616,-0.3237
375,661358.0,633.048771,1.0,3.68,6.22,-6.96,2.75,-42.88,26.37,-1.06,0.06,-3.0,-0.18887780137731205,-0.020150416260654502,-0.2251155044798292,-114.74633713830113,-42.396980116115046,-37.77366695276425,-0.235,-0.8422,-0.3616,-0.3237
376,661391.0,633.051825,1.0,3.24,6.02,-6.98,2.75,-43.19,26.0,-1.69,-2.69,-4.63,-0.506586592260728,0.15635324702358755,0.050763382849980936,-114.68260427841713,-42.55680426104336,-37.616257937648726,-0.2357,-0.8419,-0.3629,-0.3224
377,661391.0,633.051825,1.0,3.24,6.02,-6.98,2.75,-43.19,26.0,-1.69,-2.69,-4.63,-0.506586592260728,0.15635324702358755,0.050763382849980936,-114.68260427841713,-42.55680426104336,-37.616257937648726,-0.2357,-0.8419,-0.3629,-0.3224
378,661426.0,633.099237,1.0,3.5,6.29,-6.87,3.5,-43.19,25.56,-6.0,0.88,-3.38,-0.18007505877628827,0.12018914348442156,-0.14142154894832792,-114.55530415588284,-42.61829818967321,-37.640469908070976,-0.2369,-0.8413,-0.3634,-0.3226
379,661426.0,633.099237,1.0,3.5,6.29,-6.87,3.5,-43.19,25.56,-6.0,0.88,-3.38,-0.18007505877628827,0.12018914348442156,-0.14142154894832792,-114.55530415588284,-42.61829818967321,-37.640469908070976,-0.2369,-0.8413,-0.3634,-0.3226
380,661460.0,633.152797,1.0,3.31,6.11,-7.06,3.5,-43.19,25.56,-1.5,3.88,-2.0,-0.4940059557741351,0.10279337408126166,-0.0866402331784819,-114.44938861164486,-42.74132469735878,-37.59204770944774,-0.2374,-0.8408,-0.3644,-0.3222
381,661460.0,633.152797,1.0,3.31,6.11,-7.06,3.5,-43.19,25.56,-1.5,3.88,-2.0,-0.4940059557741351,0.10279337408126166,-0.0866402331784819,-114.44938861164486,-42.74132469735878,-37.59204770944774,-0.2374,-0.8408,-0.3644,-0.3222
382,661493.0,633.159914,1.0,3.7,6.23,-7.02,2.75,-43.56,26.37,-3.44,4.69,-4.06,-0.2387039313280267,-0.1333595027146779,-0.27841498125838804,-114.23801227723101,-42.790549766583936,-37.737335241131476,-0.2386,-0.8398,-0.3648,-0.3234
383,661493.0,633.159914,1.0,3.7,6.23,-7.02,2.75,-43.56,26.37,-3.44,4.69,-4.06,-0.2387039313280267,-0.1333595027146779,-0.27841498125838804,-114.23801227723101,-42.790549766583936,-37.737335241131476,-0.2386,-0.8398,-0.3648,-0.3234
384,661528.0,633.176199,1.0,3.45,6.39,-6.67,2.75,-44.38,26.0,-4.88,1.69,-1.69,-0.06057369924049483,0.20714841498643954,-0.05118548052658944,-114.11147553645674,-42.86440291129757,-37.822115366775535,-0.239,-0.8392,-0.3654,-0.3241
385,661528.0,633.176199,1.0,3.45,6.39,-6.67,2.75,-44.38,26.0,-4.88,1.69,-1.69,-0.06057369924049483,0.20714841498643954,-0.05118548052658944,-114.11147553645674,-42.86440291129757,-37.822115366775535,-0.239,-0.8392,-0.3654,-0.3241
386,661563.0,633.21675,1.0,3.29,6.4,-6.49,3.5,-43.19,26.0,1.12,2.69,-1.0,-0.03793960035129451,0.34612649570769305,0.12248989002173084,-113.9220736351645,-42.92596147290185,-37.943267133561115,-0.2402,-0.8383,-0.3659,-0.3251
387,661563.0,633.21675,1.0,3.29,6.4,-6.49,3.5,-43.19,26.0,1.12,2.69,-1.0,-0.03793960035129451,0.34612649570769305,0.12248989002173084,-113.9220736351645,-42.92596147290185,-37.943267133561115,-0.2402,-0.8383,-0.3659,-0.3251
388,661598.0,633.27671,1.0,3.01,6.24,-6.5,3.5,-43.19,26.0,3.69,4.0,3.38,-0.26650343438059504,0.4794151577963963,0.32261936814634673,-113.9220736351645,-42.93827474491775,-38.015979325491685,-0.2393,-0.8383,-0.366,-0.3257
389,661598.0,633.27671,1.0,3.01,6.24,-6.5,3.5,-43.19,26.0,3.69,4.0,3.38,-0.26650343438059504,0.4794151577963963,0.32261936814634673,-113.9220736351645,-42.93827474491775,-38.015979325491685,-0.2393,-0.8383,-0.366,-0.3257
390,661635.0,633.293047,1.0,4.0,6.67,-6.8,3.5,-44.69,25.19,0.94,6.81,3.19,0.19997541829605314,-0.004114164431333389,-0.5223815570109664,-113.94309450479722,-42.802857328099094,-38.294857014103954,-0.2372,-0.8384,-0.3649,-0.32799999999999996
391,661635.0,633.293047,1.0,4.0,6.67,-6.8,3.5,-44.69,25.19,0.94,6.81,3.19,0.19997541829605314,-0.004114164431333389,-0.5223815570109664,-113.94309450479722,-42.802857328099094,-38.294857014103954,-0.2372,-0.8384,-0.3649,-0.32799999999999996
392,661669.0,633.334647,1.0,3.82,6.25,-6.59,3.06,-44.38,24.87,4.31,4.06,-4.31,0.06290431077316473,-0.07975024319811562,-0.045897028377789084,-113.88004967231205,-42.889024777076095,-38.37977954174036,-0.2363,-0.8381,-0.3656,-0.3287
393,661669.0,633.334647,1.0,3.82,6.25,-6.59,3.06,-44.38,24.87,4.31,4.06,-4.31,0.06290431077316473,-0.07975024319811562,-0.045897028377789084,-113.88004967231205,-42.889024777076095,-38.37977954174036,-0.2363,-0.8381,-0.3656,-0.3287
394,661702.0,633.425352,1.0,3.72,6.05,-6.93,3.06,-44.38,24.87,6.63,-2.69,-0.06,-0.2984473436364105,-0.17501601651855747,-0.11031014800091477,-113.9220736351645,-43.01216531236248,-38.270597450084026,-0.2353,-0.8383,-0.3666,-0.3278
395,661702.0,633.425352,1.0,3.72,6.05,-6.93,3.06,-44.38,24.87,6.63,-2.69,-0.06,-0.2984473436364105,-0.17501601651855747,-0.11031014800091477,-113.9220736351645,-43.01216531236248,-38.270597450084026,-0.2353,-0.8383,-0.3666,-0.3278
396,661737.0,633.4334709999999,1.0,3.38,6.18,-6.79,2.38,-42.88,25.19,-1.75,-4.13,-3.38,-0.2960111221997513,0.1714312893405383,0.028925892183849555,-113.96412130753305,-43.049117635330035,-38.13720165916782,-0.2358,-0.8385,-0.3669,-0.3267
397,661737.0,633.4334709999999,1.0,3.38,6.18,-6.79,2.38,-42.88,25.19,-1.75,-4.13,-3.38,-0.2960111221997513,0.1714312893405383,0.028925892183849555,-113.96412130753305,-43.049117635330035,-38.13720165916782,-0.2358,-0.8385,-0.3669,-0.3267
398,661774.0,633.43803,1.0,3.13,5.99,-6.63,3.06,-43.56,24.37,2.25,-1.88,-2.56,-0.38046244649968974,0.2507024673172697,0.3501021838207521,-114.00619273526415,-43.061436120560906,-37.979621244835975,-0.2365,-0.8387,-0.36700000000000005,-0.3254
399,661774.0,633.43803,1.0,3.13,5.99,-6.63,3.06,-43.56,24.37,2.25,-1.88,-2.56,-0.38046244649968974,0.2507024673172697,0.3501021838207521,-114.00619273526415,-43.061436120560906,-37.979621244835975,-0.2365,-0.8387,-0.36700000000000005,-0.3254
400,661809.0,633.478613,1.0,3.46,6.05,-6.86,3.06,-43.56,24.37,-3.63,0.88,-2.44,-0.3467628900536466,-0.015408222620037826,0.03356358450374941,-113.96412130753305,-43.11071528826148,-37.95538472991653,-0.237,-0.8385,-0.3674,-0.3252
401,661809.0,633.478613,1.0,3.46,6.05,-6.86,3.06,-43.56,24.37,-3.63,0.88,-2.44,-0.3467628900536466,-0.015408222620037826,0.03356358450374941,-113.96412130753305,-43.11071528826148,-37.95538472991653,-0.237,-0.8385,-0.3674,-0.3252
402,661841.0,633.529009,1.0,3.5,6.48,-6.85,3.5,-43.19,26.37,-5.38,0.88,-1.75,-0.14133755983792484,0.20281295935385654,-0.24828861730131105,-113.81705808343624,-43.17232602381402,-38.04022025359053,-0.23800000000000002,-0.8378,-0.3679,-0.3259
403,661841.0,633.529009,1.0,3.5,6.48,-6.85,3.5,-43.19,26.37,-5.38,0.88,-1.75,-0.14133755983792484,0.20281295935385654,-0.24828861730131105,-113.81705808343624,-43.17232602381402,-38.04022025359053,-0.23800000000000002,-0.8378,-0.3679,-0.3259
404,661876.0,633.537956,1.0,3.49,6.38,-6.69,3.5,-42.5,24.75,0.75,0.44,-0.25,-0.07949525375729383,0.16947808846143708,-0.07290250414519228,-113.77509319472591,-43.18464974314042,-38.04022025359053,-0.2382,-0.8376,-0.368,-0.3259
405,661876.0,633.537956,1.0,3.49,6.38,-6.69,3.5,-42.5,24.75,0.75,0.44,-0.25,-0.07949525375729383,0.16947808846143708,-0.07290250414519228,-113.77509319472591,-43.18464974314042,-38.04022025359053,-0.2382,-0.8376,-0.368,-0.3259
406,661913.0,633.587921,1.0,3.71,6.52,-6.8,3.5,-43.56,24.0,-0.5,2.25,-0.75,0.017223438068112773,0.0697773322085582,-0.3180393521278457,-113.77509319472591,-43.17232602381402,-38.05234138049009,-0.2382,-0.8376,-0.3679,-0.326
407,661913.0,633.587921,1.0,3.71,6.52,-6.8,3.5,-43.56,24.0,-0.5,2.25,-0.75,0.017223438068112773,0.0697773322085582,-0.3180393521278457,-113.77509319472591,-43.17232602381402,-38.05234138049009,-0.2382,-0.8376,-0.3679,-0.326
408,661946.0,633.603038,1.0,3.97,6.2,-7.14,3.5,-43.56,24.0,2.5,-0.63,0.69,-0.22252910758230612,-0.3684049792070448,-0.4400694051351923,-113.85904656766621,-43.221624049321754,-38.0038595239246,-0.2372,-0.838,-0.3683,-0.3256
409,661946.0,633.603038,1.0,3.97,6.2,-7.14,3.5,-43.56,24.0,2.5,-0.63,0.69,-0.22252910758230612,-0.3684049792070448,-0.4400694051351923,-113.85904656766621,-43.221624049321754,-38.0038595239246,-0.2372,-0.838,-0.3683,-0.3256
410,661983.0,633.689089,1.0,3.83,6.21,-7.1,2.75,-44.38,24.87,5.19,-2.25,-0.75,-0.23784372763553896,-0.24226855275283346,-0.3682080486202111,-113.98515404910734,-43.18464974314042,-37.88268575548643,-0.2367,-0.8386,-0.368,-0.3246
411,661983.0,633.689089,1.0,3.83,6.21,-7.1,2.75,-44.38,24.87,5.19,-2.25,-0.75,-0.23784372763553896,-0.24226855275283346,-0.3682080486202111,-113.98515404910734,-43.18464974314042,-37.88268575548643,-0.2367,-0.8386,-0.368,-0.3246
412,662018.0,633.6942799999999,1.0,3.51,6.22,-6.71,3.06,-44.0,26.37,-0.69,-2.63,-1.19,-0.09710063838581352,0.06708370423963128,0.007738262329812784,-114.06934451880512,-43.19697398702748,-37.74944537405314,-0.2366,-0.8390000000000001,-0.3681,-0.3235
413,662018.0,633.6942799999999,1.0,3.51,6.22,-6.71,3.06,-44.0,26.37,-0.69,-2.63,-1.19,-0.09710063838581352,0.06708370423963128,0.007738262329812784,-114.06934451880512,-43.19697398702748,-37.74944537405314,-0.2366,-0.8390000000000001,-0.3681,-0.3235
414,662052.0,633.700678,1.0,3.45,6.21,-6.7,3.06,-44.0,26.37,3.38,-4.56,-2.56,-0.0986228429672329,0.0969037608327259,0.042558480765782385,-114.13255001123673,-43.25860308220909,-37.579943248225064,-0.2366,-0.8393,-0.3686,-0.3221
415,662052.0,633.700678,1.0,3.45,6.21,-6.7,3.06,-44.0,26.37,3.38,-4.56,-2.56,-0.0986228429672329,0.0969037608327259,0.042558480765782385,-114.13255001123673,-43.25860308220909,-37.579943248225064,-0.2366,-0.8393,-0.3686,-0.3221
416,662087.0,633.7438530000001,1.0,3.46,6.05,-6.98,3.5,-43.56,25.56,1.94,-3.56,-2.31,-0.3469110781556376,-0.06373403818368217,-0.05083906548872008,-114.17471692174006,-43.307915821839245,-37.446822845384496,-0.2366,-0.8395,-0.369,-0.321
417,662087.0,633.7438530000001,1.0,3.46,6.05,-6.98,3.5,-43.56,25.56,1.94,-3.56,-2.31,-0.3469110781556376,-0.06373403818368217,-0.05083906548872008,-114.17471692174006,-43.307915821839245,-37.446822845384496,-0.2366,-0.8395,-0.369,-0.321
418,662122.0,633.803391,1.0,3.32,6.11,-6.76,3.06,-43.56,26.37,1.06,-4.31,-1.19,-0.2024282995506992,0.09659358406794194,0.11119784638395913,-114.28023924222178,-43.34490590574986,-37.21701087468853,-0.237,-0.84,-0.3693,-0.3191
419,662122.0,633.803391,1.0,3.32,6.11,-6.76,3.06,-43.56,26.37,1.06,-4.31,-1.19,-0.2024282995506992,0.09659358406794194,0.11119784638395913,-114.28023924222178,-43.34490590574986,-37.21701087468853,-0.237,-0.84,-0.3693,-0.3191
420,662157.0,633.819328,1.0,3.3,6.31,-6.63,3.06,-43.56,26.37,-1.44,-3.63,-0.19,-0.011383908713290314,0.2397398462628102,0.08011951823332275,-114.36476553066456,-43.307915821839245,-37.07194645139856,-0.2377,-0.8404,-0.369,-0.3179
421,662157.0,633.819328,1.0,3.3,6.31,-6.63,3.06,-43.56,26.37,-1.44,-3.63,-0.19,-0.011383908713290314,0.2397398462628102,0.08011951823332275,-114.36476553066456,-43.307915821839245,-37.07194645139856,-0.2377,-0.8404,-0.369,-0.3179
422,662190.0,633.8605299999999,1.0,3.51,6.14,-6.86,3.88,-43.19,26.37,2.69,1.0,0.0,-0.13312452813855646,-0.06156156312442462,-0.045141107912998635,-114.36476553066456,-43.36956859779122,-37.035689974508436,-0.2372,-0.8404,-0.3695,-0.3176
423,662190.0,633.8605299999999,1.0,3.51,6.14,-6.86,3.88,-43.19,26.37,2.69,1.0,0.0,-0.13312452813855646,-0.06156156312442462,-0.045141107912998635,-114.36476553066456,-43.36956859779122,-37.035689974508436,-0.2372,-0.8404,-0.3695,-0.3176
424,662226.0,633.916267,1.0,3.42,6.12,-6.89,4.56,-43.56,25.19,2.13,-0.12,-0.81,-0.20548858257996405,-0.0098441739780748,-0.02089178493624999,-114.38591221182236,-43.39423340067783,-37.011521124582174,-0.2371,-0.8405,-0.3697,-0.3174
425,662226.0,633.916267,1.0,3.42,6.12,-6.89,4.56,-43.56,25.19,2.13,-0.12,-0.81,-0.20548858257996405,-0.0098441739780748,-0.02089178493624999,-114.38591221182236,-43.39423340067783,-37.011521124582174,-0.2371,-0.8405,-0.3697,-0.3174
426,662261.0,633.9331070000001,1.0,3.11,6.17,-6.69,4.56,-43.56,25.19,1.69,-0.25,-1.0,-0.19229451571267486,0.2936503626340352,0.19551623317770608,-114.4070649484192,-43.4312345665289,-36.963188541465996,-0.2368,-0.8406,-0.37,-0.317
427,662261.0,633.9331070000001,1.0,3.11,6.17,-6.69,4.56,-43.56,25.19,1.69,-0.25,-1.0,-0.19229451571267486,0.2936503626340352,0.19551623317770608,-114.4070649484192,-43.4312345665289,-36.963188541465996,-0.2368,-0.8406,-0.37,-0.317
