,TIME,ELAPSED_SECONDS,PSTATE,acc_x,acc_y,acc_z,mag_x,mag_y,mag_z,gyr_x,gyr_y,gyr_z,lin_x,lin_y,lin_z,eul_x,eul_y,eul_z,qua_w,qua_x,qua_y,qua_z
0,876318.0,849.075781,1.0,4.72,5.21,-6.83,-6.75,-41.69,26.19,2.06,-0.94,-1.0,-0.17211395456293233,0.05130963055937077,0.006693668033181055,-121.47748834883792,-33.15356371555689,-40.595644110417574,-0.1926,-0.8724,-0.2853,-0.3469
1,876318.0,849.075781,1.0,4.72,5.21,-6.83,-6.75,-41.69,26.19,2.06,-0.94,-1.0,-0.17211395456293233,0.05130963055937077,0.006693668033181055,-121.47748834883792,-33.15356371555689,-40.595644110417574,-0.1926,-0.8724,-0.2853,-0.3469
2,876355.0,849.078756,1.0,4.7,5.27,-6.68,-7.19,-40.69,26.56,-3.69,0.19,0.69,-0.060208430614958286,0.12382300896671827,0.08727024574955955,-121.47748834883792,-33.12965231611837,-40.607862210384674,-0.1931,-0.8724,-0.2851,-0.34700000000000003
3,876355.0,849.078756,1.0,4.7,5.27,-6.68,-7.19,-40.69,26.56,-3.69,0.19,0.69,-0.060208430614958286,0.12382300896671827,0.08727024574955955,-121.47748834883792,-33.12965231611837,-40.607862210384674,-0.1931,-0.8724,-0.2851,-0.34700000000000003
4,876388.0,849.147344,1.0,4.67,5.26,-6.78,-7.19,-40.69,26.56,0.94,1.12,1.31,-0.15522394961053174,0.1248111297899821,0.03909003308155157,-121.47748834883792,-33.105742400688804,-40.6200807923672,-0.193,-0.8724,-0.2849,-0.3471
5,876388.0,849.147344,1.0,4.67,5.26,-6.78,-7.19,-40.69,26.56,0.94,1.12,1.31,-0.15522394961053174,0.1248111297899821,0.03909003308155157,-121.47748834883792,-33.105742400688804,-40.6200807923672,-0.193,-0.8724,-0.2849,-0.3471
6,876423.0,849.163975,1.0,4.69,5.07,-6.86,-7.19,-40.25,25.75,0.81,2.69,2.13,-0.2754548391333317,-0.029547549065937595,0.0760872426903152,-121.47748834883792,-33.08183396795116,-40.68118093937297,-0.1924,-0.8724,-0.2847,-0.3476
7,876423.0,849.163975,1.0,4.69,5.07,-6.86,-7.19,-40.25,25.75,0.81,2.69,2.13,-0.2754548391333317,-0.029547549065937595,0.0760872426903152,-121.47748834883792,-33.08183396795116,-40.68118093937297,-0.1924,-0.8724,-0.2847,-0.3476
8,876457.0,849.20166,1.0,4.97,5.21,-7.12,-7.19,-40.69,27.87,-0.69,5.0,0.94,-0.26564757710273124,-0.1265499650604327,-0.3152478690324028,-121.40719542947477,-33.05792701658909,-40.815643818297026,-0.1923,-0.8721,-0.2845,-0.3487
9,876457.0,849.20166,1.0,4.97,5.21,-7.12,-7.19,-40.69,27.87,-0.69,5.0,0.94,-0.26564757710273124,-0.1265499650604327,-0.3152478690324028,-121.40719542947477,-33.05792701658909,-40.815643818297026,-0.1923,-0.8721,-0.2845,-0.3487
10,876492.0,849.2228289999999,1.0,4.85,5.18,-6.84,-7.19,-40.69,27.87,-1.12,-1.06,3.0,-0.14580042150800088,-0.026246249446185917,-0.04822459948010227,-121.45404882910117,-32.99816611056945,-40.815643818297026,-0.192,-0.8723,-0.284,-0.3487
11,876492.0,849.2228289999999,1.0,4.85,5.18,-6.84,-7.19,-40.69,27.87,-1.12,-1.06,3.0,-0.14580042150800088,-0.026246249446185917,-0.04822459948010227,-121.45404882910117,-32.99816611056945,-40.815643818297026,-0.192,-0.8723,-0.284,-0.3487
12,876525.0,849.263292,1.0,4.74,5.36,-6.74,-7.5,-40.69,25.37,-4.38,4.0,0.75,-0.10071424589659406,0.19457188887937527,-0.02069951147721305,-121.38378152894909,-32.890619725136126,-40.93793375462537,-0.1926,-0.872,-0.2831,-0.3497
13,876525.0,849.263292,1.0,4.74,5.36,-6.74,-7.5,-40.69,25.37,-4.38,4.0,0.75,-0.10071424589659406,0.19457188887937527,-0.02069951147721305,-121.38378152894909,-32.890619725136126,-40.93793375462537,-0.1926,-0.872,-0.2831,-0.3497
14,876560.0,849.28139,1.0,4.89,5.32,-6.94,-7.19,-41.0,27.5,-2.63,1.56,1.56,-0.1950633399709858,0.04187942694877789,-0.21025053893906964,-121.29021101561548,-32.8547775548023,-41.072508978695026,-0.193,-0.8716,-0.2828,-0.3508
15,876560.0,849.28139,1.0,4.89,5.32,-6.94,-7.19,-41.0,27.5,-2.63,1.56,1.56,-0.1950633399709858,0.04187942694877789,-0.21025053893906964,-121.29021101561548,-32.8547775548023,-41.072508978695026,-0.193,-0.8716,-0.2828,-0.3508
16,876595.0,849.3680810000001,1.0,4.69,5.39,-6.52,-6.75,-41.69,25.0,0.88,1.37,0.69,0.013793771535297594,0.2720216388562444,0.13791616563157486,-121.3135909011287,-32.818938689500946,-41.04803635831072,-0.1935,-0.8717,-0.2825,-0.3506
17,876595.0,849.3680810000001,1.0,4.69,5.39,-6.52,-6.75,-41.69,25.0,0.88,1.37,0.69,0.013793771535297594,0.2720216388562444,0.13791616563157486,-121.3135909011287,-32.818938689500946,-41.04803635831072,-0.1935,-0.8717,-0.2825,-0.3506
18,876630.0,849.3710580000001,1.0,4.74,5.35,-6.67,-6.75,-41.69,25.0,-1.06,0.56,-1.12,-0.07868490192152511,0.18170331223383984,0.03220410304334287,-121.29021101561548,-32.84283089936096,-41.03580078188174,-0.1938,-0.8716,-0.2827,-0.3505
19,876630.0,849.3710580000001,1.0,4.74,5.35,-6.67,-6.75,-41.69,25.0,-1.06,0.56,-1.12,-0.07868490192152511,0.18170331223383984,0.03220410304334287,-121.29021101561548,-32.84283089936096,-41.03580078188174,-0.1938,-0.8716,-0.2827,-0.3505
20,876666.0,849.377984,1.0,4.78,5.32,-6.7,-6.75,-40.25,26.0,0.19,2.0,0.63,-0.09205395326851662,0.13175705678217442,0.007927320605721988,-121.2668396082864,-32.8547775548023,-41.072508978695026,-0.1937,-0.8715,-0.2828,-0.3508
21,876666.0,849.377984,1.0,4.78,5.32,-6.7,-6.75,-40.25,26.0,0.19,2.0,0.63,-0.09205395326851662,0.13175705678217442,0.007927320605721988,-121.2668396082864,-32.8547775548023,-41.072508978695026,-0.1937,-0.8715,-0.2828,-0.3508
22,876699.0,849.4143859999999,1.0,4.85,5.41,-6.77,-6.75,-40.69,25.37,-0.06,0.94,-0.25,-0.07397284989195063,0.14815023818984407,-0.122905857358532,-121.22012218744959,-32.878671967526124,-41.109221581061185,-0.1936,-0.8713,-0.28300000000000003,-0.3511
23,876699.0,849.4143859999999,1.0,4.85,5.41,-6.77,-6.75,-40.69,25.37,-0.06,0.94,-0.25,-0.07397284989195063,0.14815023818984407,-0.122905857358532,-121.22012218744959,-32.878671967526124,-41.109221581061185,-0.1936,-0.8713,-0.28300000000000003,-0.3511
24,876736.0,849.4685810000001,1.0,4.98,5.21,-7.03,-6.75,-40.69,25.37,0.0,-0.25,1.25,-0.2525248912333137,-0.11585320617323712,-0.2575543507635043,-121.24347666895369,-32.890619725136126,-41.109221581061185,-0.1932,-0.8714,-0.2831,-0.3511
25,876736.0,849.4685810000001,1.0,4.98,5.21,-7.03,-6.75,-40.69,25.37,0.0,-0.25,1.25,-0.2525248912333137,-0.11585320617323712,-0.2575543507635043,-121.24347666895369,-32.890619725136126,-41.109221581061185,-0.1932,-0.8714,-0.2831,-0.3511
26,876771.0,849.522936,1.0,4.65,5.43,-6.46,-6.38,-41.0,27.37,1.63,-5.13,-0.31,0.06568296547052532,0.33161855568338083,0.1772826852916527,-121.3603761475579,-32.8547775548023,-40.93793375462537,-0.1934,-0.8719,-0.2828,-0.3497
27,876771.0,849.522936,1.0,4.65,5.43,-6.46,-6.38,-41.0,27.37,1.63,-5.13,-0.31,0.06568296547052532,0.33161855568338083,0.1772826852916527,-121.3603761475579,-32.8547775548023,-40.93793375462537,-0.1934,-0.8719,-0.2828,-0.3497
28,876808.0,849.5392800000001,1.0,4.66,5.4,-6.6,-7.88,-41.0,25.37,0.94,1.31,0.0,-0.034442262981544736,0.2913845699134621,0.09328247051069738,-121.38378152894909,-32.890619725136126,-40.93793375462537,-0.1928,-0.872,-0.2831,-0.3497
29,876808.0,849.5392800000001,1.0,4.66,5.4,-6.6,-7.88,-41.0,25.37,0.94,1.31,0.0,-0.034442262981544736,0.2913845699134621,0.09328247051069738,-121.38378152894909,-32.890619725136126,-40.93793375462537,-0.1928,-0.872,-0.2831,-0.3497
30,876843.0,849.580126,1.0,4.59,5.24,-6.52,-7.88,-41.0,25.37,5.75,1.37,1.12,-0.06595568659877328,0.2339934380985049,0.2684637511195511,-121.40719542947477,-32.938414434386345,-40.91347187505044,-0.192,-0.8721,-0.2835,-0.3495
31,876843.0,849.580126,1.0,4.59,5.24,-6.52,-7.88,-41.0,25.37,5.75,1.37,1.12,-0.06595568659877328,0.2339934380985049,0.2684637511195511,-121.40719542947477,-32.938414434386345,-40.91347187505044,-0.192,-0.8721,-0.2835,-0.3495
32,876875.0,849.636134,1.0,4.58,5.22,-6.75,-7.19,-40.69,25.75,-0.63,8.94,-2.88,-0.2627422475882373,0.1966030530698175,0.12782704724092575,-121.22012218744959,-33.08183396795116,-41.06027242384908,-0.1916,-0.8713,-0.2847,-0.3507
33,876875.0,849.636134,1.0,4.58,5.22,-6.75,-7.19,-40.69,25.75,-0.63,8.94,-2.88,-0.2627422475882373,0.1966030530698175,0.12782704724092575,-121.22012218744959,-33.08183396795116,-41.06027242384908,-0.1916,-0.8713,-0.2847,-0.3507
34,876910.0,849.700486,1.0,5.34,5.29,-7.29,-7.19,-41.0,25.75,-6.44,12.69,-3.81,-0.23610938042305166,-0.30078022228557394,-0.6574593084102514,-120.89404187117351,-33.20139097173225,-41.40308164369669,-0.1918,-0.8699,-0.2857,-0.3535
35,876910.0,849.700486,1.0,5.34,5.29,-7.29,-7.19,-41.0,25.75,-6.44,12.69,-3.81,-0.23610938042305166,-0.30078022228557394,-0.6574593084102514,-120.89404187117351,-33.20139097173225,-41.40308164369669,-0.1918,-0.8699,-0.2857,-0.3535
36,876947.0,849.704667,1.0,5.79,5.32,-7.51,-7.88,-40.25,27.0,-9.5,3.81,-13.56,-0.19346065234790671,-0.6590039169722433,-1.0448423772450948,-120.3388206480064,-33.476513522752754,-41.68496498644351,-0.1947,-0.8675,-0.28800000000000003,-0.3558
37,876947.0,849.704667,1.0,5.79,5.32,-7.51,-7.88,-40.25,27.0,-9.5,3.81,-13.56,-0.19346065234790671,-0.6590039169722433,-1.0448423772450948,-120.3388206480064,-33.476513522752754,-41.68496498644351,-0.1947,-0.8675,-0.28800000000000003,-0.3558
38,876980.0,849.7157619999999,1.0,5.21,4.99,-7.14,-7.88,-40.25,27.0,-12.69,-1.88,-22.0,-0.4166065662378369,-0.6432455677589601,-0.31444055924933423,-119.69693362458544,-34.00339056621902,-41.64818266123672,-0.201,-0.8647,-0.2924,-0.3555
39,876980.0,849.7157619999999,1.0,5.21,4.99,-7.14,-7.88,-40.25,27.0,-12.69,-1.88,-22.0,-0.4166065662378369,-0.6432455677589601,-0.31444055924933423,-119.69693362458544,-34.00339056621902,-41.64818266123672,-0.201,-0.8647,-0.2924,-0.3555
40,877017.0,849.8027619999999,1.0,4.42,5.03,-6.51,-7.19,-41.38,25.75,-14.88,-6.5,-15.19,-0.4089155466400559,-0.1302020147526992,0.4774895066292046,-119.31022017941788,-34.29108977492126,-41.501098206620334,-0.2065,-0.863,-0.2948,-0.3543
41,877017.0,849.8027619999999,1.0,4.42,5.03,-6.51,-7.19,-41.38,25.75,-14.88,-6.5,-15.19,-0.4089155466400559,-0.1302020147526992,0.4774895066292046,-119.31022017941788,-34.29108977492126,-41.501098206620334,-0.2065,-0.863,-0.2948,-0.3543
42,877053.0,849.809593,1.0,4.36,6.16,-6.05,-6.38,-41.38,25.0,-14.44,-7.19,-2.69,0.2823081408983669,0.7388476144002256,0.16652000521893662,-119.19690467351394,-34.24312448272413,-41.41533197987328,-0.2109,-0.8625,-0.2944,-0.3536
43,877053.0,849.809593,1.0,4.36,6.16,-6.05,-6.38,-41.38,25.0,-14.44,-7.19,-2.69,0.2823081408983669,0.7388476144002256,0.16652000521893662,-119.19690467351394,-34.24312448272413,-41.41533197987328,-0.2109,-0.8625,-0.2944,-0.3536
44,877086.0,849.825566,1.0,4.5,6.62,-5.77,-6.38,-41.38,25.0,6.38,-5.31,0.81,0.7497524288659374,1.002465717654486,0.018890614914100826,-119.28754177396172,-34.18317656247093,-41.219385875064134,-0.2124,-0.8629,-0.2939,-0.35200000000000004
45,877086.0,849.825566,1.0,4.5,6.62,-5.77,-6.38,-41.38,25.0,6.38,-5.31,0.81,0.7497524288659374,1.002465717654486,0.018890614914100826,-119.28754177396172,-34.18317656247093,-41.219385875064134,-0.2124,-0.8629,-0.2939,-0.35200000000000004
46,877121.0,849.867733,1.0,4.27,6.72,-5.64,-6.0,-42.06,24.56,19.87,-4.13,4.94,0.8411988367664697,1.3231956969591527,0.1763624827671162,-119.76541050535587,-34.267106355147284,-40.90124166576177,-0.2071,-0.865,-0.2946,-0.3494
47,877121.0,849.867733,1.0,4.27,6.72,-5.64,-6.0,-42.06,24.56,19.87,-4.13,4.94,0.8411988367664697,1.3231956969591527,0.1763624827671162,-119.76541050535587,-34.267106355147284,-40.90124166576177,-0.2071,-0.865,-0.2946,-0.3494
48,877158.0,849.8857109999999,1.0,4.94,5.85,-6.53,-5.69,-41.69,25.37,26.25,16.69,-8.44,0.29730450326753,0.15758849070169978,-0.2508733482172545,-119.60574054309872,-34.795101425948374,-40.99909698527016,-0.2022,-0.8643,-0.299,-0.3502
49,877158.0,849.8857109999999,1.0,4.94,5.85,-6.53,-5.69,-41.69,25.37,26.25,16.69,-8.44,0.29730450326753,0.15758849070169978,-0.2508733482172545,-119.60574054309872,-34.795101425948374,-40.99909698527016,-0.2022,-0.8643,-0.299,-0.3502
50,877193.0,849.927908,1.0,5.6,5.13,-7.27,-5.69,-41.69,25.37,15.75,18.87,-17.25,-0.15074350637096634,-0.8823957442843167,-0.6684850418863792,-119.12900695445512,-35.504295540348124,-41.26836056402613,-0.1985,-0.8622,-0.3049,-0.3524
51,877193.0,849.927908,1.0,5.6,5.13,-7.27,-5.69,-41.69,25.37,15.75,18.87,-17.25,-0.15074350637096634,-0.8823957442843167,-0.6684850418863792,-119.12900695445512,-35.504295540348124,-41.26836056402613,-0.1985,-0.8622,-0.3049,-0.3524
52,877225.0,849.9787279999999,1.0,5.54,5.14,-7.62,-5.25,-42.06,26.19,3.94,-7.25,-4.44,-0.40216533566699386,-0.8562037136935663,-0.8835688117664429,-119.0385830310132,-35.96180782852424,-41.20714343304567,-0.1956,-0.8618,-0.3087,-0.3519
53,877225.0,849.9787279999999,1.0,5.54,5.14,-7.62,-5.25,-42.06,26.19,3.94,-7.25,-4.44,-0.40216533566699386,-0.8562037136935663,-0.8835688117664429,-119.0385830310132,-35.96180782852424,-41.20714343304567,-0.1956,-0.8618,-0.3087,-0.3519
54,877260.0,850.035317,1.0,4.56,6.16,-6.34,-6.75,-41.0,26.19,-6.0,-10.0,-20.0,0.4188478399443731,0.6188701110887469,-0.11183608773410114,-118.99341650256764,-36.20284159032565,-40.85232569399261,-0.1985,-0.8616,-0.3107,-0.349
55,877260.0,850.035317,1.0,4.56,6.16,-6.34,-6.75,-41.0,26.19,-6.0,-10.0,-20.0,0.4188478399443731,0.6188701110887469,-0.11183608773410114,-118.99341650256764,-36.20284159032565,-40.85232569399261,-0.1985,-0.8616,-0.3107,-0.349
56,877297.0,850.04208,1.0,3.94,5.51,-5.92,-6.0,-41.0,25.5,-4.06,-2.31,-34.44,0.14831357794451028,0.4364210422756383,0.8223503747394787,-118.23015155570127,-37.26537941343616,-40.461276767806375,-0.2045,-0.8582,-0.3195,-0.3458
57,877297.0,850.04208,1.0,3.94,5.51,-5.92,-6.0,-41.0,25.5,-4.06,-2.31,-34.44,0.14831357794451028,0.4364210422756383,0.8223503747394787,-118.23015155570127,-37.26537941343616,-40.461276767806375,-0.2045,-0.8582,-0.3195,-0.3458
58,877332.0,850.09704,1.0,3.66,5.83,-6.51,-6.0,-41.0,25.5,3.63,-2.0,-26.69,-0.2535195047931502,0.6574512526658114,0.35847103730789703,-117.63003319551184,-38.28272700926836,-40.13171155486349,-0.2073,-0.8555,-0.3279,-0.3431
59,877332.0,850.09704,1.0,3.66,5.83,-6.51,-6.0,-41.0,25.5,3.63,-2.0,-26.69,-0.2535195047931502,0.6574512526658114,0.35847103730789703,-117.63003319551184,-38.28272700926836,-40.13171155486349,-0.2073,-0.8555,-0.3279,-0.3431
60,877369.0,850.107086,1.0,4.27,5.11,-7.14,-3.0,-41.25,26.25,-1.19,6.06,-32.56,-0.6549489415113313,-0.4416223039798015,0.07522607414820293,-116.99119192350858,-39.242385733379436,-39.97315559242056,-0.2086,-0.8526,-0.3358,-0.3418
61,877369.0,850.107086,1.0,4.27,5.11,-7.14,-3.0,-41.25,26.25,-1.19,6.06,-32.56,-0.6549489415113313,-0.4416223039798015,0.07522607414820293,-116.99119192350858,-39.242385733379436,-39.97315559242056,-0.2086,-0.8526,-0.3358,-0.3418
62,877404.0,850.1599279999999,1.0,4.86,5.82,-8.02,-2.69,-41.0,27.06,-1.94,-0.12,-25.81,-0.6673008446367268,-0.633551431205285,-1.1917918063089683,-116.20613978613413,-40.21712102458852,-39.814679382357845,-0.2123,-0.8490000000000001,-0.3438,-0.3405
63,877404.0,850.1599279999999,1.0,4.86,5.82,-8.02,-2.69,-41.0,27.06,-1.94,-0.12,-25.81,-0.6673008446367268,-0.633551431205285,-1.1917918063089683,-116.20613978613413,-40.21712102458852,-39.814679382357845,-0.2123,-0.8490000000000001,-0.3438,-0.3405
64,877438.0,850.174064,1.0,4.06,6.88,-6.63,-2.69,-41.0,27.06,-2.19,-22.75,-44.38,0.4591256366844665,0.6275391559965726,-0.5456588370387276,-115.77371350268422,-41.02356569436402,-39.084272157289,-0.2186,-0.847,-0.3504,-0.3345
65,877438.0,850.174064,1.0,4.06,6.88,-6.63,-2.69,-41.0,27.06,-2.19,-22.75,-44.38,0.4591256366844665,0.6275391559965726,-0.5456588370387276,-115.77371350268422,-41.02356569436402,-39.084272157289,-0.2186,-0.847,-0.3504,-0.3345
66,877471.0,850.216908,1.0,4.14,6.23,-7.38,-1.19,-41.69,26.25,14.5,-23.0,-57.81,-0.11064112979576368,-0.27520338718534904,-0.6971075008222307,-115.06583600138664,-42.901336489189035,-37.604152605861614,-0.2245,-0.8437,-0.3657,-0.3223
67,877471.0,850.216908,1.0,4.14,6.23,-7.38,-1.19,-41.69,26.25,14.5,-23.0,-57.81,-0.11064112979576368,-0.27520338718534904,-0.6971075008222307,-115.06583600138664,-42.901336489189035,-37.604152605861614,-0.2245,-0.8437,-0.3657,-0.3223
68,877508.0,850.236407,1.0,2.94,6.89,-6.3,-0.06,-41.0,27.37,12.94,-42.88,-58.56,0.5556599365382007,0.9388274275453988,0.07959776943113006,-114.68260427841713,-44.345450751183655,-36.07025258875129,-0.2303,-0.8419,-0.3774,-0.3096
69,877508.0,850.236407,1.0,2.94,6.89,-6.3,-0.06,-41.0,27.37,12.94,-42.88,-58.56,0.5556599365382007,0.9388274275453988,0.07959776943113006,-114.68260427841713,-44.345450751183655,-36.07025258875129,-0.2303,-0.8419,-0.3774,-0.3096
70,877545.0,850.2752119999999,1.0,2.54,6.82,-6.28,-0.06,-41.0,27.37,12.38,-47.31,-59.44,0.6549173220849578,0.8384777703584079,0.25309368154727885,-114.19580936910464,-46.2701332926198,-33.71591204499429,-0.2379,-0.8396,-0.3929,-0.29
71,877545.0,850.2752119999999,1.0,2.54,6.82,-6.28,-0.06,-41.0,27.37,12.38,-47.31,-59.44,0.6549173220849578,0.8384777703584079,0.25309368154727885,-114.19580936910464,-46.2701332926198,-33.71591204499429,-0.2379,-0.8396,-0.3929,-0.29
72,877578.0,850.3356679999999,1.0,1.55,5.63,-6.05,2.88,-40.69,27.0,35.25,-26.87,-68.87,-0.09725365046437172,0.7614126675558706,1.4333177793630547,-113.56562110150705,-48.03303658033746,-32.031310917714855,-0.2414,-0.8366,-0.40700000000000003,-0.2759
73,877578.0,850.3356679999999,1.0,1.55,5.63,-6.05,2.88,-40.69,27.0,35.25,-26.87,-68.87,-0.09725365046437172,0.7614126675558706,1.4333177793630547,-113.56562110150705,-48.03303658033746,-32.031310917714855,-0.2414,-0.8366,-0.40700000000000003,-0.2759
74,877613.0,850.3527730000001,1.0,2.82,5.86,-6.86,7.0,-39.88,27.75,13.75,-7.19,-51.69,0.3372978974813425,-0.507627542900214,0.3737212710185407,-112.30026879409438,-50.31398649954689,-30.876538373720194,-0.2422,-0.8305,-0.4251,-0.2662
75,877613.0,850.3527730000001,1.0,2.82,5.86,-6.86,7.0,-39.88,27.75,13.75,-7.19,-51.69,0.3372978974813425,-0.507627542900214,0.3737212710185407,-112.30026879409438,-50.31398649954689,-30.876538373720194,-0.2422,-0.8305,-0.4251,-0.2662
76,877649.0,850.3942279999999,1.0,2.88,6.14,-7.95,8.19,-38.75,29.0,18.0,-24.94,-55.19,-0.07548377571785325,-0.8203367122932494,-0.6105401143286837,-111.2987386824523,-51.77429627625306,-30.057061369867114,-0.2462,-0.8256,-0.4366,-0.2593
77,877649.0,850.3942279999999,1.0,2.88,6.14,-7.95,8.19,-38.75,29.0,18.0,-24.94,-55.19,-0.07548377571785325,-0.8203367122932494,-0.6105401143286837,-111.2987386824523,-51.77429627625306,-30.057061369867114,-0.2462,-0.8256,-0.4366,-0.2593
78,877684.0,850.410593,1.0,1.62,6.14,-6.41,8.19,-38.75,29.0,30.87,-44.0,-45.38,0.6427839797399815,0.27915087113541137,0.811039762415561,-111.0351722213916,-53.3975630858556,-27.714063693203613,-0.2476,-0.8243,-0.4493,-0.2395
79,877684.0,850.410593,1.0,1.62,6.14,-6.41,8.19,-38.75,29.0,30.87,-44.0,-45.38,0.6427839797399815,0.27915087113541137,0.811039762415561,-111.0351722213916,-53.3975630858556,-27.714063693203613,-0.2476,-0.8243,-0.4493,-0.2395
80,877719.0,850.453808,1.0,2.31,4.17,-8.46,11.19,-38.75,27.75,19.37,-11.5,-51.63,-1.3526606988181464,-1.7581650615644857,0.35277435822393777,-110.28980246010522,-54.954967799820345,-26.582368805630427,-0.2469,-0.8206,-0.4614,-0.2299
81,877719.0,850.453808,1.0,2.31,4.17,-8.46,11.19,-38.75,27.75,19.37,-11.5,-51.63,-1.3526606988181464,-1.7581650615644857,0.35277435822393777,-110.28980246010522,-54.954967799820345,-26.582368805630427,-0.2469,-0.8206,-0.4614,-0.2299
82,877756.0,850.471859,1.0,3.4,5.74,-10.02,14.56,-36.88,29.0,-9.31,-20.5,-27.37,-0.6884911928891746,-2.550430943080504,-1.9376797757637745,-109.39254607388746,-56.081575892488225,-25.67656503656709,-0.2523,-0.8161,-0.4701,-0.2222
83,877756.0,850.471859,1.0,3.4,5.74,-10.02,14.56,-36.88,29.0,-9.31,-20.5,-27.37,-0.6884911928891746,-2.550430943080504,-1.9376797757637745,-109.39254607388746,-56.081575892488225,-25.67656503656709,-0.2523,-0.8161,-0.4701,-0.2222
84,877791.0,850.570202,1.0,1.14,5.71,-7.27,14.56,-36.88,29.0,9.75,-58.31,-29.75,0.04565283839657242,-0.2342427603927426,0.4953855237030265,-109.39254607388746,-56.35439663135928,-24.22126399043484,-0.2588,-0.8161,-0.4722,-0.2098
85,877791.0,850.570202,1.0,1.14,5.71,-7.27,14.56,-36.88,29.0,9.75,-58.31,-29.75,0.04565283839657242,-0.2342427603927426,0.4953855237030265,-109.39254607388746,-56.35439663135928,-24.22126399043484,-0.2588,-0.8161,-0.4722,-0.2098
86,877824.0,850.575047,1.0,0.29,5.48,-6.23,16.06,-36.25,29.87,-10.06,-33.13,-42.0,0.2242222520155306,0.3595736213617413,1.5152188091547265,-108.36791454974384,-57.50146795059126,-22.73485185773412,-0.2689,-0.8109,-0.48100000000000004,-0.1971
87,877824.0,850.575047,1.0,0.29,5.48,-6.23,16.06,-36.25,29.87,-10.06,-33.13,-42.0,0.2242222520155306,0.3595736213617413,1.5152188091547265,-108.36791454974384,-57.50146795059126,-22.73485185773412,-0.2689,-0.8109,-0.48100000000000004,-0.1971
88,877860.0,850.6110779999999,1.0,0.36,5.65,-7.94,16.75,-36.69,27.5,-4.75,-7.25,-29.5,-0.6147090108348849,-0.1929071866346024,0.07625331490318032,-107.452610813999,-58.30030109286572,-22.477763863075143,-0.2736,-0.8062,-0.4871,-0.1949
89,877860.0,850.6110779999999,1.0,0.36,5.65,-7.94,16.75,-36.69,27.5,-4.75,-7.25,-29.5,-0.6147090108348849,-0.1929071866346024,0.07625331490318032,-107.452610813999,-58.30030109286572,-22.477763863075143,-0.2736,-0.8062,-0.4871,-0.1949
90,877897.0,850.6294529999999,1.0,-0.16,6.0,-6.82,19.0,-35.88,27.5,20.12,-21.0,-19.25,0.2078742514574845,0.5787106922301986,0.7424411415127086,-107.29780638051407,-58.970568079244025,-21.34558610673021,-0.2734,-0.8054,-0.4922,-0.1852
91,877897.0,850.6294529999999,1.0,-0.16,6.0,-6.82,19.0,-35.88,27.5,20.12,-21.0,-19.25,0.2078742514574845,0.5787106922301986,0.7424411415127086,-107.29780638051407,-58.970568079244025,-21.34558610673021,-0.2734,-0.8054,-0.4922,-0.1852
92,877930.0,850.6704609999999,1.0,-0.21,6.13,-6.9,19.0,-35.88,27.5,13.63,-3.88,-23.25,0.3442677692932896,0.5886080167713792,0.5998036177897319,-107.0468533184743,-59.590233417807454,-20.69292362085707,-0.2725,-0.8041,-0.4969,-0.1796
93,877930.0,850.6704609999999,1.0,-0.21,6.13,-6.9,19.0,-35.88,27.5,13.63,-3.88,-23.25,0.3442677692932896,0.5886080167713792,0.5998036177897319,-107.0468533184743,-59.590233417807454,-20.69292362085707,-0.2725,-0.8041,-0.4969,-0.1796
94,877967.0,850.7247130000001,1.0,-0.66,6.42,-6.2,20.5,-34.75,28.69,20.81,27.37,-30.75,0.8583883911881203,1.2565411241158149,0.9875642325704046,-106.18384425288782,-60.92841409128425,-20.54151049721856,-0.2682,-0.7996,-0.507,-0.1783
95,877967.0,850.7247130000001,1.0,-0.66,6.42,-6.2,20.5,-34.75,28.69,20.81,27.37,-30.75,0.8583883911881203,1.2565411241158149,0.9875642325704046,-106.18384425288782,-60.92841409128425,-20.54151049721856,-0.2682,-0.7996,-0.507,-0.1783
96,878004.0,850.7401460000001,1.0,-0.28,3.16,-7.24,20.06,-34.5,28.69,41.38,65.62,-18.62,-1.8139815049092107,-0.2507406744953482,2.117163657336989,-105.5185544187127,-62.36959041979664,-21.054133663315955,-0.2545,-0.7961,-0.5178,-0.1827
97,878004.0,850.7401460000001,1.0,-0.28,3.16,-7.24,20.06,-34.5,28.69,41.38,65.62,-18.62,-1.8139815049092107,-0.2507406744953482,2.117163657336989,-105.5185544187127,-62.36959041979664,-21.054133663315955,-0.2545,-0.7961,-0.5178,-0.1827
98,878036.0,850.782975,1.0,-0.12,4.15,-7.03,20.06,-34.5,28.69,3.69,72.06,10.0,-0.9388640867832796,0.34508008281388713,1.7037336137231556,-105.140661692498,-63.148087344627434,-22.898513619526447,-0.2363,-0.7941,-0.5236,-0.1985
99,878036.0,850.782975,1.0,-0.12,4.15,-7.03,20.06,-34.5,28.69,3.69,72.06,10.0,-0.9388640867832796,0.34508008281388713,1.7037336137231556,-105.140661692498,-63.148087344627434,-22.898513619526447,-0.2363,-0.7941,-0.5236,-0.1985
100,878071.0,850.801683,1.0,-0.09,3.47,-5.53,19.37,-32.5,31.06,4.88,78.94,17.81,-0.6629228142761613,0.5634148629031024,3.3357152116891133,-104.63307361365904,-63.525076929588316,-24.79585513058625,-0.2247,-0.7914,-0.5264,-0.2147
101,878071.0,850.801683,1.0,-0.09,3.47,-5.53,19.37,-32.5,31.06,4.88,78.94,17.81,-0.6629228142761613,0.5634148629031024,3.3357152116891133,-104.63307361365904,-63.525076929588316,-24.79585513058625,-0.2247,-0.7914,-0.5264,-0.2147
102,878108.0,850.8828789999999,1.0,0.24,3.74,-2.82,17.5,-32.88,31.87,-20.56,131.69,74.5,1.06700822108543,0.9812254300162762,5.346124233722501,-104.87710290187229,-62.3829855554336,-28.45823232032684,-0.2074,-0.7927,-0.5179,-0.2458
103,878108.0,850.8828789999999,1.0,0.24,3.74,-2.82,17.5,-32.88,31.87,-20.56,131.69,74.5,1.06700822108543,0.9812254300162762,5.346124233722501,-104.87710290187229,-62.3829855554336,-28.45823232032684,-0.2074,-0.7927,-0.5179,-0.2458
104,878143.0,850.8927699999999,1.0,3.29,3.57,-2.52,17.5,-32.88,31.87,-52.0,294.19,87.87,1.7945844337514518,-1.4318202226349628,4.841898489582731,-103.47835920176271,-61.34098184227653,-35.227664546585345,-0.1782,-0.7852,-0.5101,-0.3026
105,878143.0,850.8927699999999,1.0,3.29,3.57,-2.52,17.5,-32.88,31.87,-52.0,294.19,87.87,1.7945844337514518,-1.4318202226349628,4.841898489582731,-103.47835920176271,-61.34098184227653,-35.227664546585345,-0.1782,-0.7852,-0.5101,-0.3026
106,878178.0,850.9340070000001,1.0,7.38,3.97,-4.78,13.06,-33.56,33.5,-56.0,415.56,109.5,0.1987621417926484,-3.171197832436598,0.6974404888217975,-97.66701631024893,-59.352689332048705,-49.378927610894635,-0.1169,-0.7528,-0.4951,-0.4177
107,878178.0,850.9340070000001,1.0,7.38,3.97,-4.78,13.06,-33.56,33.5,-56.0,415.56,109.5,0.1987621417926484,-3.171197832436598,0.6974404888217975,-97.66701631024893,-59.352689332048705,-49.378927610894635,-0.1169,-0.7528,-0.4951,-0.4177
108,878213.0,850.990533,1.0,10.57,5.24,-13.93,0.0,-35.88,31.06,-66.12,347.63,107.94,-7.677854455934309,0.6215435954602353,-6.743021734280168,-91.0081013523764,-55.912860196887344,-62.28923949337646,-0.0636,-0.7133,-0.4688,-0.5172
109,878213.0,850.990533,1.0,10.57,5.24,-13.93,0.0,-35.88,31.06,-66.12,347.63,107.94,-7.677854455934309,0.6215435954602353,-6.743021734280168,-91.0081013523764,-55.912860196887344,-62.28923949337646,-0.0636,-0.7133,-0.4688,-0.5172
110,878249.0,851.0064390000001,1.0,8.01,4.24,-6.44,-14.19,-35.88,28.5,-78.37,-96.0,101.69,-2.417607345769033,-0.8034482080470475,-1.015593099222528,-92.77144614855234,-52.437569453805544,-63.376882602273,-0.0684,-0.7240000000000001,-0.4418,-0.5253
111,878249.0,851.0064390000001,1.0,8.01,4.24,-6.44,-14.19,-35.88,28.5,-78.37,-96.0,101.69,-2.417607345769033,-0.8034482080470475,-1.015593099222528,-92.77144614855234,-52.437569453805544,-63.376882602273,-0.0684,-0.7240000000000001,-0.4418,-0.5253
112,878284.0,851.0161019999999,1.0,5.75,6.01,-0.5,-14.19,-35.88,28.5,-91.69,-144.56,104.56,3.6253265796744873,0.17034555957780428,2.3059440611541198,-99.14020348928251,-46.407242416234105,-60.861952842422134,-0.0939,-0.7612,-0.39399999999999996,-0.5065
113,878284.0,851.0161019999999,1.0,5.75,6.01,-0.5,-14.19,-35.88,28.5,-91.69,-144.56,104.56,3.6253265796744873,0.17034555957780428,2.3059440611541198,-99.14020348928251,-46.407242416234105,-60.861952842422134,-0.0939,-0.7612,-0.39399999999999996,-0.5065
114,878321.0,851.0935470000001,1.0,6.13,5.85,-1.35,-15.69,-37.0,26.69,13.56,61.44,106.06,2.9394805417630696,0.4769568137143398,1.7596712910404868,-100.79761933768772,-43.591628016640854,-61.54092764747301,-0.0822,-0.7705,-0.3713,-0.5116
115,878321.0,851.0935470000001,1.0,6.13,5.85,-1.35,-15.69,-37.0,26.69,13.56,61.44,106.06,2.9394805417630696,0.4769568137143398,1.7596712910404868,-100.79761933768772,-43.591628016640854,-61.54092764747301,-0.0822,-0.7705,-0.3713,-0.5116
116,878358.0,851.1039199999999,1.0,7.36,3.92,-0.88,-16.87,-36.25,25.5,4.0,163.44,88.31,2.283108725804017,-1.0944857046572487,1.8129077231650443,-98.55882930624523,-41.452085959696824,-66.22709184452836,-0.0437,-0.7579,-0.3539,-0.5463
117,878358.0,851.1039199999999,1.0,7.36,3.92,-0.88,-16.87,-36.25,25.5,4.0,163.44,88.31,2.283108725804017,-1.0944857046572487,1.8129077231650443,-98.55882930624523,-41.452085959696824,-66.22709184452836,-0.0437,-0.7579,-0.3539,-0.5463
118,878393.0,851.1457640000001,1.0,9.9,6.52,-0.02,-16.87,-36.25,25.5,-60.0,248.13,75.5,3.770935761047242,-0.03472775028974606,-1.4316611484517503,-94.37809988831016,-38.987009992065246,-72.54126289658385,-0.0219,-0.7336,-0.3337,-0.5916
119,878393.0,851.1457640000001,1.0,9.9,6.52,-0.02,-16.87,-36.25,25.5,-60.0,248.13,75.5,3.770935761047242,-0.03472775028974606,-1.4316611484517503,-94.37809988831016,-38.987009992065246,-72.54126289658385,-0.0219,-0.7336,-0.3337,-0.5916
120,878428.0,851.163541,1.0,11.32,5.05,-2.72,-22.87,-34.5,22.69,-34.56,336.38,33.5,-1.3699858282549533,0.6930473121996261,-2.7904180816384194,-84.195889005568,-36.45610555039494,-84.55159136755906,0.0125,-0.6704,-0.3128,-0.6727
121,878428.0,851.163541,1.0,11.32,5.05,-2.72,-22.87,-34.5,22.69,-34.56,336.38,33.5,-1.3699858282549533,0.6930473121996261,-2.7904180816384194,-84.195889005568,-36.45610555039494,-84.55159136755906,0.0125,-0.6704,-0.3128,-0.6727
122,878462.0,851.20692,1.0,11.94,4.59,-2.83,-29.69,-33.0,15.25,-27.44,218.81,42.69,-3.0851490756417723,1.2073763585029242,-2.8687078848880962,-77.54063712636635,-34.89118212049759,-91.92747384583168,0.0346,-0.6262,-0.2998,-0.7189
123,878462.0,851.20692,1.0,11.94,4.59,-2.83,-29.69,-33.0,15.25,-27.44,218.81,42.69,-3.0851490756417723,1.2073763585029242,-2.8687078848880962,-77.54063712636635,-34.89118212049759,-91.92747384583168,0.0346,-0.6262,-0.2998,-0.7189
124,878499.0,851.2578900000001,1.0,11.33,5.78,-0.12,-33.56,-32.69,8.56,-10.88,42.75,29.31,-0.5663338339575961,1.7955744875887274,-2.772971546296036,-74.71696010988838,-33.332946647245606,-95.37768129091222,0.0527,-0.6068,-0.2868,-0.7395
125,878499.0,851.2578900000001,1.0,11.33,5.78,-0.12,-33.56,-32.69,8.56,-10.88,42.75,29.31,-0.5663338339575961,1.7955744875887274,-2.772971546296036,-74.71696010988838,-33.332946647245606,-95.37768129091222,0.0527,-0.6068,-0.2868,-0.7395
126,878534.0,851.319732,1.0,9.92,5.93,2.95,-33.56,-32.69,8.56,-2.75,20.81,-30.62,2.294542183215317,0.7614485655223238,-1.8736356237126977,-73.65387577244138,-33.57225481905068,-96.30102081146677,0.0492,-0.5994,-0.2888,-0.7449
127,878534.0,851.319732,1.0,9.92,5.93,2.95,-33.56,-32.69,8.56,-2.75,20.81,-30.62,2.294542183215317,0.7614485655223238,-1.8736356237126977,-73.65387577244138,-33.57225481905068,-96.30102081146677,0.0492,-0.5994,-0.2888,-0.7449
128,878571.0,851.331242,1.0,11.26,3.22,3.43,-33.19,-30.87,7.25,72.25,44.88,-34.88,0.9465331656133348,-2.337375695432213,-2.13326833409244,-72.22888386833002,-35.57649524988903,-96.4901268036236,0.0533,-0.5894,-0.3055,-0.746
129,878571.0,851.331242,1.0,11.26,3.22,3.43,-33.19,-30.87,7.25,72.25,44.88,-34.88,0.9465331656133348,-2.337375695432213,-2.13326833409244,-72.22888386833002,-35.57649524988903,-96.4901268036236,0.0533,-0.5894,-0.3055,-0.746
130,878606.0,851.3383220000001,1.0,10.85,4.37,0.77,-32.0,-31.69,7.88,31.94,88.81,-18.62,-1.1521347298201854,0.15705770178589604,-1.8578353483834391,-69.05476022725051,-37.180738981785375,-98.38333132200674,0.0646,-0.5668,-0.3188,-0.7569
131,878606.0,851.3383220000001,1.0,10.85,4.37,0.77,-32.0,-31.69,7.88,31.94,88.81,-18.62,-1.1521347298201854,0.15705770178589604,-1.8578353483834391,-69.05476022725051,-37.180738981785375,-98.38333132200674,0.0646,-0.5668,-0.3188,-0.7569
132,878641.0,851.373497,1.0,10.45,7.75,0.02,-32.0,-31.69,7.88,4.56,-24.25,-17.81,-0.160046483505211,3.3349408386570225,-2.7678462016684846,-68.3053449313366,-37.62836370499113,-98.78744465249004,0.0669,-0.5614,-0.3225,-0.7592
133,878641.0,851.373497,1.0,10.45,7.75,0.02,-32.0,-31.69,7.88,4.56,-24.25,-17.81,-0.160046483505211,3.3349408386570225,-2.7678462016684846,-68.3053449313366,-37.62836370499113,-98.78744465249004,0.0669,-0.5614,-0.3225,-0.7592
134,878675.0,851.4257470000001,1.0,11.23,5.48,-0.07,-31.56,-30.75,6.69,80.25,-61.44,-57.44,-1.2466389847429502,0.6544191232566035,-2.609703202645097,-69.37497967027187,-41.096983557102725,-95.65040635419015,0.0607,-0.5691,-0.35100000000000003,-0.7411
135,878675.0,851.4257470000001,1.0,11.23,5.48,-0.07,-31.56,-30.75,6.69,80.25,-61.44,-57.44,-1.2466389847429502,0.6544191232566035,-2.609703202645097,-69.37497967027187,-41.096983557102725,-95.65040635419015,0.0607,-0.5691,-0.35100000000000003,-0.7411
136,878710.0,851.475118,1.0,9.83,3.29,-0.27,-30.5,-31.87,7.69,35.25,-67.56,-19.06,-1.6966232949976867,-0.8007229574796011,-0.39169359787099545,-70.7183188364016,-43.283258399546064,-92.92105929606363,0.0604,-0.5787,-0.3688,-0.7249
137,878710.0,851.475118,1.0,9.83,3.29,-0.27,-30.5,-31.87,7.69,35.25,-67.56,-19.06,-1.6966232949976867,-0.8007229574796011,-0.39169359787099545,-70.7183188364016,-43.283258399546064,-92.92105929606363,0.0604,-0.5787,-0.3688,-0.7249
138,878747.0,851.481958,1.0,9.14,5.97,-0.82,-30.5,-31.87,7.69,24.62,-71.87,-23.25,-0.2043860708335351,1.2508722895220066,-1.067468118236313,-72.640787235407,-44.74170597311218,-90.19353290614056,0.0518,-0.5923,-0.3806,-0.7083
139,878747.0,851.481958,1.0,9.14,5.97,-0.82,-30.5,-31.87,7.69,24.62,-71.87,-23.25,-0.2043860708335351,1.2508722895220066,-1.067468118236313,-72.640787235407,-44.74170597311218,-90.19353290614056,0.0518,-0.5923,-0.3806,-0.7083
140,878782.0,851.534591,1.0,8.4,2.58,-0.84,-29.06,-31.25,11.56,79.0,-87.12,2.69,-1.432701285174002,-1.1523092138875133,1.1729051286796324,-74.47207628489997,-46.8189931753183,-86.92820940034244,0.0538,-0.6051,-0.3973,-0.6879
141,878782.0,851.534591,1.0,8.4,2.58,-0.84,-29.06,-31.25,11.56,79.0,-87.12,2.69,-1.432701285174002,-1.1523092138875133,1.1729051286796324,-74.47207628489997,-46.8189931753183,-86.92820940034244,0.0538,-0.6051,-0.3973,-0.6879
142,878817.0,851.5502630000001,1.0,7.3,4.48,0.17,-29.06,-32.69,14.0,2.56,-69.44,21.25,1.1666877814239034,-0.2250807102268757,1.322695833777745,-77.65826632282992,-47.06885078095891,-83.65650764793494,0.0518,-0.627,-0.3993,-0.6669
143,878817.0,851.5502630000001,1.0,7.3,4.48,0.17,-29.06,-32.69,14.0,2.56,-69.44,21.25,1.1666877814239034,-0.2250807102268757,1.322695833777745,-77.65826632282992,-47.06885078095891,-83.65650764793494,0.0518,-0.627,-0.3993,-0.6669
144,878854.0,851.593902,1.0,7.38,5.27,-0.21,-26.37,-31.69,16.75,1.19,-19.69,-1.63,1.4296759143886577,0.4441664757981969,0.8601343139022006,-78.61764169313197,-47.05635227559625,-82.72182782084748,0.0502,-0.6335,-0.3992,-0.6608
145,878854.0,851.593902,1.0,7.38,5.27,-0.21,-26.37,-31.69,16.75,1.19,-19.69,-1.63,1.4296759143886577,0.4441664757981969,0.8601343139022006,-78.61764169313197,-47.05635227559625,-82.72182782084748,0.0502,-0.6335,-0.3992,-0.6608
146,878886.0,851.6111099999999,1.0,8.13,3.43,-1.27,-26.37,-31.69,16.75,3.31,6.44,-6.0,-0.6507524941291024,-0.5274211121283994,0.9312318035505508,-78.3956670621913,-47.2313854664036,-82.84402467387862,0.0488,-0.632,-0.4006,-0.6616
147,878886.0,851.6111099999999,1.0,8.13,3.43,-1.27,-26.37,-31.69,16.75,3.31,6.44,-6.0,-0.6507524941291024,-0.5274211121283994,0.9312318035505508,-78.3956670621913,-47.2313854664036,-82.84402467387862,0.0488,-0.632,-0.4006,-0.6616
148,878921.0,851.6515449999999,1.0,8.31,4.23,-1.47,-26.06,-30.87,18.0,-52.75,13.13,-2.0,-0.5196058083174824,0.11741955182505805,0.3818888649466583,-78.08549020583642,-46.43217889831124,-83.79498797378322,0.0441,-0.6299,-0.3942,-0.6678
149,878921.0,851.6515449999999,1.0,8.31,4.23,-1.47,-26.06,-30.87,18.0,-52.75,13.13,-2.0,-0.5196058083174824,0.11741955182505805,0.3818888649466583,-78.08549020583642,-46.43217889831124,-83.79498797378322,0.0441,-0.6299,-0.3942,-0.6678
150,878958.0,851.706616,1.0,8.08,5.48,-0.48,-25.69,-30.87,18.0,-65.56,27.5,-17.44,0.6745962134375012,0.6316202917832885,0.07560813615913986,-77.34969619182397,-44.74170597311218,-85.84367215482173,0.0296,-0.6249,-0.3806,-0.6809999999999999
151,878958.0,851.706616,1.0,8.08,5.48,-0.48,-25.69,-30.87,18.0,-65.56,27.5,-17.44,0.6745962134375012,0.6316202917832885,0.07560813615913986,-77.34969619182397,-44.74170597311218,-85.84367215482173,0.0296,-0.6249,-0.3806,-0.6809999999999999
152,878993.0,851.722065,1.0,8.75,5.21,-1.14,-25.69,-30.87,18.0,-77.31,7.0,-9.5,-0.4306608454896027,0.5837625679652416,-0.4148935478407481,-76.7637741365913,-43.480576858025245,-87.35524570014307,0.0184,-0.6209,-0.3704,-0.6906
153,878993.0,851.722065,1.0,8.75,5.21,-1.14,-25.69,-30.87,18.0,-77.31,7.0,-9.5,-0.4306608454896027,0.5837625679652416,-0.4148935478407481,-76.7637741365913,-43.480576858025245,-87.35524570014307,0.0184,-0.6209,-0.3704,-0.6906
154,879028.0,851.77942,1.0,8.37,5.62,-0.65,-26.5,-32.69,14.38,-52.69,10.63,-12.31,-0.02388005166438026,0.8406765243496856,-0.2609461740894137,-76.31131240749009,-42.00393403253583,-88.83796307481566,0.0036,-0.6178,-0.3584,-0.6999
155,879028.0,851.77942,1.0,8.37,5.62,-0.65,-26.5,-32.69,14.38,-52.69,10.63,-12.31,-0.02388005166438026,0.8406765243496856,-0.2609461740894137,-76.31131240749009,-42.00393403253583,-88.83796307481566,0.0036,-0.6178,-0.3584,-0.6999
156,879063.0,851.783059,1.0,8.39,4.29,-0.15,-25.25,-33.75,12.75,-51.69,12.69,-4.94,-0.3442839400974614,-0.3665141238738254,0.3957076473133157,-75.83119675698822,-41.24387223496928,-89.80459924068859,-0.0029,-0.6145,-0.3522,-0.7059
157,879063.0,851.783059,1.0,8.39,4.29,-0.15,-25.25,-33.75,12.75,-51.69,12.69,-4.94,-0.3442839400974614,-0.3665141238738254,0.3957076473133157,-75.83119675698822,-41.24387223496928,-89.80459924068859,-0.0029,-0.6145,-0.3522,-0.7059
158,879099.0,851.8186890000001,1.0,8.64,5.2,0.04,-26.5,-34.56,10.75,-77.12,28.12,3.19,-0.17697140425819086,0.3089505546179967,-0.27126797331552943,-75.09226338481456,-39.07211278567739,-91.91098977027544,-0.015,-0.6094,-0.3344,-0.7188
159,879099.0,851.8186890000001,1.0,8.64,5.2,0.04,-26.5,-34.56,10.75,-77.12,28.12,3.19,-0.17697140425819086,0.3089505546179967,-0.27126797331552943,-75.09226338481456,-39.07211278567739,-91.91098977027544,-0.015,-0.6094,-0.3344,-0.7188
160,879134.0,851.870009,1.0,9.71,6.11,0.56,-26.5,-34.56,10.75,-50.94,12.0,2.13,0.1325097627578021,0.4682657050166044,-1.669105678484936,-74.64489405402493,-37.664683622171815,-93.18754718833176,-0.0223,-0.6063,-0.3228,-0.7265
161,879134.0,851.870009,1.0,9.71,6.11,0.56,-26.5,-34.56,10.75,-50.94,12.0,2.13,0.1325097627578021,0.4682657050166044,-1.669105678484936,-74.64489405402493,-37.664683622171815,-93.18754718833176,-0.0223,-0.6063,-0.3228,-0.7265
162,879171.0,851.924911,1.0,8.62,5.31,-0.54,-26.5,-34.56,8.0,-48.75,26.5,-20.25,-1.16589251993651,0.8254709373451417,-0.23084930827168826,-73.51078365135078,-36.673335709404434,-94.80049313653744,-0.032,-0.5984,-0.3146,-0.7361
163,879171.0,851.924911,1.0,8.62,5.31,-0.54,-26.5,-34.56,8.0,-48.75,26.5,-20.25,-1.16589251993651,0.8254709373451417,-0.23084930827168826,-73.51078365135078,-36.673335709404434,-94.80049313653744,-0.032,-0.5984,-0.3146,-0.7361
164,879206.0,851.9794220000001,1.0,8.22,5.87,0.6,-26.06,-35.75,7.19,-29.56,-14.0,-12.63,0.046304740385508525,0.9314261335264242,-0.2688450860392901,-73.28211333587478,-36.29930145114271,-95.19059578646072,-0.0393,-0.5968,-0.3115,-0.7384
165,879206.0,851.9794220000001,1.0,8.22,5.87,0.6,-26.06,-35.75,7.19,-29.56,-14.0,-12.63,0.046304740385508525,0.9314261335264242,-0.2688450860392901,-73.28211333587478,-36.29930145114271,-95.19059578646072,-0.0393,-0.5968,-0.3115,-0.7384
166,879241.0,851.9858320000001,1.0,8.44,4.58,0.97,-26.06,-35.75,7.19,1.31,-7.63,1.06,-0.05452053064699963,-0.4063064984907867,0.16388885284810684,-73.59662288630017,-36.27518399341682,-94.8682331378412,-0.0434,-0.599,-0.3113,-0.7365
167,879241.0,851.9858320000001,1.0,8.44,4.58,0.97,-26.06,-35.75,7.19,1.31,-7.63,1.06,-0.05452053064699963,-0.4063064984907867,0.16388885284810684,-73.59662288630017,-36.27518399341682,-94.8682331378412,-0.0434,-0.599,-0.3113,-0.7365
168,879273.0,852.001768,1.0,8.65,5.47,-0.32,-26.06,-36.06,5.19,-49.13,-16.81,-4.0,-1.0537195710574785,0.7473188416608045,-0.35095747491599205,-73.96915070870061,-35.32385988676265,-94.98688318439542,-0.0512,-0.6016,-0.3034,-0.7372
169,879273.0,852.001768,1.0,8.65,5.47,-0.32,-26.06,-36.06,5.19,-49.13,-16.81,-4.0,-1.0537195710574785,0.7473188416608045,-0.35095747491599205,-73.96915070870061,-35.32385988676265,-94.98688318439542,-0.0512,-0.6016,-0.3034,-0.7372
170,879310.0,852.146002,1.0,7.61,5.72,1.37,-26.5,-36.56,5.56,4.0,-40.19,-1.5,0.9631831860898352,0.7092310855280837,0.2632402625238548,-74.91892947359995,-35.131494837214326,-94.10864838411064,-0.0563,-0.6082,-0.3018,-0.732
171,879310.0,852.146002,1.0,7.61,5.72,1.37,-26.5,-36.56,5.56,4.0,-40.19,-1.5,0.9631831860898352,0.7092310855280837,0.2632402625238548,-74.91892947359995,-35.131494837214326,-94.10864838411064,-0.0563,-0.6082,-0.3018,-0.732
172,879345.0,852.1508439999999,1.0,6.9,3.95,1.55,-26.5,-36.56,5.56,11.88,-27.25,3.88,0.9396310735842808,-0.5248604623066631,1.7781622880668184,-75.80214927173115,-35.42008094609324,-93.10419946060928,-0.0562,-0.6143,-0.3042,-0.726
173,879345.0,852.1508439999999,1.0,6.9,3.95,1.55,-26.5,-36.56,5.56,11.88,-27.25,3.88,0.9396310735842808,-0.5248604623066631,1.7781622880668184,-75.80214927173115,-35.42008094609324,-93.10419946060928,-0.0562,-0.6143,-0.3042,-0.726
174,879380.0,852.160362,1.0,7.42,5.17,1.38,-25.0,-36.75,6.5,-17.44,15.44,15.13,1.0065528377569768,0.387037753468503,0.7222263439724248,-75.88930894202932,-34.80711013090355,-93.37113824061916,-0.0546,-0.6149,-0.2991,-0.7276
175,879380.0,852.160362,1.0,7.42,5.17,1.38,-25.0,-36.75,6.5,-17.44,15.44,15.13,1.0065528377569768,0.387037753468503,0.7222263439724248,-75.88930894202932,-34.80711013090355,-93.37113824061916,-0.0546,-0.6149,-0.2991,-0.7276
176,879415.0,852.1712269999999,1.0,8.22,5.09,1.11,-25.0,-36.06,6.0,-7.69,15.06,24.56,0.4946413889357579,0.2393770102505215,0.09034264878290976,-75.61348008001588,-34.13522516911611,-94.10864838411064,-0.0483,-0.613,-0.2935,-0.732
177,879415.0,852.1712269999999,1.0,8.22,5.09,1.11,-25.0,-36.06,6.0,-7.69,15.06,24.56,0.4946413889357579,0.2393770102505215,0.09034264878290976,-75.61348008001588,-34.13522516911611,-94.10864838411064,-0.0483,-0.613,-0.2935,-0.732
178,879452.0,852.177117,1.0,8.03,5.38,1.63,-25.0,-35.25,6.5,-0.75,24.5,24.12,1.0553359867166583,0.5058685255335673,0.07461203305724595,-75.1934679339669,-33.751834870470574,-94.80049313653744,-0.0415,-0.6101,-0.2903,-0.7361
179,879452.0,852.177117,1.0,8.03,5.38,1.63,-25.0,-35.25,6.5,-0.75,24.5,24.12,1.0553359867166583,0.5058685255335673,0.07461203305724595,-75.1934679339669,-33.751834870470574,-94.80049313653744,-0.0415,-0.6101,-0.2903,-0.7361
180,879484.0,852.2225890000001,1.0,7.61,4.08,1.14,-25.0,-35.25,6.5,18.87,42.88,29.81,0.2345622906223378,-0.018266610817457615,1.1001727064703584,-74.19885237818175,-33.57225481905068,-95.97520098011694,-0.0273,-0.6032,-0.2888,-0.743
181,879484.0,852.2225890000001,1.0,7.61,4.08,1.14,-25.0,-35.25,6.5,18.87,42.88,29.81,0.2345622906223378,-0.018266610817457615,1.1001727064703584,-74.19885237818175,-33.57225481905068,-95.97520098011694,-0.0273,-0.6032,-0.2888,-0.743
182,879521.0,852.268602,1.0,8.42,4.79,-0.35,-27.19,-35.69,5.25,-9.5,41.06,25.12,-1.2586151305255355,1.0627782541087485,0.2541953240643018,-73.15363536728181,-33.08183396795116,-97.30210096200071,-0.0184,-0.5959,-0.2847,-0.7507
183,879521.0,852.268602,1.0,8.42,4.79,-0.35,-27.19,-35.69,5.25,-9.5,41.06,25.12,-1.2586151305255355,1.0627782541087485,0.2541953240643018,-73.15363536728181,-33.08183396795116,-97.30210096200071,-0.0184,-0.5959,-0.2847,-0.7507
184,879558.0,852.2869699999999,1.0,8.84,4.79,0.24,-28.0,-35.25,4.5,8.19,-2.31,25.75,-0.7942315400800325,0.8312965510610089,-0.1846183031202866,-73.25355342465495,-32.67561619029609,-97.45833109591423,-0.0101,-0.5966,-0.2813,-0.7516
185,879558.0,852.2869699999999,1.0,8.84,4.79,0.24,-28.0,-35.25,4.5,8.19,-2.31,25.75,-0.7942315400800325,0.8312965510610089,-0.1846183031202866,-73.25355342465495,-32.67561619029609,-97.45833109591423,-0.0101,-0.5966,-0.2813,-0.7516
186,879591.0,852.37719,1.0,8.63,4.93,1.05,-28.0,-35.25,4.5,8.75,-21.31,25.06,0.19432009645127565,0.7582687719653478,-0.15686183918488614,-74.01219332198103,-32.460730842800366,-96.83485491073408,-0.005,-0.6019,-0.2795,-0.748
187,879591.0,852.37719,1.0,8.63,4.93,1.05,-28.0,-35.25,4.5,8.75,-21.31,25.06,0.19432009645127565,0.7582687719653478,-0.15686183918488614,-74.01219332198103,-32.460730842800366,-96.83485491073408,-0.005,-0.6019,-0.2795,-0.748
188,879626.0,852.380227,1.0,8.92,4.5,1.12,-27.56,-33.06,4.5,22.12,-16.5,21.94,0.23654755009885986,0.3286011630090031,-0.2385909892551297,-74.83233783296691,-32.60397465615993,-95.97520098011694,0.004,-0.6076,-0.2807,-0.743
189,879626.0,852.380227,1.0,8.92,4.5,1.12,-27.56,-33.06,4.5,22.12,-16.5,21.94,0.23654755009885986,0.3286011630090031,-0.2385909892551297,-74.83233783296691,-32.60397465615993,-95.97520098011694,0.004,-0.6076,-0.2807,-0.743
190,879663.0,852.4188619999999,1.0,9.11,4.21,1.03,-29.06,-33.06,4.75,11.25,2.75,17.37,0.07340656043069706,0.12231084086552535,-0.2808051565344041,-74.99112748831256,-32.663675023621174,-95.76994903311295,0.0104,-0.6087,-0.2812,-0.7418
191,879663.0,852.4188619999999,1.0,9.11,4.21,1.03,-29.06,-33.06,4.75,11.25,2.75,17.37,0.07340656043069706,0.12231084086552535,-0.2808051565344041,-74.99112748831256,-32.663675023621174,-95.76994903311295,0.0104,-0.6087,-0.2812,-0.7418
192,879697.0,852.4353269999999,1.0,9.23,4.52,1.07,-29.06,-33.06,4.75,7.25,12.25,22.06,0.22260163905473135,0.4318640455249869,-0.5147908856744879,-74.99112748831256,-32.472665833224625,-95.85542117857165,0.0167,-0.6087,-0.2796,-0.7423
193,879697.0,852.4353269999999,1.0,9.23,4.52,1.07,-29.06,-33.06,4.75,7.25,12.25,22.06,0.22260163905473135,0.4318640455249869,-0.5147908856744879,-74.99112748831256,-32.472665833224625,-95.85542117857165,0.0167,-0.6087,-0.2796,-0.7423
194,879730.0,852.4778960000001,1.0,9.42,4.16,0.52,-29.5,-32.25,5.19,14.38,13.75,12.13,-0.4784120378693505,0.41363735149841374,-0.4847262958832221,-74.57286253577672,-32.460730842800366,-96.23234135298,0.0235,-0.6058,-0.2795,-0.7445
195,879730.0,852.4778960000001,1.0,9.42,4.16,0.52,-29.5,-32.25,5.19,14.38,13.75,12.13,-0.4784120378693505,0.41363735149841374,-0.4847262958832221,-74.57286253577672,-32.460730842800366,-96.23234135298,0.0235,-0.6058,-0.2795,-0.7445
196,879767.0,852.532409,1.0,9.55,3.37,0.49,-30.19,-32.0,6.0,15.88,2.19,13.69,-0.7921048145250107,-0.20094833845966464,-0.2993724484253253,-74.48647019368201,-32.74727085632419,-96.11226260939415,0.032,-0.6052,-0.2819,-0.7438
197,879767.0,852.532409,1.0,9.55,3.37,0.49,-30.19,-32.0,6.0,15.88,2.19,13.69,-0.7921048145250107,-0.20094833845966464,-0.2993724484253253,-74.48647019368201,-32.74727085632419,-96.11226260939415,0.032,-0.6052,-0.2819,-0.7438
198,879802.0,852.5389859999999,1.0,9.59,3.23,0.61,-31.25,-30.5,5.56,-11.38,2.88,9.31,-0.7431933923626906,-0.3210805996430155,-0.2986788333473491,-74.44329258880299,-32.61591400140699,-96.19801883290823,0.0354,-0.6049,-0.2808,-0.7443
199,879802.0,852.5389859999999,1.0,9.59,3.23,0.61,-31.25,-30.5,5.56,-11.38,2.88,9.31,-0.7431933923626906,-0.3210805996430155,-0.2986788333473491,-74.44329258880299,-32.61591400140699,-96.19801883290823,0.0354,-0.6049,-0.2808,-0.7443
200,879837.0,852.5997289999999,1.0,9.55,2.99,0.79,-31.25,-30.5,5.56,-13.63,2.06,9.13,-0.6428490665467098,-0.4922985735155296,-0.19890281791839293,-74.68812953802521,-31.85252256097231,-96.36974625847458,0.036000000000000004,-0.6066,-0.2744,-0.7453
201,879837.0,852.5997289999999,1.0,9.55,2.99,0.79,-31.25,-30.5,5.56,-13.63,2.06,9.13,-0.6428490665467098,-0.4922985735155296,-0.19890281791839293,-74.68812953802521,-31.85252256097231,-96.36974625847458,0.036000000000000004,-0.6066,-0.2744,-0.7453
202,879872.0,852.617555,1.0,9.89,3.96,0.9,-32.0,-30.87,5.56,-42.25,5.19,9.38,-0.2990525160631211,0.3012470916125556,-0.8762109362113932,-74.68812953802521,-30.94787313807167,-96.83485491073408,0.0347,-0.6066,-0.2668,-0.748
203,879872.0,852.617555,1.0,9.89,3.96,0.9,-32.0,-30.87,5.56,-42.25,5.19,9.38,-0.2990525160631211,0.3012470916125556,-0.8762109362113932,-74.68812953802521,-30.94787313807167,-96.83485491073408,0.0347,-0.6066,-0.2668,-0.748
204,879908.0,852.670192,1.0,9.88,4.35,0.84,-31.56,-31.25,4.5,-27.69,5.63,3.13,-0.29815378340955306,0.7611693757549154,-0.9903044549771742,-74.63048498986646,-29.85540431723644,-97.51046175424892,0.0294,-0.6062,-0.2576,-0.7519
205,879908.0,852.670192,1.0,9.88,4.35,0.84,-31.56,-31.25,4.5,-27.69,5.63,3.13,-0.29815378340955306,0.7611693757549154,-0.9903044549771742,-74.63048498986646,-29.85540431723644,-97.51046175424892,0.0294,-0.6062,-0.2576,-0.7519
206,879941.0,852.6733449999999,1.0,9.46,4.19,0.43,-31.56,-31.25,4.5,-28.94,-12.25,-18.69,-0.6711848428883911,0.8634196635595774,-0.4907582851587247,-74.70254413195292,-29.428677083635286,-97.70183943099724,0.0217,-0.6067,-0.254,-0.753
207,879941.0,852.6733449999999,1.0,9.46,4.19,0.43,-31.56,-31.25,4.5,-28.94,-12.25,-18.69,-0.6711848428883911,0.8634196635595774,-0.4907582851587247,-74.70254413195292,-29.428677083635286,-97.70183943099724,0.0217,-0.6067,-0.254,-0.753
208,879976.0,852.7194619999999,1.0,8.3,4.11,1.02,-31.25,-32.0,3.56,-30.19,-30.31,-29.94,0.144962609021836,0.7089379650473564,0.5169302623706606,-75.3816021272852,-29.23915478171118,-97.18075578145829,0.0063,-0.6114,-0.2524,-0.75
209,879976.0,852.7194619999999,1.0,8.3,4.11,1.02,-31.25,-32.0,3.56,-30.19,-30.31,-29.94,0.144962609021836,0.7089379650473564,0.5169302623706606,-75.3816021272852,-29.23915478171118,-97.18075578145829,0.0063,-0.6114,-0.2524,-0.75
210,880013.0,852.7740029999999,1.0,7.14,3.7,1.66,-31.56,-32.69,4.0,-10.31,-30.75,-23.0,0.9461516977813764,0.3335775215321659,1.6568817209681423,-75.97652033503749,-29.523469077350697,-96.45571791729996,-0.0018,-0.6155,-0.2548,-0.7458
211,880013.0,852.7740029999999,1.0,7.14,3.7,1.66,-31.56,-32.69,4.0,-10.31,-30.75,-23.0,0.9461516977813764,0.3335775215321659,1.6568817209681423,-75.97652033503749,-29.523469077350697,-96.45571791729996,-0.0018,-0.6155,-0.2548,-0.7458
212,880048.0,852.791895,1.0,6.87,3.23,2.32,-31.56,-32.69,4.0,-10.75,-16.12,-16.37,1.5091413341243332,-0.3207062929411586,2.0200050288134106,-76.4571139486868,-29.606429021936968,-95.94096400729772,-0.0103,-0.6188,-0.2555,-0.7428
213,880048.0,852.791895,1.0,6.87,3.23,2.32,-31.56,-32.69,4.0,-10.75,-16.12,-16.37,1.5091413341243332,-0.3207062929411586,2.0200050288134106,-76.4571139486868,-29.606429021936968,-95.94096400729772,-0.0103,-0.6188,-0.2555,-0.7428
214,880082.0,852.8296449999999,1.0,7.76,4.81,2.02,-29.5,-34.56,4.0,-21.25,5.31,2.13,1.4444564938018634,0.9014244610518294,0.6123539759135959,-76.36961551362315,-29.1444243172648,-96.23234135298,-0.013999999999999999,-0.6182,-0.2516,-0.7445
215,880082.0,852.8296449999999,1.0,7.76,4.81,2.02,-29.5,-34.56,4.0,-21.25,5.31,2.13,1.4444564938018634,0.9014244610518294,0.6123539759135959,-76.36961551362315,-29.1444243172648,-96.23234135298,-0.013999999999999999,-0.6182,-0.2516,-0.7445
216,880117.0,852.887987,1.0,7.78,4.9,1.54,-29.75,-33.5,3.25,8.56,22.44,-0.88,0.9346275320312531,1.1693821164212597,0.6050731328449306,-75.70052817172606,-29.227312357898,-96.8521219757131,-0.0118,-0.6136,-0.2523,-0.7481
217,880117.0,852.887987,1.0,7.78,4.9,1.54,-29.75,-33.5,3.25,8.56,22.44,-0.88,0.9346275320312531,1.1693821164212597,0.6050731328449306,-75.70052817172606,-29.227312357898,-96.8521219757131,-0.0118,-0.6136,-0.2523,-0.7481
218,880154.0,852.894724,1.0,8.49,3.1,0.39,-29.75,-33.06,3.56,37.63,34.06,0.12,-0.9179971148946224,-0.20808053108929192,0.8090845631928456,-74.74579622029077,-30.17572764472251,-97.33679783559198,-0.0043,-0.607,-0.2603,-0.7509
219,880154.0,852.894724,1.0,8.49,3.1,0.39,-29.75,-33.06,3.56,37.63,34.06,0.12,-0.9179971148946224,-0.20808053108929192,0.8090845631928456,-74.74579622029077,-30.17572764472251,-97.33679783559198,-0.0043,-0.607,-0.2603,-0.7509
220,880187.0,852.9101099999999,1.0,9.18,3.45,-0.41,-29.75,-33.06,3.56,32.06,25.94,13.38,-1.7721298705777129,0.2977263664866732,0.1570948427658152,-73.88310198436405,-30.876538373720194,-97.78895026657291,0.0077,-0.601,-0.2662,-0.7535
221,880187.0,852.9101099999999,1.0,9.18,3.45,-0.41,-29.75,-33.06,3.56,32.06,25.94,13.38,-1.7721298705777129,0.2977263664866732,0.1570948427658152,-73.88310198436405,-30.876538373720194,-97.78895026657291,0.0077,-0.601,-0.2662,-0.7535
222,880224.0,852.9877210000001,1.0,10.35,3.06,-0.44,-29.06,-33.06,2.5,29.81,21.31,18.06,-2.2565669407596154,-0.2638084279270283,-0.7535588405118858,-73.46788204137806,-31.388043844509305,-97.91103310726488,0.0183,-0.5981,-0.2705,-0.7542
223,880224.0,852.9877210000001,1.0,10.35,3.06,-0.44,-29.06,-33.06,2.5,29.81,21.31,18.06,-2.2565669407596154,-0.2638084279270283,-0.7535588405118858,-73.46788204137806,-31.388043844509305,-97.91103310726488,0.0183,-0.5981,-0.2705,-0.7542
224,880261.0,852.9981029999999,1.0,10.32,4.49,0.14,-30.06,-33.5,4.5,-4.69,20.44,14.56,-1.2919406427983864,0.8789796484854486,-1.3396670667729589,-72.86851051764684,-31.209539394286914,-98.5412654656515,0.0258,-0.5939,-0.26899999999999996,-0.7578
225,880261.0,852.9981029999999,1.0,10.32,4.49,0.14,-30.06,-33.5,4.5,-4.69,20.44,14.56,-1.2919406427983864,0.8789796484854486,-1.3396670667729589,-72.86851051764684,-31.209539394286914,-98.5412654656515,0.0258,-0.5939,-0.26899999999999996,-0.7578
226,880293.0,853.042795,1.0,9.33,4.94,0.71,-30.06,-33.5,4.5,8.06,11.19,5.0,-0.3582819221821674,1.3399360743696065,-0.6830023002833805,-72.56969194535513,-31.24523405697452,-98.78744465249004,0.0292,-0.5918,-0.2693,-0.7592
227,880293.0,853.042795,1.0,9.33,4.94,0.71,-30.06,-33.5,4.5,8.06,11.19,5.0,-0.3582819221821674,1.3399360743696065,-0.6830023002833805,-72.56969194535513,-31.24523405697452,-98.78744465249004,0.0292,-0.5918,-0.2693,-0.7592
228,880328.0,853.062783,1.0,9.13,4.5,0.52,-30.06,-31.69,3.56,8.13,24.69,-11.63,-0.7513439304176344,1.1011990182230709,-0.2978115403538002,-71.66250640989891,-31.64999191142923,-99.44105363347383,0.0308,-0.5854,-0.2727,-0.7629
229,880328.0,853.062783,1.0,9.13,4.5,0.52,-30.06,-31.69,3.56,8.13,24.69,-11.63,-0.7513439304176344,1.1011990182230709,-0.2978115403538002,-71.66250640989891,-31.64999191142923,-99.44105363347383,0.0308,-0.5854,-0.2727,-0.7629
230,880363.0,853.1030939999999,1.0,9.5,4.81,0.72,-29.5,-32.69,2.75,-22.44,14.5,-21.0,-0.7493029799012694,1.148873790908219,-0.7774481692761732,-70.87295386927123,-31.6738137680446,-100.2240929390682,0.0269,-0.5798,-0.2729,-0.7673
231,880363.0,853.1030939999999,1.0,9.5,4.81,0.72,-29.5,-32.69,2.75,-22.44,14.5,-21.0,-0.7493029799012694,1.148873790908219,-0.7774481692761732,-70.87295386927123,-31.6738137680446,-100.2240929390682,0.0269,-0.5798,-0.2729,-0.7673
232,880400.0,853.1994810000001,1.0,8.21,5.25,2.37,-29.5,-32.69,2.75,-11.5,-27.37,-23.19,1.266588243635229,1.0049120372379794,-0.09129958658101422,-71.25314422862833,-31.82869013670581,-99.8317785547328,0.0167,-0.5825,-0.2742,-0.7651
233,880400.0,853.1994810000001,1.0,8.21,5.25,2.37,-29.5,-32.69,2.75,-11.5,-27.37,-23.19,1.266588243635229,1.0049120372379794,-0.09129958658101422,-71.25314422862833,-31.82869013670581,-99.8317785547328,0.0167,-0.5825,-0.2742,-0.7651
234,880433.0,853.20785,1.0,7.34,4.11,3.55,-31.25,-33.75,3.25,7.75,-14.94,-32.88,2.242302988966788,-0.3827168306534736,0.9638107990869162,-71.64837292642449,-32.52040941662392,-99.0872085325556,0.0101,-0.5853,-0.28,-0.7609
235,880433.0,853.20785,1.0,7.34,4.11,3.55,-31.25,-33.75,3.25,7.75,-14.94,-32.88,2.242302988966788,-0.3827168306534736,0.9638107990869162,-71.64837292642449,-32.52040941662392,-99.0872085325556,0.0101,-0.5853,-0.28,-0.7609
236,880470.0,853.2167919999999,1.0,7.96,4.06,2.46,-28.69,-33.06,4.0,-1.94,17.25,-25.44,0.9288264487063052,-0.2738384297579295,0.5893242521178426,-70.78858910682754,-33.29706335021371,-99.49424158104073,0.0054,-0.5792,-0.2865,-0.7632
237,880470.0,853.2167919999999,1.0,7.96,4.06,2.46,-28.69,-33.06,4.0,-1.94,17.25,-25.44,0.9288264487063052,-0.2738384297579295,0.5893242521178426,-70.78858910682754,-33.29706335021371,-99.49424158104073,0.0054,-0.5792,-0.2865,-0.7632
238,880504.0,853.26032,1.0,7.91,3.75,1.74,-29.5,-33.75,2.75,4.25,12.0,-24.06,0.09357734978638048,-0.2658057901092634,0.8859554888337691,-70.08725387641728,-33.70393852830112,-99.93861474574966,0.002,-0.5742,-0.2899,-0.7657
239,880504.0,853.26032,1.0,7.91,3.75,1.74,-29.5,-33.75,2.75,4.25,12.0,-24.06,0.09357734978638048,-0.2658057901092634,0.8859554888337691,-70.08725387641728,-33.70393852830112,-99.93861474574966,0.002,-0.5742,-0.2899,-0.7657
240,880539.0,853.3149689999999,1.0,7.82,3.9,2.36,-29.5,-33.75,2.75,-5.44,5.75,-18.25,0.6290035178298433,-0.4693920359364587,0.7891101087016459,-69.58415236536644,-34.05132504616154,-100.20622564478924,-0.0029,-0.5706,-0.2928,-0.7672
241,880539.0,853.3149689999999,1.0,7.82,3.9,2.36,-29.5,-33.75,2.75,-5.44,5.75,-18.25,0.6290035178298433,-0.4693920359364587,0.7891101087016459,-69.58415236536644,-34.05132504616154,-100.20622564478924,-0.0029,-0.5706,-0.2928,-0.7672
242,880574.0,853.3318230000001,1.0,8.05,4.34,2.08,-27.56,-34.56,2.75,1.0,14.56,-4.88,0.3769655566279802,-0.057710491548419014,0.4354672321589295,-69.17998997689496,-34.05132504616154,-100.60007982226091,-0.004,-0.5677,-0.2928,-0.7694
243,880574.0,853.3318230000001,1.0,8.05,4.34,2.08,-27.56,-34.56,2.75,1.0,14.56,-4.88,0.3769655566279802,-0.057710491548419014,0.4354672321589295,-69.17998997689496,-34.05132504616154,-100.60007982226091,-0.004,-0.5677,-0.2928,-0.7694
244,880611.0,853.374429,1.0,8.36,4.31,2.2,-26.75,-35.0,2.06,9.69,20.19,4.88,0.2799385067978077,-0.2073145030985355,0.1534456030540401,-68.4993168665412,-34.267106355147284,-101.12175699059144,0.0004,-0.5628,-0.2946,-0.7723
245,880611.0,853.374429,1.0,8.36,4.31,2.2,-26.75,-35.0,2.06,9.69,20.19,4.88,0.2799385067978077,-0.2073145030985355,0.1534456030540401,-68.4993168665412,-34.267106355147284,-101.12175699059144,0.0004,-0.5628,-0.2946,-0.7723
246,880644.0,853.4283720000001,1.0,9.1,4.65,1.18,-26.75,-35.0,2.06,4.81,41.63,13.31,-0.8805330910191439,0.4120032759859291,-0.434434648424558,-67.64197933171232,-34.14721243955784,-101.99163135724292,0.006,-0.5566,-0.2936,-0.7771
247,880644.0,853.4283720000001,1.0,9.1,4.65,1.18,-26.75,-35.0,2.06,4.81,41.63,13.31,-0.8805330910191439,0.4120032759859291,-0.434434648424558,-67.64197933171232,-34.14721243955784,-101.99163135724292,0.006,-0.5566,-0.2936,-0.7771
248,880678.0,853.49306,1.0,9.67,4.61,0.58,-27.19,-34.19,2.75,3.44,40.38,15.0,-1.797346561102045,0.6864519672082585,-0.7477675128715955,-66.33657485995305,-33.991407904492696,-103.29349693464754,0.0155,-0.5471,-0.2923,-0.7842
249,880678.0,853.49306,1.0,9.67,4.61,0.58,-27.19,-34.19,2.75,3.44,40.38,15.0,-1.797346561102045,0.6864519672082585,-0.7477675128715955,-66.33657485995305,-33.991407904492696,-103.29349693464754,0.0155,-0.5471,-0.2923,-0.7842
250,880713.0,853.502292,1.0,9.38,5.13,1.15,-28.0,-34.56,2.5,-2.06,1.56,13.81,-1.0330735472128934,1.036530279380143,-0.8461507597052673,-66.07666398061995,-33.78776111254545,-103.62652170690512,0.0204,-0.5452,-0.2906,-0.7859999999999999
251,880713.0,853.502292,1.0,9.38,5.13,1.15,-28.0,-34.56,2.5,-2.06,1.56,13.81,-1.0330735472128934,1.036530279380143,-0.8461507597052673,-66.07666398061995,-33.78776111254545,-103.62652170690512,0.0204,-0.5452,-0.2906,-0.7859999999999999
252,880750.0,853.5880800000001,1.0,8.88,4.75,1.93,-28.0,-34.56,2.5,2.25,-13.44,3.5,-0.21674780169738828,0.4884544520626495,-0.4332832340948176,-66.56945369468808,-33.73986021591224,-103.20120702389664,0.0211,-0.5488,-0.2902,-0.7837
253,880750.0,853.5880800000001,1.0,8.88,4.75,1.93,-28.0,-34.56,2.5,2.25,-13.44,3.5,-0.21674780169738828,0.4884544520626495,-0.4332832340948176,-66.56945369468808,-33.73986021591224,-103.20120702389664,0.0211,-0.5488,-0.2902,-0.7837
254,880783.0,853.6428289999999,1.0,8.55,4.56,1.93,-28.25,-34.19,0.5,-7.5,-16.94,-0.12,-0.09415509180726643,0.401070796419202,-0.06509133752229522,-66.98117667091634,-33.70393852830112,-102.83298081073578,0.0197,-0.5518,-0.2899,-0.7817
255,880783.0,853.6428289999999,1.0,8.55,4.56,1.93,-28.25,-34.19,0.5,-7.5,-16.94,-0.12,-0.09415509180726643,0.401070796419202,-0.06509133752229522,-66.98117667091634,-33.70393852830112,-102.83298081073578,0.0197,-0.5518,-0.2899,-0.7817
256,880820.0,853.658828,1.0,8.09,4.2,2.56,-28.25,-33.75,0.88,1.5,-20.19,1.81,0.5995473305239291,-0.0907950674955278,0.3581580963055213,-67.71095944217275,-33.62013451285477,-102.2103749169286,0.0178,-0.5571,-0.2892,-0.7783
257,880820.0,853.658828,1.0,8.09,4.2,2.56,-28.25,-33.75,0.88,1.5,-20.19,1.81,0.5995473305239291,-0.0907950674955278,0.3581580963055213,-67.71095944217275,-33.62013451285477,-102.2103749169286,0.0178,-0.5571,-0.2892,-0.7783
258,880855.0,853.661505,1.0,8.03,3.64,2.31,-28.25,-33.75,2.06,-2.63,-1.63,5.63,0.2505118848613741,-0.4102625833498543,0.7052474482914857,-67.94570061664109,-33.536349009079444,-102.0280527784433,0.0185,-0.5588,-0.2885,-0.7773
259,880855.0,853.661505,1.0,8.03,3.64,2.31,-28.25,-33.75,2.06,-2.63,-1.63,5.63,0.2505118848613741,-0.4102625833498543,0.7052474482914857,-67.94570061664109,-33.536349009079444,-102.0280527784433,0.0185,-0.5588,-0.2885,-0.7773
260,880889.0,853.664072,1.0,8.22,4.46,2.15,-28.25,-33.75,2.06,-16.62,2.31,16.94,0.33782406770990137,0.4116229488159764,0.22547358750847304,-68.07010656639203,-32.80699313475501,-102.30167093062992,0.0203,-0.5597,-0.2824,-0.7788
261,880889.0,853.664072,1.0,8.22,4.46,2.15,-28.25,-33.75,2.06,-16.62,2.31,16.94,0.33782406770990137,0.4116229488159764,0.22547358750847304,-68.07010656639203,-32.80699313475501,-102.30167093062992,0.0203,-0.5597,-0.2824,-0.7788
262,880924.0,853.7025769999999,1.0,8.45,4.22,2.11,-28.69,-33.06,2.5,-6.06,5.88,21.87,0.14942015484179882,0.2753078192173144,0.13375595416217578,-68.08393507833873,-32.3533321925502,-102.52115080428871,0.0248,-0.5598,-0.2786,-0.78
263,880924.0,853.7025769999999,1.0,8.45,4.22,2.11,-28.69,-33.06,2.5,-6.06,5.88,21.87,0.14942015484179882,0.2753078192173144,0.13375595416217578,-68.08393507833873,-32.3533321925502,-102.52115080428871,0.0248,-0.5598,-0.2786,-0.78
264,880961.0,853.71876,1.0,8.97,4.65,2.25,-30.19,-33.75,2.06,-15.0,13.0,20.19,0.20107204897459066,0.6128598263967224,-0.5243650936057679,-67.87662551738967,-31.59044340777591,-103.09058276649,0.03,-0.5583,-0.2722,-0.7831
265,880961.0,853.71876,1.0,8.97,4.65,2.25,-30.19,-33.75,2.06,-15.0,13.0,20.19,0.20107204897459066,0.6128598263967224,-0.5243650936057679,-67.87662551738967,-31.59044340777591,-103.09058276649,0.03,-0.5583,-0.2722,-0.7831
266,880996.0,853.756576,1.0,8.61,4.22,1.99,-30.19,-33.75,2.06,-3.81,10.5,13.25,-0.0723429634419459,0.5623487487655185,0.030192033005906893,-67.62818664851126,-31.16195134015795,-103.53389164446942,0.0331,-0.5565,-0.2686,-0.7855
267,880996.0,853.756576,1.0,8.61,4.22,1.99,-30.19,-33.75,2.06,-3.81,10.5,13.25,-0.0723429634419459,0.5623487487655185,0.030192033005906893,-67.62818664851126,-31.16195134015795,-103.53389164446942,0.0331,-0.5565,-0.2686,-0.7855
268,881029.0,853.760818,1.0,8.56,3.58,2.09,-29.5,-32.69,-1.06,0.0,10.56,10.38,-0.21700382700767526,0.06942609003624667,0.2984330611051842,-67.47654041370244,-30.73390559555541,-103.90498509276027,0.0352,-0.5554,-0.265,-0.7875
269,881029.0,853.760818,1.0,8.56,3.58,2.09,-29.5,-32.69,-1.06,0.0,10.56,10.38,-0.21700382700767526,0.06942609003624667,0.2984330611051842,-67.47654041370244,-30.73390559555541,-103.90498509276027,0.0352,-0.5554,-0.265,-0.7875
270,881065.0,853.8174029999999,1.0,8.8,3.76,2.0,-30.19,-33.5,-0.69,-8.5,13.0,17.37,-0.35361693029072216,0.31006581117275706,0.04158910621374723,-67.26996578520281,-30.24694330618832,-104.31496972568995,0.0377,-0.5539,-0.2609,-0.7897
271,881065.0,853.8174029999999,1.0,8.8,3.76,2.0,-30.19,-33.5,-0.69,-8.5,13.0,17.37,-0.35361693029072216,0.31006581117275706,0.04158910621374723,-67.26996578520281,-30.24694330618832,-104.31496972568995,0.0377,-0.5539,-0.2609,-0.7897
272,881100.0,853.882464,1.0,8.65,3.57,1.97,-30.19,-33.5,-0.69,-6.44,4.56,18.44,-0.3794926907604698,0.3277367327422407,0.2569445630940628,-67.2837297114374,-29.59457663056109,-104.61433000481749,0.0417,-0.5539999999999999,-0.2554,-0.7913
273,881100.0,853.882464,1.0,8.65,3.57,1.97,-30.19,-33.5,-0.69,-6.44,4.56,18.44,-0.3794926907604698,0.3277367327422407,0.2569445630940628,-67.2837297114374,-29.59457663056109,-104.61433000481749,0.0417,-0.5539999999999999,-0.2554,-0.7913
274,881135.0,853.923392,1.0,8.46,3.43,2.43,-29.5,-32.25,-0.37,-8.69,-2.44,21.31,0.08840041251622117,0.1272481369104601,0.3611540744956265,-67.55923990117556,-29.132584441928433,-104.55812296797363,0.0447,-0.556,-0.2515,-0.7909999999999999
275,881135.0,853.923392,1.0,8.46,3.43,2.43,-29.5,-32.25,-0.37,-8.69,-2.44,21.31,0.08840041251622117,0.1272481369104601,0.3611540744956265,-67.55923990117556,-29.132584441928433,-104.55812296797363,0.0447,-0.556,-0.2515,-0.7909999999999999
276,881170.0,853.9490089999999,1.0,8.75,3.09,2.27,-31.25,-31.25,1.25,-8.5,3.81,27.62,-0.2245457146708552,0.01892582070848059,0.2561148822522288,-67.71095944217275,-28.434589251931108,-104.67057274431014,0.0526,-0.5571,-0.2456,-0.7916
277,881170.0,853.9490089999999,1.0,8.75,3.09,2.27,-31.25,-31.25,1.25,-8.5,3.81,27.62,-0.2245457146708552,0.01892582070848059,0.2561148822522288,-67.71095944217275,-28.434589251931108,-104.67057274431014,0.0526,-0.5571,-0.2456,-0.7916
278,881205.0,853.9909710000001,1.0,9.57,4.58,3.04,-32.0,-32.25,-0.69,-12.94,-1.0,50.81,0.7768673893987351,1.056131524109265,-1.1516328610632005,-68.20844247958603,-27.395500797517954,-104.59559036293443,0.0599,-0.5607,-0.2368,-0.7912
279,881205.0,853.9909710000001,1.0,9.57,4.58,3.04,-32.0,-32.25,-0.69,-12.94,-1.0,50.81,0.7768673893987351,1.056131524109265,-1.1516328610632005,-68.20844247958603,-27.395500797517954,-104.59559036293443,0.0599,-0.5607,-0.2368,-0.7912
280,881240.0,854.0076220000001,1.0,9.27,5.04,2.18,-32.0,-32.25,-0.69,-9.69,11.63,26.19,0.3694820976246941,2.147071169987837,-0.745149295406538,-68.36074272349704,-26.288094094940124,-104.83951599711521,0.0677,-0.5618,-0.2274,-0.7925
281,881240.0,854.0076220000001,1.0,9.27,5.04,2.18,-32.0,-32.25,-0.69,-9.69,11.63,26.19,0.3694820976246941,2.147071169987837,-0.745149295406538,-68.36074272349704,-26.288094094940124,-104.83951599711521,0.0677,-0.5618,-0.2274,-0.7925
282,881274.0,854.0466859999999,1.0,8.61,3.58,2.07,-32.38,-30.5,-0.69,1.69,7.06,-3.88,-0.047700017517953365,1.014540815121432,0.3091855150555283,-68.12542738094108,-26.29986168212807,-105.04644280430534,0.0688,-0.5601,-0.2275,-0.7936
283,881274.0,854.0466859999999,1.0,8.61,3.58,2.07,-32.38,-30.5,-0.69,1.69,7.06,-3.88,-0.047700017517953365,1.014540815121432,0.3091855150555283,-68.12542738094108,-26.29986168212807,-105.04644280430534,0.0688,-0.5601,-0.2275,-0.7936
284,881311.0,854.06845,1.0,8.8,3.11,1.9,-33.88,-30.19,-0.69,-6.19,4.5,-0.19,-0.4663996520618383,0.6546570610985887,0.31581255028512345,-67.95951900274443,-26.205728877683853,-105.25385814101205,0.0681,-0.5589,-0.2267,-0.7947
285,881311.0,854.06845,1.0,8.8,3.11,1.9,-33.88,-30.19,-0.69,-6.19,4.5,-0.19,-0.4663996520618383,0.6546570610985887,0.31581255028512345,-67.95951900274443,-26.205728877683853,-105.25385814101205,0.0681,-0.5589,-0.2267,-0.7947
286,881344.0,854.071528,1.0,8.37,3.64,2.67,-33.88,-30.19,-0.69,-6.38,-22.94,-7.06,0.5912454519556687,0.8261130467763074,0.3513146781043428,-68.41615870880295,-26.076325639174165,-104.93351333870716,0.0648,-0.5622,-0.2256,-0.7929999999999999
287,881344.0,854.071528,1.0,8.37,3.64,2.67,-33.88,-30.19,-0.69,-6.38,-22.94,-7.06,0.5912454519556687,0.8261130467763074,0.3513146781043428,-68.41615870880295,-26.076325639174165,-104.93351333870716,0.0648,-0.5622,-0.2256,-0.7929999999999999
