TIME,ELAPSED_SECONDS,PSTATE,acc_x,acc_y,acc_z,mag_x,mag_y,mag_z,gyr_x,gyr_y,gyr_z,lin_x,lin_y,lin_z,eul_x,eul_y,eul_z,qua_w,qua_x,qua_y,qua_z
814571.0,762.421736,1.0,9.28,2.5,-2.84,-33.0,-25.25,14.06,-1.94,-0.31,0.75,-0.08310576490146684,0.17870830383320824,-0.21308835855913344,-102.55778172371149,-19.145524872704485,-74.12703326079642,-0.0219,-0.7802,-0.1663,-0.6027
814608.0,762.5058019999999,1.0,8.97,2.08,-2.89,-33.38,-24.87,13.69,3.63,2.75,1.63,-0.2925799881979536,-0.11739119010875887,0.1609247157618583,-102.55778172371149,-19.203632237851558,-74.11267351750108,-0.0213,-0.7802,-0.1668,-0.6026
814645.0,762.512007,1.0,9.23,1.94,-2.86,-33.69,-25.25,13.69,0.69,2.44,1.81,-0.2592271191114275,-0.3093765496814089,-0.040846506789147696,-102.4479327130834,-19.145524872704485,-74.24196019139418,-0.0206,-0.7796,-0.1663,-0.6035
814678.0,762.529602,1.0,9.26,2.41,-2.53,-33.69,-25.25,13.69,-13.69,-1.56,0.31,0.16306128023919764,0.07086223014359172,-0.08905561219490997,-102.48453447446366,-18.91314493847748,-74.27070555325552,-0.0222,-0.7798,-0.1643,-0.6037
814712.0,762.5717980000003,1.0,9.15,2.06,-2.82,-34.06,-25.25,14.88,4.44,2.63,2.88,-0.22515531351525767,-0.17472588892918306,0.01699852772920174,-102.4479327130834,-18.843446306043926,-74.3282126664446,-0.0223,-0.7796,-0.1637,-0.6041
814749.0,762.6277809999997,1.0,9.18,1.78,-2.72,-34.5,-24.5,14.06,-6.63,-4.63,3.5,-0.17677603180574955,-0.4519928391683935,0.08020909348545048,-102.55778172371149,-18.634392500869453,-74.28508028194621,-0.0228,-0.7802,-0.1619,-0.6038
814784.0,762.646023,1.0,9.14,1.58,-2.68,-34.5,-24.5,14.06,-15.69,-3.75,11.19,-0.1831745246082092,-0.618567059808478,0.1732590141604593,-102.70445172212514,-18.216471799125177,-74.27070555325552,-0.0243,-0.7809999999999999,-0.1583,-0.6037
814819.0,762.6828,1.0,10.04,1.25,-2.77,-33.69,-25.25,12.88,1.19,1.12,10.5,-0.1557038802670887,-1.1330101300992692,-0.6206720122312408,-102.7228019769725,-17.578451378167774,-74.42890280024764,-0.0266,-0.7811,-0.1528,-0.6048
814854.0,762.739679,1.0,9.83,0.87,-2.51,-34.06,-24.87,12.88,-30.31,-9.38,17.0,0.012212000996708357,-1.407303654203463,-0.27825194755988925,-103.09058276649,-16.524012627926176,-74.35697442762857,-0.0293,-0.7831,-0.1437,-0.6043
814891.0,762.796193,1.0,9.48,1.26,-2.74,-34.06,-24.19,12.88,-60.44,-13.5,26.62,-0.1801131636376409,-0.9032268108772372,-0.09876975770824893,-103.51537703631287,-15.135679738336453,-74.27070555325552,-0.0375,-0.7854,-0.1317,-0.6037
814923.0,762.8028429999997,1.0,9.15,2.02,-2.76,-34.06,-24.19,12.88,-56.5,-16.56,14.0,-0.15292390432355826,-0.08250304143781173,0.03985382481338107,-104.01661275346248,-13.011162702254634,-74.14139436333637,-0.0509,-0.7881,-0.1133,-0.6028
814960.0,762.821142,1.0,9.59,1.82,-3.18,-34.88,-23.75,11.69,-66.5,-15.31,25.31,-0.4855281714147322,-0.2874582001222654,-0.4439368211505421,-104.27762048457956,-11.086833319532733,-74.21322028612755,-0.0584,-0.7895,-0.0966,-0.6033
814997.0,762.865875,1.0,9.06,3.84,-2.05,-35.19,-23.75,11.19,-82.87,-16.12,3.69,0.5385419884374059,1.6966775805967254,-0.08592083442875165,-104.61433000481749,-9.050681021579294,-73.9117794904022,-0.0786,-0.7913,-0.0789,-0.6012
815032.0,762.886705,1.0,9.14,1.47,-2.95,-35.19,-23.75,11.19,0.25,5.94,17.31,-0.36230935452977703,-0.6671857255216307,0.12023708606326088,-104.74561874233255,-8.544988083393589,-73.78277317194505,-0.0822,-0.792,-0.0745,-0.6003
815065.0,762.932185,1.0,8.99,2.85,-2.98,-35.19,-23.5,11.19,-55.06,-19.5,-3.06,-0.4186103084964857,0.6567390687514774,-0.05319072920024048,-104.93351333870716,-7.396290017779932,-73.55369726095881,-0.0924,-0.7929999999999999,-0.0645,-0.5987
815101.0,762.951993,1.0,7.8,4.11,-3.09,-36.0,-23.75,9.56,-15.88,-15.31,-10.5,-0.851655719879745,2.0212056218347416,0.7253719859174161,-105.23498190512574,-6.982946893042854,-73.09656835470321,-0.1016,-0.7946,-0.0609,-0.5955
815138.0,763.007698,1.0,8.26,2.29,-3.29,-34.5,-24.19,10.06,5.19,8.19,7.06,-0.8712534545338086,0.19504518433974893,0.6688890710837274,-105.19724163612636,-7.292945412680463,-73.22499880394925,-0.0961,-0.7944,-0.0636,-0.5964
815171.0,763.0967860000003,1.0,8.23,3.51,-2.92,-34.5,-24.19,10.06,5.69,0.12,-12.94,-0.5406722607370245,1.3677027031594091,0.5106044524437685,-105.15951761656832,-7.465189762811247,-73.19644946904657,-0.0983,-0.7942,-0.0651,-0.5962
815208.0,763.108961,1.0,8.73,3.42,-2.68,-35.19,-23.75,9.5,44.63,10.44,-8.06,-0.17740472959608453,1.1995023850375115,0.13083367318776595,-104.83951599711521,-8.338162304521468,-73.52508685379959,-0.0921,-0.7925,-0.0727,-0.5985
815243.0,763.1545480000003,1.0,9.44,1.43,-2.84,-35.19,-24.87,10.0,33.13,19.31,9.75,-0.20269033026084088,-0.8115651219264963,-0.1192947249564682,-104.55812296797363,-9.050681021579294,-73.9261202682898,-0.0818,-0.7909999999999999,-0.0789,-0.6013
815278.0,763.1786480000003,1.0,9.34,2.36,-2.75,-35.19,-24.87,10.0,12.94,-3.06,-14.06,-0.12185030584560515,0.07872874098312742,-0.21066771924543384,-104.40841146453569,-9.660046657878476,-73.9834968931097,-0.0804,-0.7902,-0.0842,-0.6017
815312.0,763.219363,1.0,9.11,1.44,-2.95,-35.56,-24.19,10.0,45.5,-13.88,0.31,-0.33635377024070245,-0.7487300763396976,0.1581024712768695,-104.78316565832016,-10.269686237501055,-73.58231300844331,-0.0753,-0.7922,-0.0895,-0.5989
815349.0,763.2259650000003,1.0,9.95,1.37,-3.37,-34.5,-24.87,9.06,-6.13,-3.38,-2.19,-0.4797430566556974,-0.9149433738241208,-0.7370222835208633,-105.0276111512958,-10.48830635783265,-73.42499241497191,-0.0681,-0.7935,-0.0914,-0.5978
815382.0,763.242935,1.0,10.54,2.77,-3.43,-34.5,-24.87,9.06,0.69,-80.62,-4.0,-0.020901043370560042,0.23631622262756746,-1.6158329957986408,-106.39399903423677,-10.465291924669183,-72.00208892273058,-0.07200000000000001,-0.8007,-0.0912,-0.5878
815417.0,763.297281,1.0,8.38,1.5,-3.37,-34.5,-23.37,12.0,25.75,-134.69,12.81,0.13870363260192015,-0.4463016730548279,0.6626423382068705,-111.46137512854489,-10.304202691653053,-66.98117667091634,-0.0674,-0.8264,-0.0898,-0.5518
815452.0,763.30468,1.0,9.32,1.38,-5.34,-34.5,-24.5,14.0,-8.06,-99.94,12.88,-0.7663639498141841,-0.7776831775516355,-0.9678706469605132,-114.51291967073887,-9.947577287046574,-63.97037455615307,-0.0666,-0.8411,-0.0867,-0.5297
815489.0,763.347578,1.0,8.72,2.39,-5.28,-31.5,-22.69,18.06,-10.19,-222.69,8.44,0.24792166947955696,0.2539895808785229,-0.6577144880426289,-120.94052444578816,-8.809306149715164,-57.51453883608689,-0.0743,-0.8701,-0.0768,-0.4811
815523.0,763.4101820000003,1.0,6.75,1.54,-5.78,-31.5,-22.69,18.06,-0.75,-197.5,14.81,-0.03638850512124783,-0.23253351134987466,0.7907138842772206,-128.81789729217328,-7.694875241065197,-49.618672793409424,-0.0776,-0.9019,-0.0671,-0.4196
815560.0,763.427931,1.0,5.83,1.69,-5.74,-29.69,-23.75,24.0,3.13,-83.62,13.0,-0.10127135032392738,0.1183131598063938,1.4539051751044028,-132.15647345628565,-7.488156943849511,-46.29505700445262,-0.0754,-0.9141,-0.0653,-0.3931
815595.0,763.468293,1.0,6.99,1.75,-7.0,-26.87,-23.0,26.37,-0.5,2.5,2.81,-0.1405429380285619,-0.12156595678254167,-0.2376553219584032,-132.63918862221735,-7.407773121999347,-45.821900740364754,-0.0746,-0.9158,-0.0646,-0.3893
815630.0,763.4756480000003,1.0,6.9,1.76,-6.95,-26.87,-23.0,26.37,0.25,-8.81,0.25,-0.13268527257687296,-0.09862145298689627,-0.14235841428189744,-132.81066902216784,-7.384806987935718,-45.62292436209528,-0.075,-0.9164,-0.0644,-0.3877
815663.0,763.541329,1.0,7.03,1.73,-7.23,-25.69,-22.25,24.69,0.88,-5.06,0.81,-0.2205659636148932,-0.1677163448950124,-0.4212491920799515,-132.98273895587266,-7.3733240323499585,-45.486212391208106,-0.0746,-0.917,-0.0643,-0.3866
815699.0,763.558007,1.0,6.69,1.48,-6.89,-26.25,-23.0,26.87,3.13,1.06,0.44,-0.19668720968881745,-0.3194378987560197,0.09697062473825824,-133.15540493778332,-7.407773121999347,-45.31231413333559,-0.0742,-0.9176,-0.0646,-0.3852
815734.0,763.600575,1.0,6.96,1.73,-7.07,-26.25,-23.0,26.87,-2.44,4.19,2.81,-0.14294876478027516,-0.1284483734665547,-0.2622360687765077,-133.04022773049576,-7.338875609975954,-45.424093194951936,-0.07400000000000001,-0.9172,-0.064,-0.3861
815769.0,763.662636,1.0,6.81,1.8,-7.1,-25.19,-22.25,27.19,2.88,0.75,-1.81,-0.27106853995078195,-0.03272997155187385,-0.19092723629135835,-133.01147504963205,-7.407773121999347,-45.47378742330781,-0.0736,-0.9171,-0.0646,-0.3865
815802.0,763.680883,1.0,6.7,1.55,-7.01,-26.25,-22.69,26.87,3.56,-1.37,1.44,-0.28387328685522656,-0.2407128804312595,-0.0063043597330807435,-133.0977829759083,-7.442222882076424,-45.39924946360132,-0.0729,-0.9174,-0.0649,-0.3859
815839.0,763.684069,1.0,6.68,1.63,-6.84,-26.69,-21.5,26.87,0.12,6.69,1.31,-0.19811993210720324,-0.13816652443590216,0.11095206204694463,-132.95401941873996,-7.384806987935718,-45.56077406660365,-0.0728,-0.9169,-0.0644,-0.3872
815874.0,763.73578,1.0,6.83,1.77,-6.95,-26.69,-21.5,26.87,1.06,0.12,-3.19,-0.1820156962057832,-0.03791124795347955,-0.0953565150257969,-132.83930623013015,-7.4192563007107175,-45.66022134435174,-0.0728,-0.9165,-0.0647,-0.38799999999999996
815910.0,763.777771,1.0,6.84,1.38,-7.08,-24.75,-23.0,25.56,1.37,3.44,3.81,-0.29528367095560226,-0.4102984495684109,-0.12113236747506305,-132.83930623013015,-7.442222882076424,-45.685088838323495,-0.0715,-0.9165,-0.0649,-0.3882
815945.0,763.831054,1.0,7.02,1.92,-6.73,-25.56,-22.25,27.69,-6.19,4.88,1.31,0.0892475685201686,0.1141744296792182,-0.10489372795281147,-132.69628364910096,-7.327392950256605,-45.821900740364754,-0.0721,-0.9159999999999999,-0.0639,-0.3893
815978.0,763.847534,1.0,7.1,1.83,-7.18,-25.56,-22.25,27.69,0.63,3.5,0.06,-0.20847335081557528,-0.022696383676020115,-0.4533365368414515,-132.58215838722379,-7.4192563007107175,-45.95878171202678,-0.0717,-0.9156,-0.0647,-0.3904
816013.0,763.893051,1.0,6.77,2.12,-6.78,-26.69,-23.0,26.37,-1.31,0.44,4.75,-0.12488695592687285,0.3657680070193921,0.0012271629531248607,-132.58215838722379,-7.396290017779932,-45.94633512532466,-0.071,-0.9156,-0.0645,-0.3903
816050.0,763.910096,1.0,6.83,1.69,-6.89,-25.56,-21.87,27.19,2.69,8.19,-0.94,-0.2286103454409736,-0.08139310851178405,-0.03805479353465024,-132.38305943270692,-7.396290017779932,-46.170461586302004,-0.0714,-0.9149,-0.0645,-0.3921
816084.0,763.948751,1.0,7.07,1.5,-7.09,-25.56,-21.87,27.19,1.37,8.38,0.56,-0.2671530428184369,-0.3173752203741623,-0.30922377447965843,-132.12822120462246,-7.407773121999347,-46.43217889831124,-0.071,-0.914,-0.0646,-0.3942
816119.0,764.008132,1.0,7.13,1.83,-6.96,-26.25,-22.69,27.69,-0.63,-5.0,-0.31,-0.10831185791817803,0.011638836525585838,-0.3232825308176945,-132.15647345628565,-7.384806987935718,-46.41971036641082,-0.0708,-0.9141,-0.0644,-0.3941
816154.0,764.0265019999997,1.0,6.52,1.69,-6.51,-26.69,-21.87,27.19,1.06,-2.5,-5.19,-0.1839613645259097,0.0031102649271166354,0.4411415491675612,-132.24132459051677,-7.488156943849511,-46.29505700445262,-0.0711,-0.9144,-0.0653,-0.3931
816189.0,764.0678519999999,1.0,6.8,0.98,-6.95,-25.56,-21.87,27.19,4.38,7.31,4.88,-0.3956895116353073,-0.7587944974853289,0.07163275702770733,-132.01536875371886,-7.740816022621952,-46.519474929129665,-0.0693,-0.9136,-0.0675,-0.3949
816224.0,764.074988,1.0,7.16,1.91,-6.84,-25.56,-21.87,27.19,-3.0,1.69,3.5,-0.04770769275534289,0.09662152246056332,-0.27738134948763005,-131.84655671079122,-7.5111244261256385,-46.731598777829646,-0.0703,-0.9129999999999999,-0.0655,-0.3966
816261.0,764.139379,1.0,6.77,1.6,-6.85,-26.69,-21.5,26.87,2.44,4.88,-2.94,-0.3593863145046117,-0.13891227759481262,0.051295323921831226,-131.70630400699523,-7.5915129998336095,-46.85645674888645,-0.07,-0.9125,-0.0662,-0.3976
816295.0,764.157633,1.0,7.14,1.78,-6.85,-27.06,-21.87,26.06,1.12,3.88,0.56,-0.12640556174302334,-0.02479076965420524,-0.24590723941427586,-131.53850453910292,-7.5915129998336095,-47.01886031964005,-0.0699,-0.9119,-0.0662,-0.3989
816330.0,764.2030900000003,1.0,6.97,1.64,-6.81,-27.06,-21.87,26.06,0.56,1.88,-1.06,-0.2271909289429237,-0.12799799616985108,-0.0715381331943945,-131.48269259246572,-7.602997386301143,-47.05635227559625,-0.0698,-0.9117,-0.0663,-0.3992
816363.0,764.2209849999997,1.0,6.95,1.56,-6.83,-26.25,-23.0,25.19,1.0,3.5,-1.25,-0.27016683438090244,-0.20029122277726985,-0.05600143395420787,-131.45480922787246,-7.602997386301143,-47.11885074218369,-0.0696,-0.9116,-0.0663,-0.3997
816400.0,764.280905,1.0,7.24,1.97,-6.73,-27.06,-22.69,26.87,-5.63,5.19,3.69,-0.0014528608130661286,0.1695883021332214,-0.2711790170539743,-131.31561745343842,-7.5340922105741654,-47.26890777482772,-0.0693,-0.9111,-0.0657,-0.4009
816435.0,764.32234,1.0,7.09,1.87,-6.78,-27.06,-22.69,26.87,0.75,1.69,-1.44,-0.15708907834796393,0.08801475897842548,-0.17838762755382653,-131.23228149999522,-7.5455762164051485,-47.33145690842096,-0.0696,-0.9108,-0.0658,-0.4014
816467.0,764.338305,1.0,6.86,1.66,-6.71,-27.0,-23.0,26.37,4.81,0.63,-2.69,-0.2747854689015985,-0.07778576099313461,0.07229114481763865,-131.23228149999522,-7.660420468145224,-47.35648075084825,-0.0695,-0.9108,-0.0668,-0.4016
816504.0,764.384897,1.0,7.04,1.71,-6.73,-27.06,-21.87,26.06,-2.81,0.75,3.13,-0.1756517055853523,-0.05393471347783785,-0.07994888561314363,-131.1767984012427,-7.568544455864768,-47.40653562717492,-0.0694,-0.9106,-0.066,-0.402
816539.0,764.403137,1.0,7.09,1.35,-6.72,-26.69,-23.0,26.37,-2.5,6.19,0.81,-0.17291593342520753,-0.41306703147559537,-0.04466847558871834,-131.09368455172458,-7.568544455864768,-47.49415477267991,-0.0693,-0.9103,-0.066,-0.4027
816574.0,764.4429759999997,1.0,7.22,1.6,-6.92,-26.69,-23.0,26.37,1.75,-1.75,-0.37,-0.2340700147801411,-0.20380674248802105,-0.3165152184431559,-131.01070305716067,-7.557060298129735,-47.58180340274293,-0.0693,-0.91,-0.0659,-0.4034
816611.0,764.459404,1.0,6.94,1.65,-6.74,-27.37,-21.87,26.06,-2.31,0.19,0.12,-0.27370636559312617,-0.09595223671276976,-0.0030175781447194807,-131.0660093808112,-7.522608280519941,-47.519194226240366,-0.0696,-0.9102,-0.0656,-0.4029
816644.0,764.500852,1.0,7.12,1.98,-6.74,-26.69,-22.25,26.06,3.13,-0.31,-3.56,-0.1342094485089455,0.18976311394444245,-0.192768872340384,-131.0660093808112,-7.568544455864768,-47.53171485619927,-0.0698,-0.9102,-0.066,-0.40299999999999997
816678.0,764.521826,1.0,7.17,2.75,-6.93,-26.69,-22.25,26.06,11.75,-25.94,-15.38,-0.07923676083718173,0.881813990538961,-0.4992912778174592,-131.56643317341502,-7.959051879828772,-46.93139982661226,-0.0703,-0.912,-0.0694,-0.3982
816713.0,764.611233,1.0,5.93,2.95,-6.42,-27.06,-22.25,26.06,16.87,-10.75,-22.69,-0.3993596772109438,1.325670384729617,0.687060651829281,-132.09998463629478,-8.61393617408195,-46.2701332926198,-0.0688,-0.9139,-0.0751,-0.3929
816750.0,764.622679,1.0,6.65,2.55,-6.6,-26.25,-22.69,26.87,40.63,-25.0,-33.19,0.07764942796024399,0.7910339494073242,0.12918980337699534,-132.49673400768697,-10.246675787285364,-45.64778844933024,-0.062,-0.9153,-0.0893,-0.3879
816785.0,764.669404,1.0,6.88,1.58,-6.78,-26.25,-22.69,26.87,52.19,-17.31,-37.75,0.16199479579252932,-0.182860508451162,0.02199263652604344,-133.0977829759083,-11.754779974813852,-44.75409801174842,-0.0541,-0.9174,-0.1024,-0.3807
816820.0,764.686567,1.0,7.31,0.81,-7.8,-26.25,-22.25,28.06,39.56,-11.63,-34.0,-0.29630695322364675,-1.0266019634317956,-0.8606125634765984,-133.12658560187518,-13.714952301602876,-44.23410474921271,-0.0459,-0.9175,-0.1194,-0.3765
816855.0,764.725361,1.0,6.74,0.61,-7.33,-24.37,-21.87,28.5,15.75,-21.75,-20.12,-0.2794780608448349,-1.096175114391767,-0.10540791609868272,-133.58972143720712,-14.580983303227079,-43.505251180584146,-0.0434,-0.9191,-0.1269,-0.3706
816891.0,764.787417,1.0,7.04,0.66,-7.51,-23.69,-22.69,29.25,10.5,-17.5,-11.38,-0.08477471831145507,-1.1725171002340466,-0.4410481267401671,-133.93995871664828,-15.309094936163461,-42.86440291129757,-0.0428,-0.9203,-0.1332,-0.3654
816926.0,764.795029,1.0,6.79,1.5,-7.68,-23.69,-22.69,29.25,-9.75,-24.31,-0.25,-0.029723577723262413,-0.3205886133139191,-0.5486790362953116,-134.8267795347168,-15.239724647140953,-41.93029563540066,-0.0435,-0.9233,-0.1326,-0.3578
816963.0,764.846226,1.0,6.88,0.88,-8.12,-21.37,-22.25,30.87,-2.44,-16.06,10.19,-0.2875880481436254,-0.9587801052415604,-0.8254351117905365,-135.336709981557,-15.366907820940328,-41.341837382049434,-0.0437,-0.925,-0.1337,-0.353
816998.0,764.911888,1.0,6.85,1.8,-7.92,-22.25,-23.5,30.56,-13.13,-61.69,10.38,0.333136590572539,-0.14916566178586246,-0.811997259296529,-137.1824741414482,-14.61564163128423,-39.58320288872564,-0.0486,-0.9309999999999999,-0.1272,-0.3386
817033.0,764.929119,1.0,5.52,1.45,-7.67,-22.25,-23.5,30.56,-11.13,-92.37,12.25,-0.17489991239361008,-0.2281414116369851,0.2505440191654955,-139.5691405181039,-14.038175786909196,-37.192829183479816,-0.0535,-0.9384,-0.1222,-0.3189
817068.0,764.949658,1.0,4.97,1.9,-7.46,-21.19,-22.69,29.69,-12.88,-70.06,15.19,0.04780364329172167,0.26898714962997183,0.6476183522207446,-142.45363711540872,-13.091899903813276,-34.351055102879386,-0.0585,-0.9468,-0.114,-0.2953
817102.0,764.9765769999997,1.0,5.24,2.44,-8.56,-19.19,-22.25,31.69,-18.62,-99.94,11.44,0.14093199747107155,0.5808857639771677,-0.5048731610707016,-144.87941908090357,-12.330917071488786,-31.90019165418321,-0.0633,-0.9534,-0.1074,-0.2748
817139.0,764.994237,1.0,3.8,1.12,-7.48,-16.56,-23.0,33.75,-18.06,-43.88,12.44,-0.2790594915593773,-0.3992805234443532,1.3563540960822758,-147.52054122823532,-11.823900394126868,-29.014203146635065,-0.0688,-0.9601,-0.10300000000000001,-0.2505
817174.0,765.0409179999997,1.0,4.45,1.13,-8.61,-16.56,-23.0,33.75,-3.81,15.44,19.0,-0.30740443979787285,-0.6171728171486809,0.07340284274742181,-147.56154217602332,-11.3631779010396,-29.168105022171197,-0.0691,-0.9602,-0.099,-0.2518
817211.0,765.057978,1.0,4.77,1.85,-8.75,-15.19,-22.69,34.19,-9.19,-9.94,11.38,0.006466400473394904,-0.009911941769772836,-0.3293136906944021,-147.8086150107539,-10.67243717618693,-29.12074488446725,-0.0711,-0.9608,-0.09300000000000001,-0.2514
817246.0,765.099992,1.0,4.33,0.71,-8.2,-17.0,-22.25,33.0,-0.88,5.25,21.12,-0.26083966833345273,-0.953916671725466,0.5592176184776605,-147.97436096195162,-9.970582425862727,-29.15626451062837,-0.0714,-0.9612,-0.0869,-0.2517
817281.0,765.160132,1.0,4.8,2.87,-8.32,-17.0,-22.25,33.0,-2.0,40.56,7.88,0.10790052131480607,1.0945200288709491,-0.15777087548997493,-146.951724947316,-9.142643881088318,-30.531925921642927,-0.0717,-0.9587,-0.0797,-0.2633
817315.0,765.216625,1.0,5.4,1.72,-9.17,-16.19,-22.25,33.38,-2.56,39.31,11.13,-0.2297448564797056,-0.15181874956759422,-0.9697811517403974,-145.68599243347148,-8.92424161449454,-32.01938920775377,-0.0695,-0.9555,-0.0778,-0.2758
817352.0,765.223936,1.0,5.11,1.27,-8.38,-16.19,-22.69,32.56,-13.0,25.75,22.5,-0.22910925769444776,-0.4472053468320325,-0.07752504528342463,-145.10802458844395,-8.453062112264227,-32.78310312481338,-0.07,-0.9540000000000001,-0.0737,-0.2822
817387.0,765.283661,1.0,4.65,2.86,-7.29,-16.19,-22.69,32.56,-12.56,55.44,11.0,-0.09190921974992874,1.3022082691854522,0.7932152318891195,-143.86802831777294,-7.809729533725751,-34.18317656247093,-0.0718,-0.9507,-0.0681,-0.2939
817422.0,765.287407,1.0,5.83,2.17,-8.04,-18.19,-22.69,32.56,8.38,80.31,-1.19,-0.11760576181008,0.4367590588413578,-0.34888102547124866,-141.02009032147248,-8.292204739238791,-37.14447095017847,-0.0671,-0.9427,-0.0723,-0.3185
817457.0,765.3421490000003,1.0,6.09,1.95,-7.82,-20.75,-21.87,31.75,4.0,33.75,-0.81,-0.0857417814687531,0.24098753889152835,-0.2917445928553217,-139.43670037409964,-8.544988083393589,-38.82902123966127,-0.0645,-0.938,-0.0745,-0.3324
817491.0,765.364659,1.0,5.82,1.28,-6.82,-22.25,-21.5,30.56,10.25,90.37,-12.81,-0.03273642729785292,-0.2742109078975091,0.754195266375655,-137.4343266309111,-9.073671186517632,-40.80341749737214,-0.0624,-0.9318,-0.0791,-0.3486
817526.0,765.403468,1.0,6.96,1.35,-7.67,-22.25,-21.5,30.56,6.19,101.0,-5.94,-0.4313732602292709,-0.3965935079360015,-0.6216591007038268,-133.64792062272215,-9.706047414595153,-44.65497713304196,-0.0582,-0.9193,-0.0846,-0.3799
817563.0,765.416904,1.0,7.16,2.07,-7.04,-23.37,-22.69,28.87,2.31,55.44,-11.63,-0.09850323030283252,0.3056156721901269,-0.4407397249266261,-131.73432389141507,-10.039600263356236,-46.556896262554226,-0.0574,-0.9126,-0.0875,-0.3952
817600.0,765.479882,1.0,6.92,0.74,-6.83,-26.37,-23.0,27.69,14.25,43.44,-8.56,-0.5653828767046909,-0.918603878413852,0.11544733380360304,-129.9166096140095,-10.48830635783265,-48.34685890896744,-0.0558,-0.9059999999999999,-0.0914,-0.4095
817633.0,765.520264,1.0,7.07,1.68,-5.9,-26.37,-23.0,27.69,2.88,94.5,-12.25,-0.02673395754603789,0.00036161019379055137,0.4462768682946177,-127.6108060653337,-10.856595634361932,-50.64336935396991,-0.0551,-0.8973,-0.0946,-0.4277
817668.0,765.536337,1.0,7.95,1.52,-6.44,-26.25,-22.25,25.19,6.13,88.94,-15.06,-0.5536734187842421,-0.3339407499847853,-0.5165485993117134,-124.06164029835844,-11.466824127666605,-54.14273717736637,-0.0536,-0.8832,-0.0999,-0.4551
817704.0,765.582879,1.0,7.85,2.07,-5.32,-28.56,-22.25,24.37,-7.94,81.5,-12.25,-0.009912526279983859,0.21673049477614115,0.10290177395575206,-121.78298489723478,-11.697182904814724,-56.40640189813039,-0.0546,-0.8737,-0.1019,-0.4726
817739.0,765.599791,1.0,7.67,2.11,-4.66,-28.56,-22.25,24.37,1.0,104.94,-27.62,-0.16166910050470198,0.2412763181049412,0.5918657464070964,-117.82949322355816,-12.400074265032766,-60.2250699460729,-0.0569,-0.8564,-0.10800000000000001,-0.5017
817774.0,765.643199,1.0,9.42,1.87,-5.24,-30.06,-23.75,20.69,0.63,124.44,-9.0,-0.5618620099687317,-0.3767962016811477,-1.11274722256465,-114.11147553645674,-13.06883146764636,-63.86232469664676,-0.0543,-0.8392,-0.1138,-0.5289
817811.0,765.7067969999997,1.0,8.72,2.29,-3.91,-31.19,-24.5,19.87,2.19,40.94,-10.75,-0.004895303494500902,0.15356409638445512,-0.019182997985733863,-111.68555504305651,-13.414914406298776,-66.2407734880853,-0.0546,-0.8275,-0.1168,-0.5464
817846.0,765.724015,1.0,8.39,2.11,-3.49,-32.25,-24.5,16.56,8.25,82.5,-7.19,-0.07948185486794103,0.06318687021658033,0.4785210314351325,-109.71042658552565,-13.761120312162008,-68.19460380315536,-0.0529,-0.8177,-0.1198,-0.5606
817879.0,765.802458,1.0,9.25,2.18,-3.71,-32.25,-24.5,16.56,-2.5,79.19,-6.19,-0.5173968093319825,-0.03928908097957051,-0.3820573228064053,-106.62384790830879,-14.142092768246474,-71.25314422862833,-0.0507,-0.8019,-0.1231,-0.5825
817915.0,765.807914,1.0,9.14,2.49,-3.09,-32.69,-23.75,16.19,2.63,33.19,-6.63,-0.13870846521164867,0.2396530004346662,-0.1538282215042912,-105.31051129197044,-14.373061379793725,-72.51283902222842,-0.0508,-0.795,-0.1251,-0.5914
817952.0,765.818123,1.0,8.14,2.22,-2.28,-33.75,-25.25,13.69,8.81,59.31,-8.38,0.10603402592483584,0.1943388107196405,1.069522942895114,-103.73780360335891,-14.835175731606341,-74.01219332198103,-0.048,-0.7866,-0.1291,-0.6019
817985.0,765.861846,1.0,10.4,2.38,-3.03,-33.75,-25.25,13.69,2.31,104.69,-5.94,-0.560503672628331,-0.13772866678408824,-1.269096767027314,-100.97755856330471,-15.274409087771584,-76.71992580426844,-0.045,-0.7715,-0.1329,-0.6206
818020.0,765.8825559999997,1.0,10.02,2.72,-2.71,-34.06,-25.25,12.5,0.12,28.37,-9.88,-0.5998204033566922,0.248801586534517,-0.9041489083100132,-99.17554944715711,-15.540370148995088,-78.45482596144389,-0.0453,-0.7614,-0.1352,-0.6324
818055.0,765.9206849999997,1.0,8.71,2.74,-1.9,-34.88,-25.25,10.06,7.19,4.56,-3.88,-0.018626172906267016,0.5211000115393232,0.4948398728734506,-99.14020348928251,-15.725436142775802,-78.45482596144389,-0.0446,-0.7612,-0.1368,-0.6324
818092.0,765.979925,1.0,8.95,1.83,-2.06,-33.38,-25.69,9.56,20.5,28.62,1.25,-0.4004055556951993,-0.3604737283090882,0.4576000973538808,-98.26066774517868,-16.19985740781584,-79.27081086102143,-0.0396,-0.7562,-0.1409,-0.6379
818124.0,765.997466,1.0,10.0,2.93,-2.11,-33.38,-25.69,9.56,8.5,6.06,-10.44,-0.2398021020417865,0.3984793859710314,-0.8150593318736838,-97.52784465140512,-16.442961442690333,-79.91212851792643,-0.0399,-0.752,-0.14300000000000002,-0.6422
818161.0,766.0498769999997,1.0,8.96,2.85,-1.77,-34.06,-26.0,9.19,28.06,-5.94,-1.56,0.04820778601490408,0.5394519514242666,0.2544948713668731,-97.98086184027687,-16.998909587512788,-79.31545721761533,-0.0364,-0.7546,-0.1478,-0.6382
818198.0,766.089153,1.0,9.69,2.63,-2.32,-34.88,-25.69,9.56,25.94,2.56,-3.0,-0.3952851630778962,0.2279117838145348,-0.4883587838063068,-97.92848570683063,-17.601642377536205,-79.24105462662456,-0.0309,-0.7543,-0.153,-0.6377
818231.0,766.105049,1.0,9.56,2.85,-2.26,-34.88,-25.69,9.56,46.5,-54.13,-7.63,-0.040893089434635314,0.4004651111437365,-0.4139984848072693,-99.10487032365977,-18.646004953165537,-77.74655203029216,-0.0258,-0.7609999999999999,-0.162,-0.6276
818266.0,766.153479,1.0,9.63,1.49,-2.91,-34.5,-25.69,10.06,36.69,-53.75,2.94,-0.6233990451340822,-0.8153291308497956,-0.3112406911921912,-100.74370415119087,-19.401234664747328,-75.88930894202932,-0.0198,-0.7702,-0.1685,-0.6149
818302.0,766.171021,1.0,9.47,2.41,-2.72,-33.69,-25.69,13.69,13.31,-80.5,-11.19,0.21066202234499268,-0.07075740319145796,-0.3342579920012625,-103.18276029513798,-20.09912503821932,-73.15363536728181,-0.0198,-0.7836,-0.1745,-0.5959
818337.0,766.215051,1.0,8.92,1.35,-3.3,-33.69,-25.69,13.69,27.0,-41.88,-7.94,-0.4391522545460505,-0.8858933941338358,0.25148185958733826,-104.74561874233255,-20.70457229377833,-71.3377536515333,-0.0192,-0.792,-0.1797,-0.5831
818372.0,766.274662,1.0,8.82,2.12,-3.51,-33.38,-25.0,16.56,-6.06,-38.94,-4.13,-0.2506176449725708,-0.1585386970110504,0.08456399556769334,-105.822052873486,-21.20567161915569,-70.07325796303394,-0.0182,-0.7977,-0.184,-0.5741
818407.0,766.28116,1.0,8.97,3.42,-3.75,-32.19,-24.56,17.0,-6.31,-52.13,-12.0,0.224049302905982,0.8840346098161189,-0.4592198958497757,-107.53011997485687,-21.462206102543455,-68.18076625802583,-0.0238,-0.8066,-0.1862,-0.5605
818444.0,766.296967,1.0,7.68,1.44,-3.7,-31.5,-26.06,17.37,22.5,-45.19,-14.31,-0.4115610283831944,-0.6504171666066911,1.1954029922026113,-108.99693778149953,-22.174080183171977,-66.37764861539371,-0.0247,-0.8141,-0.1923,-0.5474
818477.0,766.336599,1.0,8.28,2.32,-3.93,-31.5,-26.06,17.37,-8.56,10.31,3.19,-0.16875745150436489,-0.013592517661823456,0.3537649289740443,-109.03641233282305,-22.162403204703928,-66.35026504226904,-0.0255,-0.8143,-0.1922,-0.5472
818513.0,766.396692,1.0,9.04,2.5,-4.2,-30.37,-25.0,19.06,0.31,16.75,-0.81,-0.18712662054691945,-0.07582293412008445,-0.4681168835134191,-108.6425203865957,-22.162403204703928,-66.73402593846353,-0.027000000000000003,-0.8123,-0.1922,-0.55
818550.0,766.433129,1.0,8.97,2.66,-4.18,-30.37,-26.5,17.75,-2.94,3.13,0.37,-0.20239555125297906,0.10746540400394687,-0.4381724595536678,-108.44628015323634,-21.882225322200526,-67.04989222028267,-0.0282,-0.8113,-0.1898,-0.5523
818585.0,766.458045,1.0,8.63,2.5,-4.02,-30.37,-26.5,17.75,-1.69,-4.25,4.69,-0.20381712421942225,0.057193022688225126,-0.0342080691945128,-108.50510319404415,-21.777192841624235,-67.02240272652745,-0.0282,-0.8116,-0.1889,-0.5521
818618.0,766.475573,1.0,8.33,2.56,-4.0,-30.69,-26.06,19.06,-1.25,1.44,-3.19,-0.2686981258542855,0.20746835045282586,0.2239959730238219,-108.48549085474319,-21.765523710742034,-67.03614692743177,-0.0285,-0.8115,-0.1888,-0.5522
818655.0,766.518125,1.0,8.82,2.47,-3.95,-30.37,-25.75,18.69,-4.94,6.13,1.44,-0.12231455889842732,-0.02487919951897033,-0.16732714926763315,-108.32875958573808,-21.695513718287586,-67.2424412315755,-0.0277,-0.8107,-0.1882,-0.5537
818690.0,766.5792799999997,1.0,8.81,2.52,-3.91,-30.37,-25.75,18.69,-4.38,-0.88,-1.5,-0.1020716431102609,0.002992062213121649,-0.15548694079922498,-108.21140567428199,-21.648844944741544,-67.36633638987873,-0.0291,-0.8101,-0.1878,-0.5546
818724.0,766.596008,1.0,8.28,2.59,-3.67,-30.69,-25.75,19.87,-8.94,1.81,-1.25,-0.033298333999940005,0.20091404658386647,0.3889047939096315,-108.19186283336569,-21.672178876755066,-67.36633638987873,-0.0294,-0.81,-0.188,-0.5546
818759.0,766.634053,1.0,8.88,2.67,-3.89,-31.5,-25.75,18.19,-2.19,8.69,5.13,-0.07056266330744071,0.12880522727815835,-0.2478927605621539,-107.97719450779341,-21.532188889890495,-67.65577312725135,-0.0294,-0.8089,-0.1868,-0.5567
818794.0,766.6506730000001,1.0,8.73,2.51,-3.93,-31.06,-26.06,17.75,-1.19,4.5,-1.19,-0.2082370027574839,0.032269438937055916,-0.08847486197083221,-107.9382233400721,-21.473869337236096,-67.71095944217275,-0.0301,-0.8087,-0.1863,-0.5571
818829.0,766.697133,1.0,8.5,2.26,-3.83,-31.06,-26.06,17.75,0.12,2.25,1.69,-0.2710065888977025,-0.12829620400195085,0.21829271041109344,-107.86033561317936,-21.43888030792546,-67.82138560708218,-0.0298,-0.8083,-0.18600000000000005,-0.5579
818864.0,766.760345,1.0,8.71,2.98,-3.73,-31.06,-25.0,17.37,-10.13,7.63,2.0,0.029023454238157363,0.4675006095993175,-0.11494265537183425,-107.66593345101973,-21.24064723466595,-68.09776471776088,-0.0306,-0.8073,-0.1843,-0.5599
818900.0,766.764809,1.0,8.86,2.35,-3.9,-30.69,-25.37,18.56,5.44,7.75,-2.31,-0.29751366729396783,-0.1447457074638019,-0.1493850691399281,-107.3364808253328,-21.34558610673021,-68.37459501300991,-0.0306,-0.8056,-0.1852,-0.5619
818933.0,766.78725,1.0,8.73,2.47,-3.74,-30.69,-25.37,18.56,-2.06,0.31,-0.06,-0.1744717113426137,-0.0013976023246533573,-0.005126478734569062,-107.25914966329704,-21.275624852029367,-68.4854543216403,-0.0303,-0.8052,-0.1846,-0.5627
818968.0,766.8287809999997,1.0,8.82,2.81,-3.92,-31.06,-26.5,17.37,-4.44,0.69,3.44,-0.2332258521796098,0.31418439364167505,-0.2383384951983469,-107.27847580775386,-21.08910064572278,-68.52704538255442,-0.0314,-0.8053,-0.183,-0.563
819005.0,766.893209,1.0,8.81,2.44,-3.93,-30.37,-26.5,17.0,3.81,2.75,-1.75,-0.3480529250094893,-0.027026183897222996,-0.13783232673658574,-107.2205106449329,-21.170698001897183,-68.56864672938487,-0.0311,-0.805,-0.1837,-0.5633
819038.0,766.911021,1.0,8.51,2.48,-3.75,-30.37,-26.5,17.0,-2.94,-5.44,-0.44,-0.2490815965333756,0.06997358438958923,0.18552417940311366,-107.31714138517357,-21.112413070583106,-68.47159291816318,-0.032,-0.8055,-0.1832,-0.5626
819073.0,766.954024,1.0,8.96,2.31,-3.99,-31.06,-26.5,17.0,-3.25,-0.75,5.69,-0.3683773581426559,-0.1790614749268249,-0.2616187245725089,-107.4332446849696,-20.914285524438075,-68.44387353354183,-0.0318,-0.8061,-0.1815,-0.5624
819107.0,767.016644,1.0,8.63,2.51,-3.69,-30.69,-25.75,17.0,2.69,-7.19,-4.56,-0.12280506706426784,0.04005190510418677,0.09189757081268013,-107.56890139317557,-20.890980569305803,-68.29149832235984,-0.0336,-0.8068,-0.1813,-0.5613
819144.0,767.0249570000003,1.0,8.5,2.5,-3.77,-31.06,-26.5,17.06,-2.56,-0.12,0.63,-0.22186333813289755,0.09380076357737276,0.18090960894722666,-107.68535335119316,-20.832722001771078,-68.20844247958603,-0.0333,-0.8074,-0.1808,-0.5607
819177.0,767.044241,1.0,8.72,2.65,-3.87,-31.06,-26.5,17.06,-2.5,1.81,1.56,-0.22167335556605805,0.17393006316881876,-0.09074406392198853,-107.627107150319,-20.786119068432164,-68.2776528480455,-0.0338,-0.8071,-0.1804,-0.5612
819214.0,767.088797,1.0,8.58,2.42,-3.87,-31.06,-26.06,17.37,1.75,5.69,-3.5,-0.3292102856311401,-0.005462579384701628,0.0937055057664864,-107.56890139317557,-20.879328419459103,-68.3053449313366,-0.034,-0.8068,-0.1812,-0.5614
