TIME,ELAPSED_SECONDS,PSTATE,acc_x,acc_y,acc_z,mag_x,mag_y,mag_z,gyr_x,gyr_y,gyr_z,lin_x,lin_y,lin_z,eul_x,eul_y,eul_z,qua_w,qua_x,qua_y,qua_z
969197.0,206.642979,1.0,-8.52,-1.97,-4.46,33.88,-12.25,20.69,-0.44,1.81,-1.31,0.1771707010408674,0.14529683566017704,-0.00713618945001393,-115.81683895855758,-1.6960169933572922,62.40977867122138,0.1169,-0.8472,-0.0148,0.5181
969230.0,206.65174199999998,1.0,-8.57,-2.29,-4.43,33.88,-12.25,20.69,2.44,-0.63,-0.56,0.1583056929035962,-0.15115731684790842,-0.1062703957843656,-115.79527299684044,-1.6845565907051554,62.396381639113685,0.1177,-0.8471,-0.0147,0.518
969267.0,206.66793700000002,1.0,-8.65,-2.1,-4.22,33.5,-12.69,20.69,-1.88,-0.5,0.94,-0.08574603008047799,-0.0004971010965174606,-0.04391076430250429,-115.81683895855758,-1.7189378496716434,62.3829855554336,0.1171,-0.8472,-0.015,0.5179
969302.0,206.71580500000002,1.0,-8.68,-2.18,-4.12,33.88,-12.25,19.06,0.94,-0.25,1.06,-0.17498575806743855,-0.09512562402586136,-0.04370690216995498,-115.79527299684044,-1.6845565907051554,62.40977867122138,0.1171,-0.8471,-0.0147,0.5181
969338.0,206.73011599999998,1.0,-8.61,-2.05,-4.23,33.88,-12.25,19.06,-0.63,0.12,1.19,-0.05928751626769824,0.035966360856330724,-0.002666561886540464,-115.81683895855758,-1.6845565907051554,62.40977867122138,0.1168,-0.8472,-0.0147,0.5181
969371.0,206.77682099999998,1.0,-8.65,-2.13,-4.33,33.88,-11.88,19.06,2.06,1.25,0.69,0.014902911474329985,-0.017962500940576498,-0.0982859034669996,-115.83841139442428,-1.6272548279067642,62.3829855554336,0.1171,-0.8473,-0.0142,0.5179
969408.0,206.803962,1.0,-8.56,-1.99,-4.43,33.88,-11.56,20.69,1.94,1.25,-1.25,0.1209321815902289,0.12717049967109048,-0.033461944051715875,-115.88157571501448,-1.6157945246366483,62.31601934999826,0.1174,-0.8475,-0.0141,0.5174
969443.0,206.84291000000002,1.0,-8.64,-2.35,-4.29,33.88,-11.56,20.69,4.31,-1.19,-0.94,-0.0021292363274847408,-0.21858536717847246,-0.11949808994950395,-115.85999031103985,-1.5928739664684124,62.31601934999826,0.1186,-0.8474,-0.0139,0.5174
969476.0,206.901756,1.0,-8.63,-2.01,-4.36,34.25,-11.88,19.06,-0.19,-0.25,0.37,0.037420803056164686,0.1169939042863576,-0.06814175020205049,-115.81683895855758,-1.5928739664684124,62.35619623181861,0.1182,-0.8472,-0.0139,0.5177
969510.0,206.957193,1.0,-8.65,-2.15,-4.23,34.25,-12.25,19.06,0.88,-2.44,0.63,-0.06327693881514662,-0.041990305476762455,-0.05905488324378005,-115.77371350268422,-1.5699534720315549,62.40977867122138,0.1182,-0.847,-0.0137,0.5181
969547.0,206.96942099999998,1.0,-8.62,-2.03,-4.2,35.0,-12.25,19.06,1.56,-1.94,-0.69,-0.0797784609716965,0.06315871748741451,0.005887459586606525,-115.73061389075428,-1.6043342375287626,62.46337629162338,0.1179,-0.8468,-0.013999999999999999,0.5185
969580.0,207.016594,1.0,-8.62,-2.26,-4.38,35.0,-12.25,19.06,1.37,-2.38,-0.81,0.11708451175124868,-0.11249980381993653,-0.12159430658555336,-115.6229775841169,-1.6043342375287626,62.5438012405264,0.1187,-0.8463,-0.013999999999999999,0.5191
969617.0,207.031606,1.0,-8.54,-2.16,-4.36,33.88,-11.56,19.06,2.88,-3.0,-1.06,0.1356107668066917,-0.02658941288324035,-0.0212542894733474,-115.55847283517146,-1.6272548279067642,62.59743692135864,0.1188,-0.846,-0.0142,0.5195
969652.0,207.08656299999998,1.0,-8.59,-2.12,-3.87,34.56,-11.56,19.56,-0.44,-3.13,-4.0,-0.3070953961785614,-0.05044723277077222,0.15457522333401566,-115.45109275023191,-1.7074774129745531,62.704754110255,0.1196,-0.8455,-0.0149,0.5203
969687.0,207.102149,1.0,-8.47,-1.72,-4.23,34.56,-11.56,19.56,3.25,8.13,-9.5,-0.002690962084519022,0.4225475338446852,0.19344833040184106,-115.55847283517146,-1.8793858210517669,62.5303947029574,0.1209,-0.846,-0.0164,0.519
969719.0,207.149724,1.0,-8.62,-2.9,-4.39,35.38,-11.88,19.5,14.0,3.06,-5.81,0.1681506030692823,-0.5925808613241149,-0.27338339763712405,-115.57996801372805,-1.867925133192117,62.36959041979664,0.1254,-0.8461,-0.0163,0.5178
969756.0,207.156377,1.0,-8.67,-1.99,-4.46,35.0,-11.56,19.87,-7.44,-1.56,0.19,0.11240111801210606,0.29833751459867897,-0.13915116009025752,-115.60146959454927,-1.9710720103882065,62.3829855554336,0.1242,-0.8462,-0.0172,0.5179
969791.0,207.180396,1.0,-8.64,-2.52,-4.56,35.0,-11.56,19.87,6.13,-1.56,-1.44,0.2804729775229333,-0.188555231453905,-0.27696948080007466,-115.51550165897758,-1.9596111689111861,62.44997546195721,0.1249,-0.8458,-0.0171,0.5184
969826.0,207.24945300000002,1.0,-8.71,-1.95,-4.56,35.0,-11.56,18.69,-3.5,-3.19,-0.37,0.20361401861728728,0.3676584827064815,-0.20751839141006734,-115.45109275023191,-1.9939937526124856,62.5303947029574,0.1243,-0.8455,-0.0174,0.519
969861.0,207.26273999999998,1.0,-8.69,-2.18,-4.39,34.25,-11.56,18.69,2.25,-3.38,-2.25,0.10919570002818267,0.12639084103251064,-0.16895532771813748,-115.30102772408483,-2.0398374773549266,62.66450299518854,0.125,-0.8448,-0.0178,0.52
969897.0,207.304752,1.0,-8.46,-2.26,-4.21,34.56,-12.69,19.5,-0.19,-3.0,-3.13,0.07513007100955171,-0.011178513830380056,0.09081084358851403,-115.21541543771308,-2.085681528609333,62.731592972927196,0.1254,-0.8444,-0.0182,0.5205
969932.0,207.328666,1.0,-8.41,-2.29,-4.11,34.56,-12.69,19.5,0.56,-3.88,-2.94,0.032152106826186085,-0.041530451586996135,0.17018065362537982,-115.06583600138664,-2.200293133435064,62.85241532591269,0.1263,-0.8437,-0.0192,0.5214
969967.0,207.39016999999998,1.0,-8.59,-2.66,-3.9,34.56,-11.19,20.37,2.44,-3.25,-1.69,-0.17836366048123153,-0.3889265436107854,0.014274264342452268,-114.91656280775707,-2.223215714892369,62.95987835378689,0.1274,-0.843,-0.0194,0.5222
970004.0,207.425176,1.0,-8.59,-2.48,-3.73,33.88,-10.38,19.5,0.63,-1.63,-0.06,-0.3264553293208321,-0.2350358562326033,0.12731195113307334,-114.7888564887898,-2.24613838532295,63.08084807326618,0.128,-0.8424,-0.0196,0.5231
970037.0,207.43836000000002,1.0,-8.61,-2.32,-3.77,33.88,-10.38,19.5,2.06,0.75,2.0,-0.3067428974423008,-0.06593605087210551,0.13044406833111746,-114.72508670230465,-2.18883187578443,63.12118872806756,0.1285,-0.8421,-0.0191,0.5234
970072.0,207.481604,1.0,-8.56,-2.16,-4.16,35.38,-11.19,20.25,0.69,4.56,1.88,0.02786291404962337,0.1449547378020888,0.04842209827473632,-114.85268180222258,-2.085681528609333,63.01363300906978,0.1284,-0.8427,-0.0182,0.5226
970108.0,207.547619,1.0,-8.74,-2.12,-4.36,34.25,-10.75,20.37,1.88,1.81,-1.06,0.10367923399624067,0.2550443833814069,-0.18413590396889745,-114.9378688809502,-2.0627594617091103,62.91957249352721,0.1287,-0.8431,-0.018000000000000002,0.5219
970143.0,207.56336399999998,1.0,-8.81,-2.31,-4.48,34.25,-10.75,20.37,3.81,2.0,-2.69,0.1894579433959951,0.1260257259603792,-0.3408040257189793,-114.9378688809502,-2.0627594617091103,62.85241532591269,0.1298,-0.8431,-0.018000000000000002,0.5214
970176.0,207.608211,1.0,-9.09,-2.09,-4.68,34.25,-11.19,19.5,-1.81,-2.88,-4.88,0.199219663360398,0.4367814409989498,-0.617750870003487,-115.0231553616165,-2.142987063023817,62.77185845365902,0.1301,-0.8435,-0.0187,0.5208
970211.0,207.63020600000002,1.0,-9.29,-1.72,-4.61,35.0,-11.56,18.19,1.94,-8.13,-8.0,0.050471746846312726,0.8631568555504304,-0.6703253672272496,-114.74633713830113,-2.3951379752687134,63.01363300906978,0.1314,-0.8422,-0.0209,0.5226
970248.0,207.67875800000002,1.0,-8.9,-1.75,-5.31,35.38,-11.56,19.5,-0.81,-27.06,-14.06,0.9427333114916308,0.970048966045834,-0.6163466375739315,-114.17471692174006,-2.7733864743736323,63.525076929588316,0.1329,-0.8395,-0.0242,0.5264
970283.0,207.69306799999998,1.0,-9.19,-1.81,-4.51,35.38,-11.56,19.5,0.12,-32.63,-17.25,0.31851702543967964,0.9348063676884114,-0.5421172676234374,-112.87847065921488,-3.40386984812725,64.68782282646684,0.1362,-0.8333,-0.0297,0.535
970319.0,207.743455,1.0,-9.22,-2.39,-3.58,35.38,-10.38,19.06,8.38,-28.44,-21.56,-0.3293891916563343,0.3343846443864125,-0.3578268517626437,-111.88991732477224,-3.896864048753203,65.50347830987022,0.1406,-0.8285,-0.034,0.541
970356.0,207.75790800000001,1.0,-9.13,-2.82,-3.0,36.5,-9.69,17.37,8.81,-14.56,-20.81,-0.6809172788184199,-0.04539192970804909,-0.1855265012495604,-111.09591679955122,-4.49314033842009,66.03566049429847,0.1465,-0.8246,-0.0392,0.5449
970389.0,207.80253000000002,1.0,-8.7,-2.85,-3.13,36.5,-9.69,17.37,11.81,-9.06,-19.19,-0.3507983173219937,-0.03321710815965831,0.13787359528934218,-110.7321495345978,-4.860139072417077,66.22709184452836,0.1511,-0.8228,-0.0424,0.5463
970424.0,207.8451,1.0,-8.36,-3.2,-3.29,36.5,-9.25,17.75,11.69,-6.69,-19.06,0.0022740534915843824,-0.2668141139672948,0.2734183833199264,-110.26975406580357,-5.273072468222583,66.39134200709483,0.1577,-0.8205,-0.046,0.5475
970459.0,207.853406,1.0,-8.2,-3.55,-3.02,36.06,-8.56,17.0,7.75,-5.88,-15.44,-0.12030631365911135,-0.6058540077189427,0.3948825085973002,-109.96962968750276,-5.525454047712893,66.51463076702889,0.1617,-0.8190000000000001,-0.0482,0.5484
970496.0,207.908276,1.0,-7.98,-4.17,-2.69,36.06,-7.38,17.06,5.63,0.37,-13.5,-0.2787565225934423,-1.2212195626220663,0.4934165346035311,-109.8498937322769,-5.823757869537403,66.44612628524789,0.1661,-0.8184,-0.0508,0.5479
970528.0,207.92275800000002,1.0,-7.67,-3.97,-3.16,36.06,-7.38,17.06,5.19,3.75,-3.25,0.2326762546496224,-0.9859610355120796,0.6661279910021474,-109.92969787688708,-5.8467059276897535,66.26813997300863,0.1678,-0.8188,-0.051,0.5466
970565.0,207.974726,1.0,-7.97,-4.38,-2.59,38.0,-7.75,17.87,1.12,2.44,4.44,-0.33962203963012083,-1.333419545889102,0.4514349204393824,-109.69052239052931,-5.904077101832591,66.30919770158441,0.1727,-0.8176,-0.0515,0.5469
970600.0,207.994282,1.0,-8.16,-4.1,-2.82,38.0,-7.0,17.37,3.25,4.69,6.81,-0.22486341848429348,-0.9068781165251664,0.2948148182490371,-109.53146516582777,-6.01882390838285,66.30919770158441,0.1758,-0.8168,-0.0525,0.5469
970635.0,208.038343,1.0,-8.23,-4.67,-3.33,38.0,-7.0,17.37,7.69,9.69,14.5,0.2756899223232625,-1.303522327443235,-0.13596155876997962,-109.65072872045307,-5.571344453661866,66.1450243398958,0.1782,-0.8174,-0.0486,0.5457
970670.0,208.09024,1.0,-8.45,-4.09,-3.79,37.25,-7.0,18.19,-2.88,3.0,25.06,0.5448434715734289,-0.7051626373924835,-0.2780211025352486,-109.8498937322769,-5.020716482682318,66.1450243398958,0.1747,-0.8184,-0.0438,0.5457
970706.0,208.145702,1.0,-8.57,-3.57,-3.79,37.25,-8.56,18.69,-1.19,1.81,29.06,0.4641993011197982,-0.3621279605541907,-0.20370875226381446,-110.02956467321043,-4.126187708974658,66.26813997300863,0.1693,-0.8193,-0.036000000000000004,0.5466
970739.0,208.158298,1.0,-8.61,-3.39,-3.65,37.25,-8.56,18.69,0.81,-1.44,31.5,0.3389245065568742,-0.3499829023461409,-0.12860752796174602,-110.06954622730551,-3.40386984812725,66.45982503485911,0.1653,-0.8195,-0.0297,0.5479999999999999
970774.0,208.197126,1.0,-8.79,-2.97,-3.72,36.88,-8.56,17.37,3.75,-2.38,30.5,0.3443161476279029,-0.07886981024857156,-0.18327622312667727,-110.00958136957878,-2.372214704126748,66.78891793624743,0.16,-0.8192,-0.0207,0.5504
970809.0,208.223802,1.0,-8.68,-2.93,-3.78,36.5,-9.25,17.87,6.56,2.06,31.25,0.4739152913027631,-0.17111940000943915,-0.09091649119417687,-110.00958136957878,-1.5355728478655368,66.91248837447597,0.1572,-0.8192,-0.0134,0.5513
970846.0,208.26679099999998,1.0,-8.72,-3.03,-3.64,36.5,-9.25,17.87,14.88,-3.06,30.94,0.38716472695600856,-0.41305981835302186,-0.10033667914029644,-110.02956467321043,-0.3666936147093117,66.95369808518734,0.1563,-0.8193,-0.0032,0.5516
970878.0,208.287254,1.0,-8.88,-2.61,-3.57,36.06,-10.38,17.87,14.19,0.44,37.94,0.2545171351601061,-0.1316494081082864,-0.10946261842334516,-109.88978590326799,0.7104722177704716,67.173649069206,0.1544,-0.8186,0.0062,0.5532
970915.0,208.332543,1.0,-8.75,-2.33,-3.62,36.5,-11.19,17.37,17.5,-1.12,38.5,0.3871089601336619,-0.05607865231007236,0.06279030079766912,-109.65072872045307,2.2919839967771853,67.4627610420609,0.1516,-0.8174,0.02,0.5553
970950.0,208.356969,1.0,-8.91,-1.88,-3.9,34.56,-12.25,18.19,13.25,-3.81,42.88,0.5613816806044865,0.31209015340793544,-0.07869017345015372,-109.43221295455638,3.5758369454907797,67.73855928586947,0.1487,-0.8163,0.0312,0.5573
970985.0,208.399935,1.0,-9.09,-1.46,-3.52,34.56,-12.25,18.19,10.88,-6.31,46.56,0.18640064123764066,0.3973205535761649,-0.04004950687295938,-108.95748228388901,5.250129975900072,68.2776528480455,0.1436,-0.8139,0.0458,0.5612
971020.0,208.44503500000002,1.0,-9.07,-0.42,-3.29,34.56,-13.19,19.06,5.63,-4.88,43.69,-0.18247949919047546,1.1393992186745217,0.21843480358001705,-108.62287531550987,6.535260971441648,68.62413121482328,0.1393,-0.8122,0.057,0.5637
971057.0,208.454851,1.0,-9.23,-0.2,-2.82,34.56,-14.25,17.37,8.06,-6.31,37.06,-0.620794390758511,1.021649018339542,0.22770707252994002,-108.17232459490296,7.867159619602527,69.06866999114753,0.1343,-0.8099,0.0686,0.5669
971091.0,208.49463500000002,1.0,-9.33,-0.23,-2.88,34.56,-14.25,17.37,11.56,-3.31,27.0,-0.541658710581661,0.8998670916462717,0.09618940028470746,-107.8992703852027,8.740349140335567,69.27745617086707,0.1323,-0.8085,0.0762,0.5684
971124.0,208.552875,1.0,-9.34,-0.31,-3.09,33.5,-15.0,17.37,10.81,-3.88,23.12,-0.2286035006869733,0.6941769866983172,-0.008932445816045131,-107.37517302657601,10.028097037556813,69.70978337535752,0.1275,-0.8058,0.0874,0.5715
971161.0,208.566756,1.0,-9.43,-0.28,-2.66,33.0,-16.19,17.37,4.88,-2.63,21.19,-0.5863577636962427,0.4739962153496981,0.03370713918334012,-107.06613098760813,10.787532942523713,69.98930763271481,0.1245,-0.8042,0.094,0.5735
971194.0,208.619078,1.0,-9.31,-0.03,-2.75,33.0,-16.19,17.37,3.19,-2.31,18.81,-0.4844266007679217,0.629949943083865,0.13152757505481993,-106.81586235047912,11.409241734119899,70.21327111376787,0.121,-0.8029,0.0994,0.5751
971229.0,208.635864,1.0,-9.38,0.26,-2.57,33.5,-17.25,19.06,-0.5,1.19,14.19,-0.7274287172382108,0.7498601313546824,0.13372607572860495,-106.681406842105,12.042810329741009,70.28332279396642,0.1187,-0.8022,0.1049,0.5756
971264.0,208.692922,1.0,-9.4,-0.24,-2.91,33.06,-16.5,17.75,2.69,6.19,7.63,-0.2751698081704044,0.30604013800944674,-0.027795638194287875,-106.70060178693235,12.526874248925028,70.19926439078702,0.1172,-0.8023,0.1091,0.575
971298.0,208.754497,1.0,-9.26,-0.36,-3.4,33.5,-16.19,17.5,-6.06,-1.0,8.19,0.252515292256466,0.3086976387832382,-0.05631820409486288,-106.70060178693235,12.7228682118641,70.19926439078702,0.1157,-0.8023,0.1108,0.575
971333.0,208.76046200000002,1.0,-9.51,-1.45,-3.23,33.5,-16.19,17.5,8.44,-2.25,9.0,0.3935410592487658,-0.8269489205318754,-0.2996243341706606,-106.54716296958813,13.045763563399612,70.31135190623071,0.1151,-0.8015,0.1136,0.5758
971370.0,208.774626,1.0,-9.54,0.08,-2.95,33.0,-17.25,17.37,-9.5,1.56,13.31,-0.32216442512065324,0.4560611427948175,-0.1637420844277404,-106.5280024809996,13.161108413553293,70.40949185665009,0.1108,-0.8014,0.1146,0.5765
971405.0,208.824166,1.0,-9.34,-0.09,-3.29,31.87,-18.0,17.75,-0.12,1.06,9.19,0.11333919390785495,0.34350828579025217,-0.08966023587669092,-106.5088462839978,13.403376345459217,70.4375427333033,0.10800000000000001,-0.8013,0.1167,0.5767
971438.0,208.84204499999998,1.0,-9.43,0.54,-2.53,31.87,-18.0,17.75,-5.0,0.69,6.31,-0.7740688490411785,0.6601157123465402,0.08129835271971507,-106.45140340836085,13.553381828311744,70.52172446832354,0.1061,-0.8009999999999999,0.11800000000000001,0.5773
971472.0,208.88675,1.0,-9.43,1.15,-2.3,32.25,-18.37,17.37,-6.69,7.0,0.94,-1.1947064846392852,1.1348838157583343,0.17222655382063756,-106.70060178693235,13.4841456448157,70.35340463071275,0.1035,-0.8023,0.1174,0.5761
971509.0,208.912326,1.0,-9.42,2.33,-2.08,31.5,-18.37,17.0,-12.19,17.81,-13.0,-1.813167599369084,2.197431925743321,0.30005143961457925,-107.2205106449329,13.138038375794716,69.94734861219692,0.1017,-0.805,0.1144,0.5732
971544.0,208.945675,1.0,-9.24,1.53,-2.92,31.5,-18.37,17.0,2.88,18.19,-27.25,-0.8773135398052618,1.768634427326958,0.19690738037962774,-107.8992703852027,12.642160322280047,69.3053141728393,0.1043,-0.8085,0.1101,0.5686
971579.0,209.013912,1.0,-9.34,1.02,-3.22,32.25,-17.69,19.06,-4.44,18.0,-38.88,-0.6517475717844743,1.5337020081098949,0.015460937736277103,-108.72114762709059,11.766299745968876,68.4993168665412,0.1108,-0.8127,0.1025,0.5628
971614.0,209.071861,1.0,-8.98,0.27,-3.89,32.25,-17.69,18.19,-6.19,16.62,-46.06,0.11221654971052876,1.247072279830565,0.0969837763417818,-109.69052239052931,10.269686237501055,67.64197933171232,0.1171,-0.8176,0.0895,0.5566
971651.0,209.076599,1.0,-8.7,-1.5,-4.37,32.69,-16.5,19.06,4.88,4.06,-57.88,1.0107405849859237,-0.0778385984215591,0.008219277559893712,-110.1495692444103,9.004701785923347,67.173649069206,0.1249,-0.8199,0.0785,0.5532
971683.0,209.0946,1.0,-8.92,-3.44,-4.51,32.69,-16.5,19.06,-6.5,0.19,-45.5,1.4489485906781296,-1.6182156450298422,-0.5384950501069579,-110.4101987714497,7.47667331573405,66.87128845427674,0.1335,-0.8212,0.0652,0.551
971720.0,209.130796,1.0,-8.76,-3.73,-4.74,33.38,-14.69,19.06,-15.0,-1.19,-26.44,1.7198675967098644,-1.74107078900156,-0.5436556939142125,-110.59113537677601,6.523783187455053,66.77519331232165,0.1349,-0.8221,0.0569,0.5503
971757.0,209.147132,1.0,-8.68,-3.6,-4.06,33.38,-13.5,18.69,-13.19,-3.94,-16.19,1.0847776820169677,-1.7465328187993543,-0.22125508997042154,-110.59113537677601,5.686074397008276,66.87128845427674,0.1349,-0.8221,0.0496,0.551
971790.0,209.19108500000002,1.0,-8.29,-3.42,-3.55,33.38,-13.5,18.69,-4.75,-4.19,-5.94,0.7351330105631413,-1.7187963000865667,0.34470946247868817,-110.53077739592041,5.341901218009245,66.95369808518734,0.1345,-0.8218,0.0466,0.5516
971825.0,209.25316899999999,1.0,-8.24,-2.36,-3.12,33.75,-14.25,17.37,-11.88,-2.31,3.31,0.14015983176222854,-0.8512680261450809,0.7260499113922291,-110.53077739592041,5.123950007684243,67.10488432031785,0.1313,-0.8218,0.0447,0.5527
971859.0,209.268159,1.0,-8.2,-2.19,-2.38,34.19,-14.25,19.06,2.0,4.75,3.94,-0.5516491401212895,-0.9046556214514608,1.0557768188380354,-110.59113537677601,5.273072468222583,67.02240272652745,0.1311,-0.8221,0.046,0.5521
971896.0,209.338663,1.0,-7.99,-1.52,-2.27,34.19,-14.25,19.06,0.31,14.31,3.81,-0.7762007991983935,-0.33900036818595397,1.405103054961037,-111.0351722213916,5.536926565771378,66.56945369468808,0.1309,-0.8243,0.0483,0.5488
971929.0,209.350868,1.0,-7.86,-2.02,-2.28,33.75,-13.88,18.69,4.38,22.31,6.31,-0.6761959056735947,-0.8521181842773669,1.4475200394613952,-111.5428205011455,5.8926027489674295,65.96734252761773,0.132,-0.8268,0.0514,0.5444
971966.0,209.388039,1.0,-7.8,-2.35,-2.84,34.19,-13.5,18.19,3.63,30.19,10.5,-0.2047573625078618,-1.0740305937279082,1.2490432839703765,-112.44441011743349,6.259812004164343,65.02722926644273,0.1314,-0.8312,0.0546,0.5375
972001.0,209.397952,1.0,-7.78,-1.73,-2.74,32.25,-13.88,19.87,-9.31,35.94,13.69,-0.5528288671148789,-0.607056199115896,1.4188753836432024,-113.39846355737879,6.730393436549607,64.07848807925822,0.1283,-0.8358,0.0587,0.5305
972036.0,209.45348700000002,1.0,-7.76,-1.93,-3.04,32.25,-13.88,19.87,-6.19,41.88,15.63,-0.4351086067364891,-0.8707987712946176,1.307444743021227,-114.9378688809502,7.315910364212048,62.62426048552695,0.1227,-0.8431,0.0638,0.5197
972070.0,209.469115,1.0,-7.58,-1.89,-3.96,33.38,-14.69,20.69,-13.38,47.19,23.31,0.2533709937754214,-0.7340761497079329,1.0827153747323806,-116.24952660685352,7.844187348567063,61.367629313530685,0.1169,-0.8492,0.0684,0.5103
972107.0,209.519605,1.0,-7.98,-0.82,-4.02,31.5,-14.69,21.06,-20.37,54.06,27.25,-0.3888699053491549,0.04989236183378154,0.8423044606455292,-118.18551847027427,8.544988083393589,59.62985148899754,0.1055,-0.858,0.0745,0.4972
972142.0,209.570618,1.0,-7.5,-0.1,-5.12,31.5,-14.69,21.06,-21.69,58.44,26.56,0.3786433815871413,0.8245447024627436,0.7705471219213695,-119.81110097439957,9.119652615329127,58.10358051110581,0.0965,-0.8652,0.0795,0.4856
972177.0,209.582271,1.0,-7.45,-0.23,-5.2,30.37,-16.19,23.19,-13.88,58.31,22.19,0.19410731178624152,0.4749690108584241,0.7329447595684329,-121.92447762133864,9.890066196362193,56.0296492994227,0.087,-0.8743,0.0862,0.4697
972212.0,209.648438,1.0,-7.35,-0.49,-5.74,28.5,-17.25,23.69,-17.87,66.25,24.0,0.4798814304374806,0.15858895796322958,0.4816962009115873,-123.6719537539127,10.453784866884499,54.28434190943172,0.0795,-0.8816,0.0911,0.4562
972249.0,209.684169,1.0,-7.48,0.02,-5.94,27.0,-18.0,26.56,-20.0,67.19,29.0,0.0853116208904785,0.3700983663646926,0.2625340573599857,-125.97311846044451,11.478340954533572,51.927193035567214,0.0679,-0.8909,0.1,0.4378
972283.0,209.698589,1.0,-7.76,0.98,-6.71,27.0,-18.0,26.56,-18.12,64.62,26.31,-0.11223448304274886,1.0988541197726247,-0.4394235427906654,-128.31613447366578,12.238714488577818,49.542938796600474,0.0558,-0.9,0.1066,0.419
972320.0,209.751207,1.0,-7.89,0.82,-7.48,24.87,-18.75,27.06,-15.56,71.0,20.5,0.07220441633636687,0.8442565069976016,-1.0633508037098949,-130.10645331555745,12.88430304585338,47.606851295352534,0.049,-0.9067,0.1122,0.4036
972355.0,209.766095,1.0,-7.93,2.81,-8.13,23.37,-19.87,28.25,-28.94,65.0,16.56,-0.2940752497579977,2.603080321446232,-1.5957792406302254,-131.87465337051762,13.276466658923828,45.78458156617274,0.039,-0.9131,0.1156,0.389
972390.0,209.80924500000003,1.0,-7.7,3.22,-8.58,23.37,-19.87,28.25,-19.75,60.38,0.94,-0.33608331148561765,2.8830933065831568,-1.8058269534012958,-134.1160248878201,13.322613734970494,43.542266640188856,0.0308,-0.9209,0.11599999999999999,0.3709
972423.0,209.83310299999997,1.0,-7.64,3.02,-9.35,21.75,-21.75,29.06,-7.06,53.5,-16.81,-0.12516181085855616,2.714369269686056,-2.3395030530817262,-136.311888173766,12.745928771149693,41.47659109099214,0.0269,-0.9282,0.111,0.3541
972460.0,209.87682900000001,1.0,-6.95,2.0,-10.1,20.37,-21.37,29.87,-2.88,39.56,-38.75,0.8266266803030895,1.9957356810677007,-2.4263474831487795,-137.81479293008655,11.881504040605064,40.16831276292925,0.0282,-0.9329999999999999,0.1035,0.3434
972496.0,209.89045299999998,1.0,-6.96,1.01,-9.87,20.37,-21.37,29.87,-0.69,25.37,-50.31,0.6960795088925336,1.117795296915794,-2.240947560986706,-139.00910093867893,10.637910557080565,39.2910517001401,0.0311,-0.9367,0.0927,0.3362
972529.0,209.95115800000002,1.0,-6.61,-0.97,-10.25,19.25,-21.25,30.06,6.25,9.69,-57.69,1.368334439058843,-0.4652232011924097,-2.3427009388756184,-140.1367137765361,8.68288738926451,38.53755098296754,0.0389,-0.9401,0.0757,0.33
972564.0,209.990513,1.0,-6.63,-1.83,-10.15,20.0,-19.37,30.75,4.81,-10.5,-52.19,1.4020637239385572,-1.05126857928054,-2.3283140167671306,-140.27139021079807,6.8107477456860686,38.69539839808244,0.0468,-0.9405,0.0594,0.3313
972601.0,210.03052000000002,1.0,-6.77,-2.31,-8.73,20.75,-18.75,30.25,0.88,-28.19,-34.5,0.5746090438977411,-1.5500573436030685,-1.3579837458159876,-139.70199765652578,5.720494487173099,39.37623490539532,0.0514,-0.9388,0.0499,0.3369
972636.0,210.036258,1.0,-6.67,-2.25,-8.46,20.75,-18.75,30.25,9.19,-26.94,-24.19,0.6294329741523126,-1.3389184336378157,-1.0990417047528318,-138.74807199122864,4.802792327898413,40.36359153375482,0.0571,-0.9359,0.0419,0.345
972670.0,210.07756400000002,1.0,-6.18,-1.97,-8.32,22.25,-18.0,30.69,9.19,-29.81,-13.44,1.006675187251196,-0.9572190604082574,-0.651171796997879,-137.97429037596618,4.389930414609093,41.13369909947952,0.0609,-0.9335,0.0383,0.3513
972707.0,210.10635200000002,1.0,-6.1,-1.58,-7.81,23.87,-17.69,29.0,10.06,-32.69,-6.5,0.8976227071318791,-0.5385870542388375,-0.17366549905350406,-136.7140156295355,3.9541934642266323,42.384689535903355,0.0645,-0.9295,0.0345,0.3615
972742.0,210.145452,1.0,-6.17,-1.34,-6.91,23.87,-17.69,29.0,7.69,-36.13,-3.19,0.3795083655848752,-0.3776173278533341,0.4618130001291068,-135.66962888300523,3.851001219583861,43.38190073527359,0.0668,-0.9261,0.0336,0.3696
972775.0,210.213865,1.0,-6.38,-0.83,-6.54,24.19,-16.87,28.19,4.06,-32.5,0.44,0.12157518384507734,0.11924483508327485,0.6340876456750628,-134.4108976122917,3.713416405127687,44.6673653156106,0.0686,-0.9219,0.0324,0.38
972812.0,210.241111,1.0,-6.41,-0.91,-6.3,25.37,-17.25,27.75,11.69,-26.87,-0.69,0.06951047786625297,0.05198743718665827,0.7734520280832111,-133.56064768554154,3.5873017007906127,45.486212391208106,0.0706,-0.919,0.0313,0.3866
972849.0,210.284655,1.0,-6.58,-0.88,-6.0,25.25,-16.19,28.19,11.0,-22.06,-3.0,-0.12949291409477134,0.10422719914788854,0.8599652354541387,-132.63918862221735,3.5987664920103746,46.35737642818546,0.0744,-0.9158,0.0314,0.3936
972881.0,210.290878,1.0,-6.4,-1.18,-6.57,25.25,-16.19,28.19,13.06,-16.25,-1.94,0.5066979033929173,-0.04091903903973805,0.5730763220061235,-132.12822120462246,3.6331610823402585,46.781534903600594,0.0777,-0.914,0.0317,0.397
972918.0,210.43028199999998,1.0,-6.45,-1.04,-6.46,25.69,-16.87,27.37,8.25,-14.19,-2.94,0.4622245493538535,0.13037056108990513,0.6314087507043862,-131.53850453910292,3.6331610823402585,47.31894588531802,0.0804,-0.9119,0.0317,0.4013
972953.0,210.493135,1.0,-6.59,-1.03,-6.2,26.75,-15.75,27.25,4.81,-11.06,-1.19,0.22315359119089664,0.12598362490469833,0.7037202188254525,-131.20453254720215,3.610231319265168,47.606851295352534,0.0819,-0.9107,0.0315,0.4036
972986.0,210.64398500000001,1.0,-6.87,-1.21,-6.03,26.75,-15.75,27.25,4.56,-8.94,-1.69,-0.013330832485368479,-0.04846164300061129,0.5860549130187405,-130.84513444406196,3.564372225995784,47.94523502960248,0.0833,-0.9094,0.0311,0.4063
973023.0,210.65433399999998,1.0,-7.07,-1.26,-6.11,27.19,-16.19,27.75,5.0,-6.31,-1.63,-0.05366691250020805,-0.05559277906344173,0.37804303473632217,-130.65262969629032,3.5414428939599265,48.120868117186305,0.0846,-0.9087,0.0309,0.4077
973058.0,210.695413,1.0,-7.25,-1.25,-5.9,26.75,-16.19,28.06,4.94,-4.88,-1.5,-0.29679095205036177,-0.054955800988005885,0.3809460480015705,-130.40615307468192,3.5873017007906127,48.30917991037589,0.0862,-0.9078,0.0313,0.4092
973092.0,210.707808,1.0,-7.13,-1.12,-6.31,26.75,-16.19,28.06,3.75,-1.37,-0.44,0.07316172274389432,0.16399782287217465,0.22149731074051526,-130.35153620627273,3.610231319265168,48.3342986251064,0.0873,-0.9076,0.0315,0.4094
973127.0,210.72192400000003,1.0,-7.15,-1.27,-6.52,26.37,-15.75,27.0,3.94,-2.25,-0.81,0.24527341206477704,0.07304101200720807,0.05061053903536816,-130.26971625278716,3.6560909909367436,48.39710622669993,0.0884,-0.9073,0.0319,0.4099
973162.0,210.72441099999998,1.0,-7.22,-1.51,-6.39,27.5,-15.75,27.0,5.69,-2.13,-1.63,0.1411409778071726,-0.16131422944061846,0.04987507465896357,-130.18802216268048,3.6446260183907717,48.434798213187825,0.0897,-0.907,0.0318,0.4102
973195.0,210.726913,1.0,-7.25,-1.2,-6.13,27.5,-15.75,27.0,-0.06,-0.75,1.88,-0.10320729440872076,0.08981597853850204,0.2379154261715435,-130.16081866157813,3.6675560000932936,48.4850628718776,0.0895,-0.9069,0.032,0.4106
973230.0,210.72918399999998,1.0,-7.15,-1.24,-6.25,27.5,-15.38,27.0,-2.88,1.0,2.63,0.055801760618036315,0.05551080645124989,0.2297817898866814,-130.18802216268048,3.7478120989556993,48.47249577682955,0.0889,-0.907,0.0327,0.4105
973264.0,210.73144399999998,1.0,-7.08,-1.12,-6.05,27.5,-14.69,26.06,1.12,0.37,1.56,-0.06481907899161943,0.12604480922069522,0.4277795353295773,-130.18802216268048,3.724881599063971,48.44736344772761,0.0883,-0.907,0.0325,0.4103
973299.0,210.77236800000003,1.0,-7.28,-0.93,-6.03,27.87,-14.69,27.25,-1.06,4.06,0.19,-0.2455469443396084,0.2886473839612995,0.31557053632160503,-130.29697555501406,3.7478120989556993,48.39710622669993,0.0871,-0.9074,0.0327,0.4099
973334.0,210.779304,1.0,-7.43,-1.02,-6.49,27.87,-14.69,27.25,-2.06,4.94,-1.25,-0.017106781584861785,0.2810649419270853,-0.10728513477081948,-130.43348264858346,3.7592774051414257,48.25894988610853,0.0869,-0.9079,0.0328,0.4088
973371.0,210.79641600000002,1.0,-7.46,-1.35,-6.76,27.87,-15.0,26.5,-3.0,4.19,-0.37,0.17008695161228582,0.011122556938348377,-0.3492668329412005,-130.62518646665285,3.6675560000932936,48.070674990989744,0.0869,-0.9086,0.032,0.4073
973406.0,210.805504,1.0,-7.36,-1.37,-6.7,27.5,-15.0,27.0,-1.06,1.5,0.31,0.18169551288618546,-0.027525086435458687,-0.23838504773446625,-130.70755912152916,3.6446260183907717,47.995403677336114,0.0865,-0.9089,0.0318,0.4067
973438.0,210.846702,1.0,-7.39,-1.25,-6.7,27.5,-15.0,27.0,-2.75,0.75,0.63,0.1414344944652317,0.07930769714492478,-0.2451312636840121,-130.76254599505174,3.6446260183907717,47.97031813194389,0.0859,-0.9091,0.0318,0.4065
973473.0,210.872878,1.0,-7.39,-1.05,-6.73,26.75,-15.75,27.75,-0.94,-0.69,-0.37,0.1359070046344395,0.2693612838245162,-0.2390691770857174,-130.79006103529238,3.6560909909367436,47.95777627551156,0.0853,-0.9092,0.0319,0.4064
973510.0,210.920155,1.0,-7.26,-1.42,-6.76,27.06,-15.75,26.5,-1.31,-0.88,-0.37,0.28718929132686544,-0.08500905770468943,-0.20993104200507065,-130.79006103529238,3.5987664920103746,47.93269439397731,0.0854,-0.9092,0.0314,0.4062
973545.0,210.972923,1.0,-7.19,-1.2,-6.63,27.06,-15.75,26.5,4.63,-3.19,-0.63,0.21244172026923147,0.11065738214956188,-0.04401614291971967,-130.79006103529238,3.5987664920103746,47.94523502960248,0.0856,-0.9092,0.0314,0.4063
973578.0,210.988409,1.0,-7.07,-1.41,-6.56,26.75,-15.75,27.75,-4.5,-2.81,0.88,0.28361868903413434,-0.10505954679593434,0.06421072993741639,-130.6800872399157,3.621696182670093,48.03303658033746,0.0859,-0.9088,0.0316,0.40700000000000003
973613.0,211.041079,1.0,-7.08,-1.24,-6.35,26.75,-15.38,27.25,4.44,-2.56,-1.19,0.10930175778164042,0.03335020279757395,0.21637154263917147,-130.62518646665285,3.621696182670093,48.08322235291628,0.0864,-0.9086,0.0316,0.4074
973649.0,211.05649900000003,1.0,-7.12,-1.17,-6.34,27.06,-15.38,26.5,-3.56,-1.06,-0.69,0.07345413441944126,0.10062729192909163,0.20230834436030606,-130.5977575270689,3.5529075421905287,48.133417932241116,0.0861,-0.9085,0.031,0.4078
973684.0,211.110769,1.0,-7.14,-1.31,-6.45,27.06,-15.38,26.5,4.31,1.19,-1.06,0.15501200966133233,-0.009768055158898071,0.09716618972670688,-130.5977575270689,3.5529075421905287,48.10831891577421,0.0865,-0.9085,0.031,0.4076
973721.0,211.184752,1.0,-7.23,-1.31,-6.48,27.5,-16.19,27.25,0.56,2.13,-1.75,0.1076329290463156,0.0030980055835558434,0.010334082526414434,-130.65262969629032,3.5070491615651807,48.0581282417445,0.0867,-0.9087,0.0306,0.4072
973754.0,211.200844,1.0,-7.14,-1.34,-6.67,27.06,-15.38,27.37,0.81,0.94,-2.19,0.2978501390187902,0.01287543259163372,-0.05109921155545116,-130.70755912152916,3.4611913427691,47.982860599138895,0.0869,-0.9089,0.0302,0.4066
973789.0,211.204142,1.0,-7.23,-1.22,-6.55,27.06,-15.38,27.37,-1.12,0.63,-0.88,0.12898992138925625,0.10940671622724428,-0.023670023815320462,-130.76254599505174,3.4153340784378665,47.95777627551156,0.0867,-0.9091,0.0298,0.4064
973824.0,211.25151499999998,1.0,-7.27,-1.56,-6.68,26.75,-15.0,28.06,0.19,1.12,0.06,0.23098892574934204,-0.19570525514715967,-0.18420799965593385,-130.79006103529238,3.4726557451993814,47.895076146413096,0.0872,-0.9092,0.0303,0.4059
973860.0,211.26763599999998,1.0,-7.28,-1.12,-6.44,27.06,-15.0,29.06,2.63,1.25,-0.56,-0.013780880413120757,0.1812662468558738,0.02435207798362526,-130.84513444406196,3.6331610823402585,47.84492701246389,0.0872,-0.9094,0.0317,0.4055
973893.0,211.315903,1.0,-7.3,-1.49,-6.44,27.06,-15.0,29.06,-0.19,0.75,0.0,0.01676993868113641,-0.1758522812054405,-0.039795792485302066,-130.84513444406196,3.6446260183907717,47.81985609667796,0.0876,-0.9094,0.0318,0.4053
973928.0,211.33932599999997,1.0,-7.27,-1.03,-6.59,26.37,-15.0,27.25,-3.0,0.31,0.75,0.08542110677207759,0.2888886597711942,-0.05494959523674048,-130.87269286132405,3.6446260183907717,47.80732155074712,0.0868,-0.9095,0.0318,0.4052
