TIME,ELAPSED_SECONDS,PSTATE,acc_x,acc_y,acc_z,mag_x,mag_y,mag_z,gyr_x,gyr_y,gyr_z,lin_x,lin_y,lin_z,eul_x,eul_y,eul_z,qua_w,qua_x,qua_y,qua_z
602646.0,478.22162599999996,1.0,-6.18,3.71,-6.63,21.69,-29.37,20.56,1.88,-4.19,1.56,-0.2668820221834695,-0.16548274177937916,0.018147078285748464,-133.32867360141205,-1.79916139442209,38.209956332458226,-0.2229,-0.9182,-0.0157,0.3273
602683.0,478.23817699999995,1.0,-6.04,3.55,-6.73,21.69,-29.75,20.19,0.63,2.0,0.88,-0.12904240136808556,-0.3332267900146568,0.09844172220405588,-133.32867360141205,-1.79916139442209,38.18570299849585,-0.2228,-0.9182,-0.0157,0.3271
602716.0,478.27883499999996,1.0,-6.03,3.92,-6.73,21.69,-29.75,20.19,1.88,0.63,-0.06,-0.06272088251069201,-0.0020447207856757466,-0.04303334059598106,-133.3576107786115,-1.79916139442209,38.149326328386564,-0.223,-0.9183,-0.0157,0.3268
602753.0,478.337635,1.0,-6.21,3.56,-6.44,21.69,-29.75,19.0,2.38,-1.0,-1.69,-0.4325933742339635,-0.21019565205324864,0.18999877618893635,-133.3576107786115,-1.8220825674649568,38.18570299849585,-0.2222,-0.9183,-0.0159,0.3271
602789.0,478.391628,1.0,-6.23,3.4,-6.61,21.69,-29.0,19.5,1.06,1.0,-1.75,-0.3761283636336365,-0.4191614319174311,0.12430363416164347,-133.41553604515124,-1.8908465277120163,38.17357699786608,-0.222,-0.9185,-0.0165,0.327
602822.0,478.398161,1.0,-6.2,3.49,-6.49,21.69,-29.0,19.5,-3.38,-0.75,3.88,-0.3706288852464433,-0.26370564850328426,0.18722727509760875,-133.2997533527462,-1.9023072532875973,38.40404714248387,-0.2207,-0.9181,-0.0166,0.3289
602857.0,478.41666100000003,1.0,-6.04,4.06,-6.72,22.37,-29.37,20.56,-4.44,0.06,6.56,-0.011437636712257018,0.141792139673365,-0.09806423967361866,-133.21309386328863,-1.8220825674649568,38.391913118452734,-0.2221,-0.9178,-0.0159,0.3288
602894.0,478.45460099999997,1.0,-6.02,3.95,-6.63,21.69,-29.75,19.25,0.44,2.38,-0.75,-0.08059365243091532,0.06722719426296098,0.019475475780083684,-133.21309386328863,-1.79916139442209,38.31911836146923,-0.2229,-0.9178,-0.0157,0.3282
602929.0,478.508089,1.0,-6.12,3.83,-6.73,21.69,-29.75,19.25,3.94,-2.63,-4.81,-0.10613105855955098,-0.07849953385329589,-0.06243172129473429,-133.18424101457546,-1.867925133192117,38.391913118452734,-0.2222,-0.9177,-0.0163,0.3288
602963.0,478.559192,1.0,-6.12,3.66,-7.02,20.87,-29.37,19.25,3.13,-7.0,-3.06,0.07088950538817865,-0.3140475456500842,-0.1946873514294083,-133.15540493778332,-1.8908465277120163,38.598252513901095,-0.2201,-0.9176,-0.0165,0.3305
602998.0,478.56831500000004,1.0,-6.23,3.51,-6.66,22.06,-28.69,20.5,-5.06,0.44,3.25,-0.24474824642376555,-0.3184570414007235,0.043080805865365335,-133.0977829759083,-1.8450038134157023,38.68325358261289,-0.2202,-0.9174,-0.0161,0.3312
603033.0,478.623215,1.0,-6.23,4.09,-6.45,21.25,-29.0,20.19,-2.31,3.63,1.69,-0.2816368950985724,0.2467726044624041,-0.04237451723042796,-133.01147504963205,-1.7647797695524667,38.61039417078352,-0.2224,-0.9171,-0.0154,0.3306
603068.0,478.631233,1.0,-6.03,3.94,-7.23,21.25,-29.0,20.19,1.0,-2.38,-0.06,0.3107713205049805,-0.18384050227902807,-0.3927138946785984,-133.04022773049576,-1.741858774764144,38.58611130749907,-0.222,-0.9172,-0.0152,0.3304
603105.0,478.68053499999996,1.0,-6.35,3.4,-6.19,21.25,-29.0,19.0,7.0,-2.13,-4.81,-0.6211885063709185,-0.2354070755632787,0.3326166272317028,-133.01147504963205,-1.7647797695524667,38.8168714421915,-0.2197,-0.9171,-0.0154,0.3323
603140.0,478.697413,1.0,-6.18,3.32,-6.37,21.25,-29.75,19.0,-2.31,3.75,-1.37,-0.3965328622065735,-0.35101809233365056,0.3456115798240873,-133.04022773049576,-1.8793858210517669,38.780424772104546,-0.2195,-0.9172,-0.0164,0.332
603172.0,478.739645,1.0,-6.21,3.76,-6.75,21.25,-29.75,19.0,0.94,-1.56,2.44,-0.1247059858742792,-0.1182902453955057,-0.10468975983728512,-133.0977829759083,-1.7647797695524667,38.74398218156732,-0.2194,-0.9174,-0.0154,0.3317
603207.0,478.75513099999995,1.0,-6.22,3.72,-6.74,21.69,-28.25,21.0,-1.63,1.69,3.94,-0.1507437421774903,-0.16035251525621194,-0.0880942309058863,-133.0977829759083,-1.6157945246366483,38.74398218156732,-0.2194,-0.9174,-0.0141,0.3317
603244.0,478.80493499999994,1.0,-6.04,3.72,-6.93,22.37,-29.75,20.56,3.13,6.19,1.06,0.0745531112784931,-0.22281456927349666,-0.10746597175049112,-133.21309386328863,-1.638715147453804,38.56183024539064,-0.2199,-0.9178,-0.0143,0.3302
603277.0,478.845879,1.0,-6.06,4.17,-6.83,22.37,-29.75,20.56,-1.56,-2.06,0.0,0.06784676372125607,0.223268485616525,-0.2286351479159823,-133.27085000109963,-1.6043342375287626,38.52541202617238,-0.2198,-0.9179999999999999,-0.013999999999999999,0.3299
603312.0,478.865469,1.0,-6.19,3.6,-6.52,20.87,-29.0,20.06,5.19,-6.69,-3.44,-0.27773316398760456,-0.16082004833509878,0.12762622682561187,-133.12658560187518,-1.5470330404085568,38.780424772104546,-0.2184,-0.9175,-0.0135,0.332
603346.0,478.921257,1.0,-6.22,4.08,-6.49,22.06,-29.0,19.06,-5.56,-1.12,1.88,-0.2229773570430134,0.26805016460782416,-0.05911556621430592,-133.04022773049576,-1.638715147453804,38.84117149116385,-0.2194,-0.9172,-0.0143,0.3325
603383.0,478.98103,1.0,-6.29,3.62,-6.41,20.87,-29.37,19.25,0.5,-0.44,-1.69,-0.3969644583300372,-0.12812097436386627,0.13283977678645975,-132.95401941873996,-1.6616358358374437,38.877624971743764,-0.2197,-0.9169,-0.0145,0.3328
603416.0,478.984379,1.0,-6.31,3.27,-6.38,20.87,-29.37,19.25,3.56,0.19,-3.31,-0.4839784127604575,-0.4158683794814193,0.27742031513410303,-132.98273895587266,-1.7303983035632713,38.91408254537286,-0.2189,-0.917,-0.0151,0.3331
603453.0,479.026271,1.0,-6.16,3.28,-6.78,21.25,-29.37,19.75,-0.25,-0.12,1.31,-0.12561764507352535,-0.5406956113216614,0.09252273795819832,-133.04022773049576,-1.6960169933572922,38.91408254537286,-0.2181,-0.9172,-0.0148,0.3331
603490.0,479.07467199999996,1.0,-6.22,3.73,-6.41,20.87,-28.69,19.75,-2.88,-1.94,3.38,-0.3128558315268577,-0.013045237403733978,0.13238769993490962,-132.95401941873996,-1.5584932484256673,38.97485427752672,-0.2189,-0.9169,-0.0136,0.3336
603523.0,479.081014,1.0,-6.14,3.92,-6.89,20.87,-28.69,19.75,0.44,0.5,0.63,0.061384623622224285,-0.045900328420991336,-0.21992594036137447,-132.95401941873996,-1.5126525087430307,38.91408254537286,-0.2197,-0.9169,-0.0132,0.3331
603557.0,479.140457,1.0,-6.25,3.38,-6.39,22.06,-29.37,19.75,1.5,-0.37,1.88,-0.41627714079017264,-0.33036658512151784,0.2653413234352016,-132.95401941873996,-1.4668120111410634,38.93838987087892,-0.2189,-0.9169,-0.0128,0.3333
603594.0,479.14525599999996,1.0,-6.28,2.93,-5.75,20.56,-28.25,20.19,7.06,10.25,6.69,-0.9394139868711155,-0.4891302234131218,0.8643878149701543,-133.15540493778332,-1.2032334798806037,38.75612925877516,-0.2187,-0.9176,-0.0105,0.3318
603629.0,479.199383,1.0,-6.12,3.29,-5.54,20.56,-28.25,20.19,-10.63,17.19,13.69,-0.9625672728322192,-0.11036040871377018,0.9731124965158546,-133.3865649159552,-1.0542572154525014,38.23421144458892,-0.2218,-0.9184,-0.0092,0.3275
603662.0,479.25121500000006,1.0,-5.74,2.61,-5.71,20.87,-28.25,19.75,-6.69,35.0,24.62,-0.8814163967975291,-0.8314267558604079,1.3866954463758567,-134.20429804752106,-0.5958787923837214,36.85446512108432,-0.2268,-0.9212,-0.0052,0.3161
603697.0,479.26910999999996,1.0,-5.7,2.39,-2.68,20.19,-29.75,20.5,-20.75,74.31,50.56,-2.8512025625853736,0.15346611776769525,3.704880412593085,-135.2162310052641,0.10313241704642767,34.93923195845143,-0.2346,-0.9246,0.0009,0.3002
603734.0,479.310818,1.0,-4.04,5.4,-8.61,19.06,-30.5,20.25,-37.25,111.37,63.06,1.3002281813126386,0.10125370964056657,-1.0521185472526984,-137.6241524258607,0.9511208605830096,29.9147053648035,-0.2526,-0.9324,0.0083,0.2581
603768.0,479.31857699999995,1.0,-3.48,4.42,-8.06,19.06,-30.5,20.25,-10.63,114.87,59.44,0.8293262878663247,-0.5837047380916961,0.030050044648280764,-139.30467314730421,1.638715147453804,26.547046453502677,-0.2609,-0.9376,0.0143,0.2296
603805.0,479.38836299999997,1.0,-3.5,5.38,-7.03,15.25,-30.87,21.25,-21.31,67.69,41.5,-0.2193856504777804,0.5142404444567323,0.3038753156433618,-140.8145368825897,2.4295230620087382,22.431032941974188,-0.2725,-0.9421,0.0212,0.1945
603842.0,479.39141100000006,1.0,-2.96,4.71,-6.31,12.56,-32.38,21.37,-7.69,76.81,44.0,-0.3692638100518347,0.3296058117943166,1.409221569378076,-141.74788525089278,2.9338644268256844,20.180594156388953,-0.2756,-0.9448,0.0256,0.1752
603875.0,479.449966,1.0,-1.91,4.32,-8.7,12.56,-32.38,21.37,-3.25,103.94,55.69,0.7153687773704416,-1.2478558993713138,0.012182012060698357,-142.95536907296346,3.6560909909367436,16.084119443363345,-0.2834,-0.9482,0.0319,0.1399
603910.0,479.49286100000006,1.0,-1.74,6.07,-7.31,10.0,-32.38,22.56,-34.75,80.44,55.44,-0.12461996208006605,0.7241481428564183,0.175000124083164,-143.13615512462272,4.642227799866185,12.250239375241625,-0.2949,-0.9487,0.0405,0.1067
603947.0,479.508968,1.0,-1.58,5.83,-6.97,7.0,-33.88,22.56,-16.06,66.75,46.63,-0.4350375435895152,0.6380609215279431,0.6159035343375674,-143.3178010626215,5.284543793645802,9.832557602907887,-0.2992,-0.9492,0.0461,0.0857
603981.0,479.54919800000016,1.0,-1.33,5.26,-5.17,7.0,-33.88,22.56,-3.88,81.62,47.38,-0.939960589290232,1.10776914246546,2.4544583799738646,-143.3178010626215,5.8467059276897535,6.3631010384043885,-0.3055,-0.9492,0.051,0.0555
604016.0,479.59983700000004,1.0,0.46,6.75,-9.94,4.75,-33.06,21.25,-13.5,109.44,48.5,0.6060641745233206,-0.3319159359628223,-2.1975250248741887,-143.35423456188457,6.225383461526625,2.544141615361497,-0.309,-0.9493,0.0543,0.0222
604051.0,479.60647400000005,1.0,0.26,5.58,-7.87,2.0,-34.19,22.06,0.94,60.13,33.5,-0.13771532516463755,-0.16775890562369522,0.1581376048792471,-143.06373822672285,6.581172764918962,-0.43544897228424,-0.3116,-0.9485,0.0574,-0.0038
604088.0,479.663741,1.0,0.08,6.85,-5.43,-0.88,-33.75,21.87,6.69,79.81,33.06,-0.8202318282517141,2.228446906543466,1.393859491931963,-142.73954322436268,6.78778903124712,-2.6129139620146145,-0.3132,-0.9476,0.0592,-0.0228
604121.0,479.70075999999995,1.0,0.99,6.46,-6.97,-0.88,-33.75,21.87,13.56,129.44,28.62,-0.5297135225136849,1.0686497866500009,0.3266715602798431,-142.34696199162144,6.523783187455053,-7.040350098228411,-0.3118,-0.9465,0.0569,-0.0614
604157.0,479.72202699999997,1.0,2.79,6.88,-8.97,-2.38,-33.0,22.75,5.44,111.75,13.44,0.41926517742027614,0.2068971817091243,-1.8278164796974496,-141.46907086921098,5.571344453661866,-10.545844298925708,-0.3133,-0.9440000000000001,0.0486,-0.0919
604194.0,479.77581399999997,1.0,3.34,8.11,-7.62,-4.56,-33.0,22.37,20.25,109.0,-1.0,0.3742432066407013,1.9851851871850887,-1.6349880730586062,-140.64403039131906,4.263789782102698,-14.569430825374987,-0.3098,-0.9416,0.0372,-0.1268
604229.0,479.782867,1.0,4.9,8.7,-10.29,-4.56,-33.0,22.37,-1.63,111.69,-46.75,0.6849825963579734,0.6951122540661112,-4.498304309501791,-139.46977154097462,2.360753104216733,-17.59004678708234,-0.31,-0.9381,0.0206,-0.1529
604262.0,479.84469400000006,1.0,5.43,8.46,-10.71,-6.06,-33.0,22.19,23.37,86.62,-74.94,0.8532271045063109,0.01732404613683336,-4.857329793547222,-138.585728177911,-1.9137679978932431,-20.075850034388896,-0.3071,-0.9354,-0.0167,-0.1743
604299.0,479.900233,1.0,4.97,7.62,-10.12,-5.75,-33.0,20.87,7.44,-16.75,-80.44,0.9708575482254868,-0.2841686457637405,-3.763773125378897,-139.04184146178912,-4.871608567013157,-19.72682480222871,-0.3019,-0.9368,-0.0425,-0.1713
604336.0,479.906643,1.0,4.03,6.21,-9.02,-4.56,-32.06,23.69,44.0,-31.81,-107.12,1.1096067779276697,-0.7063249220175396,-1.787972801234801,-140.00247242955643,-8.453062112264227,-17.578451378167774,-0.2969,-0.9397,-0.0737,-0.1528
604368.0,479.922259,1.0,4.1,7.02,-11.62,-4.56,-32.06,23.69,46.38,-38.31,-128.69,0.976703470715718,-1.5713767258141234,-4.253635399516663,-140.27139021079807,-11.639588800101585,-15.621331474060085,-0.2946,-0.9405,-0.1014,-0.1359
604405.0,479.96258600000004,1.0,3.59,7.9,-11.13,0.0,-31.75,22.25,28.75,-102.5,-125.5,2.1280778144562458,-0.6016803185721367,-4.1319390824667765,-141.19218403998903,-15.35534492966006,-10.776022876638457,-0.2894,-0.9432,-0.1336,-0.0939
604442.0,480.01263099999994,1.0,0.62,2.23,-5.04,3.56,-31.5,25.0,109.44,-149.0,-132.63,0.29272857211827114,-1.0057527336528125,4.360397029212148,-142.24057734218397,-18.20486640453508,-5.502509177758649,-0.2782,-0.9462,-0.1582,-0.048
604477.0,480.03328799999997,1.0,-0.52,2.05,-7.49,3.56,-31.5,25.0,55.31,-87.5,-92.19,-0.527715555760365,-1.9580321716967348,2.292621366383469,-142.45363711540872,-20.92593832998922,-0.1833465726697912,-0.2656,-0.9468,-0.1816,-0.0016
604510.0,480.07213600000006,1.0,-1.34,5.27,-6.13,10.38,-29.69,25.87,-19.87,-45.38,-81.81,0.4418814920409596,1.3703771228252992,1.7399153887568148,-140.33889297208822,-23.35467940290321,2.681687249969397,-0.2712,-0.9407,-0.2024,0.0234
604547.0,480.13318200000003,1.0,-2.21,2.25,-5.89,13.25,-29.0,26.19,30.0,-38.69,-51.63,-1.3060527950973924,-0.4782955907203929,3.2718080413665915,-139.63551670559374,-24.854522251558684,4.309658496908005,-0.267,-0.9386,-0.2152,0.0376
604583.0,480.191217,1.0,-2.7,2.71,-5.83,13.25,-29.0,26.19,11.25,-2.5,-16.69,-1.4271726436403582,0.1877335260723956,2.9838254845641066,-139.1730548258568,-26.288094094940124,4.837200229263812,-0.261,-0.9372,-0.2274,0.0422
604618.0,480.207267,1.0,-1.65,3.63,-9.09,16.25,-27.5,25.69,-12.38,23.25,-3.44,-0.3117850865968609,-1.1693590064532728,-0.045400018843917415,-138.9763854221543,-26.676574330601248,4.149120969117045,-0.2612,-0.9366,-0.2307,0.0362
604653.0,480.258028,1.0,-1.6,3.72,-9.29,16.69,-27.19,26.5,1.31,-27.44,13.0,-0.2334991725272341,-1.2695863616097418,-0.2450229257792529,-138.61814821881748,-26.923951406436,4.194987989089829,-0.2634,-0.9355,-0.2328,0.0366
604690.0,480.264894,1.0,-2.26,3.83,-7.07,16.69,-27.19,26.06,0.5,-10.19,15.0,-0.6159066102519831,0.2049782955560835,1.4795831126861465,-138.5209607780903,-26.94751777725,4.447268815934101,-0.2637,-0.9352,-0.233,0.0388
604723.0,480.32019299999996,1.0,-1.83,4.75,-7.39,16.69,-27.19,26.06,-29.81,17.62,13.0,0.017147676480011698,0.4699155088549567,0.8454901770904169,-138.26285199839916,-26.605918469153576,3.6790210459755386,-0.2701,-0.9344,-0.2301,0.0321
604760.0,480.371563,1.0,-1.32,5.6,-7.98,15.88,-27.5,26.5,-3.56,19.62,15.06,0.6780678040618723,0.5808716936037146,0.009425284364212416,-138.0702668424954,-26.759019228055678,2.807774138332147,-0.272,-0.9338,-0.2314,0.0245
604796.0,480.41959299999996,1.0,-1.36,5.22,-9.05,16.19,-27.87,24.56,-7.44,17.56,7.38,0.22515855522136846,-0.1846895206311152,-0.7250019789622613,-137.91042216197232,-27.14787893324093,1.741858774764144,-0.2712,-0.9333,-0.2347,0.0152
604829.0,480.42659800000007,1.0,-0.98,5.52,-8.81,16.19,-27.87,24.56,0.69,-2.19,4.31,0.682009949091767,-0.009235697933091204,-0.613603218191173,-137.94234469461358,-27.03000922772236,1.5699534720315549,-0.272,-0.9334,-0.2337,0.0137
604864.0,480.483568,1.0,-1.09,5.18,-9.21,15.5,-28.75,25.69,2.13,-2.81,2.19,0.4035877444085093,-0.4231401634763787,-0.8000775506923663,-137.68760819354466,-27.41909061621704,1.5355728478655368,-0.2719,-0.9326,-0.237,0.0134
604899.0,480.498858,1.0,-1.37,4.96,-7.43,15.06,-28.37,25.69,9.69,-5.81,-1.31,0.2834963653060485,0.446398211038086,0.7842468584838631,-137.3712305266047,-27.90294467602473,1.6501754833924644,-0.2715,-0.9316,-0.2411,0.0144
604936.0,480.50271,1.0,-1.01,5.27,-9.23,15.06,-29.06,25.19,-0.06,12.44,-1.06,0.5206047168679904,-0.3780491960224793,-0.8503641003079051,-137.11973135242658,-28.446410631571002,1.283452294756085,-0.2704,-0.9308,-0.2457,0.0112
604968.0,480.548184,1.0,-1.31,4.88,-8.25,15.06,-29.06,25.19,5.25,-7.25,1.88,0.2147455759767816,-0.024889623998001653,0.13471819481156544,-137.1824741414482,-28.422768181257144,1.4553519237055776,-0.2698,-0.9309999999999999,-0.2455,0.0127
605005.0,480.56365,1.0,-1.24,5.18,-8.58,15.06,-28.0,26.87,3.0,-1.44,-1.75,0.413158203156294,0.019686599344727718,-0.2837074137376767,-137.02578084639396,-28.81302746748213,1.5011923619341792,-0.2682,-0.9305,-0.2488,0.0131
605040.0,480.61454000000003,1.0,-1.38,4.41,-8.13,15.06,-29.06,26.06,-1.06,3.63,-3.5,-0.014491661930575874,-0.2520549909751746,0.4586203534242586,-136.68295663578678,-29.32206069578229,1.4209717482803246,-0.2681,-0.9294,-0.2531,0.0124
605075.0,480.652542,1.0,-1.22,4.97,-8.56,15.06,-29.06,26.06,2.13,-2.06,4.81,0.324711062609352,-0.12971090976081268,-0.16032736556616278,-136.77619735313192,-29.227312357898,1.3292918974264516,-0.2681,-0.9297,-0.2523,0.0116
605110.0,480.66907699999996,1.0,-1.53,4.92,-8.15,15.88,-28.0,26.06,0.94,2.31,0.81,0.08071186440881352,0.19220598890119425,0.16681896139905386,-136.4970459556038,-29.677550179192284,1.2032334798806037,-0.2677,-0.9288,-0.2561,0.0105
605147.0,480.711621,1.0,-1.28,5.08,-8.46,15.06,-28.0,25.69,-0.88,7.13,-2.06,0.2950703595376022,0.02570286636888186,-0.1396394008561206,-136.06616582647524,-30.19946487135094,0.8136069048374162,-0.2686,-0.9274,-0.2605,0.0071
605181.0,480.727933,1.0,-1.25,4.82,-8.19,15.06,-28.0,25.69,-5.19,5.25,2.19,0.21361399209155998,-0.034251143677337836,0.2241557567698198,-136.06616582647524,-30.21133398212997,0.7104722177704716,-0.2685,-0.9274,-0.2606,0.0062
605214.0,480.778776,1.0,-1.0,5.14,-8.63,14.69,-27.56,25.69,-0.75,6.56,3.13,0.4722882438378805,-0.13888330834270413,-0.2757185333058665,-135.79128033679729,-30.54380438300529,0.28647919598176924,-0.2688,-0.9265,-0.2634,0.0025
605249.0,480.815743,1.0,-1.18,5.13,-8.29,14.69,-28.37,25.69,2.25,4.69,1.06,0.3323623493998251,0.13001195628409154,-0.006913682981052105,-135.63926552609757,-30.84087559172584,0.011459155921715059,-0.2682,-0.9259999999999999,-0.2659,0.0001
605284.0,480.87353499999995,1.0,-1.04,5.06,-8.79,14.69,-28.37,25.69,-2.88,0.12,-0.56,0.3315437135428453,-0.24485361363561384,-0.3805687310325165,-135.336709981557,-31.161951340157948,-0.14896906869365514,-0.2686,-0.925,-0.2686,-0.0013
605319.0,480.893121,1.0,-1.34,4.93,-8.22,14.38,-28.37,26.06,3.0,-4.31,4.44,0.10695938416069026,0.0914444978683422,0.12940361510571385,-135.42727196097036,-31.054898349248795,-0.03437746822351143,-0.2686,-0.9253,-0.2677,-0.0003
605356.0,480.934498,1.0,-1.39,4.97,-7.74,15.06,-28.75,25.19,-3.75,6.19,1.25,0.13835699000882662,0.3812966785139795,0.5127772772718728,-135.2162310052641,-31.304732073341746,-0.20626491763025406,-0.2689,-0.9246,-0.2698,-0.0018
605390.0,480.99545199999994,1.0,-0.8,5.35,-9.13,14.69,-28.75,25.69,-5.13,6.06,3.69,0.5682211563588805,-0.33514003089147826,-0.785054578450076,-134.97619058332577,-31.578534757977327,-0.5844194845105756,-0.2695,-0.9238,-0.2721,-0.0051
605423.0,481.007329,1.0,-1.06,4.42,-8.4,14.69,-28.75,25.69,10.81,-3.81,4.0,0.012067353128478705,-0.4747577118966149,0.2675483916731842,-135.2162310052641,-31.423754097001943,-0.4927452222969898,-0.2681,-0.9246,-0.2708,-0.0043
605460.0,481.02248399999996,1.0,-1.02,5.45,-8.97,14.69,-28.37,25.69,-3.38,-1.94,0.25,0.4535429818895276,-0.06787501864207622,-0.7286948802316449,-134.91636984441135,-31.66190266420909,-0.6302567522155992,-0.2692,-0.9236,-0.2728,-0.0055
605497.0,481.08185999999995,1.0,-1.21,4.72,-7.86,14.38,-29.06,25.25,5.63,-6.75,-2.06,0.1405674713790418,0.05334020743855117,0.5600562699683547,-134.7671460925717,-31.90019165418321,-0.43544897228424,-0.26899999999999996,-0.9231,-0.2748,-0.0038
605530.0,481.08471399999996,1.0,-1.31,4.76,-8.08,14.38,-29.06,25.25,3.56,1.25,1.19,0.03555972263677532,0.02750745157984501,0.337854995025312,-134.7969534952698,-31.864439303449732,-0.4698267083113723,-0.2689,-0.9232,-0.2745,-0.0041
605564.0,481.12636399999997,1.0,-1.26,5.14,-8.31,14.38,-28.37,25.69,-3.94,4.81,3.44,0.19492665718933067,0.1579887992915232,-0.042225221953795966,-134.588690989807,-32.07900131942766,-0.7677691897415189,-0.2693,-0.9225,-0.2763,-0.0067
605599.0,481.188307,1.0,-1.11,4.66,-8.42,14.38,-28.37,26.06,3.88,0.0,0.12,0.05896972451431243,-0.2957824952354051,0.1240297303052813,-134.44048421864292,-32.38912849332685,-0.8823637238721431,-0.2686,-0.922,-0.2789,-0.0077
605636.0,481.19541100000004,1.0,-1.39,5.1,-8.22,14.38,-28.75,26.06,-7.38,0.94,2.63,0.055009218117134,0.23513602203824435,0.03668658977874273,-134.1748557862076,-32.580097056893266,-1.0542572154525014,-0.2699,-0.9211,-0.2805,-0.0092
605669.0,481.26431399999996,1.0,-1.42,4.73,-8.22,14.38,-28.75,26.06,6.81,3.19,5.94,-0.1667451324190817,0.02212022551465953,0.21866758676843467,-134.35177886278402,-32.49653690025889,-1.1230152546764245,-0.2686,-0.9217,-0.2798,-0.0098
605706.0,481.41287,1.0,-0.58,5.92,-8.95,14.69,-29.06,25.37,-1.75,4.75,2.19,0.9606514694147305,0.0678495119363034,-0.8965198668217607,-134.2337582296838,-32.60397465615993,-1.5241126706819226,-0.2689,-0.9213,-0.2807,-0.0133
605741.0,481.42067099999997,1.0,-1.03,4.22,-8.53,14.0,-28.75,26.06,14.88,-4.31,-3.56,-0.17080301351700444,-0.6415250471057063,0.2573321215068187,-134.1748557862076,-32.914516343671416,-1.4095117183833985,-0.2665,-0.9211,-0.2833,-0.0123
605775.0,481.46965700000004,1.0,-1.38,5.21,-8.08,14.0,-28.75,26.06,-2.0,-2.31,3.25,0.12813506857049645,0.436489203859701,0.10469356951050912,-134.26323636741046,-32.75921457984873,-1.306372069959298,-0.2672,-0.9214,-0.282,-0.0114
605810.0,481.486379,1.0,-0.83,5.1,-8.95,13.56,-28.75,26.5,-2.38,0.44,2.13,0.3795100042717834,-0.3478296606906968,-0.5149965103103291,-134.1748557862076,-32.890619725136126,-1.3751317128217122,-0.267,-0.9211,-0.2831,-0.012
605847.0,481.489621,1.0,-0.79,5.19,-8.82,13.19,-28.37,26.06,10.44,-8.56,-2.75,0.5183108425552526,-0.2526386074097671,-0.4412828454345217,-134.1160248878201,-32.97426433366517,-1.1803139285143014,-0.2669,-0.9209,-0.2838,-0.0103
605882.0,481.528475,1.0,-1.1,4.59,-7.92,13.19,-28.37,26.06,2.38,-6.56,-3.06,0.14967606786006488,-0.0758681548734832,0.5883887161251433,-134.14543141113884,-33.02206936424729,-0.8823637238721431,-0.2665,-0.9209999999999999,-0.2842,-0.0077
605915.0,481.536828,1.0,-1.04,4.89,-8.41,14.0,-29.06,25.37,-0.5,-2.5,2.06,0.2775106166918568,-0.1491781657580229,0.027972495731622967,-134.02791208505093,-33.11769717298479,-0.8709042326408071,-0.267,-0.9206,-0.285,-0.0076
605949.0,481.55622400000004,1.0,-1.04,4.74,-8.31,14.69,-28.75,27.25,-1.25,1.06,-2.5,0.2142302311495521,-0.21642443526444088,0.1883047227767829,-133.7645266360233,-33.416687431310486,-0.93966131468631,-0.2675,-0.9197,-0.2875,-0.0082
605986.0,481.55918099999997,1.0,-1.24,4.85,-8.6,14.0,-28.75,26.19,-2.69,1.12,-0.75,0.04595717766489912,-0.1819633890112464,-0.14246439590884208,-133.53159111803808,-33.632105380362496,-1.0427975798203954,-0.2679,-0.9189,-0.2893,-0.0091
606021.0,481.60365700000006,1.0,-1.31,5.0,-8.09,14.0,-28.75,26.19,-1.25,-3.94,2.69,0.15994664937662126,0.1961115039157013,0.20976731095012546,-133.58972143720712,-33.548317235556404,-0.9625804159917916,-0.2684,-0.9191,-0.2886,-0.0084
606058.0,481.619587,1.0,-1.29,5.19,-7.85,14.69,-29.06,26.87,0.37,3.0,3.25,0.3055880777344281,0.4322222714224941,0.3228480284891546,-133.47352940641977,-33.64407662582565,-1.0657168616283692,-0.2686,-0.9187,-0.2894,-0.0093
606093.0,481.674489,1.0,-1.18,4.81,-8.22,14.38,-28.75,25.75,3.13,3.13,-0.94,0.12489225357857618,-0.05054070435808988,0.2108828309718227,-133.3865649159552,-33.84764578735518,-1.2032334798806037,-0.2678,-0.9184,-0.2911,-0.0105
