TIME,ELAPSED_SECONDS,PSTATE,acc_x,acc_y,acc_z,mag_x,mag_y,mag_z,gyr_x,gyr_y,gyr_z,lin_x,lin_y,lin_z,eul_x,eul_y,eul_z,qua_w,qua_x,qua_y,qua_z
558356.0,433.86322199999995,1.0,-5.78,5.25,-5.59,24.75,-26.56,12.19,9.88,7.69,-4.88,-1.0211920950533648,0.7711321360797587,0.2892174715443581,-119.35560000731121,-33.2731430190265,18.15844670797989,-0.3848,-0.8632,-0.2863,0.1578
558391.0,433.866477,1.0,-5.22,5.37,-7.0,24.06,-26.56,13.06,-6.75,4.81,-1.94,-0.4505445351389251,-0.4102338351803967,-0.4263367498365138,-119.35560000731121,-33.440616741828144,17.961196420173227,-0.3842,-0.8632,-0.2877,0.1561
558428.0,433.924571,1.0,-5.5,5.7,-5.96,25.19,-26.56,12.25,-1.5,-4.31,3.88,-0.5126221316331248,0.6224004029869943,-0.07320001346283256,-119.28754177396172,-33.309024075692264,18.100426311736804,-0.3854,-0.8629,-0.2866,0.1573
558462.0,433.928084,1.0,-5.46,5.36,-6.35,25.19,-26.56,12.25,-1.56,-3.19,-0.44,-0.6701500821188193,0.11523560470394625,-0.11309392929800488,-119.24220793672814,-33.24922417976444,18.146842253651585,-0.3859,-0.8627,-0.2861,0.1577
558499.0,433.991099,1.0,-5.49,5.33,-5.99,24.06,-27.0,11.5,4.06,8.25,2.69,-0.7400022581101842,0.4017889731682689,0.12573773518568565,-119.35560000731121,-33.24922417976444,18.06561632088332,-0.3852,-0.8632,-0.2861,0.157
558534.0,434.04914299999996,1.0,-5.14,5.36,-6.8,24.75,-26.56,12.19,-2.13,8.38,2.13,-0.4505030132348499,-0.28709412329983586,-0.2483897313701853,-119.51467199760063,-33.309024075692264,17.729205890532434,-0.3845,-0.8639,-0.2866,0.1541
558569.0,434.06509800000003,1.0,-5.57,5.25,-5.94,24.75,-26.56,12.19,0.5,-1.25,0.25,-0.9010941661050638,0.4510055445055086,0.1704877295400049,-119.44645197451608,-33.29706335021371,17.717608294742977,-0.3851,-0.8636,-0.2865,0.154
558602.0,434.073349,1.0,-5.34,5.21,-6.28,25.19,-27.0,11.5,2.56,1.56,1.5,-0.7307179267012489,0.10242554098649627,0.08277935502785105,-119.56019073883043,-33.24922417976444,17.706010881893693,-0.3843,-0.8641,-0.2861,0.1539
558639.0,434.11078899999995,1.0,-5.26,5.31,-6.5,24.75,-27.0,12.25,-0.44,4.81,3.13,-0.5547266001909612,-0.0636298638518924,-0.08283581269353668,-119.4010105824342,-33.32098517464778,17.961196420173227,-0.3848,-0.8634,-0.2867,0.1561
558673.0,434.171333,1.0,-5.19,5.64,-6.72,24.75,-27.0,12.25,-8.63,-1.25,0.37,-0.3115095423201364,-0.09235763354708926,-0.38150645112348336,-119.31022017941788,-33.332946647245606,17.82199325799314,-0.3859,-0.863,-0.2868,0.1549
558706.0,434.188455,1.0,-5.4,5.37,-6.08,24.75,-27.25,13.0,10.19,1.75,-0.56,-0.6575186883684652,0.3332712193125382,0.0896597525610261,-119.35560000731121,-33.332946647245606,17.90319186690899,-0.3852,-0.8632,-0.2868,0.1556
558743.0,434.231446,1.0,-5.4,5.34,-6.51,25.56,-26.19,13.06,-1.37,-4.06,-1.0,-0.6377840738452456,-0.006759766706910586,-0.17577885177267127,-119.37830144711693,-33.309024075692264,18.019205613951,-0.3848,-0.8633,-0.2866,0.1566
558778.0,434.283458,1.0,-5.34,5.52,-6.19,24.75,-26.19,12.19,-3.38,1.63,0.63,-0.4980078393741234,0.28813683804309953,-0.04073875816754047,-119.26487102928002,-33.309024075692264,18.03080801097451,-0.3858,-0.8628,-0.2866,0.1567
558813.0,434.298956,1.0,-5.59,5.32,-5.98,24.75,-26.19,12.19,4.56,-2.5,-1.44,-0.8187154265860226,0.4438054142137098,0.0884381374923322,-119.33290625430892,-33.309024075692264,18.07721946422553,-0.3851,-0.8631,-0.2866,0.1571
558850.0,434.340134,1.0,-5.18,5.6,-6.94,25.56,-27.25,14.19,-3.31,7.06,1.75,-0.2962228624427403,-0.2635432875902475,-0.4986300520574094,-119.4010105824342,-33.356870714029654,17.914792407087575,-0.3847,-0.8634,-0.287,0.1557
558884.0,434.360336,1.0,-5.25,5.55,-6.33,24.5,-27.0,12.56,4.56,-4.81,-4.06,-0.3824373121789209,0.1986760555132938,-0.10537146523195597,-119.37830144711693,-33.40472333858408,18.06561632088332,-0.3841,-0.8633,-0.2874,0.157
558919.0,434.39967800000005,1.0,-5.61,4.96,-5.71,24.5,-27.0,12.56,-0.19,-5.69,-1.69,-1.0253448945149226,0.477438440612108,0.4579324204216047,-119.35560000731121,-33.380796277367786,18.30932175034793,-0.3835,-0.8632,-0.2872,0.1591
558952.0,434.467071,1.0,-5.34,5.41,-6.14,25.19,-27.25,13.75,-5.19,5.31,0.75,-0.5331412728701301,0.2865784672838512,0.05385895511178873,-119.26487102928002,-33.4525819599508,18.15844670797989,-0.3845,-0.8628,-0.2878,0.1578
558989.0,434.470775,1.0,-5.37,5.36,-6.59,24.06,-27.0,11.88,5.88,-0.5,-0.25,-0.5690872960698588,-0.04460742106805027,-0.22673177422934465,-119.37830144711693,-33.4525819599508,18.100426311736804,-0.3835,-0.8633,-0.2878,0.1573
559026.0,434.50980999999996,1.0,-5.62,4.98,-5.81,24.06,-27.0,11.88,2.0,-5.81,-3.56,-1.0106279815522627,0.4249032628156115,0.3759030359386575,-119.35560000731121,-33.4525819599508,18.297714844671226,-0.3832,-0.8632,-0.2878,0.159
559058.0,434.526878,1.0,-5.38,5.43,-6.31,24.5,-26.56,12.25,-5.19,2.0,1.75,-0.5212476010195832,0.1899774298786312,-0.08969323952883279,-119.28754177396172,-33.4525819599508,18.286108128329392,-0.3838,-0.8629,-0.2878,0.1589
559093.0,434.61295,1.0,-5.3,5.71,-6.73,24.06,-27.0,12.25,-0.69,1.44,1.0,-0.2794328734062739,-0.0037195131280562963,-0.4845551497617127,-119.31022017941788,-33.440616741828144,18.193261198253683,-0.384,-0.863,-0.2877,0.1581
559130.0,434.62448600000016,1.0,-5.28,5.09,-6.43,25.19,-27.0,12.69,2.5,-0.44,-2.25,-0.6404281188295048,-0.11180619528275937,0.0748078722572334,-119.31022017941788,-33.488479867763736,18.297714844671226,-0.3833,-0.863,-0.2881,0.159
559163.0,434.66815099999997,1.0,-5.56,5.47,-5.72,25.19,-27.0,12.69,-2.31,-3.5,0.25,-0.6604970385291073,0.7114942615210578,0.18321924075842588,-119.21955248767715,-33.4525819599508,18.35575126897081,-0.3842,-0.8626,-0.2878,0.1595
559200.0,434.683543,1.0,-5.38,5.38,-6.66,25.56,-27.0,12.56,2.38,1.56,-0.94,-0.527743023517536,-0.09506090691799418,-0.2907185049672485,-119.28754177396172,-33.488479867763736,18.297714844671226,-0.3835,-0.8629,-0.2881,0.159
559237.0,434.71780199999995,1.0,-5.58,5.12,-5.93,24.75,-27.25,12.69,5.75,-3.75,-1.0,-0.8580199640077241,0.3923383137932248,0.2345252416773161,-119.33290625430892,-33.440616741828144,18.483448143006754,-0.3827,-0.8631,-0.2877,0.1606
559269.0,434.77101600000003,1.0,-5.42,5.48,-6.06,24.75,-27.25,12.69,-0.19,-4.88,-3.06,-0.482834638639909,0.4162016608566455,0.02278333649575792,-119.28754177396172,-33.416687431310486,18.634392500869453,-0.3829,-0.8629,-0.2875,0.1619
559304.0,434.78981799999997,1.0,-5.34,5.06,-6.95,24.5,-26.56,13.0,10.31,-7.75,-3.06,-0.5556216972620602,-0.5000435486510977,-0.2860672247608367,-119.33290625430892,-33.40472333858408,19.040944126019852,-0.381,-0.8631,-0.2874,0.1654
559341.0,434.83165,1.0,-5.91,5.33,-5.34,24.06,-26.19,12.19,0.25,-21.5,-2.56,-0.8753483483847435,1.0070005680252998,0.3160064430552509,-119.10638959402516,-33.22530683110648,19.633782752905432,-0.3821,-0.8621,-0.2859,0.1705
559376.0,434.882387,1.0,-5.65,4.72,-5.91,24.06,-26.19,12.19,7.56,-2.63,0.37,-0.9751647182435864,0.1460920839857538,0.41746947796882417,-119.17426448564116,-33.105742400688804,19.912948378447748,-0.3812,-0.8624,-0.2849,0.1729
559411.0,434.88889000000006,1.0,-5.47,5.3,-6.36,25.19,-26.19,11.88,-0.88,4.0,3.25,-0.4656573422709751,0.05688463065979876,-0.10498091415251487,-119.19690467351394,-33.05792701658909,19.761718953980246,-0.3817,-0.8625,-0.2845,0.1716
559446.0,434.949258,1.0,-5.55,5.29,-6.0,25.56,-26.56,12.25,1.5,-6.25,2.13,-0.5578889528696518,0.3456544806411834,0.09295436464685736,-119.26487102928002,-32.914516343671416,19.8664125287693,-0.3816,-0.8628,-0.2833,0.1725
559480.0,434.965866,1.0,-5.47,4.37,-5.82,25.56,-26.56,12.69,3.44,-1.44,3.56,-1.074160043484015,-0.052973088004861335,0.7659877425694273,-119.33290625430892,-32.795047946580326,19.95948754584176,-0.3812,-0.8631,-0.2823,0.1733
559515.0,435.00937000000016,1.0,-5.67,4.39,-4.5,25.56,-26.56,12.69,-11.88,6.88,18.19,-1.4313066676251018,1.0015339668488106,1.5229738271610334,-119.49192425354241,-32.412994497933816,19.42448582735805,-0.384,-0.8638,-0.2791,0.1687
559552.0,435.025558,1.0,-5.76,3.9,-1.16,24.75,-26.19,11.38,-15.94,67.69,41.19,-2.2158831162458594,3.347373639944829,4.008533777489533,-120.13181910251943,-32.126697427860236,17.62483410357088,-0.386,-0.8666,-0.2767,0.1532
559587.0,435.10274000000004,1.0,-3.79,4.09,1.98,23.69,-28.5,11.75,3.38,291.88,106.69,-0.7759000528563735,5.32932603608598,7.355351750281375,-123.5991628945627,-32.23403459047365,10.10862175233956,-0.3719,-0.8813,-0.2776,0.0881
559622.0,435.113547,1.0,2.56,11.73,-19.69,23.69,-28.5,11.75,38.75,403.31,126.44,3.920913481632211,-6.0933693245268525,-12.087182184989224,-127.37765090836372,-33.0340215452869,-1.0542572154525014,-0.3399,-0.8964,-0.2843,-0.0092
559656.0,435.18120899999997,1.0,3.33,4.98,-21.77,20.0,-29.56,17.0,17.62,-74.62,-1.06,-1.4174492282675866,-10.08050346495022,-10.347666847226806,-128.89754271482937,-33.8955603834521,-7.648935698119245,-0.3108,-0.9022,-0.2915,-0.0667
559691.0,435.18456399999997,1.0,-2.91,7.24,-5.41,14.88,-30.37,22.69,-70.37,-121.69,8.25,-0.4007773734345349,2.7729360851474016,0.7344946351139736,-127.7407542896587,-32.18632560419117,-4.137654318321577,-0.3403,-0.8978,-0.2772,-0.0361
559730.0,435.222058,1.0,-2.39,5.46,-8.35,14.88,-30.0,20.06,-1.94,-32.69,11.75,-1.4276107848193804,-0.483932369923803,-0.3409574474926007,-128.10621848828742,-31.173847836723343,-2.922401528803221,-0.3444,-0.8992,-0.2687,-0.0255
559763.0,435.28123700000003,1.0,-1.84,6.49,-8.81,14.88,-30.0,20.06,-15.5,-2.44,8.06,-0.6292271623684691,-0.5325964997248511,-1.2587110038994478,-127.81886761171008,-30.686372188368548,-2.8192367490322434,-0.3502,-0.8981,-0.2646,-0.0246
559800.0,435.28774500000003,1.0,-2.14,5.54,-7.59,15.19,-30.69,19.25,1.69,-16.37,3.13,-1.0080072668722642,-0.2713584945318974,0.22596182443671786,-127.84492955883974,-30.425034873037013,-2.440984806055245,-0.3521,-0.8982,-0.2624,-0.0213
559837.0,435.341671,1.0,-2.13,5.61,-7.52,14.88,-31.5,19.25,3.19,-14.44,15.31,-0.9418051618548988,-0.21429704653250206,0.2344778424930656,-128.18484420355122,-29.78425385642316,-2.1315259137202647,-0.3527,-0.8995,-0.257,-0.0186
559869.0,435.359412,1.0,-1.17,2.87,-10.22,14.88,-31.5,19.25,1.25,-21.06,44.69,-1.8938089633844688,-4.06495307973383,0.11418673879714447,-128.89754271482937,-28.74204597594341,-2.051298459271143,-0.3524,-0.9022,-0.2482,-0.0179
559904.0,435.40231500000004,1.0,-1.52,3.81,-9.27,14.06,-31.06,19.25,-47.06,-81.81,87.0,-1.5541551857555462,-3.1250855265971462,0.2894107936943051,-129.40467932878911,-24.88972570037191,-1.0886361860699356,-0.369,-0.9041,-0.2155,-0.0095
559941.0,435.41774100000004,1.0,-2.14,7.18,-5.46,14.06,-32.19,18.75,-75.44,-79.87,90.31,-0.4073598193026179,1.4299414300519415,0.6560803191419389,-129.0838339340417,-21.392231414012297,-0.2635608181333149,-0.3877,-0.9029,-0.1856,-0.0023
559978.0,435.491037,1.0,-2.11,9.25,-3.91,11.88,-33.25,16.0,-36.0,-35.94,65.25,0.12654413967308875,3.5088877128116964,0.16432696042112838,-128.47409395200597,-18.228077382152183,-0.05729578190040675,-0.4047,-0.9006,-0.1584,-0.0005
560011.0,435.500988,1.0,-1.74,8.58,-5.59,11.88,-33.25,16.0,-16.37,-13.75,31.5,-0.08648106650747123,1.7148305163689583,-0.43756677461315263,-128.60607229870925,-16.96415115593626,-0.20626491763025406,-0.4077,-0.9011,-0.1475,-0.0018
560048.0,435.54455199999995,1.0,-2.03,7.88,-5.23,10.38,-34.5,12.75,-5.63,12.88,15.81,-0.6371929436196127,1.5652750322714026,0.2823600408508611,-128.39505791682004,-16.396650200988272,-0.7219315974960596,-0.4111,-0.9003,-0.1426,-0.0063
560082.0,435.560767,1.0,-1.24,8.4,-6.33,9.0,-34.88,14.75,-1.31,6.56,2.25,0.04336312973804075,0.8375141747139598,-0.7509628763150129,-128.2110774660985,-16.30403579859025,-1.0542572154525014,-0.4129,-0.8996,-0.1418,-0.0092
560117.0,435.59840499999996,1.0,-1.7,7.43,-6.31,9.0,-34.88,14.75,10.31,-8.88,-1.25,-0.6054525685969016,0.4042273978449531,-0.06153257826692915,-128.44773606463812,-16.24615724549883,-0.8594447501191841,-0.4112,-0.9005,-0.1413,-0.0075
560152.0,435.654419,1.0,-1.83,7.32,-6.63,8.25,-34.88,13.56,6.06,11.5,1.56,-0.8111389929229299,0.17023371150904376,-0.20340864206728249,-128.60607229870925,-16.315612011260463,-0.9969591404369118,-0.4097,-0.9011,-0.1419,-0.0087
560189.0,435.675603,1.0,-1.41,8.15,-7.64,9.38,-36.06,13.25,-2.25,1.75,-10.81,-0.3582056131102833,-0.15499421406455086,-1.4462547597650453,-128.5268474503853,-16.616652750638245,-1.2605325708995527,-0.4095,-0.9008,-0.1445,-0.011000000000000001
560224.0,435.716562,1.0,-2.42,7.98,-6.91,9.38,-36.06,13.25,13.25,-25.5,-22.06,-1.1247388836224594,0.5465949262925918,-0.9507240490055882,-128.55324310023371,-16.883054257264604,-0.5500415954991054,-0.4085,-0.9009,-0.1468,-0.0048
560257.0,435.732513,1.0,-1.81,9.69,-12.14,9.0,-34.56,13.69,28.31,-61.94,-48.5,0.06148423907218802,-2.2956251639277028,-5.661967417050809,-129.0571819857357,-17.566856150665245,2.3263684457528235,-0.4016,-0.9028,-0.1527,0.0203
560293.0,435.77299500000004,1.0,-0.95,10.65,-7.37,9.75,-36.06,11.56,145.13,-235.38,-156.13,3.1065164728745644,1.8942215017216475,-2.6594392145922985,-129.9166096140095,-18.541499822002773,9.568049817899787,-0.3824,-0.9059999999999999,-0.1611,0.0834
560330.0,435.835034,1.0,-2.86,5.0,-2.47,13.06,-33.06,14.5,202.5,-175.88,-154.13,0.2382041985140624,2.5636729501030207,4.092514915429428,-131.01070305716067,-20.681275164117206,20.57644875978384,-0.3284,-0.91,-0.1795,0.1786
560365.0,435.853212,1.0,-6.35,-3.48,-2.08,13.06,-33.06,14.5,-17.69,-103.75,-3.94,-6.347418201016648,-2.7984440964505604,6.86755272014627,-129.43150224575868,-20.21551264575777,25.418065988790868,-0.3212,-0.9042,-0.1755,0.22
560402.0,435.896805,1.0,-5.83,5.52,-5.24,19.75,-30.37,16.69,-80.81,12.63,44.5,-1.1032484121641268,1.1129918403380812,0.3482678918169029,-127.351803991908,-19.889680039418106,24.279867169785643,-0.3502,-0.8963,-0.1727,0.2103
560439.0,435.95128600000004,1.0,-5.31,8.13,-4.78,20.56,-29.69,13.38,-39.06,28.31,30.31,0.10248335896026783,2.9372610680542137,-0.6098462717426845,-127.01685959928787,-19.377984308584086,22.629665556706637,-0.3635,-0.895,-0.1683,0.1962
560474.0,435.969036,1.0,-4.9,5.54,-7.63,20.56,-29.69,13.38,24.31,16.25,-5.69,-0.11471246297702252,-0.7298316642022593,-0.7939484167293838,-128.0277034878583,-19.52912606682039,22.045646214809647,-0.3558,-0.8989,-0.1696,0.1912
560506.0,435.971864,1.0,-5.6,3.16,-4.84,19.06,-31.19,12.69,5.63,5.63,5.38,-2.4167511885442168,-0.23295195454437634,2.1335641097245555,-128.50046440745706,-19.459364085641027,21.85888316581779,-0.3525,-0.9007,-0.16899999999999998,0.1896
560543.0,436.079576,1.0,-4.66,6.87,-7.16,19.06,-30.75,13.75,-50.5,32.19,36.0,0.2606724524855477,0.38391305702694334,-1.146101281625972,-128.23732310544656,-19.06418290551579,20.518219394705007,-0.3624,-0.8997,-0.1656,0.1781
560580.0,436.085095,1.0,-4.7,5.41,-5.3,18.69,-31.87,11.88,-4.06,27.25,22.12,-0.9828207405621884,0.6611009218303874,0.9723357106464778,-128.39505791682004,-18.669230437467,19.23849904872923,-0.3677,-0.9003,-0.1622,0.1671
560613.0,436.09744800000004,1.0,-4.57,4.34,-3.12,18.69,-31.87,11.88,6.44,113.81,43.31,-1.9519195214265883,1.5870527215999668,3.2395978576201383,-129.5927197609984,-18.611168175342147,16.744050792597328,-0.366,-0.9048,-0.1617,0.1456
560650.0,436.141628,1.0,-2.79,5.55,-5.67,17.19,-31.87,15.06,-31.62,186.25,80.12,-0.4105370989396371,0.4896378357370916,1.4205177520439172,-131.7904095910964,-18.541499822002773,9.786552516199244,-0.3653,-0.9128,-0.1611,0.0853
560687.0,436.158546,1.0,-1.07,8.25,-11.43,15.0,-33.38,15.5,-44.63,140.06,73.0,1.0524237787274768,-1.9798229504077096,-4.151322821115814,-132.41145409892673,-18.30932175034793,4.263789782102698,-0.3688,-0.915,-0.1591,0.0372
560721.0,436.19640899999996,1.0,-2.45,6.53,-6.94,15.0,-33.38,15.5,-28.19,20.5,50.19,-1.1145478899377794,0.2492121747052933,0.03410292705049578,-132.24132459051677,-17.288624783675054,1.3865917007687605,-0.3757,-0.9144,-0.1503,0.0121
560754.0,436.24677,1.0,-1.72,7.8,-7.29,10.88,-33.75,15.38,-25.0,19.69,43.31,-0.4698367465822108,0.5345683674401247,-0.983900963324043,-131.84655671079122,-15.968397992715149,-0.10313241704642767,-0.3837,-0.9129999999999999,-0.1389,-0.0009
560791.0,436.300407,1.0,-1.92,7.65,-6.39,8.56,-34.88,15.88,-5.13,24.44,11.31,-0.7677644704734075,1.076126952379748,-0.2578166277076317,-131.59437695002578,-15.621331474060085,-0.93966131468631,-0.3866,-0.9121,-0.1359,-0.0082
560828.0,436.312044,1.0,-1.42,6.91,-8.15,8.56,-34.88,15.88,5.94,48.31,13.5,-0.9307278989132056,-0.6704323387345563,-0.9111513630298056,-131.7904095910964,-15.841123321226055,-2.509755787270372,-0.3839,-0.9128,-0.1378,-0.0219
560863.0,436.371187,1.0,-1.34,7.99,-6.97,8.25,-34.88,14.25,-18.44,-14.69,3.13,-0.4454791818506498,0.7725457392516395,-0.8432946655511682,-131.48269259246572,-15.598198868035936,-2.4295230620087382,-0.3872,-0.9117,-0.1357,-0.0212
560898.0,436.40460700000006,1.0,-1.24,7.28,-7.55,7.5,-34.5,14.5,0.19,-10.13,-4.75,-0.5424370565724023,-0.19544682937833133,-0.7387785155484803,-131.23228149999522,-15.563501157916,-2.051298459271143,-0.3896,-0.9108,-0.1354,-0.0179
560932.0,436.424929,1.0,-1.81,7.59,-5.59,7.88,-35.25,15.25,-10.75,1.81,-4.5,-0.7204900115548721,1.4670448046308833,0.3482688655534112,-130.81759051018483,-15.667598608855753,-1.856464464018338,-0.3929,-0.9093,-0.1363,-0.0162
560967.0,436.475576,1.0,-1.52,8.31,-6.03,7.88,-35.25,15.25,5.38,15.56,-12.75,-0.3130564916590418,1.5898922056747067,-0.44525901283097546,-130.79006103529238,-16.2808838756779,-2.142987063023817,-0.3912,-0.9092,-0.1416,-0.0187
561002.0,436.535437,1.0,-2.03,10.19,-4.17,7.5,-34.56,13.38,7.81,28.19,-46.44,0.0765979994379512,4.319695746575942,-0.5219637212839885,-130.62518646665285,-17.520477052231193,-2.337829975144579,-0.3884,-0.9086,-0.1523,-0.0204
561039.0,436.542943,1.0,-1.71,9.41,-3.7,6.75,-34.88,15.0,81.81,94.5,-104.19,0.7953135409701869,4.51048294977571,0.6313995984397174,-131.67829939723129,-22.068995754971112,-3.369477361207863,-0.3608,-0.9124,-0.1914,-0.0294
561074.0,436.559704,1.0,-0.14,3.33,-10.53,6.75,-34.88,15.0,111.37,58.75,-69.12,-1.0450092246451863,-3.7523211428571672,-0.5286023801440685,-133.58972143720712,-25.488552629562964,-4.057388916858228,-0.3245,-0.9191,-0.2206,-0.0354
561108.0,436.59855899999997,1.0,-1.84,6.27,-8.0,10.75,-34.19,18.56,68.81,-3.0,-76.19,-0.4537352470451589,0.8467429260310695,-0.4780790067752978,-133.9692588477758,-28.34002932498839,-2.922401528803221,-0.3037,-0.9204,-0.2448,-0.0255
561143.0,436.652479,1.0,-1.4,1.79,-9.37,12.69,-31.19,22.19,49.75,3.88,-33.31,-2.0804469875683607,-2.947391938298071,0.8654184800150038,-134.4108976122917,-29.99774061096053,-2.051298459271143,-0.2877,-0.9219,-0.2588,-0.0179
561180.0,436.670632,1.0,-2.06,6.35,-6.98,14.56,-30.19,23.69,72.31,21.62,-27.87,0.1128500681755108,2.0611550710630335,0.371322521043906,-135.30656135192416,-30.650725683430657,-1.4897322301406863,-0.273,-0.9249,-0.2643,-0.013000000000000001
561215.0,436.71125,1.0,-2.03,3.19,-8.44,14.56,-30.19,23.69,14.5,17.44,-21.94,-1.5412755865790322,-0.6655665409149476,0.712031220423258,-135.73041492290912,-31.697637029521523,-1.5470330404085568,-0.2593,-0.9263,-0.2731,-0.0135
561252.0,436.72826399999997,1.0,-1.42,3.32,-9.57,14.56,-28.69,25.69,33.38,12.06,5.81,-1.1617881048584084,-1.2786595861942882,-0.27496584578796396,-135.94379329724794,-32.055155405875595,-1.8908465277120163,-0.2532,-0.927,-0.2761,-0.0165
561287.0,436.77160499999997,1.0,-1.65,4.0,-8.99,13.88,-28.0,27.19,-9.38,7.13,3.19,-0.9449524436741724,-0.3840054293004518,-0.11817769167616275,-136.09680960991037,-31.924028325694472,-2.0627594617091103,-0.2527,-0.9275,-0.275,-0.018000000000000002
561321.0,436.83553,1.0,-1.46,3.45,-8.68,13.88,-28.0,27.19,-34.44,-2.94,22.87,-1.1106921968213952,-0.8214790892921195,0.4542152929423828,-135.97435612355386,-31.411850331847486,-2.4639083675369537,-0.2582,-0.9271,-0.2707,-0.0215
561356.0,436.85187199999996,1.0,-1.71,5.84,-7.32,15.06,-28.0,25.56,-0.56,6.0,7.0,0.008811405364139435,1.6487069364469025,0.4314813190189799,-136.06616582647524,-31.054898349248795,-2.8192367490322434,-0.2601,-0.9274,-0.2677,-0.0246
561393.0,436.894297,1.0,-2.05,1.92,-3.77,13.56,-28.75,25.56,7.13,59.06,18.12,-1.5597209104584857,0.7547929514358558,5.436368741094425,-136.58990657854866,-31.161951340157948,-3.701951248377608,-0.2521,-0.9291,-0.2686,-0.0323
561428.0,436.910738,1.0,-1.35,5.1,-4.97,13.56,-28.75,25.56,-26.94,170.19,58.69,-0.26908045329661745,2.4901114563731768,3.005154528819212,-136.65191882638644,-30.74578979374247,-9.821056182581472,-0.2425,-0.9293,-0.2651,-0.0856
561463.0,436.95036100000004,1.0,2.66,3.53,-7.51,14.25,-28.87,26.06,43.5,356.06,59.06,0.6106115406551995,-1.1127178174769714,1.1854196582745242,-135.54829362030736,-31.43565821002521,-18.20486640453508,-0.2115,-0.9257,-0.2709,-0.1582
561498.0,437.00733099999997,1.0,6.74,7.03,-20.87,8.69,-28.87,28.75,-26.25,135.38,25.56,-2.6562520117862998,-3.41166943651284,-12.814363171514785,-132.75344370342964,-31.602352407672463,-25.488552629562964,-0.1944,-0.9162,-0.2723,-0.2206
561534.0,437.02398200000016,1.0,1.49,5.17,-7.1,2.69,-30.0,30.25,2.38,-40.38,12.63,-0.1625334230629425,1.3341505947503174,1.0002531728683284,-133.91067619883825,-31.00732816596471,-23.647290415990852,-0.1996,-0.9202,-0.2673,-0.2049
561567.0,437.06613600000003,1.0,2.25,5.26,-9.02,2.69,-30.0,30.25,-13.13,-46.19,-5.25,-0.2970980057630393,0.329262817620724,-0.8654547020681012,-134.49971207203987,-30.650725683430657,-22.407668898888765,-0.2047,-0.9222,-0.2643,-0.1943
561604.0,437.084435,1.0,2.41,4.96,-9.87,2.75,-28.5,29.37,14.38,-18.94,5.0,-0.5335818532343439,-0.2177230790645477,-1.4846956712095023,-135.12607315636853,-30.54380438300529,-21.625511921173292,-0.2028,-0.9243,-0.2634,-0.1876
561641.0,437.139591,1.0,1.27,4.77,-8.06,4.0,-29.56,30.06,9.0,1.5,-4.25,-0.6159475039282638,0.7497073164877284,0.40516354242270397,-135.336709981557,-30.555683180576786,-21.112413070583106,-0.2031,-0.925,-0.2635,-0.1832
561674.0,437.142415,1.0,2.18,4.8,-9.6,4.0,-29.56,30.06,-11.88,0.94,-3.06,-0.590264767227586,-0.17186686994420566,-1.1283602553031624,-135.2162310052641,-30.650725683430657,-21.24064723466595,-0.2034,-0.9246,-0.2643,-0.1843
561709.0,437.177857,1.0,2.22,5.47,-10.24,5.06,-29.19,29.69,18.44,-27.62,-2.56,-0.3823232563472005,0.09285266048573736,-2.006567483441877,-135.66962888300523,-30.626963035148037,-20.262073582983945,-0.2038,-0.9261,-0.2641,-0.1759
561743.0,437.233235,1.0,1.32,4.19,-9.89,4.69,-30.0,30.25,17.69,-75.75,-20.5,-1.1086602400541363,-0.4021620411365767,-0.9506609169899908,-136.55893204947213,-30.805215870860085,-18.1816561801528,-0.2039,-0.929,-0.2656,-0.158
561780.0,437.2904,1.0,1.62,3.79,-12.2,5.06,-29.56,29.25,7.38,-103.0,-17.69,-1.1845838494578245,-1.9737417292794943,-2.863377809350085,-137.68760819354466,-30.69825503264451,-14.303764676023915,-0.2115,-0.9326,-0.2647,-0.1245
561815.0,437.31108,1.0,1.59,6.08,-8.81,5.06,-29.56,29.25,-26.81,-219.81,-28.37,1.6942531734486517,0.35454317222474563,-0.8757844286912402,-138.29503211078548,-29.985877446985693,-9.22311622194562,-0.2309,-0.9345,-0.2587,-0.0804
561852.0,437.350442,1.0,-2.42,3.6,-4.27,9.19,-28.87,28.5,-3.38,-111.56,-13.75,-1.0769441635624757,1.9367207990117248,4.137558025508486,-138.7806141249359,-29.19178700040293,-1.5928739664684124,-0.2453,-0.9359999999999999,-0.252,-0.0139
561887.0,437.366436,1.0,-1.78,5.5,-6.75,13.25,-29.19,26.5,-13.13,-37.0,-8.19,0.09466468984042747,1.8052483620493995,1.105327287457076,-138.42399053309921,-29.037876869982465,-0.5844194845105756,-0.2509,-0.9349,-0.2507,-0.0051
561922.0,437.407542,1.0,-2.17,3.22,-8.53,13.25,-29.19,26.5,20.62,20.19,-4.63,-1.4213862498947791,-0.5122372629392631,0.5570297853605588,-138.585728177911,-29.274683969227155,0.10313241704642767,-0.2474,-0.9354,-0.2527,0.0009
561956.0,437.42559500000004,1.0,-2.0,4.85,-7.93,14.88,-28.5,25.19,-4.06,15.69,-1.19,-0.5071015219722338,0.985799763882504,0.3632159386035507,-138.61814821881748,-29.487919662093987,-0.5844194845105756,-0.2448,-0.9355,-0.2545,-0.0051
561993.0,437.46253099999996,1.0,-1.42,4.52,-10.03,14.06,-28.06,26.37,-6.69,8.06,7.38,-0.5121761101026561,-0.4333467932687829,-1.2657294276119229,-138.7806141249359,-29.476070502113327,-1.0313379546174166,-0.243,-0.9359999999999999,-0.2544,-0.009000000000000001
562028.0,437.51984699999997,1.0,-1.81,5.35,-8.66,14.06,-28.06,26.37,2.19,-21.94,2.69,-0.1933934235586543,0.9397868295474264,-0.4876979491774218,-138.87838831455554,-29.20362846739611,-0.43544897228424,-0.2445,-0.9363,-0.2521,-0.0038
562063.0,437.5782,1.0,-1.84,3.21,-8.58,14.88,-28.87,25.56,3.94,-15.25,0.5,-1.092722913137306,-0.5912987577467521,0.5458496882455215,-139.2059212883253,-29.168105022171197,0.2635608181333149,-0.2411,-0.9373,-0.2518,0.0023
562098.0,437.592288,1.0,-1.63,2.71,-9.02,14.06,-27.37,26.37,1.25,-13.31,14.63,-1.1720512629104118,-1.3270491344925934,0.413746485550778,-139.43670037409964,-28.56464145412097,0.5500415954991054,-0.2432,-0.938,-0.2467,0.0048
562135.0,437.64981900000004,1.0,-1.61,1.7,-9.32,14.5,-28.87,26.69,-30.12,-10.44,45.94,-1.6965824809565682,-2.355614251302369,0.6460174135258292,-139.8686617976523,-27.395500797517954,0.4583674584234223,-0.2485,-0.9393,-0.2368,0.004
562167.0,437.655838,1.0,-1.62,0.05,-9.59,14.5,-28.87,26.69,-85.06,-20.0,90.0,-2.622274122390313,-4.2507643867113565,1.4610115848930665,-139.63551670559374,-24.127512270969643,-0.4010712754482724,-0.2745,-0.9386,-0.209,-0.0035
562204.0,437.697214,1.0,-0.74,9.35,-8.42,13.75,-28.87,24.75,-206.44,-65.5,109.69,1.1676742764716086,2.0050135466394385,-2.582173893407269,-136.65191882638644,-20.285355318851703,-1.2490727279396536,-0.3244,-0.9293,-0.1761,-0.0109
562241.0,437.75481500000006,1.0,-1.91,8.89,-3.54,10.75,-33.06,17.87,-79.37,-71.44,49.94,0.164194475625421,4.264719750916639,1.0318562348841702,-133.6770461216721,-16.616652750638245,0.05729578190040675,-0.3658,-0.9194,-0.1445,0.0005
562276.0,437.77117599999997,1.0,-2.39,7.84,-4.9,10.75,-33.06,17.87,-15.44,-8.94,22.12,-0.8164203265120258,2.550807339466054,0.6407054350692221,-132.95401941873996,-15.540370148995088,0.3093975852894872,-0.3756,-0.9169,-0.1352,0.0027
562311.0,437.808839,1.0,-1.46,7.97,-6.98,9.0,-34.56,15.5,16.94,8.31,-1.12,-0.16477804435873356,1.038447933059962,-0.8360646013797055,-133.32867360141205,-15.262847451308847,-0.04583662483277591,-0.3734,-0.9182,-0.1328,-0.0004
562345.0,437.876546,1.0,-1.41,6.46,-7.93,9.0,-35.69,14.19,15.81,10.19,-4.81,-0.5634917136984641,-0.5632490505599255,-0.4875147352097713,-133.7645266360233,-15.459416628401115,-0.09167325699941424,-0.369,-0.9197,-0.1345,-0.0008
562382.0,437.884607,1.0,-1.75,7.1,-6.75,9.0,-35.5,16.5,-0.5,-17.0,2.44,-0.5772513396872309,0.8376792089135683,-0.09284869608473124,-134.2337582296838,-15.35534492966006,0.13750990383378794,-0.3652,-0.9213,-0.1336,0.0012
562415.0,437.88845999999995,1.0,-1.58,5.83,-7.79,9.0,-35.5,16.5,0.69,-1.69,1.81,-0.7972571452696287,-0.7813526666291271,0.01260747126509365,-134.35177886278402,-15.262847451308847,0.3323159869732291,-0.3645,-0.9217,-0.1328,0.0029
562452.0,437.931297,1.0,-1.96,5.73,-6.21,8.69,-35.75,15.69,-5.56,0.12,15.56,-1.0699236579472131,0.27506352223032016,1.2032667454365311,-134.3222466489682,-14.84673166768115,0.34377519274259805,-0.3658,-0.9216,-0.1292,0.003
562487.0,437.98617300000006,1.0,-3.19,5.35,-0.46,8.25,-35.75,15.25,13.5,97.62,42.38,-1.9349373051579641,4.245732344465061,5.654545174219314,-134.88648767208014,-14.557878496401068,-1.4095117183833985,-0.3619,-0.9235,-0.1267,-0.0123
562522.0,438.00492199999997,1.0,0.79,5.46,-7.34,8.25,-35.75,15.25,77.31,321.31,65.44,-0.16343812829172222,-0.5723451313103172,0.6438442600049719,-136.12747373883852,-15.956826751094518,-10.868106466869214,-0.3338,-0.9276,-0.1388,-0.0947
562556.0,438.053209,1.0,1.87,6.91,-9.86,7.19,-35.5,17.37,10.69,193.81,61.19,-1.1310530524521232,-0.6829365032629373,-2.30610842758576,-134.88648767208014,-16.50085429879803,-19.203632237851558,-0.3143,-0.9235,-0.1435,-0.1668
562593.0,438.094286,1.0,2.81,6.55,-9.7,1.5,-35.19,21.37,1.75,93.81,42.19,-0.9096969111927212,-1.003359747051233,-2.1538817920134186,-133.93995871664828,-16.2808838756779,-22.407668898888765,-0.3085,-0.9203,-0.1416,-0.1943
562628.0,438.111026,1.0,4.59,7.68,-10.35,1.5,-35.19,21.37,-46.63,-18.81,23.94,0.2902620361622553,-1.2307686016798165,-3.8159032334978265,-133.32867360141205,-15.470980940849387,-23.179187018494158,-0.3139,-0.9182,-0.1346,-0.2009
562663.0,438.17413200000004,1.0,2.28,7.74,-6.3,-2.0,-35.19,19.37,-5.88,12.63,5.88,0.08154887539588374,1.667328301174989,-0.29331861960583794,-133.15540493778332,-14.661854827129085,-22.629665556706637,-0.3214,-0.9176,-0.1276,-0.1962
562698.0,438.17763499999995,1.0,3.11,7.61,-7.69,-1.69,-35.5,18.19,-12.19,6.63,-4.56,0.1319791357971366,0.4798413008473559,-1.4393552389155229,-132.75344370342964,-14.823619947246295,-22.98036223475966,-0.3229,-0.9162,-0.129,-0.1992
562735.0,438.227422,1.0,2.02,6.71,-6.86,-1.37,-36.19,16.5,5.06,-20.56,-4.63,-0.4803315951827,0.6431012093651027,0.03322673109455465,-133.04022773049576,-14.823619947246295,-22.477763863075147,-0.3226,-0.9172,-0.129,-0.1949
562769.0,438.265717,1.0,1.23,6.3,-6.37,-1.37,-36.19,16.5,0.44,9.38,-4.06,-0.9958602198129376,0.9001886708329659,0.8636235111933068,-133.0977829759083,-15.043205913037665,-22.477763863075147,-0.3215,-0.9174,-0.1309,-0.1949
562804.0,438.313237,1.0,3.04,6.6,-8.81,-2.06,-35.5,18.75,-4.5,-0.81,-0.5,-0.4727908895190279,-0.8500842157275077,-1.5719055146933645,-132.89662989290295,-15.170359975770204,-22.73485185773412,-0.3215,-0.9167,-0.132,-0.1971
562841.0,438.342191,1.0,1.16,6.02,-6.06,-1.0,-35.19,18.87,-0.06,-14.81,-9.75,-0.907262294884286,0.8429451640994703,1.275769706700684,-133.01147504963205,-15.262847451308847,-22.185757394813148,-0.3231,-0.9171,-0.1328,-0.1924
562874.0,438.36069100000003,1.0,1.89,6.05,-7.04,-1.0,-35.19,18.87,-2.69,19.75,-0.75,-0.7296787563716092,0.07602552657477757,0.3621812996543312,-132.7820481898819,-15.459416628401115,-22.55955209306089,-0.3226,-0.9163,-0.1345,-0.1956
562909.0,438.38862300000005,1.0,2.59,6.37,-7.91,-1.0,-35.5,18.75,4.06,13.44,3.88,-0.5456647612037622,-0.3762555933803493,-0.6534542870915239,-132.58215838722379,-15.540370148995088,-23.12070182440919,-0.3212,-0.9156,-0.1352,-0.2004
562946.0,438.444228,1.0,2.04,6.33,-6.37,-1.37,-34.75,18.87,-3.5,-3.81,-5.69,-0.3256531995294644,0.5999696712572606,0.6228933401571624,-132.5251927099627,-15.575066901599747,-23.02713820533729,-0.3223,-0.9154,-0.1355,-0.1996
562980.0,438.501416,1.0,2.25,6.26,-7.14,-1.37,-34.75,18.87,4.94,19.37,-1.19,-0.5480043987611923,0.08504474791027318,0.06384965462746095,-132.3546807037213,-15.841123321226055,-23.47170516617001,-0.3207,-0.9148,-0.1378,-0.2034
563015.0,438.51710099999997,1.0,2.04,6.53,-7.09,-1.75,-35.5,19.25,-0.63,2.44,-2.06,-0.6994890130127085,0.4017307571217135,-0.012714924446841636,-132.24132459051677,-15.945255673236543,-23.65899809735879,-0.3204,-0.9144,-0.1387,-0.205
563050.0,438.555755,1.0,2.42,6.53,-7.46,-1.37,-35.5,18.06,1.06,0.06,-1.19,-0.516050428060814,0.0706046373501561,-0.3853864471916459,-132.29797094336487,-16.072546557241562,-23.588755762396122,-0.3196,-0.9146,-0.1398,-0.2044
563085.0,438.562669,1.0,2.49,6.23,-7.3,-2.5,-35.19,18.37,-0.37,-1.88,-2.25,-0.384763959369971,-0.0870025313730185,-0.10028632033156093,-132.41145409892673,-16.17670848781425,-23.436594836002673,-0.3187,-0.915,-0.1407,-0.2031
563120.0,438.61905099999996,1.0,2.39,6.65,-7.38,-2.5,-35.19,18.37,-1.44,-3.0,-5.75,-0.4238346276272104,0.20127542683438995,-0.4001542212524463,-132.38305943270692,-16.327188391573927,-23.272776070440536,-0.3196,-0.9149,-0.142,-0.2017
563156.0,438.635,1.0,2.15,6.36,-7.12,-1.0,-35.19,19.69,-2.44,0.31,-5.44,-0.5348218304815264,0.18733782572663926,0.03703536334761637,-132.269639855159,-16.50085429879803,-23.190884791431426,-0.3205,-0.9145,-0.1435,-0.201
563191.0,438.677766,1.0,2.13,6.51,-6.93,-1.75,-35.5,19.56,4.63,12.38,-4.56,-0.4639963526873228,0.4213624644327623,0.08301585127453315,-132.09998463629478,-16.813549410004512,-23.448298031292186,-0.3195,-0.9139,-0.1462,-0.2032
563226.0,438.740575,1.0,2.2,6.21,-7.22,-1.75,-35.5,19.56,6.06,18.25,-6.0,-0.5921982644087094,0.03442398717218165,0.05059463911061535,-131.9590360744759,-17.219083051744406,-23.694122645249475,-0.3181,-0.9134,-0.1497,-0.2053
563259.0,438.79982300000006,1.0,2.2,6.16,-7.39,-1.37,-35.5,20.06,4.31,15.88,0.75,-0.7446858925996087,-0.04192537913578942,-0.034152059992239366,-131.7904095910964,-17.49728858817925,-24.24470448957822,-0.3157,-0.9128,-0.1521,-0.21
563296.0,438.81554900000003,1.0,2.4,6.2,-7.61,-2.06,-35.06,18.75,6.63,14.0,3.06,-0.6837423806016873,-0.16283740392830426,-0.2739293651382475,-131.84655671079122,-17.648026557290144,-24.420541139763646,-0.3135,-0.9129999999999999,-0.1534,-0.2115
563331.0,438.821365,1.0,2.63,6.08,-7.44,-2.06,-35.06,18.75,-4.25,-1.31,-4.0,-0.4381525238888687,-0.28330801019148844,-0.1414482573138649,-131.67829939723129,-17.706010881893693,-24.51434453810049,-0.3145,-0.9124,-0.1539,-0.2123
563365.0,438.865466,1.0,2.23,6.14,-6.84,-1.37,-35.5,20.06,-2.31,-5.88,0.06,-0.4668549273029531,0.2160207739106874,0.3624199359825013,-131.70630400699523,-17.59004678708234,-24.33847679675364,-0.3154,-0.9125,-0.1529,-0.2108
563400.0,438.91915199999994,1.0,2.64,6.62,-7.32,-2.5,-34.75,20.06,-7.31,5.0,1.06,-0.3107836301509591,0.13294437304301174,-0.4042333765206809,-131.48269259246572,-17.54366623938741,-24.50261820231894,-0.3171,-0.9117,-0.1525,-0.2122
563435.0,438.93147,1.0,2.6,6.58,-7.0,-1.37,-35.19,19.25,2.44,1.44,-1.63,-0.20109964481255205,0.27855822073500924,-0.1401265758821193,-131.4269409010407,-17.578451378167774,-24.537797991913113,-0.3173,-0.9115,-0.1528,-0.2125
563470.0,438.94839299999995,1.0,2.5,6.56,-7.45,-1.37,-35.19,19.25,2.19,-3.13,-3.38,-0.4724417792180954,0.07175891038597193,-0.4186983766583481,-131.48269259246572,-17.717608294742977,-24.373645675055762,-0.317,-0.9117,-0.154,-0.2111
563505.0,438.988196,1.0,2.18,6.27,-7.26,-2.06,-35.88,19.69,-3.19,-5.88,-3.88,-0.6636759624581058,0.06353269885358426,-0.008053144417141667,-131.51059102084358,-17.787196618044018,-24.15094866150093,-0.3177,-0.9118,-0.1546,-0.2092
