,TIME,ELAPSED_SECONDS,PSTATE,acc_x,acc_y,acc_z,mag_x,mag_y,mag_z,gyr_x,gyr_y,gyr_z,lin_x,lin_y,lin_z,eul_x,eul_y,eul_z,qua_w,qua_x,qua_y,qua_z
0,1217556.0,992.214036,1.0,5.29,2.37,-8.13,0.25,4.5,22.37,1.06,-1.94,-0.69,0.02686265146569511,0.14726845427387225,-0.17711133530504775,-74.76021635401274,-93.95738073569972,-32.28174931703743,0.1401,-0.6071,-0.7311,-0.278
1,1217556.0,992.214036,1.0,5.29,2.37,-8.13,0.25,4.5,22.37,1.06,-1.94,-0.69,0.02686265146569511,0.14726845427387225,-0.17711133530504775,-74.76021635401274,-93.95738073569972,-32.28174931703743,0.1401,-0.6071,-0.7311,-0.278
2,1217593.0,992.260418,1.0,5.31,2.46,-7.94,-0.06,4.88,22.0,-2.56,-0.56,0.5,0.12740687267369166,0.012845147387309908,-0.056153987253528825,-74.77463787425259,-93.94058643018808,-32.31753913524463,0.1398,-0.6072,-0.731,-0.2783
3,1217593.0,992.260418,1.0,5.31,2.46,-7.94,-0.06,4.88,22.0,-2.56,-0.56,0.5,0.12740687267369166,0.012845147387309908,-0.056153987253528825,-74.77463787425259,-93.94058643018808,-32.31753913524463,0.1398,-0.6072,-0.731,-0.2783
4,1217628.0,992.3252359999999,1.0,5.49,2.42,-8.24,-0.06,4.88,22.0,-0.63,0.63,0.94,0.011738205404201674,0.04740701450183593,-0.3860785252531809,-74.77463787425259,-93.9237947609836,-32.31753913524463,0.14,-0.6072,-0.7309,-0.2783
5,1217628.0,992.3252359999999,1.0,5.49,2.42,-8.24,-0.06,4.88,22.0,-0.63,0.63,0.94,0.011738205404201674,0.04740701450183593,-0.3860785252531809,-74.77463787425259,-93.9237947609836,-32.31753913524463,0.14,-0.6072,-0.7309,-0.2783
6,1217662.0,992.342817,1.0,5.33,2.36,-8.15,1.37,4.06,22.37,2.56,-4.06,0.37,-0.001301601254678375,0.11426480671525185,-0.2127283170304768,-74.81791076036653,-93.94058643018808,-32.25789123557385,0.1393,-0.6075,-0.731,-0.2778
7,1217662.0,992.342817,1.0,5.33,2.36,-8.15,1.37,4.06,22.37,2.56,-4.06,0.37,-0.001301601254678375,0.11426480671525185,-0.2127283170304768,-74.81791076036653,-93.94058643018808,-32.25789123557385,0.1393,-0.6075,-0.731,-0.2778
8,1217695.0,992.3840220000001,1.0,5.35,2.4,-8.11,0.69,3.75,22.0,-0.94,-4.25,1.5,0.03965957983987545,0.0432393025685498,-0.20090502010557465,-74.89006002631827,-93.95738073569972,-32.138622347851936,0.1384,-0.608,-0.7311,-0.2768
9,1217695.0,992.3840220000001,1.0,5.35,2.4,-8.11,0.69,3.75,22.0,-0.94,-4.25,1.5,0.03965957983987545,0.0432393025685498,-0.20090502010557465,-74.89006002631827,-93.95738073569972,-32.138622347851936,0.1384,-0.608,-0.7311,-0.2768
10,1217732.0,992.391958,1.0,5.31,2.31,-8.24,0.69,4.88,22.0,1.31,-12.81,2.06,-0.055195001271793664,0.10436937800176138,-0.26389420300959365,-75.04891103546538,-93.99097726205777,-31.91210981272961,0.1365,-0.6091,-0.7313,-0.2749
11,1217732.0,992.391958,1.0,5.31,2.31,-8.24,0.69,4.88,22.0,1.31,-12.81,2.06,-0.055195001271793664,0.10436937800176138,-0.26389420300959365,-75.04891103546538,-93.99097726205777,-31.91210981272961,0.1365,-0.6091,-0.7313,-0.2749
12,1217765.0,992.4546740000001,1.0,5.19,2.35,-8.08,0.69,4.88,22.0,1.06,-13.75,2.25,0.033606183807204815,0.03667476991918717,-0.07983196203590559,-75.25133001282822,-94.04139186402159,-31.614261757826505,0.1341,-0.6105,-0.7316,-0.2724
13,1217765.0,992.4546740000001,1.0,5.19,2.35,-8.08,0.69,4.88,22.0,1.06,-13.75,2.25,0.033606183807204815,0.03667476991918717,-0.07983196203590559,-75.25133001282822,-94.04139186402159,-31.614261757826505,0.1341,-0.6105,-0.7316,-0.2724
14,1217802.0,992.4609710000001,1.0,5.23,2.31,-8.47,0.69,4.5,22.75,1.0,-11.5,2.06,-0.06364064579605133,0.16430868539611976,-0.4109256676476871,-75.45402498067408,-94.04139186402159,-31.35233671854589,0.132,-0.6119,-0.7316,-0.2702
15,1217802.0,992.4609710000001,1.0,5.23,2.31,-8.47,0.69,4.5,22.75,1.0,-11.5,2.06,-0.06364064579605133,0.16430868539611976,-0.4109256676476871,-75.45402498067408,-94.04139186402159,-31.35233671854589,0.132,-0.6119,-0.7316,-0.2702
16,1217837.0,992.5134300000001,1.0,5.04,2.37,-8.12,2.5,4.88,22.75,-0.06,-13.69,2.13,0.08515498223826923,0.05274030328083002,-0.03930689049113312,-75.65699770780401,-94.04139186402159,-31.06679175207397,0.1296,-0.6133,-0.7316,-0.2678
17,1217837.0,992.5134300000001,1.0,5.04,2.37,-8.12,2.5,4.88,22.75,-0.06,-13.69,2.13,0.08515498223826923,0.05274030328083002,-0.03930689049113312,-75.65699770780401,-94.04139186402159,-31.06679175207397,0.1296,-0.6133,-0.7316,-0.2678
18,1217871.0,992.520328,1.0,5.03,2.4,-8.21,2.5,4.88,22.75,0.31,-5.56,1.31,0.10290099880398196,0.050705050533553335,-0.1156400775121238,-75.84572265044491,-94.05820202109098,-30.84087559172584,0.1275,-0.6146,-0.7317,-0.2659
19,1217871.0,992.520328,1.0,5.03,2.4,-8.21,2.5,4.88,22.75,0.31,-5.56,1.31,0.10290099880398196,0.050705050533553335,-0.1156400775121238,-75.84572265044491,-94.05820202109098,-30.84087559172584,0.1275,-0.6146,-0.7317,-0.2659
20,1217906.0,992.537498,1.0,5.06,2.28,-8.43,1.75,4.06,22.75,1.06,-3.69,0.88,-0.046296923755150377,0.14159478569893702,-0.2851638860917252,-75.88930894202932,-94.07501482571972,-30.757674330799205,0.1271,-0.6149,-0.7318,-0.2652
21,1217906.0,992.537498,1.0,5.06,2.28,-8.43,1.75,4.06,22.75,1.06,-3.69,0.88,-0.046296923755150377,0.14159478569893702,-0.2851638860917252,-75.88930894202932,-94.07501482571972,-30.757674330799205,0.1271,-0.6149,-0.7318,-0.2652
22,1217941.0,992.626964,1.0,5.02,2.26,-8.25,1.37,4.5,22.37,-0.75,-4.88,1.37,-0.032884158023325005,0.0468123816097048,-0.11137536965292938,-75.97652033503749,-94.07501482571972,-30.626963035148037,0.1259,-0.6155,-0.7318,-0.2641
23,1217941.0,992.626964,1.0,5.02,2.26,-8.25,1.37,4.5,22.37,-0.75,-4.88,1.37,-0.032884158023325005,0.0468123816097048,-0.11137536965292938,-75.97652033503749,-94.07501482571972,-30.626963035148037,0.1259,-0.6155,-0.7318,-0.2641
24,1217976.0,992.639859,1.0,4.86,2.42,-8.11,1.37,4.5,22.37,-3.88,-4.06,2.0,0.1683629172434198,0.07364508689755711,0.048866935734166006,-76.09288289681452,-94.00777948611471,-30.603201736078947,0.1249,-0.6163,-0.7314,-0.2639
25,1217976.0,992.639859,1.0,4.86,2.42,-8.11,1.37,4.5,22.37,-3.88,-4.06,2.0,0.1683629172434198,0.07364508689755711,0.048866935734166006,-76.09288289681452,-94.00777948611471,-30.603201736078947,0.1249,-0.6163,-0.7314,-0.2639
26,1218009.0,992.6782189999999,1.0,4.87,2.46,-8.37,2.19,4.5,21.19,-0.37,1.88,-0.5,0.16147096417036988,0.20413815452235615,-0.1812253867676024,-76.09288289681452,-93.99097726205777,-30.63884419055943,0.1247,-0.6163,-0.7313,-0.2642
27,1218009.0,992.6782189999999,1.0,4.87,2.46,-8.37,2.19,4.5,21.19,-0.37,1.88,-0.5,0.16147096417036988,0.20413815452235615,-0.1812253867676024,-76.09288289681452,-93.99097726205777,-30.63884419055943,0.1247,-0.6163,-0.7313,-0.2642
28,1218043.0,992.744833,1.0,4.69,2.1,-8.08,1.75,3.38,21.5,-1.0,2.13,0.25,-0.1049202871548528,0.2400710906499681,0.2346148138560693,-76.04923610928397,-94.02458435289965,-30.650725683430657,0.1251,-0.616,-0.7315,-0.2643
29,1218043.0,992.744833,1.0,4.69,2.1,-8.08,1.75,3.38,21.5,-1.0,2.13,0.25,-0.1049202871548528,0.2400710906499681,0.2346148138560693,-76.04923610928397,-94.02458435289965,-30.650725683430657,0.1251,-0.616,-0.7315,-0.2643
30,1218080.0,992.762116,1.0,4.34,2.09,-7.91,2.5,4.06,22.37,-1.94,7.06,-3.75,-0.04034514005854084,0.4783417769220885,0.5577926968449383,-75.91837365235722,-94.00777948611471,-30.91220422108664,0.1255,-0.6151,-0.7314,-0.2665
31,1218080.0,992.762116,1.0,4.34,2.09,-7.91,2.5,4.06,22.37,-1.94,7.06,-3.75,-0.04034514005854084,0.4783417769220885,0.5577926968449383,-75.91837365235722,-94.00777948611471,-30.91220422108664,0.1255,-0.6151,-0.7314,-0.2665
32,1218115.0,992.808847,1.0,3.06,1.95,-7.09,2.5,4.06,22.37,-6.25,15.94,-7.69,0.18872332922877755,1.1606715963467418,1.9293773152163445,-75.6860165897593,-94.00777948611471,-31.292831778140112,0.1264,-0.6135,-0.7314,-0.2697
33,1218115.0,992.808847,1.0,3.06,1.95,-7.09,2.5,4.06,22.37,-6.25,15.94,-7.69,0.18872332922877755,1.1606715963467418,1.9293773152163445,-75.6860165897593,-94.00777948611471,-31.292831778140112,0.1264,-0.6135,-0.7314,-0.2697
34,1218152.0,992.8256439999999,1.0,1.55,1.2,-5.81,2.19,3.75,22.37,-4.81,46.13,-19.25,-0.04202361337075822,1.9146189655854997,3.9816119544126933,-74.70254413195292,-94.19277872550184,-32.412994497933816,0.1322,-0.6067,-0.7325,-0.2791
35,1218152.0,992.8256439999999,1.0,1.55,1.2,-5.81,2.19,3.75,22.37,-4.81,46.13,-19.25,-0.04202361337075822,1.9146189655854997,3.9816119544126933,-74.70254413195292,-94.19277872550184,-32.412994497933816,0.1322,-0.6067,-0.7325,-0.2791
36,1218187.0,992.8703009999999,1.0,2.54,0.1,-4.02,1.0,4.06,22.37,-6.31,108.87,9.44,-1.05286823397741,0.40684599116004205,5.186266377251961,-73.81143181449299,-93.705742238603,-34.015373611081245,0.1469,-0.6005,-0.7296,-0.2925
37,1218187.0,992.8703009999999,1.0,2.54,0.1,-4.02,1.0,4.06,22.37,-6.31,108.87,9.44,-1.05286823397741,0.40684599116004205,5.186266377251961,-73.81143181449299,-93.705742238603,-34.015373611081245,0.1469,-0.6005,-0.7296,-0.2925
38,1218220.0,992.968733,1.0,4.13,1.36,-5.4,1.0,4.06,22.37,-39.44,159.63,31.37,-0.3625778894670343,0.5725916511456475,2.9068546352730174,-72.75460720541858,-90.89370830665364,-38.367646412161214,0.1803,-0.5931,-0.7126,-0.3286
39,1218220.0,992.968733,1.0,4.13,1.36,-5.4,1.0,4.06,22.37,-39.44,159.63,31.37,-0.3625778894670343,0.5725916511456475,2.9068546352730174,-72.75460720541858,-90.89370830665364,-38.367646412161214,0.1803,-0.5931,-0.7126,-0.3286
40,1218256.0,992.9789519999999,1.0,5.39,1.43,-4.62,-2.25,3.38,23.19,-42.5,166.94,19.87,-0.4800105956834682,-0.2597263825857794,2.58560215123037,-71.59185156940322,-88.46953482425532,-42.065313242449655,0.2058,-0.5849,-0.6976,-0.3589
41,1218256.0,992.9789519999999,1.0,5.39,1.43,-4.62,-2.25,3.38,23.19,-42.5,166.94,19.87,-0.4800105956834682,-0.2597263825857794,2.58560215123037,-71.59185156940322,-88.46953482425532,-42.065313242449655,0.2058,-0.5849,-0.6976,-0.3589
42,1218293.0,992.982242,1.0,6.99,1.04,-3.92,-9.75,2.69,22.69,-49.38,178.94,32.38,-1.1381409877540218,-0.8449906112260364,1.8506003546713476,-69.66789572403633,-84.70655785585106,-47.40653562717492,0.2413,-0.5712,-0.6737,-0.402
43,1218293.0,992.982242,1.0,6.99,1.04,-3.92,-9.75,2.69,22.69,-49.38,178.94,32.38,-1.1381409877540218,-0.8449906112260364,1.8506003546713476,-69.66789572403633,-84.70655785585106,-47.40653562717492,0.2413,-0.5712,-0.6737,-0.402
44,1218328.0,993.023975,1.0,8.38,1.67,-2.86,-9.75,2.69,22.69,-60.38,176.63,49.13,-0.6536795051902282,-1.6918899263013665,0.9803760646536565,-68.5825161330216,-81.06812545338191,-51.48152030899618,0.2676,-0.5634,-0.6499,-0.4343
45,1218328.0,993.023975,1.0,8.38,1.67,-2.86,-9.75,2.69,22.69,-60.38,176.63,49.13,-0.6536795051902282,-1.6918899263013665,0.9803760646536565,-68.5825161330216,-81.06812545338191,-51.48152030899618,0.2676,-0.5634,-0.6499,-0.4343
46,1218361.0,993.042566,1.0,8.98,3.42,-3.53,-18.0,2.25,22.06,-76.37,177.44,31.87,0.8230351529183753,-0.03121232985764522,-0.3972384219460903,-67.14613988325526,-75.5554765131697,-57.31856128888758,0.2983,-0.5529999999999999,-0.6126,-0.4796
47,1218361.0,993.042566,1.0,8.98,3.42,-3.53,-18.0,2.25,22.06,-76.37,177.44,31.87,0.8230351529183753,-0.03121232985764522,-0.3972384219460903,-67.14613988325526,-75.5554765131697,-57.31856128888758,0.2983,-0.5529999999999999,-0.6126,-0.4796
48,1218398.0,993.0458070000001,1.0,10.23,1.33,-2.18,-26.06,2.0,20.0,-41.5,149.5,21.94,-1.2867667442544568,-0.7724893627016225,-0.629905539563504,-64.93213103574271,-71.42240793741999,-62.101886205747824,0.3243,-0.5368,-0.5837,-0.5158
49,1218398.0,993.0458070000001,1.0,10.23,1.33,-2.18,-26.06,2.0,20.0,-41.5,149.5,21.94,-1.2867667442544568,-0.7724893627016225,-0.629905539563504,-64.93213103574271,-71.42240793741999,-62.101886205747824,0.3243,-0.5368,-0.5837,-0.5158
50,1218435.0,993.0900949999999,1.0,10.04,3.32,-1.7,-31.25,1.56,19.87,-72.31,115.87,51.56,0.8224126585999367,-0.18265833082750027,-0.870628368252552,-64.4032127251192,-67.83519390579393,-65.13597459719793,0.3389,-0.5329,-0.5579999999999999,-0.5383
51,1218435.0,993.0900949999999,1.0,10.04,3.32,-1.7,-31.25,1.56,19.87,-72.31,115.87,51.56,0.8224126585999367,-0.18265833082750027,-0.870628368252552,-64.4032127251192,-67.83519390579393,-65.13597459719793,0.3389,-0.5329,-0.5579999999999999,-0.5383
52,1218467.0,993.1082279999999,1.0,8.42,3.14,-1.25,-31.25,1.56,19.87,-51.5,96.12,39.0,1.1362626399749711,0.4631064394146345,0.8170482491564268,-63.79482577106735,-63.79482577106735,-68.36074272349704,0.355,-0.5284,-0.5284,-0.5618
53,1218467.0,993.1082279999999,1.0,8.42,3.14,-1.25,-31.25,1.56,19.87,-51.5,96.12,39.0,1.1362626399749711,0.4631064394146345,0.8170482491564268,-63.79482577106735,-63.79482577106735,-68.36074272349704,0.355,-0.5284,-0.5284,-0.5618
54,1218504.0,993.164198,1.0,9.33,0.22,0.97,-36.19,2.19,19.75,-32.25,83.5,12.0,-1.3665719120009123,-1.9762545940969969,0.7366390304013031,-62.785282198587254,-61.821201404862826,-70.40949185665009,0.3638,-0.5209,-0.5137,-0.5765
55,1218504.0,993.164198,1.0,9.33,0.22,0.97,-36.19,2.19,19.75,-32.25,83.5,12.0,-1.3665719120009123,-1.9762545940969969,0.7366390304013031,-62.785282198587254,-61.821201404862826,-70.40949185665009,0.3638,-0.5209,-0.5137,-0.5765
56,1218541.0,993.2420099999999,1.0,10.52,0.23,2.18,-38.88,2.56,20.87,-63.94,63.81,67.25,-1.0933023738834644,-2.728521150412841,-0.5294789780560779,-62.71817306273571,-58.4578132506004,-72.51283902222842,0.3756,-0.5204,-0.4883,-0.5914
57,1218541.0,993.2420099999999,1.0,10.52,0.23,2.18,-38.88,2.56,20.87,-63.94,63.81,67.25,-1.0933023738834644,-2.728521150412841,-0.5294789780560779,-62.71817306273571,-58.4578132506004,-72.51283902222842,0.3756,-0.5204,-0.4883,-0.5914
58,1218576.0,993.253712,1.0,11.06,3.15,0.02,-38.88,2.56,20.87,-63.88,61.94,62.31,1.3203363502022567,0.587592150961245,-1.6020285994900956,-63.43075774250616,-55.110016849983474,-73.94046239689769,0.3846,-0.5257,-0.4626,-0.6014
59,1218576.0,993.253712,1.0,11.06,3.15,0.02,-38.88,2.56,20.87,-63.88,61.94,62.31,1.3203363502022567,0.587592150961245,-1.6020285994900956,-63.43075774250616,-55.110016849983474,-73.94046239689769,0.3846,-0.5257,-0.4626,-0.6014
60,1218611.0,993.2570710000001,1.0,11.1,1.07,-0.28,-41.5,8.19,23.75,-28.31,30.19,20.81,-0.6218286483220694,0.6531987902475258,-1.3118013522587813,-63.7003688213593,-52.80829290405338,-75.16454533036487,0.3895,-0.5277,-0.4447,-0.6099
61,1218611.0,993.2570710000001,1.0,11.1,1.07,-0.28,-41.5,8.19,23.75,-28.31,30.19,20.81,-0.6218286483220694,0.6531987902475258,-1.3118013522587813,-63.7003688213593,-52.80829290405338,-75.16454533036487,0.3895,-0.5277,-0.4447,-0.6099
62,1218646.0,993.3019619999999,1.0,10.76,1.12,1.21,-42.75,11.25,28.06,-39.75,-21.0,38.94,0.1218277506030594,-0.7366677789400287,-1.0533029733168977,-64.95929683143846,-51.659688661303676,-75.07781120147467,0.38799999999999996,-0.537,-0.4357,-0.6093
63,1218646.0,993.3019619999999,1.0,10.76,1.12,1.21,-42.75,11.25,28.06,-39.75,-21.0,38.94,0.1218277506030594,-0.7366677789400287,-1.0533029733168977,-64.95929683143846,-51.659688661303676,-75.07781120147467,0.38799999999999996,-0.537,-0.4357,-0.6093
64,1218682.0,993.41495,1.0,10.31,2.15,0.84,-39.75,14.38,33.38,-41.5,-17.81,12.13,1.2664039048072606,-0.05434751374654856,-0.6822711789220008,-66.87128845427674,-50.16211368688296,-74.96224409700284,0.3827,-0.551,-0.4239,-0.6085
65,1218682.0,993.41495,1.0,10.31,2.15,0.84,-39.75,14.38,33.38,-41.5,-17.81,12.13,1.2664039048072606,-0.05434751374654856,-0.6822711789220008,-66.87128845427674,-50.16211368688296,-74.96224409700284,0.3827,-0.551,-0.4239,-0.6085
66,1218717.0,993.4644789999999,1.0,9.97,0.69,0.82,-39.75,14.38,33.38,-19.12,-14.38,-13.63,-0.07065608518750488,-0.647377403420176,-0.19961354915594495,-67.60060461724801,-49.9724050156561,-75.17900592971374,0.3742,-0.5563,-0.4224,-0.61
67,1218717.0,993.4644789999999,1.0,9.97,0.69,0.82,-39.75,14.38,33.38,-19.12,-14.38,-13.63,-0.07065608518750488,-0.647377403420176,-0.19961354915594495,-67.60060461724801,-49.9724050156561,-75.17900592971374,0.3742,-0.5563,-0.4224,-0.61
68,1218754.0,993.4841359999999,1.0,11.15,1.35,1.5,-33.5,16.87,39.0,-20.44,-20.75,26.94,0.7873989891641009,-1.1070877189508574,-1.4427659677030158,-68.37459501300991,-49.643922599586496,-74.84676629523163,0.3724,-0.5619,-0.4198,-0.6077
69,1218754.0,993.4841359999999,1.0,11.15,1.35,1.5,-33.5,16.87,39.0,-20.44,-20.75,26.94,0.7873989891641009,-1.1070877189508574,-1.4427659677030158,-68.37459501300991,-49.643922599586496,-74.84676629523163,0.3724,-0.5619,-0.4198,-0.6077
70,1218791.0,993.524192,1.0,10.79,3.08,0.52,-25.87,17.37,42.38,-34.38,-6.19,10.69,2.1675591486451458,0.4953640759474074,-1.2041266197205849,-69.47256064706727,-48.61076799855758,-74.97668509466439,0.368,-0.5698,-0.4116,-0.6086
71,1218791.0,993.524192,1.0,10.79,3.08,0.52,-25.87,17.37,42.38,-34.38,-6.19,10.69,2.1675591486451458,0.4953640759474074,-1.2041266197205849,-69.47256064706727,-48.61076799855758,-74.97668509466439,0.368,-0.5698,-0.4116,-0.6086
72,1218826.0,993.54122,1.0,10.15,1.6,-0.42,-25.87,17.37,42.38,-5.75,20.12,-41.19,0.2941133703951868,0.8123110307927637,-0.4409130329657973,-68.8879335180276,-48.698798646668465,-76.02014547215987,0.3619,-0.5656,-0.4123,-0.6158
73,1218826.0,993.54122,1.0,10.15,1.6,-0.42,-25.87,17.37,42.38,-5.75,20.12,-41.19,0.2941133703951868,0.8123110307927637,-0.4409130329657973,-68.8879335180276,-48.698798646668465,-76.02014547215987,0.3619,-0.5656,-0.4123,-0.6158
74,1218861.0,993.54446,1.0,9.79,0.91,0.23,-18.06,18.69,46.0,8.56,-0.44,-31.62,-0.2629052098728617,-0.11710170461425308,-0.02402993789840302,-67.94570061664109,-49.65654846766405,-76.6030617698578,0.3569,-0.5588,-0.4199,-0.6198
75,1218861.0,993.54446,1.0,9.79,0.91,0.23,-18.06,18.69,46.0,8.56,-0.44,-31.62,-0.2629052098728617,-0.11710170461425308,-0.02402993789840302,-67.94570061664109,-49.65654846766405,-76.6030617698578,0.3569,-0.5588,-0.4199,-0.6198
76,1218895.0,993.585999,1.0,10.31,1.11,2.02,-10.69,20.75,48.38,-8.06,-5.5,-25.06,0.4558580039243208,-1.7906958843834426,-0.5949941839696837,-67.76616359207401,-50.187419272308674,-76.77839320064767,0.3518,-0.5575,-0.4241,-0.621
77,1218895.0,993.585999,1.0,10.31,1.11,2.02,-10.69,20.75,48.38,-8.06,-5.5,-25.06,0.4558580039243208,-1.7906958843834426,-0.5949941839696837,-67.76616359207401,-50.187419272308674,-76.77839320064767,0.3518,-0.5575,-0.4241,-0.621
78,1218932.0,993.603762,1.0,11.98,1.96,0.31,-1.75,20.87,47.88,-61.88,52.0,-7.81,0.08331204735070273,0.27183689699477,-2.3332537806812383,-67.21492107332485,-49.02603833164671,-78.82513609744035,0.3441,-0.5535,-0.4149,-0.6349
79,1218932.0,993.603762,1.0,11.98,1.96,0.31,-1.75,20.87,47.88,-61.88,52.0,-7.81,0.08331204735070273,0.27183689699477,-2.3332537806812383,-67.21492107332485,-49.02603833164671,-78.82513609744035,0.3441,-0.5535,-0.4149,-0.6349
80,1218967.0,993.606831,1.0,14.71,4.12,-4.1,-1.75,20.87,47.88,-135.38,74.56,-24.75,-0.8013889174046479,5.619725549533013,-4.956309071642338,-66.74774731388283,-46.43217889831124,-81.97585599565384,0.3344,-0.5501,-0.3942,-0.6559
81,1218967.0,993.606831,1.0,14.71,4.12,-4.1,-1.75,20.87,47.88,-135.38,74.56,-24.75,-0.8013889174046479,5.619725549533013,-4.956309071642338,-66.74774731388283,-46.43217889831124,-81.97585599565384,0.3344,-0.5501,-0.3942,-0.6559
82,1219004.0,993.646798,1.0,13.13,5.45,-3.68,5.56,18.56,49.5,-91.12,-14.38,-18.87,-0.0847807422503557,6.259615674763383,-3.4768669977683264,-67.32502809337325,-42.679804993171246,-86.1570415333954,0.3063,-0.5543,-0.3639,-0.6829999999999999
83,1219004.0,993.646798,1.0,13.13,5.45,-3.68,5.56,18.56,49.5,-91.12,-14.38,-18.87,-0.0847807422503557,6.259615674763383,-3.4768669977683264,-67.32502809337325,-42.679804993171246,-86.1570415333954,0.3063,-0.5543,-0.3639,-0.6829999999999999
84,1219041.0,993.6636189999999,1.0,10.86,4.83,-0.12,7.0,9.75,49.56,11.63,-78.44,-9.06,1.9469931454236131,2.46075282267556,-1.657939536366655,-69.38891628677108,-43.628654629122934,-84.41228425907684,0.2944,-0.5692,-0.3716,-0.6718
85,1219041.0,993.6636189999999,1.0,10.86,4.83,-0.12,7.0,9.75,49.56,11.63,-78.44,-9.06,1.9469931454236131,2.46075282267556,-1.657939536366655,-69.38891628677108,-43.628654629122934,-84.41228425907684,0.2944,-0.5692,-0.3716,-0.6718
86,1219074.0,993.70415,1.0,8.47,3.72,2.14,7.0,9.75,49.56,24.0,-78.31,-39.19,2.806458851617509,-0.3885652896043166,0.7439955472531423,-70.80264683442816,-45.361988090099786,-82.52350218370225,0.2843,-0.5793,-0.3856,-0.6595
87,1219074.0,993.70415,1.0,8.47,3.72,2.14,7.0,9.75,49.56,24.0,-78.31,-39.19,2.806458851617509,-0.3885652896043166,0.7439955472531423,-70.80264683442816,-45.361988090099786,-82.52350218370225,0.2843,-0.5793,-0.3856,-0.6595
88,1219108.0,993.8009800000001,1.0,8.4,1.75,1.78,9.56,9.19,46.56,41.44,-42.0,-63.44,0.8566472363596851,-1.6174435746687337,1.2368815203268095,-70.67617134909206,-48.40966960291665,-81.17370917960935,0.2721,-0.5784,-0.41,-0.6506
89,1219108.0,993.8009800000001,1.0,8.4,1.75,1.78,9.56,9.19,46.56,41.44,-42.0,-63.44,0.8566472363596851,-1.6174435746687337,1.2368815203268095,-70.67617134909206,-48.40966960291665,-81.17370917960935,0.2721,-0.5784,-0.41,-0.6506
90,1219145.0,993.867507,1.0,8.85,0.73,0.98,11.75,10.25,44.38,2.69,1.94,-58.81,-0.7101297417881607,-1.7132579317930103,1.067298593346516,-69.86346279099202,-49.934480858485706,-81.38512714905085,0.2625,-0.5726,-0.4221,-0.652
91,1219145.0,993.867507,1.0,8.85,0.73,0.98,11.75,10.25,44.38,2.69,1.94,-58.81,-0.7101297417881607,-1.7132579317930103,1.067298593346516,-69.86346279099202,-49.934480858485706,-81.38512714905085,0.2625,-0.5726,-0.4221,-0.652
92,1219180.0,993.886578,1.0,9.44,0.65,-0.27,11.75,10.25,44.38,-12.19,30.31,-32.25,-1.8379076926055509,-0.7557978589058412,0.5513885282783768,-68.47159291816318,-50.27600944578726,-82.81346469014701,0.256,-0.5626,-0.4248,-0.6614
93,1219180.0,993.886578,1.0,9.44,0.65,-0.27,11.75,10.25,44.38,-12.19,30.31,-32.25,-1.8379076926055509,-0.7557978589058412,0.5513885282783768,-68.47159291816318,-50.27600944578726,-82.81346469014701,0.256,-0.5626,-0.4248,-0.6614
94,1219215.0,993.8898369999999,1.0,10.04,1.95,-0.95,14.38,12.88,44.75,-28.81,17.62,6.31,-1.3627528863005802,0.5063836245129842,-0.3615887951751269,-68.11159548513581,-49.65654846766405,-83.6872680998447,0.255,-0.56,-0.4199,-0.6671
95,1219215.0,993.8898369999999,1.0,10.04,1.95,-0.95,14.38,12.88,44.75,-28.81,17.62,6.31,-1.3627528863005802,0.5063836245129842,-0.3615887951751269,-68.11159548513581,-49.65654846766405,-83.6872680998447,0.255,-0.56,-0.4199,-0.6671
96,1219250.0,993.936251,1.0,9.79,3.65,-0.49,13.56,11.38,46.38,-49.19,5.63,12.94,0.29356501810528857,1.2009168234750325,-0.5797987849909259,-68.62413121482328,-48.03303658033746,-84.70655785585106,0.2504,-0.5637,-0.40700000000000003,-0.6737
97,1219250.0,993.936251,1.0,9.79,3.65,-0.49,13.56,11.38,46.38,-49.19,5.63,12.94,0.29356501810528857,1.2009168234750325,-0.5797987849909259,-68.62413121482328,-48.03303658033746,-84.70655785585106,0.2504,-0.5637,-0.40700000000000003,-0.6737
98,1219287.0,993.960117,1.0,9.35,3.52,0.26,13.88,9.38,45.56,-0.63,-1.44,-0.56,0.7155921071761722,0.5905194373019869,-0.14421502422355734,-68.81847155097867,-47.66948159847917,-84.89277022411406,0.2489,-0.5651,-0.4041,-0.6749
99,1219287.0,993.960117,1.0,9.35,3.52,0.26,13.88,9.38,45.56,-0.63,-1.44,-0.56,0.7155921071761722,0.5905194373019869,-0.14421502422355734,-68.81847155097867,-47.66948159847917,-84.89277022411406,0.2489,-0.5651,-0.4041,-0.6749
100,1219319.0,994.0212960000001,1.0,9.23,2.48,0.26,13.88,9.38,45.56,13.25,4.81,-8.5,-0.12077833216687504,0.007284978765198069,0.2465109045912204,-68.44387353354183,-48.120868117186305,-84.83066872325854,0.2498,-0.5624,-0.4077,-0.6745
101,1219319.0,994.0212960000001,1.0,9.23,2.48,0.26,13.88,9.38,45.56,13.25,4.81,-8.5,-0.12077833216687504,0.007284978765198069,0.2465109045912204,-68.44387353354183,-48.120868117186305,-84.83066872325854,0.2498,-0.5624,-0.4077,-0.6745
102,1219356.0,994.050066,1.0,9.29,2.45,0.16,13.19,7.25,44.38,-3.5,7.94,-2.13,-0.25107183083998075,0.07600853796413665,0.20126684065048828,-68.20844247958603,-48.20872972254528,-85.00152199363876,0.2499,-0.5607,-0.4084,-0.6756
103,1219356.0,994.050066,1.0,9.29,2.45,0.16,13.19,7.25,44.38,-3.5,7.94,-2.13,-0.25107183083998075,0.07600853796413665,0.20126684065048828,-68.20844247958603,-48.20872972254528,-85.00152199363876,0.2499,-0.5607,-0.4084,-0.6756
104,1219391.0,994.053994,1.0,9.38,3.06,0.09,13.19,7.88,46.06,-13.69,9.0,2.31,0.13824814592727852,0.5283547734942122,-0.045143170965049606,-68.09776471776088,-47.73212702761914,-85.49988365909948,0.2493,-0.5599,-0.4046,-0.6788
105,1219391.0,994.053994,1.0,9.38,3.06,0.09,13.19,7.88,46.06,-13.69,9.0,2.31,0.13824814592727852,0.5283547734942122,-0.045143170965049606,-68.09776471776088,-47.73212702761914,-85.49988365909948,0.2493,-0.5599,-0.4046,-0.6788
106,1219426.0,994.101788,1.0,9.39,2.89,0.16,13.19,7.88,46.06,-1.12,2.88,-0.44,0.027955136138629655,0.40244066532294975,-0.011041175691865137,-68.02862779063561,-47.58180340274293,-85.65603262918377,0.2493,-0.5594,-0.4034,-0.6798
107,1219426.0,994.101788,1.0,9.39,2.89,0.16,13.19,7.88,46.06,-1.12,2.88,-0.44,0.027955136138629655,0.40244066532294975,-0.011041175691865137,-68.02862779063561,-47.58180340274293,-85.65603262918377,0.2493,-0.5594,-0.4034,-0.6798
108,1219461.0,994.121166,1.0,9.42,2.74,0.0,12.38,7.5,45.5,1.12,1.56,-1.12,-0.19513982891109416,0.4353006323913371,0.007852430572807378,-68.00098090210307,-47.68200947327645,-85.6404088628468,0.249,-0.5592,-0.4042,-0.6797
109,1219461.0,994.121166,1.0,9.42,2.74,0.0,12.38,7.5,45.5,1.12,1.56,-1.12,-0.19513982891109416,0.4353006323913371,0.007852430572807378,-68.00098090210307,-47.68200947327645,-85.6404088628468,0.249,-0.5592,-0.4042,-0.6797
110,1219495.0,994.172865,1.0,9.37,2.76,0.22,13.88,8.19,45.06,-2.19,-1.12,-0.31,-0.0418257111117043,0.2583831373002257,0.039644892790887454,-68.05627918144376,-47.694537953351535,-85.60916725031366,0.2484,-0.5596,-0.4043,-0.6795
111,1219495.0,994.172865,1.0,9.37,2.76,0.22,13.88,8.19,45.06,-2.19,-1.12,-0.31,-0.0418257111117043,0.2583831373002257,0.039644892790887454,-68.05627918144376,-47.694537953351535,-85.60916725031366,0.2484,-0.5596,-0.4043,-0.6795
112,1219530.0,994.187532,1.0,9.34,2.9,0.28,13.88,8.19,45.06,-2.19,-2.31,0.31,0.11328744488777764,0.2760545307143596,0.0273371483266871,-68.13926040565448,-47.694537953351535,-85.57793352438526,0.2476,-0.5602,-0.4043,-0.6793
113,1219530.0,994.187532,1.0,9.34,2.9,0.28,13.88,8.19,45.06,-2.19,-2.31,0.31,0.11328744488777764,0.2760545307143596,0.0273371483266871,-68.13926040565448,-47.694537953351535,-85.57793352438526,0.2476,-0.5602,-0.4043,-0.6793
114,1219565.0,994.242884,1.0,9.39,2.79,0.0,13.56,7.0,45.5,0.37,-1.06,-0.12,-0.13896961634469518,0.4235740291541841,0.021075285781160247,-68.20844247958603,-47.74465793118145,-85.51548969920226,0.247,-0.5607,-0.4047,-0.6789
115,1219565.0,994.242884,1.0,9.39,2.79,0.0,13.56,7.0,45.5,0.37,-1.06,-0.12,-0.13896961634469518,0.4235740291541841,0.021075285781160247,-68.20844247958603,-47.74465793118145,-85.51548969920226,0.247,-0.5607,-0.4047,-0.6789
116,1219598.0,994.26075,1.0,9.41,2.77,0.0,13.56,7.38,45.06,0.37,-6.25,1.06,-0.13384507918129296,0.3781369095633351,0.005624646884902162,-68.41615870880295,-47.80732155074712,-85.31276410779735,0.2463,-0.5622,-0.4052,-0.6776
117,1219598.0,994.26075,1.0,9.41,2.77,0.0,13.56,7.38,45.06,0.37,-6.25,1.06,-0.13384507918129296,0.3781369095633351,0.005624646884902162,-68.41615870880295,-47.80732155074712,-85.31276410779735,0.2463,-0.5622,-0.4052,-0.6776
118,1219635.0,994.3393880000001,1.0,9.4,2.76,0.12,13.56,7.0,45.06,-2.81,-9.69,2.25,-0.0347769951509489,0.23493473697793,0.01197817140005242,-68.73515523864087,-47.83239125050407,-85.06370833977694,0.2451,-0.5645,-0.4054,-0.6759999999999999
119,1219635.0,994.3393880000001,1.0,9.4,2.76,0.12,13.56,7.0,45.06,-2.81,-9.69,2.25,-0.0347769951509489,0.23493473697793,0.01197817140005242,-68.73515523864087,-47.83239125050407,-85.06370833977694,0.2451,-0.5645,-0.4054,-0.6759999999999999
120,1219667.0,994.363242,1.0,9.25,2.89,0.3,13.56,7.0,45.06,-1.94,-3.88,0.69,0.2219233713875753,0.15516834959088865,0.11483526794299515,-68.91572639057479,-47.81985609667796,-84.95490252162044,0.244,-0.5658,-0.4053,-0.6753
121,1219667.0,994.363242,1.0,9.25,2.89,0.3,13.56,7.0,45.06,-1.94,-3.88,0.69,0.2219233713875753,0.15516834959088865,0.11483526794299515,-68.91572639057479,-47.81985609667796,-84.95490252162044,0.244,-0.5658,-0.4053,-0.6753
122,1219704.0,994.4222390000001,1.0,9.36,2.76,0.0,13.88,7.38,45.06,-0.19,2.13,-0.25,-0.08545957047358033,0.3205106757852534,0.053846835344101514,-68.86014526786532,-47.81985609667796,-85.00152199363876,0.244,-0.5654,-0.4053,-0.6756
123,1219704.0,994.4222390000001,1.0,9.36,2.76,0.0,13.88,7.38,45.06,-0.19,2.13,-0.25,-0.08545957047358033,0.3205106757852534,0.053846835344101514,-68.86014526786532,-47.81985609667796,-85.00152199363876,0.244,-0.5654,-0.4053,-0.6756
124,1219739.0,994.4477019999999,1.0,9.4,2.78,0.16,14.25,6.56,43.5,-1.0,-0.12,0.12,0.009455912904818842,0.1900445429073936,0.0047219418360171525,-68.8879335180276,-47.81985609667796,-85.01706567993352,0.2436,-0.5656,-0.4053,-0.6757
125,1219739.0,994.4477019999999,1.0,9.4,2.78,0.16,14.25,6.56,43.5,-1.0,-0.12,0.12,0.009455912904818842,0.1900445429073936,0.0047219418360171525,-68.8879335180276,-47.81985609667796,-85.01706567993352,0.2436,-0.5656,-0.4053,-0.6757
126,1219774.0,994.452944,1.0,9.34,2.8,0.07,14.25,6.56,43.5,-2.69,2.0,0.56,-0.01664756963297853,0.28484311013862684,0.059902477824619986,-68.8879335180276,-47.78225428161778,-85.06370833977694,0.2432,-0.5656,-0.405,-0.6759999999999999
127,1219774.0,994.452944,1.0,9.34,2.8,0.07,14.25,6.56,43.5,-2.69,2.0,0.56,-0.01664756963297853,0.28484311013862684,0.059902477824619986,-68.8879335180276,-47.78225428161778,-85.06370833977694,0.2432,-0.5656,-0.405,-0.6759999999999999
128,1219809.0,994.5072289999999,1.0,9.4,2.84,-0.11,13.56,6.56,44.25,-0.31,0.06,0.0,-0.10301452106134967,0.4368007342345413,-0.003359843370326132,-68.90182937625673,-47.81985609667796,-85.03261129904976,0.2428,-0.5657,-0.4053,-0.6758
129,1219809.0,994.5072289999999,1.0,9.4,2.84,-0.11,13.56,6.56,44.25,-0.31,0.06,0.0,-0.10301452106134967,0.4368007342345413,-0.003359843370326132,-68.90182937625673,-47.81985609667796,-85.03261129904976,0.2428,-0.5657,-0.4053,-0.6758
130,1219844.0,994.528386,1.0,9.35,2.8,0.28,15.0,6.5,44.69,-0.56,-1.69,0.25,0.10787692217230427,0.08524924277113755,0.04335162617829269,-68.98522882076507,-47.85746338279603,-84.95490252162044,0.2424,-0.5663,-0.4056,-0.6753
131,1219844.0,994.528386,1.0,9.35,2.8,0.28,15.0,6.5,44.69,-0.56,-1.69,0.25,0.10787692217230427,0.08524924277113755,0.04335162617829269,-68.98522882076507,-47.85746338279603,-84.95490252162044,0.2424,-0.5663,-0.4056,-0.6753
132,1219878.0,994.5827429999999,1.0,9.36,2.8,0.13,15.0,6.5,44.69,0.12,1.44,-0.19,0.017815205329767547,0.20854709869250887,0.038196144548463096,-68.97132601860129,-47.85746338279603,-84.9704404154877,0.2424,-0.5662,-0.4056,-0.6754
133,1219878.0,994.5827429999999,1.0,9.36,2.8,0.13,15.0,6.5,44.69,0.12,1.44,-0.19,0.017815205329767547,0.20854709869250887,0.038196144548463096,-68.97132601860129,-47.85746338279603,-84.9704404154877,0.2424,-0.5662,-0.4056,-0.6754
134,1219913.0,994.5936130000001,1.0,9.38,2.76,0.0,13.75,6.88,45.06,-1.12,1.31,-0.06,-0.097330393956636,0.29000067052814194,0.033808734252074764,-68.94352388945018,-47.8700003617391,-84.98598023915876,0.2423,-0.5660000000000001,-0.4057,-0.6755
135,1219913.0,994.5936130000001,1.0,9.38,2.76,0.0,13.75,6.88,45.06,-1.12,1.31,-0.06,-0.097330393956636,0.29000067052814194,0.033808734252074764,-68.94352388945018,-47.8700003617391,-84.98598023915876,0.2423,-0.5660000000000001,-0.4057,-0.6755
136,1219948.0,994.7365560000001,1.0,9.36,2.82,0.16,14.56,7.25,45.5,-1.37,0.63,0.44,0.04263042514861659,0.19629519070663196,0.03182259257448017,-68.94352388945018,-47.84492701246389,-85.01706567993352,0.2421,-0.5660000000000001,-0.4055,-0.6757
137,1219948.0,994.7365560000001,1.0,9.36,2.82,0.16,14.56,7.25,45.5,-1.37,0.63,0.44,0.04263042514861659,0.19629519070663196,0.03182259257448017,-68.94352388945018,-47.84492701246389,-85.01706567993352,0.2421,-0.5660000000000001,-0.4055,-0.6757
138,1219983.0,994.80345,1.0,9.37,2.81,0.18,14.56,7.25,45.06,0.06,2.88,-0.44,0.035631120268655225,0.1756913010666512,0.024356659990312224,-68.90182937625673,-47.84492701246389,-85.06370833977694,0.242,-0.5657,-0.4055,-0.6759999999999999
139,1219983.0,994.80345,1.0,9.37,2.81,0.18,14.56,7.25,45.06,0.06,2.88,-0.44,0.035631120268655225,0.1756913010666512,0.024356659990312224,-68.90182937625673,-47.84492701246389,-85.06370833977694,0.242,-0.5657,-0.4055,-0.6759999999999999
140,1220018.0,994.8135689999999,1.0,9.38,2.78,0.12,14.56,7.25,45.06,-0.56,3.63,-0.56,-0.03626324898469446,0.21611368895140348,0.02507651460303606,-68.81847155097867,-47.84492701246389,-85.1414848365832,0.2422,-0.5651,-0.4055,-0.6765
141,1220018.0,994.8135689999999,1.0,9.38,2.78,0.12,14.56,7.25,45.06,-0.56,3.63,-0.56,-0.03626324898469446,0.21611368895140348,0.02507651460303606,-68.81847155097867,-47.84492701246389,-85.1414848365832,0.2422,-0.5651,-0.4055,-0.6765
142,1220055.0,994.891445,1.0,9.37,2.8,0.11,14.19,7.25,45.88,-0.75,1.25,0.0,-0.03212589315718284,0.2457484323014669,0.02976012463522615,-68.76292273675115,-47.80732155074712,-85.20374096421402,0.2422,-0.5647,-0.4052,-0.6769
143,1220055.0,994.891445,1.0,9.37,2.8,0.11,14.19,7.25,45.88,-0.75,1.25,0.0,-0.03212589315718284,0.2457484323014669,0.02976012463522615,-68.76292273675115,-47.80732155074712,-85.20374096421402,0.2422,-0.5647,-0.4052,-0.6769
144,1220089.0,994.9142400000001,1.0,9.32,2.8,0.28,13.75,6.5,44.25,0.0,2.81,-0.5,0.06977943749686089,0.1188878883902309,0.0720829063847539,-68.70739234130575,-47.80732155074712,-85.2504534784823,0.2424,-0.5643,-0.4052,-0.6772
145,1220089.0,994.9142400000001,1.0,9.32,2.8,0.28,13.75,6.5,44.25,0.0,2.81,-0.5,0.06977943749686089,0.1188878883902309,0.0720829063847539,-68.70739234130575,-47.80732155074712,-85.2504534784823,0.2424,-0.5643,-0.4052,-0.6772
146,1220122.0,994.9176550000001,1.0,9.37,2.8,0.13,13.75,6.5,44.25,-0.25,3.38,-0.56,-0.040738664254979295,0.2453038766743665,0.029535580636624207,-68.61025837525389,-47.80732155074712,-85.32834664281017,0.2426,-0.5636,-0.4052,-0.6777
147,1220122.0,994.9176550000001,1.0,9.37,2.8,0.13,13.75,6.5,44.25,-0.25,3.38,-0.56,-0.040738664254979295,0.2453038766743665,0.029535580636624207,-68.61025837525389,-47.80732155074712,-85.32834664281017,0.2426,-0.5636,-0.4052,-0.6777
148,1220157.0,994.9665269999999,1.0,9.36,2.76,0.13,13.5,6.88,44.56,-1.19,1.94,0.12,-0.0752200284827026,0.2319647187885723,0.05038871216271623,-68.56864672938487,-47.78225428161778,-85.37510597064201,0.2427,-0.5633,-0.405,-0.6779999999999999
149,1220157.0,994.9665269999999,1.0,9.36,2.76,0.13,13.5,6.88,44.56,-1.19,1.94,0.12,-0.0752200284827026,0.2319647187885723,0.05038871216271623,-68.56864672938487,-47.78225428161778,-85.37510597064201,0.2427,-0.5633,-0.405,-0.6779999999999999
150,1220194.0,994.97416,1.0,9.33,2.85,0.29,13.5,6.88,45.5,0.37,3.0,-0.94,0.07865823255901727,0.16314473905211946,0.048438243916288926,-68.47159291816318,-47.78225428161778,-85.46867747110112,0.2428,-0.5626,-0.405,-0.6786
151,1220194.0,994.97416,1.0,9.33,2.85,0.29,13.5,6.88,45.5,0.37,3.0,-0.94,0.07865823255901727,0.16314473905211946,0.048438243916288926,-68.47159291816318,-47.78225428161778,-85.46867747110112,0.2428,-0.5626,-0.405,-0.6786
152,1220227.0,994.9965109999999,1.0,9.35,2.77,0.2,13.5,6.88,45.5,-0.5,3.75,-0.69,-0.05219842491819005,0.19752133712823805,0.05505214909294232,-68.37459501300991,-47.80732155074712,-85.5310977047494,0.2431,-0.5619,-0.4052,-0.679
153,1220227.0,994.9965109999999,1.0,9.35,2.77,0.2,13.5,6.88,45.5,-0.5,3.75,-0.69,-0.05219842491819005,0.19752133712823805,0.05505214909294232,-68.37459501300991,-47.80732155074712,-85.5310977047494,0.2431,-0.5619,-0.4052,-0.679
154,1220261.0,995.0007410000001,1.0,9.39,2.85,0.08,14.56,7.25,45.5,-1.37,2.5,0.37,-0.07747459276683966,0.3475699657191953,-0.000194181815349026,-68.31919267545712,-47.75718944121001,-85.62478707023612,0.2431,-0.5615,-0.4048,-0.6796
155,1220261.0,995.0007410000001,1.0,9.39,2.85,0.08,14.56,7.25,45.5,-1.37,2.5,0.37,-0.07747459276683966,0.3475699657191953,-0.000194181815349026,-68.31919267545712,-47.75718944121001,-85.62478707023612,0.2431,-0.5615,-0.4048,-0.6796
156,1220296.0,995.046549,1.0,9.36,2.82,0.37,13.06,7.56,44.25,-0.12,1.0,-0.06,0.06700346095390164,0.09770026858619896,0.024785903942523998,-68.29149832235984,-47.75718944121001,-85.6404088628468,0.2431,-0.5613,-0.4048,-0.6797
157,1220296.0,995.046549,1.0,9.36,2.82,0.37,13.06,7.56,44.25,-0.12,1.0,-0.06,0.06700346095390164,0.09770026858619896,0.024785903942523998,-68.29149832235984,-47.75718944121001,-85.6404088628468,0.2431,-0.5613,-0.4048,-0.6797
158,1220331.0,995.0664419999999,1.0,9.35,2.8,0.29,13.06,7.56,44.25,-0.06,2.0,0.0,0.0007683628003144483,0.15907719189360092,0.04338754031789627,-68.23612322826888,-47.75718944121001,-85.68728608719269,0.2432,-0.5609,-0.4048,-0.68
159,1220331.0,995.0664419999999,1.0,9.35,2.8,0.29,13.06,7.56,44.25,-0.06,2.0,0.0,0.0007683628003144483,0.15907719189360092,0.04338754031789627,-68.23612322826888,-47.75718944121001,-85.68728608719269,0.2432,-0.5609,-0.4048,-0.68
160,1220366.0,995.0695210000001,1.0,9.4,2.81,0.17,13.75,5.75,45.5,-0.25,-0.19,0.25,-0.07125420541780625,0.2551331071656484,-0.002265838961932332,-68.23612322826888,-47.76972155794277,-85.67165837028584,0.2432,-0.5609,-0.4049,-0.6799
161,1220366.0,995.0695210000001,1.0,9.4,2.81,0.17,13.75,5.75,45.5,-0.25,-0.19,0.25,-0.07125420541780625,0.2551331071656484,-0.002265838961932332,-68.23612322826888,-47.76972155794277,-85.67165837028584,0.2432,-0.5609,-0.4049,-0.6799
162,1220401.0,995.1000460000001,1.0,9.34,2.81,0.35,13.5,6.88,45.5,-0.56,-0.12,0.31,0.044980356309176295,0.1103455526089392,0.047551648893703564,-68.2499653014806,-47.78225428161778,-85.67165837028584,0.243,-0.561,-0.405,-0.6799
163,1220401.0,995.1000460000001,1.0,9.34,2.81,0.35,13.5,6.88,45.5,-0.56,-0.12,0.31,0.044980356309176295,0.1103455526089392,0.047551648893703564,-68.2499653014806,-47.78225428161778,-85.67165837028584,0.243,-0.561,-0.405,-0.6799
164,1220435.0,995.1191279999999,1.0,9.34,2.82,0.34,14.19,6.5,45.5,0.44,0.44,-0.25,0.0478090593733097,0.12199188813285232,0.04517304858165439,-68.2499653014806,-47.79478761247317,-85.65603262918377,0.243,-0.561,-0.4051,-0.6798
165,1220435.0,995.1191279999999,1.0,9.34,2.82,0.34,14.19,6.5,45.5,0.44,0.44,-0.25,0.0478090593733097,0.12199188813285232,0.04517304858165439,-68.2499653014806,-47.79478761247317,-85.65603262918377,0.243,-0.561,-0.4051,-0.6798
166,1220470.0,995.136175,1.0,9.38,2.83,0.31,14.19,6.5,45.5,0.81,0.0,0.06,0.02877066330138245,0.14379867395601953,0.005226930348241511,-68.2499653014806,-47.81985609667796,-85.6404088628468,0.243,-0.561,-0.4053,-0.6797
167,1220470.0,995.136175,1.0,9.38,2.83,0.31,14.19,6.5,45.5,0.81,0.0,0.06,0.02877066330138245,0.14379867395601953,0.005226930348241511,-68.2499653014806,-47.81985609667796,-85.6404088628468,0.243,-0.561,-0.4053,-0.6797
168,1220507.0,995.177368,1.0,9.39,2.79,0.13,13.5,6.06,44.25,-0.94,1.44,0.5,-0.11229058347371547,0.27280961610345145,0.014506938431475547,-68.20844247958603,-47.81985609667796,-85.67165837028584,0.2431,-0.5607,-0.4053,-0.6799
169,1220507.0,995.177368,1.0,9.39,2.79,0.13,13.5,6.06,44.25,-0.94,1.44,0.5,-0.11229058347371547,0.27280961610345145,0.014506938431475547,-68.20844247958603,-47.81985609667796,-85.67165837028584,0.2431,-0.5607,-0.4053,-0.6799
170,1220542.0,995.1973310000001,1.0,9.31,2.87,0.37,13.06,6.5,45.88,-1.56,0.06,0.12,0.1061261363339746,0.12885400911717326,0.058725406143045326,-68.23612322826888,-47.78225428161778,-85.68728608719269,0.2427,-0.5609,-0.405,-0.68
171,1220542.0,995.1973310000001,1.0,9.31,2.87,0.37,13.06,6.5,45.88,-1.56,0.06,0.12,0.1061261363339746,0.12885400911717326,0.058725406143045326,-68.23612322826888,-47.78225428161778,-85.68728608719269,0.2427,-0.5609,-0.405,-0.68
172,1220575.0,995.2479619999999,1.0,9.35,2.78,0.38,13.06,6.5,45.88,-0.37,0.94,-0.12,0.029506525254326618,0.06524311193158905,0.04498145915551177,-68.23612322826888,-47.79478761247317,-85.70291578094474,0.2427,-0.5609,-0.4051,-0.6801
173,1220575.0,995.2479619999999,1.0,9.35,2.78,0.38,13.06,6.5,45.88,-0.37,0.94,-0.12,0.029506525254326618,0.06524311193158905,0.04498145915551177,-68.23612322826888,-47.79478761247317,-85.70291578094474,0.2427,-0.5609,-0.4051,-0.6801
174,1220610.0,995.307124,1.0,9.38,2.84,0.23,14.19,6.88,44.25,-1.63,0.69,0.25,-0.021383557733744563,0.224454024510562,0.006034553287493694,-68.20844247958603,-47.75718944121001,-85.74981673368876,0.2426,-0.5607,-0.4048,-0.6804
175,1220610.0,995.307124,1.0,9.38,2.84,0.23,14.19,6.88,44.25,-1.63,0.69,0.25,-0.021383557733744563,0.224454024510562,0.006034553287493694,-68.20844247958603,-47.75718944121001,-85.74981673368876,0.2426,-0.5607,-0.4048,-0.6804
176,1220644.0,995.323066,1.0,9.41,2.76,0.32,13.06,5.75,45.5,1.0,0.63,-0.12,-0.04349681225423852,0.10171925658030888,-0.004357146066322315,-68.18076625802583,-47.78225428161778,-85.74981673368876,0.2427,-0.5605,-0.405,-0.6804
177,1220644.0,995.323066,1.0,9.41,2.76,0.32,13.06,5.75,45.5,1.0,0.63,-0.12,-0.04349681225423852,0.10171925658030888,-0.004357146066322315,-68.18076625802583,-47.78225428161778,-85.74981673368876,0.2427,-0.5605,-0.405,-0.6804
178,1220679.0,995.327052,1.0,9.36,2.79,0.33,13.06,5.75,45.5,-2.44,0.0,1.12,0.0016032163109614972,0.1182442794276406,0.03482234494589953,-68.20844247958603,-47.74465793118145,-85.74981673368876,0.2426,-0.5607,-0.4047,-0.6804
179,1220679.0,995.327052,1.0,9.36,2.79,0.33,13.06,5.75,45.5,-2.44,0.0,1.12,0.0016032163109614972,0.1182442794276406,0.03482234494589953,-68.20844247958603,-47.74465793118145,-85.74981673368876,0.2426,-0.5607,-0.4047,-0.6804
180,1220714.0,995.369383,1.0,9.37,2.64,0.27,13.06,6.5,44.25,-2.81,-0.19,3.5,-0.14333495877454416,0.0919947011629796,0.06958719520352298,-68.2776528480455,-47.64442766376834,-85.7654543452423,0.2426,-0.5612,-0.4039,-0.6805
181,1220714.0,995.369383,1.0,9.37,2.64,0.27,13.06,6.5,44.25,-2.81,-0.19,3.5,-0.14333495877454416,0.0919947011629796,0.06958719520352298,-68.2776528480455,-47.64442766376834,-85.7654543452423,0.2426,-0.5612,-0.4039,-0.6805
182,1220749.0,995.411323,1.0,9.33,2.69,0.44,12.25,6.5,45.06,-15.44,3.44,8.38,0.02060293862245699,0.027624739023098588,0.0867008029766918,-68.44387353354183,-47.2313854664036,-85.92193964679629,0.2423,-0.5624,-0.4006,-0.6815
183,1220749.0,995.411323,1.0,9.33,2.69,0.44,12.25,6.5,45.06,-15.44,3.44,8.38,0.02060293862245699,0.027624739023098588,0.0867008029766918,-68.44387353354183,-47.2313854664036,-85.92193964679629,0.2423,-0.5624,-0.4006,-0.6815
184,1220784.0,995.437019,1.0,9.39,2.75,0.33,12.25,6.06,45.06,-13.81,3.75,9.06,0.009586869640933915,0.21830795871687925,0.019119681932455283,-68.66575661319368,-46.58184673902731,-86.23550907382523,0.242,-0.564,-0.3954,-0.6835
185,1220784.0,995.437019,1.0,9.39,2.75,0.33,12.25,6.06,45.06,-13.81,3.75,9.06,0.009586869640933915,0.21830795871687925,0.019119681932455283,-68.66575661319368,-46.58184673902731,-86.23550907382523,0.242,-0.564,-0.3954,-0.6835
186,1220818.0,995.4538660000001,1.0,9.36,2.93,0.3,12.25,6.06,45.06,-7.94,2.25,4.5,0.1452829992097454,0.37980342556028623,0.002612963754508257,-68.77680821232158,-46.25767230528911,-86.37687760452374,0.2413,-0.5648,-0.3928,-0.6844
187,1220818.0,995.4538660000001,1.0,9.36,2.93,0.3,12.25,6.06,45.06,-7.94,2.25,4.5,0.1452829992097454,0.37980342556028623,0.002612963754508257,-68.77680821232158,-46.25767230528911,-86.37687760452374,0.2413,-0.5648,-0.3928,-0.6844
188,1220853.0,995.534634,1.0,9.35,2.77,0.46,12.69,4.69,45.5,2.94,1.75,-1.44,0.10937472219620747,0.1584466047447617,0.0460182661628199,-68.73515523864087,-46.282594858931596,-86.4083150637589,0.2412,-0.5645,-0.39299999999999996,-0.6846
189,1220853.0,995.534634,1.0,9.35,2.77,0.46,12.69,4.69,45.5,2.94,1.75,-1.44,0.10937472219620747,0.1584466047447617,0.0460182661628199,-68.73515523864087,-46.282594858931596,-86.4083150637589,0.2412,-0.5645,-0.39299999999999996,-0.6846
190,1220888.0,995.5458800000001,1.0,9.38,2.69,0.47,12.69,5.06,44.25,2.38,3.5,-2.19,0.02973796008861118,0.10138404830190728,0.03780989850997152,-68.61025837525389,-46.369842053756535,-86.4554864472463,0.2415,-0.5636,-0.3937,-0.6849
191,1220888.0,995.5458800000001,1.0,9.38,2.69,0.47,12.69,5.06,44.25,2.38,3.5,-2.19,0.02973796008861118,0.10138404830190728,0.03780989850997152,-68.61025837525389,-46.369842053756535,-86.4554864472463,0.2415,-0.5636,-0.3937,-0.6849
