,TIME,ELAPSED_SECONDS,PSTATE,acc_x,acc_y,acc_z,mag_x,mag_y,mag_z,gyr_x,gyr_y,gyr_z,lin_x,lin_y,lin_z,eul_x,eul_y,eul_z,qua_w,qua_x,qua_y,qua_z
0,1689911.0,1465.409995,1.0,1.8,4.39,-8.62,28.75,5.19,19.56,1.5,-0.63,-0.69,-0.060580401224550225,0.06001697813040253,-0.03251805310914513,-88.38959436761328,-84.27313057499694,-26.829697512461113,-0.1003,-0.6971,-0.6709,-0.23199999999999998
1,1689911.0,1465.409995,1.0,1.8,4.39,-8.62,28.75,5.19,19.56,1.5,-0.63,-0.69,-0.060580401224550225,0.06001697813040253,-0.03251805310914513,-88.38959436761328,-84.27313057499694,-26.829697512461113,-0.1003,-0.6971,-0.6709,-0.23199999999999998
2,1689948.0,1465.44966,1.0,1.8,4.36,-8.47,27.25,5.88,20.0,0.31,-0.31,0.0,-0.01853719602242621,0.03190820590901655,0.1118504539155456,-88.38959436761328,-84.27313057499694,-26.829697512461113,-0.1003,-0.6971,-0.6709,-0.23199999999999998
3,1689948.0,1465.44966,1.0,1.8,4.36,-8.47,27.25,5.88,20.0,0.31,-0.31,0.0,-0.01853719602242621,0.03190820590901655,0.1118504539155456,-88.38959436761328,-84.27313057499694,-26.829697512461113,-0.1003,-0.6971,-0.6709,-0.23199999999999998
4,1689982.0,1465.4755189999998,1.0,1.79,4.34,-8.54,27.25,5.88,20.0,-2.69,-0.69,0.69,-0.07203525402218924,0.05135218989280688,0.0617295860216931,-88.40557811938011,-84.25767849428371,-26.841478236677798,-0.1005,-0.6972,-0.6708,-0.2321
5,1689982.0,1465.4755189999998,1.0,1.79,4.34,-8.54,27.25,5.88,20.0,-2.69,-0.69,0.69,-0.07203525402218924,0.05135218989280688,0.0617295860216931,-88.40557811938011,-84.25767849428371,-26.841478236677798,-0.1005,-0.6972,-0.6708,-0.2321
6,1690017.0,1465.514452,1.0,1.85,4.4,-8.62,28.06,5.56,19.56,1.31,0.88,0.5,-0.0540719681687899,0.012492486280814674,-0.04646220681287439,-88.42156403973308,-84.25767849428371,-26.841478236677798,-0.1004,-0.6973,-0.6708,-0.2321
7,1690017.0,1465.514452,1.0,1.85,4.4,-8.62,28.06,5.56,19.56,1.31,0.88,0.5,-0.0540719681687899,0.012492486280814674,-0.04646220681287439,-88.42156403973308,-84.25767849428371,-26.841478236677798,-0.1004,-0.6973,-0.6708,-0.2321
8,1690052.0,1465.568802,1.0,1.75,4.47,-8.43,28.75,5.56,20.0,-1.25,0.88,0.63,0.09311176812777576,0.0841499101969414,0.10651860958832593,-88.42156403973308,-84.24222829795386,-26.85325924989716,-0.1005,-0.6973,-0.6707,-0.2322
9,1690052.0,1465.568802,1.0,1.75,4.47,-8.43,28.75,5.56,20.0,-1.25,0.88,0.63,0.09311176812777576,0.0841499101969414,0.10651860958832593,-88.42156403973308,-84.24222829795386,-26.85325924989716,-0.1005,-0.6973,-0.6707,-0.2322
10,1690089.0,1465.588389,1.0,1.82,4.4,-8.46,28.37,5.19,21.25,-0.37,-1.94,0.0,0.014076516770880619,0.00957772458892858,0.09873003129056633,-88.42156403973308,-84.24222829795386,-26.841478236677798,-0.1008,-0.6973,-0.6707,-0.2321
11,1690089.0,1465.588389,1.0,1.82,4.4,-8.46,28.37,5.19,21.25,-0.37,-1.94,0.0,0.014076516770880619,0.00957772458892858,0.09873003129056633,-88.42156403973308,-84.24222829795386,-26.841478236677798,-0.1008,-0.6973,-0.6707,-0.2321
12,1690122.0,1465.617804,1.0,1.6,4.23,-8.44,28.37,5.19,21.25,-1.06,0.44,-0.06,-0.12484700741388545,0.2073128848843444,0.2344018527515832,-88.42156403973308,-84.24222829795386,-26.829697512461113,-0.1008,-0.6973,-0.6707,-0.23199999999999998
13,1690122.0,1465.617804,1.0,1.6,4.23,-8.44,28.37,5.19,21.25,-1.06,0.44,-0.06,-0.12484700741388545,0.2073128848843444,0.2344018527515832,-88.42156403973308,-84.24222829795386,-26.829697512461113,-0.1008,-0.6973,-0.6707,-0.23199999999999998
14,1690159.0,1465.684698,1.0,1.9,4.43,-8.63,28.06,5.56,20.75,1.37,0.12,0.0,-0.040275977900646964,-0.031204190523729025,-0.07814661622321495,-88.38959436761328,-84.24222829795386,-26.87682214392707,-0.1006,-0.6971,-0.6707,-0.2324
15,1690159.0,1465.684698,1.0,1.9,4.43,-8.63,28.06,5.56,20.75,1.37,0.12,0.0,-0.040275977900646964,-0.031204190523729025,-0.07814661622321495,-88.38959436761328,-84.24222829795386,-26.87682214392707,-0.1006,-0.6971,-0.6707,-0.2324
16,1690193.0,1465.749501,1.0,1.79,4.32,-8.51,27.69,5.88,20.75,1.06,0.06,-0.5,-0.0792057792610582,0.047040908500400665,0.0969582645503575,-88.38959436761328,-84.25767849428371,-26.86504055226497,-0.1005,-0.6971,-0.6708,-0.2323
17,1690193.0,1465.749501,1.0,1.79,4.32,-8.51,27.69,5.88,20.75,1.06,0.06,-0.5,-0.0792057792610582,0.047040908500400665,0.0969582645503575,-88.38959436761328,-84.25767849428371,-26.86504055226497,-0.1005,-0.6971,-0.6708,-0.2323
18,1690230.0,1465.752584,1.0,1.75,4.38,-8.46,27.69,5.88,20.75,-2.63,-0.37,0.63,-0.008151966966179702,0.08287889189867226,0.12101297217822447,-88.38959436761328,-84.24222829795386,-26.888604025029306,-0.1007,-0.6971,-0.6707,-0.2325
19,1690230.0,1465.752584,1.0,1.75,4.38,-8.46,27.69,5.88,20.75,-2.63,-0.37,0.63,-0.008151966966179702,0.08287889189867226,0.12101297217822447,-88.38959436761328,-84.24222829795386,-26.888604025029306,-0.1007,-0.6971,-0.6707,-0.2325
20,1690263.0,1465.807433,1.0,1.65,4.29,-8.53,28.37,5.19,18.75,0.88,0.06,0.69,-0.11925871560139455,0.18648627873824355,0.1196225804767419,-88.40557811938011,-84.22677998503734,-26.888604025029306,-0.1007,-0.6972,-0.6706,-0.2325
21,1690263.0,1465.807433,1.0,1.65,4.29,-8.53,28.37,5.19,18.75,0.88,0.06,0.69,-0.11925871560139455,0.18648627873824355,0.1196225804767419,-88.40557811938011,-84.22677998503734,-26.888604025029306,-0.1007,-0.6972,-0.6706,-0.2325
22,1690300.0,1465.8105699999999,1.0,1.59,4.58,-8.29,28.06,5.88,20.37,-2.44,1.12,1.44,0.24029898903235206,0.23929397912393655,0.2090672424810478,-88.40557811938011,-84.1804463370788,-26.97108530932781,-0.1006,-0.6972,-0.6703,-0.2332
23,1690300.0,1465.8105699999999,1.0,1.59,4.58,-8.29,28.06,5.88,20.37,-2.44,1.12,1.44,0.24029898903235206,0.23929397912393655,0.2090672424810478,-88.40557811938011,-84.1804463370788,-26.97108530932781,-0.1006,-0.6972,-0.6703,-0.2332
24,1690335.0,1465.864174,1.0,1.06,4.15,-7.81,28.06,5.88,20.37,2.5,7.13,-0.63,0.08984824723964002,0.6509336661763641,0.9234966941796952,-88.37361278323944,-84.24222829795386,-26.994654003838164,-0.0999,-0.6970000000000001,-0.6707,-0.2334
25,1690335.0,1465.864174,1.0,1.06,4.15,-7.81,28.06,5.88,20.37,2.5,7.13,-0.63,0.08984824723964002,0.6509336661763641,0.9234966941796952,-88.37361278323944,-84.24222829795386,-26.994654003838164,-0.0999,-0.6970000000000001,-0.6707,-0.2334
26,1690370.0,1465.905865,1.0,0.17,4.16,-7.13,27.69,5.19,19.56,2.44,59.13,1.19,0.4203949570305469,1.5501612325523475,1.7077816695975925,-87.99070189101793,-84.38134798435583,-27.82029976108695,-0.09300000000000001,-0.6946,-0.6716,-0.2404
27,1690370.0,1465.905865,1.0,0.17,4.16,-7.13,27.69,5.19,19.56,2.44,59.13,1.19,0.4203949570305469,1.5501612325523475,1.7077816695975925,-87.99070189101793,-84.38134798435583,-27.82029976108695,-0.09300000000000001,-0.6946,-0.6716,-0.2404
28,1690404.0,1465.97735,1.0,-1.44,3.05,-5.07,27.25,5.19,20.0,9.06,224.19,-11.44,0.5644341225727196,3.2017518615584115,4.657747287937671,-85.11036842223878,-85.46867747110112,-32.818938689500946,-0.0481,-0.6763,-0.6786,-0.2825
29,1690404.0,1465.97735,1.0,-1.44,3.05,-5.07,27.25,5.19,20.0,9.06,224.19,-11.44,0.5644341225727196,3.2017518615584115,4.657747287937671,-85.11036842223878,-85.46867747110112,-32.818938689500946,-0.0481,-0.6763,-0.6786,-0.2825
30,1690441.0,1465.9803029999998,1.0,-5.08,-1.74,-0.42,25.06,5.88,22.06,-7.81,302.69,61.88,-1.1065908710242425,4.5501397234818945,12.467868732264959,-82.87459184999501,-84.75308505755767,-38.31911836146923,0.0031,-0.6618,-0.674,-0.3282
31,1690441.0,1465.9803029999998,1.0,-5.08,-1.74,-0.42,25.06,5.88,22.06,-7.81,302.69,61.88,-1.1065908710242425,4.5501397234818945,12.467868732264959,-82.87459184999501,-84.75308505755767,-38.31911836146923,0.0031,-0.6618,-0.674,-0.3282
32,1690474.0,1466.032781,1.0,-0.88,-1.67,2.36,25.06,5.88,22.06,-91.31,391.06,113.56,-0.2966871837675761,-1.172618531608259,12.576098048676295,-79.4196881806162,-78.95868851235781,-50.30132682508742,0.0839,-0.6389,-0.6358,-0.425
33,1690474.0,1466.032781,1.0,-0.88,-1.67,2.36,25.06,5.88,22.06,-91.31,391.06,113.56,-0.2966871837675761,-1.172618531608259,12.576098048676295,-79.4196881806162,-78.95868851235781,-50.30132682508742,0.0839,-0.6389,-0.6358,-0.425
34,1690513.0,1466.036206,1.0,8.23,-1.74,2.36,14.56,4.75,23.25,-118.69,368.44,174.13,-1.9721868136871905,-7.091115878102407,5.099564407487128,-76.9246652327095,-71.74733376464029,-59.84128068972836,0.1443,-0.622,-0.586,-0.4988
35,1690513.0,1466.036206,1.0,8.23,-1.74,2.36,14.56,4.75,23.25,-118.69,368.44,174.13,-1.9721868136871905,-7.091115878102407,5.099564407487128,-76.9246652327095,-71.74733376464029,-59.84128068972836,0.1443,-0.622,-0.586,-0.4988
36,1690550.0,1466.075299,1.0,10.2,1.64,0.68,-3.5,2.88,21.19,-116.69,314.94,170.44,-0.15016247031872654,-3.620337686945004,0.10806215098850204,-74.14139436333637,-60.609606145201504,-71.04181617810505,0.2107,-0.6028,-0.5046,-0.581
37,1690550.0,1466.075299,1.0,10.2,1.64,0.68,-3.5,2.88,21.19,-116.69,314.94,170.44,-0.15016247031872654,-3.620337686945004,0.10806215098850204,-74.14139436333637,-60.609606145201504,-71.04181617810505,0.2107,-0.6028,-0.5046,-0.581
38,1690585.0,1466.128702,1.0,12.09,2.17,-0.66,-3.5,2.88,21.19,-45.88,285.94,128.13,-0.8571718951125944,-0.8870136546341871,-2.4322659290650237,-70.66212462929855,-54.104133233092014,-77.46716810896245,0.259,-0.5783,-0.4548,-0.6257
39,1690585.0,1466.128702,1.0,12.09,2.17,-0.66,-3.5,2.88,21.19,-45.88,285.94,128.13,-0.8571718951125944,-0.8870136546341871,-2.4322659290650237,-70.66212462929855,-54.104133233092014,-77.46716810896245,0.259,-0.5783,-0.4548,-0.6257
40,1690617.0,1466.135459,1.0,12.25,2.99,-0.14,-20.19,2.38,18.75,-79.0,166.69,73.44,-0.14086476210277146,1.0409286427651137,-2.7599256942561285,-66.99491759872723,-47.519194226240366,-83.51817693642106,0.2993,-0.5519,-0.4029,-0.6659999999999999
41,1690617.0,1466.135459,1.0,12.25,2.99,-0.14,-20.19,2.38,18.75,-79.0,166.69,73.44,-0.14086476210277146,1.0409286427651137,-2.7599256942561285,-66.99491759872723,-47.519194226240366,-83.51817693642106,0.2993,-0.5519,-0.4029,-0.6659999999999999
42,1690654.0,1466.1969119999999,1.0,11.76,2.86,1.72,-31.37,5.5,16.25,-8.0,119.25,15.0,0.5301248864900541,0.21467670493622595,-2.4043483833051766,-64.7556530727814,-44.927644585005865,-86.5026760902236,0.3126,-0.5355,-0.3821,-0.6852
43,1690654.0,1466.1969119999999,1.0,11.76,2.86,1.72,-31.37,5.5,16.25,-8.0,119.25,15.0,0.5301248864900541,0.21467670493622595,-2.4043483833051766,-64.7556530727814,-44.927644585005865,-86.5026760902236,0.3126,-0.5355,-0.3821,-0.6852
44,1690691.0,1466.20974,1.0,11.7,-0.56,2.57,-40.25,4.38,18.87,-43.94,64.44,35.88,-2.1416897731502007,-1.5808202960678353,-1.88619704882108,-62.3829855554336,-43.14768015800515,-88.77380536718846,0.3273,-0.5179,-0.3677,-0.6995
45,1690691.0,1466.20974,1.0,11.7,-0.56,2.57,-40.25,4.38,18.87,-43.94,64.44,35.88,-2.1416897731502007,-1.5808202960678353,-1.88619704882108,-62.3829855554336,-43.14768015800515,-88.77380536718846,0.3273,-0.5179,-0.3677,-0.6995
46,1690724.0,1466.303293,1.0,11.82,1.7,3.67,-40.25,4.38,18.87,-62.25,30.87,43.13,0.4687898281962621,-0.7775659465335709,-2.6531624903937114,-62.81213256780961,-39.948769456648414,-90.27472743998257,0.3307,-0.5211,-0.3416,-0.7088
47,1690724.0,1466.303293,1.0,11.82,1.7,3.67,-40.25,4.38,18.87,-62.25,30.87,43.13,0.4687898281962621,-0.7775659465335709,-2.6531624903937114,-62.81213256780961,-39.948769456648414,-90.27472743998257,0.3307,-0.5211,-0.3416,-0.7088
48,1690763.0,1466.3642439999999,1.0,11.92,2.82,3.72,-44.38,7.75,24.69,-20.56,30.94,1.56,1.3755182429573134,0.075981012603489,-2.9204618659739716,-62.557208730764245,-38.75612925877516,-91.2044746461752,0.3316,-0.5192,-0.3318,-0.7145
49,1690763.0,1466.3642439999999,1.0,11.92,2.82,3.72,-44.38,7.75,24.69,-20.56,30.94,1.56,1.3755182429573134,0.075981012603489,-2.9204618659739716,-62.557208730764245,-38.75612925877516,-91.2044746461752,0.3316,-0.5192,-0.3318,-0.7145
50,1690798.0,1466.371469,1.0,11.71,2.01,3.89,-44.06,9.75,33.69,18.87,22.62,-31.25,0.5456507509471336,-0.5170265402394869,-2.67258270135944,-61.22111365086855,-39.2910517001401,-92.15850909816106,0.3299,-0.5092,-0.3362,-0.7203
51,1690798.0,1466.371469,1.0,11.71,2.01,3.89,-44.06,9.75,33.69,18.87,22.62,-31.25,0.5456507509471336,-0.5170265402394869,-2.67258270135944,-61.22111365086855,-39.2910517001401,-92.15850909816106,0.3299,-0.5092,-0.3362,-0.7203
52,1690832.0,1466.3741109999999,1.0,11.33,1.3,3.93,-44.06,9.75,33.69,12.56,11.06,-34.13,-0.1780768647520179,-1.082061618924833,-2.205894746351204,-60.2250699460729,-40.21712102458852,-92.70501720124949,0.3265,-0.5017,-0.3438,-0.7236
53,1690832.0,1466.3741109999999,1.0,11.33,1.3,3.93,-44.06,9.75,33.69,12.56,11.06,-34.13,-0.1780768647520179,-1.082061618924833,-2.205894746351204,-60.2250699460729,-40.21712102458852,-92.70501720124949,0.3265,-0.5017,-0.3438,-0.7236
54,1690867.0,1466.420612,1.0,10.78,2.11,2.79,-41.56,11.88,42.38,-6.69,1.25,-15.69,-0.06067047104808365,0.18872293251851316,-1.524956362236752,-59.88094864187493,-40.461276767806375,-93.18754718833176,0.3217,-0.4991,-0.3458,-0.7265
55,1690867.0,1466.420612,1.0,10.78,2.11,2.79,-41.56,11.88,42.38,-6.69,1.25,-15.69,-0.06067047104808365,0.18872293251851316,-1.524956362236752,-59.88094864187493,-40.461276767806375,-93.18754718833176,0.3217,-0.4991,-0.3458,-0.7265
56,1690902.0,1466.429259,1.0,9.84,1.91,2.69,-34.88,12.19,52.0,4.94,-25.56,-14.0,0.008345224465593049,-0.07563505930199678,-0.5714042345390098,-60.21182344932971,-40.889011943209034,-92.90442546813145,0.3179,-0.5016,-0.3493,-0.7248
57,1690902.0,1466.429259,1.0,9.84,1.91,2.69,-34.88,12.19,52.0,4.94,-25.56,-14.0,0.008345224465593049,-0.07563505930199678,-0.5714042345390098,-60.21182344932971,-40.889011943209034,-92.90442546813145,0.3179,-0.5016,-0.3493,-0.7248
58,1690939.0,1466.432401,1.0,9.58,1.53,2.55,-25.37,13.75,58.69,-15.13,-35.69,-1.94,-0.2169398360018284,-0.3946395017853335,-0.21417814797190893,-61.23442867267935,-41.24387223496928,-92.34037663402384,0.3102,-0.5093,-0.3522,-0.7214
59,1690939.0,1466.432401,1.0,9.58,1.53,2.55,-25.37,13.75,58.69,-15.13,-35.69,-1.94,-0.2169398360018284,-0.3946395017853335,-0.21417814797190893,-61.23442867267935,-41.24387223496928,-92.34037663402384,0.3102,-0.5093,-0.3522,-0.7214
60,1690974.0,1466.483172,1.0,9.59,2.17,3.56,-25.37,13.75,58.69,-28.06,-37.0,14.19,1.0033448519433756,-0.9534033681849828,-0.5584318195329381,-62.570617174057595,-40.889011943209034,-91.72982641130142,0.3054,-0.5193,-0.3493,-0.7177
61,1690974.0,1466.483172,1.0,9.59,2.17,3.56,-25.37,13.75,58.69,-28.06,-37.0,14.19,1.0033448519433756,-0.9534033681849828,-0.5584318195329381,-62.570617174057595,-40.889011943209034,-91.72982641130142,0.3054,-0.5193,-0.3493,-0.7177
62,1691011.0,1466.600829,1.0,13.04,3.84,4.22,-13.06,14.75,64.37,-80.06,8.69,21.12,2.040860340131493,-0.1217433879098746,-4.279359641469748,-64.03793803426306,-39.2910517001401,-91.74628360102051,0.301,-0.5302,-0.3362,-0.7178
63,1691011.0,1466.600829,1.0,13.04,3.84,4.22,-13.06,14.75,64.37,-80.06,8.69,21.12,2.040860340131493,-0.1217433879098746,-4.279359641469748,-64.03793803426306,-39.2910517001401,-91.74628360102051,0.301,-0.5302,-0.3362,-0.7178
64,1691047.0,1466.661613,1.0,14.95,7.29,2.12,0.06,14.75,69.37,-214.13,97.25,18.0,2.6356898608426267,4.869837210496831,-6.019872817748434,-64.20019215099853,-34.45901715267948,-95.49691057600175,0.2862,-0.5314,-0.2962,-0.7402
65,1691047.0,1466.661613,1.0,14.95,7.29,2.12,0.06,14.75,69.37,-214.13,97.25,18.0,2.6356898608426267,4.869837210496831,-6.019872817748434,-64.20019215099853,-34.45901715267948,-95.49691057600175,0.2862,-0.5314,-0.2962,-0.7402
66,1691082.0,1466.665318,1.0,14.11,8.17,-3.35,0.06,14.75,69.37,-8.5,91.12,35.5,-0.8125904360224472,10.562534584652763,-3.0321996342662696,-62.31601934999826,-29.09706672256259,-100.27771483475884,0.2828,-0.5174,-0.2512,-0.7676
67,1691082.0,1466.665318,1.0,14.11,8.17,-3.35,0.06,14.75,69.37,-8.5,91.12,35.5,-0.8125904360224472,10.562534584652763,-3.0321996342662696,-62.31601934999826,-29.09706672256259,-100.27771483475884,0.2828,-0.5174,-0.2512,-0.7676
68,1691115.0,1466.709742,1.0,10.79,5.15,-0.52,3.25,2.38,71.25,101.94,-67.31,-18.62,0.2690866982810318,5.511954317673452,-0.8123401567281459,-62.249076797667115,-32.31753913524463,-97.98086184027687,0.2931,-0.5169,-0.2783,-0.7546
69,1691115.0,1466.709742,1.0,10.79,5.15,-0.52,3.25,2.38,71.25,101.94,-67.31,-18.62,0.2690866982810318,5.511954317673452,-0.8123401567281459,-62.249076797667115,-32.31753913524463,-97.98086184027687,0.2931,-0.5169,-0.2783,-0.7546
70,1691152.0,1466.725768,1.0,7.62,0.4,5.91,-1.0,2.56,72.0,83.81,-104.06,-85.94,1.6457937710497068,-3.5931295122135736,1.0013514149641782,-63.44422897307763,-36.769926221818416,-94.96992497557171,0.2842,-0.5258,-0.3154,-0.7371
71,1691152.0,1466.725768,1.0,7.62,0.4,5.91,-1.0,2.56,72.0,83.81,-104.06,-85.94,1.6457937710497068,-3.5931295122135736,1.0013514149641782,-63.44422897307763,-36.769926221818416,-94.96992497557171,0.2842,-0.5258,-0.3154,-0.7371
72,1691189.0,1466.77509,1.0,7.29,-0.92,6.13,-1.0,2.56,72.0,-27.81,-30.31,-71.62,0.81383358087074,-5.0386488817021835,1.7123870718781014,-63.83532215478704,-38.74398218156732,-94.93601676687223,0.2599,-0.5287,-0.3317,-0.7369
73,1691189.0,1466.77509,1.0,7.29,-0.92,6.13,-1.0,2.56,72.0,-27.81,-30.31,-71.62,0.81383358087074,-5.0386488817021835,1.7123870718781014,-63.83532215478704,-38.74398218156732,-94.93601676687223,0.2599,-0.5287,-0.3317,-0.7369
74,1691224.0,1466.777883,1.0,8.83,0.91,3.92,5.0,12.19,66.69,-40.31,62.31,-8.25,0.18171315940952149,-1.9628957784122685,0.3052069258775898,-62.91957249352721,-37.71311628724267,-96.7830712993422,0.2532,-0.5219,-0.3232,-0.7477
75,1691224.0,1466.777883,1.0,8.83,0.91,3.92,5.0,12.19,66.69,-40.31,62.31,-8.25,0.18171315940952149,-1.9628957784122685,0.3052069258775898,-62.91957249352721,-37.71311628724267,-96.7830712993422,0.2532,-0.5219,-0.3232,-0.7477
76,1691258.0,1466.91886,1.0,10.3,1.94,1.43,7.88,10.38,64.75,-51.25,76.44,-10.56,-1.5148729210127585,1.1187104537087522,-0.6025837351961254,-60.51671820753376,-35.612600576556765,-100.20622564478924,0.2531,-0.5039,-0.3058,-0.7672
77,1691258.0,1466.91886,1.0,10.3,1.94,1.43,7.88,10.38,64.75,-51.25,76.44,-10.56,-1.5148729210127585,1.1187104537087522,-0.6025837351961254,-60.51671820753376,-35.612600576556765,-100.20622564478924,0.2531,-0.5039,-0.3058,-0.7672
78,1691293.0,1466.984535,1.0,10.25,2.61,1.37,5.56,7.25,66.0,-38.31,12.0,-13.56,-1.2604111339567263,1.7599096081513128,-0.6367968421366808,-59.88094864187493,-34.48301299993159,-101.7734021529752,0.2469,-0.4991,-0.2964,-0.7759
79,1691293.0,1466.984535,1.0,10.25,2.61,1.37,5.56,7.25,66.0,-38.31,12.0,-13.56,-1.2604111339567263,1.7599096081513128,-0.6367968421366808,-59.88094864187493,-34.48301299993159,-101.7734021529752,0.2469,-0.4991,-0.2964,-0.7759
80,1691328.0,1467.040325,1.0,9.37,2.4,2.56,5.56,7.25,66.0,-16.44,-18.25,3.88,-0.25205952640608265,0.6780535592834087,-0.1726891247061566,-60.58306224717521,-34.015373611081245,-101.70077262436087,0.2424,-0.5044,-0.2925,-0.7755
81,1691328.0,1467.040325,1.0,9.37,2.4,2.56,5.56,7.25,66.0,-16.44,-18.25,3.88,-0.25205952640608265,0.6780535592834087,-0.1726891247061566,-60.58306224717521,-34.015373611081245,-101.70077262436087,0.2424,-0.5044,-0.2925,-0.7755
82,1691363.0,1467.047834,1.0,8.51,2.61,3.46,4.75,3.06,65.19,-15.19,-18.69,8.19,0.8994616328849409,0.12956193858246645,0.2999164666017524,-61.367629313530685,-33.62013451285477,-101.30231586461944,0.2407,-0.5103,-0.2892,-0.7733
83,1691363.0,1467.047834,1.0,8.51,2.61,3.46,4.75,3.06,65.19,-15.19,-18.69,8.19,0.8994616328849409,0.12956193858246645,0.2999164666017524,-61.367629313530685,-33.62013451285477,-101.30231586461944,0.2407,-0.5103,-0.2892,-0.7733
84,1691400.0,1467.0663359999999,1.0,8.49,2.31,3.57,5.56,2.5,64.25,1.37,4.38,-7.25,0.7925366753331542,-0.18003585114308218,0.34617576714279785,-61.55426474750001,-33.57225481905068,-101.26617635567743,0.2388,-0.5117,-0.2888,-0.7731
85,1691400.0,1467.0663359999999,1.0,8.49,2.31,3.57,5.56,2.5,64.25,1.37,4.38,-7.25,0.7925366753331542,-0.18003585114308218,0.34617576714279785,-61.55426474750001,-33.57225481905068,-101.26617635567743,0.2388,-0.5117,-0.2888,-0.7731
86,1691435.0,1467.069489,1.0,9.04,1.94,2.92,5.56,2.5,64.25,2.56,14.5,-9.38,-0.15642395318671587,0.04770224093679842,0.11207130657143873,-61.10131959894817,-33.71591204499429,-101.6281995958626,0.2383,-0.5083,-0.29,-0.7751
87,1691435.0,1467.069489,1.0,9.04,1.94,2.92,5.56,2.5,64.25,2.56,14.5,-9.38,-0.15642395318671587,0.04770224093679842,0.11207130657143873,-61.10131959894817,-33.71591204499429,-101.6281995958626,0.2383,-0.5083,-0.29,-0.7751
88,1691469.0,1467.108912,1.0,9.21,2.27,2.7,5.56,1.37,64.19,-2.63,12.0,-5.13,-0.2283313082093158,0.4823997182097009,-0.0413018340395368,-60.609606145201504,-33.668020251284275,-102.11916897408959,0.2377,-0.5046,-0.2896,-0.7778
89,1691469.0,1467.108912,1.0,9.21,2.27,2.7,5.56,1.37,64.19,-2.63,12.0,-5.13,-0.2283313082093158,0.4823997182097009,-0.0413018340395368,-60.609606145201504,-33.668020251284275,-102.11916897408959,0.2377,-0.5046,-0.2896,-0.7778
90,1691504.0,1467.115873,1.0,9.08,2.35,3.0,5.19,2.06,63.69,-0.81,2.88,-2.31,0.03941538073905193,0.3284072416120987,-0.035072161868720635,-60.450396568246546,-33.67999263161277,-102.2651416958551,0.2374,-0.5034,-0.2897,-0.7786
91,1691504.0,1467.115873,1.0,9.08,2.35,3.0,5.19,2.06,63.69,-0.81,2.88,-2.31,0.03941538073905193,0.3284072416120987,-0.035072161868720635,-60.450396568246546,-33.67999263161277,-102.2651416958551,0.2374,-0.5034,-0.2897,-0.7786
92,1691541.0,1467.130099,1.0,8.94,2.44,3.07,4.5,1.75,64.37,2.13,-1.37,-4.25,0.17853252452454704,0.30782475464353043,0.0508583838308887,-60.42387417457696,-33.79973728659347,-102.31994097048526,0.23600000000000002,-0.5032,-0.2907,-0.7789
93,1691541.0,1467.130099,1.0,8.94,2.44,3.07,4.5,1.75,64.37,2.13,-1.37,-4.25,0.17853252452454704,0.30782475464353043,0.0508583838308887,-60.42387417457696,-33.79973728659347,-102.31994097048526,0.23600000000000002,-0.5032,-0.2907,-0.7789
94,1691574.0,1467.133192,1.0,8.8,2.21,3.25,4.5,1.75,64.37,0.94,-1.0,-2.56,0.1902080697120476,-0.015139879383767596,0.17076956932483078,-60.41061431817495,-33.931500337029355,-102.2651416958551,0.2355,-0.5031,-0.2918,-0.7786
95,1691574.0,1467.133192,1.0,8.8,2.21,3.25,4.5,1.75,64.37,0.94,-1.0,-2.56,0.1902080697120476,-0.015139879383767596,0.17076956932483078,-60.41061431817495,-33.931500337029355,-102.2651416958551,0.2355,-0.5031,-0.2918,-0.7786
96,1691611.0,1467.17156,1.0,8.91,2.28,3.28,5.19,1.69,64.75,-1.31,5.0,-0.94,0.18866950160322127,0.036646172736152234,0.04407037793347435,-60.278064818090016,-33.871602322817786,-102.4479327130834,0.2351,-0.5021,-0.2913,-0.7796
97,1691611.0,1467.17156,1.0,8.91,2.28,3.28,5.19,1.69,64.75,-1.31,5.0,-0.94,0.18866950160322127,0.036646172736152234,0.04407037793347435,-60.278064818090016,-33.871602322817786,-102.4479327130834,0.2351,-0.5021,-0.2913,-0.7796
98,1691645.0,1467.175528,1.0,8.93,2.34,3.18,5.56,2.0,64.37,-7.13,5.81,0.0,0.13648242246797834,0.1758412051364957,0.04533080539657064,-60.17208928443668,-33.727885940809074,-102.64942299100883,0.2348,-0.5013,-0.2901,-0.7807
99,1691645.0,1467.175528,1.0,8.93,2.34,3.18,5.56,2.0,64.37,-7.13,5.81,0.0,0.13648242246797834,0.1758412051364957,0.04533080539657064,-60.17208928443668,-33.727885940809074,-102.64942299100883,0.2348,-0.5013,-0.2901,-0.7807
100,1691678.0,1467.1929,1.0,8.98,2.44,3.13,5.56,2.0,64.37,-2.06,5.44,-1.06,0.1163057227650388,0.3060168162147712,-0.005777155757433761,-59.9867685475142,-33.644076625825655,-102.88812004458934,0.2343,-0.4999,-0.2894,-0.782
101,1691678.0,1467.1929,1.0,8.98,2.44,3.13,5.56,2.0,64.37,-2.06,5.44,-1.06,0.1163057227650388,0.3060168162147712,-0.005777155757433761,-59.9867685475142,-33.644076625825655,-102.88812004458934,0.2343,-0.4999,-0.2894,-0.782
102,1691713.0,1467.239076,1.0,8.91,2.23,3.15,4.75,0.88,64.0,-0.88,4.38,-1.75,-0.005766443571289304,0.14210850261491248,0.09772256584883544,-59.84128068972836,-33.644076625825655,-103.01690791684817,0.2341,-0.4988,-0.2894,-0.7827
103,1691713.0,1467.239076,1.0,8.91,2.23,3.15,4.75,0.88,64.0,-0.88,4.38,-1.75,-0.005766443571289304,0.14210850261491248,0.09772256584883544,-59.84128068972836,-33.644076625825655,-103.01690791684817,0.2341,-0.4988,-0.2894,-0.7827
104,1691750.0,1467.2588050000002,1.0,8.84,2.11,3.38,4.06,1.69,63.88,-5.13,3.69,2.31,0.07858215751911535,-0.07504474552856166,0.1107594720140206,-59.76196847937517,-33.440616741828144,-103.21965750009808,0.2339,-0.4982,-0.2877,-0.7838
105,1691750.0,1467.2588050000002,1.0,8.84,2.11,3.38,4.06,1.69,63.88,-5.13,3.69,2.31,0.07858215751911535,-0.07504474552856166,0.1107594720140206,-59.76196847937517,-33.440616741828144,-103.21965750009808,0.2339,-0.4982,-0.2877,-0.7838
106,1691783.0,1467.300818,1.0,8.89,2.49,3.24,4.06,1.69,63.88,-10.0,5.88,2.56,0.2110398281495296,0.35142466883878165,0.03108030340092505,-59.73553808607135,-33.08183396795116,-103.45985596974184,0.2335,-0.498,-0.2847,-0.7851
107,1691783.0,1467.300818,1.0,8.89,2.49,3.24,4.06,1.69,63.88,-10.0,5.88,2.56,0.2110398281495296,0.35142466883878165,0.03108030340092505,-59.73553808607135,-33.08183396795116,-103.45985596974184,0.2335,-0.498,-0.2847,-0.7851
108,1691817.0,1467.3639460000002,1.0,8.92,2.34,3.19,4.75,1.69,63.5,-1.25,3.75,-0.81,0.04927577838751651,0.2987209072566217,0.05337169384918461,-59.629851488997545,-32.97426433366517,-103.64505914352164,0.2332,-0.4972,-0.2838,-0.7861
109,1691817.0,1467.3639460000002,1.0,8.92,2.34,3.19,4.75,1.69,63.5,-1.25,3.75,-0.81,0.04927577838751651,0.2987209072566217,0.05337169384918461,-59.629851488997545,-32.97426433366517,-103.64505914352164,0.2332,-0.4972,-0.2838,-0.7861
110,1691852.0,1467.3828330000001,1.0,8.9,2.19,3.38,4.38,0.19,63.5,-1.37,3.0,-0.44,0.06863494198181297,0.06407215689603074,0.0382476739566151,-59.53742151899626,-32.97426433366517,-103.71924706500204,0.2332,-0.4965,-0.2838,-0.7865
111,1691852.0,1467.3828330000001,1.0,8.9,2.19,3.38,4.38,0.19,63.5,-1.37,3.0,-0.44,0.06863494198181297,0.06407215689603074,0.0382476739566151,-59.53742151899626,-32.97426433366517,-103.71924706500204,0.2332,-0.4965,-0.2838,-0.7865
112,1691887.0,1467.4259869999999,1.0,8.84,2.2,3.49,4.38,0.19,63.5,-3.19,2.0,0.75,0.16299604112145727,0.004810595568750076,0.05272211689828943,-59.497821729807775,-32.890619725136126,-103.81206807438305,0.233,-0.4962,-0.2831,-0.787
113,1691887.0,1467.4259869999999,1.0,8.84,2.2,3.49,4.38,0.19,63.5,-3.19,2.0,0.75,0.16299604112145727,0.004810595568750076,0.05272211689828943,-59.497821729807775,-32.890619725136126,-103.81206807438305,0.233,-0.4962,-0.2831,-0.787
114,1691920.0,1467.493267,1.0,8.85,2.29,3.29,4.0,0.5,63.5,-7.31,4.38,1.5,0.07708338786282287,0.2380242354232316,0.09438442421044613,-59.445034172974474,-32.67561619029609,-103.99799847995277,0.2326,-0.4958,-0.2813,-0.7879999999999999
115,1691920.0,1467.493267,1.0,8.85,2.29,3.29,4.0,0.5,63.5,-7.31,4.38,1.5,0.07708338786282287,0.2380242354232316,0.09438442421044613,-59.445034172974474,-32.67561619029609,-103.99799847995277,0.2326,-0.4958,-0.2813,-0.7879999999999999
116,1691955.0,1467.510751,1.0,8.86,2.16,3.42,3.56,-0.56,63.5,-3.44,2.69,1.69,0.06704254584877245,0.07926522201445052,0.06751131520732834,-59.40545261479044,-32.52040941662392,-104.12837981117883,0.2324,-0.4955,-0.28,-0.7887
117,1691955.0,1467.510751,1.0,8.86,2.16,3.42,3.56,-0.56,63.5,-3.44,2.69,1.69,0.06704254584877245,0.07926522201445052,0.06751131520732834,-59.40545261479044,-32.52040941662392,-104.12837981117883,0.2324,-0.4955,-0.28,-0.7887
118,1691992.0,1467.549334,1.0,8.83,2.24,3.48,3.56,0.19,62.69,-6.63,4.0,2.06,0.1665615977613304,0.12878622577834675,0.05715917523377101,-59.39226049534915,-32.28174931703743,-104.29629314706914,0.2321,-0.4954,-0.278,-0.7896
119,1691992.0,1467.549334,1.0,8.83,2.24,3.48,3.56,0.19,62.69,-6.63,4.0,2.06,0.1665615977613304,0.12878622577834675,0.05715917523377101,-59.39226049534915,-32.28174931703743,-104.29629314706914,0.2321,-0.4954,-0.278,-0.7896
120,1692024.0,1467.55477,1.0,8.86,2.2,3.44,3.56,0.19,62.69,-7.5,2.44,2.0,0.09815879051688714,0.15544601395386226,0.05270713628636692,-59.36587885432352,-32.09092481112806,-104.42711160225716,0.2318,-0.4952,-0.2764,-0.7903
121,1692024.0,1467.55477,1.0,8.86,2.2,3.44,3.56,0.19,62.69,-7.5,2.44,2.0,0.09815879051688714,0.15544601395386226,0.05270713628636692,-59.36587885432352,-32.09092481112806,-104.42711160225716,0.2318,-0.4952,-0.2764,-0.7903
122,1692061.0,1467.570841,1.0,8.83,2.31,3.51,3.19,-0.19,63.88,-2.25,2.13,0.19,0.22129927633912536,0.20895441409531126,0.032578960605929914,-59.352689332048705,-31.924028325694472,-104.55812296797363,0.2313,-0.4951,-0.275,-0.7909999999999999
123,1692061.0,1467.570841,1.0,8.83,2.31,3.51,3.19,-0.19,63.88,-2.25,2.13,0.19,0.22129927633912536,0.20895441409531126,0.032578960605929914,-59.352689332048705,-31.924028325694472,-104.55812296797363,0.2313,-0.4951,-0.275,-0.7909999999999999
124,1692094.0,1467.613011,1.0,8.88,2.16,3.53,2.88,-0.56,62.25,-3.0,1.0,0.75,0.11430376036253942,0.09395270380974496,0.010783139950612863,-59.33950067480581,-31.888273849894752,-104.61433000481749,0.2311,-0.495,-0.2747,-0.7913
125,1692094.0,1467.613011,1.0,8.88,2.16,3.53,2.88,-0.56,62.25,-3.0,1.0,0.75,0.11430376036253942,0.09395270380974496,0.010783139950612863,-59.33950067480581,-31.888273849894752,-104.61433000481749,0.2311,-0.495,-0.2747,-0.7913
126,1692129.0,1467.673458,1.0,8.85,2.16,3.45,2.88,-0.56,62.25,-4.81,1.56,1.5,0.07103916104753605,0.16308222237294198,0.06709366378305859,-59.32631288225003,-31.74528777217434,-104.70808777910831,0.2308,-0.4949,-0.2735,-0.7918
127,1692129.0,1467.673458,1.0,8.85,2.16,3.45,2.88,-0.56,62.25,-4.81,1.56,1.5,0.07103916104753605,0.16308222237294198,0.06709366378305859,-59.32631288225003,-31.74528777217434,-104.70808777910831,0.2308,-0.4949,-0.2735,-0.7918
128,1692164.0,1467.686017,1.0,8.83,2.14,3.44,2.88,-1.37,62.69,-6.0,1.37,1.94,0.060982437371847276,0.17029330480520646,0.0932890300436835,-59.33950067480581,-31.602352407672466,-104.78316565832016,0.2305,-0.495,-0.2723,-0.7922
129,1692164.0,1467.686017,1.0,8.83,2.14,3.44,2.88,-1.37,62.69,-6.0,1.37,1.94,0.060982437371847276,0.17029330480520646,0.0932890300436835,-59.33950067480581,-31.602352407672466,-104.78316565832016,0.2305,-0.495,-0.2723,-0.7922
130,1692200.0,1467.6966869999999,1.0,8.86,2.15,3.52,1.69,-1.37,63.06,-3.81,1.69,1.31,0.10653697759302973,0.15003704978267174,0.035332854594379626,-59.33950067480581,-31.43565821002521,-104.89590236711722,0.2302,-0.495,-0.2709,-0.7928
131,1692200.0,1467.6966869999999,1.0,8.86,2.15,3.52,1.69,-1.37,63.06,-3.81,1.69,1.31,0.10653697759302973,0.15003704978267174,0.035332854594379626,-59.33950067480581,-31.43565821002521,-104.89590236711722,0.2302,-0.495,-0.2709,-0.7928
132,1692233.0,1467.776918,1.0,8.87,2.15,3.5,1.69,-1.37,63.06,-2.94,0.75,0.75,0.08521494612303848,0.17478144551205954,0.033646886357706414,-59.32631288225003,-31.35233671854589,-104.97114038563049,0.2299,-0.4949,-0.2702,-0.7932
133,1692233.0,1467.776918,1.0,8.87,2.15,3.5,1.69,-1.37,63.06,-2.94,0.75,0.75,0.08521494612303848,0.17478144551205954,0.033646886357706414,-59.32631288225003,-31.35233671854589,-104.97114038563049,0.2299,-0.4949,-0.2702,-0.7932
134,1692266.0,1467.788866,1.0,8.84,2.03,3.5,2.88,-2.5,63.5,-0.31,-0.06,-0.31,0.02088093032853744,0.08081964275796638,0.08504868272242483,-59.33950067480581,-31.340435037267948,-104.98995994505607,0.2296,-0.495,-0.2701,-0.7933
135,1692266.0,1467.788866,1.0,8.84,2.03,3.5,2.88,-2.5,63.5,-0.31,-0.06,-0.31,0.02088093032853744,0.08081964275796638,0.08504868272242483,-59.33950067480581,-31.340435037267948,-104.98995994505607,0.2296,-0.495,-0.2701,-0.7933
136,1692303.0,1467.8388220000002,1.0,8.81,2.08,3.64,3.56,-1.69,61.0,-5.19,1.44,1.5,0.16027031453933405,0.0372904892029009,0.0513938349527443,-59.352689332048705,-31.233335490801053,-105.0276111512958,0.2295,-0.4951,-0.2692,-0.7935
137,1692303.0,1467.8388220000002,1.0,8.81,2.08,3.64,3.56,-1.69,61.0,-5.19,1.44,1.5,0.16027031453933405,0.0372904892029009,0.0513938349527443,-59.352689332048705,-31.233335490801053,-105.0276111512958,0.2295,-0.4951,-0.2692,-0.7935
138,1692338.0,1467.857184,1.0,8.87,2.14,3.58,3.56,-1.69,61.0,-4.88,1.75,2.69,0.13501785910938535,0.1467949263976529,0.007000953870571536,-59.352689332048705,-31.102474019884113,-105.1029620001446,0.2295,-0.4951,-0.2681,-0.7939
139,1692338.0,1467.857184,1.0,8.87,2.14,3.58,3.56,-1.69,61.0,-4.88,1.75,2.69,0.13501785910938535,0.1467949263976529,0.007000953870571536,-59.352689332048705,-31.102474019884113,-105.1029620001446,0.2295,-0.4951,-0.2681,-0.7939
140,1692370.0,1467.860713,1.0,8.94,2.06,3.41,2.88,-2.06,62.25,-2.19,1.63,1.63,-0.05741009564170441,0.2275029723167863,0.021955498969042253,-59.352689332048705,-30.93598315774567,-105.2161097378776,0.2293,-0.4951,-0.2667,-0.7945
141,1692370.0,1467.860713,1.0,8.94,2.06,3.41,2.88,-2.06,62.25,-2.19,1.63,1.63,-0.05741009564170441,0.2275029723167863,0.021955498969042253,-59.352689332048705,-30.93598315774567,-105.2161097378776,0.2293,-0.4951,-0.2667,-0.7945
142,1692405.0,1467.942192,1.0,8.82,2.1,3.56,2.88,-1.75,63.88,-5.94,-0.12,2.31,0.12237905754831825,0.16233028994607454,0.068340483290255,-59.39226049534915,-30.817102104618424,-105.25385814101205,0.2292,-0.4954,-0.2657,-0.7947
143,1692405.0,1467.942192,1.0,8.82,2.1,3.56,2.88,-1.75,63.88,-5.94,-0.12,2.31,0.12237905754831825,0.16233028994607454,0.068340483290255,-59.39226049534915,-30.817102104618424,-105.25385814101205,0.2292,-0.4954,-0.2657,-0.7947
144,1692442.0,1467.954847,1.0,8.86,2.04,3.65,2.88,-2.88,63.06,-0.44,-0.25,0.88,0.1328076912250411,0.06715089056334689,0.010653221976435034,-59.418645600644645,-30.769559206882434,-105.25385814101205,0.2291,-0.4956,-0.2653,-0.7947
145,1692442.0,1467.954847,1.0,8.86,2.04,3.65,2.88,-2.88,63.06,-0.44,-0.25,0.88,0.1328076912250411,0.06715089056334689,0.010653221976435034,-59.418645600644645,-30.769559206882434,-105.25385814101205,0.2291,-0.4956,-0.2653,-0.7947
146,1692475.0,1467.997942,1.0,8.84,2.0,3.55,2.88,-2.88,63.06,-5.0,0.88,1.88,0.054250363436716964,0.11394897609068133,0.07360461179211164,-59.445034172974474,-30.66260751391823,-105.29162283128352,0.2291,-0.4958,-0.2644,-0.7949
147,1692475.0,1467.997942,1.0,8.84,2.0,3.55,2.88,-2.88,63.06,-5.0,0.88,1.88,0.054250363436716964,0.11394897609068133,0.07360461179211164,-59.445034172974474,-30.66260751391823,-105.29162283128352,0.2291,-0.4958,-0.2644,-0.7949
148,1692512.0,1468.015568,1.0,8.86,2.05,3.6,2.06,-2.5,61.5,0.44,0.12,1.69,0.1131269406126414,0.1316322033840336,0.027489746770694268,-59.445034172974474,-30.603201736078947,-105.31051129197044,0.2293,-0.4958,-0.2639,-0.795
149,1692512.0,1468.015568,1.0,8.86,2.05,3.6,2.06,-2.5,61.5,0.44,0.12,1.69,0.1131269406126414,0.1316322033840336,0.027489746770694268,-59.445034172974474,-30.603201736078947,-105.31051129197044,0.2293,-0.4958,-0.2639,-0.795
150,1692547.0,1468.07196,1.0,8.87,1.95,3.69,2.5,-3.25,63.06,0.0,-0.19,1.31,0.11150620716738302,0.003916250691087919,0.004453765035934865,-59.45822976014184,-30.57944178497209,-105.29162283128352,0.2296,-0.4959,-0.2637,-0.7949
151,1692547.0,1468.07196,1.0,8.87,1.95,3.69,2.5,-3.25,63.06,0.0,-0.19,1.31,0.11150620716738302,0.003916250691087919,0.004453765035934865,-59.45822976014184,-30.57944178497209,-105.29162283128352,0.2296,-0.4959,-0.2637,-0.7949
152,1692579.0,1468.126588,1.0,8.85,1.9,3.56,2.5,-3.25,63.06,-1.56,0.69,2.25,0.007767302882363158,0.060861406881707276,0.08027680347096933,-59.471426215105645,-30.50817000692102,-105.29162283128352,0.23,-0.496,-0.2631,-0.7949
153,1692579.0,1468.126588,1.0,8.85,1.9,3.56,2.5,-3.25,63.06,-1.56,0.69,2.25,0.007767302882363158,0.060861406881707276,0.08027680347096933,-59.471426215105645,-30.50817000692102,-105.29162283128352,0.23,-0.496,-0.2631,-0.7949
154,1692614.0,1468.180744,1.0,8.83,2.04,3.43,1.69,-2.5,63.06,-1.5,0.5,1.94,0.02220798156706749,0.26056782825518154,0.12021560893364125,-59.497821729807775,-30.413159765182687,-105.31051129197044,0.23,-0.4962,-0.2623,-0.795
155,1692614.0,1468.180744,1.0,8.83,2.04,3.43,1.69,-2.5,63.06,-1.5,0.5,1.94,0.02220798156706749,0.26056782825518154,0.12021560893364125,-59.497821729807775,-30.413159765182687,-105.31051129197044,0.23,-0.4962,-0.2623,-0.795
156,1692651.0,1468.1932769999999,1.0,8.87,1.87,3.76,2.06,-3.25,62.25,-2.25,0.63,1.56,0.12471274906907324,-0.06966449717174839,-0.006147439469206262,-59.511020790239144,-30.377536447956228,-105.31051129197044,0.2303,-0.4963,-0.262,-0.795
157,1692651.0,1468.1932769999999,1.0,8.87,1.87,3.76,2.06,-3.25,62.25,-2.25,0.63,1.56,0.12471274906907324,-0.06966449717174839,-0.006147439469206262,-59.511020790239144,-30.377536447956228,-105.31051129197044,0.2303,-0.4963,-0.262,-0.795
158,1692684.0,1468.227564,1.0,8.89,1.88,3.6,2.06,-3.25,62.25,-0.69,1.37,1.19,0.015176518295316075,0.05405885256275078,0.0330453776637718,-59.497821729807775,-30.306298828005648,-105.34830046023008,0.2303,-0.4962,-0.2614,-0.7952
159,1692684.0,1468.227564,1.0,8.89,1.88,3.6,2.06,-3.25,62.25,-0.69,1.37,1.19,0.015176518295316075,0.05405885256275078,0.0330453776637718,-59.497821729807775,-30.306298828005648,-105.34830046023008,0.2303,-0.4962,-0.2614,-0.7952
160,1692719.0,1468.244582,1.0,8.85,2.0,3.45,2.06,-4.0,61.75,-3.94,0.94,1.56,0.008958650589726336,0.2532376408308412,0.10300169434474604,-59.511020790239144,-30.19946487135094,-105.40501487729964,0.2304,-0.4963,-0.2605,-0.7955
161,1692719.0,1468.244582,1.0,8.85,2.0,3.45,2.06,-4.0,61.75,-3.94,0.94,1.56,0.008958650589726336,0.2532376408308412,0.10300169434474604,-59.511020790239144,-30.19946487135094,-105.40501487729964,0.2304,-0.4963,-0.2605,-0.7955
162,1692753.0,1468.247529,1.0,8.86,1.89,3.75,2.5,-3.25,61.75,-2.19,0.37,0.56,0.13698958956376905,-0.021384820933303184,0.002825412534923189,-59.511020790239144,-30.187596092266823,-105.40501487729964,0.2303,-0.4963,-0.2604,-0.7955
163,1692753.0,1468.247529,1.0,8.86,1.89,3.75,2.5,-3.25,61.75,-2.19,0.37,0.56,0.13698958956376905,-0.021384820933303184,0.002825412534923189,-59.511020790239144,-30.187596092266823,-105.40501487729964,0.2303,-0.4963,-0.2604,-0.7955
164,1692788.0,1468.299302,1.0,8.88,1.94,3.57,2.5,-3.25,61.75,-0.44,1.75,0.44,0.03287691222215605,0.14099418646402828,0.042330272132311116,-59.471426215105645,-30.15199174363297,-105.46176616813965,0.2302,-0.496,-0.2601,-0.7958
165,1692788.0,1468.299302,1.0,8.88,1.94,3.57,2.5,-3.25,61.75,-0.44,1.75,0.44,0.03287691222215605,0.14099418646402828,0.042330272132311116,-59.471426215105645,-30.15199174363297,-105.46176616813965,0.2302,-0.496,-0.2601,-0.7958
166,1692823.0,1468.3375,1.0,8.88,1.89,3.64,1.37,-4.0,62.25,0.56,-0.12,0.06,0.04853514792210889,0.058093850250802374,0.025526882280885843,-59.471426215105645,-30.15199174363297,-105.46176616813965,0.2302,-0.496,-0.2601,-0.7958
167,1692823.0,1468.3375,1.0,8.88,1.89,3.64,1.37,-4.0,62.25,0.56,-0.12,0.06,0.04853514792210889,0.058093850250802374,0.025526882280885843,-59.471426215105645,-30.15199174363297,-105.46176616813965,0.2302,-0.496,-0.2601,-0.7958
168,1692858.0,1468.398897,1.0,8.82,1.94,3.6,3.19,-2.88,61.88,-1.44,0.19,0.06,0.07550414875780476,0.11538066860037932,0.08569395520513902,-59.471426215105645,-30.14012428977767,-105.48069147410617,0.23,-0.496,-0.26,-0.7959
169,1692858.0,1468.398897,1.0,8.82,1.94,3.6,3.19,-2.88,61.88,-1.44,0.19,0.06,0.07550414875780476,0.11538066860037932,0.08569395520513902,-59.471426215105645,-30.14012428977767,-105.48069147410617,0.23,-0.496,-0.26,-0.7959
170,1692895.0,1468.4154369999999,1.0,8.86,1.92,3.67,1.69,-3.25,61.88,0.75,1.5,-0.44,0.08731141963296407,0.05830217903494561,0.026881210712520698,-59.43183945325738,-30.16385952856291,-105.49962088989868,0.23,-0.4957,-0.2602,-0.7959999999999999
171,1692895.0,1468.4154369999999,1.0,8.86,1.92,3.67,1.69,-3.25,61.88,0.75,1.5,-0.44,0.08731141963296407,0.05830217903494561,0.026881210712520698,-59.43183945325738,-30.16385952856291,-105.49962088989868,0.23,-0.4957,-0.2602,-0.7959999999999999
