,TIME,ELAPSED_SECONDS,PSTATE,acc_x,acc_y,acc_z,mag_x,mag_y,mag_z,gyr_x,gyr_y,gyr_z,lin_x,lin_y,lin_z,eul_x,eul_y,eul_z,qua_w,qua_x,qua_y,qua_z
0,1259610.0,1034.396411,1.0,2.1,5.08,-8.52,13.56,-16.87,11.19,-0.19,1.56,0.88,-0.05365480141183798,0.011254559199861623,-0.332570606002351,-102.39305734069332,-67.83519390579393,-28.032845198788678,-0.1505,-0.7793,-0.5579999999999999,-0.2422
1,1259610.0,1034.396411,1.0,2.1,5.08,-8.52,13.56,-16.87,11.19,-0.19,1.56,0.88,-0.05365480141183798,0.011254559199861623,-0.332570606002351,-102.39305734069332,-67.83519390579393,-28.032845198788678,-0.1505,-0.7793,-0.5579999999999999,-0.2422
2,1259644.0,1034.4600269999999,1.0,1.92,4.89,-8.19,12.88,-15.75,11.69,1.44,-1.12,-0.81,-0.0697416743287872,0.10116207671432907,0.07733849645070379,-102.3747728112858,-67.86281386047486,-28.009224192772628,-0.1506,-0.7792,-0.5582,-0.242
3,1259644.0,1034.4600269999999,1.0,1.92,4.89,-8.19,12.88,-15.75,11.69,1.44,-1.12,-0.81,-0.0697416743287872,0.10116207671432907,0.07733849645070379,-102.3747728112858,-67.86281386047486,-28.009224192772628,-0.1506,-0.7792,-0.5582,-0.242
4,1259679.0,1034.4644349999999,1.0,1.87,4.92,-8.02,12.5,-15.38,12.5,-0.44,-0.31,-0.06,0.035371025551289466,0.15114546718171915,0.21500759954001047,-102.3747728112858,-67.86281386047486,-27.99741414521811,-0.1506,-0.7792,-0.5582,-0.2419
5,1259679.0,1034.4644349999999,1.0,1.87,4.92,-8.02,12.5,-15.38,12.5,-0.44,-0.31,-0.06,0.035371025551289466,0.15114546718171915,0.21500759954001047,-102.3747728112858,-67.86281386047486,-27.99741414521811,-0.1506,-0.7792,-0.5582,-0.2419
6,1259714.0,1034.480647,1.0,2.09,4.97,-8.37,12.5,-15.38,12.5,-0.69,1.63,1.88,-0.06703788754075635,-0.017382615542489432,-0.14930820432724268,-102.39305734069332,-67.82138560708218,-28.068278987313843,-0.1505,-0.7793,-0.5579,-0.2425
7,1259714.0,1034.480647,1.0,2.09,4.97,-8.37,12.5,-15.38,12.5,-0.69,1.63,1.88,-0.06703788754075635,-0.017382615542489432,-0.14930820432724268,-102.39305734069332,-67.82138560708218,-28.068278987313843,-0.1505,-0.7793,-0.5579,-0.2425
8,1259751.0,1034.483541,1.0,2.16,4.94,-8.52,13.56,-16.56,10.75,1.37,-0.19,-0.25,-0.15461667937208734,-0.08167919383425293,-0.27447207007506513,-102.3747728112858,-67.83519390579393,-28.091903034402694,-0.1502,-0.7792,-0.5579999999999999,-0.2427
9,1259751.0,1034.483541,1.0,2.16,4.94,-8.52,13.56,-16.56,10.75,1.37,-0.19,-0.25,-0.15461667937208734,-0.08167919383425293,-0.27447207007506513,-102.3747728112858,-67.83519390579393,-28.091903034402694,-0.1502,-0.7792,-0.5579999999999999,-0.2427
10,1259786.0,1034.520324,1.0,1.97,5.02,-8.17,13.25,-16.19,11.25,0.31,-0.75,-1.06,0.052305730707501434,0.10198790478396358,0.01803096676487748,-102.35649190819592,-67.86281386047486,-28.056467420340038,-0.1505,-0.7791,-0.5582,-0.2424
11,1259786.0,1034.520324,1.0,1.97,5.02,-8.17,13.25,-16.19,11.25,0.31,-0.75,-1.06,0.052305730707501434,0.10198790478396358,0.01803096676487748,-102.35649190819592,-67.86281386047486,-28.056467420340038,-0.1505,-0.7791,-0.5582,-0.2424
12,1259823.0,1034.540264,1.0,1.97,4.9,-8.25,13.25,-16.19,11.25,0.12,2.75,-0.25,-0.08616024132443967,0.06804311173494826,0.011684632641092207,-102.33821462880199,-67.89043829465147,-28.068278987313843,-0.1503,-0.779,-0.5584,-0.2425
13,1259823.0,1034.540264,1.0,1.97,4.9,-8.25,13.25,-16.19,11.25,0.12,2.75,-0.25,-0.08616024132443967,0.06804311173494826,0.011684632641092207,-102.33821462880199,-67.89043829465147,-28.068278987313843,-0.1503,-0.779,-0.5584,-0.2425
14,1259855.0,1034.5958660000001,1.0,2.02,4.94,-8.35,13.25,-16.56,11.25,0.0,0.06,-0.37,-0.09429111431829862,0.04281789846020434,-0.10272817490744757,-102.31994097048526,-67.90425219273371,-28.080090858618394,-0.15,-0.7789,-0.5585,-0.2426
15,1259855.0,1034.5958660000001,1.0,2.02,4.94,-8.35,13.25,-16.56,11.25,0.0,0.06,-0.37,-0.09429111431829862,0.04281789846020434,-0.10272817490744757,-102.31994097048526,-67.90425219273371,-28.080090858618394,-0.15,-0.7789,-0.5585,-0.2426
16,1259892.0,1034.598909,1.0,1.99,4.93,-8.26,12.88,-16.56,12.56,-0.12,-0.25,-0.25,-0.060922107437219375,0.06443359890136646,-0.01601444546274955,-102.31994097048526,-67.90425219273371,-28.080090858618394,-0.15,-0.7789,-0.5585,-0.2426
17,1259892.0,1034.598909,1.0,1.99,4.93,-8.26,12.88,-16.56,12.56,-0.12,-0.25,-0.25,-0.060922107437219375,0.06443359890136646,-0.01601444546274955,-102.31994097048526,-67.90425219273371,-28.080090858618394,-0.15,-0.7789,-0.5585,-0.2426
18,1259927.0,1034.647454,1.0,2.11,4.97,-8.38,12.5,-16.56,12.56,0.75,0.37,0.19,-0.05736690238418296,-0.030285847201756862,-0.16196032471277633,-102.33821462880199,-67.91806721211006,-28.056467420340038,-0.1498,-0.779,-0.5586,-0.2424
19,1259927.0,1034.647454,1.0,2.11,4.97,-8.38,12.5,-16.56,12.56,0.75,0.37,0.19,-0.05736690238418296,-0.030285847201756862,-0.16196032471277633,-102.33821462880199,-67.91806721211006,-28.056467420340038,-0.1498,-0.779,-0.5586,-0.2424
20,1259962.0,1034.684617,1.0,2.04,4.93,-8.33,12.5,-16.56,12.56,-1.44,-1.94,-0.06,-0.07796267168305704,0.017593946786115918,-0.08521596526967379,-102.35649190819592,-67.90425219273371,-28.032845198788678,-0.1499,-0.7791,-0.5585,-0.2422
21,1259962.0,1034.684617,1.0,2.04,4.93,-8.33,12.5,-16.56,12.56,-1.44,-1.94,-0.06,-0.07796267168305704,0.017593946786115918,-0.08521596526967379,-102.35649190819592,-67.90425219273371,-28.032845198788678,-0.1499,-0.7791,-0.5585,-0.2422
22,1259997.0,1034.749994,1.0,1.91,4.91,-8.13,13.56,-16.87,12.56,-0.5,-1.19,0.44,-0.021234788944181737,0.11476467642180355,0.11957210453615552,-102.35649190819592,-67.87662551738967,-27.99741414521811,-0.1505,-0.7791,-0.5583,-0.2419
23,1259997.0,1034.749994,1.0,1.91,4.91,-8.13,13.56,-16.87,12.56,-0.5,-1.19,0.44,-0.021234788944181737,0.11476467642180355,0.11957210453615552,-102.35649190819592,-67.87662551738967,-27.99741414521811,-0.1505,-0.7791,-0.5583,-0.2419
24,1260034.0,1034.804785,1.0,2.04,5.02,-8.32,12.5,-16.19,11.69,0.19,1.37,0.12,-0.005349004484092146,0.03915213778284299,-0.12223908681419893,-102.35649190819592,-67.87662551738967,-28.0210345439132,-0.1504,-0.7791,-0.5583,-0.2421
25,1260034.0,1034.804785,1.0,2.04,5.02,-8.32,12.5,-16.19,11.69,0.19,1.37,0.12,-0.005349004484092146,0.03915213778284299,-0.12223908681419893,-102.35649190819592,-67.87662551738967,-28.0210345439132,-0.1504,-0.7791,-0.5583,-0.2421
26,1260066.0,1034.8193210000002,1.0,1.98,4.93,-8.24,12.5,-16.19,11.69,0.81,0.06,-0.12,-0.04793918620915594,0.06455581738220982,0.0027510622881408158,-102.35649190819592,-67.87662551738967,-28.0210345439132,-0.1503,-0.7791,-0.5583,-0.2421
27,1260066.0,1034.8193210000002,1.0,1.98,4.93,-8.24,12.5,-16.19,11.69,0.81,0.06,-0.12,-0.04793918620915594,0.06455581738220982,0.0027510622881408158,-102.35649190819592,-67.87662551738967,-28.0210345439132,-0.1503,-0.7791,-0.5583,-0.2421
28,1260103.0,1034.861708,1.0,2.01,5.22,-8.15,12.88,-15.38,10.75,-1.06,3.94,-1.44,0.2296161951609985,0.1281833970069477,-0.07473884062618019,-102.28340450662313,-67.93188335325443,-28.080090858618394,-0.1505,-0.7787,-0.5587,-0.2426
29,1260103.0,1034.861708,1.0,2.01,5.22,-8.15,12.88,-15.38,10.75,-1.06,3.94,-1.44,0.2296161951609985,0.1281833970069477,-0.07473884062618019,-102.28340450662313,-67.93188335325443,-28.080090858618394,-0.1505,-0.7787,-0.5587,-0.2426
30,1260138.0,1034.917972,1.0,2.09,5.35,-7.85,13.25,-16.56,12.88,2.0,10.25,-7.25,0.5001784710351448,0.10446413421784316,0.09315378381836048,-101.97342600574191,-68.18076625802583,-28.292756752714663,-0.1494,-0.777,-0.5605,-0.2444
31,1260138.0,1034.917972,1.0,2.09,5.35,-7.85,13.25,-16.56,12.88,2.0,10.25,-7.25,0.5001784710351448,0.10446413421784316,0.09315378381836048,-101.97342600574191,-68.18076625802583,-28.292756752714663,-0.1494,-0.777,-0.5605,-0.2444
32,1260173.0,1034.9345289999999,1.0,0.71,5.86,-5.34,13.25,-16.56,12.88,4.75,24.94,-10.94,1.935690382719628,1.4870434331307152,2.230298333780329,-101.55568290678623,-68.56864672938487,-28.588291341239625,-0.1469,-0.7747,-0.5633,-0.2469
33,1260173.0,1034.9345289999999,1.0,0.71,5.86,-5.34,13.25,-16.56,12.88,4.75,24.94,-10.94,1.935690382719628,1.4870434331307152,2.230298333780329,-101.55568290678623,-68.56864672938487,-28.588291341239625,-0.1469,-0.7747,-0.5633,-0.2469
34,1260208.0,1034.938848,1.0,-2.08,7.27,1.47,12.88,-16.19,12.06,43.56,158.44,-21.12,6.361541731018049,3.9822374794816935,8.07091630454808,-99.14020348928251,-70.54979476235701,-31.64999191142923,-0.1131,-0.7612,-0.5775,-0.2727
35,1260208.0,1034.938848,1.0,-2.08,7.27,1.47,12.88,-16.19,12.06,43.56,158.44,-21.12,6.361541731018049,3.9822374794816935,8.07091630454808,-99.14020348928251,-70.54979476235701,-31.64999191142923,-0.1131,-0.7612,-0.5775,-0.2727
36,1260242.0,1034.9418779999999,1.0,2.75,0.77,-2.94,13.25,-15.75,13.25,171.5,438.56,-35.69,-0.6562653378817687,-1.244722094000065,5.957106817360919,-93.6554852891658,-74.01219332198103,-37.785778398919184,-0.0308,-0.7293,-0.6019,-0.3238
37,1260242.0,1034.9418779999999,1.0,2.75,0.77,-2.94,13.25,-15.75,13.25,171.5,438.56,-35.69,-0.6562653378817687,-1.244722094000065,5.957106817360919,-93.6554852891658,-74.01219332198103,-37.785778398919184,-0.0308,-0.7293,-0.6019,-0.3238
38,1260279.0,1034.998565,1.0,4.71,1.02,-4.89,5.0,-13.56,18.06,47.56,320.19,34.56,-1.646123336016707,-0.5800922054517215,3.1665919433415066,-86.1570415333954,-74.84676629523163,-47.11885074218369,0.0667,-0.6829999999999999,-0.6077,-0.3997
39,1260279.0,1034.998565,1.0,4.71,1.02,-4.89,5.0,-13.56,18.06,47.56,320.19,34.56,-1.646123336016707,-0.5800922054517215,3.1665919433415066,-86.1570415333954,-74.84676629523163,-47.11885074218369,0.0667,-0.6829999999999999,-0.6077,-0.3997
40,1260314.0,1035.0394720000002,1.0,6.2,1.18,-5.37,5.0,-13.56,18.06,61.56,289.69,65.87,-1.8012993899372145,0.2507781969299875,1.7219897842731593,-81.33979509600317,-72.58390841157699,-53.55153591306849,0.1485,-0.6517,-0.5919,-0.4505
41,1260314.0,1035.0394720000002,1.0,6.2,1.18,-5.37,5.0,-13.56,18.06,61.56,289.69,65.87,-1.8012993899372145,0.2507781969299875,1.7219897842731593,-81.33979509600317,-72.58390841157699,-53.55153591306849,0.1485,-0.6517,-0.5919,-0.4505
42,1260351.0,1035.1021230000001,1.0,4.06,-0.41,-5.72,-7.88,-11.69,19.06,49.88,244.63,32.81,-3.1039650018690192,2.3428920574266736,3.95461120361294,-77.46716810896245,-70.78858910682754,-57.907047347217045,0.1967,-0.6257,-0.5792,-0.4841
43,1260351.0,1035.1021230000001,1.0,4.06,-0.41,-5.72,-7.88,-11.69,19.06,49.88,244.63,32.81,-3.1039650018690192,2.3428920574266736,3.95461120361294,-77.46716810896245,-70.78858910682754,-57.907047347217045,0.1967,-0.6257,-0.5792,-0.4841
44,1260388.0,1035.163436,1.0,3.9,-2.58,-4.23,-19.0,-11.0,18.06,1.63,241.75,45.88,-4.502765080833286,1.5625637999117834,5.678357253835593,-72.58390841157699,-67.29749473790226,-63.6868789211639,0.2534,-0.5919,-0.5541,-0.5276
45,1260388.0,1035.163436,1.0,3.9,-2.58,-4.23,-19.0,-11.0,18.06,1.63,241.75,45.88,-4.502765080833286,1.5625637999117834,5.678357253835593,-72.58390841157699,-67.29749473790226,-63.6868789211639,0.2534,-0.5919,-0.5541,-0.5276
46,1260423.0,1035.218763,1.0,5.19,-1.77,-0.65,-19.0,-11.0,18.06,-44.69,173.19,98.75,-2.7086289285511933,-1.4174590426707911,5.208211222570597,-70.87295386927123,-63.12118872806756,-67.38010802744758,0.2864,-0.5798,-0.5234,-0.5547
47,1260423.0,1035.218763,1.0,5.19,-1.77,-0.65,-19.0,-11.0,18.06,-44.69,173.19,98.75,-2.7086289285511933,-1.4174590426707911,5.208211222570597,-70.87295386927123,-63.12118872806756,-67.38010802744758,0.2864,-0.5798,-0.5234,-0.5547
48,1260457.0,1035.22536,1.0,8.0,0.19,1.78,-28.87,-10.0,17.37,-60.44,169.06,102.75,-0.29215047557005525,-2.8844973361127524,2.138610927487221,-69.63997654209203,-56.65360014298316,-71.88881371666841,0.32299999999999995,-0.5710000000000001,-0.4745,-0.5870000000000001
49,1260457.0,1035.22536,1.0,8.0,0.19,1.78,-28.87,-10.0,17.37,-60.44,169.06,102.75,-0.29215047557005525,-2.8844973361127524,2.138610927487221,-69.63997654209203,-56.65360014298316,-71.88881371666841,0.32299999999999995,-0.5710000000000001,-0.4745,-0.5870000000000001
50,1260492.0,1035.2415,1.0,10.29,0.91,1.16,-37.75,-8.06,16.75,-15.63,139.75,54.31,-0.09887047650055257,-1.5659966908264267,-0.4693258170792322,-68.11159548513581,-52.97467248448692,-74.61607730658687,0.3465,-0.56,-0.446,-0.6061
51,1260492.0,1035.2415,1.0,10.29,0.91,1.16,-37.75,-8.06,16.75,-15.63,139.75,54.31,-0.09887047650055257,-1.5659966908264267,-0.4693258170792322,-68.11159548513581,-52.97467248448692,-74.61607730658687,0.3465,-0.56,-0.446,-0.6061
52,1260531.0,1035.318715,1.0,11.51,-2.78,1.57,-43.5,-6.5,20.69,-16.5,84.44,58.19,-3.5678229600010893,-2.40412739498937,-1.3362495685481548,-65.47622986306104,-50.4026226278441,-76.80763576279817,0.3745,-0.5408,-0.4258,-0.6212
53,1260531.0,1035.318715,1.0,11.51,-2.78,1.57,-43.5,-6.5,20.69,-16.5,84.44,58.19,-3.5678229600010893,-2.40412739498937,-1.3362495685481548,-65.47622986306104,-50.4026226278441,-76.80763576279817,0.3745,-0.5408,-0.4258,-0.6212
54,1260564.0,1035.369764,1.0,10.71,1.36,4.29,-43.5,-6.5,20.69,-85.31,8.25,88.62,1.9901784980643769,-2.952774268755823,-1.2512934644790883,-67.62818664851126,-46.23275206665912,-77.30566907284118,0.3821,-0.5565,-0.3926,-0.6246
55,1260564.0,1035.369764,1.0,10.71,1.36,4.29,-43.5,-6.5,20.69,-85.31,8.25,88.62,1.9901784980643769,-2.952774268755823,-1.2512934644790883,-67.62818664851126,-46.23275206665912,-77.30566907284118,0.3821,-0.5565,-0.3926,-0.6246
56,1260601.0,1035.390335,1.0,11.06,0.7,2.98,-47.06,-0.19,27.06,18.25,78.75,28.69,0.9465748597968712,-1.5957257849220994,-1.518174733925699,-67.13238693393745,-44.543508213508154,-78.01173896871137,0.3932,-0.5529,-0.379,-0.6294
57,1260601.0,1035.390335,1.0,11.06,0.7,2.98,-47.06,-0.19,27.06,18.25,78.75,28.69,0.9465748597968712,-1.5957257849220994,-1.518174733925699,-67.13238693393745,-44.543508213508154,-78.01173896871137,0.3932,-0.5529,-0.379,-0.6294
58,1260638.0,1035.394629,1.0,11.76,-1.5,0.46,-47.06,4.69,38.0,50.88,63.5,19.69,-2.2131046039338447,0.4635998183123777,-1.8400853031013629,-64.6606978473082,-44.13516742855202,-78.57321863854627,0.4145,-0.5348,-0.3757,-0.6332
59,1260638.0,1035.394629,1.0,11.76,-1.5,0.46,-47.06,4.69,38.0,50.88,63.5,19.69,-2.2131046039338447,0.4635998183123777,-1.8400853031013629,-64.6606978473082,-44.13516742855202,-78.57321863854627,0.4145,-0.5348,-0.3757,-0.6332
60,1260673.0,1035.437178,1.0,12.03,0.64,2.3,-47.06,4.69,38.0,-41.0,-33.0,23.37,0.6218959138765863,-0.3987429578264461,-2.4356843168648776,-65.54435879722949,-43.52992762326994,-78.11500148015571,0.4153,-0.5413,-0.3708,-0.6301
61,1260673.0,1035.437178,1.0,12.03,0.64,2.3,-47.06,4.69,38.0,-41.0,-33.0,23.37,0.6218959138765863,-0.3987429578264461,-2.4356843168648776,-65.54435879722949,-43.52992762326994,-78.11500148015571,0.4153,-0.5413,-0.3708,-0.6301
62,1260707.0,1035.4534019999999,1.0,12.7,1.12,2.96,-38.5,11.75,49.06,-36.75,-60.38,-11.94,1.4786154387641481,-1.153910355523644,-3.146657966525913,-67.82138560708218,-43.60396968900631,-77.39373685475255,0.4,-0.5579,-0.3714,-0.6252
63,1260707.0,1035.4534019999999,1.0,12.7,1.12,2.96,-38.5,11.75,49.06,-36.75,-60.38,-11.94,1.4786154387641481,-1.153910355523644,-3.146657966525913,-67.82138560708218,-43.60396968900631,-77.39373685475255,0.4,-0.5579,-0.3714,-0.6252
64,1260742.0,1035.493649,1.0,14.15,0.48,5.34,-19.56,11.0,54.69,22.31,-89.25,-46.94,1.7430688963994452,-4.151515995294658,-4.639634150715624,-69.01303790274106,-45.53591791274641,-76.02014547215987,0.3873,-0.5665,-0.387,-0.6158
65,1260742.0,1035.493649,1.0,14.15,0.48,5.34,-19.56,11.0,54.69,22.31,-89.25,-46.94,1.7430688963994452,-4.151515995294658,-4.639634150715624,-69.01303790274106,-45.53591791274641,-76.02014547215987,0.3873,-0.5665,-0.387,-0.6158
66,1260781.0,1035.547215,1.0,16.12,-0.46,5.07,3.06,9.75,54.5,-69.87,8.31,-56.88,0.3815258828294228,-4.9199027498706585,-6.361834620784547,-69.62601872527647,-47.30643546064212,-75.91837365235722,0.3671,-0.5709,-0.4012,-0.6151
67,1260781.0,1035.547215,1.0,16.12,-0.46,5.07,3.06,9.75,54.5,-69.87,8.31,-56.88,0.3815258828294228,-4.9199027498706585,-6.361834620784547,-69.62601872527647,-47.30643546064212,-75.91837365235722,0.3671,-0.5709,-0.4012,-0.6151
68,1260814.0,1035.555497,1.0,19.84,2.4,-5.87,3.06,9.75,54.5,-281.0,133.75,51.38,-2.785909082646453,7.003634953552523,-9.610618294500268,-70.28332279396642,-42.00393403253583,-80.8271028985237,0.3465,-0.5756,-0.3584,-0.6483
69,1260814.0,1035.555497,1.0,19.84,2.4,-5.87,3.06,9.75,54.5,-281.0,133.75,51.38,-2.785909082646453,7.003634953552523,-9.610618294500268,-70.28332279396642,-42.00393403253583,-80.8271028985237,0.3465,-0.5756,-0.3584,-0.6483
70,1260851.0,1035.5742369999998,1.0,14.76,13.48,-9.07,17.87,6.56,54.5,-218.63,9.69,171.88,3.4172239692615847,17.747354503664642,-2.650752958287839,-74.67371632747869,-28.74204597594341,-85.62478707023612,0.3298,-0.6065,-0.2482,-0.6796
71,1260851.0,1035.5742369999998,1.0,14.76,13.48,-9.07,17.87,6.56,54.5,-218.63,9.69,171.88,3.4172239692615847,17.747354503664642,-2.650752958287839,-74.67371632747869,-28.74204597594341,-85.62478707023612,0.3298,-0.6065,-0.2482,-0.6796
72,1260888.0,1035.694991,1.0,11.32,8.68,-1.77,16.06,-11.5,55.19,98.5,-104.37,-62.25,5.357023216498995,8.012636835230115,-0.8571979548708999,-76.6176646234629,-31.304732073341746,-82.52350218370225,0.3286,-0.6199,-0.2698,-0.6595
73,1260888.0,1035.694991,1.0,11.32,8.68,-1.77,16.06,-11.5,55.19,98.5,-104.37,-62.25,5.357023216498995,8.012636835230115,-0.8571979548708999,-76.6176646234629,-31.304732073341746,-82.52350218370225,0.3286,-0.6199,-0.2698,-0.6595
74,1260922.0,1035.7065109999999,1.0,8.58,-0.45,6.29,16.06,-11.5,55.19,150.19,-125.0,-182.63,2.85482417492252,-5.514391429755294,1.1565363539419715,-75.90384057849288,-39.46144077446525,-79.38989987649909,0.316,-0.615,-0.3376,-0.6387
75,1260922.0,1035.7065109999999,1.0,8.58,-0.45,6.29,16.06,-11.5,55.19,150.19,-125.0,-182.63,2.85482417492252,-5.514391429755294,1.1565363539419715,-75.90384057849288,-39.46144077446525,-79.38989987649909,0.316,-0.615,-0.3376,-0.6387
76,1260957.0,1035.7433119999998,1.0,7.84,-2.99,5.45,16.0,-8.88,54.19,37.81,-35.81,-100.87,-0.2338405865062798,-6.8411609728880975,2.5092507973295604,-74.64489405402493,-44.531125521078216,-78.60283244211628,0.2961,-0.6063,-0.3789,-0.6334
77,1260957.0,1035.7433119999998,1.0,7.84,-2.99,5.45,16.0,-8.88,54.19,37.81,-35.81,-100.87,-0.2338405865062798,-6.8411609728880975,2.5092507973295604,-74.64489405402493,-44.531125521078216,-78.60283244211628,0.2961,-0.6063,-0.3789,-0.6334
78,1260994.0,1035.749701,1.0,8.8,1.44,1.36,20.06,4.0,51.56,-52.13,11.75,31.25,1.2037297507185771,-1.0196856123300138,0.92551966995517,-75.1067169692273,-43.505251180584146,-79.03293971760759,0.2936,-0.6095,-0.3706,-0.6363
79,1260994.0,1035.749701,1.0,8.8,1.44,1.36,20.06,4.0,51.56,-52.13,11.75,31.25,1.2037297507185771,-1.0196856123300138,0.92551966995517,-75.1067169692273,-43.505251180584146,-79.03293971760759,0.2936,-0.6095,-0.3706,-0.6363
80,1261031.0,1035.8429310000001,1.0,9.54,2.14,-0.23,19.56,2.56,48.0,-14.81,34.63,4.75,0.7608506369620035,0.8546494685797672,0.09404063927253503,-74.74579622029077,-42.20039204818604,-80.2414088510799,0.2945,-0.607,-0.36,-0.6444
81,1261031.0,1035.8429310000001,1.0,9.54,2.14,-0.23,19.56,2.56,48.0,-14.81,34.63,4.75,0.7608506369620035,0.8546494685797672,0.09404063927253503,-74.74579622029077,-42.20039204818604,-80.2414088510799,0.2945,-0.607,-0.36,-0.6444
82,1261064.0,1035.852065,1.0,10.74,-0.15,-2.03,19.56,2.56,48.0,-0.31,24.81,-35.75,-2.4784582345419093,1.006873291111963,-0.7921447878651176,-73.53939139013687,-42.60599837478333,-81.26427589274175,0.2925,-0.5986,-0.3633,-0.6512
83,1261064.0,1035.852065,1.0,10.74,-0.15,-2.03,19.56,2.56,48.0,-0.31,24.81,-35.75,-2.4784582345419093,1.006873291111963,-0.7921447878651176,-73.53939139013687,-42.60599837478333,-81.26427589274175,0.2925,-0.5986,-0.3633,-0.6512
84,1261101.0,1035.857708,1.0,10.4,0.52,-1.53,21.37,2.06,51.06,-29.75,-9.19,-3.38,-1.7485324919574892,0.9477415450037052,-0.5285190885269468,-73.38211475609262,-42.396980116115046,-82.0669719838208,0.2852,-0.5975,-0.3616,-0.6565
85,1261101.0,1035.857708,1.0,10.4,0.52,-1.53,21.37,2.06,51.06,-29.75,-9.19,-3.38,-1.7485324919574892,0.9477415450037052,-0.5285190885269468,-73.38211475609262,-42.396980116115046,-82.0669719838208,0.2852,-0.5975,-0.3616,-0.6565
86,1261135.0,1035.891963,1.0,9.63,2.16,0.04,20.5,0.69,50.69,-28.81,-23.81,7.94,0.644794317301458,0.6216230475086868,-0.02197783277410359,-74.24196019139418,-41.868944153662135,-81.91514696476024,0.2802,-0.6035,-0.3573,-0.6555
87,1261135.0,1035.891963,1.0,9.63,2.16,0.04,20.5,0.69,50.69,-28.81,-23.81,7.94,0.644794317301458,0.6216230475086868,-0.02197783277410359,-74.24196019139418,-41.868944153662135,-81.91514696476024,0.2802,-0.6035,-0.3573,-0.6555
88,1261170.0,1035.900018,1.0,9.14,2.6,0.92,20.5,0.69,50.69,-2.88,-10.81,-13.56,1.6084038568981762,0.118386903746855,0.3968135734654599,-74.96224409700284,-41.78307317970489,-81.68773616772422,0.2736,-0.6085,-0.3566,-0.654
89,1261170.0,1035.900018,1.0,9.14,2.6,0.92,20.5,0.69,50.69,-2.88,-10.81,-13.56,1.6084038568981762,0.118386903746855,0.3968135734654599,-74.96224409700284,-41.78307317970489,-81.68773616772422,0.2736,-0.6085,-0.3566,-0.654
90,1261205.0,1035.959103,1.0,9.31,1.48,0.05,21.06,-0.19,51.38,7.5,2.63,-18.62,0.08962007921149473,0.0618422066823543,0.38024327299766897,-74.54405958152292,-42.4092712076169,-81.83929990977303,0.271,-0.6056,-0.3617,-0.655
91,1261205.0,1035.959103,1.0,9.31,1.48,0.05,21.06,-0.19,51.38,7.5,2.63,-18.62,0.08962007921149473,0.0618422066823543,0.38024327299766897,-74.54405958152292,-42.4092712076169,-81.83929990977303,0.271,-0.6056,-0.3617,-0.655
92,1261242.0,1036.01465,1.0,9.63,1.28,-0.29,21.87,-0.88,49.75,1.94,4.06,-5.19,-0.3569264221417617,0.17921763922147105,0.09583723448088756,-74.27070555325552,-42.63059851955768,-81.97585599565384,0.2706,-0.6037,-0.3635,-0.6559
93,1261242.0,1036.01465,1.0,9.63,1.28,-0.29,21.87,-0.88,49.75,1.94,4.06,-5.19,-0.3569264221417617,0.17921763922147105,0.09583723448088756,-74.27070555325552,-42.63059851955768,-81.97585599565384,0.2706,-0.6037,-0.3635,-0.6559
94,1261277.0,1036.033759,1.0,9.63,1.49,-0.17,21.87,-0.88,49.75,1.88,2.06,-2.06,-0.1363170373734901,0.2075623477959032,0.06374306535779439,-74.17012064859728,-42.679804993171246,-82.05178160910839,0.2705,-0.603,-0.3639,-0.6564
95,1261277.0,1036.033759,1.0,9.63,1.49,-0.17,21.87,-0.88,49.75,1.88,2.06,-2.06,-0.1363170373734901,0.2075623477959032,0.06374306535779439,-74.17012064859728,-42.679804993171246,-82.05178160910839,0.2705,-0.603,-0.3639,-0.6564
96,1261312.0,1036.036934,1.0,9.59,1.84,-0.02,21.75,-0.19,51.06,-4.31,0.5,0.69,0.2337150262471338,0.3011869841581241,0.04915218103636931,-74.1844858325427,-42.61829818967321,-82.09735799224998,0.2702,-0.6031,-0.3634,-0.6567
97,1261312.0,1036.036934,1.0,9.59,1.84,-0.02,21.75,-0.19,51.06,-4.31,0.5,0.69,0.2337150262471338,0.3011869841581241,0.04915218103636931,-74.1844858325427,-42.61829818967321,-82.09735799224998,0.2702,-0.6031,-0.3634,-0.6567
98,1261346.0,1036.08941,1.0,9.56,1.83,-0.06,21.06,-0.25,50.06,1.31,5.44,-2.81,0.17955532068291113,0.3443778139153637,0.08064034505428097,-74.01219332198103,-42.61829818967321,-82.24939344216158,0.2703,-0.6019,-0.3634,-0.6577
99,1261346.0,1036.08941,1.0,9.56,1.83,-0.06,21.06,-0.25,50.06,1.31,5.44,-2.81,0.17955532068291113,0.3443778139153637,0.08064034505428097,-74.01219332198103,-42.61829818967321,-82.24939344216158,0.2703,-0.6019,-0.3634,-0.6577
100,1261381.0,1036.092374,1.0,9.63,1.65,-0.16,22.06,-0.25,51.0,0.06,2.0,-2.69,-0.0562403391336096,0.31396411370111604,0.04021443938925806,-73.85442987393886,-42.70441132531611,-82.34069929138175,0.2703,-0.6008,-0.3641,-0.6583
101,1261381.0,1036.092374,1.0,9.63,1.65,-0.16,22.06,-0.25,51.0,0.06,2.0,-2.69,-0.0562403391336096,0.31396411370111604,0.04021443938925806,-73.85442987393886,-42.70441132531611,-82.34069929138175,0.2703,-0.6008,-0.3641,-0.6583
102,1261416.0,1036.175395,1.0,9.6,1.75,0.0,22.06,-0.25,51.0,-1.56,-1.12,-0.44,0.11974210930889195,0.23436552121520335,0.051998051840918436,-73.89744006262889,-42.72901972322527,-82.34069929138175,0.2696,-0.6011,-0.3643,-0.6583
103,1261416.0,1036.175395,1.0,9.6,1.75,0.0,22.06,-0.25,51.0,-1.56,-1.12,-0.44,0.11974210930889195,0.23436552121520335,0.051998051840918436,-73.89744006262889,-42.72901972322527,-82.34069929138175,0.2696,-0.6011,-0.3643,-0.6583
104,1261453.0,1036.185724,1.0,9.57,1.77,-0.14,21.0,-0.56,50.06,0.44,1.56,-0.88,0.05130461452628909,0.3543293255222817,0.07992297773792599,-73.88310198436405,-42.76593619701882,-82.34069929138175,0.2693,-0.601,-0.3646,-0.6583
105,1261453.0,1036.185724,1.0,9.57,1.77,-0.14,21.0,-0.56,50.06,0.44,1.56,-0.88,0.05130461452628909,0.3543293255222817,0.07992297773792599,-73.88310198436405,-42.76593619701882,-82.34069929138175,0.2693,-0.601,-0.3646,-0.6583
106,1261486.0,1036.228995,1.0,9.55,1.8,0.07,20.69,-0.25,49.69,-0.81,1.5,-0.88,0.19013622779424175,0.2019148781914657,0.0922030987685627,-73.82576315428821,-42.790549766583936,-82.38637607932448,0.2689,-0.6006,-0.3648,-0.6586
107,1261486.0,1036.228995,1.0,9.55,1.8,0.07,20.69,-0.25,49.69,-0.81,1.5,-0.88,0.19013622779424175,0.2019148781914657,0.0922030987685627,-73.82576315428821,-42.790549766583936,-82.38637607932448,0.2689,-0.6006,-0.3648,-0.6586
108,1261520.0,1036.2478640000002,1.0,9.58,1.74,-0.01,20.69,-0.25,49.69,0.37,5.31,-0.44,0.06718635496734983,0.238650902373023,0.07306732246020609,-73.68251024872158,-42.802857328099094,-82.52350218370225,0.2689,-0.5996,-0.3649,-0.6595
109,1261520.0,1036.2478640000002,1.0,9.58,1.74,-0.01,20.69,-0.25,49.69,0.37,5.31,-0.44,0.06718635496734983,0.238650902373023,0.07306732246020609,-73.68251024872158,-42.802857328099094,-82.52350218370225,0.2689,-0.5996,-0.3649,-0.6595
110,1261555.0,1036.287112,1.0,9.54,1.79,0.01,20.69,-0.25,49.25,-0.19,4.25,-0.37,0.10538405620867553,0.26631299808111564,0.10439399493859547,-73.56800446686195,-42.802857328099094,-82.64551302019812,0.26899999999999996,-0.5988,-0.3649,-0.6603
111,1261555.0,1036.287112,1.0,9.54,1.79,0.01,20.69,-0.25,49.25,-0.19,4.25,-0.37,0.10538405620867553,0.26631299808111564,0.10439399493859547,-73.56800446686195,-42.802857328099094,-82.64551302019812,0.26899999999999996,-0.5988,-0.3649,-0.6603
112,1261590.0,1036.303458,1.0,9.64,1.79,-0.16,20.25,-0.25,50.0,-1.37,1.56,-0.25,-0.025031664005307874,0.4040898826330215,0.008926551027235163,-73.46788204137806,-42.790549766583936,-82.73709614997145,0.26899999999999996,-0.5981,-0.3648,-0.6609
113,1261590.0,1036.303458,1.0,9.64,1.79,-0.16,20.25,-0.25,50.0,-1.37,1.56,-0.25,-0.025031664005307874,0.4040898826330215,0.008926551027235163,-73.46788204137806,-42.790549766583936,-82.73709614997145,0.26899999999999996,-0.5981,-0.3648,-0.6609
114,1261625.0,1036.399668,1.0,9.58,1.83,0.05,20.25,-0.25,50.0,-0.19,-1.75,-0.25,0.14201863030156747,0.2473398893990646,0.05747292253549574,-73.52508685379959,-42.8397831220635,-82.69129653429431,0.2684,-0.5985,-0.3652,-0.6606
115,1261625.0,1036.399668,1.0,9.58,1.83,0.05,20.25,-0.25,50.0,-0.19,-1.75,-0.25,0.14201863030156747,0.2473398893990646,0.05747292253549574,-73.52508685379959,-42.8397831220635,-82.69129653429431,0.2684,-0.5985,-0.3652,-0.6606
116,1261660.0,1036.404013,1.0,9.58,1.76,-0.09,21.06,-0.56,49.25,0.81,-2.19,0.0,0.009078031954821595,0.2986004856338185,0.0704877509762536,-73.58231300844331,-42.92596147290185,-82.59974558341173,0.268,-0.5989,-0.3659,-0.66
117,1261660.0,1036.404013,1.0,9.58,1.76,-0.09,21.06,-0.56,49.25,0.81,-2.19,0.0,0.009078031954821595,0.2986004856338185,0.0704877509762536,-73.58231300844331,-42.92596147290185,-82.59974558341173,0.268,-0.5989,-0.3659,-0.66
118,1261694.0,1036.4433099999999,1.0,9.56,1.67,0.11,21.0,0.88,50.06,-0.75,-1.75,1.25,0.06432306425865142,0.07794381444196996,0.10178589455294862,-73.62524665323141,-42.95058853731749,-82.55399419971695,0.2678,-0.5992,-0.3661,-0.6597
119,1261694.0,1036.4433099999999,1.0,9.56,1.67,0.11,21.0,0.88,50.06,-0.75,-1.75,1.25,0.06432306425865142,0.07794381444196996,0.10178589455294862,-73.62524665323141,-42.95058853731749,-82.55399419971695,0.2678,-0.5992,-0.3661,-0.6597
120,1261729.0,1036.460164,1.0,9.56,1.8,0.0,21.0,0.88,50.06,-5.56,-0.5,2.31,0.11178032396756887,0.2468464712198393,0.08244453226022941,-73.73979529168805,-42.815165407712406,-82.5692428787645,0.2672,-0.6,-0.365,-0.6598
121,1261729.0,1036.460164,1.0,9.56,1.8,0.0,21.0,0.88,50.06,-5.56,-0.5,2.31,0.11178032396756887,0.2468464712198393,0.08244453226022941,-73.73979529168805,-42.815165407712406,-82.5692428787645,0.2672,-0.6,-0.365,-0.6598
122,1261762.0,1036.5058080000001,1.0,9.57,1.72,0.0,21.06,0.0,49.69,-5.25,1.0,4.06,0.05990631693348592,0.20524114673045515,0.08566304882676867,-73.82576315428821,-42.71671526594671,-82.55399419971695,0.2672,-0.6006,-0.3642,-0.6597
123,1261762.0,1036.5058080000001,1.0,9.57,1.72,0.0,21.06,0.0,49.69,-5.25,1.0,4.06,0.05990631693348592,0.20524114673045515,0.08566304882676867,-73.82576315428821,-42.71671526594671,-82.55399419971695,0.2672,-0.6006,-0.3642,-0.6597
124,1261797.0,1036.522866,1.0,9.57,1.72,-0.01,20.69,-0.37,49.69,-5.0,0.31,3.56,0.06261172829202022,0.2289430275744715,0.08620428688553794,-73.94046239689769,-42.49532318150223,-82.63025542276526,0.2666,-0.6014,-0.3624,-0.6602
125,1261797.0,1036.522866,1.0,9.57,1.72,-0.01,20.69,-0.37,49.69,-5.0,0.31,3.56,0.06261172829202022,0.2289430275744715,0.08620428688553794,-73.94046239689769,-42.49532318150223,-82.63025542276526,0.2666,-0.6014,-0.3624,-0.6602
126,1261834.0,1036.564558,1.0,9.64,1.81,0.06,20.69,-1.06,49.69,-6.13,0.44,3.0,0.1775027521461493,0.2305201462978088,0.0023319087133177874,-74.05524812454561,-42.335532323855574,-82.66077240399828,0.2662,-0.6022,-0.3611,-0.6604
127,1261834.0,1036.564558,1.0,9.64,1.81,0.06,20.69,-1.06,49.69,-6.13,0.44,3.0,0.1775027521461493,0.2305201462978088,0.0023319087133177874,-74.05524812454561,-42.335532323855574,-82.66077240399828,0.2662,-0.6022,-0.3611,-0.6604
128,1261867.0,1036.634401,1.0,9.62,1.57,-0.11,20.69,-1.06,49.69,-1.06,0.88,1.12,-0.11020517126817342,0.22878614420100285,0.06206628798605784,-74.08395810619946,-42.26181180963939,-82.69129653429431,0.2659,-0.6024,-0.3605,-0.6606
129,1261867.0,1036.634401,1.0,9.62,1.57,-0.11,20.69,-1.06,49.69,-1.06,0.88,1.12,-0.11020517126817342,0.22878614420100285,0.06206628798605784,-74.08395810619946,-42.26181180963939,-82.69129653429431,0.2659,-0.6024,-0.3605,-0.6606
130,1261903.0,1036.6878570000001,1.0,9.55,1.75,-0.01,20.69,-0.69,50.19,-8.56,-2.44,5.63,0.12187323736149624,0.2691783421830205,0.10212580073527633,-74.27070555325552,-42.065313242449655,-82.67603357506403,0.2653,-0.6037,-0.3589,-0.6605
131,1261903.0,1036.6878570000001,1.0,9.55,1.75,-0.01,20.69,-0.69,50.19,-8.56,-2.44,5.63,0.12187323736149624,0.2691783421830205,0.10212580073527633,-74.27070555325552,-42.065313242449655,-82.67603357506403,0.2653,-0.6037,-0.3589,-0.6605
132,1261938.0,1036.782809,1.0,9.59,1.77,0.1,19.87,-1.88,50.06,-4.5,-0.31,2.44,0.2078765738790359,0.19580387472907448,0.058345112858164676,-74.40012733902506,-41.91802433278389,-82.72182782084748,0.2646,-0.6046,-0.3577,-0.6608
133,1261938.0,1036.782809,1.0,9.59,1.77,0.1,19.87,-1.88,50.06,-4.5,-0.31,2.44,0.2078765738790359,0.19580387472907448,0.058345112858164676,-74.40012733902506,-41.91802433278389,-82.72182782084748,0.2646,-0.6046,-0.3577,-0.6608
134,1261971.0,1036.8286269999999,1.0,9.66,1.58,0.02,19.87,-1.88,50.06,-0.5,-0.63,0.44,0.0006974430002341102,0.13108739103021882,0.019146967587383656,-74.40012733902506,-41.94256744155725,-82.69129653429431,0.2643,-0.6046,-0.3579,-0.6606
135,1261971.0,1036.8286269999999,1.0,9.66,1.58,0.02,19.87,-1.88,50.06,-0.5,-0.63,0.44,0.0006974430002341102,0.13108739103021882,0.019146967587383656,-74.40012733902506,-41.94256744155725,-82.69129653429431,0.2643,-0.6046,-0.3579,-0.6606
136,1262006.0,1036.8419529999999,1.0,9.63,1.6,-0.11,21.37,-1.5,49.69,-3.19,-0.31,2.56,-0.049461189198129696,0.2553595076671187,0.04748276541450558,-74.48647019368201,-41.84440708007335,-82.70656128258872,0.2642,-0.6052,-0.3571,-0.6607
137,1262006.0,1036.8419529999999,1.0,9.63,1.6,-0.11,21.37,-1.5,49.69,-3.19,-0.31,2.56,-0.049461189198129696,0.2553595076671187,0.04748276541450558,-74.48647019368201,-41.84440708007335,-82.70656128258872,0.2642,-0.6052,-0.3571,-0.6607
138,1262043.0,1036.850177,1.0,9.61,1.56,0.14,21.25,-1.5,49.19,-4.63,-2.0,4.13,0.0895432674574661,0.04090285916535663,0.07034634001870721,-74.60167100356149,-41.709489033737505,-82.69129653429431,0.2639,-0.606,-0.35600000000000004,-0.6606
139,1262043.0,1036.850177,1.0,9.61,1.56,0.14,21.25,-1.5,49.19,-4.63,-2.0,4.13,0.0895432674574661,0.04090285916535663,0.07034634001870721,-74.60167100356149,-41.709489033737505,-82.69129653429431,0.2639,-0.606,-0.35600000000000004,-0.6606
140,1262075.0,1036.853048,1.0,9.56,1.7,0.08,21.25,-1.5,49.19,-6.75,0.63,4.69,0.18059566172232933,0.19296753316689247,0.09994362048533922,-74.71696010988838,-41.51335250906026,-82.73709614997145,0.2636,-0.6068,-0.3544,-0.6609
141,1262075.0,1036.853048,1.0,9.56,1.7,0.08,21.25,-1.5,49.19,-6.75,0.63,4.69,0.18059566172232933,0.19296753316689247,0.09994362048533922,-74.71696010988838,-41.51335250906026,-82.73709614997145,0.2636,-0.6068,-0.3544,-0.6609
142,1262110.0,1036.890731,1.0,9.68,1.67,-0.18,21.25,-3.69,50.88,-2.5,0.19,2.31,-0.009508400598881805,0.3755975385170696,-0.010810775545680329,-74.8034850768004,-41.39083180240233,-82.75236627086224,0.2632,-0.6074,-0.3534,-0.6609999999999999
143,1262110.0,1036.890731,1.0,9.68,1.67,-0.18,21.25,-3.69,50.88,-2.5,0.19,2.31,-0.009508400598881805,0.3755975385170696,-0.010810775545680329,-74.8034850768004,-41.39083180240233,-82.75236627086224,0.2632,-0.6074,-0.3534,-0.6609999999999999
144,1262145.0,1036.902474,1.0,9.6,1.45,0.06,21.25,-2.06,49.56,-4.88,-2.56,4.06,-0.005253610727037117,0.05834938442575899,0.0977536801852974,-74.91892947359995,-41.31734313597096,-82.69129653429431,0.2631,-0.6082,-0.3528,-0.6606
145,1262145.0,1036.902474,1.0,9.6,1.45,0.06,21.25,-2.06,49.56,-4.88,-2.56,4.06,-0.005253610727037117,0.05834938442575899,0.0977536801852974,-74.91892947359995,-41.31734313597096,-82.69129653429431,0.2631,-0.6082,-0.3528,-0.6606
146,1262180.0,1036.916124,1.0,9.59,1.56,0.05,20.5,-2.88,49.69,-7.19,-2.25,6.5,0.10935608028270916,0.15047121583051906,0.09224833747277472,-75.17900592971374,-41.0113310955595,-82.66077240399828,0.2626,-0.61,-0.3503,-0.6604
147,1262180.0,1036.916124,1.0,9.59,1.56,0.05,20.5,-2.88,49.69,-7.19,-2.25,6.5,0.10935608028270916,0.15047121583051906,0.09224833747277472,-75.17900592971374,-41.0113310955595,-82.66077240399828,0.2626,-0.61,-0.3503,-0.6604
148,1262215.0,1036.9190939999999,1.0,9.58,1.59,0.09,20.5,-2.88,49.69,-4.94,-1.56,4.5,0.17849923211666885,0.1442138894207008,0.09789413849890494,-75.35264288775507,-40.84009791641019,-82.64551302019812,0.2621,-0.6112,-0.3489,-0.6603
149,1262215.0,1036.9190939999999,1.0,9.58,1.59,0.09,20.5,-2.88,49.69,-4.94,-1.56,4.5,0.17849923211666885,0.1442138894207008,0.09789413849890494,-75.35264288775507,-40.84009791641019,-82.64551302019812,0.2621,-0.6112,-0.3489,-0.6603
150,1262249.0,1036.999223,1.0,9.66,1.49,-0.12,20.87,-2.06,49.69,-3.0,1.37,2.38,-0.033269286961410634,0.2529287294233127,0.035006319821246024,-75.41056702241764,-40.69340241756593,-82.69129653429431,0.2619,-0.6116,-0.3477,-0.6606
151,1262249.0,1036.999223,1.0,9.66,1.49,-0.12,20.87,-2.06,49.69,-3.0,1.37,2.38,-0.033269286961410634,0.2529287294233127,0.035006319821246024,-75.41056702241764,-40.69340241756593,-82.69129653429431,0.2619,-0.6116,-0.3477,-0.6606
152,1262284.0,1037.011734,1.0,9.64,1.42,0.05,20.87,-2.88,49.69,-2.56,-0.44,2.38,0.028382667510273293,0.08170922073586563,0.06288183632575793,-75.46851380016189,-40.63229985656115,-82.69129653429431,0.2618,-0.612,-0.3472,-0.6606
153,1262284.0,1037.011734,1.0,9.64,1.42,0.05,20.87,-2.88,49.69,-2.56,-0.44,2.38,0.028382667510273293,0.08170922073586563,0.06288183632575793,-75.46851380016189,-40.63229985656115,-82.69129653429431,0.2618,-0.612,-0.3472,-0.6606
