acc_x,acc_y,acc_z,lin_x,lin_y,lin_z,eul_x,eul_y,eul_z
-4.88,2.63,-8.14,-0.0957825339405692,0.0813110544000159,-0.0409443366196988,-128.3424298098244,37.85845628256112,33.51241368583526
-4.88,2.63,-8.14,-0.0957825339405692,0.0813110544000159,-0.0409443366196988,-128.3424298098244,37.85845628256112,33.51241368583526
-4.77,2.52,-8.29,0.1082205155557664,0.0822179182231421,-0.0831896616899676,-128.3687376178253,37.87057079932817,33.476513522752754
-4.77,2.52,-8.29,0.1082205155557664,0.0822179182231421,-0.0831896616899676,-128.3687376178253,37.87057079932817,33.476513522752754
-4.77,2.54,-8.03,-0.0429083830035635,0.0634267451438597,0.1278310679882803,-128.3687376178253,37.87057079932817,33.476513522752754
-4.77,2.54,-8.03,-0.0429083830035635,0.0634267451438597,0.1278310679882803,-128.3687376178253,37.87057079932817,33.476513522752754
-4.8,2.74,-8.07,-0.1538704135672834,0.216713591320333,0.0290296803534211,-128.3687376178253,37.87057079932817,33.488479867763736
-4.8,2.74,-8.07,-0.1538704135672834,0.216713591320333,0.0290296803534211,-128.3687376178253,37.87057079932817,33.488479867763736
-4.84,2.57,-8.21,-0.0065685167202633,0.0803223407798638,-0.0639176217814228,-128.3687376178253,37.85845628256112,33.500446588735926
-4.84,2.57,-8.21,-0.0065685167202633,0.0803223407798638,-0.0639176217814228,-128.3687376178253,37.85845628256112,33.500446588735926
-4.9,2.54,-8.0,-0.1408118053646217,-0.0047841314226251,0.0885355147947297,-128.39505791682004,37.822115366775535,33.500446588735926
-4.9,2.54,-8.0,-0.1408118053646217,-0.0047841314226251,0.0885355147947297,-128.39505791682004,37.822115366775535,33.500446588735926
-4.93,2.47,-8.01,-0.1205187663113106,-0.0662576652853546,0.0831225974182743,-128.44773606463812,37.77366695276425,33.488479867763736
-4.93,2.47,-8.01,-0.1205187663113106,-0.0662576652853546,0.0831225974182743,-128.44773606463812,37.77366695276425,33.488479867763736
-4.8,2.73,-8.47,0.066235929704187,0.2932672348642313,-0.2999521555501676,-128.47409395200597,37.70100746591034,33.536349009079444
-4.8,2.73,-8.47,0.066235929704187,0.2932672348642313,-0.2999521555501676,-128.47409395200597,37.70100746591034,33.536349009079444
-4.82,2.27,-7.81,-0.0747632243306497,-0.1228340392355427,0.3535699591301018,-128.6854111372357,37.54363247388456,33.4525819599508
-4.82,2.27,-7.81,-0.0747632243306497,-0.1228340392355427,0.3535699591301018,-128.6854111372357,37.54363247388456,33.4525819599508
-4.86,2.48,-8.28,-0.0091904183987278,0.1232895945993153,-0.1086470309554155,-129.00391708769308,37.313754836919216,33.285102998046874
-4.86,2.48,-8.28,-0.0091904183987278,0.1232895945993153,-0.1086470309554155,-129.00391708769308,37.313754836919216,33.285102998046874
-4.86,2.47,-8.15,-0.1464633006698141,0.1500940410634399,0.003639223692847,-129.48518799624307,37.03568997450844,32.97426433366517
-4.86,2.47,-8.15,-0.1464633006698141,0.1500940410634399,0.003639223692847,-129.48518799624307,37.03568997450844,32.97426433366517
-4.51,1.52,-7.94,0.3944509181465874,-0.3499803649448289,0.5645711095486483,-130.02500909601727,36.769926221818416,32.54428338361999
-4.51,1.52,-7.94,0.3944509181465874,-0.3499803649448289,0.5645711095486483,-130.02500909601727,36.769926221818416,32.54428338361999
-4.61,2.15,-7.48,-0.2683712575635982,0.0134452513710485,0.7649247169951394,-130.0792914251156,36.73370161256758,32.460730842800366
-4.61,2.15,-7.48,-0.2683712575635982,0.0134452513710485,0.7649247169951394,-130.0792914251156,36.73370161256758,32.460730842800366
-4.46,2.14,-7.21,-0.3555135360529291,-0.0002028204640782,1.0700081918138,-130.3788376016962,36.72162758785172,32.031310917714855
-4.46,2.14,-7.21,-0.3555135360529291,-0.0002028204640782,1.0700081918138,-130.3788376016962,36.72162758785172,32.031310917714855
-4.28,2.01,-7.23,-0.2410119154757342,-0.0551813671163932,1.1712421767804209,-130.81759051018483,36.72162758785172,31.36423874673959
-4.28,2.01,-7.23,-0.2410119154757342,-0.0551813671163932,1.1712421767804209,-130.81759051018483,36.72162758785172,31.36423874673959
-4.1,2.0,-6.73,-0.5307909688803512,-0.1634360002087223,1.6952722119056212,-131.81847545998673,36.60091053338324,29.95028992789253
-4.1,2.0,-6.73,-0.5307909688803512,-0.1634360002087223,1.6952722119056212,-131.81847545998673,36.60091053338324,29.95028992789253
-3.25,2.07,-8.23,0.5476875161732171,0.3418121965062468,0.7422414254184488,-132.7820481898819,36.60091053338324,28.36366745712689
-3.25,2.07,-8.23,0.5476875161732171,0.3418121965062468,0.7422414254184488,-132.7820481898819,36.60091053338324,28.36366745712689
-3.39,2.11,-8.49,0.3441350957446402,0.112261444199339,0.4315090195121254,-133.61881240543406,36.70955398535576,26.74724052277769
-3.39,2.11,-8.49,0.3441350957446402,0.112261444199339,0.4315090195121254,-133.61881240543406,36.70955398535576,26.74724052277769
-3.18,2.53,-8.07,-0.0675975320801509,0.369772954261848,0.7790867332068387,-134.14543141113884,36.80615463747225,25.559049077875773
-3.18,2.53,-8.07,-0.0675975320801509,0.369772954261848,0.7790867332068387,-134.14543141113884,36.80615463747225,25.559049077875773
-2.77,2.6,-8.26,0.0073118244436791,0.4224791011559588,0.7246921743816852,-134.97619058332575,37.03568997450844,23.46000147463535
-2.77,2.6,-8.26,0.0073118244436791,0.4224791011559588,0.7246921743816852,-134.97619058332575,37.03568997450844,23.46000147463535
-2.48,2.36,-9.04,0.4588112193048677,0.1720408207791792,0.1525579028100416,-135.54829362030736,37.26537941343616,21.76552371074204
-2.48,2.36,-9.04,0.4588112193048677,0.1720408207791792,0.1525579028100416,-135.54829362030736,37.26537941343616,21.76552371074204
-2.2,2.97,-9.29,0.150394577501423,0.4197942252443889,-0.1816508704939234,-136.12747373883852,37.42262477199783,19.51749856310592
-2.2,2.97,-9.29,0.150394577501423,0.4197942252443889,-0.1816508704939234,-136.12747373883852,37.42262477199783,19.51749856310592
-1.9,3.06,-9.51,0.2364196825808405,0.4400837195587992,-0.3503245521719052,-136.34269592729157,37.604152605861614,18.20486640453508
-1.9,3.06,-9.51,0.2364196825808405,0.4400837195587992,-0.3503245521719052,-136.34269592729157,37.604152605861614,18.20486640453508
-1.82,2.97,-9.76,0.2491742016740182,0.121473750458573,-0.5525997964461524,-136.40437355406192,37.9069169867096,16.720885966499374
-1.82,2.97,-9.76,0.2491742016740182,0.121473750458573,-0.5525997964461524,-136.40437355406192,37.9069169867096,16.720885966499374
-1.82,3.28,-9.46,-0.191885214676881,0.1604003018932471,-0.3668376914232798,-136.43524351543036,38.10083031138289,15.424724640986325
-1.82,3.28,-9.46,-0.191885214676881,0.1604003018932471,-0.3668376914232798,-136.43524351543036,38.10083031138289,15.424724640986325
-1.31,3.1,-10.19,0.3607632500178088,0.1085033525096044,-0.918100668427252,-136.55893204947213,38.270597450084026,14.303764676023915
-1.31,3.1,-10.19,0.3607632500178088,0.1085033525096044,-0.918100668427252,-136.55893204947213,38.270597450084026,14.303764676023915
-1.23,2.96,-10.38,0.4300029679001303,-0.1201317439668157,-1.0478221572119129,-136.62090215577362,38.37977954174036,13.39183842112712
-1.23,2.96,-10.38,0.4300029679001303,-0.1201317439668157,-1.0478221572119129,-136.62090215577362,38.37977954174036,13.39183842112712
-1.39,3.7,-9.92,-0.3360022891965806,0.1874671837851451,-0.8648287408614728,-136.43524351543036,38.45258771550744,12.596044357776794
-1.39,3.7,-9.92,-0.3360022891965806,0.1874671837851451,-0.8648287408614728,-136.43524351543036,38.45258771550744,12.596044357776794
-0.99,3.34,-10.03,0.0668333968107571,0.0014139613601973,-0.8108888531327789,-136.68295663578678,38.3312497043692,11.558962006616271
-0.99,3.34,-10.03,0.0668333968107571,0.0014139613601973,-0.8108888531327789,-136.68295663578678,38.3312497043692,11.558962006616271
-0.8,3.37,-9.86,0.0787477383738127,0.0642963109128025,-0.6435253467635196,-136.90081703525604,38.07658496090942,10.948685380949463
-0.8,3.37,-9.86,0.0787477383738127,0.0642963109128025,-0.6435253467635196,-136.90081703525604,38.07658496090942,10.948685380949463
-0.71,3.06,-9.67,0.1884151661794396,-0.1708209924369972,-0.3575971395424276,-136.8696299695147,38.12507743338386,10.292697102933529
-0.71,3.06,-9.67,0.1884151661794396,-0.1708209924369972,-0.3575971395424276,-136.8696299695147,38.12507743338386,10.292697102933529
-0.52,3.54,-9.56,-0.0229934639954191,0.2288142947516198,-0.3983838225373297,-136.9320256088512,37.95538472991653,9.798053639345571
-0.52,3.54,-9.56,-0.0229934639954191,0.2288142947516198,-0.3983838225373297,-136.9320256088512,37.95538472991653,9.798053639345571
-0.41,3.25,-9.53,0.1358796493253379,-0.0195811668660563,-0.2696912654992687,-137.11973135242658,37.73733524113148,9.085166406176857
-0.41,3.25,-9.53,0.1358796493253379,-0.0195811668660563,-0.2696912654992687,-137.11973135242658,37.73733524113148,9.085166406176857
-0.53,3.25,-9.33,-0.0708835269274881,-0.1211143959682674,-0.086408517399942,-137.088392741319,37.7615559445365,8.590953131273462
-0.53,3.25,-9.33,-0.0708835269274881,-0.1211143959682674,-0.086408517399942,-137.088392741319,37.7615559445365,8.590953131273462
-0.54,3.59,-9.44,-0.3185251465624187,-0.0685169711438089,-0.3021158571990217,-136.83846436491558,37.81000260574194,7.9016186202083185
-0.54,3.59,-9.44,-0.3185251465624187,-0.0685169711438089,-0.3021158571990217,-136.83846436491558,37.81000260574194,7.9016186202083185
-0.19,3.37,-9.52,0.0258007889985178,-0.0876411469151634,-0.2936001626768832,-136.90081703525604,37.785778398919184,7.384806987935718
-0.19,3.37,-9.52,0.0258007889985178,-0.0876411469151634,-0.2936001626768832,-136.90081703525604,37.785778398919184,7.384806987935718
0.02,3.75,-9.53,-0.1067611312957186,0.2077718078003185,-0.4319647957977146,-136.99450746728783,37.56783922201158,6.707435672786218
0.02,3.75,-9.53,-0.1067611312957186,0.2077718078003185,-0.4319647957977146,-136.99450746728783,37.56783922201158,6.707435672786218
0.12,3.64,-9.65,-0.0006710430917554,0.0896161510800817,-0.5073438188447081,-137.02578084639396,37.483123203499495,6.236859579751598
0.12,3.64,-9.65,-0.0006710430917554,0.0896161510800817,-0.5073438188447081,-137.02578084639396,37.483123203499495,6.236859579751598
0.25,3.0,-9.88,0.4326440552267629,-0.4239006563885757,-0.5040254073140265,-137.21387841569043,37.277472623411406,5.640181741583799
0.25,3.0,-9.88,0.4326440552267629,-0.4239006563885757,-0.5040254073140265,-137.21387841569043,37.277472623411406,5.640181741583799
0.3,3.52,-9.71,0.1140234939596086,-0.0314616238509444,-0.5253637828523026,-137.02578084639396,37.35004092959612,5.3992599817249625
0.3,3.52,-9.71,0.1140234939596086,-0.0314616238509444,-0.5253637828523026,-137.02578084639396,37.35004092959612,5.3992599817249625
0.14,3.31,-9.48,0.0223087453050026,-0.2801734980545032,-0.231631981039925,-136.8073201749142,37.50732560971657,5.078067932263361
0.14,3.31,-9.48,0.0223087453050026,-0.2801734980545032,-0.231631981039925,-136.8073201749142,37.50732560971657,5.078067932263361
0.21,3.97,-9.67,-0.2948175660446852,0.0945355868492705,-0.6440937833663583,-136.7450958533554,37.37423381555307,4.745446786894516
0.21,3.97,-9.67,-0.2948175660446852,0.0945355868492705,-0.6440937833663583,-136.7450958533554,37.37423381555307,4.745446786894516
0.42,3.82,-9.75,-0.09332841017504,-0.0030524802206748,-0.6729769251447449,-136.68295663578678,37.26537941343616,4.206454848857137
0.42,3.82,-9.75,-0.09332841017504,-0.0030524802206748,-0.6729769251447449,-136.68295663578678,37.26537941343616,4.206454848857137
0.29,3.68,-9.3,-0.2357090597703073,-0.085841596106617,-0.1960282643210185,-136.65191882638644,37.277472623411406,3.919795697049856
0.29,3.68,-9.3,-0.2357090597703073,-0.085841596106617,-0.1960282643210185,-136.65191882638644,37.277472623411406,3.919795697049856
0.45,3.75,-9.64,-0.1571455460134902,-0.1239831824462747,-0.5448973938845807,-136.55893204947213,37.24119428419274,3.40386984812725
0.45,3.75,-9.64,-0.1571455460134902,-0.1239831824462747,-0.5448973938845807,-136.55893204947213,37.24119428419274,3.40386984812725
0.82,3.41,-9.36,0.228798584382379,-0.0914943907303751,-0.1858161612761808,-136.7140156295355,37.05986053192884,2.9911793597011727
0.82,3.41,-9.36,0.228798584382379,-0.0914943907303751,-0.1858161612761808,-136.7140156295355,37.05986053192884,2.9911793597011727
0.86,3.6,-9.22,0.0624896781946841,0.0720224154144988,-0.1280823975936567,-136.83846436491558,36.86654380200172,2.509755787270372
0.86,3.6,-9.22,0.0624896781946841,0.0720224154144988,-0.1280823975936567,-136.83846436491558,36.86654380200172,2.509755787270372
0.92,3.55,-9.16,0.0678738991831879,0.0387454162433562,-0.0598788691884841,-136.83846436491558,36.80615463747225,2.051298459271143
0.92,3.55,-9.16,0.0678738991831879,0.0387454162433562,-0.0598788691884841,-136.83846436491558,36.80615463747225,2.051298459271143
1.02,3.53,-9.02,0.0502286894685961,0.0465193561301158,0.067193494205668,-136.7140156295355,36.78200193719797,1.3865917007687605
1.02,3.53,-9.02,0.0502286894685961,0.0465193561301158,0.067193494205668,-136.7140156295355,36.78200193719797,1.3865917007687605
1.18,3.88,-9.37,-0.049692534745259,0.1945129570695178,-0.4013564342418299,-136.5279785234642,36.83030903162442,0.8479852761926534
1.18,3.88,-9.37,-0.049692534745259,0.1945129570695178,-0.4013564342418299,-136.5279785234642,36.83030903162442,0.8479852761926534
1.22,3.66,-9.41,0.0141070130542267,-0.0516240419033531,-0.3633665167260301,-136.34269592729157,36.86654380200172,0.1260507403490224
1.22,3.66,-9.41,0.0141070130542267,-0.0516240419033531,-0.3633665167260301,-136.34269592729157,36.86654380200172,0.1260507403490224
1.3,3.66,-9.39,-0.0049246264976469,-0.0756090518546135,-0.3546471130329376,-136.34269592729157,36.66126379400549,-0.4927452222969898
1.3,3.66,-9.39,-0.0049246264976469,-0.0756090518546135,-0.3546471130329376,-136.34269592729157,36.66126379400549,-0.4927452222969898
1.46,3.66,-9.17,-0.0171707945377357,-0.017710270300435,-0.1741060590438632,-136.06616582647524,36.673335709404434,-1.3407518310456548
1.46,3.66,-9.17,-0.0171707945377357,-0.017710270300435,-0.1741060590438632,-136.06616582647524,36.673335709404434,-1.3407518310456548
1.76,4.33,-9.62,-0.2209171682711973,0.3461357715045557,-0.8808326611530912,-135.73041492290912,36.73370161256758,-2.0398374773549266
1.76,4.33,-9.62,-0.2209171682711973,0.3461357715045557,-0.8808326611530912,-135.73041492290912,36.73370161256758,-2.0398374773549266
1.58,3.35,-9.76,0.0699215614379603,-0.5947357332457082,-0.6153411908831892,-135.8217429117077,36.48023552286196,-3.048495041051397
1.58,3.35,-9.76,0.0699215614379603,-0.5947357332457082,-0.6153411908831892,-135.8217429117077,36.48023552286196,-3.048495041051397
1.55,3.74,-9.3,-0.3090384848761187,-0.2475338179578332,-0.3286014632757279,-135.57859793518082,36.41991372856602,-3.713416405127687
1.55,3.74,-9.3,-0.3090384848761187,-0.2475338179578332,-0.3286014632757279,-135.57859793518082,36.41991372856602,-3.713416405127687
2.08,4.12,-9.96,-0.2240433129192032,-0.1457349496278697,-1.1674543333109018,-135.06606324188033,36.40785062374676,-4.860139072417077
2.08,4.12,-9.96,-0.2240433129192032,-0.1457349496278697,-1.1674543333109018,-135.06606324188033,36.40785062374676,-4.860139072417077
1.98,3.26,-9.77,0.0919850627403608,-0.7966593071431269,-0.6507766766052416,-134.91636984441135,36.37166381418113,-5.525454047712893
1.98,3.26,-9.77,0.0919850627403608,-0.7966593071431269,-0.6507766766052416,-134.91636984441135,36.37166381418113,-5.525454047712893
2.15,4.01,-10.12,-0.317837247458109,-0.4283831645119169,-1.2763309775389882,-134.588690989807,36.40785062374676,-6.259812004164343
2.15,4.01,-10.12,-0.317837247458109,-0.4283831645119169,-1.2763309775389882,-134.588690989807,36.40785062374676,-6.259812004164343
2.18,4.03,-9.61,-0.3869797029219463,-0.2110074012791902,-0.8306016462727257,-134.47008902668762,36.39578793652754,-6.650042440520529
2.18,4.03,-9.61,-0.3869797029219463,-0.2110074012791902,-0.8306016462727257,-134.47008902668762,36.39578793652754,-6.650042440520529
2.32,3.85,-9.81,-0.2562270018774283,-0.4224547427383101,-0.9728156506640796,-134.26323636741046,36.39578793652754,-7.258498535026432
2.32,3.85,-9.81,-0.2562270018774283,-0.4224547427383101,-0.9728156506640796,-134.26323636741046,36.39578793652754,-7.258498535026432
2.69,4.72,-10.37,-0.5585670931990303,0.0225639222090943,-1.886890681581852,-133.85216386873807,36.46817032738551,-7.8212153932673
2.69,4.72,-10.37,-0.5585670931990303,0.0225639222090943,-1.886890681581852,-133.85216386873807,36.46817032738551,-7.8212153932673
2.52,3.62,-8.8,-0.1148611760009549,-0.1034602727663351,-0.0356517065220476,-134.02791208505093,36.33548075823788,-8.177316654862214
2.52,3.62,-8.8,-0.1148611760009549,-0.1034602727663351,-0.0356517065220476,-134.02791208505093,36.33548075823788,-8.177316654862214
2.7,4.08,-9.47,-0.2621377518721356,-0.0125320765744061,-0.8492604137609998,-133.91067619883825,36.34754136011127,-8.303694005010767
2.7,4.08,-9.47,-0.2621377518721356,-0.0125320765744061,-0.8492604137609998,-133.91067619883825,36.34754136011127,-8.303694005010767
2.52,4.07,-9.75,-0.3933431178026092,-0.2226857596067128,-1.045699618591625,-133.93995871664828,36.40785062374676,-8.23475966058657
2.52,4.07,-9.75,-0.3933431178026092,-0.2226857596067128,-1.045699618591625,-133.93995871664828,36.40785062374676,-8.23475966058657
2.68,4.34,-10.24,-0.4095101609294957,-0.1342554745873112,-1.6253173239403065,-134.0866361818657,36.37166381418113,-8.108387763620353
2.68,4.34,-10.24,-0.4095101609294957,-0.1342554745873112,-1.6253173239403065,-134.0866361818657,36.37166381418113,-8.108387763620353
2.45,4.06,-10.52,-0.3348703075278979,-0.5102179168232905,-1.716545717963344,-134.44048421864292,36.23901092380315,-7.614481849246592
2.45,4.06,-10.52,-0.3348703075278979,-0.5102179168232905,-1.716545717963344,-134.44048421864292,36.23901092380315,-7.614481849246592
2.19,4.04,-10.54,-0.415138407398411,-0.5713579166678211,-1.6698699530939525,-134.6778353365212,36.311360803930285,-6.89110540785609
2.19,4.04,-10.54,-0.415138407398411,-0.5713579166678211,-1.6698699530939525,-134.6778353365212,36.311360803930285,-6.89110540785609
1.8,3.8,-10.12,-0.4002880483729612,-0.5807236501908835,-1.1293881089514637,-135.30656135192416,36.23901092380315,-5.628708719478254
1.8,3.8,-10.12,-0.4002880483729612,-0.5807236501908835,-1.1293881089514637,-135.30656135192416,36.23901092380315,-5.628708719478254
1.65,4.14,-10.1,-0.5776235797287111,-0.2769444476578977,-1.214318776521095,-135.79128033679729,36.1305141127441,-4.699571210920838
1.65,4.14,-10.1,-0.5776235797287111,-0.2769444476578977,-1.214318776521095,-135.79128033679729,36.1305141127441,-4.699571210920838
1.9,4.02,-10.6,-0.0609656768754672,-0.2047234797981976,-1.6861639062225482,-136.40437355406192,36.03410062770514,-3.32362118371626
1.9,4.02,-10.6,-0.0609656768754672,-0.2047234797981976,-1.6861639062225482,-136.40437355406192,36.03410062770514,-3.32362118371626
1.42,3.73,-9.31,-0.0812941869174028,0.1063455969436417,-0.3218978657695128,-137.27675296577294,35.841352697842005,-1.283452294756085
1.42,3.73,-9.31,-0.0812941869174028,0.1063455969436417,-0.3218978657695128,-137.27675296577294,35.841352697842005,-1.283452294756085
1.06,3.12,-10.02,0.1794123450202052,-0.6105340506337229,-0.7220469461311351,-138.1343678726239,35.39602326525133,-0.3323159869732291
1.06,3.12,-10.02,0.1794123450202052,-0.6105340506337229,-0.7220469461311351,-138.1343678726239,35.39602326525133,-0.3323159869732291
1.29,3.29,-10.42,0.5049465802023021,-0.2573981616344816,-1.1816790421032228,-138.91102916961097,35.03535067049245,0.9511208605830096
1.29,3.29,-10.42,0.5049465802023021,-0.2573981616344816,-1.1816790421032228,-138.91102916961097,35.03535067049245,0.9511208605830096
0.74,3.48,-9.13,-0.0191201687146814,0.1986228533641025,0.0099626322583006,-139.3046731473042,34.97527349807247,2.383676327772471
0.74,3.48,-9.13,-0.0191201687146814,0.1986228533641025,0.0099626322583006,-139.3046731473042,34.97527349807247,2.383676327772471
0.45,3.28,-9.4,0.1191538876131695,0.0384922958378195,-0.1585504843970788,-139.9020743124711,34.66303165808797,4.011523869819651
0.45,3.28,-9.4,0.1191538876131695,0.0384922958378195,-0.1585504843970788,-139.9020743124711,34.66303165808797,4.011523869819651
0.35,2.97,-9.54,0.3728307297647569,-0.1072442386750789,-0.1835700136040099,-140.44035437538835,34.36304933185503,5.089538374458754
0.35,2.97,-9.54,0.3728307297647569,-0.1072442386750789,-0.1835700136040099,-140.44035437538835,34.36304933185503,5.089538374458754
-0.18,2.86,-9.13,0.1200834792037166,-0.1320772240886198,0.2391510810087158,-140.78037862226373,34.267106355147284,6.661520952908496
-0.18,2.86,-9.13,0.1200834792037166,-0.1320772240886198,0.2391510810087158,-140.78037862226373,34.267106355147284,6.661520952908496
-0.35,3.06,-9.63,0.0903342066763889,-0.0412022722720233,-0.3034015381408306,-140.9514569794307,34.20715457242007,7.568544455864769
-0.35,3.06,-9.63,0.0903342066763889,-0.0412022722720233,-0.3034015381408306,-140.9514569794307,34.20715457242007,7.568544455864769
-0.54,2.97,-9.45,0.0878638595924157,0.0611703852279779,-0.1132057512772615,-141.3650146581067,33.96744372977673,8.751841754333862
-0.54,2.97,-9.45,0.0878638595924157,0.0611703852279779,-0.1132057512772615,-141.3650146581067,33.96744372977673,8.751841754333862
-0.9,3.08,-9.39,-0.1590797302298308,0.1097174164548415,-0.1145976900819523,-141.46907086921098,33.919519970596944,9.683046840720888
-0.9,3.08,-9.39,-0.1590797302298308,0.1097174164548415,-0.1145976900819523,-141.46907086921098,33.919519970596944,9.683046840720888
-1.14,3.3,-9.27,-0.3429325894874195,0.3608109552325447,-0.0865149482686593,-141.6082344949301,33.727885940809074,10.868106466869214
-1.14,3.3,-9.27,-0.3429325894874195,0.3608109552325447,-0.0865149482686593,-141.6082344949301,33.727885940809074,10.868106466869214
-1.15,2.82,-9.15,-0.0415095410140836,0.1655627314442931,0.1646447137557789,-141.85294621850556,33.548317235556404,11.662626087112969
-1.15,2.82,-9.15,-0.0415095410140836,0.1655627314442931,0.1646447137557789,-141.85294621850556,33.548317235556404,11.662626087112969
-1.41,2.65,-9.08,-0.0268388822597739,0.0894745204671658,0.2437909095090074,-141.88802849828062,33.356870714029654,12.89583508427226
-1.41,2.65,-9.08,-0.0268388822597739,0.0894745204671658,0.2437909095090074,-141.88802849828062,33.356870714029654,12.89583508427226
-1.59,2.8,-8.72,-0.2420124812764149,0.294752864483196,0.5189672584446345,-141.95828650840244,33.15356371555689,13.761120312162008
-1.59,2.8,-8.72,-0.2420124812764149,0.294752864483196,0.5189672584446345,-141.95828650840244,33.15356371555689,13.761120312162008
-1.54,2.23,-9.39,0.3728521997926845,-0.0293014766223831,0.0405493113639501,-142.1344807161217,32.914516343671416,14.592535930080526
-1.54,2.23,-9.39,0.3728521997926845,-0.0293014766223831,0.0405493113639501,-142.1344807161217,32.914516343671416,14.592535930080526
-1.79,2.41,-9.58,0.2506869582414018,0.0822812980230145,-0.229234905525935,-142.06390845011202,32.74727085632419,15.424724640986325
-1.79,2.41,-9.58,0.2506869582414018,0.0822812980230145,-0.229234905525935,-142.06390845011202,32.74727085632419,15.424724640986325
-2.07,2.59,-9.41,0.0352257742329175,0.2441483519162304,-0.1673286809019298,-141.85294621850556,32.61591400140699,16.524012627926176
-2.07,2.59,-9.41,0.0352257742329175,0.2441483519162304,-0.1673286809019298,-141.85294621850556,32.61591400140699,16.524012627926176
-2.26,1.99,-9.98,0.4679378553680467,-0.2729378786177142,-0.6036640720119095,-141.71292660191068,32.56815880254804,17.253853117357277
-2.26,1.99,-9.98,0.4679378553680467,-0.2729378786177142,-0.6036640720119095,-141.71292660191068,32.56815880254804,17.253853117357277
-2.46,2.55,-9.63,0.1022678912829482,0.2482075884009989,-0.4509781016360055,-141.19218403998903,32.592035674709635,18.52988910265012
-2.46,2.55,-9.63,0.1022678912829482,0.2482075884009989,-0.4509781016360055,-141.19218403998903,32.592035674709635,18.52988910265012
-2.7,2.29,-9.27,0.0460232205364351,0.0436999190983611,-0.1162010106844935,-140.8487237731441,32.56815880254804,19.447737797457524
-2.7,2.29,-9.27,0.0460232205364351,0.0436999190983611,-0.1162010106844935,-140.8487237731441,32.56815880254804,19.447737797457524
-2.85,2.2,-9.29,0.1527241482216071,0.0432657994354306,-0.1553479625148082,-140.44035437538835,32.424928041950515,20.65797889865216
-2.85,2.2,-9.29,0.1527241482216071,0.0432657994354306,-0.1553479625148082,-140.44035437538835,32.424928041950515,20.65797889865216
-3.08,2.25,-8.72,-0.1383728608147624,0.0845053024493778,0.2902950357687963,-139.9020743124711,32.54428338361999,21.602179804976902
-3.08,2.25,-8.72,-0.1383728608147624,0.0845053024493778,0.2902950357687963,-139.9020743124711,32.54428338361999,21.602179804976902
-3.22,2.29,-8.53,-0.2074994149197882,0.2008239738248037,0.4103734116728361,-139.5028685781741,32.460730842800366,22.66472550596455
-3.22,2.29,-8.53,-0.2074994149197882,0.2008239738248037,0.4103734116728361,-139.5028685781741,32.460730842800366,22.66472550596455
-3.11,1.7,-8.76,0.3612018808627596,-0.1112653771799997,0.3643593236279656,-139.1073977684417,32.48460118565665,23.43659483600268
-3.11,1.7,-8.76,0.3612018808627596,-0.1112653771799997,0.3643593236279656,-139.1073977684417,32.48460118565665,23.43659483600268
-3.56,2.28,-8.39,-0.2823159491610315,0.2354902500670151,0.4189483618474164,-138.5209607780903,32.48460118565665,24.479166312304468
-3.56,2.28,-8.39,-0.2823159491610315,0.2354902500670151,0.4189483618474164,-138.5209607780903,32.48460118565665,24.479166312304468
-3.4,1.53,-8.91,0.4888610103660025,-0.1938945257502377,0.1623553225532354,-138.26285199839916,32.508472977193804,24.948403420997227
-3.4,1.53,-8.91,0.4888610103660025,-0.1938945257502377,0.1623553225532354,-138.26285199839916,32.508472977193804,24.948403420997227
-3.68,1.64,-8.62,0.2246309265709939,-0.1640907578488268,0.2956555635587481,-137.5924585129037,32.711441879621354,25.852890528278607
-3.68,1.64,-8.62,0.2246309265709939,-0.1640907578488268,0.2956555635587481,-137.5924585129037,32.711441879621354,25.852890528278607
-3.92,1.81,-8.7,0.0999402034126797,-0.0894586980204839,0.0950842613000713,-137.02578084639396,32.86672457746944,26.54704645350268
-3.92,1.81,-8.7,0.0999402034126797,-0.0894586980204839,0.0950842613000713,-137.02578084639396,32.86672457746944,26.54704645350268
-3.96,2.1,-8.67,0.0244654105504338,0.1953761737743298,0.0484877962647107,-136.34269592729157,33.105742400688804,27.324738438026905
-3.96,2.1,-8.67,0.0244654105504338,0.1953761737743298,0.0484877962647107,-136.34269592729157,33.105742400688804,27.324738438026905
-4.01,1.66,-8.65,0.2717903662681527,-0.1306125889210543,0.1336323556234973,-135.88272800413355,33.309024075692264,27.832105272694303
-4.01,1.66,-8.65,0.2717903662681527,-0.1306125889210543,0.1336323556234973,-135.88272800413355,33.309024075692264,27.832105272694303
-4.17,1.85,-8.46,0.0665450839020925,-0.0065230449399564,0.1952750098285545,-135.336709981557,33.440616741828144,28.505522169511824
-4.17,1.85,-8.46,0.0665450839020925,-0.0065230449399564,0.1952750098285545,-135.336709981557,33.440616741828144,28.505522169511824
-4.33,1.89,-8.35,-0.0445444822221328,-0.0259055972845987,0.212858013036092,-134.88648767208014,33.62013451285477,29.02603985005446
-4.33,1.89,-8.35,-0.0445444822221328,-0.0259055972845987,0.212858013036092,-134.88648767208014,33.62013451285477,29.02603985005446
-4.57,1.85,-8.15,-0.1964761188999688,-0.1706955232940256,0.2849820697984099,-134.3222466489682,33.78776111254545,29.630134776789287
-4.57,1.85,-8.15,-0.1964761188999688,-0.1706955232940256,0.2849820697984099,-134.3222466489682,33.78776111254545,29.630134776789287
-4.43,1.8,-8.6,0.1977665303123432,-0.0579444900345592,-0.0311562003458263,-133.99857662596108,33.919519970596944,29.97401461191905
-4.43,1.8,-8.6,0.1977665303123432,-0.0579444900345592,-0.0311562003458263,-133.99857662596108,33.919519970596944,29.97401461191905
-4.59,1.91,-8.49,0.0620536457399848,-0.0092801070789203,-0.0316609945083019,-133.41553604515124,34.17118813606689,30.567562314513644
-4.59,1.91,-8.49,0.0620536457399848,-0.0092801070789203,-0.0316609945083019,-133.41553604515124,34.17118813606689,30.567562314513644
-4.71,1.86,-8.56,0.1064904175636194,-0.0664173899440331,-0.1382757675097874,-132.98273895587266,34.351055102879386,31.00732816596471
-4.71,1.86,-8.56,0.1064904175636194,-0.0664173899440331,-0.1382757675097874,-132.98273895587266,34.351055102879386,31.00732816596471
-4.81,2.0,-8.63,0.1126229691480445,0.0624081518556055,-0.2728550121224842,-132.29797094336487,34.57901199780452,31.73337455864903
-4.81,2.0,-8.63,0.1126229691480445,0.0624081518556055,-0.2728550121224842,-132.29797094336487,34.57901199780452,31.73337455864903
-5.12,2.25,-7.99,-0.4569363047817464,0.0546079295789407,0.0647186110299724,-131.70630400699525,34.77108519878443,32.37719603241224
-5.12,2.25,-7.99,-0.4569363047817464,0.0546079295789407,0.0647186110299724,-131.70630400699525,34.77108519878443,32.37719603241224
-4.93,2.14,-8.09,-0.1377632488886079,0.1384419654628061,0.0961167958214321,-131.14907903681728,34.98728813812748,32.950364032221074
-4.93,2.14,-8.09,-0.1377632488886079,0.1384419654628061,0.0961167958214321,-131.14907903681728,34.98728813812748,32.950364032221074
-5.09,1.78,-7.69,-0.2039149860027053,-0.2518346389301293,0.420085240029584,-130.76254599505174,35.095437786143385,33.368833308546726
-5.09,1.78,-7.69,-0.2039149860027053,-0.2518346389301293,0.420085240029584,-130.76254599505174,35.095437786143385,33.368833308546726
-4.91,2.09,-7.87,-0.100529922277986,0.1833677124643946,0.3003694436124302,-130.3788376016962,35.20361971980137,33.811713840931375
-4.91,2.09,-7.87,-0.100529922277986,0.1833677124643946,0.3003694436124302,-130.3788376016962,35.20361971980137,33.811713840931375
-4.81,2.01,-7.89,0.0556884775523177,0.2165200324063561,0.3526393236238299,-129.9436888935972,35.46820114810156,34.111251783016854
-4.81,2.01,-7.89,0.0556884775523177,0.2165200324063561,0.3526393236238299,-129.9436888935972,35.46820114810156,34.111251783016854
-4.91,1.77,-7.67,0.0466063307103609,-0.0272825660944147,0.5294206985584841,-129.7004663573504,35.504295540348124,34.44701981345315
-4.91,1.77,-7.67,0.0466063307103609,-0.0272825660944147,0.5294206985584841,-129.7004663573504,35.504295540348124,34.44701981345315
-4.99,1.3,-7.54,0.2222735725256011,-0.4567518678236737,0.6861416704058474,-129.3510733053071,35.696860557625506,34.71105152226627
-4.99,1.3,-7.54,0.2222735725256011,-0.4567518678236737,0.6861416704058474,-129.3510733053071,35.696860557625506,34.71105152226627
-4.95,2.12,-7.6,-0.1422812281797412,0.2101804029914964,0.4957703288676321,-129.0571819857357,35.96180782852424,34.8191192303352
-4.95,2.12,-7.6,-0.1422812281797412,0.2101804029914964,0.4957703288676321,-129.0571819857357,35.96180782852424,34.8191192303352
-4.83,1.58,-8.12,0.5127036550788915,-0.06778102304899,0.2414923591148668,-128.76486449761614,36.38372566673132,34.80711013090355
-4.83,1.58,-8.12,0.5127036550788915,-0.06778102304899,0.2414923591148668,-128.76486449761614,36.38372566673132,34.80711013090355
-5.07,1.34,-7.85,0.3874717989314162,-0.4555754649900872,0.3851152736015475,-128.23732310544656,36.914862771096224,34.97527349807247
-5.07,1.34,-7.85,0.3874717989314162,-0.4555754649900872,0.3851152736015475,-128.23732310544656,36.914862771096224,34.97527349807247
-5.01,1.85,-8.18,0.3441531767793966,0.0046239966564448,0.0436311426194802,-127.76677999527551,37.43472359227642,35.04736729747761
-5.01,1.85,-8.18,0.3441531767793966,0.0046239966564448,0.0436311426194802,-127.76677999527551,37.43472359227642,35.04736729747761
-5.15,1.78,-8.03,0.2377740971695365,-0.191510510902382,0.1072383063492417,-127.3259688536123,37.979621244835975,35.095437786143385
-5.15,1.78,-8.03,0.2377740971695365,-0.191510510902382,0.1072383063492417,-127.3259688536123,37.979621244835975,35.095437786143385
-5.16,2.17,-8.08,0.0538537486769535,0.070613553745322,-0.0225419047183574,-126.73497195223707,38.707543665525726,35.119475421316324
-5.16,2.17,-8.08,0.0538537486769535,0.070613553745322,-0.0225419047183574,-126.73497195223707,38.707543665525726,35.119475421316324
-5.22,1.72,-8.11,0.3053558469387759,-0.3342093876336756,0.0202327857199051,-126.04885559306123,39.63192076517069,35.08341956652468
-5.22,1.72,-8.11,0.3053558469387759,-0.3342093876336756,0.0202327857199051,-126.04885559306123,39.63192076517069,35.08341956652468
-5.41,2.01,-7.82,-0.1258767722415113,-0.2938938260255858,0.0928257552839095,-125.3707171892468,40.44906443675953,35.10745640434998
-5.41,2.01,-7.82,-0.1258767722415113,-0.2938938260255858,0.0928257552839095,-125.3707171892468,40.44906443675953,35.10745640434998
-5.41,1.74,-7.43,-0.1710058522010597,-0.5966931271401068,0.4730914979849867,-124.84860239500853,41.17041905633896,35.03535067049245
-5.41,1.74,-7.43,-0.1710058522010597,-0.5966931271401068,0.4730914979849867,-124.84860239500853,41.17041905633896,35.03535067049245
-4.92,2.63,-8.16,-0.0699140875518065,0.4321574578274132,-0.0684323769731616,-124.20841744814189,42.20039204818604,34.77108519878443
-4.92,2.63,-8.16,-0.0699140875518065,0.4321574578274132,-0.0684323769731616,-124.20841744814189,42.20039204818604,34.77108519878443
-4.89,2.63,-8.11,-0.1024954380532474,0.3878178783789088,-0.0137467322297073,-123.6476805433651,43.03679967235915,34.56701075551299
-4.89,2.63,-8.11,-0.1024954380532474,0.3878178783789088,-0.0137467322297073,-123.6476805433651,43.03679967235915,34.56701075551299
-4.96,2.6,-7.8,-0.3213089561325409,0.2008280071837058,0.2119624768839063,-123.14014055583444,43.90032983148112,34.27909787153104
-4.96,2.6,-7.8,-0.3213089561325409,0.2008280071837058,0.2119624768839063,-123.14014055583444,43.90032983148112,34.27909787153104
-5.01,1.34,-7.91,0.4816367064483456,-0.7246317380038867,0.388224710851123,-122.7801400993836,44.617815884427785,33.919519970596944
-5.01,1.34,-7.91,0.4816367064483456,-0.7246317380038867,0.388224710851123,-122.7801400993836,44.617815884427785,33.919519970596944
-4.87,2.7,-7.86,-0.3769047241628716,0.224739699274111,0.1840757656033691,-122.20841159701892,45.49863792387894,33.67999263161277
-4.87,2.7,-7.86,-0.3769047241628716,0.224739699274111,0.1840757656033691,-122.20841159701892,45.49863792387894,33.67999263161277
-4.57,1.93,-8.66,0.6490266628214887,-0.0047368165159321,-0.1524735534818067,-121.71235608620218,46.45711770819951,33.18943360011411
-4.57,1.93,-8.66,0.6490266628214887,-0.0047368165159321,-0.1524735534818067,-121.71235608620218,46.45711770819951,33.18943360011411
-4.6,1.96,-8.41,0.4532491556307405,-0.1390824035535394,0.0339880654019442,-121.08017234591216,47.481635948605785,32.795047946580326
-4.6,1.96,-8.41,0.4532491556307405,-0.1390824035535394,0.0339880654019442,-121.08017234591216,47.481635948605785,32.795047946580326
-4.54,2.73,-8.39,-0.0673903392377551,0.337782825628897,-0.1098998690264032,-120.43103091016366,48.371981330891565,32.60397465615993
-4.54,2.73,-8.39,-0.0673903392377551,0.337782825628897,-0.1098998690264032,-120.43103091016366,48.371981330891565,32.60397465615993
-4.42,3.07,-7.81,-0.5553872887560181,0.4088195440504889,0.3471673746187065,-119.60574054309872,49.53031871016275,32.25789123557385
-4.42,3.07,-7.81,-0.5553872887560181,0.4088195440504889,0.3471673746187065,-119.60574054309872,49.53031871016275,32.25789123557385
-4.42,2.86,-7.58,-0.5527501254797473,0.141576172421423,0.5954164514363427,-119.19690467351394,50.28866780725309,31.876356399703745
-4.42,2.86,-7.58,-0.5527501254797473,0.141576172421423,0.5954164514363427,-119.19690467351394,50.28866780725309,31.876356399703745
-4.03,2.96,-8.04,-0.2992368047007754,0.4849438052819439,0.3557565586140932,-118.67809259864173,51.34162455414572,31.185744677827834
-4.03,2.96,-8.04,-0.2992368047007754,0.4849438052819439,0.3557565586140932,-118.67809259864173,51.34162455414572,31.185744677827834
-3.95,3.36,-7.75,-0.746937277204698,0.6491109405643827,0.534361194599164,-118.38659680691794,51.96543273918856,30.710138215163173
-3.95,3.36,-7.75,-0.746937277204698,0.6491109405643827,0.534361194599164,-118.38659680691794,51.96543273918856,30.710138215163173
-3.98,2.88,-7.68,-0.5245703099641472,0.2105002760432113,0.7073249907649828,-118.23015155570128,52.64203317675828,29.95028992789253
-3.98,2.88,-7.68,-0.5245703099641472,0.2105002760432113,0.7073249907649828,-118.23015155570128,52.64203317675828,29.95028992789253
-3.6,3.06,-8.51,-0.2093697568266853,0.6353908013215335,0.0960298944391642,-118.23015155570128,53.19242764249977,29.014203146635065
-3.6,3.06,-8.51,-0.2093697568266853,0.6353908013215335,0.0960298944391642,-118.23015155570128,53.19242764249977,29.014203146635065
-3.63,2.28,-8.61,0.3464852816896092,0.0789886606908336,0.1951408187603149,-117.9183271731557,53.84694292088121,28.434589251931108
-3.63,2.28,-8.61,0.3464852816896092,0.0789886606908336,0.1951408187603149,-117.9183271731557,53.84694292088121,28.434589251931108
-3.94,3.0,-8.4,-0.4654269961360667,0.1073836821608984,0.0672739185421473,-117.54156821615564,54.47758400854888,28.03284519878868
-3.94,3.0,-8.4,-0.4654269961360667,0.1073836821608984,0.0672739185421473,-117.54156821615564,54.47758400854888,28.03284519878868
-3.7,2.65,-8.78,0.0381004185935533,0.0450621120450263,-0.0826076953056027,-117.2328235497882,55.09709191896828,27.50166431915293
-3.7,2.65,-8.78,0.0381004185935533,0.0450621120450263,-0.0826076953056027,-117.2328235497882,55.09709191896828,27.50166431915293
-3.79,2.69,-8.71,-0.1290770192598638,-0.1504626719495088,-0.0637603312602372,-116.79410996273164,55.92583364179144,26.817917077101303
-3.79,2.69,-8.71,-0.1290770192598638,-0.1504626719495088,-0.0637603312602372,-116.79410996273164,55.92583364179144,26.817917077101303
-3.49,3.31,-8.69,-0.5302615525398361,0.327202374732215,-0.1061730737700408,-116.37984588512,56.60153456365382,26.346934855604967
-3.49,3.31,-8.69,-0.5302615525398361,0.327202374732215,-0.1061730737700408,-116.37984588512,56.60153456365382,26.346934855604967
-3.42,3.3,-8.44,-0.647818068217844,0.2584154072928677,0.1457207885957387,-116.29293986048516,56.94018936700064,25.86464777060069
-3.42,3.3,-8.44,-0.647818068217844,0.2584154072928677,0.1457207885957387,-116.29293986048516,56.94018936700064,25.86464777060069
-3.43,3.49,-8.27,-0.9751038453476468,0.1944612086064001,0.2489694587213993,-116.24952660685352,57.40999463594625,24.97187636961762
-3.43,3.49,-8.27,-0.9751038453476468,0.1944612086064001,0.2489694587213993,-116.24952660685352,57.40999463594625,24.97187636961762
-2.57,3.27,-8.89,-0.275603922633124,0.7615284322352354,0.0253404289493737,-116.18445627109944,57.88085702604191,24.104076904803392
-2.57,3.27,-8.89,-0.275603922633124,0.7615284322352354,0.0253404289493737,-116.18445627109944,57.88085702604191,24.104076904803392
-3.0,2.78,-8.61,-0.2969512072325266,-0.0252785501318488,0.2792326702392014,-116.40158899740273,58.09047248173243,23.12070182440919
-3.0,2.78,-8.61,-0.2969512072325266,-0.0252785501318488,0.2792326702392014,-116.40158899740273,58.09047248173243,23.12070182440919
-3.18,3.26,-8.75,-0.8363708253179274,-0.0722510960735749,-0.0217661298590297,-116.77224597329428,58.14290959834098,21.998949913651906
-3.18,3.26,-8.75,-0.8363708253179274,-0.0722510960735749,-0.0217661298590297,-116.77224597329428,58.14290959834098,21.998949913651906
-2.42,2.65,-9.98,0.3472128971977589,0.2113360501584889,-0.7911837540236473,-116.92543657528311,58.352791710028974,21.0191686635752
-2.42,2.65,-9.98,0.3472128971977589,0.2113360501584889,-0.7911837540236473,-116.92543657528311,58.352791710028974,21.0191686635752
-2.43,3.21,-9.15,-0.4533338790665194,0.2780136663615686,-0.1757693858706766,-117.013124056645,58.444682614751024,20.4017767128752
-2.43,3.21,-9.15,-0.4533338790665194,0.2780136663615686,-0.1757693858706766,-117.013124056645,58.444682614751024,20.4017767128752
-2.3,2.99,-9.2,-0.2529974730821822,0.1208662100430957,-0.1327405063582158,-117.12288767556583,58.52347906562028,19.6570420373131
-2.3,2.99,-9.2,-0.2529974730821822,0.1208662100430957,-0.1327405063582158,-117.12288767556583,58.52347906562028,19.6570420373131
-2.12,2.74,-9.47,0.0646095895235861,-0.0047583040872254,-0.2769358185212969,-117.18882847106602,58.68116315004747,18.86667840059343
-2.12,2.74,-9.47,0.0646095895235861,-0.0047583040872254,-0.2769358185212969,-117.18882847106602,58.68116315004747,18.86667840059343
-1.88,3.08,-9.12,-0.2407053750205146,0.2372755077964559,0.0045603627932386,-117.03506304367224,58.917918323687886,18.42540124877966
-1.88,3.08,-9.12,-0.2407053750205146,0.2372755077964559,0.0045603627932386,-117.03506304367224,58.917918323687886,18.42540124877966
-1.81,2.65,-9.3,0.1587901728891829,-0.0171852404553591,-0.0301731837572614,-117.07896160834984,58.99689808623479,17.891591511712036
-1.81,2.65,-9.3,0.1587901728891829,-0.0171852404553591,-0.0301731837572614,-117.07896160834984,58.99689808623479,17.891591511712036
-1.64,2.46,-9.44,0.3650153422339278,-0.0723396068814028,-0.0785070944123109,-116.90353178561008,59.36587885432352,17.207493384994194
-1.64,2.46,-9.44,0.3650153422339278,-0.0723396068814028,-0.0785070944123109,-116.90353178561008,59.36587885432352,17.207493384994194
-1.72,2.78,-9.63,0.0749583254675168,-0.0904514121288051,-0.3624158268833639,-116.64120406641231,59.73553808607135,16.651395613206027
-1.72,2.78,-9.63,0.0749583254675168,-0.0904514121288051,-0.3624158268833639,-116.64120406641231,59.73553808607135,16.651395613206027
-1.4,3.29,-9.73,-0.192292771643006,0.3382647025265042,-0.5521916572992591,-116.4668582991344,59.9867685475142,16.257732621833743
-1.4,3.29,-9.73,-0.192292771643006,0.3382647025265042,-0.5521916572992591,-116.4668582991344,59.9867685475142,16.257732621833743
-1.79,3.5,-9.47,-0.6631383364272692,0.0089061639479983,-0.4254156871916255,-116.4886280777146,60.01323233461206,15.82955387412607
-1.79,3.5,-9.47,-0.6631383364272692,0.0089061639479983,-0.4254156871916255,-116.4886280777146,60.01323233461206,15.82955387412607
-1.79,3.21,-9.18,-0.5836882897334784,-0.2157917250772927,-0.0621565089865967,-116.72853831267862,59.90739833750701,15.216602467156427
-1.79,3.21,-9.18,-0.5836882897334784,-0.2157917250772927,-0.0621565089865967,-116.72853831267862,59.90739833750701,15.216602467156427
-0.85,3.17,-10.61,0.2422362666928645,0.3330253749309366,-1.2917244616385517,-116.90353178561008,59.8677251126705,14.176734355559056
-0.85,3.17,-10.61,0.2422362666928645,0.3330253749309366,-1.2917244616385517,-116.90353178561008,59.8677251126705,14.176734355559056
-1.2,3.12,-9.77,-0.1828553982240589,-0.0330210188401498,-0.5177276333324379,-117.18882847106602,59.64305925688446,13.738036026791262
-1.2,3.12,-9.77,-0.1828553982240589,-0.0330210188401498,-0.5177276333324379,-117.18882847106602,59.64305925688446,13.738036026791262
-1.38,3.32,-9.47,-0.6052376229156793,-0.2059894671758608,-0.3026999177355609,-117.56367389565744,59.36587885432352,12.930431986971731
-1.38,3.32,-9.47,-0.6052376229156793,-0.2059894671758608,-0.3026999177355609,-117.56367389565744,59.36587885432352,12.930431986971731
-0.82,2.58,-10.32,0.4291327203394189,-0.2554056681992365,-0.8508268614802006,-117.89610796371052,59.14177438587889,12.134996086138983
-0.82,2.58,-10.32,0.4291327203394189,-0.2554056681992365,-0.8508268614802006,-117.89610796371052,59.14177438587889,12.134996086138983
-0.84,2.9,-10.11,0.0366351195590103,-0.2346635888447825,-0.7418707905224995,-118.20783138151,58.85212533574583,11.455307417011952
-0.84,2.9,-10.11,0.0366351195590103,-0.2346635888447825,-0.7418707905224995,-118.20783138151,58.85212533574583,11.455307417011952
-0.83,3.14,-9.94,-0.2664245022285354,-0.1854298917858055,-0.6454662326030682,-118.47615510912564,58.64173070844467,10.868106466869214
-0.83,3.14,-9.94,-0.2664245022285354,-0.1854298917858055,-0.6454662326030682,-118.47615510912564,58.64173070844467,10.868106466869214
-0.34,3.25,-10.23,-0.1145094262799429,0.1796375687328175,-0.9304640412679228,-118.83557102370403,58.352791710028974,10.212160888414616
-0.34,3.25,-10.23,-0.1145094262799429,0.1796375687328175,-0.9304640412679228,-118.83557102370403,58.352791710028974,10.212160888414616
-0.43,3.25,-9.42,-0.3856528246445031,0.1694828085196633,-0.1586070200903524,-119.0385830310132,58.15602096155954,10.062607019364435
-0.43,3.25,-9.42,-0.3856528246445031,0.1694828085196633,-0.1586070200903524,-119.0385830310132,58.15602096155954,10.062607019364435
-0.72,3.92,-8.89,-1.2539308317749969,0.2830816252138746,0.1492993145070915,-119.46918424877704,57.71070049009757,9.694547078719877
-0.72,3.92,-8.89,-1.2539308317749969,0.2830816252138746,0.1492993145070915,-119.46918424877704,57.71070049009757,9.694547078719877
0.23,2.46,-10.75,0.7973959713109215,0.042206653235423,-1.1946852945612854,-119.92546492630352,57.37080402823785,8.92424161449454
0.23,2.46,-10.75,0.7973959713109215,0.042206653235423,-1.1946852945612854,-119.92546492630352,57.37080402823785,8.92424161449454
-0.31,3.2,-9.14,-0.5077165808765776,0.0883366002904901,0.1314176762492103,-120.26974778474064,56.94018936700064,8.510515201802361
-0.31,3.2,-9.14,-0.5077165808765776,0.0883366002904901,0.1314176762492103,-120.26974778474064,56.94018936700064,8.510515201802361
-0.05,3.16,-9.8,-0.2303507075194893,0.1076231210627345,-0.4872052455024374,-120.68528037991206,56.52346006643047,7.936078336486531
-0.05,3.16,-9.8,-0.2303507075194893,0.1076231210627345,-0.4872052455024374,-120.68528037991206,56.52346006643047,7.936078336486531
0.01,2.67,-9.82,0.1295439049747053,-0.1871574310256434,-0.3673163097877321,-121.24347666895368,55.99071256936834,7.281463046960031
0.01,2.67,-9.82,0.1295439049747053,-0.1871574310256434,-0.3673163097877321,-121.24347666895368,55.99071256936834,7.281463046960031
-0.15,3.46,-9.54,-0.6566321023408104,0.0772544639073644,-0.3209640344101707,-121.47748834883792,55.66651249731456,7.051830951076286
-0.15,3.46,-9.54,-0.6566321023408104,0.0772544639073644,-0.3209640344101707,-121.47748834883792,55.66651249731456,7.051830951076286
0.09,3.07,-10.02,-0.1583559373956665,-0.0732717719095608,-0.672040502373509,-122.04262905399636,55.08416774837189,6.535260971441647
0.09,3.07,-10.02,-0.1583559373956665,-0.0732717719095608,-0.672040502373509,-122.04262905399636,55.08416774837189,6.535260971441647
-0.03,3.23,-9.32,-0.5148939488861843,-0.0276697091687743,-0.0437468756895746,-122.3270942285192,54.70969624515614,6.259812004164343
-0.03,3.23,-9.32,-0.5148939488861843,-0.0276697091687743,-0.0437468756895746,-122.3270942285192,54.70969624515614,6.259812004164343
0.28,3.45,-9.96,-0.4071928050168237,0.1210474580472513,-0.7291006392493404,-122.82802018843608,54.104133233092014,5.709021066543901
0.28,3.45,-9.96,-0.4071928050168237,0.1210474580472513,-0.7291006392493404,-122.82802018843608,54.104133233092014,5.709021066543901
0.24,3.21,-9.56,-0.3756321391063973,-0.0063215734706878,-0.2737349397619351,-123.42965193046732,53.48736790080603,5.250129975900072
0.24,3.21,-9.56,-0.3756321391063973,-0.0063215734706878,-0.2737349397619351,-123.42965193046732,53.48736790080603,5.250129975900072
0.57,2.72,-10.3,0.2630483675365783,-0.2411758776558039,-0.8557108901768729,-124.25742213626366,52.65481814526298,4.527544452628878
0.57,2.72,-10.3,0.2630483675365783,-0.2411758776558039,-0.8557108901768729,-124.25742213626366,52.65481814526298,4.527544452628878
0.45,2.74,-10.19,0.136476637469391,-0.3685052268109483,-0.7475803378900192,-124.82385344491156,51.97818068894303,4.206454848857137
0.45,2.74,-10.19,0.136476637469391,-0.3685052268109483,-0.7475803378900192,-124.82385344491156,51.97818068894303,4.206454848857137
0.62,3.01,-9.98,-0.0160641279743556,-0.0634944865147666,-0.6356012129317534,-125.27091255577452,51.48152030899618,4.011523869819651
0.62,3.01,-9.98,-0.0160641279743556,-0.0634944865147666,-0.6356012129317534,-125.27091255577452,51.48152030899618,4.011523869819651
0.58,2.33,-9.58,0.374079098273344,-0.4064028959272219,-0.0542121080723454,-125.72136723881636,51.03668173616908,3.805139007503523
0.58,2.33,-9.58,0.374079098273344,-0.4064028959272219,-0.0542121080723454,-125.72136723881636,51.03668173616908,3.805139007503523
0.69,2.52,-9.57,0.2982173632002798,-0.2523474292490655,-0.1059070454468145,-126.07412316645296,50.57999179913578,3.644626018390772
0.69,2.52,-9.57,0.2982173632002798,-0.2523474292490655,-0.1059070454468145,-126.07412316645296,50.57999179913578,3.644626018390772
0.88,3.05,-9.72,0.0370070471529652,0.130877849328606,-0.4176740102715914,-126.20062569892964,50.3899583498149,3.4611913427691
0.88,3.05,-9.72,0.0370070471529652,0.130877849328606,-0.4176740102715914,-126.20062569892964,50.3899583498149,3.4611913427691
0.57,2.87,-8.96,-0.1672739060006809,-0.0695520304466119,0.3827133514739689,-126.40360438507471,50.09886116048232,3.2892294003721183
0.57,2.87,-8.96,-0.1672739060006809,-0.0695520304466119,0.3827133514739689,-126.40360438507471,50.09886116048232,3.2892294003721183
0.91,3.15,-9.44,-0.1254279851374429,0.1636137172534455,-0.1844309411229829,-126.55630673438098,49.87128691094202,2.78484900111774
0.91,3.15,-9.44,-0.1254279851374429,0.1636137172534455,-0.1844309411229829,-126.55630673438098,49.87128691094202,2.78484900111774
0.81,2.96,-9.28,-0.118164857468315,-0.0144342967277299,0.0331179507591787,-126.73497195223707,49.68180213505561,2.452446574526375
0.81,2.96,-9.28,-0.118164857468315,-0.0144342967277299,0.0331179507591787,-126.73497195223707,49.68180213505561,2.452446574526375
0.9,2.44,-9.36,0.2811545818791782,-0.3145355872441216,0.1012278316734036,-126.9655039569828,49.46722789019666,2.016915574628728
0.9,2.44,-9.36,0.2811545818791782,-0.3145355872441216,0.1012278316734036,-126.9655039569828,49.46722789019666,2.016915574628728
1.18,2.47,-10.12,0.453712320585892,-0.3724848044519496,-0.6605893782028751,-126.9655039569828,49.39154002007115,1.2605325708995527
1.18,2.47,-10.12,0.453712320585892,-0.3724848044519496,-0.6605893782028751,-126.9655039569828,49.39154002007115,1.2605325708995527
1.06,3.17,-10.25,-0.1705167534018439,-0.2147604737274522,-0.9710956815297712,-126.83731618493428,49.31587513221956,0.7219315974960596
1.06,3.17,-10.25,-0.1705167534018439,-0.2147604737274522,-0.9710956815297712,-126.83731618493428,49.31587513221956,0.7219315974960596
1.11,3.23,-10.21,-0.2310329615477854,-0.1848109979048422,-0.9553929596676394,-126.91419440082724,49.164614087930325,0.3666936147093117
1.11,3.23,-10.21,-0.2310329615477854,-0.1848109979048422,-0.9553929596676394,-126.91419440082724,49.164614087930325,0.3666936147093117
1.04,3.28,-10.07,-0.3494211465846303,-0.2033083934474211,-0.8273271750494811,-126.99117600895984,49.02603833164671,0.1833465726697912
1.04,3.28,-10.07,-0.3494211465846303,-0.2033083934474211,-0.8273271750494811,-126.99117600895984,49.02603833164671,0.1833465726697912
1.18,3.44,-10.29,-0.3496800111956952,-0.1148627232547052,-1.100899240987948,-127.30014547607834,48.61076799855758,-0.011459155921715
1.18,3.44,-10.29,-0.3496800111956952,-0.1148627232547052,-1.100899240987948,-127.30014547607834,48.61076799855758,-0.011459155921715
1.48,3.19,-10.57,0.0612752146746877,-0.1134321224180652,-1.332235873446697,-127.58485235552216,48.34685890896744,-0.0687549395409955
1.48,3.19,-10.57,0.0612752146746877,-0.1134321224180652,-1.332235873446697,-127.58485235552216,48.34685890896744,-0.0687549395409955
1.11,3.29,-9.48,-0.3729210029708757,0.0067273562018193,-0.2823283758427095,-127.7407542896587,48.15851940424125,0.0802140978691341
1.11,3.29,-9.48,-0.3729210029708757,0.0067273562018193,-0.2823283758427095,-127.7407542896587,48.15851940424125,0.0802140978691341
1.38,3.03,-9.95,0.0836924519651169,-0.0913300364455744,-0.6848920409931605,-127.81886761171008,48.070674990989744,0.1833465726697912
1.38,3.03,-9.95,0.0836924519651169,-0.0913300364455744,-0.6848920409931605,-127.81886761171008,48.070674990989744,0.1833465726697912
1.22,2.87,-9.63,0.09402425537946,-0.1870851925319949,-0.3135455796385518,-127.81886761171008,48.04558210494044,0.4698267083113723
1.22,2.87,-9.63,0.09402425537946,-0.1870851925319949,-0.3135455796385518,-127.81886761171008,48.04558210494044,0.4698267083113723
1.09,3.3,-8.96,-0.3566498976675141,0.184535978839587,0.2046477440636085,-127.76677999527551,48.08322235291628,0.7448503787209418
1.09,3.3,-8.96,-0.3566498976675141,0.184535978839587,0.2046477440636085,-127.76677999527551,48.08322235291628,0.7448503787209418
0.9,3.34,-9.0,-0.4912115012731101,0.079166378240435,0.177629076480656,-127.7407542896587,48.13341793224112,0.8938232239278141
0.9,3.34,-9.0,-0.4912115012731101,0.079166378240435,0.177629076480656,-127.7407542896587,48.13341793224112,0.8938232239278141
0.79,2.74,-9.44,-0.0756771067154806,-0.4613018047548456,-0.0435669326593544,-127.97542141388575,47.982860599138895,0.8823637238721431
0.79,2.74,-9.44,-0.0756771067154806,-0.4613018047548456,-0.0435669326593544,-127.97542141388575,47.982860599138895,0.8823637238721431
1.21,3.04,-10.09,0.0403908486633073,-0.1731904709607503,-0.7991113418421119,-128.0015563372832,47.95777627551156,0.6302567522155992
1.21,3.04,-10.09,0.0403908486633073,-0.1731904709607503,-0.7991113418421119,-128.0015563372832,47.95777627551156,0.6302567522155992
1.25,3.54,-9.95,-0.3263313214879118,0.1724073692748364,-0.8216322491518202,-127.94929869917114,47.97031813194389,0.5156637559929028
1.25,3.54,-9.95,-0.3263313214879118,0.1724073692748364,-0.8216322491518202,-127.94929869917114,47.97031813194389,0.5156637559929028
0.97,3.9,-9.54,-0.8325500518755334,0.2955481275383198,-0.5075155850306476,-128.0277034878583,47.85746338279603,0.4698267083113723
0.97,3.9,-9.54,-0.8325500518755334,0.2955481275383198,-0.5075155850306476,-128.0277034878583,47.85746338279603,0.4698267083113723
0.84,3.17,-9.02,-0.5054221347812771,-0.0718816564866302,0.2225860658886507,-128.5268474503853,47.40653562717492,0.206264917630254
0.84,3.17,-9.02,-0.5054221347812771,-0.0718816564866302,0.2225860658886507,-128.5268474503853,47.40653562717492,0.206264917630254
1.21,3.66,-9.5,-0.5853243809384836,0.3091414047763528,-0.4242603681408479,-128.81789729217328,47.03135704516996,-0.206264917630254
1.21,3.66,-9.5,-0.5853243809384836,0.3091414047763528,-0.4242603681408479,-128.81789729217328,47.03135704516996,-0.206264917630254
1.35,3.04,-10.34,-0.0004145512283879,-0.2715343512927293,-1.0518014975301764,-129.3510733053071,46.43217889831124,-0.6990128451499703
1.35,3.04,-10.34,-0.0004145512283879,-0.2715343512927293,-1.0518014975301764,-129.3510733053071,46.43217889831124,-0.6990128451499703
1.29,3.22,-9.93,-0.2185219896533374,-0.0875775894193309,-0.7091466082398821,-129.61963621563214,46.08327914813054,-0.7792286067117273
1.29,3.22,-9.93,-0.2185219896533374,-0.0875775894193309,-0.7091466082398821,-129.61963621563214,46.08327914813054,-0.7792286067117273
1.13,3.87,-9.18,-0.8350324064700791,0.4231250095491954,-0.1758289559727508,-130.02500909601727,45.56077406660365,-0.7104722177704716
1.13,3.87,-9.18,-0.8350324064700791,0.4231250095491954,-0.1758289559727508,-130.02500909601727,45.56077406660365,-0.7104722177704716
1.48,2.97,-9.36,0.0599691020065819,0.0299892691998544,-0.1239292555387923,-130.46082634681812,45.10129990098643,-0.8250663536663884
1.48,2.97,-9.36,0.0599691020065819,0.0299892691998544,-0.1239292555387923,-130.46082634681812,45.10129990098643,-0.8250663536663884
1.5,3.31,-9.51,-0.1203308112533878,0.187306699740839,-0.3715933010856691,-131.01070305716067,44.38257587959071,-0.8938232239278141
1.5,3.31,-9.51,-0.1203308112533878,0.187306699740839,-0.3715933010856691,-131.01070305716067,44.38257587959071,-0.8938232239278141
1.41,3.8,-8.87,-0.5711422125421022,0.6177792557065442,0.0908306642840894,-131.4269409010407,43.80150890567696,-0.9740399810272836
1.41,3.8,-8.87,-0.5711422125421022,0.6177792557065442,0.0908306642840894,-131.4269409010407,43.80150890567696,-0.9740399810272836
1.73,2.99,-9.45,0.2654107634987428,0.078667532399359,-0.2511265209794349,-131.84655671079122,43.307915821839245,-1.2032334798806037
1.73,2.99,-9.45,0.2654107634987428,0.078667532399359,-0.2511265209794349,-131.84655671079122,43.307915821839245,-1.2032334798806037
1.18,2.81,-8.77,-0.0932241990955154,-0.2108570475911626,0.5250419198134573,-132.5251927099627,42.48302850521899,-1.4209717482803246
1.18,2.81,-8.77,-0.0932241990955154,-0.2108570475911626,0.5250419198134573,-132.5251927099627,42.48302850521899,-1.4209717482803246
1.3,3.19,-9.33,-0.2242120325488797,-0.180704869841183,-0.1347822265192775,-132.72485553305756,41.91802433278389,-1.9023072532875973
1.3,3.19,-9.33,-0.2242120325488797,-0.180704869841183,-0.1347822265192775,-132.72485553305756,41.91802433278389,-1.9023072532875973
1.43,3.19,-9.21,-0.1981960348169465,-0.1187308059696541,-0.0417875069092374,-133.06899702903365,41.40308164369669,-2.452446574526375
1.43,3.19,-9.21,-0.1981960348169465,-0.1187308059696541,-0.0417875069092374,-133.06899702903365,41.40308164369669,-2.452446574526375
1.59,3.94,-9.67,-0.578289951331907,0.2127342535579492,-0.7375865712056981,-133.0977829759083,41.03580078188174,-3.025568677774776
1.59,3.94,-9.67,-0.578289951331907,0.2127342535579492,-0.7375865712056981,-133.0977829759083,41.03580078188174,-3.025568677774776
1.85,2.94,-10.45,0.2408046839510277,-0.6330859377367233,-1.1847018413172137,-133.41553604515124,40.607862210384674,-3.621696182670093
1.85,2.94,-10.45,0.2408046839510277,-0.6330859377367233,-1.1847018413172137,-133.41553604515124,40.607862210384674,-3.621696182670093
1.7,3.34,-9.52,-0.230544631215923,-0.1865424263309218,-0.4201799631995495,-133.64792062272215,40.11951210127083,-4.022990071019942
1.7,3.34,-9.52,-0.230544631215923,-0.1865424263309218,-0.4201799631995495,-133.64792062272215,40.11951210127083,-4.022990071019942
1.8,3.43,-9.24,-0.2665006751616968,-0.0116057505102105,-0.2089050368760663,-133.79372158966166,39.79030547860814,-4.389930414609093
1.8,3.43,-9.24,-0.2665006751616968,-0.0116057505102105,-0.2089050368760663,-133.79372158966166,39.79030547860814,-4.389930414609093
1.91,3.66,-9.41,-0.3960970895036511,0.0479269316018065,-0.4613882792875295,-133.99857662596108,39.24238573337944,-5.112479412053579
1.91,3.66,-9.41,-0.3960970895036511,0.0479269316018065,-0.4613882792875295,-133.99857662596108,39.24238573337944,-5.112479412053579
2.32,2.57,-9.49,0.5425894604495808,-0.5398225638124496,-0.2661643176079629,-134.4108976122917,38.67110921893018,-5.663127955663872
2.32,2.57,-9.49,0.5425894604495808,-0.5398225638124496,-0.2661643176079629,-134.4108976122917,38.67110921893018,-5.663127955663872
2.26,3.28,-8.72,-0.0299141525746872,0.1526208164198899,0.2212333669124682,-134.7075870499225,38.06446294953504,-6.225383461526625
2.26,3.28,-8.72,-0.0299141525746872,0.1526208164198899,0.2212333669124682,-134.7075870499225,38.06446294953504,-6.225383461526625
2.29,2.84,-8.52,0.1969160626299264,-0.1191545099369308,0.5412775699764758,-134.7075870499225,37.846342205002045,-6.764830589593756
2.29,2.84,-8.52,0.1969160626299264,-0.1191545099369308,0.5412775699764758,-134.7075870499225,37.846342205002045,-6.764830589593756
2.47,2.77,-9.5,0.246999427010244,-0.5783931242709189,-0.3731462983967795,-134.49971207203987,37.6888990814094,-7.8212153932673
2.47,2.77,-9.5,0.246999427010244,-0.5783931242709189,-0.3731462983967795,-134.49971207203987,37.6888990814094,-7.8212153932673
2.58,3.42,-9.37,-0.1559605085113112,-0.1042424369333363,-0.4945397290617404,-134.1748557862076,37.664683622171815,-8.453062112264227
2.58,3.42,-9.37,-0.1559605085113112,-0.1042424369333363,-0.4945397290617404,-134.1748557862076,37.664683622171815,-8.453062112264227
2.81,3.68,-9.96,-0.2923397476907106,-0.1621622764866188,-1.171890015321022,-133.7645266360233,37.6888990814094,-9.4070701841208
2.81,3.68,-9.96,-0.2923397476907106,-0.1621622764866188,-1.171890015321022,-133.7645266360233,37.6888990814094,-9.4070701841208
2.75,2.92,-10.21,0.0082846075971952,-0.8757888551978434,-1.1279704893625926,-133.73534909546763,37.57994324822506,-10.10862175233956
2.75,2.92,-10.21,0.0082846075971952,-0.8757888551978434,-1.1279704893625926,-133.73534909546763,37.57994324822506,-10.10862175233956
2.76,3.52,-9.86,-0.4243919827481567,-0.3671080788424257,-1.0059686977728806,-133.32867360141205,37.74944537405314,-10.568860221135685
2.76,3.52,-9.86,-0.4243919827481567,-0.3671080788424257,-1.0059686977728806,-133.32867360141205,37.74944537405314,-10.568860221135685
2.93,3.41,-10.17,-0.3004015092131624,-0.5293670165711213,-1.2961167495552246,-133.04022773049576,37.9069169867096,-10.937173775974523
2.93,3.41,-10.17,-0.3004015092131624,-0.5293670165711213,-1.2961167495552246,-133.04022773049576,37.9069169867096,-10.937173775974523
2.95,3.87,-9.7,-0.5860770020635016,-0.0332899457755115,-1.0296226768553804,-132.89662989290295,37.88268575548643,-11.155913338134187
2.95,3.87,-9.7,-0.5860770020635016,-0.0332899457755115,-1.0296226768553804,-132.89662989290295,37.88268575548643,-11.155913338134187
2.83,3.55,-8.86,-0.4632577103081709,0.0414200785362408,-0.137930266201991,-132.81066902216784,37.94326713356112,-11.294085603048902
2.83,3.55,-8.86,-0.4632577103081709,0.0414200785362408,-0.137930266201991,-132.81066902216784,37.94326713356112,-11.294085603048902
3.12,4.04,-9.04,-0.593960461598619,0.4219569190862411,-0.5493513194520611,-132.75344370342964,37.81000260574194,-11.581997645669874
3.12,4.04,-9.04,-0.593960461598619,0.4219569190862411,-0.5493513194520611,-132.75344370342964,37.81000260574194,-11.581997645669874
3.03,3.18,-9.04,-0.1462652583816649,-0.2366043412074365,-0.2401168859147056,-132.86795984370113,37.62836370499113,-11.800859775906506
3.03,3.18,-9.04,-0.1462652583816649,-0.2366043412074365,-0.2401168859147056,-132.86795984370113,37.62836370499113,-11.800859775906506
3.04,3.18,-9.61,-0.1914606490107124,-0.5106065330280172,-0.7483831021891891,-132.86795984370113,37.53152975160733,-11.973676148985312
3.04,3.18,-9.61,-0.1914606490107124,-0.5106065330280172,-0.7483831021891891,-132.86795984370113,37.53152975160733,-11.973676148985312
2.95,3.65,-9.26,-0.5284374095411537,-0.105202080067831,-0.5607164171064589,-132.72485553305756,37.56783922201158,-11.962154211464537
2.95,3.65,-9.26,-0.5284374095411537,-0.105202080067831,-0.5607164171064589,-132.72485553305756,37.56783922201158,-11.962154211464537
2.89,2.92,-9.37,-0.1386494275409678,-0.6968445832532584,-0.399749167337772,-132.75344370342964,37.54363247388456,-12.07737906844118
2.89,2.92,-9.37,-0.1386494275409678,-0.6968445832532584,-0.399749167337772,-132.75344370342964,37.54363247388456,-12.07737906844118
3.21,3.36,-9.72,-0.204891989450994,-0.4129458078375578,-0.957159503723494,-132.5821583872238,37.57994324822506,-12.204140573704526
3.21,3.36,-9.72,-0.204891989450994,-0.4129458078375578,-0.957159503723494,-132.5821583872238,37.57994324822506,-12.204140573704526
3.09,2.92,-9.29,-0.0060255457518207,-0.5802396016212124,-0.3934424357335526,-132.72485553305756,37.43472359227642,-12.284814782039538
3.09,2.92,-9.29,-0.0060255457518207,-0.5802396016212124,-0.3934424357335526,-132.72485553305756,37.43472359227642,-12.284814782039538
3.22,3.49,-9.26,-0.2754930294763261,-0.0976983495741699,-0.5957852256190677,-132.5821583872238,37.57994324822506,-12.307865676783145
3.22,3.49,-9.26,-0.2754930294763261,-0.0976983495741699,-0.5957852256190677,-132.5821583872238,37.57994324822506,-12.307865676783145
3.18,3.69,-9.32,-0.4288590916307065,-0.0145405641827074,-0.7008125124964835,-132.41145409892673,37.79789028318413,-12.227189726180756
3.18,3.69,-9.32,-0.4288590916307065,-0.0145405641827074,-0.7008125124964835,-132.41145409892673,37.79789028318413,-12.227189726180756
3.14,3.36,-8.96,-0.2303287892237363,-0.0782342151283745,-0.2616978315182372,-132.5821583872238,37.664683622171815,-12.227189726180756
3.14,3.36,-8.96,-0.2303287892237363,-0.0782342151283745,-0.2616978315182372,-132.5821583872238,37.664683622171815,-12.227189726180756
3.23,3.7,-9.19,-0.3685283491814797,0.0954765180705741,-0.6065181581710117,-132.55366749345723,37.70100746591034,-12.111948910357556
3.23,3.7,-9.19,-0.3685283491814797,0.0954765180705741,-0.6065181581710117,-132.55366749345723,37.70100746591034,-12.111948910357556
3.14,3.24,-9.21,-0.1350008527664208,-0.2684993211815314,-0.4447393148332548,-132.5821583872238,37.73733524113148,-12.019765115233204
3.14,3.24,-9.21,-0.1350008527664208,-0.2684993211815314,-0.4447393148332548,-132.5821583872238,37.73733524113148,-12.019765115233204
3.0,3.42,-9.01,-0.324990625683122,-0.1193034299008817,-0.2808000139942184,-132.5821583872238,37.74944537405314,-11.881504040605064
3.0,3.42,-9.01,-0.324990625683122,-0.1193034299008817,-0.2808000139942184,-132.5821583872238,37.74944537405314,-11.881504040605064
3.23,3.27,-9.35,-0.0679119072181977,-0.2422378763701944,-0.6089637017513088,-132.61066542040177,37.77366695276425,-11.846941492078386
3.23,3.27,-9.35,-0.0679119072181977,-0.2422378763701944,-0.6089637017513088,-132.61066542040177,37.77366695276425,-11.846941492078386
3.07,3.26,-9.17,-0.1720636461732474,-0.232147267805195,-0.3942274989074441,-132.63918862221735,37.83422856646789,-11.777819636455906
3.07,3.26,-9.17,-0.1720636461732474,-0.232147267805195,-0.3942274989074441,-132.63918862221735,37.83422856646789,-11.777819636455906
3.25,3.5,-9.52,-0.1930961878739536,-0.1225653083915971,-0.8418518480257315,-132.5821583872238,37.919033262141134,-11.697182904814724
3.25,3.5,-9.52,-0.1930961878739536,-0.1225653083915971,-0.8418518480257315,-132.5821583872238,37.919033262141134,-11.697182904814724
3.14,3.59,-9.27,-0.2913626610418458,0.0137082847206533,-0.6142674203944516,-132.61066542040177,37.9917401637673,-11.478340954533572
3.14,3.59,-9.27,-0.2913626610418458,0.0137082847206533,-0.6142674203944516,-132.61066542040177,37.9917401637673,-11.478340954533572
2.98,3.34,-8.94,-0.2342022061541631,-0.0790773860212967,-0.1882735161482127,-132.66772802198363,38.0038595239246,-11.4092417341199
2.98,3.34,-8.94,-0.2342022061541631,-0.0790773860212967,-0.1882735161482127,-132.66772802198363,38.0038595239246,-11.4092417341199
3.23,3.17,-9.58,0.0406786133797887,-0.3479884077384261,-0.7827526894104455,-132.63918862221735,38.05234138049009,-11.38620958683243
3.23,3.17,-9.58,0.0406786133797887,-0.3479884077384261,-0.7827526894104455,-132.63918862221735,38.05234138049009,-11.38620958683243
3.12,3.75,-9.03,-0.3837625192113705,0.2415601057602825,-0.4467482193297059,-132.5821583872238,38.10083031138289,-11.34014667578332
3.12,3.75,-9.03,-0.3837625192113705,0.2415601057602825,-0.4467482193297059,-132.5821583872238,38.10083031138289,-11.34014667578332
3.03,3.25,-9.07,-0.1388043193547716,-0.1542658514112656,-0.2911336879196842,-132.66772802198363,38.10083031138289,-11.328631235557037
3.03,3.25,-9.07,-0.1388043193547716,-0.1542658514112656,-0.2911336879196842,-132.66772802198363,38.10083031138289,-11.328631235557037
3.07,3.22,-9.13,-0.087160579703432,-0.180112888156545,-0.3476674256503198,-132.61066542040177,38.14932632838656,-11.294085603048902
3.07,3.22,-9.13,-0.087160579703432,-0.180112888156545,-0.3476674256503198,-132.61066542040177,38.14932632838656,-11.294085603048902
2.99,3.5,-9.0,-0.3120547749794525,0.0235751139642481,-0.2974168065593332,-132.5251927099627,38.24633966792924,-11.224997424028942
2.99,3.5,-9.0,-0.3120547749794525,0.0235751139642481,-0.2974168065593332,-132.5251927099627,38.24633966792924,-11.224997424028942
3.08,3.23,-9.22,-0.0900027656889238,-0.2066371948867829,-0.4342923673731161,-132.5251927099627,38.25846833636598,-11.271055753655435
3.08,3.23,-9.22,-0.0900027656889238,-0.2066371948867829,-0.4342923673731161,-132.5251927099627,38.25846833636598,-11.271055753655435
3.05,3.33,-9.23,-0.1717096056385327,-0.1478221179368004,-0.466273850237581,-132.49673400768697,38.3555137295299,-11.2019689418816
3.05,3.33,-9.23,-0.1717096056385327,-0.1478221179368004,-0.466273850237581,-132.49673400768697,38.3555137295299,-11.2019689418816
2.95,3.51,-9.1,-0.3481345939751073,-0.0198256679991575,-0.3772102331024829,-132.46829135766265,38.40404714248387,-11.132886214620822
2.95,3.51,-9.1,-0.3481345939751073,-0.0198256679991575,-0.3772102331024829,-132.46829135766265,38.40404714248387,-11.132886214620822
3.03,3.26,-9.08,-0.1307267152442792,-0.1353238217731358,-0.3037158682157557,-132.46829135766265,38.391913118452734,-11.155913338134187
3.03,3.26,-9.08,-0.1307267152442792,-0.1353238217731358,-0.3037158682157557,-132.46829135766265,38.391913118452734,-11.155913338134187
3.03,3.44,-9.07,-0.2427917588183753,-0.0043852732968665,-0.3530957119372822,-132.46829135766265,38.40404714248387,-11.132886214620822
3.03,3.44,-9.07,-0.2427917588183753,-0.0043852732968665,-0.3530957119372822,-132.46829135766265,38.40404714248387,-11.132886214620822
3.04,3.44,-9.23,-0.2420207893840216,-0.0668794994600356,-0.4989335870686079,-132.49673400768697,38.391913118452734,-11.132886214620822
3.04,3.44,-9.23,-0.2420207893840216,-0.0668794994600356,-0.4989335870686079,-132.49673400768697,38.391913118452734,-11.132886214620822
