,TIME,ELAPSED_SECONDS,PSTATE,acc_x,acc_y,acc_z,mag_x,mag_y,mag_z,gyr_x,gyr_y,gyr_z,lin_x,lin_y,lin_z,eul_x,eul_y,eul_z,qua_w,qua_x,qua_y,qua_z
0,651313.0,444.62699000000003,1.0,-8.58,1.29,-4.21,32.19,-24.25,13.19,-1.37,-0.88,0.0,-0.0074193349450778065,-0.05146998581224205,0.1629009471663725,-115.70907375985723,-3.8853982832056495,62.785282198587254,-0.10300000000000001,-0.8467,-0.0339,0.5209
1,651313.0,444.62699000000003,1.0,-8.58,1.29,-4.21,32.19,-24.25,13.19,-1.37,-0.88,0.0,-0.0074193349450778065,-0.05146998581224205,0.1629009471663725,-115.70907375985723,-3.8853982832056495,62.785282198587254,-0.10300000000000001,-0.8467,-0.0339,0.5209
2,651350.0,444.63201100000003,1.0,-8.69,1.15,-3.95,32.19,-24.0,12.38,0.44,-1.94,0.81,-0.29445405171271866,-0.14139857217858987,0.19757079045989734,-115.6229775841169,-3.873932556571698,62.86584483464826,-0.10300000000000001,-0.8463,-0.0338,0.5215
3,651350.0,444.63201100000003,1.0,-8.69,1.15,-3.95,32.19,-24.0,12.38,0.44,-1.94,0.81,-0.29445405171271866,-0.14139857217858987,0.19757079045989734,-115.6229775841169,-3.873932556571698,62.86584483464826,-0.10300000000000001,-0.8463,-0.0338,0.5215
4,651384.0,444.70919100000003,1.0,-8.61,1.45,-4.21,32.19,-24.0,12.38,-2.88,0.5,1.25,0.018659107998680938,0.08729600609264554,0.11383146022484425,-115.6229775841169,-3.8853982832056495,62.86584483464826,-0.1039,-0.8463,-0.0339,0.5215
5,651384.0,444.70919100000003,1.0,-8.61,1.45,-4.21,32.19,-24.0,12.38,-2.88,0.5,1.25,0.018659107998680938,0.08729600609264554,0.11383146022484425,-115.6229775841169,-3.8853982832056495,62.86584483464826,-0.1039,-0.8463,-0.0339,0.5215
6,651419.0,444.72721900000005,1.0,-8.64,1.45,-4.02,32.19,-24.0,12.0,3.56,3.19,-2.25,-0.1653626915085728,0.13268543542111888,0.16986891109462832,-115.64449198892322,-3.8853982832056495,62.838986778788296,-0.1035,-0.8464,-0.0339,0.5213
7,651419.0,444.72721900000005,1.0,-8.64,1.45,-4.02,32.19,-24.0,12.0,3.56,3.19,-2.25,-0.1653626915085728,0.13268543542111888,0.16986891109462832,-115.64449198892322,-3.8853982832056495,62.838986778788296,-0.1035,-0.8464,-0.0339,0.5213
8,651454.0,444.73034800000005,1.0,-8.59,1.12,-4.24,31.06,-24.69,13.19,1.12,-1.5,-0.31,-0.007625270842193987,-0.2213954165794044,0.16450159185142255,-115.68754007027454,-3.8853982832056495,62.82555919288418,-0.1028,-0.8466,-0.0339,0.5212
9,651454.0,444.73034800000005,1.0,-8.59,1.12,-4.24,31.06,-24.69,13.19,1.12,-1.5,-0.31,-0.007625270842193987,-0.2213954165794044,0.16450159185142255,-115.68754007027454,-3.8853982832056495,62.82555919288418,-0.1028,-0.8466,-0.0339,0.5212
10,651489.0,444.77176799999995,1.0,-8.67,1.36,-4.08,31.06,-24.69,13.19,-3.0,-2.5,4.0,-0.13323982454501665,0.017111487037184236,0.12951951900685546,-115.57996801372805,-3.816604503074617,62.89270673851754,-0.1039,-0.8461,-0.0333,0.5217
11,651489.0,444.77176799999995,1.0,-8.67,1.36,-4.08,31.06,-24.69,13.19,-3.0,-2.5,4.0,-0.13323982454501665,0.017111487037184236,0.12951951900685546,-115.57996801372805,-3.816604503074617,62.89270673851754,-0.1039,-0.8461,-0.0333,0.5217
12,651524.0,444.840425,1.0,-8.63,1.45,-4.19,32.56,-24.25,12.88,-1.88,1.37,1.25,-0.006772653720565191,0.06450093104830734,0.10452168910575743,-115.57996801372805,-3.7822081305683333,62.8792753053861,-0.1049,-0.8461,-0.033,0.5216
13,651524.0,444.840425,1.0,-8.63,1.45,-4.19,32.56,-24.25,12.88,-1.88,1.37,1.25,-0.006772653720565191,0.06450093104830734,0.10452168910575743,-115.57996801372805,-3.7822081305683333,62.8792753053861,-0.1049,-0.8461,-0.033,0.5216
14,651560.0,444.85825300000005,1.0,-8.52,1.47,-4.1,31.5,-24.25,12.88,1.31,0.44,-1.31,-0.033486181758210234,0.1072132905811336,0.2385423508379141,-115.57996801372805,-3.816604503074617,62.86584483464826,-0.1052,-0.8461,-0.0333,0.5215
15,651560.0,444.85825300000005,1.0,-8.52,1.47,-4.1,31.5,-24.25,12.88,1.31,0.44,-1.31,-0.033486181758210234,0.1072132905811336,0.2385423508379141,-115.57996801372805,-3.816604503074617,62.86584483464826,-0.1052,-0.8461,-0.0333,0.5215
16,651595.0,444.899354,1.0,-8.67,1.08,-4.08,31.5,-24.25,12.88,1.44,-0.06,0.56,-0.1819635561023511,-0.2695105947914166,0.1694329066921103,-115.57996801372805,-3.793673550039814,62.8792753053861,-0.1046,-0.8461,-0.0331,0.5216
17,651595.0,444.899354,1.0,-8.67,1.08,-4.08,31.5,-24.25,12.88,1.44,-0.06,0.56,-0.1819635561023511,-0.2695105947914166,0.1694329066921103,-115.57996801372805,-3.793673550039814,62.8792753053861,-0.1046,-0.8461,-0.0331,0.5216
18,651628.0,444.91686500000003,1.0,-8.54,1.63,-4.12,32.19,-24.0,12.88,-5.81,1.0,2.94,-0.004940708504930357,0.2427406113370841,0.18875248624954644,-115.60146959454927,-3.805139007503523,62.82555919288418,-0.1061,-0.8462,-0.0332,0.5212
19,651628.0,444.91686500000003,1.0,-8.54,1.63,-4.12,32.19,-24.0,12.88,-5.81,1.0,2.94,-0.004940708504930357,0.2427406113370841,0.18875248624954644,-115.60146959454927,-3.805139007503523,62.82555919288418,-0.1061,-0.8462,-0.0332,0.5212
20,651663.0,444.96069800000004,1.0,-8.55,1.36,-3.79,32.19,-24.69,14.0,2.38,0.63,-0.75,-0.34954363211639905,0.05379677950792283,0.3625446873850749,-115.64449198892322,-3.82807003686826,62.785282198587254,-0.106,-0.8464,-0.0334,0.5209
21,651663.0,444.96069800000004,1.0,-8.55,1.36,-3.79,32.19,-24.69,14.0,2.38,0.63,-0.75,-0.34954363211639905,0.05379677950792283,0.3625446873850749,-115.64449198892322,-3.82807003686826,62.785282198587254,-0.106,-0.8464,-0.0334,0.5209
22,651700.0,444.977959,1.0,-8.44,1.24,-4.17,32.56,-24.69,13.19,0.0,-0.75,0.31,0.0060165939300850105,-0.13589243788700556,0.3123571329180841,-115.68754007027454,-3.816604503074617,62.74501384121864,-0.1058,-0.8466,-0.0333,0.5206
23,651700.0,444.977959,1.0,-8.44,1.24,-4.17,32.56,-24.69,13.19,0.0,-0.75,0.31,0.0060165939300850105,-0.13589243788700556,0.3123571329180841,-115.68754007027454,-3.816604503074617,62.74501384121864,-0.1058,-0.8466,-0.0333,0.5206
24,651735.0,445.02252999999996,1.0,-8.47,1.5,-4.03,32.56,-24.69,13.19,-5.06,2.44,2.13,-0.08063090837718861,0.13131032829078304,0.3088578221147387,-115.6229775841169,-3.8395356089996184,62.77185845365902,-0.1068,-0.8463,-0.0335,0.5208
25,651735.0,445.02252999999996,1.0,-8.47,1.5,-4.03,32.56,-24.69,13.19,-5.06,2.44,2.13,-0.08063090837718861,0.13131032829078304,0.3088578221147387,-115.6229775841169,-3.8395356089996184,62.77185845365902,-0.1068,-0.8463,-0.0335,0.5208
26,651771.0,445.08637000000004,1.0,-8.46,1.27,-3.98,32.19,-25.06,14.0,0.31,4.81,0.37,-0.18476786343299026,-0.08570817011576681,0.373547914990116,-115.77371350268422,-3.8395356089996184,62.61084822614068,-0.1072,-0.847,-0.0335,0.5196
27,651771.0,445.08637000000004,1.0,-8.46,1.27,-3.98,32.19,-25.06,14.0,0.31,4.81,0.37,-0.18476786343299026,-0.08570817011576681,0.373547914990116,-115.77371350268422,-3.8395356089996184,62.61084822614068,-0.1072,-0.847,-0.0335,0.5196
28,651804.0,445.15373700000004,1.0,-8.38,0.95,-4.3,32.56,-24.25,12.38,-1.44,3.25,3.25,0.05260606209682837,-0.4636269405727687,0.3515358990382467,-115.92476601153635,-3.8395356089996184,62.46337629162338,-0.1074,-0.8477,-0.0335,0.5185
29,651804.0,445.15373700000004,1.0,-8.38,0.95,-4.3,32.56,-24.25,12.38,-1.44,3.25,3.25,0.05260606209682837,-0.4636269405727687,0.3515358990382467,-115.92476601153635,-3.8395356089996184,62.46337629162338,-0.1074,-0.8477,-0.0335,0.5185
30,651839.0,445.17182599999995,1.0,-8.46,1.33,-3.99,32.56,-24.25,12.38,-5.19,0.69,8.38,-0.20898278378561835,-0.07537756426783182,0.3614795717395172,-115.96798233708937,-3.713416405127687,62.35619623181861,-0.1096,-0.8479,-0.0324,0.5177
31,651839.0,445.17182599999995,1.0,-8.46,1.33,-3.99,32.56,-24.25,12.38,-5.19,0.69,8.38,-0.20898278378561835,-0.07537756426783182,0.3614795717395172,-115.96798233708937,-3.713416405127687,62.35619623181861,-0.1096,-0.8479,-0.0324,0.5177
32,651874.0,445.17501200000004,1.0,-8.41,1.73,-4.22,31.87,-24.69,12.38,0.31,7.19,4.94,0.04508822587911243,0.2327896775663444,0.24248897992585586,-116.1411089977447,-3.610231319265168,62.14201779296097,-0.1113,-0.8487,-0.0315,0.5161
33,651874.0,445.17501200000004,1.0,-8.41,1.73,-4.22,31.87,-24.69,12.38,0.31,7.19,4.94,0.04508822587911243,0.2327896775663444,0.24248897992585586,-116.1411089977447,-3.610231319265168,62.14201779296097,-0.1113,-0.8487,-0.0315,0.5161
34,651911.0,445.21230599999996,1.0,-8.4,1.4,-4.02,31.5,-25.06,13.19,3.06,8.81,7.13,-0.2354533069144285,-0.05889312654397805,0.3927510553592093,-116.4668582991344,-3.346549205454908,61.834557999428846,-0.1111,-0.8502,-0.0292,0.5138
35,651911.0,445.21230599999996,1.0,-8.4,1.4,-4.02,31.5,-25.06,13.19,3.06,8.81,7.13,-0.2354533069144285,-0.05889312654397805,0.3927510553592093,-116.4668582991344,-3.346549205454908,61.834557999428846,-0.1111,-0.8502,-0.0292,0.5138
36,651945.0,445.220204,1.0,-8.32,1.54,-4.04,31.5,-25.06,13.19,1.19,11.94,7.38,-0.21258017260986825,0.06070689899453175,0.4329247883977487,-116.77224597329428,-3.1860558160551733,61.51425621963604,-0.1116,-0.8516,-0.0278,0.5114
37,651945.0,445.220204,1.0,-8.32,1.54,-4.04,31.5,-25.06,13.19,1.19,11.94,7.38,-0.21258017260986825,0.06070689899453175,0.4329247883977487,-116.77224597329428,-3.1860558160551733,61.51425621963604,-0.1116,-0.8516,-0.0278,0.5114
38,651978.0,445.27375599999993,1.0,-8.0,1.75,-4.3,31.06,-24.69,13.69,6.38,15.44,8.5,0.09275289362655843,0.2119434078446432,0.5600843190244351,-117.38702490663178,-2.865087475133015,60.90182687258211,-0.1116,-0.8544,-0.025,0.5068
39,651978.0,445.27375599999993,1.0,-8.0,1.75,-4.3,31.06,-24.69,13.69,6.38,15.44,8.5,0.09275289362655843,0.2119434078446432,0.5600843190244351,-117.38702490663178,-2.865087475133015,60.90182687258211,-0.1116,-0.8544,-0.025,0.5068
40,652013.0,445.290565,1.0,-8.17,1.78,-3.47,30.69,-25.75,14.0,1.63,34.5,14.5,-0.8324212264494104,0.3811264868362202,0.7999848289842415,-118.18551847027427,-2.509755787270372,60.10588340609849,-0.11199999999999999,-0.858,-0.0219,0.5008
41,652013.0,445.290565,1.0,-8.17,1.78,-3.47,30.69,-25.75,14.0,1.63,34.5,14.5,-0.8324212264494104,0.3811264868362202,0.7999848289842415,-118.18551847027427,-2.509755787270372,60.10588340609849,-0.11199999999999999,-0.858,-0.0219,0.5008
42,652050.0,445.333208,1.0,-8.0,2.11,-3.96,30.69,-25.5,13.69,0.63,60.94,10.0,-0.6310829069313781,0.6093293988351615,0.6762528537475845,-120.3388206480064,-2.337829975144579,57.907047347217045,-0.1129,-0.8675,-0.0204,0.4841
43,652050.0,445.333208,1.0,-8.0,2.11,-3.96,30.69,-25.5,13.69,0.63,60.94,10.0,-0.6310829069313781,0.6093293988351615,0.6762528537475845,-120.3388206480064,-2.337829975144579,57.907047347217045,-0.1129,-0.8675,-0.0204,0.4841
44,652085.0,445.394295,1.0,-7.55,2.4,-5.75,30.69,-25.5,13.69,21.56,29.19,1.94,0.9218622789570864,0.5881086246732814,0.07889084466412655,-121.66531355494112,-2.1086036789736795,56.640582553149535,-0.1101,-0.8732,-0.0184,0.4744
45,652085.0,445.394295,1.0,-7.55,2.4,-5.75,30.69,-25.5,13.69,21.56,29.19,1.94,0.9218622789570864,0.5881086246732814,0.07889084466412655,-121.66531355494112,-2.1086036789736795,56.640582553149535,-0.1101,-0.8732,-0.0184,0.4744
46,652120.0,445.454818,1.0,-8.04,1.4,-4.1,30.0,-25.5,14.88,19.69,38.81,-9.94,-1.0156820204673576,0.06532784722892915,0.7305427779760265,-122.94788136502078,-2.051298459271143,55.60173066165572,-0.1013,-0.8786,-0.0179,0.4664
47,652120.0,445.454818,1.0,-8.04,1.4,-4.1,30.0,-25.5,14.88,19.69,38.81,-9.94,-1.0156820204673576,0.06532784722892915,0.7305427779760265,-122.94788136502078,-2.051298459271143,55.60173066165572,-0.1013,-0.8786,-0.0179,0.4664
48,652156.0,445.461775,1.0,-7.36,1.22,-5.63,29.56,-24.25,18.19,19.75,44.38,3.75,0.3859773916463761,-0.2794571110779717,0.4724213132682582,-124.33100356461244,-1.7189378496716434,54.36161866399844,-0.0956,-0.8843,-0.015,0.4568
49,652156.0,445.461775,1.0,-7.36,1.22,-5.63,29.56,-24.25,18.19,19.75,44.38,3.75,0.3859773916463761,-0.2794571110779717,0.4724213132682582,-124.33100356461244,-1.7189378496716434,54.36161866399844,-0.0956,-0.8843,-0.015,0.4568
50,652189.0,445.478762,1.0,-7.32,0.88,-5.63,29.56,-24.25,18.19,18.31,37.44,3.63,0.12685988095314688,-0.5242187063784461,0.5458292308409565,-125.94789456078651,-1.3751317128217122,52.87227083326433,-0.0898,-0.8908,-0.012,0.4452
51,652189.0,445.478762,1.0,-7.32,0.88,-5.63,29.56,-24.25,18.19,18.31,37.44,3.63,0.12685988095314688,-0.5242187063784461,0.5458292308409565,-125.94789456078651,-1.3751317128217122,52.87227083326433,-0.0898,-0.8908,-0.012,0.4452
52,652224.0,445.52317400000004,1.0,-7.33,1.74,-5.1,29.56,-24.69,17.75,-6.88,39.88,8.44,-0.394387298894234,0.3989150520062564,0.7263512472191369,-127.068261462492,-1.2490727279396536,51.723352699323634,-0.0906,-0.8952,-0.0109,0.4362
53,652224.0,445.52317400000004,1.0,-7.33,1.74,-5.1,29.56,-24.69,17.75,-6.88,39.88,8.44,-0.394387298894234,0.3989150520062564,0.7263512472191369,-127.068261462492,-1.2490727279396536,51.723352699323634,-0.0906,-0.8952,-0.0109,0.4362
54,652261.0,445.540033,1.0,-6.66,1.16,-5.76,27.75,-25.06,19.0,2.0,58.81,4.06,0.16414043708066958,-0.2299107124258331,0.9297699748319896,-129.0571819857357,-1.283452294756085,49.69442993487328,-0.0907,-0.9028,-0.0112,0.4202
55,652261.0,445.540033,1.0,-6.66,1.16,-5.76,27.75,-25.06,19.0,2.0,58.81,4.06,0.16414043708066958,-0.2299107124258331,0.9297699748319896,-129.0571819857357,-1.283452294756085,49.69442993487328,-0.0907,-0.9028,-0.0112,0.4202
56,652296.0,445.57876100000004,1.0,-6.82,1.96,-5.68,27.75,-25.06,19.0,-6.75,54.44,9.31,-0.18569791699257213,0.5467292346515712,0.7356520710176593,-130.6800872399157,-1.237612897472461,48.02049166769566,-0.0922,-0.9088,-0.0108,0.4069
57,652296.0,445.57876100000004,1.0,-6.82,1.96,-5.68,27.75,-25.06,19.0,-6.75,54.44,9.31,-0.18569791699257213,0.5467292346515712,0.7356520710176593,-130.6800872399157,-1.237612897472461,48.02049166769566,-0.0922,-0.9088,-0.0108,0.4069
58,652331.0,445.63576500000005,1.0,-6.86,2.23,-5.76,26.56,-24.69,20.56,6.69,58.88,-9.94,-0.4731822119485419,0.8516551135429261,0.6272773546678749,-132.86795984370113,-1.4782721132478738,45.80946044511175,-0.0909,-0.9166,-0.0129,0.3892
59,652331.0,445.63576500000005,1.0,-6.86,2.23,-5.76,26.56,-24.69,20.56,6.69,58.88,-9.94,-0.4731822119485419,0.8516551135429261,0.6272773546678749,-132.86795984370113,-1.4782721132478738,45.80946044511175,-0.0909,-0.9166,-0.0129,0.3892
60,652365.0,445.65194800000006,1.0,-6.12,1.34,-5.99,25.06,-24.69,21.06,15.31,62.31,-1.5,-0.1342928529727005,0.04691884149140957,1.140055279352589,-134.61838734283256,-1.5584932484256673,44.11043851170447,-0.0872,-0.9226,-0.0136,0.3755
61,652365.0,445.65194800000006,1.0,-6.12,1.34,-5.99,25.06,-24.69,21.06,15.31,62.31,-1.5,-0.1342928529727005,0.04691884149140957,1.140055279352589,-134.61838734283256,-1.5584932484256673,44.11043851170447,-0.0872,-0.9226,-0.0136,0.3755
62,652402.0,445.739029,1.0,-6.01,1.04,-7.38,24.69,-24.25,22.37,22.87,74.37,-8.69,0.4187878575302506,-0.3124193024272906,0.24667558006267146,-137.5291383748013,-1.6960169933572922,41.35408524581363,-0.0793,-0.9321,-0.0148,0.3531
63,652402.0,445.739029,1.0,-6.01,1.04,-7.38,24.69,-24.25,22.37,22.87,74.37,-8.69,0.4187878575302506,-0.3124193024272906,0.24667558006267146,-137.5291383748013,-1.6960169933572922,41.35408524581363,-0.0793,-0.9321,-0.0148,0.3531
64,652435.0,445.752166,1.0,-5.67,0.62,-7.95,24.69,-24.25,22.37,-12.75,51.88,10.75,0.7175606685018651,-0.7941591951784235,0.08089975337466981,-139.2388131216407,-1.7189378496716434,39.61974059674283,-0.0792,-0.9374,-0.015,0.3389
65,652435.0,445.752166,1.0,-5.67,0.62,-7.95,24.69,-24.25,22.37,-12.75,51.88,10.75,0.7175606685018651,-0.7941591951784235,0.08089975337466981,-139.2388131216407,-1.7189378496716434,39.61974059674283,-0.0792,-0.9374,-0.015,0.3389
66,652474.0,445.75678099999993,1.0,-5.42,2.46,-7.51,23.56,-24.56,24.0,-17.06,46.81,9.44,0.4760456798519149,0.9522658880886512,0.28327506308414563,-140.8145368825897,-1.6616358358374437,37.71311628724267,-0.0876,-0.9421,-0.0145,0.3232
67,652474.0,445.75678099999993,1.0,-5.42,2.46,-7.51,23.56,-24.56,24.0,-17.06,46.81,9.44,0.4760456798519149,0.9522658880886512,0.28327506308414563,-140.8145368825897,-1.6616358358374437,37.71311628724267,-0.0876,-0.9421,-0.0145,0.3232
68,652509.0,445.80566699999997,1.0,-5.77,1.35,-7.83,22.37,-25.0,24.75,8.44,42.0,1.12,0.01278570590770326,-0.17339301373682392,-0.011398247412094165,-142.48926046846375,-1.6730962049034406,36.03410062770514,-0.0865,-0.9469,-0.0146,0.3093
69,652509.0,445.80566699999997,1.0,-5.77,1.35,-7.83,22.37,-25.0,24.75,8.44,42.0,1.12,0.01278570590770326,-0.17339301373682392,-0.011398247412094165,-142.48926046846375,-1.6730962049034406,36.03410062770514,-0.0865,-0.9469,-0.0146,0.3093
70,652544.0,445.82581100000004,1.0,-5.26,1.43,-7.94,22.37,-25.0,24.75,0.0,45.0,12.88,0.2787921864602941,-0.09484612812068016,0.18015639491464694,-143.75733722307018,-1.4553519237055776,34.75907767623433,-0.0861,-0.9504,-0.0127,0.2987
71,652544.0,445.82581100000004,1.0,-5.26,1.43,-7.94,22.37,-25.0,24.75,0.0,45.0,12.88,0.2787921864602941,-0.09484612812068016,0.18015639491464694,-143.75733722307018,-1.4553519237055776,34.75907767623433,-0.0861,-0.9504,-0.0127,0.2987
72,652576.0,445.87922000000003,1.0,-5.28,1.57,-8.88,22.0,-25.0,25.56,-9.5,41.56,12.94,0.5018786144348835,-0.196580454252292,-0.6292100020017006,-145.22287322309495,-1.2146932735575866,33.105742400688804,-0.0899,-0.9543,-0.0106,0.2849
73,652576.0,445.87922000000003,1.0,-5.28,1.57,-8.88,22.0,-25.0,25.56,-9.5,41.56,12.94,0.5018786144348835,-0.196580454252292,-0.6292100020017006,-145.22287322309495,-1.2146932735575866,33.105742400688804,-0.0899,-0.9543,-0.0106,0.2849
74,652613.0,445.900463,1.0,-5.07,2.67,-7.7,19.25,-25.0,26.5,-8.88,27.69,19.12,-0.026262025990691384,1.0037100403213497,0.26119681741359635,-145.84171829017612,-0.7906880314747026,32.2936788968098,-0.0944,-0.9559,-0.0069,0.2781
75,652613.0,445.900463,1.0,-5.07,2.67,-7.7,19.25,-25.0,26.5,-8.88,27.69,19.12,-0.026262025990691384,1.0037100403213497,0.26119681741359635,-145.84171829017612,-0.7906880314747026,32.2936788968098,-0.0944,-0.9559,-0.0069,0.2781
76,652648.0,445.954983,1.0,-4.71,1.79,-8.63,19.25,-25.0,26.5,9.63,42.0,7.88,0.5073618439595697,-0.009372994469329043,-0.17371051985441532,-146.951724947316,-0.5615008861828721,31.12626391611525,-0.0938,-0.9587,-0.0049,0.2683
77,652648.0,445.954983,1.0,-4.71,1.79,-8.63,19.25,-25.0,26.5,9.63,42.0,7.88,0.5073618439595697,-0.009372994469329043,-0.17371051985441532,-146.951724947316,-0.5615008861828721,31.12626391611525,-0.0938,-0.9587,-0.0049,0.2683
78,652683.0,445.975755,1.0,-4.42,1.97,-9.22,19.0,-25.37,25.56,-18.06,40.31,14.31,0.7707481060650572,0.029341440041671163,-0.5775103626337277,-148.4345315385202,-0.3323159869732291,29.487919662093987,-0.0958,-0.9623,-0.0029,0.2545
79,652683.0,445.975755,1.0,-4.42,1.97,-9.22,19.0,-25.37,25.56,-18.06,40.31,14.31,0.7707481060650572,0.029341440041671163,-0.5775103626337277,-148.4345315385202,-0.3323159869732291,29.487919662093987,-0.0958,-0.9623,-0.0029,0.2545
80,652718.0,446.02085999999997,1.0,-4.93,2.13,-8.53,18.19,-26.06,28.06,-18.0,22.44,8.56,-0.18593797918391586,0.15091994031884634,-0.27032128305480185,-149.11579237958978,-0.2406424508273681,28.422768181257144,-0.1031,-0.9639,-0.0021,0.2455
81,652718.0,446.02085999999997,1.0,-4.93,2.13,-8.53,18.19,-26.06,28.06,-18.0,22.44,8.56,-0.18593797918391586,0.15091994031884634,-0.27032128305480185,-149.11579237958978,-0.2406424508273681,28.422768181257144,-0.1031,-0.9639,-0.0021,0.2455
82,652754.0,446.04080700000003,1.0,-4.32,2.75,-8.41,16.25,-26.5,27.69,-0.69,30.12,12.25,0.18317777584278505,0.7648708593396834,-0.00835985587738719,-149.7680673850508,-0.02291831195802168,27.59605210118816,-0.1052,-0.9654,-0.0002,0.2385
83,652754.0,446.04080700000003,1.0,-4.32,2.75,-8.41,16.25,-26.5,27.69,-0.69,30.12,12.25,0.18317777584278505,0.7648708593396834,-0.00835985587738719,-149.7680673850508,-0.02291831195802168,27.59605210118816,-0.1052,-0.9654,-0.0002,0.2385
84,652787.0,446.09193899999997,1.0,-4.08,1.11,-9.84,16.25,-26.5,27.69,16.44,32.31,7.0,0.7359541966220975,-1.0417271703750874,-0.8271299452018255,-151.1157235364922,0.2635608181333149,26.335166138238048,-0.1014,-0.9684,0.0023,0.2278
85,652787.0,446.09193899999997,1.0,-4.08,1.11,-9.84,16.25,-26.5,27.69,16.44,32.31,7.0,0.7359541966220975,-1.0417271703750874,-0.8271299452018255,-151.1157235364922,0.2635608181333149,26.335166138238048,-0.1014,-0.9684,0.0023,0.2278
86,652824.0,446.113138,1.0,-4.15,1.85,-9.26,15.56,-26.5,27.69,-18.56,23.62,13.44,0.3178852231644574,-0.2878751756711255,-0.4991094027866741,-151.57882322936237,0.4812859628976946,25.617803632217928,-0.1051,-0.9694,0.0042,0.2217
87,652824.0,446.113138,1.0,-4.15,1.85,-9.26,15.56,-26.5,27.69,-18.56,23.62,13.44,0.3178852231644574,-0.2878751756711255,-0.4991094027866741,-151.57882322936237,0.4812859628976946,25.617803632217928,-0.1051,-0.9694,0.0042,0.2217
88,652861.0,446.16708700000004,1.0,-4.3,1.98,-8.91,14.5,-26.5,28.5,-24.56,29.31,14.25,-0.1642277115965387,-0.2760154580786097,-0.2777609756418276,-152.1444912618588,0.7219315974960596,24.467440757791284,-0.1138,-0.9706,0.0063,0.2119
89,652861.0,446.16708700000004,1.0,-4.3,1.98,-8.91,14.5,-26.5,28.5,-24.56,29.31,14.25,-0.1642277115965387,-0.2760154580786097,-0.2777609756418276,-152.1444912618588,0.7219315974960596,24.467440757791284,-0.1138,-0.9706,0.0063,0.2119
90,652896.0,446.187438,1.0,-3.69,1.99,-9.54,14.5,-26.5,28.5,-17.81,36.94,25.81,0.443532337255635,-0.4998344080290926,-0.5924482604434829,-152.7702885732456,1.100095864564908,23.331277218076693,-0.1198,-0.9719,0.0096,0.2022
91,652896.0,446.187438,1.0,-3.69,1.99,-9.54,14.5,-26.5,28.5,-17.81,36.94,25.81,0.443532337255635,-0.4998344080290926,-0.5924482604434829,-152.7702885732456,1.100095864564908,23.331277218076693,-0.1198,-0.9719,0.0096,0.2022
92,652929.0,446.23692800000003,1.0,-3.61,3.19,-9.54,14.06,-26.87,29.0,-8.19,16.12,18.56,0.3721640732900981,0.5453249197640988,-0.8603043279436822,-153.21193002249612,1.7303983035632713,22.431032941974188,-0.1249,-0.9728,0.0151,0.1945
93,652929.0,446.23692800000003,1.0,-3.61,3.19,-9.54,14.06,-26.87,29.0,-8.19,16.12,18.56,0.3721640732900981,0.5453249197640988,-0.8603043279436822,-153.21193002249612,1.7303983035632713,22.431032941974188,-0.1249,-0.9728,0.0151,0.1945
94,652965.0,446.25490199999996,1.0,-3.58,2.74,-8.74,13.25,-27.56,28.06,-15.06,24.12,8.81,-0.02797415997983166,0.24035789323990664,-0.02457807840051629,-153.56043390061225,1.7877008349543104,21.753854808314237,-0.128,-0.9735,0.0156,0.1887
95,652965.0,446.25490199999996,1.0,-3.58,2.74,-8.74,13.25,-27.56,28.06,-15.06,24.12,8.81,-0.02797415997983166,0.24035789323990664,-0.02457807840051629,-153.56043390061225,1.7877008349543104,21.753854808314237,-0.128,-0.9735,0.0156,0.1887
96,653002.0,446.34093499999994,1.0,-3.48,3.21,-8.84,11.75,-28.0,28.06,6.88,25.69,6.19,-0.07018672813468183,0.6189556693786933,-0.2019496873957216,-154.21992611229572,1.94815034703792,20.716221183013424,-0.1308,-0.9748,0.017,0.1798
97,653002.0,446.34093499999994,1.0,-3.48,3.21,-8.84,11.75,-28.0,28.06,6.88,25.69,6.19,-0.07018672813468183,0.6189556693786933,-0.2019496873957216,-154.21992611229572,1.94815034703792,20.716221183013424,-0.1308,-0.9748,0.017,0.1798
98,653035.0,446.353591,1.0,-3.69,2.27,-9.46,11.75,-28.0,28.06,-5.25,18.37,11.94,-0.18246614608008266,-0.4673822701322457,-0.5860811097276422,-154.73873772257048,2.142987063023817,20.05257586733213,-0.1309,-0.9758,0.0187,0.1741
99,653035.0,446.353591,1.0,-3.69,2.27,-9.46,11.75,-28.0,28.06,-5.25,18.37,11.94,-0.18246614608008266,-0.4673822701322457,-0.5860811097276422,-154.73873772257048,2.142987063023817,20.05257586733213,-0.1309,-0.9758,0.0187,0.1741
100,653072.0,446.358408,1.0,-3.74,2.64,-8.85,11.06,-28.69,29.25,-7.19,27.12,8.06,-0.5826093170116875,-0.0341533189211356,-0.14016355684008985,-155.16145880106285,2.360753104216733,19.215254308568724,-0.1342,-0.9766,0.0206,0.1669
101,653072.0,446.358408,1.0,-3.74,2.64,-8.85,11.06,-28.69,29.25,-7.19,27.12,8.06,-0.5826093170116875,-0.0341533189211356,-0.14016355684008985,-155.16145880106285,2.360753104216733,19.215254308568724,-0.1342,-0.9766,0.0206,0.1669
102,653107.0,446.403659,1.0,-3.26,2.92,-9.71,11.06,-29.06,27.25,-7.06,28.56,11.81,-0.004055656578733465,-0.010297660690137931,-0.8440766188666249,-155.591382770185,2.4065996467302937,18.332536130219392,-0.1373,-0.9774,0.021,0.1593
103,653107.0,446.403659,1.0,-3.26,2.92,-9.71,11.06,-29.06,27.25,-7.06,28.56,11.81,-0.004055656578733465,-0.010297660690137931,-0.8440766188666249,-155.591382770185,2.4065996467302937,18.332536130219392,-0.1373,-0.9774,0.021,0.1593
104,653142.0,446.46093600000006,1.0,-2.91,2.92,-10.11,11.06,-29.06,27.25,-4.63,13.44,11.31,0.29538035244431465,-0.14256440884772692,-1.1066000125636162,-155.97377873337675,2.7504615040371316,17.520477052231193,-0.1395,-0.9781,0.024,0.1523
105,653142.0,446.46093600000006,1.0,-2.91,2.92,-10.11,11.06,-29.06,27.25,-4.63,13.44,11.31,0.29538035244431465,-0.14256440884772692,-1.1066000125636162,-155.97377873337675,2.7504615040371316,17.520477052231193,-0.1395,-0.9781,0.024,0.1523
106,653176.0,446.47509800000006,1.0,-2.88,2.92,-9.52,9.56,-28.69,28.06,-0.44,12.69,3.5,0.05076918347364688,-0.009642848663698134,-0.5590882518313194,-156.25063177900063,2.87655022805785,17.010496081346126,-0.1406,-0.9786,0.0251,0.1479
107,653176.0,446.47509800000006,1.0,-2.88,2.92,-9.52,9.56,-28.69,28.06,-0.44,12.69,3.5,0.05076918347364688,-0.009642848663698134,-0.5590882518313194,-156.25063177900063,2.87655022805785,17.010496081346126,-0.1406,-0.9786,0.0251,0.1479
108,653213.0,446.528664,1.0,-2.42,2.9,-9.61,8.5,-28.37,27.69,0.75,15.13,7.81,0.4275130335038189,-0.008016730876451605,-0.5101163702446208,-156.58711361479934,2.9797163137078666,16.524012627926176,-0.1403,-0.9792,0.026000000000000002,0.1437
109,653213.0,446.528664,1.0,-2.42,2.9,-9.61,8.5,-28.37,27.69,0.75,15.13,7.81,0.4275130335038189,-0.008016730876451605,-0.5101163702446208,-156.58711361479934,2.9797163137078666,16.524012627926176,-0.1403,-0.9792,0.026000000000000002,0.1437
110,653248.0,446.535,1.0,-2.77,2.51,-9.86,8.5,-28.37,27.69,8.31,0.69,1.81,0.12539386786880205,-0.4646862201688946,-0.7271500310754906,-156.87120131517742,3.094348134689141,16.30403579859025,-0.1394,-0.9797,0.027000000000000003,0.1418
111,653248.0,446.535,1.0,-2.77,2.51,-9.86,8.5,-28.37,27.69,8.31,0.69,1.81,0.12539386786880205,-0.4646862201688946,-0.7271500310754906,-156.87120131517742,3.094348134689141,16.30403579859025,-0.1394,-0.9797,0.027000000000000003,0.1418
112,653281.0,446.550696,1.0,-3.37,2.77,-9.57,8.5,-28.69,27.69,-7.0,1.12,7.38,-0.5265052774859382,-0.20613957952207973,-0.6954925750431507,-156.75715530060586,3.266301709643329,16.373495591769153,-0.1397,-0.9795,0.0285,0.1424
113,653281.0,446.550696,1.0,-3.37,2.77,-9.57,8.5,-28.69,27.69,-7.0,1.12,7.38,-0.5265052774859382,-0.20613957952207973,-0.6954925750431507,-156.75715530060586,3.266301709643329,16.373495591769153,-0.1397,-0.9795,0.0285,0.1424
114,653316.0,446.63716900000003,1.0,-3.35,3.43,-9.98,8.5,-28.69,28.5,-7.81,4.31,5.63,-0.42370296772482063,0.2642993020441431,-1.2540200373024497,-156.58711361479934,3.40386984812725,16.257732621833743,-0.142,-0.9792,0.0297,0.1414
115,653316.0,446.63716900000003,1.0,-3.35,3.43,-9.98,8.5,-28.69,28.5,-7.81,4.31,5.63,-0.42370296772482063,0.2642993020441431,-1.2540200373024497,-156.58711361479934,3.40386984812725,16.257732621833743,-0.142,-0.9792,0.0297,0.1414
116,653352.0,446.649666,1.0,-3.35,3.6,-10.68,8.5,-29.06,28.06,6.69,-10.06,-1.69,-0.21249602827371847,0.2365657654406177,-1.9468083028396117,-156.5307030363511,3.4611913427691,16.338764939656073,-0.142,-0.9791,0.0302,0.1421
117,653352.0,446.649666,1.0,-3.35,3.6,-10.68,8.5,-29.06,28.06,6.69,-10.06,-1.69,-0.21249602827371847,0.2365657654406177,-1.9468083028396117,-156.5307030363511,3.4611913427691,16.338764939656073,-0.142,-0.9791,0.0302,0.1421
118,653387.0,446.697234,1.0,-3.88,3.19,-10.61,8.5,-29.06,28.06,8.56,-6.13,-13.0,-0.6780958632082768,-0.11465403281101437,-1.912122992641338,-156.6436585308699,3.2204467196467967,16.59349169701811,-0.1392,-0.9793,0.0281,0.1443
119,653387.0,446.697234,1.0,-3.88,3.19,-10.61,8.5,-29.06,28.06,8.56,-6.13,-13.0,-0.6780958632082768,-0.11465403281101437,-1.912122992641338,-156.6436585308699,3.2204467196467967,16.59349169701811,-0.1392,-0.9793,0.0281,0.1443
120,653424.0,446.714363,1.0,-3.65,3.14,-10.91,8.06,-29.06,28.5,21.94,-21.44,-16.5,-0.24390545729018195,-0.08170103829406528,-2.115767333252757,-156.70033876277134,2.8192367490322434,17.184314583414665,-0.134,-0.9794,0.0246,0.1494
121,653424.0,446.714363,1.0,-3.65,3.14,-10.91,8.06,-29.06,28.5,21.94,-21.44,-16.5,-0.24390545729018195,-0.08170103829406528,-2.115767333252757,-156.70033876277134,2.8192367490322434,17.184314583414665,-0.134,-0.9794,0.0246,0.1494
122,653459.0,446.76041200000003,1.0,-4.0,2.78,-10.24,8.75,-29.06,29.25,20.19,-28.0,-24.37,-0.6041347293396888,-0.12199466220786424,-1.516164956149309,-156.58711361479934,2.4065996467302937,18.042410594385764,-0.1273,-0.9792,0.021,0.1568
123,653459.0,446.76041200000003,1.0,-4.0,2.78,-10.24,8.75,-29.06,29.25,20.19,-28.0,-24.37,-0.6041347293396888,-0.12199466220786424,-1.516164956149309,-156.58711361479934,2.4065996467302937,18.042410594385764,-0.1273,-0.9792,0.021,0.1568
124,653494.0,446.815286,1.0,-3.52,2.74,-10.52,8.75,-29.06,29.25,23.81,-37.94,-20.06,0.2031367928620079,0.022113690931626632,-1.618175881739253,-156.19500732541925,1.8106219718873997,19.343110284151184,-0.1188,-0.9785,0.0158,0.168
125,653494.0,446.815286,1.0,-3.52,2.74,-10.52,8.75,-29.06,29.25,23.81,-37.94,-20.06,0.2031367928620079,0.022113690931626632,-1.618175881739253,-156.19500732541925,1.8106219718873997,19.343110284151184,-0.1188,-0.9785,0.0158,0.168
126,653529.0,446.82690599999995,1.0,-3.56,2.32,-10.18,10.25,-28.0,28.5,33.13,-47.56,-23.69,0.40075089588907453,-0.037557181957003534,-1.217250769579138,-155.4292933262199,1.2605325708995527,21.170698001897183,-0.107,-0.9771,0.011000000000000001,0.1837
127,653529.0,446.82690599999995,1.0,-3.56,2.32,-10.18,10.25,-28.0,28.5,33.13,-47.56,-23.69,0.40075089588907453,-0.037557181957003534,-1.217250769579138,-155.4292933262199,1.2605325708995527,21.170698001897183,-0.107,-0.9771,0.011000000000000001,0.1837
128,653565.0,446.83930300000003,1.0,-3.57,2.15,-9.49,12.56,-27.19,29.37,22.69,-45.81,-25.5,0.3975168326915444,0.10555097513518263,-0.5499102088422596,-154.63414056108863,0.5729601824818275,22.559552093060894,-0.0997,-0.9756,0.005,0.1956
129,653565.0,446.83930300000003,1.0,-3.57,2.15,-9.49,12.56,-27.19,29.37,22.69,-45.81,-25.5,0.3975168326915444,0.10555097513518263,-0.5499102088422596,-154.63414056108863,0.5729601824818275,22.559552093060894,-0.0997,-0.9756,0.005,0.1956
130,653600.0,446.88029900000004,1.0,-3.75,1.75,-8.98,12.56,-27.19,29.37,30.44,-52.56,-23.81,0.3766964795426068,0.02831030669958456,-0.0737699449636171,-153.3110465719337,-0.1145915781247664,24.57298013035922,-0.08900000000000001,-0.973,-0.001,0.2128
131,653600.0,446.88029900000004,1.0,-3.75,1.75,-8.98,12.56,-27.19,29.37,30.44,-52.56,-23.81,0.3766964795426068,0.02831030669958456,-0.0737699449636171,-153.3110465719337,-0.1145915781247664,24.57298013035922,-0.08900000000000001,-0.973,-0.001,0.2128
132,653635.0,446.940012,1.0,-4.16,1.51,-8.86,13.69,-26.5,28.5,26.37,-52.5,-16.87,0.20656602051146894,-0.0350434430834069,-0.09493585461273037,-152.23986727877062,-0.3552344019497601,26.0880881691222,-0.0806,-0.9708,-0.0031,0.2257
133,653635.0,446.940012,1.0,-4.16,1.51,-8.86,13.69,-26.5,28.5,26.37,-52.5,-16.87,0.20656602051146894,-0.0350434430834069,-0.09493585461273037,-152.23986727877062,-0.3552344019497601,26.0880881691222,-0.0806,-0.9708,-0.0031,0.2257
134,653670.0,446.956671,1.0,-3.88,1.81,-8.48,14.75,-25.69,29.37,21.75,-46.25,-23.06,0.6231876561958795,0.49818598574315703,0.3406926860895769,-150.7504119288671,-0.8021474641450599,27.99741414521811,-0.07200000000000001,-0.9676,-0.006999999999999999,0.2419
135,653670.0,446.956671,1.0,-3.88,1.81,-8.48,14.75,-25.69,29.37,21.75,-46.25,-23.06,0.6231876561958795,0.49818598574315703,0.3406926860895769,-150.7504119288671,-0.8021474641450599,27.99741414521811,-0.07200000000000001,-0.9676,-0.006999999999999999,0.2419
136,653707.0,447.01074000000006,1.0,-4.12,1.27,-7.92,17.06,-25.0,30.06,22.19,-45.94,-21.19,0.3423025798098914,0.17226791622479587,0.7973851737838764,-149.63651807466178,-1.1917736982377245,29.36944254732168,-0.0649,-0.9651,-0.0104,0.2535
137,653707.0,447.01074000000006,1.0,-4.12,1.27,-7.92,17.06,-25.0,30.06,22.19,-45.94,-21.19,0.3423025798098914,0.17226791622479587,0.7973851737838764,-149.63651807466178,-1.1917736982377245,29.36944254732168,-0.0649,-0.9651,-0.0104,0.2535
138,653740.0,447.01838200000003,1.0,-4.4,1.02,-8.09,17.06,-25.0,30.06,13.88,-40.81,-13.06,0.4404856632687664,0.017042016005444083,0.5516955457552246,-148.1827256280383,-1.5011923619341792,31.04300528938303,-0.0586,-0.9617,-0.0131,0.2676
139,653740.0,447.01838200000003,1.0,-4.4,1.02,-8.09,17.06,-25.0,30.06,13.88,-40.81,-13.06,0.4404856632687664,0.017042016005444083,0.5516955457552246,-148.1827256280383,-1.5011923619341792,31.04300528938303,-0.0586,-0.9617,-0.0131,0.2676
140,653776.0,447.078162,1.0,-4.61,0.97,-7.69,19.0,-23.87,28.5,14.81,-37.81,-16.87,0.2494903811938997,0.08433580767557558,0.7922314374283967,-147.03240000479886,-1.9137679978932431,32.26982009667936,-0.0552,-0.9589,-0.0167,0.2779
141,653776.0,447.078162,1.0,-4.61,0.97,-7.69,19.0,-23.87,28.5,14.81,-37.81,-16.87,0.2494903811938997,0.08433580767557558,0.7922314374283967,-147.03240000479886,-1.9137679978932431,32.26982009667936,-0.0552,-0.9589,-0.0167,0.2779
142,653813.0,447.121856,1.0,-4.56,0.85,-8.03,19.69,-23.5,28.06,18.87,-33.19,-11.75,0.6723962393734965,0.044965561351893835,0.5577116071049169,-145.91984007134727,-2.269061145645111,33.536349009079444,-0.049,-0.9561,-0.0198,0.2885
143,653813.0,447.121856,1.0,-4.56,0.85,-8.03,19.69,-23.5,28.06,18.87,-33.19,-11.75,0.6723962393734965,0.044965561351893835,0.5577116071049169,-145.91984007134727,-2.269061145645111,33.536349009079444,-0.049,-0.9561,-0.0198,0.2885
144,653848.0,447.129473,1.0,-5.1,0.3,-7.65,19.69,-23.5,28.06,14.81,-32.0,-9.5,0.13567120580745348,-0.3767803217520457,0.616321936592513,-144.99354106549774,-2.360753104216733,34.50701040671306,-0.0444,-0.9537,-0.0206,0.2966
145,653848.0,447.129473,1.0,-5.1,0.3,-7.65,19.69,-23.5,28.06,14.81,-32.0,-9.5,0.13567120580745348,-0.3767803217520457,0.616321936592513,-144.99354106549774,-2.360753104216733,34.50701040671306,-0.0444,-0.9537,-0.0206,0.2966
146,653881.0,447.19249299999996,1.0,-5.22,0.98,-7.39,21.19,-22.69,28.5,1.37,-28.62,-8.5,0.11858813609546065,0.3621038761056349,0.7140311452977581,-143.9049982588089,-2.6129139620146145,35.64870955741132,-0.0427,-0.9508,-0.0228,0.3061
147,653881.0,447.19249299999996,1.0,-5.22,0.98,-7.39,21.19,-22.69,28.5,1.37,-28.62,-8.5,0.11858813609546065,0.3621038761056349,0.7140311452977581,-143.9049982588089,-2.6129139620146145,35.64870955741132,-0.0427,-0.9508,-0.0228,0.3061
148,653916.0,447.218516,1.0,-5.37,0.69,-7.46,22.0,-22.0,28.5,10.5,-22.62,-8.25,0.1296221017703715,0.11130449016480898,0.5906091243744047,-143.24503868567004,-2.7963115557322795,36.33548075823788,-0.0406,-0.9490000000000001,-0.0244,0.3118
149,653916.0,447.218516,1.0,-5.37,0.69,-7.46,22.0,-22.0,28.5,10.5,-22.62,-8.25,0.1296221017703715,0.11130449016480898,0.5906091243744047,-143.24503868567004,-2.7963115557322795,36.33548075823788,-0.0406,-0.9490000000000001,-0.0244,0.3118
150,653953.0,447.259767,1.0,-5.72,0.43,-7.43,22.19,-22.0,27.25,0.06,-20.44,-6.06,-0.04815771495796318,-0.09200195145639713,0.4206276009526704,-142.4180463131718,-2.910938660030132,37.180738981785375,-0.0381,-0.9467,-0.0254,0.3188
151,653953.0,447.259767,1.0,-5.72,0.43,-7.43,22.19,-22.0,27.25,0.06,-20.44,-6.06,-0.04815771495796318,-0.09200195145639713,0.4206276009526704,-142.4180463131718,-2.910938660030132,37.180738981785375,-0.0381,-0.9467,-0.0254,0.3188
152,653987.0,447.27648200000004,1.0,-5.54,0.59,-7.93,22.19,-22.0,27.25,6.5,-18.56,-6.0,0.4964737448971169,0.046426597736607456,0.1280158819206072,-141.9231418994875,-3.048495041051397,37.70100746591034,-0.0368,-0.9453,-0.0266,0.3231
153,653987.0,447.27648200000004,1.0,-5.54,0.59,-7.93,22.19,-22.0,27.25,6.5,-18.56,-6.0,0.4964737448971169,0.046426597736607456,0.1280158819206072,-141.9231418994875,-3.048495041051397,37.70100746591034,-0.0368,-0.9453,-0.0266,0.3231
154,654024.0,447.31966100000005,1.0,-5.89,0.34,-7.55,22.69,-21.56,26.87,-1.81,-22.44,-3.75,0.11938580989477955,-0.12761144370259614,0.2264797328371113,-141.05445058328866,-3.15166519950434,38.58611130749907,-0.035,-0.9428,-0.0275,0.3304
155,654024.0,447.31966100000005,1.0,-5.89,0.34,-7.55,22.69,-21.56,26.87,-1.81,-22.44,-3.75,0.11938580989477955,-0.12761144370259614,0.2264797328371113,-141.05445058328866,-3.15166519950434,38.58611130749907,-0.035,-0.9428,-0.0275,0.3304
156,654059.0,447.339021,1.0,-6.06,0.8,-7.33,23.06,-22.0,27.25,0.75,-25.62,-2.75,0.0025725290897072386,0.34373583875009783,0.2686030796261587,-140.33889297208822,-3.2089830530311807,39.2910517001401,-0.0355,-0.9407,-0.027999999999999997,0.3362
157,654059.0,447.339021,1.0,-6.06,0.8,-7.33,23.06,-22.0,27.25,0.75,-25.62,-2.75,0.0025725290897072386,0.34373583875009783,0.2686030796261587,-140.33889297208822,-3.2089830530311807,39.2910517001401,-0.0355,-0.9407,-0.027999999999999997,0.3362
158,654092.0,447.394433,1.0,-6.29,0.28,-7.51,23.06,-22.0,27.25,8.25,-19.44,-9.19,0.0482075712792244,-0.1344085262030369,0.0075576758020456936,-139.5028685781741,-3.380941489627292,40.15611188549902,-0.0331,-0.9382,-0.0295,0.3433
159,654092.0,447.394433,1.0,-6.29,0.28,-7.51,23.06,-22.0,27.25,8.25,-19.44,-9.19,0.0482075712792244,-0.1344085262030369,0.0075576758020456936,-139.5028685781741,-3.380941489627292,40.15611188549902,-0.0331,-0.9382,-0.0295,0.3433
160,654127.0,447.432152,1.0,-6.35,0.12,-8.0,24.19,-22.0,26.06,3.19,-17.44,-7.0,0.4016557957046431,-0.2939993461563669,-0.3957583924452148,-138.9763854221543,-3.5414428939599265,40.69340241756593,-0.0314,-0.9366,-0.0309,0.3477
161,654127.0,447.432152,1.0,-6.35,0.12,-8.0,24.19,-22.0,26.06,3.19,-17.44,-7.0,0.4016557957046431,-0.2939993461563669,-0.3957583924452148,-138.9763854221543,-3.5414428939599265,40.69340241756593,-0.0314,-0.9366,-0.0309,0.3477
162,654163.0,447.490276,1.0,-6.59,0.54,-7.53,24.19,-21.19,26.5,9.0,-17.06,-11.94,0.08442398396652961,0.21991256354751826,-0.21158891985638384,-138.19856277995768,-3.7592774051414257,41.452085959696824,-0.0292,-0.9342,-0.0328,0.3539
163,654163.0,447.490276,1.0,-6.59,0.54,-7.53,24.19,-21.19,26.5,9.0,-17.06,-11.94,0.08442398396652961,0.21991256354751826,-0.21158891985638384,-138.19856277995768,-3.7592774051414257,41.452085959696824,-0.0292,-0.9342,-0.0328,0.3539
164,654198.0,447.497056,1.0,-6.69,-0.01,-7.75,24.19,-21.19,26.5,12.31,-15.31,-9.5,0.1981877879372756,-0.2539491928305636,-0.426381388995793,-137.75115489107054,-3.919795697049856,41.93029563540066,-0.025,-0.9328,-0.0342,0.3578
165,654198.0,447.497056,1.0,-6.69,-0.01,-7.75,24.19,-21.19,26.5,12.31,-15.31,-9.5,0.1981877879372756,-0.2539491928305636,-0.426381388995793,-137.75115489107054,-3.919795697049856,41.93029563540066,-0.025,-0.9328,-0.0342,0.3578
166,654233.0,447.57288099999994,1.0,-6.65,0.17,-7.63,25.25,-21.19,26.06,2.5,-21.44,-3.63,0.2981682469603754,-0.030321890165062707,-0.3115749569517572,-137.02578084639396,-4.034456312516312,42.69210790112656,-0.0231,-0.9305,-0.0352,0.364
167,654233.0,447.57288099999994,1.0,-6.65,0.17,-7.63,25.25,-21.19,26.06,2.5,-21.44,-3.63,0.2981682469603754,-0.030321890165062707,-0.3115749569517572,-137.02578084639396,-4.034456312516312,42.69210790112656,-0.0231,-0.9305,-0.0352,0.364
168,654268.0,447.61575999999997,1.0,-6.38,0.62,-7.42,25.25,-20.5,25.56,9.13,-19.12,-8.0,0.5283874265627432,0.47693857066069295,0.027154290748599763,-136.21958862710648,-4.137654318321577,43.480576858025245,-0.02,-0.9279,-0.0361,0.3704
169,654268.0,447.61575999999997,1.0,-6.38,0.62,-7.42,25.25,-20.5,25.56,9.13,-19.12,-8.0,0.5283874265627432,0.47693857066069295,0.027154290748599763,-136.21958862710648,-4.137654318321577,43.480576858025245,-0.02,-0.9279,-0.0361,0.3704
170,654305.0,447.623364,1.0,-6.69,-0.64,-6.91,26.06,-20.5,25.56,21.5,-21.19,-16.62,-0.033783433004069274,-0.6100822761419709,0.1868548724522245,-135.6089218903229,-4.332593112917143,44.13516742855202,-0.0137,-0.9259,-0.0378,0.3757
171,654305.0,447.623364,1.0,-6.69,-0.64,-6.91,26.06,-20.5,25.56,21.5,-21.19,-16.62,-0.033783433004069274,-0.6100822761419709,0.1868548724522245,-135.6089218903229,-4.332593112917143,44.13516742855202,-0.0137,-0.9259,-0.0378,0.3757
172,654340.0,447.641367,1.0,-6.72,-0.2,-6.77,26.06,-20.5,25.56,6.06,-19.81,-5.69,0.01599198081452865,-0.08922038854486754,0.2660481333032489,-134.8267795347168,-4.481672390551605,44.91524480207666,-0.0098,-0.9233,-0.0391,0.382
173,654340.0,447.641367,1.0,-6.72,-0.2,-6.77,26.06,-20.5,25.56,6.06,-19.81,-5.69,0.01599198081452865,-0.08922038854486754,0.2660481333032489,-134.8267795347168,-4.481672390551605,44.91524480207666,-0.0098,-0.9233,-0.0391,0.382
174,654376.0,447.687445,1.0,-6.56,0.2,-6.77,26.5,-19.69,25.56,9.19,-15.38,-5.44,0.2454155354891153,0.3283487428468639,0.3865407480851655,-134.3222466489682,-4.527544452628878,45.424093194951936,-0.0081,-0.9216,-0.0395,0.3861
175,654376.0,447.687445,1.0,-6.56,0.2,-6.77,26.5,-19.69,25.56,9.19,-15.38,-5.44,0.2454155354891153,0.3283487428468639,0.3865407480851655,-134.3222466489682,-4.527544452628878,45.424093194951936,-0.0081,-0.9216,-0.0395,0.3861
176,654411.0,447.746374,1.0,-6.66,-0.24,-6.46,27.87,-19.69,24.25,16.12,-16.44,-8.56,0.027421997589437263,0.0032376129306899704,0.5252687691749891,-133.6770461216721,-4.6536963885673295,46.058375063609425,-0.0029,-0.9194,-0.0406,0.3912
177,654411.0,447.746374,1.0,-6.66,-0.24,-6.46,27.87,-19.69,24.25,16.12,-16.44,-8.56,0.027421997589437263,0.0032376129306899704,0.5252687691749891,-133.6770461216721,-4.6536963885673295,46.058375063609425,-0.0029,-0.9194,-0.0406,0.3912
178,654446.0,447.75349900000003,1.0,-6.68,-0.28,-6.26,27.87,-19.69,24.25,8.0,-14.56,-8.0,-0.05892072472304099,0.025658315064281238,0.6478143753659307,-133.21309386328863,-4.745446786894516,46.50700231874489,0.0001,-0.9178,-0.0414,0.3948
179,654446.0,447.75349900000003,1.0,-6.68,-0.28,-6.26,27.87,-19.69,24.25,8.0,-14.56,-8.0,-0.05892072472304099,0.025658315064281238,0.6478143753659307,-133.21309386328863,-4.745446786894516,46.50700231874489,0.0001,-0.9178,-0.0414,0.3948
180,654479.0,447.770647,1.0,-6.61,-0.35,-6.64,28.25,-18.56,24.75,8.69,-13.56,-5.63,0.3456036377396053,0.0018226823193072395,0.43729811188040013,-132.69628364910096,-4.871608567013157,47.01886031964005,0.0035,-0.9159999999999999,-0.0425,0.3989
181,654479.0,447.770647,1.0,-6.61,-0.35,-6.64,28.25,-18.56,24.75,8.69,-13.56,-5.63,0.3456036377396053,0.0018226823193072395,0.43729811188040013,-132.69628364910096,-4.871608567013157,47.01886031964005,0.0035,-0.9159999999999999,-0.0425,0.3989
182,654516.0,447.81411299999996,1.0,-7.02,-0.33,-6.12,28.69,-18.56,24.75,5.0,-10.0,-8.31,-0.2479396976230706,0.10929038128563448,0.4915932895499253,-132.29797094336487,-4.997776256010228,47.39402100857085,0.0055,-0.9146,-0.0436,0.4019
183,654516.0,447.81411299999996,1.0,-7.02,-0.33,-6.12,28.69,-18.56,24.75,5.0,-10.0,-8.31,-0.2479396976230706,0.10929038128563448,0.4915932895499253,-132.29797094336487,-4.997776256010228,47.39402100857085,0.0055,-0.9146,-0.0436,0.4019
184,654551.0,447.82995,1.0,-7.14,-0.62,-6.33,28.69,-18.56,24.75,12.63,-8.06,-10.19,-0.13550302877742967,-0.08702700324287088,0.2459510072537725,-131.93089302515688,-5.215716631990905,47.73212702761914,0.0098,-0.9133,-0.0455,0.4046
185,654551.0,447.82995,1.0,-7.14,-0.62,-6.33,28.69,-18.56,24.75,12.63,-8.06,-10.19,-0.13550302877742967,-0.08702700324287088,0.2459510072537725,-131.93089302515688,-5.215716631990905,47.73212702761914,0.0098,-0.9133,-0.0455,0.4046
186,654585.0,447.87392800000003,1.0,-7.42,-0.66,-6.33,29.37,-18.56,24.37,4.06,-8.38,-4.5,-0.2779662604970001,-0.049549346982925964,0.03520283899877796,-131.6503100355004,-5.296015172064578,47.995403677336114,0.0125,-0.9123,-0.0462,0.4067
187,654585.0,447.87392800000003,1.0,-7.42,-0.66,-6.33,29.37,-18.56,24.37,4.06,-8.38,-4.5,-0.2779662604970001,-0.049549346982925964,0.03520283899877796,-131.6503100355004,-5.296015172064578,47.995403677336114,0.0125,-0.9123,-0.0462,0.4067
188,654620.0,447.92188899999996,1.0,-7.18,-0.36,-6.61,28.69,-18.56,24.0,3.06,-6.19,-5.56,0.15850516076578405,0.25389885773834675,0.04527143526592958,-131.37124925693712,-5.4451479667522715,48.258949886108525,0.0138,-0.9113,-0.0475,0.4088
189,654620.0,447.92188899999996,1.0,-7.18,-0.36,-6.61,28.69,-18.56,24.0,3.06,-6.19,-5.56,0.15850516076578405,0.25389885773834675,0.04527143526592958,-131.37124925693712,-5.4451479667522715,48.258949886108525,0.0138,-0.9113,-0.0475,0.4088
190,654655.0,447.93921100000006,1.0,-7.56,-0.63,-6.52,28.69,-18.19,24.0,5.75,-5.5,-7.25,-0.14436833287974934,0.0735074079963931,-0.1950825721812404,-131.14907903681728,-5.548399139371833,48.44736344772761,0.0162,-0.9105,-0.0484,0.4103
191,654655.0,447.93921100000006,1.0,-7.56,-0.63,-6.52,28.69,-18.19,24.0,5.75,-5.5,-7.25,-0.14436833287974934,0.0735074079963931,-0.1950825721812404,-131.14907903681728,-5.548399139371833,48.44736344772761,0.0162,-0.9105,-0.0484,0.4103
192,654690.0,447.984789,1.0,-7.39,-0.69,-6.99,28.69,-18.19,24.0,6.31,-6.13,-5.56,0.3625981581178887,0.04568200883080365,-0.382301650184564,-130.87269286132405,-5.674601147870103,48.698798646668465,0.0187,-0.9095,-0.0495,0.4123
193,654690.0,447.984789,1.0,-7.39,-0.69,-6.99,28.69,-18.19,24.0,6.31,-6.13,-5.56,0.3625981581178887,0.04568200883080365,-0.382301650184564,-130.87269286132405,-5.674601147870103,48.698798646668465,0.0187,-0.9095,-0.0495,0.4123
194,654727.0,448.049257,1.0,-7.62,-0.8,-6.67,29.37,-16.69,24.37,7.19,-13.06,-8.06,0.024032267560147702,0.010650380952391514,-0.3517262983806386,-130.51555621027464,-5.777862453568277,49.02603833164671,0.021,-0.9082,-0.0504,0.4149
195,654727.0,448.049257,1.0,-7.62,-0.8,-6.67,29.37,-16.69,24.37,7.19,-13.06,-8.06,0.024032267560147702,0.010650380952391514,-0.3517262983806386,-130.51555621027464,-5.777862453568277,49.02603833164671,0.021,-0.9082,-0.0504,0.4149
196,654761.0,448.06542199999996,1.0,-7.45,-0.8,-7.26,30.19,-16.37,24.0,8.88,-12.44,-10.5,0.6740530458357118,0.06521298486751681,-0.6044738470207562,-129.97078188553854,-6.030298919379606,49.517699264874096,0.0242,-0.9062,-0.0526,0.4188
197,654761.0,448.06542199999996,1.0,-7.45,-0.8,-7.26,30.19,-16.37,24.0,8.88,-12.44,-10.5,0.6740530458357118,0.06521298486751681,-0.6044738470207562,-129.97078188553854,-6.030298919379606,49.517699264874096,0.0242,-0.9062,-0.0526,0.4188
198,654796.0,448.10412699999995,1.0,-7.6,-0.79,-6.66,30.19,-16.37,24.0,4.56,-21.0,-8.25,0.22889739608224235,0.14162766762129264,-0.32583476859604943,-129.3510733053071,-6.2024314124588535,50.111510359679706,0.0264,-0.9039,-0.0541,0.4235
199,654796.0,448.10412699999995,1.0,-7.6,-0.79,-6.66,30.19,-16.37,24.0,4.56,-21.0,-8.25,0.22889739608224235,0.14162766762129264,-0.32583476859604943,-129.3510733053071,-6.2024314124588535,50.111510359679706,0.0264,-0.9039,-0.0541,0.4235
200,654831.0,448.126095,1.0,-7.63,-0.86,-6.21,30.87,-16.0,23.56,9.5,-17.75,-8.06,-0.008526392216809717,0.141400506827824,-0.06758582852387462,-128.55324310023371,-6.443440527613203,50.858977326379346,0.0294,-0.9009,-0.0562,0.4294
201,654831.0,448.126095,1.0,-7.63,-0.86,-6.21,30.87,-16.0,23.56,9.5,-17.75,-8.06,-0.008526392216809717,0.141400506827824,-0.06758582852387462,-128.55324310023371,-6.443440527613203,50.858977326379346,0.0294,-0.9009,-0.0562,0.4294
202,654866.0,448.17015499999997,1.0,-7.31,-1.29,-6.56,30.87,-16.37,23.56,8.56,-16.87,-9.94,0.5129136972009738,-0.26381121405703256,-0.08279503915975184,-128.05386288415187,-6.627085616027942,51.31619778683095,0.0322,-0.899,-0.0578,0.433
203,654866.0,448.17015499999997,1.0,-7.31,-1.29,-6.56,30.87,-16.37,23.56,8.56,-16.87,-9.94,0.5129136972009738,-0.26381121405703256,-0.08279503915975184,-128.05386288415187,-6.627085616027942,51.31619778683095,0.0322,-0.899,-0.0578,0.433
204,654903.0,448.187423,1.0,-7.48,-1.1,-5.84,30.87,-16.37,23.56,8.13,-24.19,-7.13,0.01451031751424519,0.002341665255404468,0.2533372778449543,-127.09397976921673,-6.764830589593756,52.22052340718582,0.0355,-0.8953,-0.059000000000000004,0.4401
205,654903.0,448.187423,1.0,-7.48,-1.1,-5.84,30.87,-16.37,23.56,8.13,-24.19,-7.13,0.01451031751424519,0.002341665255404468,0.2533372778449543,-127.09397976921673,-6.764830589593756,52.22052340718582,0.0355,-0.8953,-0.059000000000000004,0.4401
206,654936.0,448.231799,1.0,-7.72,-1.3,-5.47,30.87,-15.56,23.56,3.94,-19.5,-4.81,-0.340146352635996,-0.12965634074646615,0.2632339610707195,-126.47990511760632,-6.856665996646211,52.795499446887185,0.0375,-0.8929,-0.0598,0.4446
207,654936.0,448.231799,1.0,-7.72,-1.3,-5.47,30.87,-15.56,23.56,3.94,-19.5,-4.81,-0.340146352635996,-0.12965634074646615,0.2632339610707195,-126.47990511760632,-6.856665996646211,52.795499446887185,0.0375,-0.8929,-0.0598,0.4446
208,654972.0,448.250467,1.0,-7.44,-1.58,-5.77,32.0,-15.56,22.0,5.0,-15.81,-2.19,0.15369395291739246,-0.4161523681778282,0.27008377439779885,-125.821937957947,-6.959986103018456,53.436046525616895,0.0388,-0.8903,-0.0607,0.4496
209,654972.0,448.250467,1.0,-7.44,-1.58,-5.77,32.0,-15.56,22.0,5.0,-15.81,-2.19,0.15369395291739246,-0.4161523681778282,0.27008377439779885,-125.821937957947,-6.959986103018456,53.436046525616895,0.0388,-0.8903,-0.0607,0.4496
210,655007.0,448.330197,1.0,-7.61,-1.67,-5.85,31.25,-14.88,22.75,8.63,-22.5,-0.06,0.2254576448914229,-0.4676367659603202,0.07762205752382556,-125.19616916396942,-6.7533514707706495,54.07840095968836,0.0406,-0.8878,-0.0589,0.4546
211,655007.0,448.330197,1.0,-7.61,-1.67,-5.85,31.25,-14.88,22.75,8.63,-22.5,-0.06,0.2254576448914229,-0.4676367659603202,0.07762205752382556,-125.19616916396942,-6.7533514707706495,54.07840095968836,0.0406,-0.8878,-0.0589,0.4546
212,655040.0,448.339952,1.0,-7.53,-1.84,-5.9,31.25,-14.88,22.75,6.0,-21.56,-0.06,0.4279545244388671,-0.6023397383330706,0.09322929642511467,-124.45383854948406,-6.764830589593756,54.800027778247525,0.0433,-0.8848,-0.059000000000000004,0.4602
213,655040.0,448.339952,1.0,-7.53,-1.84,-5.9,31.25,-14.88,22.75,6.0,-21.56,-0.06,0.4279545244388671,-0.6023397383330706,0.09322929642511467,-124.45383854948406,-6.764830589593756,54.800027778247525,0.0433,-0.8848,-0.059000000000000004,0.4602
214,655077.0,448.38196500000004,1.0,-7.57,-1.17,-5.49,32.0,-15.56,21.06,-0.63,-24.0,10.5,0.2263816599191749,0.022112665261345144,0.3852826696127956,-123.79346416819727,-6.546738821065048,55.49811986129514,0.0424,-0.8821,-0.0571,0.4656
215,655077.0,448.38196500000004,1.0,-7.57,-1.17,-5.49,32.0,-15.56,21.06,-0.63,-24.0,10.5,0.2263816599191749,0.022112665261345144,0.3852826696127956,-123.79346416819727,-6.546738821065048,55.49811986129514,0.0424,-0.8821,-0.0571,0.4656
216,655114.0,448.443749,1.0,-7.54,-1.31,-5.02,32.0,-14.5,21.56,0.63,-20.25,13.0,-0.019105664776734158,-0.20248567248975835,0.6564186080618821,-123.01990890666336,-6.145052377433652,56.35439663135928,0.0401,-0.8789,-0.0536,0.4722
217,655114.0,448.443749,1.0,-7.54,-1.31,-5.02,32.0,-14.5,21.56,0.63,-20.25,13.0,-0.019105664776734158,-0.20248567248975835,0.6564186080618821,-123.01990890666336,-6.145052377433652,56.35439663135928,0.0401,-0.8789,-0.0536,0.4722
218,655149.0,448.46223,1.0,-7.82,-0.77,-4.42,32.0,-14.5,21.56,3.0,-22.37,3.38,-0.536366388266294,0.3254639341261732,0.8128696866322471,-122.37462983210787,-5.97292446733722,57.04449995014843,0.0391,-0.8762,-0.0521,0.4775
219,655149.0,448.46223,1.0,-7.82,-0.77,-4.42,32.0,-14.5,21.56,3.0,-22.37,3.38,-0.536366388266294,0.3254639341261732,0.8128696866322471,-122.37462983210787,-5.97292446733722,57.04449995014843,0.0391,-0.8762,-0.0521,0.4775
220,655181.0,448.46578200000005,1.0,-7.83,-1.15,-4.68,32.38,-15.19,20.19,7.69,-14.25,3.56,-0.2435753850807272,-0.046053863787948617,0.6157659253631635,-121.78298489723478,-5.777862453568277,57.6583726523369,0.0402,-0.8737,-0.0504,0.4822
221,655181.0,448.46578200000005,1.0,-7.83,-1.15,-4.68,32.38,-15.19,20.19,7.69,-14.25,3.56,-0.2435753850807272,-0.046053863787948617,0.6157659253631635,-121.78298489723478,-5.777862453568277,57.6583726523369,0.0402,-0.8737,-0.0504,0.4822
222,655218.0,448.50614900000005,1.0,-7.88,-1.37,-4.79,32.38,-16.69,19.0,3.06,-20.81,7.25,-0.10453254997541196,-0.2650640354158013,0.4881622469831637,-121.29021101561548,-5.582817194583068,58.15602096155954,0.0407,-0.8716,-0.0487,0.486
223,655218.0,448.50614900000005,1.0,-7.88,-1.37,-4.79,32.38,-16.69,19.0,3.06,-20.81,7.25,-0.10453254997541196,-0.2650640354158013,0.4881622469831637,-121.29021101561548,-5.582817194583068,58.15602096155954,0.0407,-0.8716,-0.0487,0.486
224,655253.0,448.604349,1.0,-8.01,-1.25,-4.32,33.5,-15.19,20.56,-0.31,-13.44,5.75,-0.4646247757731628,-0.17914305118677576,0.6340259705878459,-120.68528037991206,-5.341901218009245,58.79950628412525,0.0397,-0.8690000000000001,-0.0466,0.4909
225,655253.0,448.604349,1.0,-8.01,-1.25,-4.32,33.5,-15.19,20.56,-0.31,-13.44,5.75,-0.4646247757731628,-0.17914305118677576,0.6340259705878459,-120.68528037991206,-5.341901218009245,58.79950628412525,0.0397,-0.8690000000000001,-0.0466,0.4909
226,655288.0,448.646495,1.0,-8.28,-1.32,-4.42,33.5,-15.19,20.56,12.94,-21.37,9.13,-0.4177090631921388,-0.23947270746810026,0.3406385928177205,-120.13181910251943,-4.928956774809122,59.40545261479044,0.0405,-0.8666,-0.043,0.4955
227,655288.0,448.646495,1.0,-8.28,-1.32,-4.42,33.5,-15.19,20.56,12.94,-21.37,9.13,-0.4177090631921388,-0.23947270746810026,0.3406385928177205,-120.13181910251943,-4.928956774809122,59.40545261479044,0.0405,-0.8666,-0.043,0.4955
228,655323.0,448.65977699999996,1.0,-7.94,-2.15,-5.05,33.19,-17.06,19.0,6.38,-16.06,15.25,0.3838659199710923,-1.1027513015498591,0.22514768969318588,-119.53742748975634,-4.4702044875913645,60.02646555170329,0.0417,-0.8640000000000001,-0.039,0.5002
229,655323.0,448.65977699999996,1.0,-7.94,-2.15,-5.05,33.19,-17.06,19.0,6.38,-16.06,15.25,0.3838659199710923,-1.1027513015498591,0.22514768969318588,-119.53742748975634,-4.4702044875913645,60.02646555170329,0.0417,-0.8640000000000001,-0.039,0.5002
230,655360.0,448.66775199999995,1.0,-8.32,-1.0,-4.02,33.5,-16.0,19.0,-4.63,-20.44,23.75,-0.5647444657205796,-0.05614017163022112,0.5297587119893805,-118.9708445669936,-3.9541934642266314,60.68925941563211,0.0381,-0.8615,-0.0345,0.5052
231,655360.0,448.66775199999995,1.0,-8.32,-1.0,-4.02,33.5,-16.0,19.0,-4.63,-20.44,23.75,-0.5647444657205796,-0.05614017163022112,0.5297587119893805,-118.9708445669936,-3.9541934642266314,60.68925941563211,0.0381,-0.8615,-0.0345,0.5052
232,655392.0,448.728649,1.0,-8.3,-0.77,-4.39,33.5,-16.0,19.0,10.81,-8.13,17.81,-0.15673261813470654,0.08038779178426975,0.38730964680409663,-118.6107135023718,-3.266301709643329,61.12793410600524,0.0355,-0.8599,-0.0285,0.5085
233,655392.0,448.728649,1.0,-8.3,-0.77,-4.39,33.5,-16.0,19.0,10.81,-8.13,17.81,-0.15673261813470654,0.08038779178426975,0.38730964680409663,-118.6107135023718,-3.266301709643329,61.12793410600524,0.0355,-0.8599,-0.0285,0.5085
234,655429.0,448.73207,1.0,-8.46,-1.14,-3.94,34.25,-16.37,18.56,14.75,-5.44,10.75,-0.5877093020566446,-0.31451001454909244,0.428458211226193,-118.38659680691794,-2.738999060214957,61.367629313530685,0.037000000000000005,-0.8589,-0.0239,0.5103
235,655429.0,448.73207,1.0,-8.46,-1.14,-3.94,34.25,-16.37,18.56,14.75,-5.44,10.75,-0.5877093020566446,-0.31451001454909244,0.428458211226193,-118.38659680691794,-2.738999060214957,61.367629313530685,0.037000000000000005,-0.8589,-0.0239,0.5103
236,655466.0,448.77574000000004,1.0,-7.96,-1.26,-4.83,33.19,-16.0,18.19,-0.56,-18.31,33.56,0.5226569913933036,-0.5630630249844046,0.4424687918407351,-117.94055354353924,-1.7877008349543104,61.87463337928294,0.0339,-0.8569,-0.0156,0.5141
237,655466.0,448.77574000000004,1.0,-7.96,-1.26,-4.83,33.19,-16.0,18.19,-0.56,-18.31,33.56,0.5226569913933036,-0.5630630249844046,0.4424687918407351,-117.94055354353924,-1.7877008349543104,61.87463337928294,0.0339,-0.8569,-0.0156,0.5141
238,655499.0,448.788129,1.0,-7.97,-0.32,-4.43,33.19,-16.0,18.19,-4.19,-10.25,34.31,0.22194033249544487,0.2077964381852868,0.6876718155163157,-117.58578661368068,-0.9854995558041141,62.28923949337646,0.0284,-0.8553,-0.0086,0.5172
239,655499.0,448.788129,1.0,-7.97,-0.32,-4.43,33.19,-16.0,18.19,-4.19,-10.25,34.31,0.22194033249544487,0.2077964381852868,0.6876718155163157,-117.58578661368068,-0.9854995558041141,62.28923949337646,0.0284,-0.8553,-0.0086,0.5172
240,655534.0,448.841825,1.0,-8.31,-0.41,-4.5,33.19,-17.5,16.87,3.75,-13.13,26.62,0.21378680549989704,-0.025488167324655475,0.3500202856080588,-117.12288767556585,-0.08021409786913415,62.81213256780961,0.0231,-0.8532,-0.0007,0.5211
241,655534.0,448.841825,1.0,-8.31,-0.41,-4.5,33.19,-17.5,16.87,3.75,-13.13,26.62,0.21378680549989704,-0.025488167324655475,0.3500202856080588,-117.12288767556585,-0.08021409786913415,62.81213256780961,0.0231,-0.8532,-0.0007,0.5211
242,655568.0,448.859696,1.0,-8.12,-1.71,-5.25,32.75,-18.19,17.69,18.06,-4.13,29.56,1.0472491775242747,-1.3684323989335063,0.1396100223375587,-116.9473481900315,0.7448503787209418,63.00019289675618,0.0226,-0.8524,0.0065,0.5225
243,655568.0,448.859696,1.0,-8.12,-1.71,-5.25,32.75,-18.19,17.69,18.06,-4.13,29.56,1.0472491775242747,-1.3684323989335063,0.1396100223375587,-116.9473481900315,0.7448503787209418,63.00019289675618,0.0226,-0.8524,0.0065,0.5225
244,655605.0,448.90312800000004,1.0,-8.71,-0.9,-4.08,32.0,-18.56,17.37,4.5,-16.94,39.5,-0.15310250613177187,-0.8029284886984652,0.18104012505427747,-116.20613978613413,2.1773706400327653,63.7003688213593,0.0183,-0.8490000000000001,0.019,0.5277
245,655605.0,448.90312800000004,1.0,-8.71,-0.9,-4.08,32.0,-18.56,17.37,4.5,-16.94,39.5,-0.15310250613177187,-0.8029284886984652,0.18104012505427747,-116.20613978613413,2.1773706400327653,63.7003688213593,0.0183,-0.8490000000000001,0.019,0.5277
246,655640.0,448.959024,1.0,-8.5,-0.03,-4.58,32.0,-18.56,17.37,20.25,-24.0,48.75,0.4908960964960903,-0.11455373298613612,0.16438893401014454,-115.30102772408483,4.034456312516312,64.5115830018242,0.0148,-0.8448,0.0352,0.5337
247,655640.0,448.959024,1.0,-8.5,-0.03,-4.58,32.0,-18.56,17.37,20.25,-24.0,48.75,0.4908960964960903,-0.11455373298613612,0.16438893401014454,-115.30102772408483,4.034456312516312,64.5115830018242,0.0148,-0.8448,0.0352,0.5337
248,655677.0,448.962599,1.0,-8.55,-0.01,-3.38,32.38,-19.0,16.87,14.56,-7.5,48.75,-0.5295245935243245,-0.3377780817871781,0.6342724634876121,-114.74633713830113,5.513981585080581,64.93213103574271,0.0128,-0.8422,0.0481,0.5368
249,655677.0,448.962599,1.0,-8.55,-0.01,-3.38,32.38,-19.0,16.87,14.56,-7.5,48.75,-0.5295245935243245,-0.3377780817871781,0.6342724634876121,-114.74633713830113,5.513981585080581,64.93213103574271,0.0128,-0.8422,0.0481,0.5368
250,655712.0,449.02402300000006,1.0,-8.16,-0.39,-4.22,32.75,-20.06,16.87,13.5,12.75,52.88,0.4126867564710541,-0.890181856036246,0.6642561174210382,-114.85268180222258,7.465189762811248,64.60646007520779,0.0062,-0.8427,0.0651,0.5344
251,655712.0,449.02402300000006,1.0,-8.16,-0.39,-4.22,32.75,-20.06,16.87,13.5,12.75,52.88,0.4126867564710541,-0.890181856036246,0.6642561174210382,-114.85268180222258,7.465189762811248,64.60646007520779,0.0062,-0.8427,0.0651,0.5344
252,655747.0,449.0432,1.0,-8.02,2.39,-3.48,32.75,-20.06,16.87,-8.13,-19.44,56.25,-0.4718380003295822,1.5609966363018932,0.891294796593959,-114.34362489902875,8.92424161449454,64.89139002267046,-0.0029,-0.8403,0.0778,0.5365
253,655747.0,449.0432,1.0,-8.02,2.39,-3.48,32.75,-20.06,16.87,-8.13,-19.44,56.25,-0.4718380003295822,1.5609966363018932,0.891294796593959,-114.34362489902875,8.92424161449454,64.89139002267046,-0.0029,-0.8403,0.0778,0.5365
254,655779.0,449.090268,1.0,-8.06,2.02,-2.83,30.75,-20.5,18.25,7.38,0.31,39.81,-0.9999467082896162,0.9174989634956704,1.1342107680096625,-113.85904656766621,10.580368342525214,65.08159370090408,-0.0077,-0.838,0.0922,0.5379
255,655779.0,449.090268,1.0,-8.06,2.02,-2.83,30.75,-20.5,18.25,7.38,0.31,39.81,-0.9999467082896162,0.9174989634956704,1.1342107680096625,-113.85904656766621,10.580368342525214,65.08159370090408,-0.0077,-0.838,0.0922,0.5379
256,655816.0,449.10825700000004,1.0,-8.2,1.33,-3.95,30.75,-23.06,17.5,15.19,24.5,45.75,-0.043917412064266866,0.1519473880461002,0.6095644153061439,-114.23801227723101,11.927589126675839,64.37613024312793,-0.0101,-0.8398,0.1039,0.5327
257,655816.0,449.10825700000004,1.0,-8.2,1.33,-3.95,30.75,-23.06,17.5,15.19,24.5,45.75,-0.043917412064266866,0.1519473880461002,0.6095644153061439,-114.23801227723101,11.927589126675839,64.37613024312793,-0.0101,-0.8398,0.1039,0.5327
258,655851.0,449.154915,1.0,-8.16,2.11,-3.33,30.75,-23.06,17.5,1.0,16.87,41.31,-0.7912550025580892,0.673272453039657,0.8040270641604259,-114.5341088647508,13.06883146764636,63.781328955958536,-0.0154,-0.8412,0.1138,0.5283
259,655851.0,449.154915,1.0,-8.16,2.11,-3.33,30.75,-23.06,17.5,1.0,16.87,41.31,-0.7912550025580892,0.673272453039657,0.8040270641604259,-114.5341088647508,13.06883146764636,63.781328955958536,-0.0154,-0.8412,0.1138,0.5283
260,655886.0,449.17405599999995,1.0,-8.21,2.6,-3.16,28.87,-23.06,18.69,17.81,25.31,23.19,-1.1870368922989605,0.9349761757692796,0.7586412153521263,-115.04449255970869,14.442363367873067,62.89270673851754,-0.0183,-0.8436,0.1257,0.5217
261,655886.0,449.17405599999995,1.0,-8.21,2.6,-3.16,28.87,-23.06,18.69,17.81,25.31,23.19,-1.1870368922989605,0.9349761757692796,0.7586412153521263,-115.04449255970869,14.442363367873067,62.89270673851754,-0.0183,-0.8436,0.1257,0.5217
262,655921.0,449.21128799999997,1.0,-7.82,2.71,-3.75,28.19,-24.19,19.06,26.87,42.38,7.13,-0.7901232979700858,1.1502032678834353,0.8282460429174758,-116.37984588511999,15.332219618835126,61.30101752415778,-0.0139,-0.8498,0.1334,0.5098
263,655921.0,449.21128799999997,1.0,-7.82,2.71,-3.75,28.19,-24.19,19.06,26.87,42.38,7.13,-0.7901232979700858,1.1502032678834353,0.8282460429174758,-116.37984588511999,15.332219618835126,61.30101752415778,-0.0139,-0.8498,0.1334,0.5098
264,655958.0,449.26712000000003,1.0,-8.02,2.5,-3.37,26.37,-24.19,19.5,6.19,42.56,-3.0,-1.37389219660432,0.8688458111530328,0.9024472176869428,-117.56367389565743,15.551935573755918,60.02646555170329,-0.0101,-0.8552,0.1353,0.5002
265,655958.0,449.26712000000003,1.0,-8.02,2.5,-3.37,26.37,-24.19,19.5,6.19,42.56,-3.0,-1.37389219660432,0.8688458111530328,0.9024472176869428,-117.56367389565743,15.551935573755918,60.02646555170329,-0.0101,-0.8552,0.1353,0.5002
266,655990.0,449.32152699999995,1.0,-7.8,2.24,-3.95,26.37,-24.19,19.5,12.69,59.56,1.37,-1.0574364713579971,0.6860462473213802,0.8695772882236081,-119.67412364784863,15.713868313956251,57.81539569637104,-0.0103,-0.8646,0.1367,0.4834
267,655990.0,449.32152699999995,1.0,-7.8,2.24,-3.95,26.37,-24.19,19.5,12.69,59.56,1.37,-1.0574364713579971,0.6860462473213802,0.8695772882236081,-119.67412364784863,15.713868313956251,57.81539569637104,-0.0103,-0.8646,0.1367,0.4834
268,656027.0,449.32836799999995,1.0,-7.39,1.88,-6.34,26.69,-23.5,21.06,0.75,31.62,10.44,1.0047661320214256,0.6423828054270049,-0.038139959731720914,-120.87081305028902,16.118839093056636,56.45841982476564,-0.0112,-0.8698,0.1402,0.473
269,656027.0,449.32836799999995,1.0,-7.39,1.88,-6.34,26.69,-23.5,21.06,0.75,31.62,10.44,1.0047661320214256,0.6423828054270049,-0.038139959731720914,-120.87081305028902,16.118839093056636,56.45841982476564,-0.0112,-0.8698,0.1402,0.473
270,656064.0,449.429974,1.0,-7.84,2.04,-4.41,24.37,-22.69,22.0,-6.69,30.31,-1.56,-1.0168362898512562,0.4046670756430373,0.6481791386863041,-121.87727845049913,16.10726571114575,55.39455832418957,-0.0139,-0.8741,0.1401,0.4648
271,656064.0,449.429974,1.0,-7.84,2.04,-4.41,24.37,-22.69,22.0,-6.69,30.31,-1.56,-1.0168362898512562,0.4046670756430373,0.6481791386863041,-121.87727845049913,16.10726571114575,55.39455832418957,-0.0139,-0.8741,0.1401,0.4648
272,656097.0,449.48355599999996,1.0,-8.32,1.84,-5.37,24.37,-22.69,22.0,0.25,39.94,-1.81,-0.6353658239579852,0.16750670189972228,-0.2438799250619059,-122.9958904624243,16.03782888845279,54.27146504851861,-0.0143,-0.8788,0.1395,0.4561
273,656097.0,449.48355599999996,1.0,-8.32,1.84,-5.37,24.37,-22.69,22.0,0.25,39.94,-1.81,-0.6353658239579852,0.16750670189972228,-0.2438799250619059,-122.9958904624243,16.03782888845279,54.27146504851861,-0.0143,-0.8788,0.1395,0.4561
274,656132.0,449.546855,1.0,-8.03,2.69,-6.3,24.75,-24.19,22.37,-19.56,42.75,-5.75,-0.16440914449640398,1.0524023180355244,-0.6944175168860536,-124.57692406667047,15.551935573755918,52.795499446887185,-0.0203,-0.8853,0.1353,0.4446
275,656132.0,449.546855,1.0,-8.03,2.69,-6.3,24.75,-24.19,22.37,-19.56,42.75,-5.75,-0.16440914449640398,1.0524023180355244,-0.6944175168860536,-124.57692406667047,15.551935573755918,52.795499446887185,-0.0203,-0.8853,0.1353,0.4446
276,656168.0,449.55405199999996,1.0,-8.43,2.72,-5.28,23.56,-23.5,24.0,1.44,33.69,-27.0,-1.3454482208735128,0.9195277502110332,-0.3759792185044333,-125.5457815403515,14.985414779298193,51.965432739188564,-0.0211,-0.8892,0.1304,0.4381
277,656168.0,449.55405199999996,1.0,-8.43,2.72,-5.28,23.56,-23.5,24.0,1.44,33.69,-27.0,-1.3454482208735128,0.9195277502110332,-0.3759792185044333,-125.5457815403515,14.985414779298193,51.965432739188564,-0.0211,-0.8892,0.1304,0.4381
278,656203.0,449.57079000000004,1.0,-8.46,1.84,-6.39,23.56,-23.5,24.0,-9.19,44.5,-26.62,-0.6078231824818571,0.22787928616479136,-0.9342960481735324,-127.40350962041992,13.968904250085991,50.37729473020999,-0.02,-0.8965,0.1216,0.4256
279,656203.0,449.57079000000004,1.0,-8.46,1.84,-6.39,23.56,-23.5,24.0,-9.19,44.5,-26.62,-0.6078231824818571,0.22787928616479136,-0.9342960481735324,-127.40350962041992,13.968904250085991,50.37729473020999,-0.02,-0.8965,0.1216,0.4256
280,656238.0,449.573871,1.0,-7.75,1.94,-7.06,22.87,-23.06,24.0,-4.88,39.75,-29.75,0.12757489673427225,0.5665823044675945,-0.8391195418409012,-128.6854111372357,13.103434321670449,49.31587513221956,-0.0208,-0.9014,0.1141,0.4172
281,656238.0,449.573871,1.0,-7.75,1.94,-7.06,22.87,-23.06,24.0,-4.88,39.75,-29.75,0.12757489673427225,0.5665823044675945,-0.8391195418409012,-128.6854111372357,13.103434321670449,49.31587513221956,-0.0208,-0.9014,0.1141,0.4172
282,656275.0,449.610643,1.0,-7.6,0.32,-7.46,23.25,-23.5,24.75,5.69,31.44,-35.19,0.5426125683479454,-0.7896595141185669,-0.8044766815750021,-130.3788376016962,11.916067673936475,47.94523502960248,-0.0152,-0.9077,0.1038,0.4063
283,656275.0,449.610643,1.0,-7.6,0.32,-7.46,23.25,-23.5,24.75,5.69,31.44,-35.19,0.5426125683479454,-0.7896595141185669,-0.8044766815750021,-130.3788376016962,11.916067673936475,47.94523502960248,-0.0152,-0.9077,0.1038,0.4063
284,656310.0,449.632579,1.0,-7.41,2.06,-7.25,23.25,-23.5,26.5,-32.63,31.31,-18.5,0.07968731246512538,0.9113410934807196,-0.7231794071445172,-131.34342588798634,11.09834637461124,47.15635695640368,-0.019,-0.9112,0.0967,0.4
285,656310.0,449.632579,1.0,-7.41,2.06,-7.25,23.25,-23.5,26.5,-32.63,31.31,-18.5,0.07968731246512538,0.9113410934807196,-0.7231794071445172,-131.34342588798634,11.09834637461124,47.15635695640368,-0.019,-0.9112,0.0967,0.4
286,656343.0,449.636207,1.0,-7.01,0.83,-8.04,23.25,-23.5,26.5,1.63,32.88,-28.12,0.8995621324049491,-0.1414752296710396,-0.8536207624775011,-132.72485553305756,10.039600263356236,45.99612491286469,-0.019,-0.9161,0.0875,0.3907
287,656343.0,449.636207,1.0,-7.01,0.83,-8.04,23.25,-23.5,26.5,1.63,32.88,-28.12,0.8995621324049491,-0.1414752296710396,-0.8536207624775011,-132.72485553305756,10.039600263356236,45.99612491286469,-0.019,-0.9161,0.0875,0.3907
288,656379.0,449.67257699999993,1.0,-7.11,1.47,-7.24,23.56,-22.37,25.56,-19.62,9.69,-24.0,0.09738612233944063,0.4751720805372078,-0.4351919943413325,-133.32867360141205,9.22311622194562,45.598062543777615,-0.02,-0.9182,0.0804,0.3875
289,656379.0,449.67257699999993,1.0,-7.11,1.47,-7.24,23.56,-22.37,25.56,-19.62,9.69,-24.0,0.09738612233944063,0.4751720805372078,-0.4351919943413325,-133.32867360141205,9.22311622194562,45.598062543777615,-0.02,-0.9182,0.0804,0.3875
290,656416.0,449.73169,1.0,-7.24,1.25,-7.04,22.5,-22.0,24.5,-14.56,14.5,-26.62,-0.17377904855295062,0.2712021865355177,-0.3637949369878797,-133.99857662596108,7.867159619602528,45.16334612512468,-0.0228,-0.9205,0.0686,0.384
291,656416.0,449.73169,1.0,-7.24,1.25,-7.04,22.5,-22.0,24.5,-14.56,14.5,-26.62,-0.17377904855295062,0.2712021865355177,-0.3637949369878797,-133.99857662596108,7.867159619602528,45.16334612512468,-0.0228,-0.9205,0.0686,0.384
292,656449.0,449.751524,1.0,-6.69,1.58,-7.12,22.5,-22.0,24.5,-10.38,25.75,-32.81,0.14152077610718922,0.7221768834874687,-0.06276398558629381,-134.73735728971755,6.9025853499261425,44.580659579875785,-0.0234,-0.9229999999999999,0.0602,0.3793
293,656449.0,449.751524,1.0,-6.69,1.58,-7.12,22.5,-22.0,24.5,-10.38,25.75,-32.81,0.14152077610718922,0.7221768834874687,-0.06276398558629381,-134.73735728971755,6.9025853499261425,44.580659579875785,-0.0234,-0.9229999999999999,0.0602,0.3793
294,656484.0,449.79303600000003,1.0,-6.97,1.56,-6.98,23.56,-21.56,25.56,-4.56,11.31,-44.56,-0.2356711224131123,0.8181703638779045,-0.14372468529363758,-135.54829362030736,5.376316314590642,44.0239043163285,-0.0206,-0.9257,0.0469,0.3748
295,656484.0,449.79303600000003,1.0,-6.97,1.56,-6.98,23.56,-21.56,25.56,-4.56,11.31,-44.56,-0.2356711224131123,0.8181703638779045,-0.14372468529363758,-135.54829362030736,5.376316314590642,44.0239043163285,-0.0206,-0.9257,0.0469,0.3748
296,656519.0,449.80977300000006,1.0,-6.81,0.38,-7.31,22.87,-22.69,26.87,7.5,21.12,-47.75,0.08834088135567278,-0.16229304153073118,-0.18947209095867024,-136.28110106832045,4.126187708974658,43.480576858025245,-0.0151,-0.9281,0.036000000000000004,0.3704
297,656519.0,449.80977300000006,1.0,-6.81,0.38,-7.31,22.87,-22.69,26.87,7.5,21.12,-47.75,0.08834088135567278,-0.16229304153073118,-0.18947209095867024,-136.28110106832045,4.126187708974658,43.480576858025245,-0.0151,-0.9281,0.036000000000000004,0.3704
298,656556.0,449.856687,1.0,-6.43,0.03,-7.79,23.56,-21.19,26.5,-9.88,11.19,-25.75,0.6014326891128932,-0.3493350983233077,-0.27036065344013416,-136.99450746728783,2.8994758203914888,42.901336489189035,-0.0115,-0.9304,0.0253,0.3657
299,656556.0,449.856687,1.0,-6.43,0.03,-7.79,23.56,-21.19,26.5,-9.88,11.19,-25.75,0.6014326891128932,-0.3493350983233077,-0.27036065344013416,-136.99450746728783,2.8994758203914888,42.901336489189035,-0.0115,-0.9304,0.0253,0.3657
300,656590.0,449.914324,1.0,-6.36,0.2,-7.75,23.56,-21.19,26.5,-11.06,6.5,-26.19,0.5772621785961761,-0.13935907074041776,-0.2033174038712424,-137.24530467426428,2.0742204847835874,42.667502601243356,-0.0119,-0.9312,0.0181,0.3638
301,656590.0,449.914324,1.0,-6.36,0.2,-7.75,23.56,-21.19,26.5,-11.06,6.5,-26.19,0.5772621785961761,-0.13935907074041776,-0.2033174038712424,-137.24530467426428,2.0742204847835874,42.667502601243356,-0.0119,-0.9312,0.0181,0.3638
302,656627.0,449.927914,1.0,-6.38,0.77,-7.35,24.37,-20.5,26.5,-15.0,2.94,-21.25,0.2558159633447876,0.4638092785998035,0.05784293728803469,-137.46590815068691,1.0198783397289315,42.48302850521899,-0.0135,-0.9319,0.0089,0.3623
303,656627.0,449.927914,1.0,-6.38,0.77,-7.35,24.37,-20.5,26.5,-15.0,2.94,-21.25,0.2558159633447876,0.4638092785998035,0.05784293728803469,-137.46590815068691,1.0198783397289315,42.48302850521899,-0.0135,-0.9319,0.0089,0.3623
304,656662.0,449.98776399999997,1.0,-6.58,0.15,-7.11,25.06,-20.87,26.06,-3.81,9.56,-29.75,-0.0831329038694099,-0.08735556841870687,0.11869573065290773,-137.68760819354466,0.08021409786913415,42.286383276048326,-0.0129,-0.9326,0.0007,0.3607
305,656662.0,449.98776399999997,1.0,-6.58,0.15,-7.11,25.06,-20.87,26.06,-3.81,9.56,-29.75,-0.0831329038694099,-0.08735556841870687,0.11869573065290773,-137.68760819354466,0.08021409786913415,42.286383276048326,-0.0129,-0.9326,0.0007,0.3607
306,656695.0,450.004853,1.0,-6.36,0.08,-6.83,25.06,-20.87,26.06,-9.38,17.56,-25.25,-0.19261666741414,-0.05511128583798825,0.4758000084071892,-138.19856277995768,-1.0427975798203954,41.77080790377483,-0.0115,-0.9342,-0.0091,0.3565
307,656695.0,450.004853,1.0,-6.36,0.08,-6.83,25.06,-20.87,26.06,-9.38,17.56,-25.25,-0.19261666741414,-0.05511128583798825,0.4758000084071892,-138.19856277995768,-1.0427975798203954,41.77080790377483,-0.0115,-0.9342,-0.0091,0.3565
308,656730.0,450.010863,1.0,-6.34,0.33,-7.26,24.0,-20.06,26.06,-8.75,6.0,-21.69,0.05899749905771319,0.2394957611902769,0.16552656569646196,-138.5209607780903,-1.9710720103882065,41.40308164369669,-0.0114,-0.9352,-0.0172,0.3535
309,656730.0,450.010863,1.0,-6.34,0.33,-7.26,24.0,-20.06,26.06,-8.75,6.0,-21.69,0.05899749905771319,0.2394957611902769,0.16552656569646196,-138.5209607780903,-1.9710720103882065,41.40308164369669,-0.0114,-0.9352,-0.0172,0.3535
310,656766.0,450.049569,1.0,-6.43,0.59,-6.65,24.75,-20.5,26.87,-14.13,14.44,-26.06,-0.43850807231767625,0.5672418733021509,0.5653596502877427,-138.74807199122864,-2.7733864743736323,41.109221581061185,-0.0118,-0.9359,-0.0242,0.3511
311,656766.0,450.049569,1.0,-6.43,0.59,-6.65,24.75,-20.5,26.87,-14.13,14.44,-26.06,-0.43850807231767625,0.5672418733021509,0.5653596502877427,-138.74807199122864,-2.7733864743736323,41.109221581061185,-0.0118,-0.9359,-0.0242,0.3511
312,656801.0,450.109103,1.0,-6.03,-0.33,-7.73,24.75,-20.5,26.87,-3.06,18.81,-27.75,0.42666687130661257,-0.3448771836818048,0.01268680274909606,-139.2388131216407,-3.621696182670093,40.5589927006499,-0.0109,-0.9374,-0.0316,0.3466
313,656801.0,450.109103,1.0,-6.03,-0.33,-7.73,24.75,-20.5,26.87,-3.06,18.81,-27.75,0.42666687130661257,-0.3448771836818048,0.01268680274909606,-139.2388131216407,-3.621696182670093,40.5589927006499,-0.0109,-0.9374,-0.0316,0.3466
314,656836.0,450.12592300000006,1.0,-6.21,-0.6,-7.34,25.06,-19.37,26.5,-13.38,5.44,-17.19,-0.04282704229282066,-0.5303451957823453,0.18809502444576864,-139.5028685781741,-4.49314033842009,40.21712102458852,-0.0106,-0.9382,-0.0392,0.3438
315,656836.0,450.12592300000006,1.0,-6.21,-0.6,-7.34,25.06,-19.37,26.5,-13.38,5.44,-17.19,-0.04282704229282066,-0.5303451957823453,0.18809502444576864,-139.5028685781741,-4.49314033842009,40.21712102458852,-0.0106,-0.9382,-0.0392,0.3438
316,656871.0,450.167528,1.0,-6.15,-0.2,-7.28,24.75,-19.0,27.25,-12.56,9.88,-10.06,-0.068094638668169,-0.13315336630245084,0.27572489793215205,-139.76858389100772,-5.123950007684243,39.826867038243506,-0.0128,-0.9390000000000001,-0.0447,0.3406
317,656871.0,450.167528,1.0,-6.15,-0.2,-7.28,24.75,-19.0,27.25,-12.56,9.88,-10.06,-0.068094638668169,-0.13315336630245084,0.27572489793215205,-139.76858389100772,-5.123950007684243,39.826867038243506,-0.0128,-0.9390000000000001,-0.0447,0.3406
318,656908.0,450.229642,1.0,-5.73,-1.52,-8.64,25.06,-18.56,26.5,-1.37,9.25,-8.75,0.9227590596976116,-1.5131353717608385,-0.520587629902403,-140.1367137765361,-5.491036825631306,39.437093924009254,-0.0118,-0.9401,-0.0479,0.3374
319,656908.0,450.229642,1.0,-5.73,-1.52,-8.64,25.06,-18.56,26.5,-1.37,9.25,-8.75,0.9227590596976116,-1.5131353717608385,-0.520587629902403,-140.1367137765361,-5.491036825631306,39.437093924009254,-0.0118,-0.9401,-0.0479,0.3374
320,656943.0,450.24913300000003,1.0,-5.98,-1.64,-8.25,25.06,-18.56,26.5,-11.25,-1.63,0.5,0.4633365254515881,-1.6408223755908464,-0.3720297373698198,-140.06953899210683,-5.6516548202737225,39.437093924009254,-0.0148,-0.9399,-0.0493,0.3374
321,656943.0,450.24913300000003,1.0,-5.98,-1.64,-8.25,25.06,-18.56,26.5,-11.25,-1.63,0.5,0.4633365254515881,-1.6408223755908464,-0.3720297373698198,-140.06953899210683,-5.6516548202737225,39.437093924009254,-0.0148,-0.9399,-0.0493,0.3374
322,656979.0,450.29328899999996,1.0,-5.91,-1.16,-8.47,25.5,-20.06,26.5,-7.13,0.31,6.19,0.6954436026058335,-1.2498280001437776,-0.4874691058609422,-140.06953899210683,-5.6516548202737225,39.41274892746301,-0.0182,-0.9399,-0.0493,0.3372
323,656979.0,450.29328899999996,1.0,-5.91,-1.16,-8.47,25.5,-20.06,26.5,-7.13,0.31,6.19,0.6954436026058335,-1.2498280001437776,-0.4874691058609422,-140.06953899210683,-5.6516548202737225,39.41274892746301,-0.0182,-0.9399,-0.0493,0.3372
324,657014.0,450.309436,1.0,-5.71,-1.39,-8.36,24.69,-20.5,25.56,-5.94,0.75,13.06,0.7529130167608108,-1.5673525443767526,-0.2632222926771952,-140.1367137765361,-5.307486603594608,39.40057712393039,-0.0215,-0.9401,-0.0463,0.3371
325,657014.0,450.309436,1.0,-5.71,-1.39,-8.36,24.69,-20.5,25.56,-5.94,0.75,13.06,0.7529130167608108,-1.5673525443767526,-0.2632222926771952,-140.1367137765361,-5.307486603594608,39.40057712393039,-0.0215,-0.9401,-0.0463,0.3371
326,657049.0,450.349758,1.0,-5.98,-0.64,-7.74,24.69,-20.5,25.56,-10.13,-17.31,32.38,0.29148695058468344,-0.8876522900107575,0.04935996794306874,-139.83527593342114,-4.550480755424785,39.76593345094053,-0.0262,-0.9392,-0.0397,0.3401
327,657049.0,450.349758,1.0,-5.98,-0.64,-7.74,24.69,-20.5,25.56,-10.13,-17.31,32.38,0.29148695058468344,-0.8876522900107575,0.04935996794306874,-139.83527593342114,-4.550480755424785,39.76593345094053,-0.0262,-0.9392,-0.0397,0.3401
328,657084.0,450.38615300000004,1.0,-5.99,0.0,-7.92,25.0,-20.06,26.87,-12.56,-9.19,36.0,0.5121806284929802,-0.4651458901656682,-0.0992982284463082,-139.5028685781741,-3.438262641755622,40.11951210127083,-0.0337,-0.9382,-0.03,0.34299999999999997
329,657084.0,450.38615300000004,1.0,-5.99,0.0,-7.92,25.0,-20.06,26.87,-12.56,-9.19,36.0,0.5121806284929802,-0.4651458901656682,-0.0992982284463082,-139.5028685781741,-3.438262641755622,40.11951210127083,-0.0337,-0.9382,-0.03,0.34299999999999997
330,657119.0,450.41351,1.0,-5.93,-0.31,-8.19,24.69,-21.56,26.06,1.56,-26.75,43.38,0.7954478959320398,-0.931828186301092,-0.2350659328509241,-139.07460705159409,-2.337829975144579,40.607862210384674,-0.0377,-0.9369,-0.0204,0.34700000000000003
331,657119.0,450.41351,1.0,-5.93,-0.31,-8.19,24.69,-21.56,26.06,1.56,-26.75,43.38,0.7954478959320398,-0.931828186301092,-0.2350659328509241,-139.07460705159409,-2.337829975144579,40.607862210384674,-0.0377,-0.9369,-0.0204,0.34700000000000003
332,657156.0,450.470925,1.0,-6.24,0.16,-7.46,23.5,-21.56,26.06,-2.38,-33.38,45.38,0.31788081807704505,-0.6015246902217792,0.10345878099620798,-137.87852272532075,-0.5958787923837214,41.7953389567468,-0.0432,-0.9332,-0.0052,0.3567
333,657156.0,450.470925,1.0,-6.24,0.16,-7.46,23.5,-21.56,26.06,-2.38,-33.38,45.38,0.31788081807704505,-0.6015246902217792,0.10345878099620798,-137.87852272532075,-0.5958787923837214,41.7953389567468,-0.0432,-0.9332,-0.0052,0.3567
334,657188.0,450.48818099999994,1.0,-6.39,1.01,-6.88,23.5,-21.56,26.06,-7.75,-19.81,53.44,-0.05201338021039087,0.11107792672901552,0.3635807795361021,-137.1510918031107,0.7448503787209418,42.43385492531204,-0.0487,-0.9309,0.0065,0.3619
335,657188.0,450.48818099999994,1.0,-6.39,1.01,-6.88,23.5,-21.56,26.06,-7.75,-19.81,53.44,-0.05201338021039087,0.11107792672901552,0.3635807795361021,-137.1510918031107,0.7448503787209418,42.43385492531204,-0.0487,-0.9309,0.0065,0.3619
336,657227.0,450.53240300000004,1.0,-6.34,1.34,-7.22,24.25,-23.06,25.56,8.81,-15.56,44.94,0.2815490988022065,0.21291046602244468,0.1115481831843681,-136.5279785234642,2.589989743099661,42.901336489189035,-0.0538,-0.9289,0.0226,0.3657
337,657227.0,450.53240300000004,1.0,-6.34,1.34,-7.22,24.25,-23.06,25.56,8.81,-15.56,44.94,0.2815490988022065,0.21291046602244468,0.1115481831843681,-136.5279785234642,2.589989743099661,42.901336489189035,-0.0538,-0.9289,0.0226,0.3657
338,657262.0,450.592395,1.0,-6.44,1.26,-6.78,24.25,-23.06,24.5,8.56,-17.0,45.25,-0.035747295300120496,0.05926422942873277,0.3713540384527985,-136.00493912570792,3.805139007503523,43.29558684746807,-0.0554,-0.9272,0.0332,0.3689
339,657262.0,450.592395,1.0,-6.44,1.26,-6.78,24.25,-23.06,24.5,8.56,-17.0,45.25,-0.035747295300120496,0.05926422942873277,0.3713540384527985,-136.00493912570792,3.805139007503523,43.29558684746807,-0.0554,-0.9272,0.0332,0.3689
340,657295.0,450.60097699999994,1.0,-6.48,1.48,-7.15,24.25,-23.06,24.5,13.06,-9.69,42.06,0.23275693420526625,0.09066516204368293,0.0475053634055076,-135.397065246721,5.5598717686300585,43.65334169783373,-0.0581,-0.9252,0.0485,0.3718
341,657295.0,450.60097699999994,1.0,-6.48,1.48,-7.15,24.25,-23.06,24.5,13.06,-9.69,42.06,0.23275693420526625,0.09066516204368293,0.0475053634055076,-135.397065246721,5.5598717686300585,43.65334169783373,-0.0581,-0.9252,0.0485,0.3718
342,657330.0,450.654078,1.0,-6.45,1.76,-6.7,22.37,-23.5,24.75,5.63,-11.06,43.25,-0.041959993502173734,0.29298037089716544,0.3460738092379252,-134.91636984441135,6.833706733841952,43.900329831481116,-0.0599,-0.9236,0.0596,0.3738
343,657330.0,450.654078,1.0,-6.45,1.76,-6.7,22.37,-23.5,24.75,5.63,-11.06,43.25,-0.041959993502173734,0.29298037089716544,0.3460738092379252,-134.91636984441135,6.833706733841952,43.900329831481116,-0.0599,-0.9236,0.0596,0.3738
344,657367.0,450.66119100000003,1.0,-6.58,1.65,-6.72,22.0,-24.56,24.75,11.63,-26.0,44.69,-0.02990763273177477,0.017441051057981327,0.25803222865516595,-133.99857662596108,8.602444609340731,44.456840863061686,-0.0619,-0.9205,0.075,0.3783
345,657367.0,450.66119100000003,1.0,-6.58,1.65,-6.72,22.0,-24.56,24.75,11.63,-26.0,44.69,-0.02990763273177477,0.017441051057981327,0.25803222865516595,-133.99857662596108,8.602444609340731,44.456840863061686,-0.0619,-0.9205,0.075,0.3783
346,657401.0,450.71966,1.0,-6.58,2.29,-6.49,22.0,-24.56,24.75,-1.94,-29.19,47.81,-0.15397743713699974,0.5176249935172066,0.30039125562852753,-133.01147504963205,9.92457255015729,45.11370802914807,-0.0652,-0.9171,0.0865,0.3836
347,657401.0,450.71966,1.0,-6.58,2.29,-6.49,22.0,-24.56,24.75,-1.94,-29.19,47.81,-0.15397743713699974,0.5176249935172066,0.30039125562852753,-133.01147504963205,9.92457255015729,45.11370802914807,-0.0652,-0.9171,0.0865,0.3836
348,657436.0,450.777047,1.0,-6.52,2.44,-6.6,21.25,-26.06,25.69,2.5,-16.69,46.5,0.06633388574254771,0.4613168466942679,0.22506419270492906,-131.70630400699523,11.708702081111404,45.87166763185487,-0.0709,-0.9125,0.102,0.3897
349,657436.0,450.777047,1.0,-6.52,2.44,-6.6,21.25,-26.06,25.69,2.5,-16.69,46.5,0.06633388574254771,0.4613168466942679,0.22506419270492906,-131.70630400699523,11.708702081111404,45.87166763185487,-0.0709,-0.9125,0.102,0.3897
350,657471.0,450.783744,1.0,-6.29,2.89,-6.7,21.25,-25.69,24.0,-0.56,-31.06,58.56,0.3209537797441881,0.7867458610172218,0.210597706403421,-130.57034285366944,13.276466658923828,46.48205884773244,-0.0749,-0.9084,0.1156,0.3946
351,657471.0,450.783744,1.0,-6.29,2.89,-6.7,21.25,-25.69,24.0,-0.56,-31.06,58.56,0.3209537797441881,0.7867458610172218,0.210597706403421,-130.57034285366944,13.276466658923828,46.48205884773244,-0.0749,-0.9084,0.1156,0.3946
352,657508.0,450.84340199999997,1.0,-6.72,3.25,-6.16,20.5,-27.19,24.0,9.94,-28.31,25.25,-0.2626745593490585,0.8923841589050951,0.1733145138453711,-129.0571819857357,14.754288420181696,47.50667419847937,-0.078,-0.9028,0.1284,0.4028
353,657508.0,450.84340199999997,1.0,-6.72,3.25,-6.16,20.5,-27.19,24.0,9.94,-28.31,25.25,-0.2626745593490585,0.8923841589050951,0.1733145138453711,-129.0571819857357,14.754288420181696,47.50667419847937,-0.078,-0.9028,0.1284,0.4028
354,657541.0,450.859538,1.0,-6.52,2.19,-6.79,20.5,-27.19,24.0,13.38,-18.56,29.19,0.6252637266883728,-0.12938601279418285,0.1628486472252071,-128.0277034878583,16.014684599323402,48.19617622057904,-0.0769,-0.8989,0.1393,0.4083
355,657541.0,450.859538,1.0,-6.52,2.19,-6.79,20.5,-27.19,24.0,13.38,-18.56,29.19,0.6252637266883728,-0.12938601279418285,0.1628486472252071,-128.0277034878583,16.014684599323402,48.19617622057904,-0.0769,-0.8989,0.1393,0.4083
356,657580.0,450.904513,1.0,-7.12,3.34,-4.95,20.19,-26.5,23.56,3.06,-26.69,31.37,-1.257232683877035,0.7203218698750415,0.6277065759249254,-126.93984342653314,17.068431181009654,48.90012665540839,-0.0779,-0.8947,0.1484,0.4139
357,657580.0,450.904513,1.0,-7.12,3.34,-4.95,20.19,-26.5,23.56,3.06,-26.69,31.37,-1.257232683877035,0.7203218698750415,0.6277065759249254,-126.93984342653314,17.068431181009654,48.90012665540839,-0.0779,-0.8947,0.1484,0.4139
358,657614.0,450.92124900000005,1.0,-6.7,3.22,-5.36,20.19,-27.19,24.0,8.44,1.94,22.06,-0.6650790047163184,0.6471106545613083,0.6892535669036111,-126.5308282926202,18.054013364312716,48.93789354543228,-0.0789,-0.8931,0.1569,0.4142
359,657614.0,450.92124900000005,1.0,-6.7,3.22,-5.36,20.19,-27.19,24.0,8.44,1.94,22.06,-0.6650790047163184,0.6471106545613083,0.6892535669036111,-126.5308282926202,18.054013364312716,48.93789354543228,-0.0789,-0.8931,0.1569,0.4142
360,657647.0,450.96373700000004,1.0,-6.62,2.97,-5.32,20.19,-27.19,24.0,10.06,2.56,29.31,-0.6382811683561366,0.3735170882378931,0.8400016777495836,-126.40360438507471,18.92476206303288,48.686220967347204,-0.0787,-0.8926,0.1644,0.4122
361,657647.0,450.96373700000004,1.0,-6.62,2.97,-5.32,20.19,-27.19,24.0,10.06,2.56,29.31,-0.6382811683561366,0.3735170882378931,0.8400016777495836,-126.40360438507471,18.92476206303288,48.686220967347204,-0.0787,-0.8926,0.1644,0.4122
362,657682.0,450.97067999999996,1.0,-6.35,3.84,-5.45,19.69,-26.87,23.69,3.94,19.25,25.12,-0.6904981334886067,1.1509115137432155,0.6979061230879875,-126.60729740721462,19.889680039418103,47.97031813194389,-0.0815,-0.8934,0.1727,0.4065
363,657682.0,450.97067999999996,1.0,-6.35,3.84,-5.45,19.69,-26.87,23.69,3.94,19.25,25.12,-0.6904981334886067,1.1509115137432155,0.6979061230879875,-126.60729740721462,19.889680039418103,47.97031813194389,-0.0815,-0.8934,0.1727,0.4065
364,657719.0,451.031736,1.0,-6.0,3.27,-6.35,19.69,-27.5,24.56,13.75,20.31,15.13,0.2041746870053356,0.7015389602090999,0.5071040011624763,-127.17120439382437,20.401776712875193,47.15635695640368,-0.0814,-0.8956,0.1771,0.4
365,657719.0,451.031736,1.0,-6.0,3.27,-6.35,19.69,-27.5,24.56,13.75,20.31,15.13,0.2041746870053356,0.7015389602090999,0.5071040011624763,-127.17120439382437,20.401776712875193,47.15635695640368,-0.0814,-0.8956,0.1771,0.4
366,657754.0,451.049317,1.0,-6.41,3.35,-5.29,19.69,-27.5,24.56,6.31,15.94,8.38,-0.924907021495447,0.5835690610899655,0.9129053357695832,-127.37765090836372,20.751169149926106,46.73159877782965,-0.0817,-0.8964,0.1801,0.3966
367,657754.0,451.049317,1.0,-6.41,3.35,-5.29,19.69,-27.5,24.56,6.31,15.94,8.38,-0.924907021495447,0.5835690610899655,0.9129053357695832,-127.37765090836372,20.751169149926106,46.73159877782965,-0.0817,-0.8964,0.1801,0.3966
368,657788.0,451.094775,1.0,-6.17,3.42,-5.19,18.19,-27.06,24.56,4.44,30.37,11.25,-1.0361446304870532,0.6917705405571489,1.1377828407957402,-128.18484420355122,21.20567161915569,45.635356121986106,-0.0814,-0.8995,0.184,0.3878
369,657788.0,451.094775,1.0,-6.17,3.42,-5.19,18.19,-27.06,24.56,4.44,30.37,11.25,-1.0361446304870532,0.6917705405571489,1.1377828407957402,-128.18484420355122,21.20567161915569,45.635356121986106,-0.0814,-0.8995,0.184,0.3878
370,657823.0,451.155017,1.0,-6.06,3.29,-6.33,17.37,-26.75,26.19,6.75,42.06,3.81,-0.3411977259368286,0.5404364251704536,0.468121605110122,-129.3510733053071,21.590514086807822,44.13516742855202,-0.0821,-0.9039,0.1873,0.3757
371,657823.0,451.155017,1.0,-6.06,3.29,-6.33,17.37,-26.75,26.19,6.75,42.06,3.81,-0.3411977259368286,0.5404364251704536,0.468121605110122,-129.3510733053071,21.590514086807822,44.13516742855202,-0.0821,-0.9039,0.1873,0.3757
372,657858.0,451.17168200000003,1.0,-5.99,3.48,-6.55,16.25,-27.06,25.69,10.69,39.88,-0.69,-0.3710588223576011,0.7063370125237085,0.3063129862362413,-130.29697555501406,21.672178876755066,43.024482231439535,-0.0823,-0.9074,0.188,0.3667
373,657858.0,451.17168200000003,1.0,-5.99,3.48,-6.55,16.25,-27.06,25.69,10.69,39.88,-0.69,-0.3710588223576011,0.7063370125237085,0.3063129862362413,-130.29697555501406,21.672178876755066,43.024482231439535,-0.0823,-0.9074,0.188,0.3667
374,657893.0,451.217555,1.0,-5.99,2.58,-7.26,16.25,-27.06,25.69,14.56,25.75,-4.19,0.15696292502689368,-0.1066854230190004,0.049187170930025566,-131.48269259246572,21.637178319468852,41.78307317970489,-0.0796,-0.9117,0.1877,0.3566
375,657893.0,451.217555,1.0,-5.99,2.58,-7.26,16.25,-27.06,25.69,14.56,25.75,-4.19,0.15696292502689368,-0.1066854230190004,0.049187170930025566,-131.48269259246572,21.637178319468852,41.78307317970489,-0.0796,-0.9117,0.1877,0.3566
376,657930.0,451.23529,1.0,-5.86,3.37,-7.24,15.19,-27.06,24.87,-2.63,44.19,-2.5,-0.15344059601553456,0.6184340874916268,-0.07809052582680742,-132.41145409892673,21.473869337236096,40.766741444761,-0.0816,-0.915,0.1863,0.3483
377,657930.0,451.23529,1.0,-5.86,3.37,-7.24,15.19,-27.06,24.87,-2.63,44.19,-2.5,-0.15344059601553456,0.6184340874916268,-0.07809052582680742,-132.41145409892673,21.473869337236096,40.766741444761,-0.0816,-0.915,0.1863,0.3483
378,657967.0,451.278821,1.0,-5.58,3.02,-8.04,15.5,-26.37,26.56,5.75,41.81,-3.81,0.3986801551457784,0.33390545036461194,-0.4221310263056139,-133.91067619883825,21.25230621784773,39.14507588885785,-0.083,-0.9202,0.1844,0.335
379,657967.0,451.278821,1.0,-5.58,3.02,-8.04,15.5,-26.37,26.56,5.75,41.81,-3.81,0.3986801551457784,0.33390545036461194,-0.4221310263056139,-133.91067619883825,21.25230621784773,39.14507588885785,-0.083,-0.9202,0.1844,0.335
380,657999.0,451.29675999999995,1.0,-5.72,3.6,-7.42,15.5,-26.37,26.56,-9.38,19.81,-5.13,-0.3470045596258792,0.7827558542579778,-0.19343405505792252,-134.47008902668762,21.019168663575197,38.57397055139104,-0.0856,-0.9221,0.1824,0.3303
381,657999.0,451.29675999999995,1.0,-5.72,3.6,-7.42,15.5,-26.37,26.56,-9.38,19.81,-5.13,-0.3470045596258792,0.7827558542579778,-0.19343405505792252,-134.47008902668762,21.019168663575197,38.57397055139104,-0.0856,-0.9221,0.1824,0.3303
382,658034.0,451.340528,1.0,-5.68,3.08,-7.46,14.69,-26.75,27.0,4.13,28.31,-10.69,-0.3076044132897401,0.3169984023632195,-0.052624392054612563,-135.54829362030736,20.588095276846204,37.59204770944774,-0.0859,-0.9257,0.1787,0.3222
383,658034.0,451.340528,1.0,-5.68,3.08,-7.46,14.69,-26.75,27.0,4.13,28.31,-10.69,-0.3076044132897401,0.3169984023632195,-0.052624392054612563,-135.54829362030736,20.588095276846204,37.59204770944774,-0.0859,-0.9257,0.1787,0.3222
384,658069.0,451.43449100000004,1.0,-5.26,3.07,-7.75,13.56,-27.06,27.75,-6.13,31.5,-6.75,0.04825360782967508,0.4123272273758114,-0.04132734800888116,-136.40437355406192,20.27371434520358,36.70955398535576,-0.0881,-0.9285,0.17600000000000002,0.3149
385,658069.0,451.43449100000004,1.0,-5.26,3.07,-7.75,13.56,-27.06,27.75,-6.13,31.5,-6.75,0.04825360782967508,0.4123272273758114,-0.04132734800888116,-136.40437355406192,20.27371434520358,36.70955398535576,-0.0881,-0.9285,0.17600000000000002,0.3149
386,658106.0,451.43960599999997,1.0,-5.52,2.69,-7.73,13.56,-27.06,27.75,-2.81,14.94,-7.38,-0.16221631359696512,-0.057865709974360025,-0.06400030417004565,-137.11973135242658,19.912948378447748,36.02205079852741,-0.0895,-0.9308,0.1729,0.3092
387,658106.0,451.43960599999997,1.0,-5.52,2.69,-7.73,13.56,-27.06,27.75,-2.81,14.94,-7.38,-0.16221631359696512,-0.057865709974360025,-0.06400030417004565,-137.11973135242658,19.912948378447748,36.02205079852741,-0.0895,-0.9308,0.1729,0.3092
388,658139.0,451.449781,1.0,-5.73,3.6,-7.89,12.75,-26.37,27.0,-19.12,19.25,-8.81,-0.5148819317844274,0.6341092166540205,-0.5556760949304405,-137.5924585129037,19.517498563105914,35.60056506187857,-0.0935,-0.9323,0.1695,0.3057
389,658139.0,451.449781,1.0,-5.73,3.6,-7.89,12.75,-26.37,27.0,-19.12,19.25,-8.81,-0.5148819317844274,0.6341092166540205,-0.5556760949304405,-137.5924585129037,19.517498563105914,35.60056506187857,-0.0935,-0.9323,0.1695,0.3057
390,658176.0,451.494971,1.0,-5.49,3.15,-8.04,12.75,-26.75,27.37,2.69,21.75,-11.75,-0.23637990142382775,0.29221628670441624,-0.418951898371926,-138.42399053309921,18.93637938388069,34.903193986048876,-0.0947,-0.9349,0.1645,0.2999
391,658176.0,451.494971,1.0,-5.49,3.15,-8.04,12.75,-26.75,27.37,2.69,21.75,-11.75,-0.23637990142382775,0.29221628670441624,-0.418951898371926,-138.42399053309921,18.93637938388069,34.903193986048876,-0.0947,-0.9349,0.1645,0.2999
392,658210.0,451.51244299999996,1.0,-5.32,2.71,-8.09,12.06,-27.06,27.75,-13.38,14.5,-4.13,-0.025266451138096863,-0.09212959974806267,-0.2474771994786877,-138.84577222800962,18.669230437467,34.50701040671306,-0.0968,-0.9362,0.1622,0.2966
393,658210.0,451.51244299999996,1.0,-5.32,2.71,-8.09,12.06,-27.06,27.75,-13.38,14.5,-4.13,-0.025266451138096863,-0.09212959974806267,-0.2474771994786877,-138.84577222800962,18.669230437467,34.50701040671306,-0.0968,-0.9362,0.1622,0.2966
394,658245.0,451.556989,1.0,-5.11,3.69,-8.67,12.06,-27.06,27.75,-14.81,11.5,-4.88,0.2070931210054686,0.7530647195807387,-0.883864766247461,-139.1073977684417,18.286108128329392,34.17118813606689,-0.1019,-0.937,0.1589,0.2938
395,658245.0,451.556989,1.0,-5.11,3.69,-8.67,12.06,-27.06,27.75,-14.81,11.5,-4.88,0.2070931210054686,0.7530647195807387,-0.883864766247461,-139.1073977684417,18.286108128329392,34.17118813606689,-0.1019,-0.937,0.1589,0.2938
396,658280.0,451.57366900000005,1.0,-5.09,3.03,-7.96,11.69,-27.5,28.56,-8.63,12.38,-9.81,-0.06344436517512822,0.21552408132717812,-0.1130336735299,-139.40365501423122,18.019205613951,33.96744372977673,-0.1025,-0.9379,0.1566,0.2921
397,658280.0,451.57366900000005,1.0,-5.09,3.03,-7.96,11.69,-27.5,28.56,-8.63,12.38,-9.81,-0.06344436517512822,0.21552408132717812,-0.1130336735299,-139.40365501423122,18.019205613951,33.96744372977673,-0.1025,-0.9379,0.1566,0.2921
398,658317.0,451.617253,1.0,-4.92,2.88,-7.76,12.06,-28.25,27.0,-4.44,13.88,-12.94,-0.06153203591019374,0.14822710573659734,0.1789481696730082,-139.9355135446495,17.427727524479447,33.58422417640036,-0.1042,-0.9395,0.1515,0.2889
399,658317.0,451.617253,1.0,-4.92,2.88,-7.76,12.06,-28.25,27.0,-4.44,13.88,-12.94,-0.06153203591019374,0.14822710573659734,0.1789481696730082,-139.9355135446495,17.427727524479447,33.58422417640036,-0.1042,-0.9395,0.1515,0.2889
400,658352.0,451.677112,1.0,-4.66,2.58,-8.01,12.06,-28.25,27.0,-6.69,18.44,-11.5,0.2935198904379328,-0.08320783878552884,0.19212855951832,-140.44035437538835,16.987323268750952,33.16551997219127,-0.1056,-0.941,0.1477,0.2854
401,658352.0,451.677112,1.0,-4.66,2.58,-8.01,12.06,-28.25,27.0,-6.69,18.44,-11.5,0.2935198904379328,-0.08320783878552884,0.19212855951832,-140.44035437538835,16.987323268750952,33.16551997219127,-0.1056,-0.941,0.1477,0.2854
402,658386.0,451.740306,1.0,-4.8,2.5,-7.78,12.75,-27.87,28.56,-11.63,18.19,-10.88,-0.01196035942571988,-0.21873963817207032,0.3319252060814595,-141.08884000838947,16.396650200988272,32.580097056893266,-0.1088,-0.9429,0.1426,0.2805
403,658386.0,451.740306,1.0,-4.8,2.5,-7.78,12.75,-27.87,28.56,-11.63,18.19,-10.88,-0.01196035942571988,-0.21873963817207032,0.3319252060814595,-141.08884000838947,16.396650200988272,32.580097056893266,-0.1088,-0.9429,0.1426,0.2805
404,658421.0,451.74636399999997,1.0,-5.01,2.46,-7.9,12.75,-27.5,28.19,-11.5,15.56,-6.81,-0.15805493298193848,-0.3781953325794381,0.14260907869926245,-141.5038163967487,16.003112701402525,32.19825231317595,-0.1116,-0.9441,0.1392,0.2773
405,658421.0,451.74636399999997,1.0,-5.01,2.46,-7.9,12.75,-27.5,28.19,-11.5,15.56,-6.81,-0.15805493298193848,-0.3781953325794381,0.14260907869926245,-141.5038163967487,16.003112701402525,32.19825231317595,-0.1116,-0.9441,0.1392,0.2773
406,658456.0,451.764184,1.0,-4.88,3.12,-7.89,12.75,-27.5,28.19,-15.81,22.0,-6.44,-0.2741305749447942,0.20344943535570348,0.02481168835663361,-142.0286696964437,15.551935573755918,31.554718508036178,-0.1166,-0.9456,0.1353,0.2719
407,658456.0,451.764184,1.0,-4.88,3.12,-7.89,12.75,-27.5,28.19,-15.81,22.0,-6.44,-0.2741305749447942,0.20344943535570348,0.02481168835663361,-142.0286696964437,15.551935573755918,31.554718508036178,-0.1166,-0.9456,0.1353,0.2719
408,658489.0,451.808646,1.0,-4.56,2.87,-8.78,11.69,-28.25,28.19,-3.75,18.81,-7.94,0.4427834116948621,-0.09207890850435364,-0.4848204646584158,-142.5249164652642,15.216602467156429,31.054898349248795,-0.1185,-0.9470000000000001,0.1324,0.2677
409,658489.0,451.808646,1.0,-4.56,2.87,-8.78,11.69,-28.25,28.19,-3.75,18.81,-7.94,0.4427834116948621,-0.09207890850435364,-0.4848204646584158,-142.5249164652642,15.216602467156429,31.054898349248795,-0.1185,-0.9470000000000001,0.1324,0.2677
410,658526.0,451.82901699999996,1.0,-4.7,2.87,-8.37,11.25,-28.25,28.19,-11.13,13.38,-7.13,0.04327274366474226,-0.12205060524221367,-0.21168474782190214,-142.91931394004666,14.869843995469049,30.603201736078947,-0.1215,-0.9481,0.1294,0.2639
411,658526.0,451.82901699999996,1.0,-4.7,2.87,-8.37,11.25,-28.25,28.19,-11.13,13.38,-7.13,0.04327274366474226,-0.12205060524221367,-0.21168474782190214,-142.91931394004666,14.869843995469049,30.603201736078947,-0.1215,-0.9481,0.1294,0.2639
412,658561.0,451.874994,1.0,-4.53,3.36,-8.55,11.25,-28.25,27.37,-16.44,14.44,-1.88,0.15103513346881267,0.28125175790547874,-0.4310785487129945,-143.09992952909138,14.61564163128423,30.258813745298948,-0.1258,-0.9486,0.1272,0.261
413,658561.0,451.874994,1.0,-4.53,3.36,-8.55,11.25,-28.25,27.37,-16.44,14.44,-1.88,0.15103513346881267,0.28125175790547874,-0.4310785487129945,-143.09992952909138,14.61564163128423,30.258813745298948,-0.1258,-0.9486,0.1272,0.261
414,658595.0,451.891438,1.0,-4.38,3.08,-8.77,11.25,-28.25,27.37,-3.31,10.19,-4.31,0.3849804300029048,-0.008000800924899298,-0.4615254005129543,-143.42720670361226,14.349961892702815,29.879123753551497,-0.1278,-0.9495,0.1249,0.2578
415,658595.0,451.891438,1.0,-4.38,3.08,-8.77,11.25,-28.25,27.37,-3.31,10.19,-4.31,0.3849804300029048,-0.008000800924899298,-0.4615254005129543,-143.42720670361226,14.349961892702815,29.879123753551497,-0.1278,-0.9495,0.1249,0.2578
416,658630.0,451.943742,1.0,-4.31,3.28,-8.77,11.0,-29.0,27.37,-6.13,7.94,-7.81,0.3753394806403532,0.16706071367104516,-0.4927971207060597,-143.64697188895283,14.084359674365961,29.618281737295238,-0.1298,-0.9501,0.1226,0.2556
417,658630.0,451.943742,1.0,-4.31,3.28,-8.77,11.0,-29.0,27.37,-6.13,7.94,-7.81,0.3753394806403532,0.16706071367104516,-0.4927971207060597,-143.64697188895283,14.084359674365961,29.618281737295238,-0.1298,-0.9501,0.1226,0.2556
418,658667.0,451.98594199999997,1.0,-4.34,2.57,-8.56,10.56,-28.56,28.19,-2.63,8.56,-7.75,0.3171454234682134,-0.4639147779012149,-0.11294181918379388,-143.97904817901198,13.841919736512358,29.357596603435567,-0.1299,-0.951,0.1205,0.2534
419,658667.0,451.98594199999997,1.0,-4.34,2.57,-8.56,10.56,-28.56,28.19,-2.63,8.56,-7.75,0.3171454234682134,-0.4639147779012149,-0.11294181918379388,-143.97904817901198,13.841919736512358,29.357596603435567,-0.1299,-0.951,0.1205,0.2534
420,658702.0,452.050042,1.0,-4.23,3.41,-8.27,10.56,-28.56,28.19,-5.75,2.38,-6.38,0.12055364999263538,0.39028785509287894,-0.08006038352193556,-144.05324557319378,13.599542044193303,29.274683969227155,-0.1314,-0.9512,0.1184,0.2527
421,658702.0,452.050042,1.0,-4.23,3.41,-8.27,10.56,-28.56,28.19,-5.75,2.38,-6.38,0.12055364999263538,0.39028785509287894,-0.08006038352193556,-144.05324557319378,13.599542044193303,29.274683969227155,-0.1314,-0.9512,0.1184,0.2527
422,658735.0,452.067491,1.0,-4.29,3.14,-8.37,11.0,-29.0,27.37,-3.44,5.88,-7.19,0.14723376627000415,0.10733311761660236,-0.10735029352090564,-144.27673180622273,13.264930228136947,29.132584441928433,-0.1317,-0.9518,0.1155,0.2515
423,658735.0,452.067491,1.0,-4.29,3.14,-8.37,11.0,-29.0,27.37,-3.44,5.88,-7.19,0.14723376627000415,0.10733311761660236,-0.10735029352090564,-144.27673180622273,13.264930228136947,29.132584441928433,-0.1317,-0.9518,0.1155,0.2515
424,658771.0,452.070532,1.0,-3.99,2.77,-8.73,10.56,-28.25,28.56,0.69,6.0,-2.13,0.6100707685790421,-0.2110048736602539,-0.16276275104090845,-144.46400874868328,13.288003224878931,28.966859495010613,-0.1309,-0.9523,0.1157,0.2501
425,658771.0,452.070532,1.0,-3.99,2.77,-8.73,10.56,-28.25,28.56,0.69,6.0,-2.13,0.6100707685790421,-0.2110048736602539,-0.16276275104090845,-144.46400874868328,13.288003224878931,28.966859495010613,-0.1309,-0.9523,0.1157,0.2501
426,658806.0,452.109095,1.0,-4.11,2.97,-7.97,11.25,-29.0,27.0,-8.63,3.19,-4.69,0.0953961337212397,0.054704780743495496,0.3609204376721209,-144.46400874868328,13.057297449093687,28.91952089539617,-0.1332,-0.9523,0.1137,0.2497
427,658806.0,452.109095,1.0,-4.11,2.97,-7.97,11.25,-29.0,27.0,-8.63,3.19,-4.69,0.0953961337212397,0.054704780743495496,0.3609204376721209,-144.46400874868328,13.057297449093687,28.91952089539617,-0.1332,-0.9523,0.1137,0.2497
428,658841.0,452.16846100000004,1.0,-3.86,2.95,-8.16,11.25,-29.0,27.0,1.31,4.38,-1.37,0.39803286003772104,0.04944310232328242,0.3184033114930589,-144.53918747848587,12.965030073382625,28.836690473319894,-0.1344,-0.9525,0.1129,0.249
429,658841.0,452.16846100000004,1.0,-3.86,2.95,-8.16,11.25,-29.0,27.0,1.31,4.38,-1.37,0.39803286003772104,0.04944310232328242,0.3184033114930589,-144.53918747848587,12.965030073382625,28.836690473319894,-0.1344,-0.9525,0.1129,0.249
430,658878.0,452.18791799999997,1.0,-4.38,3.03,-7.57,11.0,-29.37,27.75,-10.69,7.75,-5.19,-0.3645083811608527,0.0740553322480042,0.5583069350056498,-144.57683474921032,12.792051445699697,28.71838798339577,-0.136,-0.9526,0.1114,0.248
431,658878.0,452.18791799999997,1.0,-4.38,3.03,-7.57,11.0,-29.37,27.75,-10.69,7.75,-5.19,-0.3645083811608527,0.0740553322480042,0.5583069350056498,-144.57683474921032,12.792051445699697,28.71838798339577,-0.136,-0.9526,0.1114,0.248
432,658913.0,452.23072,1.0,-4.4,3.14,-7.69,10.19,-29.37,27.0,-3.5,13.19,-4.75,-0.3695117388874665,0.11366529578567496,0.4148322166654914,-144.7656551188059,12.607573156584115,28.45823232032684,-0.1382,-0.9531,0.1098,0.2458
433,658913.0,452.23072,1.0,-4.4,3.14,-7.69,10.19,-29.37,27.0,-3.5,13.19,-4.75,-0.3695117388874665,0.11366529578567496,0.4148322166654914,-144.7656551188059,12.607573156584115,28.45823232032684,-0.1382,-0.9531,0.1098,0.2458
434,658948.0,452.246754,1.0,-4.37,2.97,-7.99,10.19,-29.37,27.0,-2.06,21.31,-4.94,-0.2756916864083773,-0.1022557526117287,0.2321297584890392,-145.41510886588998,12.330917071488784,27.784885032921768,-0.1386,-0.9548,0.1074,0.2401
435,658948.0,452.246754,1.0,-4.37,2.97,-7.99,10.19,-29.37,27.0,-2.06,21.31,-4.94,-0.2756916864083773,-0.1022557526117287,0.2321297584890392,-145.41510886588998,12.330917071488784,27.784885032921768,-0.1386,-0.9548,0.1074,0.2401
436,658982.0,452.336505,1.0,-4.3,3.38,-8.57,11.69,-29.37,27.0,-8.13,13.75,-2.0,-0.052340512101740316,0.13398811755713602,-0.3589098790792811,-145.7248595525418,12.088902226339815,27.348324709600163,-0.1411,-0.9556,0.1053,0.2364
437,658982.0,452.336505,1.0,-4.3,3.38,-8.57,11.69,-29.37,27.0,-8.13,13.75,-2.0,-0.052340512101740316,0.13398811755713602,-0.3589098790792811,-145.7248595525418,12.088902226339815,27.348324709600163,-0.1411,-0.9556,0.1053,0.2364
438,659019.0,452.34650800000003,1.0,-4.23,3.45,-8.27,9.75,-29.37,27.37,-1.69,18.62,-6.69,-0.2221041976769935,0.2572960861491558,-0.09651961631106154,-146.1159090950019,11.835420883076136,26.829697512461113,-0.1428,-0.9566,0.1031,0.23199999999999998
439,659019.0,452.34650800000003,1.0,-4.23,3.45,-8.27,9.75,-29.37,27.37,-1.69,18.62,-6.69,-0.2221041976769935,0.2572960861491558,-0.09651961631106154,-146.1159090950019,11.835420883076136,26.829697512461113,-0.1428,-0.9566,0.1031,0.23199999999999998
440,659052.0,452.385951,1.0,-4.28,3.52,-8.22,9.75,-29.37,27.37,-9.63,19.37,-4.56,-0.3648097720847906,0.29133202306717765,-0.09583653028758476,-146.47163743677675,11.593515641253694,26.370473139201327,-0.1447,-0.9575,0.10099999999999999,0.2281
441,659052.0,452.385951,1.0,-4.28,3.52,-8.22,9.75,-29.37,27.37,-9.63,19.37,-4.56,-0.3648097720847906,0.29133202306717765,-0.09583653028758476,-146.47163743677675,11.593515641253694,26.370473139201327,-0.1447,-0.9575,0.10099999999999999,0.2281
442,659087.0,452.394138,1.0,-3.67,4.01,-9.28,10.19,-30.06,27.75,0.75,14.94,-14.06,0.4994437485111484,0.6378021866089703,-0.9176758209003512,-147.113267463602,11.063807546045703,25.688318141008548,-0.1464,-0.9591,0.0964,0.2223
443,659087.0,452.394138,1.0,-3.67,4.01,-9.28,10.19,-30.06,27.75,0.75,14.94,-14.06,0.4994437485111484,0.6378021866089703,-0.9176758209003512,-147.113267463602,11.063807546045703,25.688318141008548,-0.1464,-0.9591,0.0964,0.2223
444,659122.0,452.452231,1.0,-3.9,3.06,-8.57,10.19,-29.75,28.19,0.63,10.0,-10.75,0.04413383599366684,-0.10907916664216533,-0.09307999328391324,-147.52054122823532,10.68394626499923,25.40631916668005,-0.1453,-0.9601,0.0931,0.2199
445,659122.0,452.452231,1.0,-3.9,3.06,-8.57,10.19,-29.75,28.19,0.63,10.0,-10.75,0.04413383599366684,-0.10907916664216533,-0.09307999328391324,-147.52054122823532,10.68394626499923,25.40631916668005,-0.1453,-0.9601,0.0931,0.2199
446,659159.0,452.459855,1.0,-3.98,3.39,-8.34,9.5,-30.5,27.37,-12.06,15.81,-11.19,-0.22347313503139796,0.2265354112266642,-0.03138036513811393,-147.93284627196644,10.200656128703407,24.983613243143306,-0.1467,-0.9611,0.0889,0.2163
447,659159.0,452.459855,1.0,-3.98,3.39,-8.34,9.5,-30.5,27.37,-12.06,15.81,-11.19,-0.22347313503139796,0.2265354112266642,-0.03138036513811393,-147.93284627196644,10.200656128703407,24.983613243143306,-0.1467,-0.9611,0.0889,0.2163
448,659193.0,452.519404,1.0,-3.58,3.37,-9.32,9.5,-30.5,27.37,3.13,24.94,-18.0,0.4546925276553976,0.08185285212042692,-0.7205649600876924,-148.7733502639536,9.441564242690683,24.25642512530879,-0.1466,-0.9631,0.0823,0.2101
449,659193.0,452.519404,1.0,-3.58,3.37,-9.32,9.5,-30.5,27.37,3.13,24.94,-18.0,0.4546925276553976,0.08185285212042692,-0.7205649600876924,-148.7733502639536,9.441564242690683,24.25642512530879,-0.1466,-0.9631,0.0823,0.2101
450,659230.0,452.53793099999996,1.0,-3.65,2.67,-8.69,9.75,-29.0,26.19,1.56,18.12,-15.63,0.1293368674886373,-0.3875467947615856,0.018872956330776347,-149.33171261025748,8.95872400294449,23.881491803544503,-0.1447,-0.9644,0.0781,0.2069
451,659230.0,452.53793099999996,1.0,-3.65,2.67,-8.69,9.75,-29.0,26.19,1.56,18.12,-15.63,0.1293368674886373,-0.3875467947615856,0.018872956330776347,-149.33171261025748,8.95872400294449,23.881491803544503,-0.1447,-0.9644,0.0781,0.2069
452,659265.0,452.58639900000003,1.0,-3.54,3.6,-8.65,10.56,-29.37,28.19,-6.88,16.94,-13.69,0.06679226873763879,0.5062295115441608,-0.19601816776796888,-149.7680673850508,8.453062112264227,23.41318918903326,-0.1464,-0.9654,0.0737,0.2029
453,659265.0,452.58639900000003,1.0,-3.54,3.6,-8.65,10.56,-29.37,28.19,-6.88,16.94,-13.69,0.06679226873763879,0.5062295115441608,-0.19601816776796888,-149.7680673850508,8.453062112264227,23.41318918903326,-0.1464,-0.9654,0.0737,0.2029
454,659300.0,452.64572000000004,1.0,-3.27,3.53,-8.76,10.56,-29.37,28.19,-5.13,18.62,-8.69,0.2791082824432922,0.4778981723584858,-0.17258403390901478,-150.38950981826167,7.878645873813733,22.816676842803346,-0.1465,-0.9668,0.0687,0.1978
455,659300.0,452.64572000000004,1.0,-3.27,3.53,-8.76,10.56,-29.37,28.19,-5.13,18.62,-8.69,0.2791082824432922,0.4778981723584858,-0.17258403390901478,-150.38950981826167,7.878645873813733,22.816676842803346,-0.1465,-0.9668,0.0687,0.1978
456,659335.0,452.662406,1.0,-3.25,3.76,-8.56,10.19,-30.06,27.37,-8.56,10.63,-12.75,0.1493513378862979,0.7398578392026403,-0.06269671372132812,-150.79583135983617,7.281463046960031,22.372624603038307,-0.1479,-0.9677,0.0635,0.19399999999999998
457,659335.0,452.662406,1.0,-3.25,3.76,-8.56,10.19,-30.06,27.37,-8.56,10.63,-12.75,0.1493513378862979,0.7398578392026403,-0.06269671372132812,-150.79583135983617,7.281463046960031,22.372624603038307,-0.1479,-0.9677,0.0635,0.19399999999999998
458,659372.0,452.66534299999995,1.0,-3.16,2.4,-8.58,10.56,-30.5,27.75,5.19,14.75,-14.44,0.2842392181029324,-0.5031192753027177,0.3711807980095081,-151.2538864729402,6.7533514707706495,22.068995754971112,-0.1467,-0.9687,0.0589,0.1914
459,659372.0,452.66534299999995,1.0,-3.16,2.4,-8.58,10.56,-30.5,27.75,5.19,14.75,-14.44,0.2842392181029324,-0.5031192753027177,0.3711807980095081,-151.2538864729402,6.7533514707706495,22.068995754971112,-0.1467,-0.9687,0.0589,0.1914
460,659406.0,452.706224,1.0,-3.49,3.08,-8.34,10.56,-30.5,27.75,-7.38,15.94,-9.5,-0.228755686648368,0.1448714274866596,0.2594628171003137,-151.7661453802759,6.030298919379606,21.473869337236096,-0.1482,-0.9698,0.0526,0.1863
461,659406.0,452.706224,1.0,-3.49,3.08,-8.34,10.56,-30.5,27.75,-7.38,15.94,-9.5,-0.228755686648368,0.1448714274866596,0.2594628171003137,-151.7661453802759,6.030298919379606,21.473869337236096,-0.1482,-0.9698,0.0526,0.1863
462,659441.0,452.76826600000004,1.0,-3.13,2.79,-9.34,10.56,-30.06,26.19,0.88,24.37,-8.69,0.3904049885030011,-0.3323489730732523,-0.4185017399522799,-152.3835367338065,5.628708719478254,20.84437327920369,-0.1481,-0.9711,0.0491,0.1809
463,659441.0,452.76826600000004,1.0,-3.13,2.79,-9.34,10.56,-30.06,26.19,0.88,24.37,-8.69,0.3904049885030011,-0.3323489730732523,-0.4185017399522799,-152.3835367338065,5.628708719478254,20.84437327920369,-0.1481,-0.9711,0.0491,0.1809
464,659476.0,452.772378,1.0,-3.13,3.17,-9.18,9.5,-30.06,27.0,-3.75,16.62,-7.25,0.21699339573333956,0.06434907316955307,-0.39467212328335133,-152.8678214061549,5.238658808769412,20.21551264575777,-0.1489,-0.9721,0.0457,0.1755
465,659476.0,452.772378,1.0,-3.13,3.17,-9.18,9.5,-30.06,27.0,-3.75,16.62,-7.25,0.21699339573333956,0.06434907316955307,-0.39467212328335133,-152.8678214061549,5.238658808769412,20.21551264575777,-0.1489,-0.9721,0.0457,0.1755
466,659511.0,452.792059,1.0,-3.3,2.66,-9.26,10.19,-30.06,26.56,-1.63,15.81,-9.0,0.0442121387941465,-0.4614265501842201,-0.36676293890935696,-153.21193002249612,4.75691579950709,19.81987998842397,-0.1493,-0.9728,0.0415,0.1721
467,659511.0,452.792059,1.0,-3.3,2.66,-9.26,10.19,-30.06,26.56,-1.63,15.81,-9.0,0.0442121387941465,-0.4614265501842201,-0.36676293890935696,-153.21193002249612,4.75691579950709,19.81987998842397,-0.1493,-0.9728,0.0415,0.1721
468,659546.0,452.842999,1.0,-3.15,3.55,-8.97,10.19,-30.06,26.56,-7.13,12.5,-3.06,-0.01701810021799212,0.4566834263907271,-0.3312516878407852,-153.5103719816942,4.481672390551605,19.319861939553064,-0.1511,-0.9734,0.0391,0.1678
469,659546.0,452.842999,1.0,-3.15,3.55,-8.97,10.19,-30.06,26.56,-7.13,12.5,-3.06,-0.01701810021799212,0.4566834263907271,-0.3312516878407852,-153.5103719816942,4.481672390551605,19.319861939553064,-0.1511,-0.9734,0.0391,0.1678
470,659582.0,452.926461,1.0,-2.99,2.7,-9.33,8.25,-30.06,27.37,8.56,8.19,-7.81,0.2367256554694364,-0.4037012553216357,-0.3451964458685719,-153.81215335885898,4.355527902560735,19.08742247639564,-0.1498,-0.9740000000000001,0.038,0.1658
471,659582.0,452.926461,1.0,-2.99,2.7,-9.33,8.25,-30.06,27.37,8.56,8.19,-7.81,0.2367256554694364,-0.4037012553216357,-0.3451964458685719,-153.81215335885898,4.355527902560735,19.08742247639564,-0.1498,-0.9740000000000001,0.038,0.1658
472,659617.0,452.93608200000006,1.0,-3.19,2.83,-8.95,9.06,-30.87,27.0,-8.25,9.5,-5.06,-0.1299704543199267,-0.21342788444251348,-0.10420547362820898,-154.01525359440276,4.057388916858228,18.76214012304259,-0.151,-0.9744,0.0354,0.163
473,659617.0,452.93608200000006,1.0,-3.19,2.83,-8.95,9.06,-30.87,27.0,-8.25,9.5,-5.06,-0.1299704543199267,-0.21342788444251348,-0.10420547362820898,-154.01525359440276,4.057388916858228,18.76214012304259,-0.151,-0.9744,0.0354,0.163
474,659652.0,452.97875700000003,1.0,-2.92,3.99,-8.81,9.06,-30.87,27.0,-7.56,5.69,0.19,0.019472346542687813,0.9158439565354712,-0.2543365656901475,-154.01525359440276,3.977125506843028,18.506668239532367,-0.1534,-0.9744,0.0347,0.1608
475,659652.0,452.97875700000003,1.0,-2.92,3.99,-8.81,9.06,-30.87,27.0,-7.56,5.69,0.19,0.019472346542687813,0.9158439565354712,-0.2543365656901475,-154.01525359440276,3.977125506843028,18.506668239532367,-0.1534,-0.9744,0.0347,0.1608
476,659685.0,452.985476,1.0,-2.96,3.84,-8.64,8.25,-30.06,28.69,-4.25,6.19,-7.25,-0.09136447736138056,0.8067808189497023,-0.06743513445429627,-154.0662728728033,3.793673550039814,18.332536130219392,-0.1542,-0.9745,0.0331,0.1593
477,659685.0,452.985476,1.0,-2.96,3.84,-8.64,8.25,-30.06,28.69,-4.25,6.19,-7.25,-0.09136447736138056,0.8067808189497023,-0.06743513445429627,-154.0662728728033,3.793673550039814,18.332536130219392,-0.1542,-0.9745,0.0331,0.1593
478,659722.0,453.002102,1.0,-2.69,3.63,-8.65,9.06,-30.5,27.5,3.75,8.31,-7.94,0.1420571232163118,0.6620035577504932,0.07129838522669374,-154.37448496866145,3.4841201823987773,18.100426311736804,-0.1532,-0.9751,0.0304,0.1573
479,659722.0,453.002102,1.0,-2.69,3.63,-8.65,9.06,-30.5,27.5,3.75,8.31,-7.94,0.1420571232163118,0.6620035577504932,0.07129838522669374,-154.37448496866145,3.4841201823987773,18.100426311736804,-0.1532,-0.9751,0.0304,0.1573
480,659757.0,453.05744000000004,1.0,-2.98,2.29,-9.16,9.06,-30.5,27.5,13.5,8.81,-9.75,-0.006925595544047231,-0.700302782654714,-0.0695652694608917,-155.0021140741398,3.1860558160551733,17.81039419409229,-0.149,-0.9763,0.0278,0.1548
481,659757.0,453.05744000000004,1.0,-2.98,2.29,-9.16,9.06,-30.5,27.5,13.5,8.81,-9.75,-0.006925595544047231,-0.700302782654714,-0.0695652694608917,-155.0021140741398,3.1860558160551733,17.81039419409229,-0.149,-0.9763,0.0278,0.1548
482,659789.0,453.097493,1.0,-3.18,2.38,-9.34,8.69,-30.06,28.25,-9.06,6.63,-2.88,-0.16670300842289512,-0.6950027808517516,-0.3176564573130669,-155.05511767406654,2.968253297538604,17.648026557290144,-0.1498,-0.9764,0.0259,0.1534
483,659789.0,453.097493,1.0,-3.18,2.38,-9.34,8.69,-30.06,28.25,-9.06,6.63,-2.88,-0.16670300842289512,-0.6950027808517516,-0.3176564573130669,-155.05511767406654,2.968253297538604,17.648026557290144,-0.1498,-0.9764,0.0259,0.1534
484,659824.0,453.15885599999996,1.0,-3.06,3.15,-9.28,8.69,-29.75,26.69,-12.56,8.63,0.75,-0.1230507152831131,-0.00831935195349609,-0.4592785653978435,-155.0021140741398,2.8536247508829486,17.33498950133432,-0.1537,-0.9763,0.0249,0.1507
485,659824.0,453.15885599999996,1.0,-3.06,3.15,-9.28,8.69,-29.75,26.69,-12.56,8.63,0.75,-0.1230507152831131,-0.00831935195349609,-0.4592785653978435,-155.0021140741398,2.8536247508829486,17.33498950133432,-0.1537,-0.9763,0.0249,0.1507
486,659861.0,453.17774000000003,1.0,-3.01,2.13,-9.8,9.5,-30.5,27.06,3.13,7.0,-2.88,0.034594239906263875,-1.1132969377894084,-0.6047078925553251,-155.214797761141,2.670224968889185,17.056843809922572,-0.1533,-0.9767,0.0233,0.1483
487,659861.0,453.17774000000003,1.0,-3.01,2.13,-9.8,9.5,-30.5,27.06,3.13,7.0,-2.88,0.034594239906263875,-1.1132969377894084,-0.6047078925553251,-155.214797761141,2.670224968889185,17.056843809922572,-0.1533,-0.9767,0.0233,0.1483
488,659896.0,453.18095800000003,1.0,-2.79,3.19,-9.84,9.5,-30.5,27.06,-11.31,1.63,6.06,0.2337788061819964,-0.15377656095931624,-0.9035087401438472,-155.05511767406654,2.738999060214957,16.929394296591493,-0.1559,-0.9764,0.0239,0.1472
489,659896.0,453.18095800000003,1.0,-2.79,3.19,-9.84,9.5,-30.5,27.06,-11.31,1.63,6.06,0.2337788061819964,-0.15377656095931624,-0.9035087401438472,-155.05511767406654,2.738999060214957,16.929394296591493,-0.1559,-0.9764,0.0239,0.1472
490,659931.0,453.21938099999994,1.0,-2.65,3.45,-9.8,9.5,-29.75,27.5,-1.44,-2.5,4.94,0.35726050471999915,0.08686865425260315,-0.9092176162350736,-154.9492208405226,2.7963115557322795,16.940979741891212,-0.1573,-0.9762,0.0244,0.1473
491,659931.0,453.21938099999994,1.0,-2.65,3.45,-9.8,9.5,-29.75,27.5,-1.44,-2.5,4.94,0.35726050471999915,0.08686865425260315,-0.9092176162350736,-154.9492208405226,2.7963115557322795,16.940979741891212,-0.1573,-0.9762,0.0244,0.1473
492,659968.0,453.28418099999993,1.0,-2.84,3.23,-9.09,8.69,-30.5,26.69,5.56,-6.0,1.94,-0.01061231936311433,0.09991801276561407,-0.2490202297461401,-154.9492208405226,2.9224015288032215,17.103194349757633,-0.1558,-0.9762,0.0255,0.1487
493,659968.0,453.28418099999993,1.0,-2.84,3.23,-9.09,8.69,-30.5,26.69,5.56,-6.0,1.94,-0.01061231936311433,0.09991801276561407,-0.2490202297461401,-154.9492208405226,2.9224015288032215,17.103194349757633,-0.1558,-0.9762,0.0255,0.1487
494,660000.0,453.302526,1.0,-2.79,3.08,-8.95,8.69,-30.5,26.69,0.56,-5.06,4.88,0.008852327486037793,0.011110353947938243,-0.06111561316355996,-154.89643727544527,3.014105541619682,17.195903895593172,-0.1553,-0.9761,0.0263,0.1495
495,660000.0,453.302526,1.0,-2.79,3.08,-8.95,8.69,-30.5,26.69,0.56,-5.06,4.88,0.008852327486037793,0.011110353947938243,-0.06111561316355996,-154.89643727544527,3.014105541619682,17.195903895593172,-0.1553,-0.9761,0.0263,0.1495
496,660035.0,453.344634,1.0,-2.7,3.04,-9.12,8.25,-30.5,26.25,3.81,-5.75,6.25,0.1679222755937687,-0.058558515458913225,-0.17705537474071598,-154.84376268843482,3.2892294003721183,17.36976491594495,-0.1545,-0.976,0.0287,0.151
497,660035.0,453.344634,1.0,-2.7,3.04,-9.12,8.25,-30.5,26.25,3.81,-5.75,6.25,0.1679222755937687,-0.058558515458913225,-0.17705537474071598,-154.84376268843482,3.2892294003721183,17.36976491594495,-0.1545,-0.976,0.0287,0.151
498,660072.0,453.406951,1.0,-2.96,3.16,-8.53,9.5,-30.5,27.06,-2.56,-6.38,3.88,-0.23095566594961564,0.18966089165652145,0.2453327148900755,-154.63414056108863,3.300693295071686,17.54366623938741,-0.1551,-0.9756,0.0288,0.1525
499,660072.0,453.406951,1.0,-2.96,3.16,-8.53,9.5,-30.5,27.06,-2.56,-6.38,3.88,-0.23095566594961564,0.18966089165652145,0.2453327148900755,-154.63414056108863,3.300693295071686,17.54366623938741,-0.1551,-0.9756,0.0288,0.1525
500,660105.0,453.425603,1.0,-2.71,3.18,-9.12,9.5,-30.5,27.06,-2.06,0.5,4.81,0.1888073450462785,0.041735344028924766,-0.2229815958022794,-154.52996593229264,3.438262641755622,17.566856150665245,-0.1559,-0.9754,0.03,0.1527
501,660105.0,453.425603,1.0,-2.71,3.18,-9.12,9.5,-30.5,27.06,-2.06,0.5,4.81,0.1888073450462785,0.041735344028924766,-0.2229815958022794,-154.52996593229264,3.438262641755622,17.566856150665245,-0.1559,-0.9754,0.03,0.1527
502,660140.0,453.469201,1.0,-2.93,3.23,-8.85,8.25,-30.87,27.87,3.5,-6.19,7.56,-0.08726545161794264,0.13922788647133674,-0.0581003940334277,-154.42620867150097,3.7363468303015943,17.717608294742977,-0.1558,-0.9752,0.0326,0.154
503,660140.0,453.469201,1.0,-2.93,3.23,-8.85,8.25,-30.87,27.87,3.5,-6.19,7.56,-0.08726545161794264,0.13922788647133674,-0.0581003940334277,-154.42620867150097,3.7363468303015943,17.717608294742977,-0.1558,-0.9752,0.0326,0.154
504,660174.0,453.477177,1.0,-3.07,3.08,-8.61,8.25,-30.87,27.5,0.12,-2.63,4.56,-0.2819778724349305,0.049646712262212615,0.16499953530161449,-154.3228637180319,3.919795697049856,17.81039419409229,-0.1556,-0.975,0.0342,0.1548
505,660174.0,453.477177,1.0,-3.07,3.08,-8.61,8.25,-30.87,27.5,0.12,-2.63,4.56,-0.2819778724349305,0.049646712262212615,0.16499953530161449,-154.3228637180319,3.919795697049856,17.81039419409229,-0.1556,-0.975,0.0342,0.1548
506,660209.0,453.53849800000006,1.0,-2.85,3.45,-9.1,8.69,-30.87,27.5,-4.5,3.0,5.25,0.058708570273245074,0.2394557732643237,-0.33111179619677245,-154.16860854190614,4.080321683767285,17.740803669389525,-0.1575,-0.9747,0.0356,0.1542
507,660209.0,453.53849800000006,1.0,-2.85,3.45,-9.1,8.69,-30.87,27.5,-4.5,3.0,5.25,0.058708570273245074,0.2394557732643237,-0.33111179619677245,-154.16860854190614,4.080321683767285,17.740803669389525,-0.1575,-0.9747,0.0356,0.1542
508,660242.0,453.55582400000003,1.0,-2.99,3.21,-8.98,8.69,-30.87,27.5,3.5,-5.25,2.63,-0.0994824088692398,0.034904267372328324,-0.18702224509813448,-154.16860854190614,4.229388694927676,17.81039419409229,-0.1571,-0.9747,0.0369,0.1548
509,660242.0,453.55582400000003,1.0,-2.99,3.21,-8.98,8.69,-30.87,27.5,3.5,-5.25,2.63,-0.0994824088692398,0.034904267372328324,-0.18702224509813448,-154.16860854190614,4.229388694927676,17.81039419409229,-0.1571,-0.9747,0.0369,0.1548
510,660279.0,453.59722300000004,1.0,-2.96,3.44,-9.03,8.0,-30.87,27.06,-1.06,-1.63,-0.19,-0.03983226399877415,0.2361020616595897,-0.29675384262773363,-154.01525359440276,4.2867240536107065,17.93799404290059,-0.1573,-0.9744,0.0374,0.1559
511,660279.0,453.59722300000004,1.0,-2.96,3.44,-9.03,8.0,-30.87,27.06,-1.06,-1.63,-0.19,-0.03983226399877415,0.2361020616595897,-0.29675384262773363,-154.01525359440276,4.2867240536107065,17.93799404290059,-0.1573,-0.9744,0.0374,0.1559
512,660314.0,453.606881,1.0,-2.89,3.33,-8.98,8.25,-30.06,27.5,0.06,-1.19,1.94,0.016530006450234044,0.1566181596192131,-0.19617947525170187,-154.01525359440276,4.309658496908005,17.961196420173227,-0.1572,-0.9744,0.0376,0.1561
513,660314.0,453.606881,1.0,-2.89,3.33,-8.98,8.25,-30.06,27.5,0.06,-1.19,1.94,0.016530006450234044,0.1566181596192131,-0.19617947525170187,-154.01525359440276,4.309658496908005,17.961196420173227,-0.1572,-0.9744,0.0376,0.1561
514,660348.0,453.66617,1.0,-2.94,3.59,-8.9,8.25,-30.06,27.5,-0.75,-4.44,2.5,-0.04785834008590348,0.4156488211124787,-0.2216422592429481,-153.91350924378722,4.412865642375664,18.06561632088332,-0.1573,-0.9742,0.0385,0.157
515,660348.0,453.66617,1.0,-2.94,3.59,-8.9,8.25,-30.06,27.5,-0.75,-4.44,2.5,-0.04785834008590348,0.4156488211124787,-0.2216422592429481,-153.91350924378722,4.412865642375664,18.06561632088332,-0.1573,-0.9742,0.0385,0.157
516,660383.0,453.72603,1.0,-2.98,3.3,-9.0,9.06,-30.87,27.06,-0.06,-0.75,1.37,-0.04217464791346788,0.11742622710493113,-0.2310206650627489,-153.91350924378722,4.447268815934101,18.100426311736804,-0.1567,-0.9742,0.0388,0.1573
