,TIME,ELAPSED_SECONDS,PSTATE,acc_x,acc_y,acc_z,mag_x,mag_y,mag_z,gyr_x,gyr_y,gyr_z,lin_x,lin_y,lin_z,eul_x,eul_y,eul_z,qua_w,qua_x,qua_y,qua_z
0,1740060.0,94.746658,1.0,7.76,3.12,5.2,-23.56,-1.5,-35.69,-2.94,0.69,0.88,-0.12793644375121693,-0.2204094729712109,-0.03850372813369951,-39.85124375899717,39.242385733379436,-43.32024532286975,-0.7968,-0.3408,0.3358,-0.3691
1,1740060.0,94.746658,1.0,7.76,3.12,5.2,-23.56,-1.5,-35.69,-2.94,0.69,0.88,-0.12793644375121693,-0.2204094729712109,-0.03850372813369951,-39.85124375899717,39.242385733379436,-43.32024532286975,-0.7968,-0.3408,0.3358,-0.3691
2,1740095.0,94.766494,1.0,7.82,3.0,5.52,-23.19,-1.5,-34.06,1.37,0.5,0.69,-0.08908509880381188,0.07283452448106509,-0.22378164461104968,-39.86343282424955,39.242385733379436,-43.307915821839245,-0.7968,-0.3409,0.3358,-0.369
3,1740095.0,94.766494,1.0,7.82,3.0,5.52,-23.19,-1.5,-34.06,1.37,0.5,0.69,-0.08908509880381188,0.07283452448106509,-0.22378164461104968,-39.86343282424955,39.242385733379436,-43.307915821839245,-0.7968,-0.3409,0.3358,-0.369
4,1740128.0,94.819434,1.0,7.94,3.1,5.32,-23.19,-1.5,-34.06,1.0,1.63,1.25,-0.052430293709352586,-0.18425267795514988,-0.23920994402509696,-39.86343282424955,39.19372713365675,-43.38190073527359,-0.7967,-0.3409,0.3354,-0.3696
5,1740128.0,94.819434,1.0,7.94,3.1,5.32,-23.19,-1.5,-34.06,1.0,1.63,1.25,-0.052430293709352586,-0.18425267795514988,-0.23920994402509696,-39.86343282424955,39.19372713365675,-43.38190073527359,-0.7967,-0.3409,0.3354,-0.3696
6,1740163.0,94.84009300000001,1.0,7.81,2.91,5.05,-24.0,-2.25,-35.69,-0.31,0.5,-2.25,0.12201500234272775,-0.25548915085785673,0.06567789075970687,-39.88781236546699,39.15723801119543,-43.35723698802017,-0.7968,-0.3411,0.3351,-0.3694
7,1740163.0,94.84009300000001,1.0,7.81,2.91,5.05,-24.0,-2.25,-35.69,-0.31,0.5,-2.25,0.12201500234272775,-0.25548915085785673,0.06567789075970687,-39.88781236546699,39.15723801119543,-43.35723698802017,-0.7968,-0.3411,0.3351,-0.3694
8,1740199.0,94.888248,1.0,7.71,2.97,5.16,-23.56,-1.88,-35.25,-0.31,0.5,-1.12,-0.004303712903503286,-0.15569889314457952,0.06671471619401181,-39.912193788917286,39.169400592648394,-43.29558684746807,-0.7969,-0.3413,0.3352,-0.3689
9,1740199.0,94.888248,1.0,7.71,2.97,5.16,-23.56,-1.88,-35.25,-0.31,0.5,-1.12,-0.004303712903503286,-0.15569889314457952,0.06671471619401181,-39.912193788917286,39.169400592648394,-43.29558684746807,-0.7969,-0.3413,0.3352,-0.3689
10,1740234.0,94.91194499999999,1.0,7.79,3.03,5.21,-23.56,-1.88,-35.25,-0.37,-1.19,-0.37,-0.028986499430036394,-0.16568359210677294,-0.04123346448907661,-39.948769456648414,39.20589109359036,-43.27093047786308,-0.7968,-0.3416,0.3355,-0.3687
11,1740234.0,94.91194499999999,1.0,7.79,3.03,5.21,-23.56,-1.88,-35.25,-0.37,-1.19,-0.37,-0.028986499430036394,-0.16568359210677294,-0.04123346448907661,-39.948769456648414,39.20589109359036,-43.27093047786308,-0.7968,-0.3416,0.3355,-0.3687
12,1740267.0,94.91723499999999,1.0,7.77,2.99,5.14,-23.56,-2.25,-35.25,1.5,-2.25,-1.69,0.017291270637572742,-0.17422888682523066,0.02391289288343046,-40.0463253316736,39.242385733379436,-43.19697398702748,-0.7966,-0.3424,0.3358,-0.3681
13,1740267.0,94.91723499999999,1.0,7.77,2.99,5.14,-23.56,-2.25,-35.25,1.5,-2.25,-1.69,0.017291270637572742,-0.17422888682523066,0.02391289288343046,-40.0463253316736,39.242385733379436,-43.19697398702748,-0.7966,-0.3424,0.3358,-0.3681
14,1740304.0,94.963953,1.0,7.53,2.87,5.41,-24.69,-1.88,-34.5,1.44,-2.75,-1.63,-0.07928416887440881,0.2024507967714544,0.10311313474037752,-40.143911482875026,39.266717795122325,-43.16000282883873,-0.7963,-0.3432,0.336,-0.3678
15,1740304.0,94.963953,1.0,7.53,2.87,5.41,-24.69,-1.88,-34.5,1.44,-2.75,-1.63,-0.07928416887440881,0.2024507967714544,0.10311313474037752,-40.143911482875026,39.266717795122325,-43.16000282883873,-0.7963,-0.3432,0.336,-0.3678
16,1740339.0,94.98259300000001,1.0,7.61,2.76,5.34,-24.69,-1.88,-34.5,2.5,-0.63,-0.63,0.0774170973581203,0.18259412033087008,0.1109826181094018,-40.21712102458852,39.242385733379436,-43.14768015800515,-0.7961,-0.3438,0.3358,-0.3677
17,1740339.0,94.98259300000001,1.0,7.61,2.76,5.34,-24.69,-1.88,-34.5,2.5,-0.63,-0.63,0.0774170973581203,0.18259412033087008,0.1109826181094018,-40.21712102458852,39.242385733379436,-43.14768015800515,-0.7961,-0.3438,0.3358,-0.3677
18,1740371.0,95.025542,1.0,7.5,2.81,5.36,-23.56,-2.25,-34.06,-3.0,-1.31,-0.56,-0.02930178188372245,0.2058748611489365,0.17168985752274502,-40.15611188549902,39.266717795122325,-43.135358011103925,-0.7963,-0.3433,0.336,-0.3676
19,1740371.0,95.025542,1.0,7.5,2.81,5.36,-23.56,-2.25,-34.06,-3.0,-1.31,-0.56,-0.02930178188372245,0.2058748611489365,0.17168985752274502,-40.15611188549902,39.266717795122325,-43.135358011103925,-0.7963,-0.3433,0.336,-0.3676
20,1740408.0,95.0915,1.0,7.55,2.79,5.38,-24.69,-1.5,-35.25,0.0,1.37,-0.12,0.007952608405733086,0.20277161944481012,0.1272997931747888,-40.09511461656773,39.242385733379436,-43.135358011103925,-0.7966,-0.3428,0.3358,-0.3676
21,1740408.0,95.0915,1.0,7.55,2.79,5.38,-24.69,-1.5,-35.25,0.0,1.37,-0.12,0.007952608405733086,0.20277161944481012,0.1272997931747888,-40.09511461656773,39.242385733379436,-43.135358011103925,-0.7966,-0.3428,0.3358,-0.3676
22,1740443.0,95.16118,1.0,7.7,2.81,5.38,-24.0,-2.25,-34.5,-0.5,2.69,0.69,0.06602224842730675,0.1247576835698121,0.0030498152156948066,-40.02193352838936,39.21805551339583,-43.17232602381402,-0.7969,-0.3422,0.3356,-0.3679
23,1740443.0,95.16118,1.0,7.7,2.81,5.38,-24.0,-2.25,-34.5,-0.5,2.69,0.69,0.06602224842730675,0.1247576835698121,0.0030498152156948066,-40.02193352838936,39.21805551339583,-43.17232602381402,-0.7969,-0.3422,0.3356,-0.3679
24,1740476.0,95.183402,1.0,7.67,2.85,5.22,-24.0,-2.25,-34.5,-0.94,1.94,0.69,0.0647587184562235,-0.02653937379826865,0.10124418828752367,-39.948769456648414,39.169400592648394,-43.209298755684706,-0.7971,-0.3416,0.3352,-0.3682
25,1740476.0,95.183402,1.0,7.67,2.85,5.22,-24.0,-2.25,-34.5,-0.94,1.94,0.69,0.0647587184562235,-0.02653937379826865,0.10124418828752367,-39.948769456648414,39.169400592648394,-43.209298755684706,-0.7971,-0.3416,0.3352,-0.3682
26,1740513.0,95.187212,1.0,7.64,2.9,5.18,-24.69,-2.56,-34.5,-0.81,1.94,3.0,0.01478110350632611,-0.08390776044530046,0.13169568451529126,-39.88781236546699,39.15723801119543,-43.27093047786308,-0.7971,-0.3411,0.3351,-0.3687
27,1740513.0,95.187212,1.0,7.64,2.9,5.18,-24.69,-2.56,-34.5,-0.81,1.94,3.0,0.01478110350632611,-0.08390776044530046,0.13169568451529126,-39.88781236546699,39.15723801119543,-43.27093047786308,-0.7971,-0.3411,0.3351,-0.3687
28,1740548.0,95.23800899999999,1.0,7.75,2.93,5.36,-24.0,-2.56,-35.25,-1.0,2.06,4.38,-0.023249981969703848,-0.019535173595438767,-0.06128179016408985,-39.76593345094053,39.15723801119543,-43.44356934572808,-0.7969,-0.3401,0.3351,-0.3701
29,1740548.0,95.23800899999999,1.0,7.75,2.93,5.36,-24.0,-2.56,-35.25,-1.0,2.06,4.38,-0.023249981969703848,-0.019535173595438767,-0.06128179016408985,-39.76593345094053,39.15723801119543,-43.44356934572808,-0.7969,-0.3401,0.3351,-0.3701
30,1740582.0,95.258177,1.0,7.86,3.03,5.29,-24.0,-2.56,-35.25,0.81,2.06,3.81,-0.039122847842392616,-0.17580124792475949,-0.13880943252521585,-39.71719501771099,39.14507588885785,-43.55460618777381,-0.7967,-0.3397,0.335,-0.371
31,1740582.0,95.258177,1.0,7.86,3.03,5.29,-24.0,-2.56,-35.25,0.81,2.06,3.81,-0.039122847842392616,-0.17580124792475949,-0.13880943252521585,-39.71719501771099,39.14507588885785,-43.55460618777381,-0.7967,-0.3397,0.335,-0.371
32,1740615.0,95.301548,1.0,7.77,2.86,5.13,-24.25,-1.88,-34.88,0.94,0.56,0.44,0.1020788076907342,-0.1850793263955297,0.06885119534391926,-39.75374814015767,39.10859227464813,-43.61631189309636,-0.7965,-0.34,0.3347,-0.3715
33,1740615.0,95.301548,1.0,7.77,2.86,5.13,-24.25,-1.88,-34.88,0.94,0.56,0.44,0.1020788076907342,-0.1850793263955297,0.06885119534391926,-39.75374814015767,39.10859227464813,-43.61631189309636,-0.7965,-0.34,0.3347,-0.3715
34,1740652.0,95.308972,1.0,7.79,2.91,5.21,-24.25,-1.88,-34.88,-0.19,1.25,2.13,0.04224101084507348,-0.15816174757039825,-0.005052225333189497,-39.72937892373464,39.120753020773094,-43.665686030942155,-0.7964,-0.3398,0.3348,-0.3719
35,1740652.0,95.308972,1.0,7.79,2.91,5.21,-24.25,-1.88,-34.88,-0.19,1.25,2.13,0.04224101084507348,-0.15816174757039825,-0.005052225333189497,-39.72937892373464,39.120753020773094,-43.665686030942155,-0.7964,-0.3398,0.3348,-0.3719
36,1740687.0,95.371381,1.0,7.87,2.87,5.2,-24.25,-1.88,-34.88,0.25,0.56,1.75,0.11063904217072396,-0.17931985377608006,-0.050804204427697286,-39.70501157955701,39.13291422544671,-43.71506869334832,-0.7962,-0.3396,0.3349,-0.3723
37,1740687.0,95.371381,1.0,7.87,2.87,5.2,-24.25,-1.88,-34.88,0.25,0.56,1.75,0.11063904217072396,-0.17931985377608006,-0.050804204427697286,-39.70501157955701,39.13291422544671,-43.71506869334832,-0.7962,-0.3396,0.3349,-0.3723
38,1740720.0,95.378946,1.0,7.88,2.85,5.06,-24.0,-2.25,-34.88,-1.25,-0.56,-1.19,0.1675348055369874,-0.2824804569950381,0.023366457121893447,-39.69282860908111,39.15723801119543,-43.70272222782621,-0.7961,-0.3395,0.3351,-0.3722
39,1740720.0,95.378946,1.0,7.88,2.85,5.06,-24.0,-2.25,-34.88,-1.25,-0.56,-1.19,0.1675348055369874,-0.2824804569950381,0.023366457121893447,-39.69282860908111,39.15723801119543,-43.70272222782621,-0.7961,-0.3395,0.3351,-0.3722
40,1740754.0,95.444598,1.0,7.65,2.84,5.43,-23.56,-2.25,-34.06,-1.56,-1.81,0.06,-0.05033024471613179,0.10415836906450247,0.005649137811451155,-39.68064610609173,39.23022039326242,-43.65334169783373,-0.7961,-0.3394,0.3357,-0.3718
41,1740754.0,95.444598,1.0,7.65,2.84,5.43,-23.56,-2.25,-34.06,-1.56,-1.81,0.06,-0.05033024471613179,0.10415836906450247,0.005649137811451155,-39.68064610609173,39.23022039326242,-43.65334169783373,-0.7961,-0.3394,0.3357,-0.3718
42,1740791.0,95.46343,1.0,7.74,3.01,5.32,-23.19,-1.88,-34.06,-1.69,-0.44,-0.75,-0.11898912281983876,-0.1037996997102053,-0.05464642648423279,-39.61974059674283,39.278884517127096,-43.60396968900631,-0.7964,-0.3389,0.3361,-0.3714
43,1740791.0,95.46343,1.0,7.74,3.01,5.32,-23.19,-1.88,-34.06,-1.69,-0.44,-0.75,-0.11898912281983876,-0.1037996997102053,-0.05464642648423279,-39.61974059674283,39.278884517127096,-43.60396968900631,-0.7964,-0.3389,0.3361,-0.3714
44,1740826.0,95.508197,1.0,7.69,2.98,5.26,-23.19,-1.88,-34.06,-2.25,-0.5,-1.94,-0.09982966970738838,-0.11712535468497708,0.026035720296702536,-39.60756089465345,39.2910517001401,-43.542266640188856,-0.7966,-0.3388,0.3362,-0.3709
45,1740826.0,95.508197,1.0,7.69,2.98,5.26,-23.19,-1.88,-34.06,-2.25,-0.5,-1.94,-0.09982966970738838,-0.11712535468497708,0.026035720296702536,-39.60756089465345,39.2910517001401,-43.542266640188856,-0.7966,-0.3388,0.3362,-0.3709
46,1740861.0,95.527553,1.0,7.71,2.72,5.28,-23.56,-2.56,-34.88,1.88,-0.56,-0.06,0.12154341785618028,0.027683428377169417,0.07498206354794057,-39.656282501806686,39.2910517001401,-43.5175891368055,-0.7966,-0.3392,0.3362,-0.3707
47,1740861.0,95.527553,1.0,7.71,2.72,5.28,-23.56,-2.56,-34.88,1.88,-0.56,-0.06,0.12154341785618028,0.027683428377169417,0.07498206354794057,-39.656282501806686,39.2910517001401,-43.5175891368055,-0.7966,-0.3392,0.3362,-0.3707
48,1740896.0,95.57506,1.0,7.71,2.62,5.44,-24.25,-2.25,-35.25,1.5,-0.31,3.19,0.15128272814900345,0.2028099823380627,0.016957377285644167,-39.656282501806686,39.303219344350964,-43.579286875788114,-0.7963,-0.3392,0.3363,-0.3712
49,1740896.0,95.57506,1.0,7.71,2.62,5.44,-24.25,-2.25,-35.25,1.5,-0.31,3.19,0.15128272814900345,0.2028099823380627,0.016957377285644167,-39.656282501806686,39.303219344350964,-43.579286875788114,-0.7963,-0.3392,0.3363,-0.3712
50,1740931.0,95.593092,1.0,7.63,3.07,5.55,-24.25,-2.25,-35.25,-0.37,0.56,8.13,-0.32329835029121234,0.08231361727123199,-0.10964984647049114,-39.558846745858816,39.38840578330453,-43.81385964623059,-0.7955,-0.3384,0.337,-0.3731
51,1740931.0,95.593092,1.0,7.63,3.07,5.55,-24.25,-2.25,-35.25,-0.37,0.56,8.13,-0.32329835029121234,0.08231361727123199,-0.10964984647049114,-39.558846745858816,39.38840578330453,-43.81385964623059,-0.7955,-0.3384,0.337,-0.3731
52,1740965.0,95.641898,1.0,8.03,3.85,5.51,-24.0,-1.88,-34.5,5.56,2.81,9.44,-0.7810814110561728,-0.491887678239062,-0.6246230930265195,-39.51014004319908,39.38840578330453,-44.07334918943469,-0.7946,-0.33799999999999997,0.337,-0.3752
53,1740965.0,95.641898,1.0,8.03,3.85,5.51,-24.0,-1.88,-34.5,5.56,2.81,9.44,-0.7810814110561728,-0.491887678239062,-0.6246230930265195,-39.51014004319908,39.38840578330453,-44.07334918943469,-0.7946,-0.33799999999999997,0.337,-0.3752
54,1741002.0,95.703823,1.0,7.66,4.08,5.76,-23.56,-1.5,-34.88,42.0,0.88,23.06,-1.2529344296136105,-0.20983185485282665,-0.5319053104763078,-39.99754361581977,39.23022039326242,-44.91524480207666,-0.7902,-0.342,0.3357,-0.382
55,1741002.0,95.703823,1.0,7.66,4.08,5.76,-23.56,-1.5,-34.88,42.0,0.88,23.06,-1.2529344296136105,-0.20983185485282665,-0.5319053104763078,-39.99754361581977,39.23022039326242,-44.91524480207666,-0.7902,-0.342,0.3357,-0.382
56,1741037.0,95.71119300000001,1.0,7.33,5.1,6.11,-23.56,-1.5,-34.88,87.19,32.38,52.5,-2.3501896793908648,-0.1721242017984741,-0.7535574662404176,-40.97463022944533,38.31911836146923,-46.8939256305629,-0.7819,-0.35,0.3282,-0.3979
57,1741037.0,95.71119300000001,1.0,7.33,5.1,6.11,-23.56,-1.5,-34.88,87.19,32.38,52.5,-2.3501896793908648,-0.1721242017984741,-0.7535574662404176,-40.97463022944533,38.31911836146923,-46.8939256305629,-0.7819,-0.35,0.3282,-0.3979
58,1741070.0,95.729712,1.0,8.96,5.83,6.0,-23.56,-2.25,-33.56,190.69,121.25,79.12,-1.993977119015696,-1.116297691670991,-2.2369555528405574,-43.406566594214624,34.111251783016854,-52.39925252360182,-0.7631,-0.3698,0.2933,-0.4415
59,1741070.0,95.729712,1.0,8.96,5.83,6.0,-23.56,-2.25,-33.56,190.69,121.25,79.12,-1.993977119015696,-1.116297691670991,-2.2369555528405574,-43.406566594214624,34.111251783016854,-52.39925252360182,-0.7631,-0.3698,0.2933,-0.4415
60,1741107.0,95.7806,1.0,10.37,5.69,5.83,-22.5,-4.5,-35.25,246.88,74.12,101.19,-1.000185759701147,-1.4540057007919749,-3.2619151801624917,-48.221283839840105,28.76570522000204,-59.511020790239144,-0.7247,-0.4085,0.2484,-0.4963
61,1741107.0,95.7806,1.0,10.37,5.69,5.83,-22.5,-4.5,-35.25,246.88,74.12,101.19,-1.000185759701147,-1.4540057007919749,-3.2619151801624917,-48.221283839840105,28.76570522000204,-59.511020790239144,-0.7247,-0.4085,0.2484,-0.4963
62,1741144.0,95.80119,1.0,10.36,7.04,6.51,-18.69,-10.06,-35.25,194.13,48.13,2.25,-1.6487654832521081,-0.6499238716208806,-4.198008915601399,-52.06743571130708,24.87799095241944,-62.61084822614068,-0.7007,-0.4389,0.2154,-0.5196
63,1741144.0,95.80119,1.0,10.36,7.04,6.51,-18.69,-10.06,-35.25,194.13,48.13,2.25,-1.6487654832521081,-0.6499238716208806,-4.198008915601399,-52.06743571130708,24.87799095241944,-62.61084822614068,-0.7007,-0.4389,0.2154,-0.5196
64,1741178.0,95.85240300000001,1.0,9.67,9.39,7.52,-18.69,-10.06,-35.25,174.94,37.88,-43.75,-2.5018774886670494,0.944634257616463,-5.394655047627927,-56.966262181573775,19.36635943259494,-63.929848409462785,-0.6813,-0.4769,0.1682,-0.5294
65,1741178.0,95.85240300000001,1.0,9.67,9.39,7.52,-18.69,-10.06,-35.25,174.94,37.88,-43.75,-2.5018774886670494,0.944634257616463,-5.394655047627927,-56.966262181573775,19.36635943259494,-63.929848409462785,-0.6813,-0.4769,0.1682,-0.5294
66,1741213.0,95.92412,1.0,10.66,5.97,5.91,-17.87,-16.06,-34.56,266.81,7.75,-12.5,1.502201547511514,-0.6092640737469299,-3.6683931464650743,-62.423176652141294,14.430812668433536,-65.13597459719793,-0.6526,-0.5182,0.1256,-0.5383
67,1741213.0,95.92412,1.0,10.66,5.97,5.91,-17.87,-16.06,-34.56,266.81,7.75,-12.5,1.502201547511514,-0.6092640737469299,-3.6683931464650743,-62.423176652141294,14.430812668433536,-65.13597459719793,-0.6526,-0.5182,0.1256,-0.5383
68,1741252.0,95.943985,1.0,10.38,7.32,5.46,-15.19,-22.75,-31.37,119.87,-60.44,-52.75,1.27860507325057,0.019085486855657585,-3.959366301415944,-68.44387353354183,10.591876570929834,-64.64713688163303,-0.6239,-0.5624,0.0923,-0.5347
69,1741252.0,95.943985,1.0,10.38,7.32,5.46,-15.19,-22.75,-31.37,119.87,-60.44,-52.75,1.27860507325057,0.019085486855657585,-3.959366301415944,-68.44387353354183,10.591876570929834,-64.64713688163303,-0.6239,-0.5624,0.0923,-0.5347
70,1741285.0,95.947441,1.0,8.87,10.52,4.24,-15.19,-22.75,-31.37,175.13,-106.75,-67.69,-1.2898377413447657,1.2848824985893312,-4.4765672694327305,-73.55369726095881,8.993207204284674,-61.7944910115485,-0.6097,-0.5987,0.0784,-0.5135
71,1741285.0,95.947441,1.0,8.87,10.52,4.24,-15.19,-22.75,-31.37,175.13,-106.75,-67.69,-1.2898377413447657,1.2848824985893312,-4.4765672694327305,-73.55369726095881,8.993207204284674,-61.7944910115485,-0.6097,-0.5987,0.0784,-0.5135
72,1741320.0,95.993812,1.0,8.45,8.27,3.75,-15.56,-28.5,-26.19,189.06,-137.88,-69.12,1.5099053431196907,1.7910464597320768,-2.3740822618100332,-82.87459184999501,6.454917855397503,-57.05754239979307,-0.5751,-0.6618,0.0563,-0.4776
73,1741320.0,95.993812,1.0,8.45,8.27,3.75,-15.56,-28.5,-26.19,189.06,-137.88,-69.12,1.5099053431196907,1.7910464597320768,-2.3740822618100332,-82.87459184999501,6.454917855397503,-57.05754239979307,-0.5751,-0.6618,0.0563,-0.4776
74,1741357.0,96.060374,1.0,6.7,7.62,2.25,-17.0,-32.69,-20.69,162.88,-128.94,-72.06,1.4079174139448678,2.0850231031353985,-0.27736443944337275,-91.33558129123823,4.3211257832659316,-51.76155935207183,-0.5444,-0.7153,0.0377,-0.4365
75,1741357.0,96.060374,1.0,6.7,7.62,2.25,-17.0,-32.69,-20.69,162.88,-128.94,-72.06,1.4079174139448678,2.0850231031353985,-0.27736443944337275,-91.33558129123823,4.3211257832659316,-51.76155935207183,-0.5444,-0.7153,0.0377,-0.4365
76,1741393.0,96.078983,1.0,7.16,8.18,0.43,-16.25,-37.25,-13.75,164.31,-121.75,-62.63,1.2864751559195904,1.2951267540510123,-0.9185785926288296,-97.21541095446709,2.738999060214957,-47.90761495262175,-0.5213,-0.7502,0.0239,-0.406
77,1741393.0,96.078983,1.0,7.16,8.18,0.43,-16.25,-37.25,-13.75,164.31,-121.75,-62.63,1.2864751559195904,1.2951267540510123,-0.9185785926288296,-97.21541095446709,2.738999060214957,-47.90761495262175,-0.5213,-0.7502,0.0239,-0.406
78,1741428.0,96.082116,1.0,6.18,5.73,0.01,-16.25,-37.25,-13.75,192.56,-138.63,-46.13,2.4806715370107706,1.0685078106579606,1.8235453543106068,-106.20292801228649,1.1344749665222489,-42.51991407307619,-0.4783,-0.7997,0.0099,-0.3626
79,1741428.0,96.082116,1.0,6.18,5.73,0.01,-16.25,-37.25,-13.75,192.56,-138.63,-46.13,2.4806715370107706,1.0685078106579606,1.8235453543106068,-106.20292801228649,1.1344749665222489,-42.51991407307619,-0.4783,-0.7997,0.0099,-0.3626
80,1741465.0,96.147278,1.0,6.01,6.14,-1.75,-15.88,-39.75,-6.5,97.37,-171.88,-58.69,1.9427135062074368,0.5031028808967117,1.271138783673667,-111.68555504305651,0.9625804159917916,-37.543632473884564,-0.46,-0.8275,0.0084,-0.3218
81,1741465.0,96.147278,1.0,6.01,6.14,-1.75,-15.88,-39.75,-6.5,97.37,-171.88,-58.69,1.9427135062074368,0.5031028808967117,1.271138783673667,-111.68555504305651,0.9625804159917916,-37.543632473884564,-0.46,-0.8275,0.0084,-0.3218
82,1741502.0,96.15099599999999,1.0,4.9,5.09,-2.08,-13.56,-41.0,-0.37,94.12,-181.13,-65.69,2.0683331907796463,0.5642546533678834,2.7605081835112055,-119.0385830310132,1.0542572154525014,-30.34191613696452,-0.4344,-0.8618,0.0092,-0.2617
83,1741502.0,96.15099599999999,1.0,4.9,5.09,-2.08,-13.56,-41.0,-0.37,94.12,-181.13,-65.69,2.0683331907796463,0.5642546533678834,2.7605081835112055,-119.0385830310132,1.0542572154525014,-30.34191613696452,-0.4344,-0.8618,0.0092,-0.2617
84,1741537.0,96.200536,1.0,2.67,4.91,-2.72,-13.56,-41.0,-0.37,75.37,-163.44,-57.31,0.4262856521735739,0.7048453972165247,3.645735010424697,-123.52645816564731,1.0657168616283692,-25.03056340197877,-0.4204,-0.8809999999999999,0.0093,-0.2167
85,1741537.0,96.200536,1.0,2.67,4.91,-2.72,-13.56,-41.0,-0.37,75.37,-163.44,-57.31,0.4262856521735739,0.7048453972165247,3.645735010424697,-123.52645816564731,1.0657168616283692,-25.03056340197877,-0.4204,-0.8809999999999999,0.0093,-0.2167
86,1741572.0,96.21947800000001,1.0,3.67,4.95,-4.27,-11.38,-40.56,4.5,70.06,-152.69,-25.5,1.4101763756131662,-0.13383219159431992,2.4447350633713807,-128.57965137649458,1.3407518310456548,-19.598895357607173,-0.3989,-0.9009999999999999,0.0117,-0.1702
87,1741572.0,96.21947800000001,1.0,3.67,4.95,-4.27,-11.38,-40.56,4.5,70.06,-152.69,-25.5,1.4101763756131662,-0.13383219159431992,2.4447350633713807,-128.57965137649458,1.3407518310456548,-19.598895357607173,-0.3989,-0.9009999999999999,0.0117,-0.1702
88,1741606.0,96.263063,1.0,2.49,4.82,-4.42,-9.06,-39.75,8.19,39.31,-125.25,-42.63,0.8553982978486315,0.0774203913755862,2.861781402608333,-132.15647345628565,1.5355728478655368,-14.442363367873067,-0.3854,-0.9141,0.0134,-0.1257
89,1741606.0,96.263063,1.0,2.49,4.82,-4.42,-9.06,-39.75,8.19,39.31,-125.25,-42.63,0.8553982978486315,0.0774203913755862,2.861781402608333,-132.15647345628565,1.5355728478655368,-14.442363367873067,-0.3854,-0.9141,0.0134,-0.1257
90,1741643.0,96.335619,1.0,2.04,5.59,-4.99,-5.69,-39.38,12.38,44.31,-68.31,-16.75,0.5005635052086688,0.4061520520196624,2.0675107269352333,-133.88141126071122,1.0886361860699356,-12.261764386292771,-0.3766,-0.9201,0.0095,-0.1068
91,1741643.0,96.335619,1.0,2.04,5.59,-4.99,-5.69,-39.38,12.38,44.31,-68.31,-16.75,0.5005635052086688,0.4061520520196624,2.0675107269352333,-133.88141126071122,1.0886361860699356,-12.261764386292771,-0.3766,-0.9201,0.0095,-0.1068
92,1741678.0,96.33909799999999,1.0,2.38,5.36,-5.71,-5.69,-39.38,12.38,38.5,-64.69,-11.88,1.0405393819544273,-0.014899832045334184,1.6878350748026687,-136.12747373883852,1.4668120111410634,-9.74054901066208,-0.3637,-0.9276,0.0128,-0.0849
93,1741678.0,96.33909799999999,1.0,2.38,5.36,-5.71,-5.69,-39.38,12.38,38.5,-64.69,-11.88,1.0405393819544273,-0.014899832045334184,1.6878350748026687,-136.12747373883852,1.4668120111410634,-9.74054901066208,-0.3637,-0.9276,0.0128,-0.0849
94,1741715.0,96.380763,1.0,1.21,5.61,-5.74,-4.25,-38.38,14.19,18.44,-67.94,-23.37,0.13406933991265885,0.28677851710080793,1.6959420472855855,-137.1510918031107,1.2146932735575866,-7.775272426130343,-0.3588,-0.9309,0.0106,-0.0678
95,1741715.0,96.380763,1.0,1.21,5.61,-5.74,-4.25,-38.38,14.19,18.44,-67.94,-23.37,0.13406933991265885,0.28677851710080793,1.6959420472855855,-137.1510918031107,1.2146932735575866,-7.775272426130343,-0.3588,-0.9309,0.0106,-0.0678
96,1741752.0,96.448971,1.0,0.97,6.31,-5.63,-3.5,-38.69,15.0,3.0,-47.5,-18.5,0.1806359329327616,0.9474527760628422,1.3494871248471083,-137.87852272532075,1.0657168616283692,-5.4451479667522715,-0.35600000000000004,-0.9332,0.0093,-0.0475
97,1741752.0,96.448971,1.0,0.97,6.31,-5.63,-3.5,-38.69,15.0,3.0,-47.5,-18.5,0.1806359329327616,0.9474527760628422,1.3494871248471083,-137.87852272532075,1.0657168616283692,-5.4451479667522715,-0.35600000000000004,-0.9332,0.0093,-0.0475
98,1741785.0,96.46329899999999,1.0,1.63,6.68,-6.52,-3.5,-38.69,15.0,14.38,-55.19,-14.0,0.9687606627600959,0.6990063474402173,0.4065120805582367,-138.4562899093435,1.1459346897143057,-3.919795697049856,-0.3529,-0.935,0.01,-0.0342
99,1741785.0,96.46329899999999,1.0,1.63,6.68,-6.52,-3.5,-38.69,15.0,14.38,-55.19,-14.0,0.9687606627600959,0.6990063474402173,0.4065120805582367,-138.4562899093435,1.1459346897143057,-3.919795697049856,-0.3529,-0.935,0.01,-0.0342
100,1741819.0,96.47160699999999,1.0,1.02,7.22,-7.08,-2.25,-38.69,15.0,17.62,-96.25,-9.88,0.7930385723456548,0.8726686363919778,-0.2881377280223063,-139.2059212883253,1.8450038134157023,-0.5500415954991054,-0.3481,-0.9373,0.0161,-0.0048
101,1741819.0,96.47160699999999,1.0,1.02,7.22,-7.08,-2.25,-38.69,15.0,17.62,-96.25,-9.88,0.7930385723456548,0.8726686363919778,-0.2881377280223063,-139.2059212883253,1.8450038134157023,-0.5500415954991054,-0.3481,-0.9373,0.0161,-0.0048
102,1741854.0,96.52069499999999,1.0,1.38,8.61,-8.34,-1.19,-39.06,16.56,27.69,-135.0,-10.88,1.6590018714130887,1.2864356924271925,-2.0754750624581995,-139.60231554875963,2.681687249969397,2.7963115557322795,-0.3434,-0.9385,0.0234,0.0244
103,1741854.0,96.52069499999999,1.0,1.38,8.61,-8.34,-1.19,-39.06,16.56,27.69,-135.0,-10.88,1.6590018714130887,1.2864356924271925,-2.0754750624581995,-139.60231554875963,2.681687249969397,2.7963115557322795,-0.3434,-0.9385,0.0234,0.0244
104,1741891.0,96.59011,1.0,1.52,9.64,-9.29,1.0,-38.0,17.87,71.19,-295.06,-19.0,3.2427618946413714,2.171433331079215,-3.0896080845507345,-139.8686617976523,5.181303758795194,11.132886214620822,-0.3259,-0.9393,0.0452,0.09699999999999999
105,1741891.0,96.59011,1.0,1.52,9.64,-9.29,1.0,-38.0,17.87,71.19,-295.06,-19.0,3.2427618946413714,2.171433331079215,-3.0896080845507345,-139.8686617976523,5.181303758795194,11.132886214620822,-0.3259,-0.9393,0.0452,0.09699999999999999
106,1741926.0,96.65595,1.0,-1.94,7.53,-6.38,1.0,-38.0,17.87,119.81,-206.31,-24.56,0.12644104306875242,2.334964541861133,0.0239687085094662,-140.1031128223946,7.292945412680463,18.297714844671226,-0.295,-0.94,0.0636,0.159
107,1741926.0,96.65595,1.0,-1.94,7.53,-6.38,1.0,-38.0,17.87,119.81,-206.31,-24.56,0.12644104306875242,2.334964541861133,0.0239687085094662,-140.1031128223946,7.292945412680463,18.297714844671226,-0.295,-0.94,0.0636,0.159
108,1741963.0,96.67505200000001,1.0,-1.64,8.72,-9.0,5.19,-37.25,18.25,81.37,-154.81,-23.87,2.128884115837165,2.8020000915945955,-2.3319103721380383,-139.60231554875963,8.705871826379285,24.0923596055089,-0.2645,-0.9385,0.0759,0.2087
109,1741963.0,96.67505200000001,1.0,-1.64,8.72,-9.0,5.19,-37.25,18.25,81.37,-154.81,-23.87,2.128884115837165,2.8020000915945955,-2.3319103721380383,-139.60231554875963,8.705871826379285,24.0923596055089,-0.2645,-0.9385,0.0759,0.2087
110,1741998.0,96.678586,1.0,-2.69,5.72,-7.53,8.88,-35.0,21.19,109.31,-134.5,-44.94,1.156340598400433,1.3034994695041555,0.1309502550981687,-139.43670037409964,9.361079434368333,28.12734139012517,-0.2335,-0.938,0.0816,0.243
111,1741998.0,96.678586,1.0,-2.69,5.72,-7.53,8.88,-35.0,21.19,109.31,-134.5,-44.94,1.156340598400433,1.3034994695041555,0.1309502550981687,-139.43670037409964,9.361079434368333,28.12734139012517,-0.2335,-0.938,0.0816,0.243
112,1742032.0,96.70517099999999,1.0,-3.47,4.4,-6.77,8.88,-35.0,21.19,81.94,-120.37,-48.56,0.7497522680259308,0.8429010253540954,1.0910783378514406,-138.3272359651665,9.326587364176332,32.78310312481338,-0.2004,-0.9346,0.0813,0.2822
113,1742032.0,96.70517099999999,1.0,-3.47,4.4,-6.77,8.88,-35.0,21.19,81.94,-120.37,-48.56,0.7497522680259308,0.8429010253540954,1.0910783378514406,-138.3272359651665,9.326587364176332,32.78310312481338,-0.2004,-0.9346,0.0813,0.2822
114,1742067.0,96.725977,1.0,-3.92,3.18,-6.34,13.25,-33.5,21.56,81.31,-117.81,-31.37,0.7207187335180373,0.282689218603198,1.7397391096503547,-136.4970459556038,9.60254790532585,37.24119428419274,-0.1682,-0.9288,0.0837,0.3193
115,1742067.0,96.725977,1.0,-3.92,3.18,-6.34,13.25,-33.5,21.56,81.31,-117.81,-31.37,0.7207187335180373,0.282689218603198,1.7397391096503547,-136.4970459556038,9.60254790532585,37.24119428419274,-0.1682,-0.9288,0.0837,0.3193
116,1742104.0,96.793635,1.0,-5.36,1.48,-4.67,16.69,-31.25,22.75,54.88,-115.12,-21.75,-0.9641494483983419,-1.014832647082891,2.681382949596352,-134.4108976122917,9.970582425862727,40.607862210384674,-0.1484,-0.9219,0.0869,0.34700000000000003
117,1742104.0,96.793635,1.0,-5.36,1.48,-4.67,16.69,-31.25,22.75,54.88,-115.12,-21.75,-0.9641494483983419,-1.014832647082891,2.681382949596352,-134.4108976122917,9.970582425862727,40.607862210384674,-0.1484,-0.9219,0.0869,0.34700000000000003
118,1742141.0,96.813456,1.0,-6.23,2.49,-3.69,18.75,-29.37,22.75,4.56,-113.62,-4.63,-1.8164529349788987,-0.006117392196302918,2.368265678622187,-130.92785324394194,10.338720083250598,44.77888374446125,-0.1389,-0.9097,0.0901,0.3809
119,1742141.0,96.813456,1.0,-6.23,2.49,-3.69,18.75,-29.37,22.75,4.56,-113.62,-4.63,-1.8164529349788987,-0.006117392196302918,2.368265678622187,-130.92785324394194,10.338720083250598,44.77888374446125,-0.1389,-0.9097,0.0901,0.3809
120,1742176.0,96.862493,1.0,-6.09,1.91,-4.05,18.75,-29.37,22.75,23.0,-68.44,-14.13,-1.1616071379941433,-0.4820055411699093,2.352990528623369,-129.19057220176188,10.453784866884499,46.943892407350866,-0.1304,-0.9033,0.0911,0.3983
121,1742176.0,96.862493,1.0,-6.09,1.91,-4.05,18.75,-29.37,22.75,23.0,-68.44,-14.13,-1.1616071379941433,-0.4820055411699093,2.352990528623369,-129.19057220176188,10.453784866884499,46.943892407350866,-0.1304,-0.9033,0.0911,0.3983
122,1742213.0,96.882697,1.0,-6.83,1.74,-3.88,20.37,-28.25,21.19,3.44,-34.38,-8.31,-1.5320793380982003,-0.7373798217613737,1.9428148096980216,-127.68873899317936,10.580368342525214,48.76169642019097,-0.1237,-0.8976,0.0922,0.4128
123,1742213.0,96.882697,1.0,-6.83,1.74,-3.88,20.37,-28.25,21.19,3.44,-34.38,-8.31,-1.5320793380982003,-0.7373798217613737,1.9428148096980216,-127.68873899317936,10.580368342525214,48.76169642019097,-0.1237,-0.8976,0.0922,0.4128
124,1742247.0,96.96923000000001,1.0,-6.99,1.96,-3.92,22.25,-28.69,20.75,-10.56,5.06,-10.31,-1.5688338160356972,-0.5507748411141039,1.7255914349320172,-127.45526250130641,10.200656128703407,49.1016156188802,-0.1242,-0.8967,0.0889,0.4155
125,1742247.0,96.96923000000001,1.0,-6.99,1.96,-3.92,22.25,-28.69,20.75,-10.56,5.06,-10.31,-1.5688338160356972,-0.5507748411141039,1.7255914349320172,-127.45526250130641,10.200656128703407,49.1016156188802,-0.1242,-0.8967,0.0889,0.4155
126,1742282.0,96.980388,1.0,-6.25,2.66,-5.27,22.25,-28.69,20.75,-16.56,25.81,9.31,-0.1951427624092668,0.037007817888482515,1.2117939963374358,-128.0277034878583,9.936074868420336,48.3342986251064,-0.1298,-0.8989,0.0866,0.4094
127,1742282.0,96.980388,1.0,-6.25,2.66,-5.27,22.25,-28.69,20.75,-16.56,25.81,9.31,-0.1951427624092668,0.037007817888482515,1.2117939963374358,-128.0277034878583,9.936074868420336,48.3342986251064,-0.1298,-0.8989,0.0866,0.4094
128,1742317.0,97.02820600000001,1.0,-6.3,2.56,-6.3,23.06,-28.69,22.0,2.94,11.31,9.13,0.4729496545454845,-0.29760753078056457,0.5534695531542742,-128.4213907260083,10.177646918437086,47.78225428161778,-0.1322,-0.9004,0.0887,0.405
129,1742317.0,97.02820600000001,1.0,-6.3,2.56,-6.3,23.06,-28.69,22.0,2.94,11.31,9.13,0.4729496545454845,-0.29760753078056457,0.5534695531542742,-128.4213907260083,10.177646918437086,47.78225428161778,-0.1322,-0.9004,0.0887,0.405
130,1742354.0,97.04778,1.0,-6.7,3.41,-6.25,22.56,-28.69,21.06,-23.87,1.88,0.5,0.14347137355731782,0.33224979952512035,0.03681755334641501,-128.2635811405088,10.028097037556813,47.75718944121001,-0.1371,-0.8998,0.0874,0.4048
131,1742354.0,97.04778,1.0,-6.7,3.41,-6.25,22.56,-28.69,21.06,-23.87,1.88,0.5,0.14347137355731782,0.33224979952512035,0.03681755334641501,-128.2635811405088,10.028097037556813,47.75718944121001,-0.1371,-0.8998,0.0874,0.4048
132,1742389.0,97.051106,1.0,-6.63,4.1,-6.21,22.56,-28.69,21.06,-21.81,6.19,4.13,0.14404895360705924,0.9201905502859438,-0.11622756903858544,-128.1586232989387,9.752049739225924,47.66948159847917,-0.1431,-0.8994,0.085,0.4041
133,1742389.0,97.051106,1.0,-6.63,4.1,-6.21,22.56,-28.69,21.06,-21.81,6.19,4.13,0.14404895360705924,0.9201905502859438,-0.11622756903858544,-128.1586232989387,9.752049739225924,47.66948159847917,-0.1431,-0.8994,0.085,0.4041
134,1742422.0,97.096419,1.0,-6.54,3.56,-6.43,23.0,-29.0,20.75,10.38,7.75,12.75,0.33081210393214466,0.3504387006606711,-0.01973570731737695,-128.3687376178253,9.982085146289721,47.331456908420954,-0.1445,-0.9002,0.087,0.4014
135,1742422.0,97.096419,1.0,-6.54,3.56,-6.43,23.0,-29.0,20.75,10.38,7.75,12.75,0.33081210393214466,0.3504387006606711,-0.01973570731737695,-128.3687376178253,9.982085146289721,47.331456908420954,-0.1445,-0.9002,0.087,0.4014
136,1742456.0,97.11702700000001,1.0,-5.73,3.35,-7.02,21.06,-29.75,19.5,-0.12,6.81,11.81,1.2597672355413059,0.2308344423988007,0.2308731661102765,-128.57965137649458,10.327214181692757,47.01886031964005,-0.1451,-0.9009999999999999,0.09,0.3989
137,1742456.0,97.11702700000001,1.0,-5.73,3.35,-7.02,21.06,-29.75,19.5,-0.12,6.81,11.81,1.2597672355413059,0.2308344423988007,0.2308731661102765,-128.57965137649458,10.327214181692757,47.01886031964005,-0.1451,-0.9009999999999999,0.09,0.3989
138,1742493.0,97.162152,1.0,-6.02,3.49,-6.21,20.69,-30.19,20.25,-18.37,-5.06,8.44,0.4890707069137286,0.3373301841269949,0.4990392329709152,-128.18484420355122,10.51132121524803,47.14385428992954,-0.1501,-0.8995,0.0916,0.3999
139,1742493.0,97.162152,1.0,-6.02,3.49,-6.21,20.69,-30.19,20.25,-18.37,-5.06,8.44,0.4890707069137286,0.3373301841269949,0.4990392329709152,-128.18484420355122,10.51132121524803,47.14385428992954,-0.1501,-0.8995,0.0916,0.3999
140,1742528.0,97.226781,1.0,-6.26,3.74,-5.96,20.69,-30.19,20.25,-19.87,2.69,12.06,0.14759743555290136,0.41410636958291547,0.3990184749194672,-127.87100362286014,10.591876570929834,47.093849573149654,-0.1577,-0.8983,0.0923,0.3995
141,1742528.0,97.226781,1.0,-6.26,3.74,-5.96,20.69,-30.19,20.25,-19.87,2.69,12.06,0.14759743555290136,0.41410636958291547,0.3990184749194672,-127.87100362286014,10.591876570929834,47.093849573149654,-0.1577,-0.8983,0.0923,0.3995
142,1742565.0,97.248986,1.0,-5.94,4.02,-6.6,20.75,-30.5,19.0,-17.31,1.44,14.88,0.8112970874111063,0.519117232405943,0.10735547230482644,-127.76677999527551,10.706964767003905,46.8939256305629,-0.1635,-0.8979,0.0933,0.3979
143,1742565.0,97.248986,1.0,-5.94,4.02,-6.6,20.75,-30.5,19.0,-17.31,1.44,14.88,0.8112970874111063,0.519117232405943,0.10735547230482644,-127.76677999527551,10.706964767003905,46.8939256305629,-0.1635,-0.8979,0.0933,0.3979
144,1742602.0,97.300632,1.0,-6.48,3.3,-6.19,21.19,-30.5,19.75,-11.81,-5.19,13.56,0.2048458775268724,-0.334552140185177,0.2650247174835183,-127.3259688536123,11.00624507066077,47.01886031964005,-0.1688,-0.8962,0.0959,0.3989
145,1742602.0,97.300632,1.0,-6.48,3.3,-6.19,21.19,-30.5,19.75,-11.81,-5.19,13.56,0.2048458775268724,-0.334552140185177,0.2650247174835183,-127.3259688536123,11.00624507066077,47.01886031964005,-0.1688,-0.8962,0.0959,0.3989
146,1742635.0,97.314944,1.0,-7.08,3.72,-5.81,21.19,-30.5,19.75,-19.75,-4.88,15.06,-0.4554000001399865,-0.16085568621812296,-0.06693274832817586,-126.88855686312144,11.213483126166134,47.15635695640368,-0.1744,-0.8945,0.0977,0.4
147,1742635.0,97.314944,1.0,-7.08,3.72,-5.81,21.19,-30.5,19.75,-19.75,-4.88,15.06,-0.4554000001399865,-0.16085568621812296,-0.06693274832817586,-126.88855686312144,11.213483126166134,47.15635695640368,-0.1744,-0.8945,0.0977,0.4
148,1742669.0,97.362248,1.0,-7.05,3.92,-5.96,20.75,-30.87,19.06,-16.69,4.06,14.81,-0.3327216085761248,-0.1561508300419958,-0.2160947961855104,-126.58179643384615,11.38620958683243,47.006364186921566,-0.182,-0.8933,0.0992,0.3988
149,1742669.0,97.362248,1.0,-7.05,3.92,-5.96,20.75,-30.87,19.06,-16.69,4.06,14.81,-0.3327216085761248,-0.1561508300419958,-0.2160947961855104,-126.58179643384615,11.38620958683243,47.006364186921566,-0.182,-0.8933,0.0992,0.3988
150,1742706.0,97.368937,1.0,-6.67,4.47,-6.31,20.37,-32.0,19.06,-1.75,8.25,15.88,0.11620718563241893,0.29248817548101336,-0.40054582241916137,-126.58179643384615,11.697182904814724,46.70663424071843,-0.1855,-0.8933,0.1019,0.3964
151,1742706.0,97.368937,1.0,-6.67,4.47,-6.31,20.37,-32.0,19.06,-1.75,8.25,15.88,0.11620718563241893,0.29248817548101336,-0.40054582241916137,-126.58179643384615,11.697182904814724,46.70663424071843,-0.1855,-0.8933,0.1019,0.3964
152,1742741.0,97.427419,1.0,-6.38,4.68,-6.58,20.06,-31.25,17.87,-2.75,9.81,11.13,0.4291911084026581,0.4355852378697076,-0.4660935718515873,-126.78612125881504,11.89302513102135,46.24521189671154,-0.1886,-0.8941,0.1036,0.3927
153,1742741.0,97.427419,1.0,-6.38,4.68,-6.58,20.06,-31.25,17.87,-2.75,9.81,11.13,0.4291911084026581,0.4355852378697076,-0.4660935718515873,-126.78612125881504,11.89302513102135,46.24521189671154,-0.1886,-0.8941,0.1036,0.3927
154,1742776.0,97.498563,1.0,-6.08,5.13,-6.53,20.06,-31.25,17.87,-2.69,4.25,5.75,0.5465787365173497,0.9162527872441046,-0.42985001292700176,-126.83731618493427,11.985198208002226,46.045923884135675,-0.1903,-0.8943,0.1044,0.3911
155,1742776.0,97.498563,1.0,-6.08,5.13,-6.53,20.06,-31.25,17.87,-2.69,4.25,5.75,0.5465787365173497,0.9162527872441046,-0.42985001292700176,-126.83731618493427,11.985198208002226,46.045923884135675,-0.1903,-0.8943,0.1044,0.3911
156,1742813.0,97.54982199999999,1.0,-6.15,4.98,-6.21,19.69,-31.69,19.06,2.94,1.19,1.0,0.2471879554510428,0.8298792984516057,-0.2151860825091028,-126.91419440082724,12.100425506938455,45.946335125324666,-0.1904,-0.8946,0.1054,0.3903
157,1742813.0,97.54982199999999,1.0,-6.15,4.98,-6.21,19.69,-31.69,19.06,2.94,1.19,1.0,0.2471879554510428,0.8298792984516057,-0.2151860825091028,-126.91419440082724,12.100425506938455,45.946335125324666,-0.1904,-0.8946,0.1054,0.3903
158,1742848.0,97.574486,1.0,-6.02,4.63,-6.09,18.75,-32.38,19.06,3.56,0.81,-1.69,0.24567981133280264,0.5812824558477723,0.09237431229033888,-126.9655039569828,12.169567773976445,45.87166763185487,-0.1905,-0.8948,0.106,0.3897
159,1742848.0,97.574486,1.0,-6.02,4.63,-6.09,18.75,-32.38,19.06,3.56,0.81,-1.69,0.24567981133280264,0.5812824558477723,0.09237431229033888,-126.9655039569828,12.169567773976445,45.87166763185487,-0.1905,-0.8948,0.106,0.3897
160,1742882.0,97.59176,1.0,-6.15,4.09,-5.99,18.75,-32.38,19.06,-5.5,3.94,-5.38,0.10337612038331134,0.08800144096965745,0.2981133552727062,-127.04255474483057,11.985198208002226,45.821900740364754,-0.1904,-0.8951,0.1044,0.3893
161,1742882.0,97.59176,1.0,-6.15,4.09,-5.99,18.75,-32.38,19.06,-5.5,3.94,-5.38,0.10337612038331134,0.08800144096965745,0.2981133552727062,-127.04255474483057,11.985198208002226,45.821900740364754,-0.1904,-0.8951,0.1044,0.3893
162,1742917.0,97.64054200000001,1.0,-6.53,4.01,-5.69,19.19,-32.0,19.06,-15.25,2.63,-3.69,-0.3541529631721928,-0.06107809443962475,0.26893826473268057,-126.9655039569828,11.685663847129462,45.821900740364754,-0.1932,-0.8948,0.1018,0.3893
163,1742917.0,97.64054200000001,1.0,-6.53,4.01,-5.69,19.19,-32.0,19.06,-15.25,2.63,-3.69,-0.3541529631721928,-0.06107809443962475,0.26893826473268057,-126.9655039569828,11.685663847129462,45.821900740364754,-0.1932,-0.8948,0.1018,0.3893
164,1742954.0,97.65908,1.0,-6.27,4.14,-5.54,19.56,-32.38,17.75,5.5,-1.25,-1.88,-0.27721807628942696,0.13136791189513494,0.4765914465983805,-126.88855686312144,11.271055753655435,45.74726752330664,-0.1979,-0.8945,0.0982,0.3887
165,1742954.0,97.65908,1.0,-6.27,4.14,-5.54,19.56,-32.38,17.75,5.5,-1.25,-1.88,-0.27721807628942696,0.13136791189513494,0.4765914465983805,-126.88855686312144,11.271055753655435,45.74726752330664,-0.1979,-0.8945,0.0982,0.3887
166,1742987.0,97.662391,1.0,-6.18,4.31,-5.88,19.56,-32.38,17.75,-2.94,4.31,-0.63,0.01603729676694221,0.21917119144622266,0.25182887169244594,-126.9655039569828,11.224997424028942,45.64778844933024,-0.1981,-0.8948,0.0978,0.3879
167,1742987.0,97.662391,1.0,-6.18,4.31,-5.88,19.56,-32.38,17.75,-2.94,4.31,-0.63,0.01603729676694221,0.21917119144622266,0.25182887169244594,-126.9655039569828,11.224997424028942,45.64778844933024,-0.1981,-0.8948,0.0978,0.3879
168,1743022.0,97.708187,1.0,-6.0,4.41,-6.21,19.19,-32.38,17.87,-8.31,8.44,-1.31,0.3494240008942065,0.2433026328842929,0.1200145316637098,-127.1197096819897,11.04078222065542,45.3868284428534,-0.2005,-0.8954,0.0962,0.3858
169,1743022.0,97.708187,1.0,-6.0,4.41,-6.21,19.19,-32.38,17.87,-8.31,8.44,-1.31,0.3494240008942065,0.2433026328842929,0.1200145316637098,-127.1197096819897,11.04078222065542,45.3868284428534,-0.2005,-0.8954,0.0962,0.3858
170,1743056.0,97.726974,1.0,-6.08,4.68,-6.07,18.75,-32.0,19.06,-7.5,8.06,2.63,0.16085348852874864,0.4649512343477484,0.03569065585642228,-127.22274573469288,10.983220861331361,45.16334612512468,-0.2026,-0.8958,0.0957,0.384
171,1743056.0,97.726974,1.0,-6.08,4.68,-6.07,18.75,-32.0,19.06,-7.5,8.06,2.63,0.16085348852874864,0.4649512343477484,0.03569065585642228,-127.22274573469288,10.983220861331361,45.16334612512468,-0.2026,-0.8958,0.0957,0.384
172,1743093.0,97.777261,1.0,-5.9,4.6,-6.24,17.69,-32.75,18.69,-4.19,6.38,3.0,0.35450528920560376,0.36275951626520575,0.07780980533731352,-127.37765090836372,11.155913338134189,44.82846183777319,-0.2041,-0.8964,0.0972,0.3813
173,1743093.0,97.777261,1.0,-5.9,4.6,-6.24,17.69,-32.75,18.69,-4.19,6.38,3.0,0.35450528920560376,0.36275951626520575,0.07780980533731352,-127.37765090836372,11.155913338134189,44.82846183777319,-0.2041,-0.8964,0.0972,0.3813
174,1743126.0,97.845387,1.0,-5.87,4.81,-6.3,17.69,-32.75,18.69,-5.19,1.37,-0.5,0.4010054283876329,0.5164263205751634,-0.034869115554309715,-127.40350962041992,11.132886214620822,44.70453316546126,-0.2056,-0.8965,0.09699999999999999,0.3803
175,1743126.0,97.845387,1.0,-5.87,4.81,-6.3,17.69,-32.75,18.69,-5.19,1.37,-0.5,0.4010054283876329,0.5164263205751634,-0.034869115554309715,-127.40350962041992,11.132886214620822,44.70453316546126,-0.2056,-0.8965,0.09699999999999999,0.3803
176,1743165.0,97.865044,1.0,-5.98,4.7,-6.32,18.87,-31.25,19.06,-1.81,2.75,-1.69,0.32881497110602004,0.34862615828770505,-0.07075555594099825,-127.42938014555916,11.075320376717384,44.580659579875785,-0.2072,-0.8966,0.0965,0.3793
177,1743165.0,97.865044,1.0,-5.98,4.7,-6.32,18.87,-31.25,19.06,-1.81,2.75,-1.69,0.32881497110602004,0.34862615828770505,-0.07075555594099825,-127.42938014555916,11.075320376717384,44.580659579875785,-0.2072,-0.8966,0.0965,0.3793
178,1743198.0,97.875089,1.0,-5.95,4.5,-6.26,18.19,-32.38,17.87,-1.5,4.75,-1.63,0.2854586826387073,0.1822640528317505,0.07395288380699938,-127.53298072808481,11.04078222065542,44.40732869091076,-0.2081,-0.897,0.0962,0.3779
179,1743198.0,97.875089,1.0,-5.95,4.5,-6.26,18.19,-32.38,17.87,-1.5,4.75,-1.63,0.2854586826387073,0.1822640528317505,0.07395288380699938,-127.53298072808481,11.04078222065542,44.40732869091076,-0.2081,-0.897,0.0962,0.3779
180,1743233.0,97.921933,1.0,-5.94,4.69,-6.24,18.19,-32.38,17.87,-2.38,0.88,-2.38,0.25352670680920103,0.3362209044438313,0.006651035084264123,-127.6108060653337,10.960197096754332,44.22173568720945,-0.2097,-0.8973,0.0955,0.3764
181,1743233.0,97.921933,1.0,-5.94,4.69,-6.24,18.19,-32.38,17.87,-2.38,0.88,-2.38,0.25352670680920103,0.3362209044438313,0.006651035084264123,-127.6108060653337,10.960197096754332,44.22173568720945,-0.2097,-0.8973,0.0955,0.3764
182,1743267.0,97.94064,1.0,-6.09,4.72,-6.3,18.56,-32.0,18.69,-4.88,2.63,-1.19,0.1805091955045202,0.27660988078398274,-0.14058094153297418,-127.66274936627121,10.902639624835572,44.12280269978493,-0.2109,-0.8975,0.095,0.3756
183,1743267.0,97.94064,1.0,-6.09,4.72,-6.3,18.56,-32.0,18.69,-4.88,2.63,-1.19,0.1805091955045202,0.27660988078398274,-0.14058094153297418,-127.66274936627121,10.902639624835572,44.12280269978493,-0.2109,-0.8975,0.095,0.3756
184,1743304.0,97.988722,1.0,-6.07,4.38,-6.07,18.56,-33.19,19.06,-2.0,5.44,-1.31,0.01983622775300145,0.054570274268268985,0.16969879076194516,-127.7407542896587,10.856595634361932,44.0239043163285,-0.2108,-0.8978,0.0946,0.3748
185,1743304.0,97.988722,1.0,-6.07,4.38,-6.07,18.56,-33.19,19.06,-2.0,5.44,-1.31,0.01983622775300145,0.054570274268268985,0.16969879076194516,-127.7407542896587,10.856595634361932,44.0239043163285,-0.2108,-0.8978,0.0946,0.3748
186,1743339.0,98.007215,1.0,-5.96,4.67,-6.09,18.56,-33.19,19.06,-2.06,1.44,-0.75,0.09824334328181393,0.3289766679074764,0.09579408522743547,-127.76677999527551,10.822063795614437,43.93739653048951,-0.2117,-0.8979,0.0943,0.3741
187,1743339.0,98.007215,1.0,-5.96,4.67,-6.09,18.56,-33.19,19.06,-2.06,1.44,-0.75,0.09824334328181393,0.3289766679074764,0.09579408522743547,-127.76677999527551,10.822063795614437,43.93739653048951,-0.2117,-0.8979,0.0943,0.3741
188,1743372.0,98.060745,1.0,-5.94,4.62,-6.29,17.75,-33.19,18.25,-1.12,1.69,-0.69,0.2395586559845431,0.22094008273872934,0.00430858938884171,-127.87100362286014,10.776022876638457,43.8262109221212,-0.2123,-0.8983,0.0939,0.3732
189,1743372.0,98.060745,1.0,-5.94,4.62,-6.29,17.75,-33.19,18.25,-1.12,1.69,-0.69,0.2395586559845431,0.22094008273872934,0.00430858938884171,-127.87100362286014,10.776022876638457,43.8262109221212,-0.2123,-0.8983,0.0939,0.3732
190,1743407.0,98.083125,1.0,-5.9,4.69,-6.14,18.19,-33.5,18.25,-1.37,1.94,-1.19,0.14927827557919982,0.32820946871488177,0.09193463921428346,-127.89708982203928,10.776022876638457,43.73976322550855,-0.2131,-0.8984,0.0939,0.3725
191,1743407.0,98.083125,1.0,-5.9,4.69,-6.14,18.19,-33.5,18.25,-1.37,1.94,-1.19,0.14927827557919982,0.32820946871488177,0.09193463921428346,-127.89708982203928,10.776022876638457,43.73976322550855,-0.2131,-0.8984,0.0939,0.3725
192,1743441.0,98.12893000000001,1.0,-6.07,4.47,-5.98,19.25,-33.19,17.37,-2.31,1.94,-1.69,-0.08608365956741218,0.11886469340862772,0.18559700210956895,-127.97542141388577,10.453784866884499,43.61631189309636,-0.2147,-0.8987,0.0911,0.3715
193,1743441.0,98.12893000000001,1.0,-6.07,4.47,-5.98,19.25,-33.19,17.37,-2.31,1.94,-1.69,-0.08608365956741218,0.11886469340862772,0.18559700210956895,-127.97542141388577,10.453784866884499,43.61631189309636,-0.2147,-0.8987,0.0911,0.3715
194,1743476.0,98.147054,1.0,-5.9,4.54,-6.11,19.25,-33.19,17.37,-1.88,6.13,1.94,0.11060761510402424,0.18097637052095505,0.17811358428270194,-128.0277034878583,10.407757691617306,43.49291375439449,-0.2156,-0.8989,0.0907,0.3705
195,1743476.0,98.147054,1.0,-5.9,4.54,-6.11,19.25,-33.19,17.37,-1.88,6.13,1.94,0.11060761510402424,0.18097637052095505,0.17811358428270194,-128.0277034878583,10.407757691617306,43.49291375439449,-0.2156,-0.8989,0.0907,0.3705
196,1743511.0,98.19436999999999,1.0,-5.83,4.52,-6.11,17.75,-32.75,19.06,5.0,0.81,1.63,0.1367874752578615,0.1747184273691147,0.23052538417809565,-128.0800345447506,10.580368342525214,43.38190073527359,-0.2156,-0.8991,0.0922,0.3696
197,1743511.0,98.19436999999999,1.0,-5.83,4.52,-6.11,17.75,-32.75,19.06,5.0,0.81,1.63,0.1367874752578615,0.1747184273691147,0.23052538417809565,-128.0800345447506,10.580368342525214,43.38190073527359,-0.2156,-0.8991,0.0922,0.3696
198,1743546.0,98.266666,1.0,-5.92,4.55,-6.07,19.25,-32.75,17.06,-2.5,2.38,-1.25,0.038794342115697315,0.17883212066610102,0.1858229008552552,-128.18484420355122,10.281191618255797,43.25860308220909,-0.217,-0.8995,0.0896,0.3686
199,1743546.0,98.266666,1.0,-5.92,4.55,-6.07,19.25,-32.75,17.06,-2.5,2.38,-1.25,0.038794342115697315,0.17883212066610102,0.1858229008552552,-128.18484420355122,10.281191618255797,43.25860308220909,-0.217,-0.8995,0.0896,0.3686
200,1743581.0,98.287663,1.0,-5.99,4.52,-6.07,19.25,-32.75,17.06,-0.31,3.44,0.19,-0.03070130378277483,0.11783675521762538,0.1557136760433533,-128.2635811405088,10.235170717586842,43.11071528826148,-0.2178,-0.8998,0.0892,0.3674
201,1743581.0,98.287663,1.0,-5.99,4.52,-6.07,19.25,-32.75,17.06,-0.31,3.44,0.19,-0.03070130378277483,0.11783675521762538,0.1557136760433533,-128.2635811405088,10.235170717586842,43.11071528826148,-0.2178,-0.8998,0.0892,0.3674
202,1743618.0,98.291184,1.0,-5.82,4.65,-6.34,18.5,-33.19,17.06,-0.81,2.38,1.69,0.25648837166631466,0.1845130503685728,0.029601946039967686,-128.39505791682004,10.085614182042526,42.91364872106161,-0.2191,-0.9003,0.0879,0.3658
203,1743618.0,98.291184,1.0,-5.82,4.65,-6.34,18.5,-33.19,17.06,-0.81,2.38,1.69,0.25648837166631466,0.1845130503685728,0.029601946039967686,-128.39505791682004,10.085614182042526,42.91364872106161,-0.2191,-0.9003,0.0879,0.3658
204,1743652.0,98.342414,1.0,-5.76,4.68,-6.34,18.06,-32.0,18.25,-2.5,1.12,0.88,0.2800249930196358,0.2047037534116991,0.05189308982414609,-128.4213907260083,10.13162973120474,42.778242722959625,-0.2203,-0.9004,0.0883,0.3647
205,1743652.0,98.342414,1.0,-5.76,4.68,-6.34,18.06,-32.0,18.25,-2.5,1.12,0.88,0.2800249930196358,0.2047037534116991,0.05189308982414609,-128.4213907260083,10.13162973120474,42.778242722959625,-0.2203,-0.9004,0.0883,0.3647
206,1743687.0,98.36293,1.0,-5.89,4.61,-6.19,18.06,-32.0,18.25,0.12,-1.88,-1.19,0.08512883074899448,0.14019012279289988,0.0992610713721458,-128.3687376178253,10.120125690641805,42.778242722959625,-0.2209,-0.9002,0.0882,0.3647
207,1743687.0,98.36293,1.0,-5.89,4.61,-6.19,18.06,-32.0,18.25,0.12,-1.88,-1.19,0.08512883074899448,0.14019012279289988,0.0992610713721458,-128.3687376178253,10.120125690641805,42.778242722959625,-0.2209,-0.9002,0.0882,0.3647
208,1743720.0,98.427786,1.0,-6.05,4.52,-6.17,18.06,-32.0,18.25,1.25,-1.19,-0.06,-0.03900349720718877,0.016246361486385474,0.054726354741898575,-128.3424298098244,10.14313387414705,42.815165407712406,-0.2208,-0.9001,0.0884,0.365
209,1743720.0,98.427786,1.0,-6.05,4.52,-6.17,18.06,-32.0,18.25,1.25,-1.19,-0.06,-0.03900349720718877,0.016246361486385474,0.054726354741898575,-128.3424298098244,10.14313387414705,42.815165407712406,-0.2208,-0.9001,0.0884,0.365
210,1743757.0,98.431899,1.0,-5.88,4.62,-6.21,18.06,-32.75,18.25,-2.0,1.19,0.88,0.10548351145820696,0.13726601837463592,0.08796020821170457,-128.3424298098244,10.13162973120474,42.76593619701882,-0.2213,-0.9001,0.0883,0.3646
211,1743757.0,98.431899,1.0,-5.88,4.62,-6.21,18.06,-32.75,18.25,-2.0,1.19,0.88,0.10548351145820696,0.13726601837463592,0.08796020821170457,-128.3424298098244,10.13162973120474,42.76593619701882,-0.2213,-0.9001,0.0883,0.3646
212,1743790.0,98.483251,1.0,-5.83,4.8,-6.3,18.06,-32.75,18.25,-2.81,1.19,-0.31,0.20149447420406064,0.2711040858236995,-0.022124214087682503,-128.3424298098244,10.10862175233956,42.72901972322527,-0.222,-0.9001,0.0881,0.3643
213,1743790.0,98.483251,1.0,-5.83,4.8,-6.3,18.06,-32.75,18.25,-2.81,1.19,-0.31,0.20149447420406064,0.2711040858236995,-0.022124214087682503,-128.3424298098244,10.10862175233956,42.72901972322527,-0.222,-0.9001,0.0881,0.3643
214,1743824.0,98.503388,1.0,-5.82,4.72,-6.35,18.06,-33.5,17.87,1.12,-0.56,-1.25,0.2377702674986439,0.17945038868764485,-0.01091399815623717,-128.3687376178253,10.074110549810433,42.679804993171246,-0.2225,-0.9002,0.0878,0.3639
215,1743824.0,98.503388,1.0,-5.82,4.72,-6.35,18.06,-33.5,17.87,1.12,-0.56,-1.25,0.2377702674986439,0.17945038868764485,-0.01091399815623717,-128.3687376178253,10.074110549810433,42.679804993171246,-0.2225,-0.9002,0.0878,0.3639
216,1743859.0,98.555134,1.0,-5.83,4.71,-6.36,18.5,-33.19,17.87,-0.06,0.0,-0.94,0.23428221032098795,0.16794774731067494,-0.01880191836489331,-128.39505791682004,10.005090889774307,42.64289936464318,-0.2225,-0.9003,0.0872,0.3636
217,1743859.0,98.555134,1.0,-5.83,4.71,-6.36,18.5,-33.19,17.87,-0.06,0.0,-0.94,0.23428221032098795,0.16794774731067494,-0.01880191836489331,-128.39505791682004,10.005090889774307,42.64289936464318,-0.2225,-0.9003,0.0872,0.3636
218,1743894.0,98.574043,1.0,-5.97,4.69,-6.1,18.5,-33.19,18.69,-0.88,-1.44,-1.0,-0.03884604600216027,0.19423580169662724,0.06972217660266011,-128.3687376178253,9.993587967554063,42.69210790112656,-0.2225,-0.9002,0.0871,0.364
219,1743894.0,98.574043,1.0,-5.97,4.69,-6.1,18.5,-33.19,18.69,-0.88,-1.44,-1.0,-0.03884604600216027,0.19423580169662724,0.06972217660266011,-128.3687376178253,9.993587967554063,42.69210790112656,-0.2225,-0.9002,0.0871,0.364
220,1743929.0,98.62065600000001,1.0,-5.89,4.56,-6.3,18.5,-33.19,18.69,0.06,0.75,-1.37,0.1595332649626521,0.04224849814398679,0.052242575570009116,-128.39505791682004,9.947577287046574,42.70441132531611,-0.2224,-0.9003,0.0867,0.3641
221,1743929.0,98.62065600000001,1.0,-5.89,4.56,-6.3,18.5,-33.19,18.69,0.06,0.75,-1.37,0.1595332649626521,0.04224849814398679,0.052242575570009116,-128.39505791682004,9.947577287046574,42.70441132531611,-0.2224,-0.9003,0.0867,0.3641
222,1743966.0,98.639444,1.0,-5.91,4.62,-6.23,18.06,-32.75,19.06,0.19,0.81,-0.06,0.09654464156615823,0.11618628257520668,0.056645903594386475,-128.39505791682004,9.947577287046574,42.70441132531611,-0.2222,-0.9003,0.0867,0.3641
223,1743966.0,98.639444,1.0,-5.91,4.62,-6.23,18.06,-32.75,19.06,0.19,0.81,-0.06,0.09654464156615823,0.11618628257520668,0.056645903594386475,-128.39505791682004,9.947577287046574,42.70441132531611,-0.2222,-0.9003,0.0867,0.3641
224,1744001.0,98.690105,1.0,-5.92,4.49,-6.07,17.69,-31.69,17.87,1.19,-0.44,1.37,-0.02505087430750022,0.05014067295095437,0.2124716419219883,-128.39505791682004,9.970582425862727,42.69210790112656,-0.2222,-0.9003,0.0869,0.364
225,1744001.0,98.690105,1.0,-5.92,4.49,-6.07,17.69,-31.69,17.87,1.19,-0.44,1.37,-0.02505087430750022,0.05014067295095437,0.2124716419219883,-128.39505791682004,9.970582425862727,42.69210790112656,-0.2222,-0.9003,0.0869,0.364
226,1744033.0,98.75725899999999,1.0,-5.93,4.56,-6.17,17.69,-31.69,17.87,-2.38,1.88,1.75,0.03183588775514001,0.06395248576346503,0.110140496275708,-128.39505791682004,10.005090889774307,42.65520072513622,-0.2227,-0.9003,0.0872,0.3637
227,1744033.0,98.75725899999999,1.0,-5.93,4.56,-6.17,17.69,-31.69,17.87,-2.38,1.88,1.75,0.03183588775514001,0.06395248576346503,0.110140496275708,-128.39505791682004,10.005090889774307,42.65520072513622,-0.2227,-0.9003,0.0872,0.3637
228,1744068.0,98.777226,1.0,-5.92,4.78,-6.22,17.75,-33.19,17.06,-0.63,1.81,1.63,0.06541201654670928,0.2259213489236669,-0.018210345683892012,-128.39505791682004,9.947577287046574,42.55680426104336,-0.2239,-0.9003,0.0867,0.3629
229,1744068.0,98.777226,1.0,-5.92,4.78,-6.22,17.75,-33.19,17.06,-0.63,1.81,1.63,0.06541201654670928,0.2259213489236669,-0.018210345683892012,-128.39505791682004,9.947577287046574,42.55680426104336,-0.2239,-0.9003,0.0867,0.3629
230,1744105.0,98.780364,1.0,-5.85,4.79,-6.22,18.19,-33.19,17.87,-1.25,0.81,1.69,0.09972202099026692,0.23729342324797864,0.01947740778457252,-128.44773606463812,9.970582425862727,42.446147551916006,-0.2249,-0.9005,0.0869,0.36200000000000004
231,1744105.0,98.780364,1.0,-5.85,4.79,-6.22,18.19,-33.19,17.87,-1.25,0.81,1.69,0.09972202099026692,0.23729342324797864,0.01947740778457252,-128.44773606463812,9.970582425862727,42.446147551916006,-0.2249,-0.9005,0.0869,0.36200000000000004
232,1744140.0,98.828281,1.0,-5.91,4.83,-6.19,18.19,-33.19,17.87,-0.56,0.69,0.19,0.0307624991026485,0.25119205674110523,-0.017252290804764314,-128.44773606463812,9.993587967554063,42.4092712076169,-0.2255,-0.9005,0.0871,0.3617
233,1744140.0,98.828281,1.0,-5.91,4.83,-6.19,18.19,-33.19,17.87,-0.56,0.69,0.19,0.0307624991026485,0.25119205674110523,-0.017252290804764314,-128.44773606463812,9.993587967554063,42.4092712076169,-0.2255,-0.9005,0.0871,0.3617
234,1744173.0,98.84735699999999,1.0,-5.84,4.65,-6.4,18.87,-33.19,18.69,-0.25,1.44,1.44,0.2078640635778501,0.04115463973521294,-0.02407727862497211,-128.5268474503853,9.982085146289721,42.298669773319475,-0.2256,-0.9008,0.087,0.3608
235,1744173.0,98.84735699999999,1.0,-5.84,4.65,-6.4,18.87,-33.19,18.69,-0.25,1.44,1.44,0.2078640635778501,0.04115463973521294,-0.02407727862497211,-128.5268474503853,9.982085146289721,42.298669773319475,-0.2256,-0.9008,0.087,0.3608
