,TIME,ELAPSED_SECONDS,PSTATE,acc_x,acc_y,acc_z,mag_x,mag_y,mag_z,gyr_x,gyr_y,gyr_z,lin_x,lin_y,lin_z,eul_x,eul_y,eul_z,qua_w,qua_x,qua_y,qua_z
0,522776.0,315.825834,1.0,-8.33,0.61,-4.79,31.25,-21.75,17.19,2.44,0.94,0.75,-0.447717322403606,-0.17164003039592432,0.19024792338187346,-122.18470178965723,-3.254837913384077,57.12276675948825,-0.0648,-0.8754,-0.0284,0.4781
1,522776.0,315.825834,1.0,-8.33,0.61,-4.79,31.25,-21.75,17.19,2.44,0.94,0.75,-0.447717322403606,-0.17164003039592432,0.19024792338187346,-122.18470178965723,-3.254837913384077,57.12276675948825,-0.0648,-0.8754,-0.0284,0.4781
2,522809.0,315.86769300000003,1.0,-8.24,0.56,-5.25,31.25,-21.75,17.19,2.94,5.19,1.88,-0.04915607683649345,-0.2751864029642571,0.02423945230094837,-122.37462983210787,-3.163128706652845,56.966262181573775,-0.0639,-0.8762,-0.0276,0.4769
3,522809.0,315.86769300000003,1.0,-8.24,0.56,-5.25,31.25,-21.75,17.19,2.94,5.19,1.88,-0.04915607683649345,-0.2751864029642571,0.02423945230094837,-122.37462983210787,-3.163128706652845,56.966262181573775,-0.0639,-0.8762,-0.0276,0.4769
4,522844.0,315.93131800000003,1.0,-8.14,0.85,-5.33,32.06,-22.19,17.19,-0.12,2.25,2.25,0.09138073262470756,-0.0026497210429752838,0.04024623296868768,-122.44600053491276,-3.094348134689141,56.90108617541996,-0.0639,-0.8765,-0.027000000000000003,0.4764
5,522844.0,315.93131800000003,1.0,-8.14,0.85,-5.33,32.06,-22.19,17.19,-0.12,2.25,2.25,0.09138073262470756,-0.0026497210429752838,0.04024623296868768,-122.44600053491276,-3.094348134689141,56.90108617541996,-0.0639,-0.8765,-0.027000000000000003,0.4764
6,522881.0,315.944238,1.0,-8.25,0.92,-4.87,31.25,-22.19,17.19,0.0,-0.5,2.75,-0.3431490647128125,0.11406559715214935,0.18921594725323487,-122.44600053491276,-3.0026424356334624,56.91411976899951,-0.0643,-0.8765,-0.0262,0.4765
7,522881.0,315.944238,1.0,-8.25,0.92,-4.87,31.25,-22.19,17.19,0.0,-0.5,2.75,-0.3431490647128125,0.11406559715214935,0.18921594725323487,-122.44600053491276,-3.0026424356334624,56.91411976899951,-0.0643,-0.8765,-0.0262,0.4765
8,522915.0,316.00084300000003,1.0,-8.19,1.01,-5.01,31.25,-22.19,17.19,0.31,3.5,4.06,-0.1933364452212703,0.16846913834232125,0.15623347176789615,-122.46980875996977,-2.9224015288032215,56.861990212559824,-0.0649,-0.8766,-0.0255,0.4761
9,522915.0,316.00084300000003,1.0,-8.19,1.01,-5.01,31.25,-22.19,17.19,0.31,3.5,4.06,-0.1933364452212703,0.16846913834232125,0.15623347176789615,-122.46980875996977,-2.9224015288032215,56.861990212559824,-0.0649,-0.8766,-0.0255,0.4761
10,522948.0,316.020451,1.0,-7.97,1.06,-5.68,32.06,-21.37,16.0,-4.19,4.0,2.63,0.4641672588858565,0.09865326071426883,-0.0260361177365418,-122.58898532309729,-2.87655022805785,56.71870005631496,-0.0665,-0.8771,-0.0251,0.475
11,522948.0,316.020451,1.0,-7.97,1.06,-5.68,32.06,-21.37,16.0,-4.19,4.0,2.63,0.4641672588858565,0.09865326071426883,-0.0260361177365418,-122.58898532309729,-2.87655022805785,56.71870005631496,-0.0665,-0.8771,-0.0251,0.475
12,522985.0,316.023638,1.0,-8.14,0.96,-5.36,31.69,-21.75,17.56,-2.06,1.12,0.0,0.09465929354770704,0.027655940544114133,0.013740587210678612,-122.58898532309729,-2.8994758203914888,56.71870005631496,-0.0674,-0.8771,-0.0253,0.475
13,522985.0,316.023638,1.0,-8.14,0.96,-5.36,31.69,-21.75,17.56,-2.06,1.12,0.0,0.09465929354770704,0.027655940544114133,0.013740587210678612,-122.58898532309729,-2.8994758203914888,56.71870005631496,-0.0674,-0.8771,-0.0253,0.475
14,523018.0,316.068815,1.0,-8.08,0.81,-5.38,31.69,-21.75,17.56,1.94,-0.37,1.44,0.1257087840948074,-0.12348197582456087,0.06725322693197633,-122.58898532309729,-2.8421620551927376,56.70567847737765,-0.0672,-0.8771,-0.0248,0.4749
15,523018.0,316.068815,1.0,-8.08,0.81,-5.38,31.69,-21.75,17.56,1.94,-0.37,1.44,0.1257087840948074,-0.12348197582456087,0.06725322693197633,-122.58898532309729,-2.8421620551927376,56.70567847737765,-0.0672,-0.8771,-0.0248,0.4749
16,523053.0,316.127922,1.0,-8.14,0.99,-5.32,32.06,-22.19,17.19,-6.31,-3.19,2.38,0.06747670609838778,0.04023937600438432,0.0324018096401435,-122.54128756505699,-2.87655022805785,56.731722434017684,-0.0686,-0.8769,-0.0251,0.4751
17,523053.0,316.127922,1.0,-8.14,0.99,-5.32,32.06,-22.19,17.19,-6.31,-3.19,2.38,0.06747670609838778,0.04023937600438432,0.0324018096401435,-122.54128756505699,-2.87655022805785,56.731722434017684,-0.0686,-0.8769,-0.0251,0.4751
18,523087.0,316.135077,1.0,-8.23,1.11,-5.08,31.69,-22.87,16.37,-3.63,-1.56,1.75,-0.15594490764893512,0.16475659265202458,0.07423321633541491,-122.44600053491276,-2.888013009772368,56.7968463150502,-0.0702,-0.8765,-0.0252,0.4756
19,523087.0,316.135077,1.0,-8.23,1.11,-5.08,31.69,-22.87,16.37,-3.63,-1.56,1.75,-0.15594490764893512,0.16475659265202458,0.07423321633541491,-122.44600053491276,-2.888013009772368,56.7968463150502,-0.0702,-0.8765,-0.0252,0.4756
20,523122.0,316.191322,1.0,-8.19,1.09,-5.26,31.25,-22.87,17.19,-2.06,1.75,-0.44,0.007326984220254289,0.11390324592317735,0.012837036405567659,-122.46980875996977,-2.9224015288032215,56.75776958698043,-0.0707,-0.8766,-0.0255,0.4753
21,523122.0,316.191322,1.0,-8.19,1.09,-5.26,31.25,-22.87,17.19,-2.06,1.75,-0.44,0.007326984220254289,0.11390324592317735,0.012837036405567659,-122.46980875996977,-2.9224015288032215,56.75776958698043,-0.0707,-0.8766,-0.0255,0.4753
22,523157.0,316.20727400000004,1.0,-8.19,1.01,-5.2,31.25,-22.87,17.19,0.5,-1.5,0.37,-0.04886298329129575,0.040099959450342726,0.053076070300388516,-122.44600053491276,-2.9224015288032215,56.77079436287129,-0.0709,-0.8765,-0.0255,0.4754
23,523157.0,316.20727400000004,1.0,-8.19,1.01,-5.2,31.25,-22.87,17.19,0.5,-1.5,0.37,-0.04886298329129575,0.040099959450342726,0.053076070300388516,-122.44600053491276,-2.9224015288032215,56.77079436287129,-0.0709,-0.8765,-0.0255,0.4754
24,523194.0,316.25292,1.0,-8.04,0.98,-5.46,30.87,-22.19,17.19,0.5,0.75,-1.0,0.24298755786066276,-0.02111755680994809,0.04170703572625811,-122.46980875996977,-2.9224015288032215,56.75776958698043,-0.0707,-0.8766,-0.0255,0.4753
25,523194.0,316.25292,1.0,-8.04,0.98,-5.46,30.87,-22.19,17.19,0.5,0.75,-1.0,0.24298755786066276,-0.02111755680994809,0.04170703572625811,-122.46980875996977,-2.9224015288032215,56.75776958698043,-0.0707,-0.8766,-0.0255,0.4753
26,523227.0,316.27187599999996,1.0,-8.13,0.98,-5.22,32.06,-22.19,17.19,-1.94,0.0,-0.63,-0.004940187606467797,0.015195932351240615,0.09555095415630356,-122.46980875996977,-2.956790311078442,56.75776958698043,-0.0707,-0.8766,-0.0258,0.4753
27,523227.0,316.27187599999996,1.0,-8.13,0.98,-5.22,32.06,-22.19,17.19,-1.94,0.0,-0.63,-0.004940187606467797,0.015195932351240615,0.09555095415630356,-122.46980875996977,-2.956790311078442,56.75776958698043,-0.0707,-0.8766,-0.0258,0.4753
28,523261.0,316.316997,1.0,-8.21,1.24,-5.07,32.06,-22.19,17.19,-3.69,-5.19,0.63,-0.12654426743333458,0.2754093127059151,0.0827240305751662,-122.35085755126808,-3.025568677774776,56.84895982984303,-0.07200000000000001,-0.8761,-0.0264,0.47600000000000003
29,523261.0,316.316997,1.0,-8.21,1.24,-5.07,32.06,-22.19,17.19,-3.69,-5.19,0.63,-0.12654426743333458,0.2754093127059151,0.0827240305751662,-122.35085755126808,-3.025568677774776,56.84895982984303,-0.07200000000000001,-0.8761,-0.0264,0.47600000000000003
30,523296.0,316.336787,1.0,-8.34,0.91,-5.15,31.69,-22.19,17.19,1.94,-2.19,-2.19,-0.15284662275457464,-0.062269289190177934,-0.03606103129296834,-122.25585789752888,-3.0370318442136965,56.940189367000634,-0.0718,-0.8757,-0.0265,0.4767
31,523296.0,316.336787,1.0,-8.34,0.91,-5.15,31.69,-22.19,17.19,1.94,-2.19,-2.19,-0.15284662275457464,-0.062269289190177934,-0.03606103129296834,-122.25585789752888,-3.0370318442136965,56.940189367000634,-0.0718,-0.8757,-0.0265,0.4767
32,523333.0,316.397202,1.0,-8.46,1.62,-4.73,32.06,-22.56,17.19,-10.19,-4.13,-1.25,-0.4453597658755864,0.6826755147390361,0.013565255114194484,-122.01898118079964,-3.1860558160551733,57.148862161344155,-0.0735,-0.8747,-0.0278,0.4783
33,523333.0,316.397202,1.0,-8.46,1.62,-4.73,32.06,-22.56,17.19,-10.19,-4.13,-1.25,-0.4453597658755864,0.6826755147390361,0.013565255114194484,-122.01898118079964,-3.1860558160551733,57.148862161344155,-0.0735,-0.8747,-0.0278,0.4783
34,523368.0,316.44593399999997,1.0,-8.72,2.22,-3.85,32.06,-22.56,17.19,-11.44,-5.44,-7.88,-1.2055151781970974,1.3982779840204245,0.19515418329486775,-121.78298489723478,-3.4611913427691,57.31856128888758,-0.0756,-0.8737,-0.0302,0.4796
35,523368.0,316.44593399999997,1.0,-8.72,2.22,-3.85,32.06,-22.56,17.19,-11.44,-5.44,-7.88,-1.2055151781970974,1.3982779840204245,0.19515418329486775,-121.78298489723478,-3.4611913427691,57.31856128888758,-0.0756,-0.8737,-0.0302,0.4796
36,523401.0,316.463325,1.0,-9.02,2.88,-4.25,31.69,-22.19,16.37,-1.5,0.0,-29.69,-0.9029050873081697,2.064863422323675,-0.3244112203491678,-121.66531355494112,-4.2867240536107065,57.37080402823785,-0.0753,-0.8732,-0.0374,0.48
37,523401.0,316.463325,1.0,-9.02,2.88,-4.25,31.69,-22.19,16.37,-1.5,0.0,-29.69,-0.9029050873081697,2.064863422323675,-0.3244112203491678,-121.66531355494112,-4.2867240536107065,57.37080402823785,-0.0753,-0.8732,-0.0374,0.48
38,523436.0,316.509703,1.0,-8.75,1.74,-3.49,32.06,-21.75,16.0,-4.69,20.06,-31.94,-1.5746510460203351,1.2219073236899414,0.4366117623202843,-121.97171183603344,-5.192774664418371,57.04449995014843,-0.0716,-0.8745,-0.0453,0.4775
39,523436.0,316.509703,1.0,-8.75,1.74,-3.49,32.06,-21.75,16.0,-4.69,20.06,-31.94,-1.5746510460203351,1.2219073236899414,0.4366117623202843,-121.97171183603344,-5.192774664418371,57.04449995014843,-0.0716,-0.8745,-0.0453,0.4775
40,523472.0,316.52750499999996,1.0,-8.41,1.4,-3.71,32.06,-21.75,16.0,-7.63,21.06,-43.56,-1.313596175510248,1.0547537227431834,0.662572152997372,-122.46980875996977,-6.7533514707706495,56.41940519214721,-0.0681,-0.8766,-0.0589,0.4727
41,523472.0,316.52750499999996,1.0,-8.41,1.4,-3.71,32.06,-21.75,16.0,-7.63,21.06,-43.56,-1.313596175510248,1.0547537227431834,0.662572152997372,-122.46980875996977,-6.7533514707706495,56.41940519214721,-0.0681,-0.8766,-0.0589,0.4727
42,523507.0,316.572209,1.0,-8.0,1.46,-4.16,32.06,-21.75,16.0,-10.5,44.13,-43.25,-0.8673255635535175,1.2695832518489951,0.8025895418827194,-123.62341692773377,-8.556479215940191,55.04539979611062,-0.063,-0.8814,-0.0746,0.4621
43,523507.0,316.572209,1.0,-8.0,1.46,-4.16,32.06,-21.75,16.0,-10.5,44.13,-43.25,-0.8673255635535175,1.2695832518489951,0.8025895418827194,-123.62341692773377,-8.556479215940191,55.04539979611062,-0.063,-0.8814,-0.0746,0.4621
44,523544.0,316.59238,1.0,-7.75,0.69,-4.02,33.56,-20.69,16.37,-6.69,61.0,-59.19,-1.1710586894532657,0.797798460420326,1.1642464476074732,-124.9229107357918,-10.350226089325556,53.500200054022216,-0.055999999999999994,-0.8867,-0.0902,0.4501
45,523544.0,316.59238,1.0,-7.75,0.69,-4.02,33.56,-20.69,16.37,-6.69,61.0,-59.19,-1.1710586894532657,0.797798460420326,1.1642464476074732,-124.9229107357918,-10.350226089325556,53.500200054022216,-0.055999999999999994,-0.8867,-0.0902,0.4501
46,523579.0,316.637673,1.0,-7.36,0.6,-5.42,33.19,-20.37,17.56,-6.63,55.88,-56.63,-0.14401076210397826,0.7445904423041394,0.6780769475658133,-126.60729740721462,-12.572987144073346,51.31619778683095,-0.0476,-0.8934,-0.1095,0.433
47,523579.0,316.637673,1.0,-7.36,0.6,-5.42,33.19,-20.37,17.56,-6.63,55.88,-56.63,-0.14401076210397826,0.7445904423041394,0.6780769475658133,-126.60729740721462,-12.572987144073346,51.31619778683095,-0.0476,-0.8934,-0.1095,0.433
48,523614.0,316.655183,1.0,-6.63,0.41,-6.34,33.19,-20.37,17.56,-23.5,54.31,-58.19,0.7364549567269896,0.4846151994559356,0.6664430983391547,-127.7407542896587,-14.373061379793723,49.66917497940315,-0.0433,-0.8978,-0.1251,0.42
49,523614.0,316.655183,1.0,-6.63,0.41,-6.34,33.19,-20.37,17.56,-23.5,54.31,-58.19,0.7364549567269896,0.4846151994559356,0.6664430983391547,-127.7407542896587,-14.373061379793723,49.66917497940315,-0.0433,-0.8978,-0.1251,0.42
50,523649.0,316.69744199999997,1.0,-6.41,-0.16,-6.31,33.19,-18.37,19.25,-4.63,55.13,-62.63,0.44062049236401213,0.21699753773792124,0.8239685712547633,-128.95070405160268,-16.83671699887327,47.619376147320615,-0.0349,-0.9024,-0.1464,0.4037
51,523649.0,316.69744199999997,1.0,-6.41,-0.16,-6.31,33.19,-18.37,19.25,-4.63,55.13,-62.63,0.44062049236401213,0.21699753773792124,0.8239685712547633,-128.95070405160268,-16.83671699887327,47.619376147320615,-0.0349,-0.9024,-0.1464,0.4037
52,523685.0,316.756068,1.0,-6.11,-0.99,-6.47,33.75,-17.69,20.87,-8.19,56.94,-54.31,0.28849666053382417,-0.44305831568397946,0.8683297436115502,-129.86249210271768,-18.506668239532367,46.045923884135675,-0.0286,-0.9058,-0.1608,0.3911
53,523685.0,316.756068,1.0,-6.11,-0.99,-6.47,33.75,-17.69,20.87,-8.19,56.94,-54.31,0.28849666053382417,-0.44305831568397946,0.8683297436115502,-129.86249210271768,-18.506668239532367,46.045923884135675,-0.0286,-0.9058,-0.1608,0.3911
54,523720.0,316.819568,1.0,-5.71,-1.27,-7.06,33.75,-17.69,20.87,-15.19,44.81,-47.0,0.593757074617749,-0.6878655860374808,0.6833340747518424,-130.79006103529238,-20.518219394705007,44.13516742855202,-0.0236,-0.9092,-0.1781,0.3757
55,523720.0,316.819568,1.0,-5.71,-1.27,-7.06,33.75,-17.69,20.87,-15.19,44.81,-47.0,0.593757074617749,-0.6878655860374808,0.6833340747518424,-130.79006103529238,-20.518219394705007,44.13516742855202,-0.0236,-0.9092,-0.1781,0.3757
56,523755.0,316.838265,1.0,-5.4,-1.13,-7.35,32.69,-16.25,21.69,-23.75,47.69,-43.13,0.8214621271311684,-0.5736080712760302,0.6712477781897217,-131.4269409010407,-21.987276416568136,42.65520072513622,-0.0222,-0.9115,-0.1907,0.3637
57,523755.0,316.838265,1.0,-5.4,-1.13,-7.35,32.69,-16.25,21.69,-23.75,47.69,-43.13,0.8214621271311684,-0.5736080712760302,0.6712477781897217,-131.4269409010407,-21.987276416568136,42.65520072513622,-0.0222,-0.9115,-0.1907,0.3637
58,523792.0,316.841212,1.0,-5.26,-1.74,-7.45,33.06,-15.06,21.69,-12.75,46.75,-35.06,0.4662736639247519,-1.0246506159361035,0.5908819915488355,-132.09998463629478,-23.928344197778117,40.77896631080099,-0.0204,-0.9139,-0.2073,0.3484
59,523792.0,316.841212,1.0,-5.26,-1.74,-7.45,33.06,-15.06,21.69,-12.75,46.75,-35.06,0.4662736639247519,-1.0246506159361035,0.5908819915488355,-132.09998463629478,-23.928344197778117,40.77896631080099,-0.0204,-0.9139,-0.2073,0.3484
60,523827.0,316.883261,1.0,-5.09,-1.59,-8.2,31.5,-14.75,22.87,-25.12,45.44,-27.06,0.8726235071290734,-0.9854970868950168,0.11420326522104672,-132.75344370342964,-25.018825462277388,39.327556017124884,-0.0201,-0.9162,-0.2166,0.3365
61,523827.0,316.883261,1.0,-5.09,-1.59,-8.2,31.5,-14.75,22.87,-25.12,45.44,-27.06,0.8726235071290734,-0.9854970868950168,0.11420326522104672,-132.75344370342964,-25.018825462277388,39.327556017124884,-0.0201,-0.9162,-0.2166,0.3365
62,523862.0,316.923197,1.0,-5.14,-1.93,-7.18,31.5,-14.75,22.87,-21.62,41.31,-20.62,-0.1693200725315813,-0.9960319398645744,0.8246596254890406,-133.3865649159552,-26.205728877683853,37.74944537405314,-0.0214,-0.9184,-0.2267,0.3235
63,523862.0,316.923197,1.0,-5.14,-1.93,-7.18,31.5,-14.75,22.87,-21.62,41.31,-20.62,-0.1693200725315813,-0.9960319398645744,0.8246596254890406,-133.3865649159552,-26.205728877683853,37.74944537405314,-0.0214,-0.9184,-0.2267,0.3235
64,523896.0,316.957152,1.0,-4.89,-1.09,-7.88,32.19,-14.25,24.69,-34.88,46.94,-14.38,0.5230701306365315,-0.4577392972270108,0.4947504959133085,-134.0866361818657,-27.077153605664893,36.23901092380315,-0.0256,-0.9208,-0.2341,0.311
65,523896.0,316.957152,1.0,-4.89,-1.09,-7.88,32.19,-14.25,24.69,-34.88,46.94,-14.38,0.5230701306365315,-0.4577392972270108,0.4947504959133085,-134.0866361818657,-27.077153605664893,36.23901092380315,-0.0256,-0.9208,-0.2341,0.311
66,523933.0,317.042452,1.0,-4.6,-1.21,-8.08,31.06,-14.25,24.69,-18.75,39.75,-13.44,0.4694065836469296,-0.6556497037310387,0.4653288447657804,-135.03608676528202,-28.0210345439132,34.29108977492126,-0.027999999999999997,-0.924,-0.2421,0.2948
67,523933.0,317.042452,1.0,-4.6,-1.21,-8.08,31.06,-14.25,24.69,-18.75,39.75,-13.44,0.4694065836469296,-0.6556497037310387,0.4653288447657804,-135.03608676528202,-28.0210345439132,34.29108977492126,-0.027999999999999997,-0.924,-0.2421,0.2948
68,523968.0,317.057858,1.0,-4.95,-1.48,-8.33,31.06,-14.25,24.69,-25.94,36.69,-9.88,0.027322759646973144,-0.7567322257102946,0.033809583551112965,-135.54829362030736,-28.56464145412097,33.11769717298479,-0.0301,-0.9257,-0.2467,0.285
69,523968.0,317.057858,1.0,-4.95,-1.48,-8.33,31.06,-14.25,24.69,-25.94,36.69,-9.88,0.027322759646973144,-0.7567322257102946,0.033809583551112965,-135.54829362030736,-28.56464145412097,33.11769717298479,-0.0301,-0.9257,-0.2467,0.285
70,524003.0,317.062817,1.0,-4.52,-0.84,-8.18,30.56,-14.69,24.69,-27.87,45.5,-7.5,0.2532464302151165,-0.3272852076019656,0.4323686601602219,-136.311888173766,-29.464221664430085,31.24523405697452,-0.0347,-0.9282,-0.2543,0.2693
71,524003.0,317.062817,1.0,-4.52,-0.84,-8.18,30.56,-14.69,24.69,-27.87,45.5,-7.5,0.2532464302151165,-0.3272852076019656,0.4323686601602219,-136.311888173766,-29.464221664430085,31.24523405697452,-0.0347,-0.9282,-0.2543,0.2693
72,524038.0,317.10994300000004,1.0,-4.3,-0.89,-8.8,28.75,-14.69,26.69,-15.38,52.06,-4.69,0.34249936595532643,-0.5066888384546578,-0.009054794119760956,-137.4975120486347,-29.92656655764556,29.168105022171197,-0.0357,-0.932,-0.2582,0.2518
73,524038.0,317.10994300000004,1.0,-4.3,-0.89,-8.8,28.75,-14.69,26.69,-15.38,52.06,-4.69,0.34249936595532643,-0.5066888384546578,-0.009054794119760956,-137.4975120486347,-29.92656655764556,29.168105022171197,-0.0357,-0.932,-0.2582,0.2518
74,524075.0,317.12729900000005,1.0,-4.11,-1.0,-9.15,29.06,-16.19,25.87,-32.63,37.63,6.13,0.3449818780785166,-0.7613383555615186,-0.2390431772848931,-138.1664535645985,-30.21133398212997,27.855717200127586,-0.0395,-0.9341,-0.2606,0.2407
75,524075.0,317.12729900000005,1.0,-4.11,-1.0,-9.15,29.06,-16.19,25.87,-32.63,37.63,6.13,0.3449818780785166,-0.7613383555615186,-0.2390431772848931,-138.1664535645985,-30.21133398212997,27.855717200127586,-0.0395,-0.9341,-0.2606,0.2407
76,524109.0,317.16648100000003,1.0,-3.93,0.02,-9.44,29.06,-16.19,25.87,-31.37,36.75,3.69,0.7869242344781273,-0.08744943774438774,-0.3880546472680706,-139.1073977684417,-30.401284991821623,26.123377437941194,-0.0471,-0.937,-0.2622,0.226
77,524109.0,317.16648100000003,1.0,-3.93,0.02,-9.44,29.06,-16.19,25.87,-31.37,36.75,3.69,0.7869242344781273,-0.08744943774438774,-0.3880546472680706,-139.1073977684417,-30.401284991821623,26.123377437941194,-0.0471,-0.937,-0.2622,0.226
78,524144.0,317.22339,1.0,-4.05,-0.73,-9.27,29.0,-15.38,28.0,-16.75,38.13,3.13,0.02735853815047204,-0.6226874871938767,-0.3165812926102056,-139.5359915492729,-30.805215870860085,24.924931536010146,-0.0499,-0.9383,-0.2656,0.2158
79,524144.0,317.22339,1.0,-4.05,-0.73,-9.27,29.0,-15.38,28.0,-16.75,38.13,3.13,0.02735853815047204,-0.6226874871938767,-0.3165812926102056,-139.5359915492729,-30.805215870860085,24.924931536010146,-0.0499,-0.9383,-0.2656,0.2158
80,524181.0,317.240743,1.0,-3.57,-0.27,-9.49,27.19,-16.25,29.06,-21.0,35.25,9.25,0.4356400237465384,-0.5055615464690277,-0.31424547878259546,-140.40650617828152,-30.84087559172584,23.38978453262475,-0.0538,-0.9409,-0.2659,0.2027
81,524181.0,317.240743,1.0,-3.57,-0.27,-9.49,27.19,-16.25,29.06,-21.0,35.25,9.25,0.4356400237465384,-0.5055615464690277,-0.31424547878259546,-140.40650617828152,-30.84087559172584,23.38978453262475,-0.0538,-0.9409,-0.2659,0.2027
82,524216.0,317.28265899999997,1.0,-3.7,-0.59,-9.87,27.19,-16.25,29.06,-23.12,32.69,6.0,0.09518137176242704,-0.7978355071689659,-0.7199543437553899,-141.02009032147248,-30.84087559172584,22.314222150985408,-0.0566,-0.9427,-0.2659,0.1935
83,524216.0,317.28265899999997,1.0,-3.7,-0.59,-9.87,27.19,-16.25,29.06,-23.12,32.69,6.0,0.09518137176242704,-0.7978355071689659,-0.7199543437553899,-141.02009032147248,-30.84087559172584,22.314222150985408,-0.0566,-0.9427,-0.2659,0.1935
84,524251.0,317.344804,1.0,-3.64,0.25,-9.84,26.5,-17.0,29.06,-28.44,25.19,12.69,0.3010616427982934,-0.18819721147081464,-0.6819935584793448,-141.64310130769366,-30.817102104618424,21.007514103633174,-0.064,-0.9445,-0.2657,0.1823
85,524251.0,317.344804,1.0,-3.64,0.25,-9.84,26.5,-17.0,29.06,-28.44,25.19,12.69,0.3010616427982934,-0.18819721147081464,-0.6819935584793448,-141.64310130769366,-30.817102104618424,21.007514103633174,-0.064,-0.9445,-0.2657,0.1823
86,524285.0,317.351784,1.0,-3.06,-0.57,-10.08,25.69,-18.5,29.06,-15.63,20.87,25.56,0.25297216718618337,-1.2426534915975236,-0.6664926698221585,-142.34696199162144,-30.413159765182687,20.23879269230359,-0.0668,-0.9465,-0.2623,0.1757
87,524285.0,317.351784,1.0,-3.06,-0.57,-10.08,25.69,-18.5,29.06,-15.63,20.87,25.56,0.25297216718618337,-1.2426534915975236,-0.6664926698221585,-142.34696199162144,-30.413159765182687,20.23879269230359,-0.0668,-0.9465,-0.2623,0.1757
88,524322.0,317.371996,1.0,-3.16,0.14,-9.42,24.56,-18.87,28.25,-37.69,14.69,29.62,0.10989517654639767,-0.6256334617884627,-0.1099071556696245,-143.20870960086745,-29.701259829199124,19.215254308568724,-0.078,-0.9489,-0.2563,0.1669
89,524322.0,317.371996,1.0,-3.16,0.14,-9.42,24.56,-18.87,28.25,-37.69,14.69,29.62,0.10989517654639767,-0.6256334617884627,-0.1099071556696245,-143.20870960086745,-29.701259829199124,19.215254308568724,-0.078,-0.9489,-0.2563,0.1669
90,524357.0,317.409923,1.0,-3.26,1.66,-10.02,24.56,-18.87,28.25,-29.31,12.75,26.37,0.7738470466761791,0.40549859911788894,-0.8244520893632643,-143.75733722307018,-29.12074488446725,18.471838381894354,-0.08800000000000001,-0.9504,-0.2514,0.1605
91,524357.0,317.409923,1.0,-3.26,1.66,-10.02,24.56,-18.87,28.25,-29.31,12.75,26.37,0.7738470466761791,0.40549859911788894,-0.8244520893632643,-143.75733722307018,-29.12074488446725,18.471838381894354,-0.08800000000000001,-0.9504,-0.2514,0.1605
92,524394.0,317.48310699999996,1.0,-3.01,0.01,-9.78,23.5,-21.19,28.25,-14.44,10.63,25.0,-0.02445227696574725,-1.1223621487532849,-0.3643040011346557,-144.57683474921032,-28.34002932498839,17.972797887176398,-0.0913,-0.9526,-0.2448,0.1562
93,524394.0,317.48310699999996,1.0,-3.01,0.01,-9.78,23.5,-21.19,28.25,-14.44,10.63,25.0,-0.02445227696574725,-1.1223621487532849,-0.3643040011346557,-144.57683474921032,-28.34002932498839,17.972797887176398,-0.0913,-0.9526,-0.2448,0.1562
94,524429.0,317.501273,1.0,-3.0,0.64,-9.42,23.5,-20.75,29.5,-35.5,11.81,34.63,0.054136713953224336,-0.6255314558399374,-0.08029996517920601,-145.03166189361892,-27.82029976108695,17.33498950133432,-0.0992,-0.9538,-0.2404,0.1507
95,524429.0,317.501273,1.0,-3.0,0.64,-9.42,23.5,-20.75,29.5,-35.5,11.81,34.63,0.054136713953224336,-0.6255314558399374,-0.08029996517920601,-145.03166189361892,-27.82029976108695,17.33498950133432,-0.0992,-0.9538,-0.2404,0.1507
96,524464.0,317.504304,1.0,-3.01,1.74,-9.77,23.5,-20.75,29.5,-19.5,3.56,33.13,0.4664534805861609,0.032444510048377666,-0.5529816780190959,-145.84171829017612,-26.641245110498453,16.651395613206027,-0.1102,-0.9559,-0.2304,0.1448
97,524464.0,317.504304,1.0,-3.01,1.74,-9.77,23.5,-20.75,29.5,-19.5,3.56,33.13,0.4664534805861609,0.032444510048377666,-0.5529816780190959,-145.84171829017612,-26.641245110498453,16.651395613206027,-0.1102,-0.9559,-0.2304,0.1448
98,524498.0,317.591032,1.0,-2.86,0.78,-9.29,22.69,-22.25,29.06,-5.88,11.38,30.25,-0.09054960163269464,-0.7885074000583996,0.08748558891520197,-146.7508698708792,-25.71182517460623,16.0609738361326,-0.1136,-0.9582,-0.2225,0.1397
99,524498.0,317.591032,1.0,-2.86,0.78,-9.29,22.69,-22.25,29.06,-5.88,11.38,30.25,-0.09054960163269464,-0.7885074000583996,0.08748558891520197,-146.7508698708792,-25.71182517460623,16.0609738361326,-0.1136,-0.9582,-0.2225,0.1397
100,524535.0,317.603165,1.0,-2.98,1.19,-9.2,21.56,-23.37,29.5,-23.94,14.25,38.75,-0.1648481961680198,-0.4462101879811921,0.07473232975833888,-147.4795905833761,-24.842788298368426,15.436288478593855,-0.1187,-0.96,-0.2151,0.1343
101,524535.0,317.603165,1.0,-2.98,1.19,-9.2,21.56,-23.37,29.5,-23.94,14.25,38.75,-0.1648481961680198,-0.4462101879811921,0.07473232975833888,-147.4795905833761,-24.842788298368426,15.436288478593855,-0.1187,-0.96,-0.2151,0.1343
102,524570.0,317.648896,1.0,-2.61,1.83,-9.54,21.56,-23.37,29.5,-19.69,1.94,46.31,0.33415757394524737,-0.2829582023009061,-0.2422739907328175,-148.5189029496625,-23.31957649574687,14.788953503219902,-0.1273,-0.9625,-0.2021,0.1287
103,524570.0,317.648896,1.0,-2.61,1.83,-9.54,21.56,-23.37,29.5,-19.69,1.94,46.31,0.33415757394524737,-0.2829582023009061,-0.2422739907328175,-148.5189029496625,-23.31957649574687,14.788953503219902,-0.1273,-0.9625,-0.2021,0.1287
104,524605.0,317.667098,1.0,-2.39,2.0,-9.35,19.69,-23.75,27.69,-15.06,6.0,47.31,0.44709314459000427,-0.2434625343621232,-0.03588187520480268,-149.4184972482763,-22.033971792326973,14.373061379793723,-0.1321,-0.9646,-0.1911,0.1251
105,524605.0,317.667098,1.0,-2.39,2.0,-9.35,19.69,-23.75,27.69,-15.06,6.0,47.31,0.44709314459000427,-0.2434625343621232,-0.03588187520480268,-149.4184972482763,-22.033971792326973,14.373061379793723,-0.1321,-0.9646,-0.1911,0.1251
106,524640.0,317.709666,1.0,-2.91,1.72,-9.25,19.69,-25.69,28.19,-23.62,10.25,48.0,-0.3506336104718223,-0.4569673804010614,-0.024791241468966163,-150.38950981826167,-20.49492914898236,13.541842119876778,-0.1407,-0.9668,-0.1779,0.1179
107,524640.0,317.709666,1.0,-2.91,1.72,-9.25,19.69,-25.69,28.19,-23.62,10.25,48.0,-0.3506336104718223,-0.4569673804010614,-0.024791241468966163,-150.38950981826167,-20.49492914898236,13.541842119876778,-0.1407,-0.9668,-0.1779,0.1179
108,524677.0,317.729471,1.0,-2.23,2.88,-10.11,17.75,-25.69,27.69,-21.0,13.25,51.0,0.6540846528901232,-0.03672654448564172,-0.9194967651614636,-151.06981274894218,-19.261744588057013,12.768989848771893,-0.1482,-0.9683,-0.1673,0.1112
109,524677.0,317.729471,1.0,-2.23,2.88,-10.11,17.75,-25.69,27.69,-21.0,13.25,51.0,0.6540846528901232,-0.03672654448564172,-0.9194967651614636,-151.06981274894218,-19.261744588057013,12.768989848771893,-0.1482,-0.9683,-0.1673,0.1112
110,524711.0,317.785486,1.0,-2.23,2.43,-9.85,17.75,-25.69,27.69,-2.44,4.44,46.19,0.29902327040473986,-0.42531986883324224,-0.5678373653078435,-152.23986727877062,-17.520477052231193,12.204140573704526,-0.1516,-0.9708,-0.1523,0.1063
111,524711.0,317.785486,1.0,-2.23,2.43,-9.85,17.75,-25.69,27.69,-2.44,4.44,46.19,0.29902327040473986,-0.42531986883324224,-0.5678373653078435,-152.23986727877062,-17.520477052231193,12.204140573704526,-0.1516,-0.9708,-0.1523,0.1063
112,524746.0,317.788455,1.0,-2.34,2.58,-10.15,16.69,-27.19,28.56,-24.06,8.69,52.44,0.14430377024148916,-0.4552901374559197,-0.91372253609358,-152.91671705681662,-16.29245975343786,11.628070333672753,-0.1563,-0.9722,-0.1417,0.1013
113,524746.0,317.788455,1.0,-2.34,2.58,-10.15,16.69,-27.19,28.56,-24.06,8.69,52.44,0.14430377024148916,-0.4552901374559197,-0.91372253609358,-152.91671705681662,-16.29245975343786,11.628070333672753,-0.1563,-0.9722,-0.1417,0.1013
114,524783.0,317.832526,1.0,-1.88,3.31,-10.3,15.19,-27.5,28.19,-2.25,-5.88,48.25,0.6726147970087206,-0.092826794473732,-1.1532529430498482,-153.61058909469406,-14.500119080393965,11.224997424028942,-0.163,-0.9736,-0.1262,0.0978
115,524783.0,317.832526,1.0,-1.88,3.31,-10.3,15.19,-27.5,28.19,-2.25,-5.88,48.25,0.6726147970087206,-0.092826794473732,-1.1532529430498482,-153.61058909469406,-14.500119080393965,11.224997424028942,-0.163,-0.9736,-0.1262,0.0978
116,524818.0,317.87699399999997,1.0,-2.56,2.53,-9.25,15.19,-27.5,28.19,-2.25,-9.06,45.69,-0.3715157960138867,-0.3657740050054554,-0.10522093290537526,-154.16860854190614,-13.138038375794716,11.294085603048902,-0.1648,-0.9747,-0.1144,0.0984
117,524818.0,317.87699399999997,1.0,-2.56,2.53,-9.25,15.19,-27.5,28.19,-2.25,-9.06,45.69,-0.3715157960138867,-0.3657740050054554,-0.10522093290537526,-154.16860854190614,-13.138038375794716,11.294085603048902,-0.1648,-0.9747,-0.1144,0.0984
118,524851.0,317.934144,1.0,-2.42,3.51,-9.11,14.5,-29.0,26.87,-9.94,-5.13,52.69,-0.11726835862570943,0.4363851998278714,-0.24145509944220397,-154.68638599830706,-11.409241734119899,11.109859542072414,-0.1697,-0.9757,-0.0994,0.0968
119,524851.0,317.934144,1.0,-2.42,3.51,-9.11,14.5,-29.0,26.87,-9.94,-5.13,52.69,-0.11726835862570943,0.4363851998278714,-0.24145509944220397,-154.68638599830706,-11.409241734119899,11.109859542072414,-0.1697,-0.9757,-0.0994,0.0968
120,524888.0,317.954817,1.0,-2.17,3.46,-10.02,13.0,-29.69,27.0,-0.31,-1.94,47.75,0.156076469463975,-0.013883934392842969,-1.0126081710598545,-155.214797761141,-10.074110549810433,10.8450849117299,-0.1713,-0.9767,-0.0878,0.0945
121,524888.0,317.954817,1.0,-2.17,3.46,-10.02,13.0,-29.69,27.0,-0.31,-1.94,47.75,0.156076469463975,-0.013883934392842969,-1.0126081710598545,-155.214797761141,-10.074110549810433,10.8450849117299,-0.1713,-0.9767,-0.0878,0.0945
122,524922.0,318.001279,1.0,-2.36,3.29,-9.62,11.75,-30.75,26.87,-3.38,-14.38,50.56,-0.16691286940110564,-0.07765344969040555,-0.6290679933045045,-155.70003388404493,-8.23475966058657,10.948685380949463,-0.1732,-0.9776,-0.0718,0.0954
123,524922.0,318.001279,1.0,-2.36,3.29,-9.62,11.75,-30.75,26.87,-3.38,-14.38,50.56,-0.16691286940110564,-0.07765344969040555,-0.6290679933045045,-155.70003388404493,-8.23475966058657,10.948685380949463,-0.1732,-0.9776,-0.0718,0.0954
124,524957.0,318.019123,1.0,-2.18,3.79,-9.93,11.75,-30.75,26.87,0.75,-13.13,50.56,0.10703406415962782,0.20308965771908327,-1.0408703756451685,-155.97377873337675,-6.718914520918895,11.063807546045703,-0.1747,-0.9781,-0.0586,0.0964
125,524957.0,318.019123,1.0,-2.18,3.79,-9.93,11.75,-30.75,26.87,0.75,-13.13,50.56,0.10703406415962782,0.20308965771908327,-1.0408703756451685,-155.97377873337675,-6.718914520918895,11.063807546045703,-0.1747,-0.9781,-0.0586,0.0964
126,524994.0,318.059661,1.0,-2.45,3.83,-9.97,9.56,-30.75,26.5,-0.37,-21.5,38.94,-0.14489124009573254,0.1652906405690513,-1.148895880177939,-156.0841409493743,-4.96336629149859,11.420757981123572,-0.1767,-0.9783,-0.0433,0.0995
127,524994.0,318.059661,1.0,-2.45,3.83,-9.97,9.56,-30.75,26.5,-0.37,-21.5,38.94,-0.14489124009573254,0.1652906405690513,-1.148895880177939,-156.0841409493743,-4.96336629149859,11.420757981123572,-0.1767,-0.9783,-0.0433,0.0995
128,525029.0,318.119047,1.0,-2.35,3.98,-9.98,10.69,-30.5,26.87,6.19,-21.5,37.75,0.007614913097710645,0.2760520304358016,-1.1882141323843012,-156.0841409493743,-4.045922594423996,11.800859775906506,-0.1767,-0.9783,-0.0353,0.1028
129,525029.0,318.119047,1.0,-2.35,3.98,-9.98,10.69,-30.5,26.87,6.19,-21.5,37.75,0.007614913097710645,0.2760520304358016,-1.1882141323843012,-156.0841409493743,-4.045922594423996,11.800859775906506,-0.1767,-0.9783,-0.0353,0.1028
130,525064.0,318.130878,1.0,-2.74,4.01,-9.62,10.69,-30.5,26.87,7.13,-29.19,32.56,-0.34630802027902463,0.4130937770314736,-0.9563200495015902,-155.91878451766874,-2.509755787270372,12.642160322280047,-0.1759,-0.978,-0.0219,0.1101
131,525064.0,318.130878,1.0,-2.74,4.01,-9.62,10.69,-30.5,26.87,7.13,-29.19,32.56,-0.34630802027902463,0.4130937770314736,-0.9563200495015902,-155.91878451766874,-2.509755787270372,12.642160322280047,-0.1759,-0.978,-0.0219,0.1101
132,525099.0,318.140694,1.0,-2.58,4.55,-9.8,8.69,-30.75,26.87,1.75,-35.69,30.62,0.028015043181832976,0.8028414760139249,-1.2727705950377841,-155.3754969883622,-1.0886361860699356,13.738036026791262,-0.1765,-0.977,-0.0095,0.1196
133,525099.0,318.140694,1.0,-2.58,4.55,-9.8,8.69,-30.75,26.87,1.75,-35.69,30.62,0.028015043181832976,0.8028414760139249,-1.2727705950377841,-155.3754969883622,-1.0886361860699356,13.738036026791262,-0.1765,-0.977,-0.0095,0.1196
134,525135.0,318.23233999999997,1.0,-2.84,4.79,-9.45,8.38,-31.19,27.25,14.94,-38.19,17.19,-0.1570683270159694,1.152299502806712,-1.1002164334207318,-155.0021140741398,-0.2635608181333149,14.708070420797664,-0.1748,-0.9763,-0.0023,0.128
135,525135.0,318.23233999999997,1.0,-2.84,4.79,-9.45,8.38,-31.19,27.25,14.94,-38.19,17.19,-0.1570683270159694,1.152299502806712,-1.1002164334207318,-155.0021140741398,-0.2635608181333149,14.708070420797664,-0.1748,-0.9763,-0.0023,0.128
136,525170.0,318.23793900000004,1.0,-3.25,4.12,-9.23,8.38,-31.19,27.25,22.5,-37.44,9.63,-0.4853669641961369,0.6562217328178968,-0.7793592550235608,-154.79119639620873,0.3552344019497601,15.737004132862339,-0.17,-0.9759,0.0031,0.1369
137,525170.0,318.23793900000004,1.0,-3.25,4.12,-9.23,8.38,-31.19,27.25,22.5,-37.44,9.63,-0.4853669641961369,0.6562217328178968,-0.7793592550235608,-154.79119639620873,0.3552344019497601,15.737004132862339,-0.17,-0.9759,0.0031,0.1369
138,525205.0,318.250197,1.0,-3.32,4.15,-8.64,9.06,-31.56,27.25,12.25,-29.37,1.06,-0.5157122345476479,0.9569307623416496,-0.2786276068496054,-154.42620867150097,0.7792286067117273,17.010496081346126,-0.1649,-0.9752,0.0068,0.1479
139,525205.0,318.250197,1.0,-3.32,4.15,-8.64,9.06,-31.56,27.25,12.25,-29.37,1.06,-0.5157122345476479,0.9569307623416496,-0.2786276068496054,-154.42620867150097,0.7792286067117273,17.010496081346126,-0.1649,-0.9752,0.0068,0.1479
140,525240.0,318.295493,1.0,-3.15,3.92,-9.3,9.5,-30.06,26.87,17.06,-24.69,-6.19,0.002377497968928503,0.6422094396740283,-0.7463809097953966,-154.16860854190614,0.8136069048374162,17.996001378555594,-0.1598,-0.9747,0.0071,0.1564
141,525240.0,318.295493,1.0,-3.15,3.92,-9.3,9.5,-30.06,26.87,17.06,-24.69,-6.19,0.002377497968928503,0.6422094396740283,-0.7463809097953966,-154.16860854190614,0.8136069048374162,17.996001378555594,-0.1598,-0.9747,0.0071,0.1564
142,525277.0,318.3411,1.0,-3.37,3.9,-8.32,10.56,-30.5,27.25,10.88,-22.87,-7.5,-0.3764411501220771,0.9921929829342204,0.07715129014290767,-153.91350924378722,0.687553479519944,18.785369486689323,-0.1557,-0.9742,0.006,0.1632
143,525277.0,318.3411,1.0,-3.37,3.9,-8.32,10.56,-30.5,27.25,10.88,-22.87,-7.5,-0.3764411501220771,0.9921929829342204,0.07715129014290767,-153.91350924378722,0.687553479519944,18.785369486689323,-0.1557,-0.9742,0.006,0.1632
144,525309.0,318.35683900000004,1.0,-3.07,3.77,-8.98,10.56,-30.5,27.25,15.75,-12.75,-13.5,0.23881590380024995,0.7976802449018754,-0.3710154096597904,-153.8627830260387,0.4125305035633525,19.470990576087328,-0.1506,-0.9741,0.0036,0.1691
145,525309.0,318.35683900000004,1.0,-3.07,3.77,-8.98,10.56,-30.5,27.25,15.75,-12.75,-13.5,0.23881590380024995,0.7976802449018754,-0.3710154096597904,-153.8627830260387,0.4125305035633525,19.470990576087328,-0.1506,-0.9741,0.0036,0.1691
146,525346.0,318.41093,1.0,-3.47,3.16,-8.34,11.0,-30.06,28.5,13.63,-23.19,-18.87,-0.2506053908517267,0.4756874496300607,0.2519119926896725,-153.61058909469406,0.08021409786913415,20.192233442293944,-0.1459,-0.9736,0.0007,0.1753
147,525346.0,318.41093,1.0,-3.47,3.16,-8.34,11.0,-30.06,28.5,13.63,-23.19,-18.87,-0.2506053908517267,0.4756874496300607,0.2519119926896725,-153.61058909469406,0.08021409786913415,20.192233442293944,-0.1459,-0.9736,0.0007,0.1753
148,525383.0,318.463353,1.0,-3.59,3.56,-8.14,11.0,-29.25,27.69,6.38,-16.62,-20.62,-0.25798006901563536,0.9904431351534152,0.27912310788270744,-153.2614432071201,-0.5271230305187238,21.007514103633174,-0.1425,-0.9729,-0.0046,0.1823
149,525383.0,318.463353,1.0,-3.59,3.56,-8.14,11.0,-29.25,27.69,6.38,-16.62,-20.62,-0.25798006901563536,0.9904431351534152,0.27912310788270744,-153.2614432071201,-0.5271230305187238,21.007514103633174,-0.1425,-0.9729,-0.0046,0.1823
150,525416.0,318.484475,1.0,-3.68,2.58,-8.31,11.0,-29.25,27.69,19.5,-14.19,-20.75,-0.247908040702619,0.1169266810918186,0.3631458964056211,-153.21193002249612,-0.9511208605830096,21.532188889890495,-0.1368,-0.9728,-0.0083,0.1868
151,525416.0,318.484475,1.0,-3.68,2.58,-8.31,11.0,-29.25,27.69,19.5,-14.19,-20.75,-0.247908040702619,0.1169266810918186,0.3631458964056211,-153.21193002249612,-0.9511208605830096,21.532188889890495,-0.1368,-0.9728,-0.0083,0.1868
152,525451.0,318.537964,1.0,-3.56,2.73,-8.72,13.56,-29.06,28.19,5.94,-12.19,-21.37,0.13557764597833144,0.25095353595985714,0.004428770875437138,-152.965699486827,-1.7762402933693409,22.080670872919914,-0.133,-0.9723,-0.0155,0.1915
153,525451.0,318.537964,1.0,-3.56,2.73,-8.72,13.56,-29.06,28.19,5.94,-12.19,-21.37,0.13557764597833144,0.25095353595985714,0.004428770875437138,-152.965699486827,-1.7762402933693409,22.080670872919914,-0.133,-0.9723,-0.0155,0.1915
154,525488.0,318.547047,1.0,-3.86,2.66,-8.3,14.38,-28.25,27.25,4.06,-14.69,-25.94,-0.19886364821520766,0.33383126768051663,0.28224923490525106,-152.57624392499284,-2.6243761106355543,22.57123707542117,-0.132,-0.9715,-0.0229,0.1957
155,525488.0,318.547047,1.0,-3.86,2.66,-8.3,14.38,-28.25,27.25,4.06,-14.69,-25.94,-0.19886364821520766,0.33383126768051663,0.28224923490525106,-152.57624392499284,-2.6243761106355543,22.57123707542117,-0.132,-0.9715,-0.0229,0.1957
156,525522.0,318.590532,1.0,-3.91,2.67,-8.34,15.06,-27.87,27.0,5.19,-12.63,-24.75,-0.10206443653385096,0.4264982404175775,0.2264473872304915,-152.1444912618588,-3.6790210459755386,23.155792207151627,-0.1287,-0.9706,-0.0321,0.2007
157,525522.0,318.590532,1.0,-3.91,2.67,-8.34,15.06,-27.87,27.0,5.19,-12.63,-24.75,-0.10206443653385096,0.4264982404175775,0.2264473872304915,-152.1444912618588,-3.6790210459755386,23.155792207151627,-0.1287,-0.9706,-0.0321,0.2007
158,525557.0,318.61141499999997,1.0,-3.77,2.28,-8.73,15.06,-27.87,27.0,10.56,-6.19,-26.81,0.20194416975705395,0.022011856094693142,0.029997503849163113,-151.95469309277132,-4.355527902560735,23.483409106034056,-0.1257,-0.9702,-0.038,0.2035
159,525557.0,318.61141499999997,1.0,-3.77,2.28,-8.73,15.06,-27.87,27.0,10.56,-6.19,-26.81,0.20194416975705395,0.022011856094693142,0.029997503849163113,-151.95469309277132,-4.355527902560735,23.483409106034056,-0.1257,-0.9702,-0.038,0.2035
160,525594.0,318.655602,1.0,-3.92,2.07,-8.57,15.88,-26.75,28.5,3.19,-13.31,-26.56,0.08980121687425316,-0.037957115726643176,0.15850535976923652,-151.57882322936237,-5.307486603594608,24.03377694135321,-0.1219,-0.9694,-0.0463,0.2082
161,525594.0,318.655602,1.0,-3.92,2.07,-8.57,15.88,-26.75,28.5,3.19,-13.31,-26.56,0.08980121687425316,-0.037957115726643176,0.15850535976923652,-151.57882322936237,-5.307486603594608,24.03377694135321,-0.1219,-0.9694,-0.0463,0.2082
162,525629.0,318.722855,1.0,-4.07,2.44,-8.24,16.56,-27.19,27.69,1.12,-7.63,-25.12,-0.04274363342033927,0.451358228094289,0.3087266095038661,-151.16170585731885,-6.04177399090254,24.39709288880459,-0.1208,-0.9685,-0.0527,0.2113
163,525629.0,318.722855,1.0,-4.07,2.44,-8.24,16.56,-27.19,27.69,1.12,-7.63,-25.12,-0.04274363342033927,0.451358228094289,0.3087266095038661,-151.16170585731885,-6.04177399090254,24.39709288880459,-0.1208,-0.9685,-0.0527,0.2113
164,525664.0,318.738709,1.0,-4.21,1.79,-8.36,16.56,-27.19,27.69,-1.12,-3.69,-24.94,-0.14767503147122013,-0.11724738714909112,0.2786782779971144,-150.84131999821054,-6.971466463000762,24.725463298356363,-0.11800000000000001,-0.9678,-0.0608,0.2141
165,525664.0,318.738709,1.0,-4.21,1.79,-8.36,16.56,-27.19,27.69,-1.12,-3.69,-24.94,-0.14767503147122013,-0.11724738714909112,0.2786782779971144,-150.84131999821054,-6.971466463000762,24.725463298356363,-0.11800000000000001,-0.9678,-0.0608,0.2141
166,525699.0,318.7871,1.0,-4.12,2.24,-8.46,18.06,-26.75,26.87,-3.63,-7.31,-22.81,0.1090709522276858,0.3069075363296985,0.13930748555869776,-150.38950981826167,-7.878645873813733,24.93666734562011,-0.1183,-0.9668,-0.0687,0.2159
167,525699.0,318.7871,1.0,-4.12,2.24,-8.46,18.06,-26.75,26.87,-3.63,-7.31,-22.81,0.1090709522276858,0.3069075363296985,0.13930748555869776,-150.38950981826167,-7.878645873813733,24.93666734562011,-0.1183,-0.9668,-0.0687,0.2159
168,525735.0,318.80509,1.0,-4.38,2.15,-8.09,17.69,-26.0,27.25,2.88,-8.94,-26.31,-0.19617555585883545,0.3874324425598008,0.3691497349014288,-149.85607839466778,-8.786320126014099,25.34758912480893,-0.1171,-0.9656,-0.0766,0.2194
169,525735.0,318.80509,1.0,-4.38,2.15,-8.09,17.69,-26.0,27.25,2.88,-8.94,-26.31,-0.19617555585883545,0.3874324425598008,0.3691497349014288,-149.85607839466778,-8.786320126014099,25.34758912480893,-0.1171,-0.9656,-0.0766,0.2194
170,525770.0,318.85274,1.0,-4.38,2.04,-8.42,17.69,-26.0,27.25,-4.56,-2.63,-26.69,-0.029656942550769963,0.2443933564624201,0.10191958885123853,-149.50552295905456,-9.53355259965066,25.547298987438325,-0.1158,-0.9648,-0.0831,0.2211
171,525770.0,318.85274,1.0,-4.38,2.04,-8.42,17.69,-26.0,27.25,-4.56,-2.63,-26.69,-0.029656942550769963,0.2443933564624201,0.10191958885123853,-149.50552295905456,-9.53355259965066,25.547298987438325,-0.1158,-0.9648,-0.0831,0.2211
172,525805.0,318.87096299999996,1.0,-4.29,1.83,-9.1,18.5,-26.75,26.87,-3.88,-7.13,-27.56,0.3486899113972442,-0.10431478246183123,-0.4124758810061486,-148.94411093259438,-10.591876570929834,25.782352883412447,-0.1153,-0.9635,-0.0923,0.2231
173,525805.0,318.87096299999996,1.0,-4.29,1.83,-9.1,18.5,-26.75,26.87,-3.88,-7.13,-27.56,0.3486899113972442,-0.10431478246183123,-0.4124758810061486,-148.94411093259438,-10.591876570929834,25.782352883412447,-0.1153,-0.9635,-0.0923,0.2231
174,525840.0,318.918445,1.0,-4.54,2.0,-8.52,18.87,-25.69,26.87,-7.69,-7.81,-29.31,0.032096751496302485,0.2674109504515212,-0.04877800603413896,-148.1827256280383,-11.708702081111404,26.205728877683853,-0.1157,-0.9617,-0.102,0.2267
175,525840.0,318.918445,1.0,-4.54,2.0,-8.52,18.87,-25.69,26.87,-7.69,-7.81,-29.31,0.032096751496302485,0.2674109504515212,-0.04877800603413896,-148.1827256280383,-11.708702081111404,26.205728877683853,-0.1157,-0.9617,-0.102,0.2267
176,525877.0,318.931552,1.0,-4.62,1.87,-8.4,20.0,-26.0,25.69,-3.38,-1.63,-29.94,-0.05573852915072218,0.2290830544605904,0.042136997779811836,-147.6436957459843,-12.642160322280047,26.42932380663794,-0.1151,-0.9604,-0.1101,0.2286
177,525877.0,318.931552,1.0,-4.62,1.87,-8.4,20.0,-26.0,25.69,-3.38,-1.63,-29.94,-0.05573852915072218,0.2290830544605904,0.042136997779811836,-147.6436957459843,-12.642160322280047,26.42932380663794,-0.1151,-0.9604,-0.1101,0.2286
178,525910.0,318.984895,1.0,-4.55,1.64,-8.65,20.0,-26.0,25.69,-3.94,-3.56,-28.62,0.10903450424076007,-0.024200629018254597,-0.10304857293550997,-147.03240000479886,-13.738036026791262,26.629469277048536,-0.1146,-0.9589,-0.1196,0.2303
179,525910.0,318.984895,1.0,-4.55,1.64,-8.65,20.0,-26.0,25.69,-3.94,-3.56,-28.62,0.10903450424076007,-0.024200629018254597,-0.10304857293550997,-147.03240000479886,-13.738036026791262,26.629469277048536,-0.1146,-0.9589,-0.1196,0.2303
180,525946.0,319.00226499999997,1.0,-4.85,1.61,-8.71,21.06,-24.87,25.69,-8.88,-4.63,-30.5,-0.0735436507775408,0.0031043461745953183,-0.2915320984999674,-146.39227073603638,-14.754288420181696,26.841478236677798,-0.1154,-0.9573,-0.1284,0.2321
181,525946.0,319.00226499999997,1.0,-4.85,1.61,-8.71,21.06,-24.87,25.69,-8.88,-4.63,-30.5,-0.0735436507775408,0.0031043461745953183,-0.2915320984999674,-146.39227073603638,-14.754288420181696,26.841478236677798,-0.1154,-0.9573,-0.1284,0.2321
182,525981.0,319.05695499999996,1.0,-4.64,2.01,-8.83,22.19,-25.25,26.5,-7.44,-3.94,-29.94,0.3581063633982216,0.3271983126403777,-0.35717315355294943,-145.53094905314887,-16.003112701402525,27.088940429595656,-0.11599999999999999,-0.9551,-0.1392,0.2342
183,525981.0,319.05695499999996,1.0,-4.64,2.01,-8.83,22.19,-25.25,26.5,-7.44,-3.94,-29.94,0.3581063633982216,0.3271983126403777,-0.35717315355294943,-145.53094905314887,-16.003112701402525,27.088940429595656,-0.11599999999999999,-0.9551,-0.1392,0.2342
184,526016.0,319.06683300000003,1.0,-4.9,1.67,-8.61,22.19,-25.25,26.5,-3.44,-4.38,-37.0,0.01253645649477228,0.17998196819078727,-0.23817201576437694,-144.87941908090357,-17.010496081346126,27.348324709600163,-0.1149,-0.9534,-0.1479,0.2364
185,526016.0,319.06683300000003,1.0,-4.9,1.67,-8.61,22.19,-25.25,26.5,-3.44,-4.38,-37.0,0.01253645649477228,0.17998196819078727,-0.23817201576437694,-144.87941908090357,-17.010496081346126,27.348324709600163,-0.1149,-0.9534,-0.1479,0.2364
186,526051.0,319.15907400000003,1.0,-4.87,1.54,-8.46,21.87,-24.87,26.87,-3.25,-3.94,-36.44,0.021350636261598804,0.16541962339532545,-0.07425484209452371,-144.0161283848301,-18.37896716762953,27.631452438914533,-0.1135,-0.9511,-0.1597,0.2388
187,526051.0,319.15907400000003,1.0,-4.87,1.54,-8.46,21.87,-24.87,26.87,-3.25,-3.94,-36.44,0.021350636261598804,0.16541962339532545,-0.07425484209452371,-144.0161283848301,-18.37896716762953,27.631452438914533,-0.1135,-0.9511,-0.1597,0.2388
188,526086.0,319.17216099999996,1.0,-4.63,1.67,-8.61,23.0,-23.75,26.06,-3.5,-4.44,-35.31,0.3880466907694058,0.2301451236672521,-0.10063787246212108,-143.3907030739344,-19.389609385924846,27.77308072525798,-0.1124,-0.9494,-0.1684,0.24
189,526086.0,319.17216099999996,1.0,-4.63,1.67,-8.61,23.0,-23.75,26.06,-3.5,-4.44,-35.31,0.3880466907694058,0.2301451236672521,-0.10063787246212108,-143.3907030739344,-19.389609385924846,27.77308072525798,-0.1124,-0.9494,-0.1684,0.24
190,526123.0,319.175749,1.0,-4.55,1.15,-8.75,23.0,-23.75,26.06,-0.81,-6.5,-38.75,0.4175425244805189,-0.23625850725876255,-0.11087691743250437,-142.34696199162144,-20.879328419459103,28.12734139012517,-0.1104,-0.9465,-0.1812,0.243
191,526123.0,319.175749,1.0,-4.55,1.15,-8.75,23.0,-23.75,26.06,-0.81,-6.5,-38.75,0.4175425244805189,-0.23625850725876255,-0.11087691743250437,-142.34696199162144,-20.879328419459103,28.12734139012517,-0.1104,-0.9465,-0.1812,0.243
192,526155.0,319.22675899999996,1.0,-4.72,1.0,-8.39,24.06,-23.0,25.69,-5.75,-5.0,-37.13,0.14268500316594154,-0.17017387776885867,0.130846062280062,-141.53859212209682,-21.952257310852513,28.41094741939909,-0.1094,-0.9442,-0.1904,0.2454
193,526155.0,319.22675899999996,1.0,-4.72,1.0,-8.39,24.06,-23.0,25.69,-5.75,-5.0,-37.13,0.14268500316594154,-0.17017387776885867,0.130846062280062,-141.53859212209682,-21.952257310852513,28.41094741939909,-0.1094,-0.9442,-0.1904,0.2454
194,526192.0,319.275995,1.0,-4.56,0.87,-8.3,24.5,-22.69,26.19,-0.88,-3.44,-35.63,0.25630171339840857,-0.23268897282470336,0.30293150282033743,-140.64403039131906,-23.284475807440252,28.65924846946876,-0.1071,-0.9416,-0.2018,0.2475
195,526192.0,319.275995,1.0,-4.56,0.87,-8.3,24.5,-22.69,26.19,-0.88,-3.44,-35.63,0.25630171339840857,-0.23268897282470336,0.30293150282033743,-140.64403039131906,-23.284475807440252,28.65924846946876,-0.1071,-0.9416,-0.2018,0.2475
196,526227.0,319.285265,1.0,-4.66,0.68,-8.2,26.0,-21.87,26.06,-5.44,-4.94,-33.06,0.11263813532460992,-0.2956640288993201,0.3558354619569624,-139.8686617976523,-24.279867169785643,28.884020255235587,-0.1061,-0.9393,-0.2103,0.2494
197,526227.0,319.285265,1.0,-4.66,0.68,-8.2,26.0,-21.87,26.06,-5.44,-4.94,-33.06,0.11263813532460992,-0.2956640288993201,0.3558354619569624,-139.8686617976523,-24.279867169785643,28.884020255235587,-0.1061,-0.9393,-0.2103,0.2494
198,526262.0,319.337174,1.0,-4.69,0.67,-8.24,26.0,-21.87,26.06,-4.25,-5.19,-32.5,0.17238385177271767,-0.2533863251997675,0.30671951720962554,-138.94369485234358,-25.523799625853453,29.132584441928433,-0.105,-0.9365,-0.2209,0.2515
199,526262.0,319.337174,1.0,-4.69,0.67,-8.24,26.0,-21.87,26.06,-4.25,-5.19,-32.5,0.17238385177271767,-0.2533863251997675,0.30671951720962554,-138.94369485234358,-25.523799625853453,29.132584441928433,-0.105,-0.9365,-0.2209,0.2515
200,526297.0,319.35477000000003,1.0,-4.73,0.3,-8.35,26.56,-21.87,26.06,-4.25,-5.5,-29.44,0.06855277300312647,-0.5535329585587896,0.22154166565641908,-138.23069557304194,-26.39401255557817,29.33390567781849,-0.1038,-0.9343,-0.2283,0.2532
201,526297.0,319.35477000000003,1.0,-4.73,0.3,-8.35,26.56,-21.87,26.06,-4.25,-5.5,-29.44,0.06855277300312647,-0.5535329585587896,0.22154166565641908,-138.23069557304194,-26.39401255557817,29.33390567781849,-0.1038,-0.9343,-0.2283,0.2532
202,526333.0,319.398135,1.0,-4.97,0.19,-8.01,26.56,-21.19,25.69,-7.13,-3.06,-27.44,-0.25685131181427184,-0.4127426132811771,0.3906651370766792,-137.3712305266047,-27.4544775660039,29.54717030181495,-0.1034,-0.9316,-0.2373,0.255
203,526333.0,319.398135,1.0,-4.97,0.19,-8.01,26.56,-21.19,25.69,-7.13,-3.06,-27.44,-0.25685131181427184,-0.4127426132811771,0.3906651370766792,-137.3712305266047,-27.4544775660039,29.54717030181495,-0.1034,-0.9316,-0.2373,0.255
204,526368.0,319.461612,1.0,-4.77,0.18,-8.56,26.56,-21.19,25.69,-3.56,-0.25,-23.44,0.14074751746901396,-0.6355279427327181,0.027325157745689662,-136.90081703525604,-28.174596802852534,29.55902139879445,-0.1028,-0.9301,-0.2434,0.2551
205,526368.0,319.461612,1.0,-4.77,0.18,-8.56,26.56,-21.19,25.69,-3.56,-0.25,-23.44,0.14074751746901396,-0.6355279427327181,0.027325157745689662,-136.90081703525604,-28.174596802852534,29.55902139879445,-0.1028,-0.9301,-0.2434,0.2551
206,526403.0,319.479331,1.0,-5.06,0.07,-8.47,27.69,-20.75,24.87,-7.0,-2.81,-21.69,-0.12829772034831316,-0.5548475664113037,-0.04348116019278514,-136.18886320443548,-29.06155185997118,29.713115141941444,-0.1027,-0.9278,-0.2509,0.2564
207,526403.0,319.479331,1.0,-5.06,0.07,-8.47,27.69,-20.75,24.87,-7.0,-2.81,-21.69,-0.12829772034831316,-0.5548475664113037,-0.04348116019278514,-136.18886320443548,-29.06155185997118,29.713115141941444,-0.1027,-0.9278,-0.2509,0.2564
208,526438.0,319.508645,1.0,-4.96,0.42,-8.51,27.69,-20.0,24.06,-8.75,0.12,-17.44,0.15796487476851945,-0.29821949294260564,-0.04648210265489183,-135.7608376875957,-29.630134776789287,29.72497078004789,-0.1031,-0.9264,-0.2557,0.2565
209,526438.0,319.508645,1.0,-4.96,0.42,-8.51,27.69,-20.0,24.06,-8.75,0.12,-17.44,0.15796487476851945,-0.29821949294260564,-0.04648210265489183,-135.7608376875957,-29.630134776789287,29.72497078004789,-0.1031,-0.9264,-0.2557,0.2565
210,526473.0,319.52839500000005,1.0,-5.06,0.41,-8.44,27.69,-20.0,24.06,-3.81,-1.63,-16.94,0.07302674741238974,-0.21863652408878587,-0.03977905649031399,-135.2162310052641,-30.318170931025325,29.760539648089328,-0.1031,-0.9246,-0.2615,0.2568
211,526473.0,319.52839500000005,1.0,-5.06,0.41,-8.44,27.69,-20.0,24.06,-3.81,-1.63,-16.94,0.07302674741238974,-0.21863652408878587,-0.03977905649031399,-135.2162310052641,-30.318170931025325,29.760539648089328,-0.1031,-0.9246,-0.2615,0.2568
212,526508.0,319.590765,1.0,-4.98,0.34,-8.49,28.75,-20.75,24.0,-4.75,-4.38,-15.31,0.13944468679099226,-0.3101767371882953,-0.03613647391240882,-134.8267795347168,-30.817102104618424,29.83168618976498,-0.1029,-0.9233,-0.2657,0.2574
213,526508.0,319.590765,1.0,-4.98,0.34,-8.49,28.75,-20.75,24.0,-4.75,-4.38,-15.31,0.13944468679099226,-0.3101767371882953,-0.03613647391240882,-134.8267795347168,-30.817102104618424,29.83168618976498,-0.1029,-0.9233,-0.2657,0.2574
214,526542.0,319.61010699999997,1.0,-4.88,0.25,-8.53,28.75,-19.25,25.0,-1.5,-2.38,-13.88,0.21013727169156685,-0.40406944491459373,-0.013246649697105541,-134.4108976122917,-31.388043844509305,29.902844499943303,-0.1017,-0.9219,-0.2705,0.258
215,526542.0,319.61010699999997,1.0,-4.88,0.25,-8.53,28.75,-19.25,25.0,-1.5,-2.38,-13.88,0.21013727169156685,-0.40406944491459373,-0.013246649697105541,-134.4108976122917,-31.388043844509305,29.902844499943303,-0.1017,-0.9219,-0.2705,0.258
216,526577.0,319.65345299999996,1.0,-4.76,-0.08,-8.46,29.19,-18.5,25.75,-1.19,-4.44,-12.5,0.11716808593486296,-0.6806546331605472,0.12374852833380068,-134.0866361818657,-31.757201337874307,30.021467926252928,-0.1005,-0.9208,-0.2736,0.259
217,526577.0,319.65345299999996,1.0,-4.76,-0.08,-8.46,29.19,-18.5,25.75,-1.19,-4.44,-12.5,0.11716808593486296,-0.6806546331605472,0.12374852833380068,-134.0866361818657,-31.757201337874307,30.021467926252928,-0.1005,-0.9208,-0.2736,0.259
218,526612.0,319.671448,1.0,-4.83,-0.25,-8.35,29.19,-18.5,25.75,1.12,-4.19,-10.25,-0.028378623839100888,-0.7336681005770166,0.18506874887995475,-133.6770461216721,-32.150547625319554,30.235073199393444,-0.0996,-0.9194,-0.2769,0.2608
219,526612.0,319.671448,1.0,-4.83,-0.25,-8.35,29.19,-18.5,25.75,1.12,-4.19,-10.25,-0.028378623839100888,-0.7336681005770166,0.18506874887995475,-133.6770461216721,-32.150547625319554,30.235073199393444,-0.0996,-0.9194,-0.2769,0.2608
220,526647.0,319.71637400000003,1.0,-4.93,-0.34,-8.14,29.19,-18.87,24.87,2.88,-1.75,-6.06,-0.20758571992030567,-0.6726586968946673,0.3100959699121866,-133.50255170239728,-32.31753913524463,30.377536447956228,-0.0984,-0.9188,-0.2783,0.262
221,526647.0,319.71637400000003,1.0,-4.93,-0.34,-8.14,29.19,-18.87,24.87,2.88,-1.75,-6.06,-0.20758571992030567,-0.6726586968946673,0.3100959699121866,-133.50255170239728,-32.31753913524463,30.377536447956228,-0.0984,-0.9188,-0.2783,0.262
222,526684.0,319.774908,1.0,-4.78,-0.1,-8.11,30.25,-18.87,25.25,0.19,-3.0,-1.94,0.043067804266225466,-0.4964130396552881,0.4054681988488333,-133.41553604515124,-32.460730842800366,30.4369103155404,-0.0964,-0.9185,-0.2795,0.2625
223,526684.0,319.774908,1.0,-4.78,-0.1,-8.11,30.25,-18.87,25.25,0.19,-3.0,-1.94,0.043067804266225466,-0.4964130396552881,0.4054681988488333,-133.41553604515124,-32.460730842800366,30.4369103155404,-0.0964,-0.9185,-0.2795,0.2625
224,526718.0,319.793009,1.0,-5.16,-0.26,-7.91,30.25,-18.87,25.25,-1.5,-1.37,3.56,-0.3805693723563546,-0.3665883300080163,0.3736186765533187,-133.3865649159552,-32.48460118565665,30.52004779633356,-0.095,-0.9184,-0.2797,0.2632
225,526718.0,319.793009,1.0,-5.16,-0.26,-7.91,30.25,-18.87,25.25,-1.5,-1.37,3.56,-0.3805693723563546,-0.3665883300080163,0.3736186765533187,-133.3865649159552,-32.48460118565665,30.52004779633356,-0.095,-0.9184,-0.2797,0.2632
226,526751.0,319.84040899999997,1.0,-5.17,0.18,-8.35,29.56,-18.87,24.87,-0.06,0.25,5.75,0.039056312630697865,-0.15931337770434828,-0.014597061963574019,-133.53159111803808,-32.25789123557385,30.50817000692102,-0.0956,-0.9189,-0.2778,0.2631
227,526751.0,319.84040899999997,1.0,-5.17,0.18,-8.35,29.56,-18.87,24.87,-0.06,0.25,5.75,0.039056312630697865,-0.15931337770434828,-0.014597061963574019,-133.53159111803808,-32.25789123557385,30.50817000692102,-0.0956,-0.9189,-0.2778,0.2631
228,526788.0,319.849302,1.0,-5.17,0.6,-8.38,29.56,-19.25,24.06,-2.31,-1.88,4.94,0.27198479413492993,0.15708829138589808,-0.05309885788014945,-133.64792062272215,-32.114772865183184,30.47253865250361,-0.0966,-0.9193,-0.2766,0.2628
229,526788.0,319.849302,1.0,-5.17,0.6,-8.38,29.56,-19.25,24.06,-2.31,-1.88,4.94,0.27198479413492993,0.15708829138589808,-0.05309885788014945,-133.64792062272215,-32.114772865183184,30.47253865250361,-0.0966,-0.9193,-0.2766,0.2628
230,526825.0,319.90581099999997,1.0,-5.24,0.55,-8.23,29.56,-18.87,23.75,1.81,-1.63,4.06,0.13651263998463542,0.18848321944219848,0.037369659303804426,-133.73534909546765,-31.94786641552185,30.54380438300529,-0.0965,-0.9196,-0.2752,0.2634
231,526825.0,319.90581099999997,1.0,-5.24,0.55,-8.23,29.56,-18.87,23.75,1.81,-1.63,4.06,0.13651263998463542,0.18848321944219848,0.037369659303804426,-133.73534909546765,-31.94786641552185,30.54380438300529,-0.0965,-0.9196,-0.2752,0.2634
232,526858.0,319.923383,1.0,-5.35,0.19,-8.34,29.56,-18.87,23.75,1.81,-1.81,3.63,-0.08554771866708374,-0.09634000696961298,-0.1028202275594925,-133.7645266360233,-31.82869013670581,30.603201736078947,-0.0961,-0.9197,-0.2742,0.2639
233,526858.0,319.923383,1.0,-5.35,0.19,-8.34,29.56,-18.87,23.75,1.81,-1.81,3.63,-0.08554771866708374,-0.09634000696961298,-0.1028202275594925,-133.7645266360233,-31.82869013670581,30.603201736078947,-0.0961,-0.9197,-0.2742,0.2639
234,526895.0,319.96171400000003,1.0,-5.37,0.45,-8.24,29.19,-18.5,24.56,-1.31,-0.75,6.31,-0.009490890133868002,0.13807567084174222,-0.03803613172233433,-133.91067619883825,-31.614261757826505,30.603201736078947,-0.0969,-0.9202,-0.2724,0.2639
235,526895.0,319.96171400000003,1.0,-5.37,0.45,-8.24,29.19,-18.5,24.56,-1.31,-0.75,6.31,-0.009490890133868002,0.13807567084174222,-0.03803613172233433,-133.91067619883825,-31.614261757826505,30.603201736078947,-0.0969,-0.9202,-0.2724,0.2639
236,526929.0,320.03006600000003,1.0,-5.45,0.44,-8.03,28.75,-18.87,24.19,-1.31,-1.37,5.31,-0.16543746685856536,0.2076666854076316,0.09549636140837947,-133.99857662596108,-31.43565821002521,30.650725683430657,-0.0978,-0.9205,-0.2709,0.2643
237,526929.0,320.03006600000003,1.0,-5.45,0.44,-8.03,28.75,-18.87,24.19,-1.31,-1.37,5.31,-0.16543746685856536,0.2076666854076316,0.09549636140837947,-133.99857662596108,-31.43565821002521,30.650725683430657,-0.0978,-0.9205,-0.2709,0.2643
238,526962.0,320.03769500000004,1.0,-5.4,0.46,-8.24,28.75,-18.87,24.19,3.25,-2.94,3.94,-0.02421732385902892,0.11979089500325213,-0.05510763556879717,-134.05726525899885,-31.24523405697452,30.710138215163173,-0.098,-0.9207,-0.2693,0.2648
239,526962.0,320.03769500000004,1.0,-5.4,0.46,-8.24,28.75,-18.87,24.19,3.25,-2.94,3.94,-0.02421732385902892,0.11979089500325213,-0.05510763556879717,-134.05726525899885,-31.24523405697452,30.710138215163173,-0.098,-0.9207,-0.2693,0.2648
240,526999.0,320.103436,1.0,-5.44,0.73,-8.12,30.0,-18.87,24.06,-1.75,-1.88,3.13,0.041661859525610856,0.37927059156810905,0.013013386982725805,-134.05726525899885,-31.173847836723343,30.74578979374247,-0.099,-0.9207,-0.2687,0.2651
241,526999.0,320.103436,1.0,-5.44,0.73,-8.12,30.0,-18.87,24.06,-1.75,-1.88,3.13,0.041661859525610856,0.37927059156810905,0.013013386982725805,-134.05726525899885,-31.173847836723343,30.74578979374247,-0.099,-0.9207,-0.2687,0.2651
242,527034.0,320.111983,1.0,-5.34,0.51,-7.91,29.19,-19.25,24.56,2.19,-2.06,2.38,-0.08654646168516822,0.2068320892570915,0.2518852097593065,-134.0866361818657,-31.031112572318907,30.852762845389066,-0.0991,-0.9208,-0.2675,0.266
243,527034.0,320.111983,1.0,-5.34,0.51,-7.91,29.19,-19.25,24.56,2.19,-2.06,2.38,-0.08654646168516822,0.2068320892570915,0.2518852097593065,-134.0866361818657,-31.031112572318907,30.852762845389066,-0.0991,-0.9208,-0.2675,0.266
244,527069.0,320.13325,1.0,-5.42,0.17,-7.93,29.19,-19.25,24.56,4.0,-0.94,1.25,-0.3082357214491827,-0.03802704743288876,0.20489262524373866,-134.1160248878201,-30.94787313807167,30.91220422108664,-0.0981,-0.9209,-0.2668,0.2665
245,527069.0,320.13325,1.0,-5.42,0.17,-7.93,29.19,-19.25,24.56,4.0,-0.94,1.25,-0.3082357214491827,-0.03802704743288876,0.20489262524373866,-134.1160248878201,-30.94787313807167,30.91220422108664,-0.0981,-0.9209,-0.2668,0.2665
246,527101.0,320.184081,1.0,-5.34,0.38,-8.2,29.56,-19.69,25.0,-2.75,0.75,2.69,-0.030580842603399275,0.0010217093118557452,0.01384326402405911,-134.20429804752106,-30.852762845389066,30.876538373720194,-0.0988,-0.9212,-0.266,0.2662
247,527101.0,320.184081,1.0,-5.34,0.38,-8.2,29.56,-19.69,25.0,-2.75,0.75,2.69,-0.030580842603399275,0.0010217093118557452,0.01384326402405911,-134.20429804752106,-30.852762845389066,30.876538373720194,-0.0988,-0.9212,-0.266,0.2662
248,527138.0,320.201954,1.0,-5.31,0.37,-8.12,30.0,-18.87,24.06,0.94,0.12,4.69,-0.05294839564539544,-0.0014785636114135194,0.09765446589616644,-134.26323636741046,-30.769559206882434,30.876538373720194,-0.099,-0.9214,-0.2653,0.2662
249,527138.0,320.201954,1.0,-5.31,0.37,-8.12,30.0,-18.87,24.06,0.94,0.12,4.69,-0.05294839564539544,-0.0014785636114135194,0.09765446589616644,-134.26323636741046,-30.769559206882434,30.876538373720194,-0.099,-0.9214,-0.2653,0.2662
250,527171.0,320.252708,1.0,-5.34,0.31,-8.26,30.0,-18.87,24.06,-0.06,-2.06,5.0,-0.046421923810748916,-0.09328623905125766,-0.03349444419356296,-134.35177886278402,-30.61508221704001,30.900315264438852,-0.0991,-0.9217,-0.264,0.2664
251,527171.0,320.252708,1.0,-5.34,0.31,-8.26,30.0,-18.87,24.06,-0.06,-2.06,5.0,-0.046421923810748916,-0.09328623905125766,-0.03349444419356296,-134.35177886278402,-30.61508221704001,30.900315264438852,-0.0991,-0.9217,-0.264,0.2664
252,527206.0,320.273186,1.0,-5.34,0.61,-8.33,29.56,-18.87,23.25,-2.75,-2.25,5.5,0.1338046833217742,0.09719930804190767,-0.10542589767336707,-134.38132917213414,-30.50817000692102,30.900315264438852,-0.10099999999999999,-0.9218,-0.2631,0.2664
253,527206.0,320.273186,1.0,-5.34,0.61,-8.33,29.56,-18.87,23.25,-2.75,-2.25,5.5,0.1338046833217742,0.09719930804190767,-0.10542589767336707,-134.38132917213414,-30.50817000692102,30.900315264438852,-0.10099999999999999,-0.9218,-0.2631,0.2664
254,527241.0,320.373359,1.0,-5.34,0.55,-8.24,29.56,-19.69,24.19,1.56,-0.31,4.63,0.05837120302401633,0.06818638200647363,-0.027354444780693044,-134.49971207203987,-30.318170931025325,30.91220422108664,-0.10099999999999999,-0.9222,-0.2615,0.2665
255,527241.0,320.373359,1.0,-5.34,0.55,-8.24,29.56,-19.69,24.19,1.56,-0.31,4.63,0.05837120302401633,0.06818638200647363,-0.027354444780693044,-134.49971207203987,-30.318170931025325,30.91220422108664,-0.10099999999999999,-0.9222,-0.2615,0.2665
256,527278.0,320.379366,1.0,-5.5,0.59,-7.98,29.19,-19.69,24.56,-4.31,-2.25,4.56,-0.14903712022275573,0.2264250835719899,0.10072296450642247,-134.49971207203987,-30.17572764472251,30.971654123503786,-0.1021,-0.9222,-0.2603,0.267
257,527278.0,320.379366,1.0,-5.5,0.59,-7.98,29.19,-19.69,24.56,-4.31,-2.25,4.56,-0.14903712022275573,0.2264250835719899,0.10072296450642247,-134.49971207203987,-30.17572764472251,30.971654123503786,-0.1021,-0.9222,-0.2603,0.267
258,527310.0,320.390992,1.0,-5.62,0.69,-7.92,29.19,-19.69,24.56,-2.0,1.25,3.31,-0.2244736070896096,0.3528587914230049,0.07977988299752957,-134.5590130176977,-30.057061369867114,30.93598315774567,-0.1035,-0.9224,-0.2593,0.2667
259,527310.0,320.390992,1.0,-5.62,0.69,-7.92,29.19,-19.69,24.56,-2.0,1.25,3.31,-0.2244736070896096,0.3528587914230049,0.07977988299752957,-134.5590130176977,-30.057061369867114,30.93598315774567,-0.1035,-0.9224,-0.2593,0.2667
260,527347.0,320.434654,1.0,-5.38,0.72,-8.5,29.19,-19.69,23.37,2.25,-0.19,3.88,0.21097578701630326,0.07910234419433904,-0.2761091479929618,-134.64810211296725,-29.950289927892534,30.91220422108664,-0.1037,-0.9227,-0.2584,0.2665
261,527347.0,320.434654,1.0,-5.38,0.72,-8.5,29.19,-19.69,23.37,2.25,-0.19,3.88,0.21097578701630326,0.07910234419433904,-0.2761091479929618,-134.64810211296725,-29.950289927892534,30.91220422108664,-0.1037,-0.9227,-0.2584,0.2665
262,527384.0,320.453106,1.0,-5.51,0.49,-8.2,29.56,-19.69,25.0,-2.25,-1.19,1.0,-0.13022924586172502,0.028794774591743733,-0.08387128072522465,-134.64810211296725,-29.879123753551497,30.971654123503786,-0.1039,-0.9227,-0.2578,0.267
263,527384.0,320.453106,1.0,-5.51,0.49,-8.2,29.56,-19.69,25.0,-2.25,-1.19,1.0,-0.13022924586172502,0.028794774591743733,-0.08387128072522465,-134.64810211296725,-29.879123753551497,30.971654123503786,-0.1039,-0.9227,-0.2578,0.267
264,527419.0,320.49502,1.0,-5.47,0.48,-8.26,29.56,-19.69,25.0,-1.19,1.12,1.44,-0.08603492822982806,-0.029596572618918907,-0.11154651116137516,-134.64810211296725,-29.85540431723644,30.95976345993856,-0.1046,-0.9227,-0.2576,0.2669
265,527419.0,320.49502,1.0,-5.47,0.48,-8.26,29.56,-19.69,25.0,-1.19,1.12,1.44,-0.08603492822982806,-0.029596572618918907,-0.11154651116137516,-134.64810211296725,-29.85540431723644,30.95976345993856,-0.1046,-0.9227,-0.2576,0.2669
266,527452.0,320.560904,1.0,-5.38,0.54,-8.46,28.75,-20.75,24.56,1.63,1.0,1.94,0.09460201874028806,-0.08438886952899992,-0.23284844248954076,-134.7969534952698,-29.665695841620533,30.95976345993856,-0.1043,-0.9232,-0.256,0.2669
267,527452.0,320.560904,1.0,-5.38,0.54,-8.46,28.75,-20.75,24.56,1.63,1.0,1.94,0.09460201874028806,-0.08438886952899992,-0.23284844248954076,-134.7969534952698,-29.665695841620533,30.95976345993856,-0.1043,-0.9232,-0.256,0.2669
268,527489.0,320.568502,1.0,-5.39,0.61,-8.26,29.19,-20.0,23.75,-3.06,-2.38,1.5,0.041317928112091895,0.032529737257234966,-0.07510260998829388,-134.7671460925717,-29.641988140572547,31.00732816596471,-0.1048,-0.9231,-0.2558,0.2673
269,527489.0,320.568502,1.0,-5.39,0.61,-8.26,29.19,-20.0,23.75,-3.06,-2.38,1.5,0.041317928112091895,0.032529737257234966,-0.07510260998829388,-134.7671460925717,-29.641988140572547,31.00732816596471,-0.1048,-0.9231,-0.2558,0.2673
270,527521.0,320.586788,1.0,-5.4,0.58,-8.09,29.19,-20.0,23.75,-0.25,-1.19,0.37,-0.05465027349083673,0.058502130108925465,0.06303204523698902,-134.73735728971755,-29.630134776789287,31.031112572318907,-0.1052,-0.9229999999999999,-0.2557,0.2675
271,527521.0,320.586788,1.0,-5.4,0.58,-8.09,29.19,-20.0,23.75,-0.25,-1.19,0.37,-0.05465027349083673,0.058502130108925465,0.06303204523698902,-134.73735728971755,-29.630134776789287,31.031112572318907,-0.1052,-0.9229999999999999,-0.2557,0.2675
272,527556.0,320.643042,1.0,-5.29,0.52,-8.39,28.06,-20.75,23.75,3.31,0.44,2.44,0.12456473566793325,-0.13521603068287924,-0.12374778919627973,-134.88648767208014,-29.45237314889127,31.04300528938303,-0.1047,-0.9235,-0.2542,0.2676
273,527556.0,320.643042,1.0,-5.29,0.52,-8.39,28.06,-20.75,23.75,3.31,0.44,2.44,0.12456473566793325,-0.13521603068287924,-0.12374778919627973,-134.88648767208014,-29.45237314889127,31.04300528938303,-0.1047,-0.9235,-0.2542,0.2676
274,527591.0,320.64594,1.0,-5.41,0.39,-7.97,28.75,-18.87,24.19,-1.75,-3.31,2.38,-0.20573182879256344,-0.06932939318876408,0.16849831776020885,-134.85662424793804,-29.393135398012305,31.12626391611525,-0.105,-0.9234,-0.2537,0.2683
275,527591.0,320.64594,1.0,-5.41,0.39,-7.97,28.75,-18.87,24.19,-1.75,-3.31,2.38,-0.20573182879256344,-0.06932939318876408,0.16849831776020885,-134.85662424793804,-29.393135398012305,31.12626391611525,-0.105,-0.9234,-0.2537,0.2683
276,527626.0,320.688757,1.0,-5.46,0.53,-7.97,28.5,-20.37,23.75,1.31,-0.56,2.44,-0.16322586540076503,0.05246587851669948,0.13276739535487006,-134.88648767208014,-29.262840587223426,31.197641863629613,-0.1055,-0.9235,-0.2526,0.2689
277,527626.0,320.688757,1.0,-5.46,0.53,-7.97,28.5,-20.37,23.75,1.31,-0.56,2.44,-0.16322586540076503,0.05246587851669948,0.13276739535487006,-134.88648767208014,-29.262840587223426,31.197641863629613,-0.1055,-0.9235,-0.2526,0.2689
278,527661.0,320.746671,1.0,-5.36,0.71,-8.25,28.5,-20.37,23.75,1.63,3.44,2.94,0.1150011041183054,0.07614995216620724,-0.056269239800997184,-134.97619058332577,-29.19178700040293,31.12626391611525,-0.1053,-0.9238,-0.252,0.2683
279,527661.0,320.746671,1.0,-5.36,0.71,-8.25,28.5,-20.37,23.75,1.63,3.44,2.94,0.1150011041183054,0.07614995216620724,-0.056269239800997184,-134.97619058332577,-29.19178700040293,31.12626391611525,-0.1053,-0.9238,-0.252,0.2683
280,527695.0,320.767104,1.0,-5.22,0.61,-8.07,28.5,-20.75,24.56,1.31,-0.69,1.75,0.08390196665044786,-0.0013368630746510846,0.17657426443128446,-135.1561066706563,-28.966859495010613,31.138159380012002,-0.1045,-0.9244,-0.2501,0.2684
281,527695.0,320.767104,1.0,-5.22,0.61,-8.07,28.5,-20.75,24.56,1.31,-0.69,1.75,0.08390196665044786,-0.0013368630746510846,0.17657426443128446,-135.1561066706563,-28.966859495010613,31.138159380012002,-0.1045,-0.9244,-0.2501,0.2684
282,527730.0,320.817255,1.0,-5.46,0.63,-7.97,28.75,-20.0,24.06,-1.69,-2.88,4.06,-0.13661916309851269,0.13278241812789005,0.12713017545754646,-135.2162310052641,-28.87218733809866,31.102474019884113,-0.1051,-0.9246,-0.2493,0.2681
283,527730.0,320.817255,1.0,-5.46,0.63,-7.97,28.75,-20.0,24.06,-1.69,-2.88,4.06,-0.13661916309851269,0.13278241812789005,0.12713017545754646,-135.2162310052641,-28.87218733809866,31.102474019884113,-0.1051,-0.9246,-0.2493,0.2681
284,527765.0,320.836827,1.0,-5.35,0.97,-8.2,28.75,-20.0,24.06,-5.06,-0.19,4.13,0.2040072034131544,0.2700263894837627,-0.026399720709125774,-135.30656135192416,-28.730216823306154,31.06679175207397,-0.1067,-0.9249,-0.2481,0.2678
285,527765.0,320.836827,1.0,-5.35,0.97,-8.2,28.75,-20.0,24.06,-5.06,-0.19,4.13,0.2040072034131544,0.2700263894837627,-0.026399720709125774,-135.30656135192416,-28.730216823306154,31.06679175207397,-0.1067,-0.9249,-0.2481,0.2678
286,527800.0,320.887206,1.0,-5.46,0.75,-8.23,28.75,-20.75,23.69,1.12,-1.06,1.12,0.022765551851669563,0.10961326946187633,-0.09761507423982074,-135.30656135192416,-28.671075748006672,31.078685498016352,-0.1069,-0.9249,-0.2476,0.2679
287,527800.0,320.887206,1.0,-5.46,0.75,-8.23,28.75,-20.75,23.69,1.12,-1.06,1.12,0.022765551851669563,0.10961326946187633,-0.09761507423982074,-135.30656135192416,-28.671075748006672,31.078685498016352,-0.1069,-0.9249,-0.2476,0.2679
288,527837.0,320.901057,1.0,-5.45,0.58,-8.12,28.06,-20.75,23.69,1.69,-0.75,2.13,-0.09881007848924044,-0.005363017950104521,0.010553440327500494,-135.3668779333915,-28.552816976564145,31.138159380012002,-0.1066,-0.9251,-0.2466,0.2684
289,527837.0,320.901057,1.0,-5.45,0.58,-8.12,28.06,-20.75,23.69,1.69,-0.75,2.13,-0.09881007848924044,-0.005363017950104521,0.010553440327500494,-135.3668779333915,-28.552816976564145,31.138159380012002,-0.1066,-0.9251,-0.2466,0.2684
290,527869.0,320.958024,1.0,-5.48,0.61,-8.08,28.06,-20.75,23.69,-0.94,1.81,1.37,-0.1289500443206683,0.04138284714099072,0.025517174706589433,-135.397065246721,-28.517345406099267,31.114368796125287,-0.1068,-0.9252,-0.2463,0.2682
291,527869.0,320.958024,1.0,-5.48,0.61,-8.08,28.06,-20.75,23.69,-0.94,1.81,1.37,-0.1289500443206683,0.04138284714099072,0.025517174706589433,-135.397065246721,-28.517345406099267,31.114368796125287,-0.1068,-0.9252,-0.2463,0.2682
292,527904.0,320.976809,1.0,-5.43,0.76,-8.32,28.5,-20.37,24.0,-1.37,0.31,3.38,0.07752390732628167,0.058068525859285465,-0.15706005650492827,-135.4877437505904,-28.422768181257144,31.06679175207397,-0.1074,-0.9255,-0.2455,0.2678
293,527904.0,320.976809,1.0,-5.43,0.76,-8.32,28.5,-20.37,24.0,-1.37,0.31,3.38,0.07752390732628167,0.058068525859285465,-0.15706005650492827,-135.4877437505904,-28.422768181257144,31.06679175207397,-0.1074,-0.9255,-0.2455,0.2678
294,527939.0,321.020489,1.0,-5.41,0.63,-8.35,28.75,-20.0,24.06,0.25,0.88,1.31,0.0369583440433916,-0.07537441022597757,-0.1623245099026427,-135.5180089054747,-28.36366745712689,31.06679175207397,-0.1075,-0.9256,-0.245,0.2678
295,527939.0,321.020489,1.0,-5.41,0.63,-8.35,28.75,-20.0,24.06,0.25,0.88,1.31,0.0369583440433916,-0.07537441022597757,-0.1623245099026427,-135.5180089054747,-28.36366745712689,31.06679175207397,-0.1075,-0.9256,-0.245,0.2678
296,527974.0,321.02822000000003,1.0,-5.3,0.91,-8.33,28.75,-20.0,24.06,-0.81,-0.19,1.12,0.2476425946571817,0.11518362167099848,-0.10457625504080603,-135.54829362030736,-28.28093937794029,31.06679175207397,-0.10800000000000001,-0.9257,-0.2443,0.2678
297,527974.0,321.02822000000003,1.0,-5.3,0.91,-8.33,28.75,-20.0,24.06,-0.81,-0.19,1.12,0.2476425946571817,0.11518362167099848,-0.10457625504080603,-135.54829362030736,-28.28093937794029,31.06679175207397,-0.10800000000000001,-0.9257,-0.2443,0.2678
298,528009.0,321.099652,1.0,-5.51,0.69,-8.14,28.5,-21.5,23.69,2.5,-3.44,0.37,-0.08611670808494026,0.07098236283008086,-0.046438115751108455,-135.5180089054747,-28.23367294753045,31.173847836723343,-0.1077,-0.9256,-0.2439,0.2687
299,528009.0,321.099652,1.0,-5.51,0.69,-8.14,28.5,-21.5,23.69,2.5,-3.44,0.37,-0.08611670808494026,0.07098236283008086,-0.046438115751108455,-135.5180089054747,-28.23367294753045,31.173847836723343,-0.1077,-0.9256,-0.2439,0.2687
300,528044.0,321.118855,1.0,-5.52,0.85,-8.03,28.75,-20.37,22.37,-3.19,0.81,1.37,-0.0645482238627228,0.2350079415106113,0.028388150661790238,-135.45749811569678,-28.292756752714663,31.16195134015795,-0.1086,-0.9254,-0.2444,0.2686
301,528044.0,321.118855,1.0,-5.52,0.85,-8.03,28.75,-20.37,22.37,-3.19,0.81,1.37,-0.0645482238627228,0.2350079415106113,0.028388150661790238,-135.45749811569678,-28.292756752714663,31.16195134015795,-0.1086,-0.9254,-0.2444,0.2686
302,528078.0,321.167128,1.0,-5.37,0.77,-8.24,28.06,-20.75,24.19,0.0,-3.0,1.25,0.10072235659585456,0.029112895240192223,-0.058257878242580226,-135.4877437505904,-28.210041571444727,31.197641863629613,-0.1088,-0.9255,-0.2437,0.2689
303,528078.0,321.167128,1.0,-5.37,0.77,-8.24,28.06,-20.75,24.19,0.0,-3.0,1.25,0.10072235659585456,0.029112895240192223,-0.058257878242580226,-135.4877437505904,-28.210041571444727,31.197641863629613,-0.1088,-0.9255,-0.2437,0.2689
304,528113.0,321.186416,1.0,-5.52,0.64,-8.1,28.06,-20.75,24.19,0.88,-2.06,0.37,-0.12075650416384145,0.01699041011183366,-0.015525379856866197,-135.397065246721,-28.18641141984425,31.304732073341746,-0.1088,-0.9252,-0.2435,0.2698
305,528113.0,321.186416,1.0,-5.52,0.64,-8.1,28.06,-20.75,24.19,0.88,-2.06,0.37,-0.12075650416384145,0.01699041011183366,-0.015525379856866197,-135.397065246721,-28.18641141984425,31.304732073341746,-0.1088,-0.9252,-0.2435,0.2698
306,528148.0,321.230673,1.0,-5.41,0.62,-8.37,29.56,-20.37,25.0,-1.25,1.12,1.63,0.06738675768989535,-0.13271366250768224,-0.17770005940155542,-135.45749811569678,-28.174596802852534,31.292831778140112,-0.1088,-0.9254,-0.2434,0.2697
307,528148.0,321.230673,1.0,-5.41,0.62,-8.37,29.56,-20.37,25.0,-1.25,1.12,1.63,0.06738675768989535,-0.13271366250768224,-0.17770005940155542,-135.45749811569678,-28.174596802852534,31.292831778140112,-0.1088,-0.9254,-0.2434,0.2697
308,528185.0,321.25217999999995,1.0,-5.53,0.69,-8.03,28.5,-20.37,24.06,-1.31,-1.81,1.75,-0.1383875397530437,0.07372417974112966,0.0335586961103953,-135.42727196097036,-28.12734139012517,31.304732073341746,-0.1094,-0.9253,-0.243,0.2698
309,528185.0,321.25217999999995,1.0,-5.53,0.69,-8.03,28.5,-20.37,24.06,-1.31,-1.81,1.75,-0.1383875397530437,0.07372417974112966,0.0335586961103953,-135.42727196097036,-28.12734139012517,31.304732073341746,-0.1094,-0.9253,-0.243,0.2698
