acc_x,acc_y,acc_z,lin_x,lin_y,lin_z,eul_x,eul_y,eul_z
8.86,3.59,2.14,0.0067706466243621,0.1825198621841526,0.0120626856588526,-76.51547548565267,13.461068017168213,-82.35592311764404
8.86,3.59,2.14,0.0067706466243621,0.1825198621841526,0.0120626856588526,-76.51547548565267,13.461068017168213,-82.35592311764404
8.9,3.52,1.88,-0.1307795837112739,-0.05284401775782,0.0539629748632091,-76.50088290484744,13.44952940908047,-82.38637607932448
8.9,3.52,1.88,-0.1307795837112739,-0.05284401775782,0.0539629748632091,-76.50088290484744,13.44952940908047,-82.38637607932448
8.97,3.3,1.91,0.0483909097140209,-0.2054380986246906,0.0621924210738864,-76.48629178886966,13.403376345459217,-82.41683612578922
8.97,3.3,1.91,0.0483909097140209,-0.2054380986246906,0.0621924210738864,-76.48629178886966,13.403376345459217,-82.41683612578922
8.87,3.59,2.1,-0.0278811117866315,0.1446671168049553,0.0110747709018728,-76.4571139486868,13.461068017168213,-82.38637607932448
8.87,3.59,2.1,-0.0278811117866315,0.1446671168049553,0.0110747709018728,-76.4571139486868,13.461068017168213,-82.38637607932448
8.9,3.42,1.92,-0.0426349845219277,-0.0980129018242928,0.0813543371848677,-76.42794195968905,13.44952940908047,-82.43206880803427
8.9,3.42,1.92,-0.0426349845219277,-0.0980129018242928,0.0813543371848677,-76.42794195968905,13.44952940908047,-82.43206880803427
8.95,3.49,1.81,-0.1658852292501514,-0.1473546702774784,0.0337554087407632,-76.41335815769425,13.44952940908047,-82.43206880803427
8.95,3.49,1.81,-0.1658852292501514,-0.1473546702774784,0.0337554087407632,-76.41335815769425,13.44952940908047,-82.43206880803427
8.86,3.54,2.1,-0.0047830634369695,0.1099157228661798,0.0378683125954264,-76.38419493533601,13.47260676237266,-82.43206880803427
8.86,3.54,2.1,-0.0047830634369695,0.1099157228661798,0.0378683125954264,-76.38419493533601,13.47260676237266,-82.43206880803427
8.89,3.49,2.04,-0.0101343788987961,0.0294026343523716,0.0407484656071037,-76.3987758164682,13.461068017168213,-82.44730326413901
8.89,3.49,2.04,-0.0101343788987961,0.0294026343523716,0.0407484656071037,-76.3987758164682,13.461068017168213,-82.44730326413901
8.9,3.5,1.88,-0.1326483362119053,-0.0767234328449273,0.0613476479047765,-76.38419493533601,13.44952940908047,-82.46253949499255
8.9,3.5,1.88,-0.1326483362119053,-0.0767234328449273,0.0613476479047765,-76.38419493533601,13.44952940908047,-82.46253949499255
8.94,3.43,2.06,0.0495496614751337,-0.022005910611452,0.012306705478112,-76.38419493533601,13.403376345459217,-82.49301728450641
8.94,3.43,2.06,0.0495496614751337,-0.022005910611452,0.012306705478112,-76.38419493533601,13.403376345459217,-82.49301728450641
8.91,3.44,2.05,0.0356841604533989,-0.0106006412251093,0.038189821082426,-76.3987758164682,13.39183842112712,-82.47777750148487
8.91,3.44,2.05,0.0356841604533989,-0.0106006412251093,0.038189821082426,-76.3987758164682,13.39183842112712,-82.47777750148487
8.85,3.39,2.07,0.0789910378619811,-0.0064243894552293,0.1064840662049686,-76.3987758164682,13.380300633180664,-82.47777750148487
8.85,3.39,2.07,0.0789910378619811,-0.0064243894552293,0.1064840662049686,-76.3987758164682,13.380300633180664,-82.47777750148487
8.95,3.53,2.0,-0.0547001577120774,-0.007546522593216,-0.0198626541791515,-76.41335815769425,13.322613734970494,-82.50825884494826
8.95,3.53,2.0,-0.0547001577120774,-0.007546522593216,-0.0198626541791515,-76.41335815769425,13.322613734970494,-82.50825884494826
8.94,3.54,2.08,-0.0033477804191611,0.053143923200545,-0.0309698603012247,-76.41335815769425,13.299539926123945,-82.50825884494826
8.94,3.54,2.08,-0.0033477804191611,0.053143923200545,-0.0309698603012247,-76.41335815769425,13.299539926123945,-82.50825884494826
8.93,4.06,2.38,-0.1205919979932643,0.5632767198703029,-0.2711015799344913,-76.47170213704182,13.091899903813276,-82.47777750148487
8.93,4.06,2.38,-0.1205919979932643,0.5632767198703029,-0.2711015799344913,-76.47170213704182,13.091899903813276,-82.47777750148487
9.25,3.64,1.97,-0.06200683052978,-0.1246686419041958,-0.3261488671784782,-76.6176646234629,12.711338126294772,-82.52350218370225
9.25,3.64,1.97,-0.06200683052978,-0.1246686419041958,-0.3261488671784782,-76.6176646234629,12.711338126294772,-82.52350218370225
9.3,4.13,2.35,-0.0085914344567155,0.368185447231943,-0.6304839774720072,-77.01249967190056,12.019765115233204,-82.35592311764404
9.3,4.13,2.35,-0.0085914344567155,0.368185447231943,-0.6304839774720072,-77.01249967190056,12.019765115233204,-82.35592311764404
9.41,4.14,1.8,-0.2831294283428603,-0.0616318034316933,-0.6261702921171786,-77.57003532685165,11.086833319532731,-82.24939344216158
9.41,4.14,1.8,-0.2831294283428603,-0.0616318034316933,-0.6261702921171786,-77.57003532685165,11.086833319532731,-82.24939344216158
9.87,5.52,1.14,-1.36966089965398,0.1850638271066094,-1.4750466986289688,-78.61764169313197,9.60254790532585,-81.83929990977303
9.87,5.52,1.14,-1.36966089965398,0.1850638271066094,-1.4750466986289688,-78.61764169313197,9.60254790532585,-81.83929990977303
9.77,5.23,1.13,-0.8471796295310761,-0.0397526653227267,-1.300258048638348,-80.09163739911392,7.315910364212048,-81.30958228614423
9.77,5.23,1.13,-0.8471796295310761,-0.0397526653227267,-1.300258048638348,-80.09163739911392,7.315910364212048,-81.30958228614423
10.04,5.62,-0.24,-1.6800959914898257,-0.8706882806399161,-1.5451242832270982,-81.64230083997052,4.206454848857137,-80.46637592020761
10.04,5.62,-0.24,-1.6800959914898257,-0.8706882806399161,-1.5451242832270982,-81.64230083997052,4.206454848857137,-80.46637592020761
10.68,6.58,1.02,-0.5332754719845088,0.1541474243670606,-2.7667765752236626,-83.65650764793494,2.372214704126748,-78.8696393433536
10.68,6.58,1.02,-0.5332754719845088,0.1541474243670606,-2.7667765752236626,-83.65650764793494,2.372214704126748,-78.8696393433536
10.84,8.19,0.65,-0.565698835901285,1.1020740366887285,-3.738445704524073,-87.7043277374761,0.1718874029970642,-75.425051592449
10.84,8.19,0.65,-0.565698835901285,1.1020740366887285,-3.738445704524073,-87.7043277374761,0.1718874029970642,-75.425051592449
9.87,7.18,0.2,0.2053671975155276,0.7148063520614736,-2.3776093617025893,-91.54895776302855,-2.383676327772471,-72.54126289658385
9.87,7.18,0.2,0.2053671975155276,0.7148063520614736,-2.3776093617025893,-91.54895776302855,-2.383676327772471,-72.54126289658385
8.75,8.29,0.25,0.7104051626092474,2.2832838735481444,-2.0099078430325057,-96.76581595045091,-5.387788121139308,-68.47159291816318
8.75,8.29,0.25,0.7104051626092474,2.2832838735481444,-2.0099078430325057,-96.76581595045091,-5.387788121139308,-68.47159291816318
7.86,7.88,-0.71,0.5676593451516743,2.145699638447445,-1.122752359206496,-100.6359655604961,-8.165828301178744,-65.84443673875893
7.86,7.88,-0.71,0.5676593451516743,2.145699638447445,-1.122752359206496,-100.6359655604961,-8.165828301178744,-65.84443673875893
7.66,7.42,-2.3,0.2102363748532952,1.5078955360813782,-0.9963149503714648,-104.87710290187228,-12.284814782039538,-63.14808734462744
7.66,7.42,-2.3,0.2102363748532952,1.5078955360813782,-0.9963149503714648,-104.87710290187228,-12.284814782039538,-63.14808734462744
6.83,6.73,-2.89,0.2417088913579408,1.3923303757716583,-0.107828954364777,-108.66217014935285,-15.18192036535379,-60.23831733096471
6.83,6.73,-2.89,0.2417088913579408,1.3923303757716583,-0.107828954364777,-108.66217014935285,-15.18192036535379,-60.23831733096471
7.31,6.67,-5.13,-0.394747433898492,0.7596875373239649,-1.3068080266029316,-113.1900371366138,-18.83183055191492,-56.17247760648797
7.31,6.67,-5.13,-0.394747433898492,0.7596875373239649,-1.3068080266029316,-113.1900371366138,-18.83183055191492,-56.17247760648797
6.32,6.17,-4.66,0.5602841660823523,0.9911008472856592,-0.1145747612755485,-117.45321573278471,-22.25582556887037,-51.23993373594613
6.32,6.17,-4.66,0.5602841660823523,0.9911008472856592,-0.1145747612755485,-117.45321573278471,-22.25582556887037,-51.23993373594613
6.64,6.53,-6.5,0.1706117073580696,0.8239295162234503,-1.519096412383078,-120.38490958888936,-24.772390131710253,-47.58180340274293
6.64,6.53,-6.5,0.1706117073580696,0.8239295162234503,-1.519096412383078,-120.38490958888936,-24.772390131710253,-47.58180340274293
5.56,5.28,-6.16,0.6884562775605787,0.3788973293286033,0.0025659138798133,-124.23291484122736,-28.505522169511824,-41.83213929656368
5.56,5.28,-6.16,0.6884562775605787,0.3788973293286033,0.0025659138798133,-124.23291484122736,-28.505522169511824,-41.83213929656368
4.01,4.15,-5.95,0.2846789599802992,0.4107203997999209,1.532874160461397,-127.22274573469288,-30.92409351880312,-37.33794513405029
4.01,4.15,-5.95,0.2846789599802992,0.4107203997999209,1.532874160461397,-127.22274573469288,-30.92409351880312,-37.33794513405029
4.45,2.84,-6.72,0.5891586570295062,-0.7717432278731347,1.316431836308377,-131.1213744286973,-33.6081640231361,-31.376141122007805
4.45,2.84,-6.72,0.5891586570295062,-0.7717432278731347,1.316431836308377,-131.1213744286973,-33.6081640231361,-31.376141122007805
4.33,2.28,-8.57,-0.0681830758167396,-1.4240216089276152,0.0414201754910354,-132.7820481898819,-35.42008094609324,-27.06536707365856
4.33,2.28,-8.57,-0.0681830758167396,-1.4240216089276152,0.0414201754910354,-132.7820481898819,-35.42008094609324,-27.06536707365856
2.48,4.24,-7.72,0.9520810057163438,0.7667386803035554,0.7384608999271229,-134.2337582296838,-37.49522418973963,-20.70457229377833
2.48,4.24,-7.72,0.9520810057163438,0.7667386803035554,0.7384608999271229,-134.2337582296838,-37.49522418973963,-20.70457229377833
1.57,3.49,-7.9,0.4614610842504581,0.5323461533019607,1.05686936041897,-134.5590130176977,-39.42492119409256,-16.43138337904295
1.57,3.49,-7.9,0.4614610842504581,0.5323461533019607,1.05686936041897,-134.5590130176977,-39.42492119409256,-16.43138337904295
1.77,3.04,-9.78,0.6404377749412874,-0.5615812359660001,-0.5517941868380571,-134.1748557862076,-41.83213929656368,-10.9717089235085
1.77,3.04,-9.78,0.6404377749412874,-0.5615812359660001,-0.5517941868380571,-134.1748557862076,-41.83213929656368,-10.9717089235085
0.83,3.04,-8.91,1.067005918746562,-0.3304982894053567,0.4220418968312831,-132.98273895587266,-43.99918511445215,-4.997776256010228
0.83,3.04,-8.91,1.067005918746562,-0.3304982894053567,0.4220418968312831,-132.98273895587266,-43.99918511445215,-4.997776256010228
0.21,2.95,-9.02,1.1299476353539517,-0.3037520889688585,0.3865675688423504,-131.62233589525562,-45.598062543777615,-1.1573944243672372
0.21,2.95,-9.02,1.1299476353539517,-0.3037520889688585,0.3865675688423504,-131.62233589525562,-45.598062543777615,-1.1573944243672372
0.67,2.77,-9.19,1.7858534705374145,-1.0523445694123734,0.4108425153291009,-129.80842917390058,-47.431566664841,1.9710720103882065
0.67,2.77,-9.19,1.7858534705374145,-1.0523445694123734,0.4108425153291009,-129.80842917390058,-47.431566664841,1.9710720103882065
-0.08,0.68,-8.26,0.3645424351789983,-1.7567411770733077,1.7148412250888632,-127.4552625013064,-49.79547555361781,5.97292446733722
-0.08,0.68,-8.26,0.3645424351789983,-1.7567411770733077,1.7148412250888632,-127.4552625013064,-49.79547555361781,5.97292446733722
-0.56,0.6,-8.33,0.4448636648761253,-1.7126071404351078,1.6254781339282631,-124.84860239500853,-51.837991208733065,9.568049817899787
-0.56,0.6,-8.33,0.4448636648761253,-1.7126071404351078,1.6254781339282631,-124.84860239500853,-51.837991208733065,9.568049817899787
-1.26,0.86,-8.29,0.4577379426564179,-1.2560142506724543,1.4841381088723953,-122.92389068833596,-53.14117252914141,11.651107384541652
-1.26,0.86,-8.29,0.4577379426564179,-1.2560142506724543,1.4841381088723953,-122.92389068833596,-53.14117252914141,11.651107384541652
-1.95,1.86,-8.34,1.136494056966903,-0.5031681032047446,1.1306542001856492,-120.75479321636242,-54.45180871588593,13.922726077012074
-1.95,1.86,-8.34,1.136494056966903,-0.5031681032047446,1.1306542001856492,-120.75479321636242,-54.45180871588593,13.922726077012074
-1.54,1.34,-9.28,1.213818575402177,-1.5621681137110133,0.5130029628830233,-119.44645197451608,-55.38161658816516,15.35534492966006
-1.54,1.34,-9.28,1.213818575402177,-1.5621681137110133,0.5130029628830233,-119.44645197451608,-55.38161658816516,15.35534492966006
-2.54,0.0,-9.24,-0.1331440957597434,-1.65244858428623,0.368382874830532,-118.00727569803878,-56.15948929286995,17.49728858817925
-2.54,0.0,-9.24,-0.1331440957597434,-1.65244858428623,0.368382874830532,-118.00727569803878,-56.15948929286995,17.49728858817925
-2.54,1.69,-9.44,1.44865404812273,-1.1618467834354165,0.0612503929711323,-116.59757736800644,-56.74474561080106,18.855062255560348
-2.54,1.69,-9.44,1.44865404812273,-1.1618467834354165,0.0612503929711323,-116.59757736800644,-56.74474561080106,18.855062255560348
-2.88,2.05,-8.68,1.7122382100787834,-0.7832790252939434,0.6254728270836214,-114.95918116675216,-57.09667459203971,21.07744476440248
-2.88,2.05,-8.68,1.7122382100787834,-0.7832790252939434,0.6254728270836214,-114.95918116675216,-57.09667459203971,21.07744476440248
-3.72,1.21,-8.87,0.8979505238273618,-0.9092862612247484,0.1969526399419781,-113.98515404910734,-56.966262181573775,23.28447580744025
-3.72,1.21,-8.87,0.8979505238273618,-0.9092862612247484,0.1969526399419781,-113.98515404910734,-56.966262181573775,23.28447580744025
-4.52,0.93,-8.24,0.5184414145103211,-0.6199056302059188,0.3970891436497137,-112.01279388618184,-57.00537744006553,26.39401255557817
-4.52,0.93,-8.24,0.5184414145103211,-0.6199056302059188,0.3970891436497137,-112.01279388618184,-57.00537744006553,26.39401255557817
-5.03,1.92,-5.88,0.842295274453771,1.0566007118168554,1.949434614991076,-110.2096390648013,-56.95322537205693,28.63559484770936
-5.03,1.92,-5.88,0.842295274453771,1.0566007118168554,1.949434614991076,-110.2096390648013,-56.95322537205693,28.63559484770936
-5.48,1.59,-6.4,0.6731752195595911,0.7011259761690305,1.287626729148352,-109.01667267342908,-56.94018936700064,30.44878609284871
-5.48,1.59,-6.4,0.6731752195595911,0.7011259761690305,1.287626729148352,-109.01667267342908,-56.94018936700064,30.44878609284871
-5.57,0.08,-6.19,-0.5942874760677705,0.1603094398116755,1.5019210291487362,-108.62287531550987,-56.99233821526014,31.43565821002521
-5.57,0.08,-6.19,-0.5942874760677705,0.1603094398116755,1.5019210291487362,-108.62287531550987,-56.99233821526014,31.43565821002521
-5.09,0.22,-6.76,-0.0702981360579042,-0.4026991554860637,1.3516519773959974,-108.50510319404415,-57.09667459203971,31.74528777217434
-5.09,0.22,-6.76,-0.0702981360579042,-0.4026991554860637,1.3516519773959974,-108.50510319404415,-57.09667459203971,31.74528777217434
-5.39,0.3,-6.75,-0.1006700881049694,-0.1248258678013509,1.1649554881528843,-108.58359923261342,-57.135814055955535,31.757201337874307
-5.39,0.3,-6.75,-0.1006700881049694,-0.1248258678013509,1.1649554881528843,-108.58359923261342,-57.135814055955535,31.757201337874307
-5.44,0.69,-7.35,0.3492038847386299,-0.2530595667183213,0.6466162935895383,-108.60323493215937,-57.16191107597382,31.578534757977327
-5.44,0.69,-7.35,0.3492038847386299,-0.2530595667183213,0.6466162935895383,-108.60323493215937,-57.16191107597382,31.578534757977327
-5.76,0.93,-6.93,0.2981968855473094,0.2837673369860778,0.7569011241521331,-108.7211476270906,-56.94018936700064,31.55471850803617
-5.76,0.93,-6.93,0.2981968855473094,0.2837673369860778,0.7569011241521331,-108.7211476270906,-56.94018936700064,31.55471850803617
-5.87,0.62,-7.8,0.1757392302774026,-0.2736940381183561,0.0303773311123318,-108.85892668852873,-56.90108617541996,31.376141122007805
-5.87,0.62,-7.8,0.1757392302774026,-0.2736940381183561,0.0303773311123318,-108.85892668852873,-56.90108617541996,31.376141122007805
-5.88,0.87,-7.34,0.2404186932727934,0.0968307222932884,0.3652664857503432,-108.9772076529968,-56.74474561080106,31.26903222594612
-5.88,0.87,-7.34,0.2404186932727934,0.0968307222932884,0.3652664857503432,-108.9772076529968,-56.74474561080106,31.26903222594612
-5.82,0.84,-7.84,0.3251364148538426,-0.2402082673188768,0.0148071550577011,-109.21428447215928,-56.56249373757082,31.09057958723377
-5.82,0.84,-7.84,0.3251364148538426,-0.2402082673188768,0.0148071550577011,-109.21428447215928,-56.56249373757082,31.09057958723377
-5.77,0.87,-7.95,0.3683485672508152,-0.3260461588569725,-0.0427313630754948,-109.29346359122704,-56.52346006643047,30.94787313807167
-5.77,0.87,-7.95,0.3683485672508152,-0.3260461588569725,-0.0427313630754948,-109.29346359122704,-56.52346006643047,30.94787313807167
-5.84,1.02,-7.73,0.3532523554425458,-0.1144941058360466,0.0721236184494777,-109.61095464877064,-56.1335150213454,30.781444422149058
-5.84,1.02,-7.73,0.3532523554425458,-0.1144941058360466,0.0721236184494777,-109.61095464877064,-56.1335150213454,30.781444422149058
-5.58,1.63,-7.99,0.9924443677156384,-0.169559651065556,-0.0228822219177882,-109.71042658552564,-56.0296492994227,30.50817000692102
-5.58,1.63,-7.99,0.9924443677156384,-0.169559651065556,-0.0228822219177882,-109.71042658552564,-56.0296492994227,30.50817000692102
-5.77,0.8,-7.85,0.1643880129159696,-0.3556949825398097,0.0392625468165466,-109.86983734458828,-55.84800465854668,30.603201736078947
-5.77,0.8,-7.85,0.1643880129159696,-0.3556949825398097,0.0392625468165466,-109.86983734458828,-55.84800465854668,30.603201736078947
-5.71,0.99,-7.92,0.3532100724374751,-0.3682029565318745,0.0061260738249355,-109.8498937322769,-55.80910067345633,30.567562314513644
-5.71,0.99,-7.92,0.3532100724374751,-0.3682029565318745,0.0061260738249355,-109.8498937322769,-55.80910067345633,30.567562314513644
-5.86,1.16,-7.71,0.3509386668571914,-0.108133974785028,0.0601404147381217,-109.79009253076951,-55.75723957043542,30.48441543516209
-5.86,1.16,-7.71,0.3509386668571914,-0.108133974785028,0.0601404147381217,-109.79009253076951,-55.75723957043542,30.48441543516209
-5.92,0.97,-7.63,0.1283445468935133,-0.1134043901671895,0.1022763921068286,-109.90973941260324,-55.640597444132574,30.44878609284871
-5.92,0.97,-7.63,0.1283445468935133,-0.1134043901671895,0.1022763921068286,-109.90973941260324,-55.640597444132574,30.44878609284871
-5.87,1.19,-7.8,0.3463613860918294,-0.1363231440445382,-0.0205800161654092,-110.08954448644468,-55.51106851407834,30.28255562108873
-5.87,1.19,-7.8,0.3463613860918294,-0.1363231440445382,-0.0205800161654092,-110.08954448644468,-55.51106851407834,30.28255562108873
-5.91,1.13,-7.55,0.2071634807081421,0.0084160481647987,0.1544734339401898,-110.2096390648013,-55.40750082753502,30.24694330618832
-5.91,1.13,-7.55,0.2071634807081421,0.0084160481647987,0.1544734339401898,-110.2096390648013,-55.40750082753502,30.24694330618832
-5.84,1.35,-7.77,0.4432748309329949,-0.0395666233773581,0.003439204216006,-110.5307773959204,-55.17465292180053,30.05706136986712
-5.84,1.35,-7.77,0.4432748309329949,-0.0395666233773581,0.003439204216006,-110.5307773959204,-55.17465292180053,30.05706136986712
-5.67,1.12,-8.07,0.3729373556883106,-0.4132760043861569,-0.1038656613029385,-110.65153929836842,-55.14879620852955,29.92656655764556
-5.67,1.12,-8.07,0.3729373556883106,-0.4132760043861569,-0.1038656613029385,-110.65153929836842,-55.14879620852955,29.92656655764556
-5.8,1.1,-7.82,0.2455475200113661,-0.2131825724968464,0.0139660162190491,-110.69183416222988,-55.01955829122679,30.033332077879628
-5.8,1.1,-7.82,0.2455475200113661,-0.2131825724968464,0.0139660162190491,-110.69183416222988,-55.01955829122679,30.033332077879628
-5.85,1.31,-7.64,0.3640189102800495,0.0050913983201801,0.1022353184943885,-110.63139954579825,-54.99371982086026,30.09265778200395
-5.85,1.31,-7.64,0.3640189102800495,0.0050913983201801,0.1022353184943885,-110.63139954579825,-54.99371982086026,30.09265778200395
-5.76,1.58,-7.66,0.619555598835494,0.058326941592473,0.1132321905874658,-110.63139954579825,-55.006638676877785,29.985877446985693
-5.76,1.58,-7.66,0.619555598835494,0.058326941592473,0.1132321905874658,-110.63139954579825,-55.006638676877785,29.985877446985693
-5.95,1.13,-7.43,0.105194265356778,0.0934586963942192,0.22205300072015,-110.65153929836842,-54.954967799820345,30.080791981197944
-5.95,1.13,-7.43,0.105194265356778,0.0934586963942192,0.22205300072015,-110.65153929836842,-54.954967799820345,30.080791981197944
-5.83,1.13,-7.49,0.1614773502569551,-0.0168784209371546,0.249477814449472,-110.69183416222988,-54.929136905330246,30.021467926252928
-5.83,1.13,-7.49,0.1614773502569551,-0.0168784209371546,0.249477814449472,-110.69183416222988,-54.929136905330246,30.021467926252928
-5.83,1.37,-7.49,0.3491713972801528,0.0864720410124286,0.2235136698915418,-110.69183416222988,-54.89039623695746,29.95028992789253
-5.83,1.37,-7.49,0.3491713972801528,0.0864720410124286,0.2235136698915418,-110.69183416222988,-54.89039623695746,29.95028992789253
-5.93,1.31,-7.62,0.2765874781040361,0.0419284809368993,0.0666735436915768,-110.7321495345978,-54.8516623694969,29.93842807862379
-5.93,1.31,-7.62,0.2765874781040361,0.0419284809368993,0.0666735436915768,-110.7321495345978,-54.8516623694969,29.93842807862379
-5.74,1.38,-8.01,0.4913004512788842,-0.2620531303800829,-0.1282406397318336,-110.87341536801527,-54.774215005307816,29.8198276164604
-5.74,1.38,-8.01,0.4913004512788842,-0.2620531303800829,-0.1282406397318336,-110.87341536801527,-54.774215005307816,29.8198276164604
-5.86,1.33,-7.4,0.2463546855217407,0.1285131026333306,0.2782034450062092,-110.81284195033062,-54.78712101513374,29.8198276164604
-5.86,1.33,-7.4,0.2463546855217407,0.1285131026333306,0.2782034450062092,-110.81284195033062,-54.78712101513374,29.8198276164604
-5.87,1.31,-7.58,0.2637227437475784,0.014858453380607,0.1340273183901477,-110.79266112612925,-54.78712101513374,29.8198276164604
-5.87,1.31,-7.58,0.2637227437475784,0.014858453380607,0.1340273183901477,-110.79266112612925,-54.78712101513374,29.8198276164604
-5.69,1.12,-7.8,0.2275317188675986,-0.3072027665549359,0.0945773181709466,-110.81284195033062,-54.825843565521545,29.760539648089328
-5.69,1.12,-7.8,0.2275317188675986,-0.3072027665549359,0.0945773181709466,-110.81284195033062,-54.825843565521545,29.760539648089328
-5.83,1.05,-7.62,0.058201144048921,-0.1452965897580518,0.1561939730634431,-110.79266112612925,-54.8516623694969,29.72497078004789
-5.83,1.05,-7.62,0.058201144048921,-0.1452965897580518,0.1561939730634431,-110.79266112612925,-54.8516623694969,29.72497078004789
-5.89,1.57,-7.25,0.3865448361022343,0.3435279793407355,0.3487394687519494,-110.69183416222988,-54.929136905330246,29.68940484166728
-5.89,1.57,-7.25,0.3865448361022343,0.3435279793407355,0.3487394687519494,-110.69183416222988,-54.929136905330246,29.68940484166728
-5.81,1.32,-7.53,0.2714064173379603,0.0235973255325367,0.208463623248635,-110.71198928258144,-54.96788438262905,29.653841828798463
-5.81,1.32,-7.53,0.2714064173379603,0.0235973255325367,0.208463623248635,-110.71198928258144,-54.96788438262905,29.653841828798463
-5.7,1.08,-7.87,0.1933607697944565,-0.3421134532776284,0.0373680408286443,-110.79266112612925,-54.954967799820345,29.630134776789287
-5.7,1.08,-7.87,0.1933607697944565,-0.3421134532776284,0.0373680408286443,-110.79266112612925,-54.954967799820345,29.630134776789287
-5.26,1.23,-7.57,0.4262773952543048,-0.370654628930089,0.524069392844039,-110.81284195033062,-55.03247866420509,29.45237314889127
-5.26,1.23,-7.57,0.4262773952543048,-0.370654628930089,0.524069392844039,-110.81284195033062,-55.03247866420509,29.45237314889127
-5.79,1.5,-7.7,0.4442215792101452,0.0244995282093998,0.0667235648732145,-110.81284195033062,-55.006638676877785,29.41682953361233
-5.79,1.5,-7.7,0.4442215792101452,0.0244995282093998,0.0667235648732145,-110.81284195033062,-55.006638676877785,29.41682953361233
-5.9,1.27,-7.72,0.203665835027152,-0.0259297086080789,0.0097551920593641,-110.79266112612925,-55.01955829122679,29.42867708363529
-5.9,1.27,-7.72,0.203665835027152,-0.0259297086080789,0.0097551920593641,-110.79266112612925,-55.01955829122679,29.42867708363529
-5.78,1.37,-7.66,0.3238855492890081,-0.016564955337385,0.1187336216853918,-110.81284195033062,-55.03247866420509,29.381288812129693
-5.78,1.37,-7.66,0.3238855492890081,-0.016564955337385,0.1187336216853918,-110.81284195033062,-55.03247866420509,29.381288812129693
-5.77,1.19,-7.75,0.1913160485511654,-0.1508040474490921,0.0746329270166334,-110.8936168375535,-54.99371982086026,29.357596603435567
-5.77,1.19,-7.75,0.1913160485511654,-0.1508040474490921,0.0746329270166334,-110.8936168375535,-54.99371982086026,29.357596603435567
-5.75,1.19,-7.93,0.2211491219341194,-0.2756545552464671,-0.0543138287562765,-110.8936168375535,-54.98080172287654,29.274683969227155
-5.75,1.19,-7.93,0.2211491219341194,-0.2756545552464671,-0.0543138287562765,-110.8936168375535,-54.98080172287654,29.274683969227155
-5.89,1.34,-7.53,0.1898181290672334,0.1098058255300671,0.1557167933843271,-110.93403529967291,-54.929136905330246,29.262840587223423
-5.89,1.34,-7.53,0.1898181290672334,0.1098058255300671,0.1557167933843271,-110.93403529967291,-54.929136905330246,29.262840587223423
