acc_x,acc_y,acc_z,lin_x,lin_y,lin_z,eul_x,eul_y,eul_z
1.13,1.48,-9.69,-0.1195577843053353,0.1210484833291876,-0.059172479697052,-156.5307030363511,-20.599742008899195,-8.855279263547427
1.13,1.48,-9.69,-0.1195577843053353,0.1210484833291876,-0.059172479697052,-156.5307030363511,-20.599742008899195,-8.855279263547427
1.12,1.41,-9.74,-0.1713482393580405,0.0301841426461524,-0.0968760740001908,-156.58711361479934,-20.471639758994087,-8.878266355561609
1.12,1.41,-9.74,-0.1713482393580405,0.0301841426461524,-0.0968760740001908,-156.58711361479934,-20.471639758994087,-8.878266355561609
1.21,1.37,-9.54,-0.0819749665676574,-0.0526004890612937,0.0936116857850901,-156.58711361479934,-20.355205608113067,-8.92424161449454
1.21,1.37,-9.54,-0.0819749665676574,-0.0526004890612937,0.0936116857850901,-156.58711361479934,-20.355205608113067,-8.92424161449454
1.15,1.57,-9.56,-0.0974701747949097,0.1260513617008213,0.0518762650926198,-156.5307030363511,-20.285355318851703,-9.027691221695424
1.15,1.57,-9.56,-0.0974701747949097,0.1260513617008213,0.0518762650926198,-156.5307030363511,-20.285355318851703,-9.027691221695424
1.18,1.6,-9.64,-0.0945643417113423,0.1092842817935694,-0.0351544347075734,-156.47442582901172,-20.285355318851703,-9.119652615329128
1.18,1.6,-9.64,-0.0945643417113423,0.1092842817935694,-0.0351544347075734,-156.47442582901172,-20.285355318851703,-9.119652615329128
1.0,1.7,-9.35,-0.196654658042195,0.2834221103833208,0.2571212758787844,-156.25063177900063,-20.459995384570263,-9.246109154854068
1.0,1.7,-9.35,-0.196654658042195,0.2834221103833208,0.2571212758787844,-156.25063177900063,-20.459995384570263,-9.246109154854068
1.04,1.84,-9.25,-0.1286107048003519,0.4331387689622993,0.3290157966013201,-155.91878451766874,-20.762818905741057,-9.51055493545105
1.04,1.84,-9.25,-0.1286107048003519,0.4331387689622993,0.3290157966013201,-155.91878451766874,-20.762818905741057,-9.51055493545105
1.02,1.77,-9.16,-0.2528089445302939,0.4646436923048122,0.436532931533522,-155.16145880106285,-21.42721774773248,-10.269686237501055
1.02,1.77,-9.16,-0.2528089445302939,0.4646436923048122,0.436532931533522,-155.16145880106285,-21.42721774773248,-10.269686237501055
0.89,2.57,-7.9,0.0005502556593761,1.4887852255456238,1.585304717783968,-154.01525359440276,-22.232468575814032,-11.743260322870698
0.89,2.57,-7.9,0.0005502556593761,1.4887852255456238,1.585304717783968,-154.01525359440276,-22.232468575814032,-11.743260322870698
2.57,2.75,-9.66,0.6101977090786121,1.2228001953906007,-0.4702862379061194,-149.85607839466778,-25.03056340197877,-15.875832638109523
2.57,2.75,-9.66,0.6101977090786121,1.2228001953906007,-0.4702862379061194,-149.85607839466778,-25.03056340197877,-15.875832638109523
3.19,0.5,-9.39,0.006615317846606,-0.6552440017109107,-0.1013675381249523,-146.47163743677677,-28.03284519878868,-17.949595138790567
3.19,0.5,-9.39,0.006615317846606,-0.6552440017109107,-0.1013675381249523,-146.47163743677677,-28.03284519878868,-17.949595138790567
2.5,0.22,-7.43,-0.3930586513927679,-0.4162981797795353,1.9851731111971225,-143.3178010626215,-30.21133398212997,-20.355205608113067
2.5,0.22,-7.43,-0.3930586513927679,-0.4162981797795353,1.9851731111971225,-143.3178010626215,-30.21133398212997,-20.355205608113067
4.03,0.72,-7.02,0.18908321918935,-0.2799269231165395,1.6871926010148002,-135.63926552609755,-33.476513522752754,-28.16278249153404
4.03,0.72,-7.02,0.18908321918935,-0.2799269231165395,1.6871926010148002,-135.63926552609755,-33.476513522752754,-28.16278249153404
7.45,1.45,-9.04,0.5377500835226858,-0.3295113331360725,-1.9801581824133423,-127.55891058236664,-35.853396366027425,-36.63712122701613
7.45,1.45,-9.04,0.5377500835226858,-0.3295113331360725,-1.9801581824133423,-127.55891058236664,-35.853396366027425,-36.63712122701613
8.53,-0.16,-9.34,-1.5583228606043344,-0.8922879988043004,-2.715232925075915,-118.99341650256764,-38.05234138049009,-44.90284557373644
8.53,-0.16,-9.34,-1.5583228606043344,-0.8922879988043004,-2.715232925075915,-118.99341650256764,-38.05234138049009,-44.90284557373644
8.07,0.17,-6.78,-0.5068490778148401,-0.9928141252485028,-0.6756982161691845,-116.1194452258842,-38.28272700926836,-47.90761495262175
8.07,0.17,-6.78,-0.5068490778148401,-0.9928141252485028,-0.6756982161691845,-116.1194452258842,-38.28272700926836,-47.90761495262175
7.82,1.01,-5.59,0.0464757871983997,-0.47402518605264,0.1529595075410608,-113.1484208155573,-37.822115366775535,-51.82525084646464
7.82,1.01,-5.59,0.0464757871983997,-0.47402518605264,0.1529595075410608,-113.1484208155573,-37.822115366775535,-51.82525084646464
8.54,1.01,-5.43,-0.1198141340721977,-0.6048963981920488,-0.3450171005668245,-110.45037134177934,-37.192829183479816,-55.39455832418957
8.54,1.01,-5.43,-0.1198141340721977,-0.6048963981920488,-0.3450171005668245,-110.45037134177934,-37.192829183479816,-55.39455832418957
8.87,1.43,-5.53,-0.5874115751887329,-0.0096740571158575,-0.7269891647878843,-107.3364808253328,-35.43211039129503,-60.15884633673368
8.87,1.43,-5.53,-0.5874115751887329,-0.0096740571158575,-0.7269891647878843,-107.3364808253328,-35.43211039129503,-60.15884633673368
9.21,1.14,-4.79,-0.5435278603756352,-0.5754279450030025,-0.6068633430127761,-106.12661834568743,-33.24922417976444,-63.12118872806756
9.21,1.14,-4.79,-0.5435278603756352,-0.5754279450030025,-0.6068633430127761,-106.12661834568743,-33.24922417976444,-63.12118872806756
9.73,1.07,-4.33,-0.1483486760531442,-1.2109561139931428,-0.8271770608608211,-107.0468533184743,-31.10247401988412,-63.781328955958536
9.73,1.07,-4.33,-0.1483486760531442,-1.2109561139931428,-0.8271770608608211,-107.0468533184743,-31.10247401988412,-63.781328955958536
7.32,4.01,-4.99,-0.2140575010380016,1.9416707626993133,0.280544078085839,-109.82995506205258,-27.65505415801313,-63.0270740877005
7.32,4.01,-4.99,-0.2140575010380016,1.9416707626993133,0.280544078085839,-109.82995506205258,-27.65505415801313,-63.0270740877005
7.05,2.76,-5.63,-1.300912110728912,0.7256222548521205,0.4901002081820973,-111.44102705802788,-26.288094094940124,-61.95480935564663
7.05,2.76,-5.63,-1.300912110728912,0.7256222548521205,0.4901002081820973,-111.44102705802788,-26.288094094940124,-61.95480935564663
8.88,4.09,-5.2,0.4303168938595971,0.569821811181209,-1.2438083829975677,-114.34362489902875,-24.02206117401117,-59.550623188016026
8.88,4.09,-5.2,0.4303168938595971,0.569821811181209,-1.2438083829975677,-114.34362489902875,-24.02206117401117,-59.550623188016026
6.33,4.68,-4.27,0.6962512908159644,1.7838927326069796,1.0580980707611332,-118.0740625813446,-22.53618284114898,-55.82206789104122
6.33,4.68,-4.27,0.6962512908159644,1.7838927326069796,1.0580980707611332,-118.0740625813446,-22.53618284114898,-55.82206789104122
6.97,4.14,-6.06,-0.0748943425412595,0.9520763303809094,-0.2696609072012954,-121.57133213564484,-21.75385480831424,-52.28433952334372
6.97,4.14,-6.06,-0.0748943425412595,0.9520763303809094,-0.2696609072012954,-121.57133213564484,-21.75385480831424,-52.28433952334372
6.82,2.08,-6.49,-0.472547892695402,-0.8192747352550379,0.211631115324371,-124.72495975966048,-21.403893300909647,-49.189817911228005
6.82,2.08,-6.49,-0.472547892695402,-0.8192747352550379,0.211631115324371,-124.72495975966048,-21.403893300909647,-49.189817911228005
6.49,3.43,-6.88,0.0669996211951485,0.4590108817675589,-0.2434355748186885,-129.00391708769308,-20.192233442293944,-45.002054941253824
6.49,3.43,-6.88,0.0669996211951485,0.4590108817675589,-0.2434355748186885,-129.00391708769308,-20.192233442293944,-45.002054941253824
5.22,4.55,-6.83,0.117224257673779,1.9355314856725103,0.2756596872684209,-132.32631788342704,-19.936217546906203,-41.45208595969682
5.22,4.55,-6.83,0.117224257673779,1.9355314856725103,0.2756596872684209,-132.32631788342704,-19.936217546906203,-41.45208595969682
3.79,4.4,-5.99,0.0220997246759322,2.528491320762664,1.8561504406643028,-133.93995871664828,-20.879328419459103,-39.60756089465345
3.79,4.4,-5.99,0.0220997246759322,2.528491320762664,1.8561504406643028,-133.93995871664828,-20.879328419459103,-39.60756089465345
5.79,-0.02,-7.59,-0.7373641365286594,-1.3707980560941506,0.3880616333937894,-133.93995871664828,-22.82836708787642,-39.38840578330453
5.79,-0.02,-7.59,-0.7373641365286594,-1.3707980560941506,0.3880616333937894,-133.93995871664828,-22.82836708787642,-39.38840578330453
7.07,2.13,-8.3,0.6312704993994298,0.4081236332675344,-1.2769745270469386,-134.14543141113884,-23.41318918903326,-38.84117149116385
7.07,2.13,-8.3,0.6312704993994298,0.4081236332675344,-1.2769745270469386,-134.14543141113884,-23.41318918903326,-38.84117149116385
6.72,0.48,-8.11,0.3347242378643593,-0.8071719741580671,-0.7003635190129032,-135.12607315636853,-25.0892571067724,-36.504367169981776
6.72,0.48,-8.11,0.3347242378643593,-0.8071719741580671,-0.7003635190129032,-135.12607315636853,-25.0892571067724,-36.504367169981776
5.71,-1.04,-7.47,-0.426851322430554,-1.6680242711534703,0.5049247310306857,-135.42727196097036,-26.1821984911941,-35.15553486649333
5.71,-1.04,-7.47,-0.426851322430554,-1.6680242711534703,0.5049247310306857,-135.42727196097036,-26.1821984911941,-35.15553486649333
5.97,1.07,-8.61,0.1532790053879012,0.1648289645211936,-0.7227012126323409,-135.73041492290912,-26.676574330601248,-34.48301299993159
5.97,1.07,-8.61,0.1532790053879012,0.1648289645211936,-0.7227012126323409,-135.73041492290912,-26.676574330601248,-34.48301299993159
5.21,0.09,-8.16,-0.4649612444776789,-0.5129732127888821,0.1496075167086044,-136.12747373883852,-27.053580833430228,-33.70393852830112
5.21,0.09,-8.16,-0.4649612444776789,-0.5129732127888821,0.1496075167086044,-136.12747373883852,-27.053580833430228,-33.70393852830112
5.18,0.98,-8.3,-0.0730350980833403,0.3106877691395296,-0.0209101745578301,-136.311888173766,-27.336531426237315,-33.2133487153414
5.18,0.98,-8.3,-0.0730350980833403,0.3106877691395296,-0.0209101745578301,-136.311888173766,-27.336531426237315,-33.2133487153414
5.21,1.07,-8.24,0.0284168387277402,0.3226597839037314,0.0045235395258274,-136.28110106832045,-27.51346175010752,-33.105742400688804
5.21,1.07,-8.24,0.0284168387277402,0.3226597839037314,0.0045235395258274,-136.28110106832045,-27.51346175010752,-33.105742400688804
5.14,0.73,-8.32,-0.1838583287524988,0.0913031439640755,0.0019184967485887,-136.15815825603806,-27.84391108565838,-32.92646520492445
5.14,0.73,-8.32,-0.1838583287524988,0.0913031439640755,0.0019184967485887,-136.15815825603806,-27.84391108565838,-32.92646520492445
4.79,1.08,-8.02,-0.0650000911580518,0.4867171183230616,0.4157085437411681,-136.21958862710648,-28.115528300006986,-32.592035674709635
4.79,1.08,-8.02,-0.0650000911580518,0.4867171183230616,0.4157085437411681,-136.21958862710648,-28.115528300006986,-32.592035674709635
4.58,1.2,-8.28,-0.1966452917730669,0.7361548283550834,0.2990632032406371,-136.06616582647524,-28.89585348706327,-32.067078184397204
4.58,1.2,-8.28,-0.1966452917730669,0.7361548283550834,0.2990632032406371,-136.06616582647524,-28.89585348706327,-32.067078184397204
5.51,-0.42,-8.45,-0.2544658209555827,-0.9739394107996496,-0.2395278388627293,-135.8217429117077,-29.96215210560615,-31.24523405697452
5.51,-0.42,-8.45,-0.2544658209555827,-0.9739394107996496,-0.2395278388627293,-135.8217429117077,-29.96215210560615,-31.24523405697452
5.6,-0.54,-8.78,-0.3763104145402424,-1.00255358957649,-0.5660679066981196,-135.79128033679729,-30.080791981197944,-31.114368796125287
5.6,-0.54,-8.78,-0.3763104145402424,-1.00255358957649,-0.5660679066981196,-135.79128033679729,-30.080791981197944,-31.114368796125287
5.18,0.81,-8.53,0.051927073986963,0.1709682383755368,-0.2042177666051489,-136.34269592729157,-29.227312357898,-31.340435037267948
5.18,0.81,-8.53,0.051927073986963,0.1709682383755368,-0.2042177666051489,-136.34269592729157,-29.227312357898,-31.340435037267948
4.71,0.94,-8.19,-0.0669162936858032,0.3662240231444173,0.3195428447860724,-136.55893204947213,-29.08522811781525,-31.28093182906108
4.71,0.94,-8.19,-0.0669162936858032,0.3662240231444173,0.3195428447860724,-136.55893204947213,-29.08522811781525,-31.28093182906108
4.66,0.9,-8.48,-0.2548295086761017,0.3873057025749413,0.0998968757951352,-136.7140156295355,-28.978694933911964,-31.197641863629613
4.66,0.9,-8.48,-0.2548295086761017,0.3873057025749413,0.0998968757951352,-136.7140156295355,-28.978694933911964,-31.197641863629613
4.87,0.59,-8.41,-0.205118789675898,0.0172596414589291,0.0726514183841899,-136.77619735313192,-28.89585348706327,-31.138159380012
4.87,0.59,-8.41,-0.205118789675898,0.0172596414589291,0.0726514183841899,-136.77619735313192,-28.89585348706327,-31.138159380012
5.15,0.92,-8.55,0.0830977657969257,0.2317612653400774,-0.2138680243941256,-136.7450958533554,-28.87218733809866,-31.221437269957963
5.15,0.92,-8.55,0.0830977657969257,0.2317612653400774,-0.2138680243941256,-136.7450958533554,-28.87218733809866,-31.221437269957963
4.77,0.61,-8.67,-0.3777360246352437,0.1697127638153868,-0.0990258009482065,-136.7140156295355,-29.014203146635065,-31.10247401988412
4.77,0.61,-8.67,-0.3777360246352437,0.1697127638153868,-0.0990258009482065,-136.7140156295355,-29.014203146635065,-31.10247401988412
4.56,0.39,-8.17,-0.2864978370613195,-0.0856691188498022,0.4468861252307938,-136.9320256088512,-29.535319528051428,-30.33004336729311
4.56,0.39,-8.17,-0.2864978370613195,-0.0856691188498022,0.4468861252307938,-136.9320256088512,-29.535319528051428,-30.33004336729311
5.09,0.54,-8.6,0.0190613399056048,-0.1202832622878502,-0.200590808641234,-137.088392741319,-29.59457663056109,-30.06892651053725
5.09,0.54,-8.6,0.0190613399056048,-0.1202832622878502,-0.200590808641234,-137.088392741319,-29.59457663056109,-30.06892651053725
5.1,0.79,-8.8,0.0684552402068741,0.114606737029585,-0.3941479676060505,-137.24530467426428,-29.476070502113327,-29.985877446985693
5.1,0.79,-8.8,0.0684552402068741,0.114606737029585,-0.3941479676060505,-137.24530467426428,-29.476070502113327,-29.985877446985693
4.69,0.45,-8.69,-0.3287339250258639,-0.0262734158792399,-0.0729220410428261,-137.24530467426428,-29.59457663056109,-29.843545089972302
4.69,0.45,-8.69,-0.3287339250258639,-0.0262734158792399,-0.0729220410428261,-137.24530467426428,-29.59457663056109,-29.843545089972302
4.48,0.52,-8.28,-0.1950862978451941,0.0028419430850073,0.3800316636212244,-137.5924585129037,-29.606429021936968,-29.393135398012305
4.48,0.52,-8.28,-0.1950862978451941,0.0028419430850073,0.3800316636212244,-137.5924585129037,-29.606429021936968,-29.393135398012305
4.62,0.68,-8.43,-0.0852304435842951,0.0893001804002449,0.1704442503666499,-137.5924585129037,-29.630134776789287,-29.393135398012305
4.62,0.68,-8.43,-0.0852304435842951,0.0893001804002449,0.1704442503666499,-137.5924585129037,-29.630134776789287,-29.393135398012305
4.69,0.88,-9.03,-0.2606126626770263,0.3455290858969497,-0.3974712601013124,-137.4343266309111,-29.582724563014253,-29.677550179192284
4.69,0.88,-9.03,-0.2606126626770263,0.3455290858969497,-0.3974712601013124,-137.4343266309111,-29.582724563014253,-29.677550179192284
4.75,0.73,-8.67,-0.0765455405666052,0.0742346563369135,-0.105611598445531,-137.46590815068691,-29.85540431723644,-29.33390567781849
4.75,0.73,-8.67,-0.0765455405666052,0.0742346563369135,-0.105611598445531,-137.46590815068691,-29.85540431723644,-29.33390567781849
4.18,0.51,-8.62,-0.4450548097625304,0.0996482677499123,0.2239104940423395,-137.81479293008655,-30.24694330618832,-28.45823232032684
4.18,0.51,-8.62,-0.4450548097625304,0.0996482677499123,0.2239104940423395,-137.81479293008655,-30.24694330618832,-28.45823232032684
4.35,1.2,-8.62,0.117136603800546,0.4917756073177565,0.0901004185849352,-138.0702668424954,-30.59132159210841,-27.761276718209416
4.35,1.2,-8.62,0.117136603800546,0.4917756073177565,0.0901004185849352,-138.0702668424954,-30.59132159210841,-27.761276718209416
4.84,0.71,-9.3,0.1283126083293395,-0.1615425995893428,-0.6994025347564108,-138.5209607780903,-31.10247401988412,-26.582368805630427
4.84,0.71,-9.3,0.1283126083293395,-0.1615425995893428,-0.6994025347564108,-138.5209607780903,-31.10247401988412,-26.582368805630427
3.9,0.16,-8.23,-0.3368553768375715,-0.3856950663205943,0.7123513590430424,-138.5533323833026,-31.518996754873605,-26.029278313836883
3.9,0.16,-8.23,-0.3368553768375715,-0.3856950663205943,0.7123513590430424,-138.5533323833026,-31.518996754873605,-26.029278313836883
4.29,0.63,-9.22,-0.2455199193283901,-0.0828109048671116,-0.378744559036388,-138.19856277995768,-31.924028325694472,-26.13514108768563
4.29,0.63,-9.22,-0.2455199193283901,-0.0828109048671116,-0.378744559036388,-138.19856277995768,-31.924028325694472,-26.13514108768563
4.29,0.5,-9.05,-0.2338264913327689,-0.2503930908584243,-0.2152873612092296,-138.19856277995768,-32.01938920775377,-26.029278313836883
4.29,0.5,-9.05,-0.2338264913327689,-0.2503930908584243,-0.2152873612092296,-138.19856277995768,-32.01938920775377,-26.029278313836883
3.87,1.22,-8.8,-0.09511516930067,0.508904078512741,0.1300147509352704,-138.26285199839916,-31.85252256097231,-26.1469050177391
3.87,1.22,-8.8,-0.09511516930067,0.508904078512741,0.1300147509352704,-138.26285199839916,-31.85252256097231,-26.1469050177391
4.13,0.91,-8.8,-0.0962412073123924,0.1234491439888705,0.0444526070528805,-137.97429037596618,-32.031310917714855,-26.346934855604967
4.13,0.91,-8.8,-0.0962412073123924,0.1234491439888705,0.0444526070528805,-137.97429037596618,-32.031310917714855,-26.346934855604967
4.37,0.35,-9.21,-0.4097011651788353,-0.3729572478664767,-0.3784640320820642,-137.68760819354466,-32.222106806155665,-26.535272907054928
4.37,0.35,-9.21,-0.4097011651788353,-0.3729572478664767,-0.3784640320820642,-137.68760819354466,-32.222106806155665,-26.535272907054928
4.06,1.17,-8.99,-0.1251956364578619,0.4270933089691215,-0.1167827406420034,-137.68760819354466,-32.222106806155665,-26.57059440264536
4.06,1.17,-8.99,-0.1251956364578619,0.4270933089691215,-0.1167827406420034,-137.68760819354466,-32.222106806155665,-26.57059440264536
4.11,0.34,-8.67,-0.3787422972462088,-0.3410908716960396,0.2193244454189784,-137.46590815068691,-32.54428338361999,-26.48818157203767
4.11,0.34,-8.67,-0.3787422972462088,-0.3410908716960396,0.2193244454189784,-137.46590815068691,-32.54428338361999,-26.48818157203767
4.25,0.74,-8.97,-0.2351372484687729,-0.0618108073473746,-0.1438218430071263,-137.4343266309111,-32.44879621422149,-26.700128578583914
4.25,0.74,-8.97,-0.2351372484687729,-0.0618108073473746,-0.1438218430071263,-137.4343266309111,-32.44879621422149,-26.700128578583914
4.14,0.72,-8.87,-0.313183480028328,-0.0372250799206715,-0.0033158715646024,-137.4343266309111,-32.2936788968098,-26.86504055226497
4.14,0.72,-8.87,-0.313183480028328,-0.0372250799206715,-0.0033158715646024,-137.4343266309111,-32.2936788968098,-26.86504055226497
4.26,1.55,-8.81,0.1808910534940028,0.5719671234499593,-0.0830583898595396,-137.5291383748013,-31.99554685526558,-27.136090647491407
4.26,1.55,-8.81,0.1808910534940028,0.5719671234499593,-0.0830583898595396,-137.5291383748013,-31.99554685526558,-27.136090647491407
4.34,0.54,-9.04,-0.3856400552011667,-0.2385410593927333,-0.225457451119544,-137.3712305266047,-32.10284865965952,-27.20682475697043
4.34,0.54,-9.04,-0.3856400552011667,-0.2385410593927333,-0.225457451119544,-137.3712305266047,-32.10284865965952,-27.20682475697043
4.21,0.8,-8.92,-0.3003695077570035,0.0029142643511753,-0.0847740464087394,-137.4343266309111,-32.055155405875595,-27.20682475697043
4.21,0.8,-8.92,-0.3003695077570035,0.0029142643511753,-0.0847740464087394,-137.4343266309111,-32.055155405875595,-27.20682475697043
4.26,1.06,-8.82,-0.1025125208630221,0.1575559078180324,-0.0436427529580516,-137.56078717941855,-31.82869013670581,-27.26577791911556
4.26,1.06,-8.82,-0.1025125208630221,0.1575559078180324,-0.0436427529580516,-137.56078717941855,-31.82869013670581,-27.26577791911556
4.34,1.0,-8.79,-0.0612865162887989,0.0698325033870527,-0.0468299631598103,-137.5924585129037,-31.769115255908964,-27.27756943376897
4.34,1.0,-8.79,-0.0612865162887989,0.0698325033870527,-0.0468299631598103,-137.5924585129037,-31.769115255908964,-27.27756943376897
4.26,0.96,-8.97,-0.212384973962907,0.1105307280419676,-0.166953941454329,-137.71937015042116,-31.626171458397582,-27.253986698732728
4.26,0.96,-8.97,-0.212384973962907,0.1105307280419676,-0.166953941454329,-137.71937015042116,-31.626171458397582,-27.253986698732728
4.22,0.78,-8.81,-0.2676307979509551,-0.0430772861717536,0.0107621840129148,-137.87852272532075,-31.39994691440291,-27.27756943376897
4.22,0.78,-8.81,-0.2676307979509551,-0.0430772861717536,0.0107621840129148,-137.87852272532075,-31.39994691440291,-27.27756943376897
4.36,0.97,-8.92,-0.1209558408552969,0.0619527412064009,-0.1682400516456841,-137.97429037596618,-31.26903222594612,-27.312945744821853
4.36,0.97,-8.92,-0.1209558408552969,0.0619527412064009,-0.1682400516456841,-137.97429037596618,-31.26903222594612,-27.312945744821853
4.28,0.88,-8.84,-0.1807644711815399,0.0201244643856368,-0.0526257955080868,-138.03825139668672,-31.24523405697452,-27.26577791911556
4.28,0.88,-8.84,-0.1807644711815399,0.0201244643856368,-0.0526257955080868,-138.03825139668672,-31.24523405697452,-27.26577791911556
4.2,0.98,-8.76,-0.1494683430761474,0.1296196867821021,0.0445366042635733,-138.1664535645985,-31.078685498016352,-27.230405140191408
4.2,0.98,-8.76,-0.1494683430761474,0.1296196867821021,0.0445366042635733,-138.1664535645985,-31.078685498016352,-27.230405140191408
4.4,0.77,-9.04,-0.221980607834207,-0.0995941409602083,-0.273791737187512,-138.1664535645985,-31.10247401988412,-27.20682475697043
4.4,0.77,-9.04,-0.221980607834207,-0.0995941409602083,-0.273791737187512,-138.1664535645985,-31.10247401988412,-27.20682475697043
4.16,0.97,-8.69,-0.1403717929350771,0.1206605975061795,0.1253103829863686,-138.23069557304194,-31.06679175207397,-27.136090647491407
4.16,0.97,-8.69,-0.1403717929350771,0.1206605975061795,0.1253103829863686,-138.23069557304194,-31.06679175207397,-27.136090647491407
4.4,0.85,-9.18,-0.2230716515860484,-0.0247242335174364,-0.4063088146890923,-138.39171512082905,-30.94787313807167,-27.088940429595656
4.4,0.85,-9.18,-0.2230716515860484,-0.0247242335174364,-0.4063088146890923,-138.39171512082905,-30.94787313807167,-27.088940429595656
4.02,0.88,-8.55,-0.2189426091693334,0.0856691791383282,0.3207644364041595,-138.39171512082905,-30.971654123503782,-27.06536707365856
4.02,0.88,-8.55,-0.2189426091693334,0.0856691791383282,0.3207644364041595,-138.39171512082905,-30.971654123503782,-27.06536707365856
4.28,0.88,-8.95,-0.2161851621945823,0.0252910731849518,-0.1506550740280143,-138.29503211078548,-30.94787313807167,-27.183245547895737
4.28,0.88,-8.95,-0.2161851621945823,0.0252910731849518,-0.1506550740280143,-138.29503211078548,-30.94787313807167,-27.183245547895737
4.32,0.91,-8.9,-0.155287501775143,0.0303391397634383,-0.1269025029261765,-138.4239905330992,-30.76955920688244,-27.230405140191408
4.32,0.91,-8.9,-0.155287501775143,0.0303391397634383,-0.1269025029261765,-138.4239905330992,-30.76955920688244,-27.230405140191408
4.38,0.86,-8.9,-0.1357077569358337,-0.0344768842391127,-0.1489712638469047,-138.4239905330992,-30.73390559555541,-27.242195772473625
4.38,0.86,-8.9,-0.1357077569358337,-0.0344768842391127,-0.1489712638469047,-138.4239905330992,-30.73390559555541,-27.242195772473625
4.28,0.87,-8.83,-0.1648750051022959,0.0034484993910545,-0.0430710285644391,-138.48861330559183,-30.73390559555541,-27.17145638329649
4.28,0.87,-8.83,-0.1648750051022959,0.0034484993910545,-0.0430710285644391,-138.48861330559183,-30.73390559555541,-27.17145638329649
