acc_x,acc_y,acc_z,lin_x,lin_y,lin_z,eul_x,eul_y,eul_z
0.51,2.46,-9.44,-0.0945617326057639,0.1204699931438648,0.0392631918778541,-157.1587733939545,-17.508882729880764,-5.881128455236522
0.51,2.46,-9.44,-0.0945617326057639,0.1204699931438648,0.0392631918778541,-157.1587733939545,-17.508882729880764,-5.881128455236522
0.82,2.2,-9.67,0.0960813099155285,-0.2570793312231584,-0.1405093231104324,-157.21671751944734,-17.450913825320047,-5.869654220523909
0.82,2.2,-9.67,0.0960813099155285,-0.2570793312231584,-0.1405093231104324,-157.21671751944734,-17.450913825320047,-5.869654220523909
0.67,1.5,-9.58,-0.2192792882026099,-0.8439688956837961,0.1260026509389007,-157.33304425296922,-17.32339805412093,-5.777862453568277
0.67,1.5,-9.58,-0.2192792882026099,-0.8439688956837961,0.1260026509389007,-157.33304425296922,-17.32339805412093,-5.777862453568277
1.07,-0.15,-9.9,-0.3277291907541331,-2.537776606789237,0.1822184078715114,-158.16444882979192,-16.2808838756779,-5.823757869537403
1.07,-0.15,-9.9,-0.3277291907541331,-2.537776606789237,0.1822184078715114,-158.16444882979192,-16.2808838756779,-5.823757869537403
1.21,1.84,-9.92,0.2680366665807276,-0.9156134716013952,-0.3099654575525061,-158.96550158142097,-13.888093938659914,-5.938500516393254
1.21,1.84,-9.92,0.2680366665807276,-0.9156134716013952,-0.3099654575525061,-158.96550158142097,-13.888093938659914,-5.938500516393254
0.96,3.66,-9.78,0.3240556558545215,0.5700353431314134,-0.6592779397237294,-159.3455716366145,-10.764512919793646,-5.789336220308418
0.96,3.66,-9.78,0.3240556558545215,0.5700353431314134,-0.6592779397237294,-159.3455716366145,-10.764512919793646,-5.789336220308418
0.59,2.02,-9.13,-0.2210315274284032,-0.9065289144626628,0.4838419256521309,-159.53822461146382,-8.453062112264227,-5.468092286497271
0.59,2.02,-9.13,-0.2210315274284032,-0.9065289144626628,0.4838419256521309,-159.53822461146382,-8.453062112264227,-5.468092286497271
0.03,4.53,-9.29,-0.5392866609060903,0.9440565412439392,-0.4716683033171005,-158.1040290229696,-4.768384859798278,-4.6078223124450055
0.03,4.53,-9.29,-0.5392866609060903,0.9440565412439392,-0.4716683033171005,-158.1040290229696,-4.768384859798278,-4.6078223124450055
0.38,6.1,-8.59,-0.0045584610471815,2.259338983434433,-0.49081894039338,-156.58711361479934,-2.968253297538604,-3.5987664920103746
0.38,6.1,-8.59,-0.0045584610471815,2.259338983434433,-0.49081894039338,-156.58711361479934,-2.968253297538604,-3.5987664920103746
-0.23,6.14,-8.88,-0.4351496761055715,2.151562246170726,-0.7663497947714966,-156.47442582901172,-2.6014518395409367,-2.2919839967771853
-0.23,6.14,-8.88,-0.4351496761055715,2.151562246170726,-0.7663497947714966,-156.47442582901172,-2.6014518395409367,-2.2919839967771853
-0.27,4.23,-8.55,-0.2020351394442095,0.8194075551681013,0.3010698987666593,-158.1040290229696,-4.137654318321577,-0.7333909844413455
-0.27,4.23,-8.55,-0.2020351394442095,0.8194075551681013,0.3010698987666593,-158.1040290229696,-4.137654318321577,-0.7333909844413455
-0.47,4.45,-7.64,-0.1521037394220007,1.5397906862703816,1.08891468084005,-158.77799072087697,-5.823757869537403,0.0572957819004067
-0.47,4.45,-7.64,-0.1521037394220007,1.5397906862703816,1.08891468084005,-158.77799072087697,-5.823757869537403,0.0572957819004067
-0.26,4.75,-8.51,0.3104897151825081,1.8530631660902108,0.2400438599289263,-159.60284227959588,-9.315090195791669,0.1604282350432163
-0.26,4.75,-8.51,0.3104897151825081,1.8530631660902108,0.2400438599289263,-159.60284227959588,-9.315090195791669,0.1604282350432163
0.23,-0.27,-9.08,-0.1445289514147821,-2.6705909610993874,1.122223979778676,-160.59764077497127,-11.985198208002226,-0.4010712754482724
0.23,-0.27,-9.08,-0.1445289514147821,-2.6705909610993874,1.122223979778676,-160.59764077497127,-11.985198208002226,-0.4010712754482724
0.0,1.98,-8.95,-0.0346019766621376,-0.3749468499709593,0.6479864750686541,-159.4738082027549,-14.153639819523336,-1.4668120111410634
0.0,1.98,-8.95,-0.0346019766621376,-0.3749468499709593,0.6479864750686541,-159.4738082027549,-14.153639819523336,-1.4668120111410634
0.53,2.18,-10.23,0.2116405920691788,-0.5954661875461759,-0.6473840672525952,-158.16444882979192,-15.887402736014533,-2.9453273542124467
0.53,2.18,-10.23,0.2116405920691788,-0.5954661875461759,-0.6473840672525952,-158.16444882979192,-15.887402736014533,-2.9453273542124467
0.53,1.92,-9.16,-0.0012208283992901,-0.471671200111793,0.4444694426424789,-157.04331809093284,-17.49728858817925,-4.584885551911774
0.53,1.92,-9.16,-0.0012208283992901,-0.471671200111793,0.4444694426424789,-157.04331809093284,-17.49728858817925,-4.584885551911774
0.87,2.29,-9.78,0.0677962201789612,-0.3637454023871927,-0.268690835662662,-155.6456486519571,-18.634392500869453,-6.328670789467022
0.87,2.29,-9.78,0.0677962201789612,-0.3637454023871927,-0.268690835662662,-155.6456486519571,-18.634392500869453,-6.328670789467022
1.09,2.41,-10.01,-0.2105190958142324,-0.3678269435088344,-0.5382369036798309,-153.5103719816942,-20.09912503821932,-9.142643881088318
1.09,2.41,-10.01,-0.2105190958142324,-0.3678269435088344,-0.5382369036798309,-153.5103719816942,-20.09912503821932,-9.142643881088318
1.42,1.79,-8.96,-0.331934729023026,-0.7226156739513456,0.5941722701257905,-151.81316645370248,-20.984205642908503,-11.962154211464537
1.42,1.79,-8.96,-0.331934729023026,-0.7226156739513456,0.5941722701257905,-151.81316645370248,-20.984205642908503,-11.962154211464537
1.88,1.97,-8.94,-0.6319801330211627,-0.6487818046152426,0.5051133913816823,-149.0298356031949,-21.31060447484913,-16.801965875210325
1.88,1.97,-8.94,-0.6319801330211627,-0.6487818046152426,0.5051133913816823,-149.0298356031949,-21.31060447484913,-16.801965875210325
2.99,2.88,-10.19,-0.4198512530540317,-0.4657643461209842,-1.178676053385555,-146.83107004149562,-21.298944377524897,-20.20387293870638
2.99,2.88,-10.19,-0.4198512530540317,-0.4657643461209842,-1.178676053385555,-146.83107004149562,-21.298944377524897,-20.20387293870638
3.71,2.75,-7.82,0.2902686966296475,-0.3222206468747004,0.7352158279142795,-143.68372432172094,-20.786119068432164,-25.21840683143225
3.71,2.75,-7.82,0.2902686966296475,-0.3222206468747004,0.7352158279142795,-143.68372432172094,-20.786119068432164,-25.21840683143225
4.5,3.98,-9.57,-0.4779247521741351,0.1956148142643603,-1.4808928139032815,-139.76858389100772,-20.716221183013424,-30.15199174363297
4.5,3.98,-9.57,-0.4779247521741351,0.1956148142643603,-1.4808928139032815,-139.76858389100772,-20.716221183013424,-30.15199174363297
5.13,2.31,-8.96,-0.4229519823592608,-1.328554232443178,-0.6809929798156116,-138.7806141249359,-19.947852442498814,-32.04323298370182
5.13,2.31,-8.96,-0.4229519823592608,-1.328554232443178,-0.6809929798156116,-138.7806141249359,-19.947852442498814,-32.04323298370182
3.76,3.97,-7.13,-0.2156051604525546,0.8217693827316248,0.8616173283776565,-138.61814821881748,-18.27450160119409,-32.36526393220739
3.76,3.97,-7.13,-0.2156051604525546,0.8217693827316248,0.8616173283776565,-138.61814821881748,-18.27450160119409,-32.36526393220739
5.47,2.54,-9.09,-0.3241796321208573,-1.5040540730575085,-0.9930411488911144,-138.61814821881748,-17.613238149656624,-32.580097056893266
5.47,2.54,-9.09,-0.3241796321208573,-1.5040540730575085,-0.9930411488911144,-138.61814821881748,-17.613238149656624,-32.580097056893266
4.58,3.57,-7.88,-0.0146378028949936,-0.1518941872908781,0.0192900959914812,-139.9355135446495,-15.30909493616346,-31.340435037267948
4.58,3.57,-7.88,-0.0146378028949936,-0.1518941872908781,0.0192900959914812,-139.9355135446495,-15.30909493616346,-31.340435037267948
3.9,4.72,-7.78,-0.1879581636777828,0.9338780821451268,-0.047757311269196,-140.8829393690889,-13.922726077012074,-29.8198276164604
3.9,4.72,-7.78,-0.1879581636777828,0.9338780821451268,-0.047757311269196,-140.8829393690889,-13.922726077012074,-29.8198276164604
3.89,3.32,-8.24,-0.2424786679555413,-0.4935445760952919,0.1242062048110259,-143.13615512462272,-12.561458728935325,-27.301153346475186
3.89,3.32,-8.24,-0.2424786679555413,-0.4935445760952919,0.1242062048110259,-143.13615512462272,-12.561458728935325,-27.301153346475186
3.02,5.14,-7.04,-0.0805859905718396,1.6252604496600456,0.7262516404072663,-144.0161283848301,-11.121372822035768,-25.84113356281753
3.02,5.14,-7.04,-0.0805859905718396,1.6252604496600456,0.7262516404072663,-144.0161283848301,-11.121372822035768,-25.84113356281753
4.02,3.88,-8.53,-0.0337753822681655,-0.2491408060886568,-0.3870974994377861,-144.05324557319378,-10.925662281710132,-25.93519704664329
4.02,3.88,-8.53,-0.0337753822681655,-0.2491408060886568,-0.3870974994377861,-144.05324557319378,-10.925662281710132,-25.93519704664329
3.43,4.38,-7.85,-0.1397855157107238,0.5394976216251186,0.2013804917634747,-144.3515283507124,-10.384744735841709,-25.44156044788709
3.43,4.38,-7.85,-0.1397855157107238,0.5394976216251186,0.2013804917634747,-144.3515283507124,-10.384744735841709,-25.44156044788709
3.08,4.08,-7.78,-0.3726352573904529,0.3514474064660262,0.5115530297991047,-144.61452078820068,-10.37323841550224,-24.96013976228266
3.08,4.08,-7.78,-0.3726352573904529,0.3514474064660262,0.5115530297991047,-144.61452078820068,-10.37323841550224,-24.96013976228266
3.23,3.55,-8.1,-0.3540089248050896,-0.225822323615823,0.4008495577561249,-145.10802458844395,-10.384744735841709,-24.53779799191312
3.23,3.55,-8.1,-0.3540089248050896,-0.225822323615823,0.4008495577561249,-145.10802458844395,-10.384744735841709,-24.53779799191312
3.89,4.09,-8.35,0.2636472006208289,0.0341621275114709,-0.2686675187012675,-145.6471679681556,-10.13162973120474,-23.98691540045918
3.89,4.09,-8.35,0.2636472006208289,0.0341621275114709,-0.2686675187012675,-145.6471679681556,-10.13162973120474,-23.98691540045918
3.23,4.07,-8.11,-0.131474433144393,0.2234312707383656,0.1784262312726863,-146.0373496598969,-9.98208514628972,-23.34297818708293
3.23,4.07,-8.11,-0.131474433144393,0.2234312707383656,0.1784262312726863,-146.0373496598969,-9.98208514628972,-23.34297818708293
2.96,4.03,-8.0,-0.3071828568638251,0.2776450399978427,0.3816273515278165,-146.07660730478975,-10.005090889774308,-23.17918701849416
2.96,4.03,-8.0,-0.3071828568638251,0.2776450399978427,0.3816273515278165,-146.07660730478975,-10.005090889774308,-23.17918701849416
3.51,4.23,-8.45,0.0535310673707332,0.2343923489084645,-0.2709337705076553,-146.39227073603638,-10.05110359058591,-23.038832805407413
3.51,4.23,-8.45,0.0535310673707332,0.2343923489084645,-0.2709337705076553,-146.39227073603638,-10.05110359058591,-23.038832805407413
3.38,3.17,-8.5,-0.1644325372940828,-0.6531095821385461,0.1490255605015473,-146.67085725236174,-10.177646918437086,-22.99205586322248
3.38,3.17,-8.5,-0.1644325372940828,-0.6531095821385461,0.1490255605015473,-146.67085725236174,-10.177646918437086,-22.99205586322248
2.93,3.97,-8.14,-0.333982764566556,0.2456837708471495,0.2969972724964939,-146.5511870394875,-10.13162973120474,-22.86343926833653
2.93,3.97,-8.14,-0.333982764566556,0.2456837708471495,0.2969972724964939,-146.5511870394875,-10.13162973120474,-22.86343926833653
3.69,4.19,-8.98,0.0273588778216186,-0.0059645017923823,-0.7674606442349425,-146.5511870394875,-10.14313387414705,-22.875130477358805
3.69,4.19,-8.98,0.0273588778216186,-0.0059645017923823,-0.7674606442349425,-146.5511870394875,-10.14313387414705,-22.875130477358805
3.32,3.45,-8.23,0.0106963227868786,-0.2868793880755482,0.2895398395901569,-147.15377378773437,-10.13162973120474,-22.44271531767953
3.32,3.45,-8.23,0.0106963227868786,-0.2868793880755482,0.2895398395901569,-147.15377378773437,-10.13162973120474,-22.44271531767953
2.99,3.78,-8.12,-0.2000194821412196,0.1129066934104483,0.3668330375082451,-147.113267463602,-10.177646918437086,-22.36094364221954
2.99,3.78,-8.12,-0.2000194821412196,0.1129066934104483,0.3668330375082451,-147.113267463602,-10.177646918437086,-22.36094364221954
3.16,4.13,-8.68,-0.2492235948431813,0.1847186019368189,-0.3071359695502736,-146.992038514199,-10.13162973120474,-22.39598723123728
3.16,4.13,-8.68,-0.2492235948431813,0.1847186019368189,-0.3071359695502736,-146.992038514199,-10.13162973120474,-22.39598723123728
3.3,3.77,-8.46,-0.0639237743982975,-0.0742232255058863,-0.0251811958587939,-147.15377378773437,-10.10862175233956,-22.39598723123728
3.3,3.77,-8.46,-0.0639237743982975,-0.0742232255058863,-0.0251811958587939,-147.15377378773437,-10.10862175233956,-22.39598723123728
3.13,3.5,-8.22,-0.1546840369154666,-0.1820354774548245,0.3431286715688486,-147.15377378773437,-10.10862175233956,-22.45439792967429
3.13,3.5,-8.22,-0.1546840369154666,-0.1820354774548245,0.3431286715688486,-147.15377378773437,-10.10862175233956,-22.45439792967429
3.39,4.1,-8.62,-0.0499215737175735,0.1564415677076607,-0.3215055019840953,-146.992038514199,-10.097117916179354,-22.59460775363036
3.39,4.1,-8.62,-0.0499215737175735,0.1564415677076607,-0.3215055019840953,-146.992038514199,-10.097117916179354,-22.59460775363036
3.4,3.95,-8.52,-0.0217540751425228,0.0669017666775968,-0.1807395945752574,-147.03240000479886,-10.05110359058591,-22.64135196781312
3.4,3.95,-8.52,-0.0217540751425228,0.0669017666775968,-0.1807395945752574,-147.03240000479886,-10.05110359058591,-22.64135196781312
3.1,3.46,-8.21,-0.2176344879012565,-0.1955661754002342,0.3779656219589516,-147.03240000479886,-10.13162973120474,-22.68809999960854
3.1,3.46,-8.21,-0.2176344879012565,-0.1955661754002342,0.3779656219589516,-147.03240000479886,-10.13162973120474,-22.68809999960854
3.35,4.1,-8.55,-0.0932489724889471,0.1969497222471214,-0.2475787340221469,-146.871240884656,-10.085614182042526,-22.804986838376163
3.35,4.1,-8.55,-0.0932489724889471,0.1969497222471214,-0.2475787340221469,-146.871240884656,-10.085614182042526,-22.804986838376163
3.45,3.71,-8.72,-0.1101138471074904,-0.2174985399768357,-0.2752927356925188,-146.951724947316,-10.05110359058591,-22.816676842803343
3.45,3.71,-8.72,-0.1101138471074904,-0.2174985399768357,-0.2752927356925188,-146.951724947316,-10.05110359058591,-22.816676842803343
3.25,3.9,-8.16,-0.0252205781094736,0.1751493303088545,0.1979671228033428,-147.0728095954594,-9.821056182581472,-22.65303861752037
3.25,3.9,-8.16,-0.0252205781094736,0.1751493303088545,0.1979671228033428,-147.0728095954594,-9.821056182581472,-22.65303861752037
3.2,3.78,-8.32,-0.1435265422633007,0.0282402520050728,0.1252553370481504,-147.0728095954594,-9.91307033213892,-22.65303861752037
3.2,3.78,-8.32,-0.1435265422633007,0.0282402520050728,0.1252553370481504,-147.0728095954594,-9.91307033213892,-22.65303861752037
3.3,3.93,-8.57,-0.1221738428000327,0.0550085268960771,-0.1814352826807717,-147.113267463602,-9.959079806154524,-22.54786734834884
3.3,3.93,-8.57,-0.1221738428000327,0.0550085268960771,-0.1814352826807717,-147.113267463602,-9.959079806154524,-22.54786734834884
2.83,3.54,-7.94,-0.3140573712975027,0.0240905113155649,0.6696435090972894,-147.1943287474599,-10.05110359058591,-22.477763863075143
2.83,3.54,-7.94,-0.3140573712975027,0.0240905113155649,0.6696435090972894,-147.1943287474599,-10.05110359058591,-22.477763863075143
3.64,4.03,-8.85,0.0620320117815297,-0.0114644802513277,-0.5764622788500606,-146.992038514199,-10.177646918437086,-22.711475449834968
3.64,4.03,-8.85,0.0620320117815297,-0.0114644802513277,-0.5764622788500606,-146.992038514199,-10.177646918437086,-22.711475449834968
3.35,3.56,-8.56,-0.1123813136188457,-0.2729771886592784,-0.0463979494835005,-147.0728095954594,-10.200656128703407,-22.62966555670664
3.35,3.56,-8.56,-0.1123813136188457,-0.2729771886592784,-0.0463979494835005,-147.0728095954594,-10.200656128703407,-22.62966555670664
3.1,3.82,-8.37,-0.2094276495254901,0.0726949885835659,0.1004583936979184,-147.15377378773437,-10.22366575133618,-22.466080778094224
3.1,3.82,-8.37,-0.2094276495254901,0.0726949885835659,0.1004583936979184,-147.15377378773437,-10.22366575133618,-22.466080778094224
3.37,4.05,-8.51,-0.001405835163901,0.1393984742497105,-0.2013501043667247,-147.03240000479886,-10.154638119587414,-22.44271531767953
3.37,4.05,-8.51,-0.001405835163901,0.1393984742497105,-0.2013501043667247,-147.03240000479886,-10.154638119587414,-22.44271531767953
3.34,3.84,-8.64,-0.077391556311507,-0.0821051103588268,-0.2202173721090314,-147.15377378773437,-10.200656128703407,-22.314222150985408
3.34,3.84,-8.64,-0.077391556311507,-0.0821051103588268,-0.2202173721090314,-147.15377378773437,-10.200656128703407,-22.314222150985408
3.0,3.67,-8.45,-0.301872856126596,-0.0988764121973424,0.123133271360297,-147.23493252348757,-10.258180960550504,-22.174080183171977
3.0,3.67,-8.45,-0.301872856126596,-0.0988764121973424,0.123133271360297,-147.23493252348757,-10.258180960550504,-22.174080183171977
2.99,3.62,-8.24,-0.2265797939988073,-0.093704852693752,0.3260392075703731,-147.15377378773437,-10.315708384533188,-22.139049946746336
2.99,3.62,-8.24,-0.2265797939988073,-0.093704852693752,0.3260392075703731,-147.15377378773437,-10.315708384533188,-22.139049946746336
3.16,4.05,-8.34,-0.0807010437315777,0.2101818122490759,0.0141523131307117,-147.0728095954594,-10.258180960550504,-22.185757394813148
3.16,4.05,-8.34,-0.0807010437315777,0.2101818122490759,0.0141523131307117,-147.0728095954594,-10.258180960550504,-22.185757394813148
