,TIME,ELAPSED_SECONDS,PSTATE,acc_x,acc_y,acc_z,mag_x,mag_y,mag_z,gyr_x,gyr_y,gyr_z,lin_x,lin_y,lin_z,eul_x,eul_y,eul_z,qua_w,qua_x,qua_y,qua_z
0,729376.0,701.829704,1.0,7.12,3.67,-5.84,-18.06,-24.5,39.69,-1.88,2.69,1.63,0.21409467297591195,0.02148161992934794,-0.10408165871261944,-90.07995743217865,-66.29551072464068,-52.00367866289412,0.0907,-0.7076,-0.5468,-0.4384
1,729376.0,701.829704,1.0,7.12,3.67,-5.84,-18.06,-24.5,39.69,-1.88,2.69,1.63,0.21409467297591195,0.02148161992934794,-0.10408165871261944,-90.07995743217865,-66.29551072464068,-52.00367866289412,0.0907,-0.7076,-0.5468,-0.4384
2,729411.0,701.896388,1.0,7.28,3.48,-6.23,-17.75,-23.69,40.06,0.37,3.38,-0.69,-0.16324375775288744,0.1006303910184152,-0.3857454495475777,-89.91790199535811,-66.30919770158441,-52.14396705080251,0.0916,-0.7066,-0.5469,-0.4395
3,729411.0,701.896388,1.0,7.28,3.48,-6.23,-17.75,-23.69,40.06,0.37,3.38,-0.69,-0.16324375775288744,0.1006303910184152,-0.3857454495475777,-89.91790199535811,-66.30919770158441,-52.14396705080251,0.0916,-0.7066,-0.5469,-0.4395
4,729444.0,701.913086,1.0,7.24,3.47,-6.17,-17.75,-24.06,38.88,-2.13,0.63,2.5,-0.14174426232065485,0.09724798084385378,-0.31747225303117155,-89.91790199535811,-66.28182481526375,-52.182242098214466,0.0919,-0.7066,-0.5467,-0.4398
5,729444.0,701.913086,1.0,7.24,3.47,-6.17,-17.75,-24.06,38.88,-2.13,0.63,2.5,-0.14174426232065485,0.09724798084385378,-0.31747225303117155,-89.91790199535811,-66.28182481526375,-52.182242098214466,0.0919,-0.7066,-0.5467,-0.4398
6,729481.0,701.958038,1.0,7.18,3.68,-5.68,-18.06,-24.06,38.5,-5.56,-2.75,-2.25,0.2706065956781346,-0.0964143350131672,-0.05614252272800435,-89.98269667432403,-66.19973175300399,-52.23328523623708,0.09,-0.7070000000000001,-0.5461,-0.4402
7,729481.0,701.958038,1.0,7.18,3.68,-5.68,-18.06,-24.06,38.5,-5.56,-2.75,-2.25,0.2706065956781346,-0.0964143350131672,-0.05614252272800435,-89.98269667432403,-66.19973175300399,-52.23328523623708,0.09,-0.7070000000000001,-0.5461,-0.4402
8,729513.0,702.01229,1.0,7.0,3.35,-6.0,-18.06,-24.06,38.5,-0.19,0.06,-2.88,-0.19208108561066872,0.08981704451089367,-0.00036472187464120514,-89.90170904203455,-66.26813997300863,-52.258810985064926,0.0897,-0.7065,-0.5466,-0.4404
9,729513.0,702.01229,1.0,7.0,3.35,-6.0,-18.06,-24.06,38.5,-0.19,0.06,-2.88,-0.19208108561066872,0.08981704451089367,-0.00036472187464120514,-89.90170904203455,-66.26813997300863,-52.258810985064926,0.0897,-0.7065,-0.5466,-0.4404
10,729550.0,702.0287910000001,1.0,6.88,3.74,-5.69,-17.37,-24.5,39.25,-4.38,2.69,2.44,0.2974234685566549,0.14569608464866146,0.13253960517455002,-89.9664945721467,-66.1586995980381,-52.322637565756146,0.0896,-0.7069,-0.5458,-0.4409
11,729550.0,702.0287910000001,1.0,6.88,3.74,-5.69,-17.37,-24.5,39.25,-4.38,2.69,2.44,0.2974234685566549,0.14569608464866146,0.13253960517455002,-89.9664945721467,-66.1586995980381,-52.322637565756146,0.0896,-0.7069,-0.5458,-0.4409
12,729585.0,702.082503,1.0,7.17,3.59,-6.07,-17.75,-24.06,39.25,2.81,6.38,-1.25,-0.03805301685720969,0.14398805054773067,-0.2491801203434996,-89.83696005570141,-66.1586995980381,-52.463117579437494,0.0905,-0.7061,-0.5458,-0.442
13,729585.0,702.082503,1.0,7.17,3.59,-6.07,-17.75,-24.06,39.25,2.81,6.38,-1.25,-0.03805301685720969,0.14398805054773067,-0.2491801203434996,-89.83696005570141,-66.1586995980381,-52.463117579437494,0.0905,-0.7061,-0.5458,-0.442
14,729618.0,702.116023,1.0,7.24,3.18,-6.04,-17.75,-24.06,39.25,3.06,3.88,0.56,-0.3674343966896699,-0.05819728787162815,-0.13685064312431727,-89.7237370153758,-66.19973175300399,-52.51422225376784,0.0919,-0.7054,-0.5461,-0.4424
15,729618.0,702.116023,1.0,7.24,3.18,-6.04,-17.75,-24.06,39.25,3.06,3.88,0.56,-0.3674343966896699,-0.05819728787162815,-0.13685064312431727,-89.7237370153758,-66.19973175300399,-52.51422225376784,0.0919,-0.7054,-0.5461,-0.4424
16,729655.0,702.1838240000001,1.0,7.18,3.74,-5.96,-18.87,-24.5,39.69,-3.44,-2.69,-0.81,0.13551066201573092,0.15637794132407246,-0.2441600569032403,-89.77224753073929,-66.09033392975714,-52.61646535624809,0.0912,-0.7057,-0.5453,-0.4432
17,729655.0,702.1838240000001,1.0,7.18,3.74,-5.96,-18.87,-24.5,39.69,-3.44,-2.69,-0.81,0.13551066201573092,0.15637794132407246,-0.2441600569032403,-89.77224753073929,-66.09033392975714,-52.61646535624809,0.0912,-0.7057,-0.5453,-0.4432
18,729692.0,702.194241,1.0,7.08,3.52,-5.83,-17.37,-24.5,39.25,-0.12,2.06,-1.94,0.014021133586550829,0.050859967714327325,-0.016939805742962832,-89.6914080232464,-66.19973175300399,-52.578118912593965,0.0912,-0.7052,-0.5461,-0.4429
19,729692.0,702.194241,1.0,7.08,3.52,-5.83,-17.37,-24.5,39.25,-0.12,2.06,-1.94,0.014021133586550829,0.050859967714327325,-0.016939805742962832,-89.6914080232464,-66.19973175300399,-52.578118912593965,0.0912,-0.7052,-0.5461,-0.4429
20,729724.0,702.197542,1.0,7.16,3.85,-5.97,-17.37,-24.5,39.25,-1.69,-1.56,3.06,0.2268369978590291,0.21530398472427106,-0.2745795465664376,-89.7237370153758,-66.1450243398958,-52.578118912593965,0.0914,-0.7054,-0.5457,-0.4429
21,729724.0,702.197542,1.0,7.16,3.85,-5.97,-17.37,-24.5,39.25,-1.69,-1.56,3.06,0.2268369978590291,0.21530398472427106,-0.2745795465664376,-89.7237370153758,-66.1450243398958,-52.578118912593965,0.0914,-0.7054,-0.5457,-0.4429
22,729759.0,702.23355,1.0,7.01,3.34,-5.96,-18.5,-24.5,39.25,4.44,-0.25,-3.19,-0.20072841164933392,0.0985002623883542,0.02057285933397424,-89.6914080232464,-66.26813997300863,-52.50144503161559,0.0912,-0.7052,-0.5466,-0.4423
23,729759.0,702.23355,1.0,7.01,3.34,-5.96,-18.5,-24.5,39.25,4.44,-0.25,-3.19,-0.20072841164933392,0.0985002623883542,0.02057285933397424,-89.6914080232464,-66.26813997300863,-52.50144503161559,0.0912,-0.7052,-0.5466,-0.4423
24,729794.0,702.293361,1.0,7.15,3.17,-6.0,-18.5,-23.25,39.25,2.38,-2.5,-2.56,-0.369006527142924,-0.04495032140665956,-0.0438938251667782,-89.62677723650367,-66.33657485995305,-52.488668512026216,0.0911,-0.7048,-0.5471,-0.4422
25,729794.0,702.293361,1.0,7.15,3.17,-6.0,-18.5,-23.25,39.25,2.38,-2.5,-2.56,-0.369006527142924,-0.04495032140665956,-0.0438938251667782,-89.62677723650367,-66.33657485995305,-52.488668512026216,0.0911,-0.7048,-0.5471,-0.4422
26,729829.0,702.310505,1.0,7.08,3.48,-5.72,-18.5,-23.25,39.25,-3.5,-2.81,0.44,0.04730273559027853,-0.06960818110012656,0.06251755260738356,-89.75607508695732,-66.30919770158441,-52.39925252360182,0.0901,-0.7056,-0.5469,-0.4415
27,729829.0,702.310505,1.0,7.08,3.48,-5.72,-18.5,-23.25,39.25,-3.5,-2.81,0.44,0.04730273559027853,-0.06960818110012656,0.06251755260738356,-89.75607508695732,-66.30919770158441,-52.39925252360182,0.0901,-0.7056,-0.5469,-0.4415
28,729864.0,702.385584,1.0,7.38,3.67,-6.17,-17.75,-24.5,38.5,-0.06,2.44,-0.12,-0.035697107621648905,0.07670507969750684,-0.4887393587011069,-89.73990491559599,-66.25445619743063,-52.47589269472505,0.0898,-0.7055,-0.5465,-0.4421
29,729864.0,702.385584,1.0,7.38,3.67,-6.17,-17.75,-24.5,38.5,-0.06,2.44,-0.12,-0.035697107621648905,0.07670507969750684,-0.4887393587011069,-89.73990491559599,-66.25445619743063,-52.47589269472505,0.0898,-0.7055,-0.5465,-0.4421
30,729901.0,702.3948809999999,1.0,7.16,3.36,-6.21,-18.5,-24.5,40.06,0.5,-3.19,-0.94,-0.31979560438771537,0.11187799496504147,-0.24345020276698115,-89.75607508695732,-66.33657485995305,-52.386481614636175,0.0892,-0.7056,-0.5471,-0.4414
31,729901.0,702.3948809999999,1.0,7.16,3.36,-6.21,-18.5,-24.5,40.06,0.5,-3.19,-0.94,-0.31979560438771537,0.11187799496504147,-0.24345020276698115,-89.75607508695732,-66.33657485995305,-52.386481614636175,0.0892,-0.7056,-0.5471,-0.4414
32,729935.0,702.3983360000001,1.0,7.04,3.82,-5.81,-18.87,-24.06,40.06,-3.94,-7.56,0.63,0.28317303822641915,0.1000866652692185,-0.08374411195817189,-89.90170904203455,-66.30919770158441,-52.28433952334372,0.0877,-0.7065,-0.5469,-0.4406
33,729935.0,702.3983360000001,1.0,7.04,3.82,-5.81,-18.87,-24.06,40.06,-3.94,-7.56,0.63,0.28317303822641915,0.1000866652692185,-0.08374411195817189,-89.90170904203455,-66.30919770158441,-52.28433952334372,0.0877,-0.7065,-0.5469,-0.4406
34,729968.0,702.43121,1.0,7.21,3.65,-6.09,-18.87,-24.06,40.06,-1.94,-4.56,-1.81,-0.014565989742988006,0.04620834735661461,-0.31226064396644304,-90.0151077513171,-66.29551072464068,-52.19500183844674,0.0855,-0.7072,-0.5468,-0.4399
35,729968.0,702.43121,1.0,7.21,3.65,-6.09,-18.87,-24.06,40.06,-1.94,-4.56,-1.81,-0.014565989742988006,0.04620834735661461,-0.31226064396644304,-90.0151077513171,-66.29551072464068,-52.19500183844674,0.0855,-0.7072,-0.5468,-0.4399
36,730005.0,702.482116,1.0,6.94,3.7,-5.91,-18.06,-24.5,39.25,0.69,-7.56,-2.88,0.12114125968208996,0.10977958747618133,-0.029760587067633182,-90.11239605684216,-66.35026504226904,-52.06743571130708,0.084,-0.7078,-0.5472,-0.4389
37,730005.0,702.482116,1.0,6.94,3.7,-5.91,-18.06,-24.5,39.25,0.69,-7.56,-2.88,0.12114125968208996,0.10977958747618133,-0.029760587067633182,-90.11239605684216,-66.35026504226904,-52.06743571130708,0.084,-0.7078,-0.5472,-0.4389
38,730040.0,702.496955,1.0,7.34,3.52,-6.19,-18.06,-24.75,40.06,2.94,-2.63,0.37,-0.15154201319074878,-0.09821937813442604,-0.4182943994574888,-90.16107125343979,-66.45982503485911,-51.876216427159775,0.0839,-0.7081,-0.5479999999999999,-0.4374
39,730040.0,702.496955,1.0,7.34,3.52,-6.19,-18.06,-24.75,40.06,2.94,-2.63,0.37,-0.15154201319074878,-0.09821937813442604,-0.4182943994574888,-90.16107125343979,-66.45982503485911,-51.876216427159775,0.0839,-0.7081,-0.5479999999999999,-0.4374
40,730075.0,702.534673,1.0,7.28,3.58,-6.02,-18.06,-24.75,40.06,0.63,-8.88,-2.38,0.0006791290953335749,-0.1704193738309483,-0.2941498087184549,-90.25848391058588,-66.51463076702889,-51.697885027971715,0.0828,-0.7087,-0.5484,-0.436
41,730075.0,702.534673,1.0,7.28,3.58,-6.02,-18.06,-24.75,40.06,0.63,-8.88,-2.38,0.0006791290953335749,-0.1704193738309483,-0.2941498087184549,-90.25848391058588,-66.51463076702889,-51.697885027971715,0.0828,-0.7087,-0.5484,-0.436
42,730107.0,702.588788,1.0,7.35,3.8,-6.41,-16.56,-24.5,39.25,-2.5,-10.38,-2.0,-0.00559534626546221,0.02763979530303695,-0.659954259921923,-90.43729021823671,-66.61058219226842,-51.43063961098535,0.0803,-0.7098,-0.5491,-0.4339
43,730107.0,702.588788,1.0,7.35,3.8,-6.41,-16.56,-24.5,39.25,-2.5,-10.38,-2.0,-0.00559534626546221,0.02763979530303695,-0.659954259921923,-90.43729021823671,-66.61058219226842,-51.43063961098535,0.0803,-0.7098,-0.5491,-0.4339
44,730144.0,702.640019,1.0,6.9,3.9,-5.95,-16.56,-25.19,39.25,2.25,-20.62,-7.44,0.3380577963301371,0.0184627469586347,-0.09829200151193083,-90.6652693687788,-66.80264364391536,-50.98589564550729,0.0772,-0.7112,-0.5505,-0.4304
45,730144.0,702.640019,1.0,6.9,3.9,-5.95,-16.56,-25.19,39.25,2.25,-20.62,-7.44,0.3380577963301371,0.0184627469586347,-0.09829200151193083,-90.6652693687788,-66.80264364391536,-50.98589564550729,0.0772,-0.7112,-0.5505,-0.4304
46,730179.0,702.700836,1.0,6.33,3.43,-5.96,-16.56,-25.19,39.25,5.94,-17.75,-10.13,-0.05189186941068485,0.132251057851281,0.4613187115123463,-90.74680173049411,-67.2837297114374,-50.389958349814904,0.0739,-0.7117,-0.5539999999999999,-0.4257
47,730179.0,702.700836,1.0,6.33,3.43,-5.96,-16.56,-25.19,39.25,5.94,-17.75,-10.13,-0.05189186941068485,0.132251057851281,0.4613187115123463,-90.74680173049411,-67.2837297114374,-50.389958349814904,0.0739,-0.7117,-0.5539999999999999,-0.4257
48,730214.0,702.7078700000001,1.0,5.95,3.6,-6.26,-15.5,-24.06,39.25,-9.56,-1.37,-5.56,-0.09134326657727616,0.6086917428399825,0.4700954551023262,-90.69787526655077,-67.40765461346972,-50.33930781936822,0.07200000000000001,-0.7114,-0.5549,-0.4253
49,730214.0,702.7078700000001,1.0,5.95,3.6,-6.26,-15.5,-24.06,39.25,-9.56,-1.37,-5.56,-0.09134326657727616,0.6086917428399825,0.4700954551023262,-90.69787526655077,-67.40765461346972,-50.33930781936822,0.07200000000000001,-0.7114,-0.5549,-0.4253
50,730249.0,702.760882,1.0,5.93,2.9,-5.99,-15.88,-24.5,39.69,-17.0,5.31,-12.81,-0.6675941826326613,0.1879751437221009,0.9199192539574668,-90.33972471015196,-67.40765461346972,-50.89704579606666,0.067,-0.7092,-0.5549,-0.4297
51,730249.0,702.760882,1.0,5.93,2.9,-5.99,-15.88,-24.5,39.69,-17.0,5.31,-12.81,-0.6675941826326613,0.1879751437221009,0.9199192539574668,-90.33972471015196,-67.40765461346972,-50.89704579606666,0.067,-0.7092,-0.5549,-0.4297
52,730286.0,702.77233,1.0,6.35,2.61,-5.97,-14.38,-25.19,39.69,-32.69,-7.06,-2.19,-0.9916001376694789,-0.25144121114579154,0.7662403586003688,-90.24224269381638,-67.173649069206,-51.37976979085595,0.0624,-0.7086,-0.5532,-0.4335
53,730286.0,702.77233,1.0,6.35,2.61,-5.97,-14.38,-25.19,39.69,-32.69,-7.06,-2.19,-0.9916001376694789,-0.25144121114579154,0.7662403586003688,-90.24224269381638,-67.173649069206,-51.37976979085595,0.0624,-0.7086,-0.5532,-0.4335
54,730318.0,702.784334,1.0,5.47,2.44,-5.38,-14.38,-25.19,39.69,-37.69,-16.37,-7.31,-0.950956966324942,-0.09823496477023276,1.81259403698006,-90.51865879287712,-66.63800657923225,-51.85073225942561,0.0508,-0.7103,-0.5493,-0.4372
55,730318.0,702.784334,1.0,5.47,2.44,-5.38,-14.38,-25.19,39.69,-37.69,-16.37,-7.31,-0.950956966324942,-0.09823496477023276,1.81259403698006,-90.51865879287712,-66.63800657923225,-51.85073225942561,0.0508,-0.7103,-0.5493,-0.4372
56,730355.0,702.825271,1.0,4.0,1.74,-4.76,-15.5,-26.69,38.88,-41.75,-8.5,4.38,-1.2778664818509045,0.3171996596379041,3.48591890063439,-90.81206995793598,-66.07666398061995,-52.258810985064926,0.0425,-0.7121,-0.5452,-0.4404
57,730355.0,702.825271,1.0,4.0,1.74,-4.76,-15.5,-26.69,38.88,-41.75,-8.5,4.38,-1.2778664818509045,0.3171996596379041,3.48591890063439,-90.81206995793598,-66.07666398061995,-52.258810985064926,0.0425,-0.7121,-0.5452,-0.4404
58,730392.0,702.882098,1.0,3.75,1.82,-3.87,-14.0,-27.5,38.56,-59.75,12.69,16.12,-0.8461135278405933,0.0856985357142791,4.182723643887076,-91.15534914020606,-64.38967098038597,-53.83409111073488,0.0325,-0.7142,-0.5328,-0.4527
59,730392.0,702.882098,1.0,3.75,1.82,-3.87,-14.0,-27.5,38.56,-59.75,12.69,16.12,-0.8461135278405933,0.0856985357142791,4.182723643887076,-91.15534914020606,-64.38967098038597,-53.83409111073488,0.0325,-0.7142,-0.5328,-0.4527
60,730425.0,702.897896,1.0,4.76,3.09,-3.76,-14.0,-27.5,38.56,-87.25,54.94,28.25,0.03664335314393688,0.010660953579888057,2.9991656181788304,-90.97540577406771,-62.47677807164217,-56.18546670575561,0.0276,-0.7131,-0.5186,-0.4709
61,730425.0,702.897896,1.0,4.76,3.09,-3.76,-14.0,-27.5,38.56,-87.25,54.94,28.25,0.03664335314393688,0.010660953579888057,2.9991656181788304,-90.97540577406771,-62.47677807164217,-56.18546670575561,0.0276,-0.7131,-0.5186,-0.4709
62,730460.0,702.9365,1.0,4.42,4.34,-3.98,-14.75,-29.25,36.56,-107.56,70.0,23.25,0.34707673627652746,1.29030448600546,2.5659972619846068,-90.11239605684216,-59.20766160334654,-60.63615363736209,0.0175,-0.7078,-0.494,-0.5048
63,730460.0,702.9365,1.0,4.42,4.34,-3.98,-14.75,-29.25,36.56,-107.56,70.0,23.25,0.34707673627652746,1.29030448600546,2.5659972619846068,-90.11239605684216,-59.20766160334654,-60.63615363736209,0.0175,-0.7078,-0.494,-0.5048
64,730494.0,702.992211,1.0,3.87,5.21,-3.14,-17.0,-31.19,34.56,-69.0,88.87,10.13,1.203824920098861,1.935059836075787,2.9665513901439016,-88.78984149659982,-57.25327616401329,-63.99739696031453,0.013999999999999999,-0.6996,-0.4791,-0.5299
65,730494.0,702.992211,1.0,3.87,5.21,-3.14,-17.0,-31.19,34.56,-69.0,88.87,10.13,1.203824920098861,1.935059836075787,2.9665513901439016,-88.78984149659982,-57.25327616401329,-63.99739696031453,0.013999999999999999,-0.6996,-0.4791,-0.5299
66,730531.0,702.999521,1.0,4.82,3.05,-2.41,-18.87,-34.5,31.0,-57.88,114.0,21.06,-0.10984780460695888,0.10478726898438497,3.6163387729224916,-86.1570415333954,-55.49811986129514,-68.43001555142907,0.0211,-0.6829999999999999,-0.4656,-0.5623
67,730531.0,702.999521,1.0,4.82,3.05,-2.41,-18.87,-34.5,31.0,-57.88,114.0,21.06,-0.10984780460695888,0.10478726898438497,3.6163387729224916,-86.1570415333954,-55.49811986129514,-68.43001555142907,0.0211,-0.6829999999999999,-0.4656,-0.5623
68,730566.0,703.050181,1.0,6.55,4.52,-1.45,-18.87,-34.5,31.0,-114.87,117.94,45.31,1.0487707134013382,-0.17887103740990762,1.7877046115659605,-84.24222829795386,-52.769914659011285,-72.79731116496349,0.0238,-0.6707,-0.4444,-0.5934
69,730566.0,703.050181,1.0,6.55,4.52,-1.45,-18.87,-34.5,31.0,-114.87,117.94,45.31,1.0487707134013382,-0.17887103740990762,1.7877046115659605,-84.24222829795386,-52.769914659011285,-72.79731116496349,0.0238,-0.6707,-0.4444,-0.5934
70,730603.0,703.101341,1.0,7.25,6.91,0.75,-23.25,-33.69,26.56,-84.75,127.25,46.13,3.5221406280726053,0.5146371012559743,0.4150168060293621,-81.65744421958767,-48.49763058758104,-78.82513609744035,0.0281,-0.6538,-0.4107,-0.6349
71,730603.0,703.101341,1.0,7.25,6.91,0.75,-23.25,-33.69,26.56,-84.75,127.25,46.13,3.5221406280726053,0.5146371012559743,0.4150168060293621,-81.65744421958767,-48.49763058758104,-78.82513609744035,0.0281,-0.6538,-0.4107,-0.6349
72,730640.0,703.119383,1.0,9.05,6.04,1.56,-27.06,-34.88,20.19,-37.63,168.94,11.81,2.538158256216656,-0.6716330768710597,-0.8668855752652096,-76.86613864248247,-46.35737642818546,-85.06370833977694,0.0427,-0.6216,-0.3936,-0.6759999999999999
73,730640.0,703.119383,1.0,9.05,6.04,1.56,-27.06,-34.88,20.19,-37.63,168.94,11.81,2.538158256216656,-0.6716330768710597,-0.8668855752652096,-76.86613864248247,-46.35737642818546,-85.06370833977694,0.0427,-0.6216,-0.3936,-0.6759999999999999
74,730675.0,703.1632030000001,1.0,11.4,6.32,0.92,-27.06,-34.88,20.19,-53.94,169.0,-15.5,0.6128411795210147,-0.497259586393696,-3.236584207527778,-72.27144436256579,-45.12611671542185,-90.3072214419173,0.0486,-0.5897,-0.3837,-0.7090000000000001
75,730675.0,703.1632030000001,1.0,11.4,6.32,0.92,-27.06,-34.88,20.19,-53.94,169.0,-15.5,0.6128411795210147,-0.497259586393696,-3.236584207527778,-72.27144436256579,-45.12611671542185,-90.3072214419173,0.0486,-0.5897,-0.3837,-0.7090000000000001
76,730707.0,703.2272389999999,1.0,11.72,5.21,1.25,-29.75,-35.25,15.06,-10.19,126.12,11.25,-0.6853001115659194,-0.8924660098115695,-3.030751145809022,-67.90425219273371,-43.99918511445215,-95.03777424913531,0.0626,-0.5585,-0.3746,-0.7375
77,730707.0,703.2272389999999,1.0,11.72,5.21,1.25,-29.75,-35.25,15.06,-10.19,126.12,11.25,-0.6853001115659194,-0.8924660098115695,-3.030751145809022,-67.90425219273371,-43.99918511445215,-95.03777424913531,0.0626,-0.5585,-0.3746,-0.7375
78,730744.0,703.248733,1.0,11.39,6.61,2.38,-31.56,-34.56,10.69,-52.63,94.06,26.0,0.5851278415675979,0.08234875748747328,-3.5626971826848286,-65.76254695121683,-42.45844069063149,-97.92848570683063,0.0721,-0.5429,-0.3621,-0.7543
79,730744.0,703.248733,1.0,11.39,6.61,2.38,-31.56,-34.56,10.69,-52.63,94.06,26.0,0.5851278415675979,0.08234875748747328,-3.5626971826848286,-65.76254695121683,-42.45844069063149,-97.92848570683063,0.0721,-0.5429,-0.3621,-0.7543
80,730781.0,703.273008,1.0,10.56,6.21,2.85,-31.56,-34.56,10.69,-24.19,103.62,-11.19,0.35593885298501304,0.24461565688019515,-2.7636988699934197,-62.262463418184296,-41.20714343304567,-101.86426876300013,0.0779,-0.517,-0.3519,-0.7764
81,730781.0,703.273008,1.0,10.56,6.21,2.85,-31.56,-34.56,10.69,-24.19,103.62,-11.19,0.35593885298501304,0.24461565688019515,-2.7636988699934197,-62.262463418184296,-41.20714343304567,-101.86426876300013,0.0779,-0.517,-0.3519,-0.7764
82,730816.0,703.289279,1.0,10.53,3.93,2.48,-32.38,-33.88,6.19,-27.81,105.5,-2.63,-1.561461632813094,-0.8829326075902735,-1.5625393985326197,-59.313125954036636,-40.68118093937297,-104.78316565832016,0.0828,-0.4948,-0.3476,-0.7922
83,730816.0,703.289279,1.0,10.53,3.93,2.48,-32.38,-33.88,6.19,-27.81,105.5,-2.63,-1.561461632813094,-0.8829326075902735,-1.5625393985326197,-59.313125954036636,-40.68118093937297,-104.78316565832016,0.0828,-0.4948,-0.3476,-0.7922
84,730853.0,703.326255,1.0,10.68,4.86,2.67,-31.56,-33.06,4.5,-36.25,66.06,45.94,-1.4534400036097042,0.3262730885158729,-2.1345374630464353,-56.966262181573775,-38.57397055139104,-107.97719450779341,0.0955,-0.4769,-0.3303,-0.8089
85,730853.0,703.326255,1.0,10.68,4.86,2.67,-31.56,-33.06,4.5,-36.25,66.06,45.94,-1.4534400036097042,0.3262730885158729,-2.1345374630464353,-56.966262181573775,-38.57397055139104,-107.97719450779341,0.0955,-0.4769,-0.3303,-0.8089
86,730888.0,703.3798,1.0,10.23,5.79,3.55,-32.25,-31.69,0.0,-21.19,55.44,35.19,-0.28177706095008664,0.9935933622779296,-2.4290712259171543,-56.00369069764568,-37.12029440520261,-109.53146516582777,0.1053,-0.4695,-0.3183,-0.8168
87,730888.0,703.3798,1.0,10.23,5.79,3.55,-32.25,-31.69,0.0,-21.19,55.44,35.19,-0.28177706095008664,0.9935933622779296,-2.4290712259171543,-56.00369069764568,-37.12029440520261,-109.53146516582777,0.1053,-0.4695,-0.3183,-0.8168
88,730920.0,703.3834780000001,1.0,9.72,5.26,3.57,-32.25,-31.69,0.0,-9.75,67.37,2.69,-0.5718229489807527,1.0209870885800294,-1.7485005347170564,-53.92406916451298,-36.07025258875129,-111.76723539379441,0.114,-0.4534,-0.3096,-0.8279
89,730920.0,703.3834780000001,1.0,9.72,5.26,3.57,-32.25,-31.69,0.0,-9.75,67.37,2.69,-0.5718229489807527,1.0209870885800294,-1.7485005347170564,-53.92406916451298,-36.07025258875129,-111.76723539379441,0.114,-0.4534,-0.3096,-0.8279
90,730955.0,703.431475,1.0,9.9,3.8,3.26,-33.0,-31.25,-2.19,1.19,48.69,9.38,-1.7918635439305601,0.23691749694862896,-1.139157194518468,-52.463117579437494,-35.841352697842005,-113.02370899765695,0.1197,-0.442,-0.3077,-0.8340000000000001
91,730955.0,703.431475,1.0,9.9,3.8,3.26,-33.0,-31.25,-2.19,1.19,48.69,9.38,-1.7918635439305601,0.23691749694862896,-1.139157194518468,-52.463117579437494,-35.841352697842005,-113.02370899765695,0.1197,-0.442,-0.3077,-0.8340000000000001
92,730992.0,703.4829110000001,1.0,9.62,4.41,3.34,-31.87,-31.69,-4.25,-37.81,12.63,7.19,-1.401447201122015,0.924801876475259,-1.1627979000419677,-51.82525084646464,-34.699045966979874,-114.23801227723101,0.1216,-0.43700000000000006,-0.2982,-0.8398
93,730992.0,703.4829110000001,1.0,9.62,4.41,3.34,-31.87,-31.69,-4.25,-37.81,12.63,7.19,-1.401447201122015,0.924801876475259,-1.1627979000419677,-51.82525084646464,-34.699045966979874,-114.23801227723101,0.1216,-0.43700000000000006,-0.2982,-0.8398
94,731027.0,703.537008,1.0,8.72,4.75,4.0,-31.87,-31.69,-4.25,-30.06,-4.63,-7.38,-0.3163080486114441,0.9452317751757576,-0.8520265646388676,-51.88895954474002,-33.84764578735518,-114.85268180222258,0.1174,-0.4375,-0.2911,-0.8427
95,731027.0,703.537008,1.0,8.72,4.75,4.0,-31.87,-31.69,-4.25,-30.06,-4.63,-7.38,-0.3163080486114441,0.9452317751757576,-0.8520265646388676,-51.88895954474002,-33.84764578735518,-114.85268180222258,0.1174,-0.4375,-0.2911,-0.8427
96,731062.0,703.543592,1.0,8.49,4.51,4.3,-32.56,-30.75,-5.19,-19.12,-11.63,-16.44,-0.10541482494740427,0.5720825115698609,-0.7086630868575323,-52.19500183844674,-33.440616741828144,-115.04449255970869,0.1094,-0.4399,-0.2877,-0.8436
97,731062.0,703.543592,1.0,8.49,4.51,4.3,-32.56,-30.75,-5.19,-19.12,-11.63,-16.44,-0.10541482494740427,0.5720825115698609,-0.7086630868575323,-52.19500183844674,-33.440616741828144,-115.04449255970869,0.1094,-0.4399,-0.2877,-0.8436
98,731097.0,703.6029480000001,1.0,8.96,5.07,4.23,-31.75,-30.06,-5.69,-17.37,-16.81,-27.0,-0.21113536886880965,0.9690466295735392,-1.2791864811016769,-52.463117579437494,-33.332946647245606,-115.10854164041076,0.1016,-0.442,-0.2868,-0.8439
99,731097.0,703.6029480000001,1.0,8.96,5.07,4.23,-31.75,-30.06,-5.69,-17.37,-16.81,-27.0,-0.21113536886880965,0.9690466295735392,-1.2791864811016769,-52.463117579437494,-33.332946647245606,-115.10854164041076,0.1016,-0.442,-0.2868,-0.8439
100,731133.0,703.619606,1.0,9.76,6.46,3.87,-30.69,-30.75,-4.19,-33.19,-33.69,-85.44,-0.5503861966076633,1.932484089388553,-2.3559434848963807,-52.821087070408176,-33.476513522752754,-115.23680905302649,0.077,-0.4448,-0.28800000000000003,-0.8445
101,731133.0,703.619606,1.0,9.76,6.46,3.87,-30.69,-30.75,-4.19,-33.19,-33.69,-85.44,-0.5503861966076633,1.932484089388553,-2.3559434848963807,-52.821087070408176,-33.476513522752754,-115.23680905302649,0.077,-0.4448,-0.28800000000000003,-0.8445
102,731168.0,703.624511,1.0,9.01,5.57,3.6,-30.69,-30.75,-4.19,-3.19,-42.81,-112.81,-0.8977706465210483,0.7519140964580933,-1.319608717906604,-53.000280019764396,-35.20361971980137,-114.57650555012708,0.0403,-0.4462,-0.3024,-0.8414
103,731168.0,703.624511,1.0,9.01,5.57,3.6,-30.69,-30.75,-4.19,-3.19,-42.81,-112.81,-0.8977706465210483,0.7519140964580933,-1.319608717906604,-53.000280019764396,-35.20361971980137,-114.57650555012708,0.0403,-0.4462,-0.3024,-0.8414
104,731205.0,703.698933,1.0,8.17,5.24,3.84,-29.56,-32.0,-5.5,-7.13,-72.12,-116.62,-0.400670855850467,-0.048203584923977694,-0.6235580170853989,-53.628561471418074,-36.73370161256758,-113.21085389304196,0.0095,-0.4511,-0.3151,-0.8349
105,731205.0,703.698933,1.0,8.17,5.24,3.84,-29.56,-32.0,-5.5,-7.13,-72.12,-116.62,-0.400670855850467,-0.048203584923977694,-0.6235580170853989,-53.628561471418074,-36.73370161256758,-113.21085389304196,0.0095,-0.4511,-0.3151,-0.8349
106,731242.0,703.70907,1.0,7.18,4.59,4.76,-25.75,-33.38,-5.5,7.69,-72.44,-81.94,0.7924512071650642,-1.3530517024022697,0.1723689072100978,-54.929136905330246,-38.51327351873995,-110.85321906669195,-0.0229,-0.4612,-0.3298,-0.8234
107,731242.0,703.70907,1.0,7.18,4.59,4.76,-25.75,-33.38,-5.5,7.69,-72.44,-81.94,0.7924512071650642,-1.3530517024022697,0.1723689072100978,-54.929136905330246,-38.51327351873995,-110.85321906669195,-0.0229,-0.4612,-0.3298,-0.8234
108,731275.0,703.749304,1.0,7.86,5.68,2.62,-25.75,-33.38,-5.5,-36.44,-35.5,-75.44,-1.033939835307221,0.07320004555855464,-0.18494697797579995,-55.23930804894636,-38.974854277526724,-110.10954773943891,-0.0437,-0.4636,-0.3336,-0.8197
109,731275.0,703.749304,1.0,7.86,5.68,2.62,-25.75,-33.38,-5.5,-36.44,-35.5,-75.44,-1.033939835307221,0.07320004555855464,-0.18494697797579995,-55.23930804894636,-38.974854277526724,-110.10954773943891,-0.0437,-0.4636,-0.3336,-0.8197
110,731310.0,703.8061240000001,1.0,7.79,6.79,2.97,-23.87,-36.06,-4.0,-41.81,-45.06,-74.06,-0.6395677717576203,0.4199186797673784,-0.9182612522067704,-55.52401793690186,-38.93838987087892,-109.41237708953594,-0.0753,-0.4658,-0.3333,-0.8162
111,731310.0,703.8061240000001,1.0,7.79,6.79,2.97,-23.87,-36.06,-4.0,-41.81,-45.06,-74.06,-0.6395677717576203,0.4199186797673784,-0.9182612522067704,-55.52401793690186,-38.93838987087892,-109.41237708953594,-0.0753,-0.4658,-0.3333,-0.8162
112,731346.0,703.813425,1.0,7.78,5.14,2.07,-21.56,-37.56,-4.0,-8.75,-48.81,-58.75,-1.6743281775936325,-0.7361096942651026,0.4318077255014608,-55.88691564523484,-39.558846745858816,-108.28962313901592,-0.0941,-0.4686,-0.3384,-0.8105
113,731346.0,703.813425,1.0,7.78,5.14,2.07,-21.56,-37.56,-4.0,-8.75,-48.81,-58.75,-1.6743281775936325,-0.7361096942651026,0.4318077255014608,-55.88691564523484,-39.558846745858816,-108.28962313901592,-0.0941,-0.4686,-0.3384,-0.8105
114,731381.0,703.876238,1.0,7.02,6.43,2.9,-21.56,-37.56,-4.0,-20.12,-88.37,-20.44,-0.11086019438115936,0.027235605433424848,-0.14434332926609986,-58.12979906907962,-39.278884517127096,-106.08848885002472,-0.1118,-0.4858,-0.3361,-0.7991
115,731381.0,703.876238,1.0,7.02,6.43,2.9,-21.56,-37.56,-4.0,-20.12,-88.37,-20.44,-0.11086019438115936,0.027235605433424848,-0.14434332926609986,-58.12979906907962,-39.278884517127096,-106.08848885002472,-0.1118,-0.4858,-0.3361,-0.7991
116,731416.0,703.9104570000001,1.0,6.92,6.69,2.83,-19.69,-38.38,-2.75,-5.56,-87.44,-23.06,0.1859155113231004,0.16983640751871087,-0.22270646077706505,-60.238317330964705,-39.07211278567739,-103.99799847995277,-0.1244,-0.5018,-0.3344,-0.7879999999999999
117,731416.0,703.9104570000001,1.0,6.92,6.69,2.83,-19.69,-38.38,-2.75,-5.56,-87.44,-23.06,0.1859155113231004,0.16983640751871087,-0.22270646077706505,-60.238317330964705,-39.07211278567739,-103.99799847995277,-0.1244,-0.5018,-0.3344,-0.7879999999999999
118,731451.0,703.925118,1.0,6.85,6.27,2.61,-19.25,-38.38,-2.88,6.31,-76.19,-25.81,0.2999562695538047,-0.2390340093740271,0.16816521354533798,-62.557208730764245,-39.41274892746301,-101.28424437309431,-0.1378,-0.5192,-0.3372,-0.7732
119,731451.0,703.925118,1.0,6.85,6.27,2.61,-19.25,-38.38,-2.88,6.31,-76.19,-25.81,0.2999562695538047,-0.2390340093740271,0.16816521354533798,-62.557208730764245,-39.41274892746301,-101.28424437309431,-0.1378,-0.5192,-0.3372,-0.7732
120,731486.0,703.970881,1.0,7.06,5.55,1.51,-18.06,-39.06,-2.06,38.69,-88.06,7.56,-0.5213388030593946,-0.6065603784505313,0.7354598708207759,-64.7285179210035,-39.9000028418168,-98.89313900458244,-0.1408,-0.5353,-0.3412,-0.7598
121,731486.0,703.970881,1.0,7.06,5.55,1.51,-18.06,-39.06,-2.06,38.69,-88.06,7.56,-0.5213388030593946,-0.6065603784505313,0.7354598708207759,-64.7285179210035,-39.9000028418168,-98.89313900458244,-0.1408,-0.5353,-0.3412,-0.7598
122,731521.0,704.032547,1.0,6.58,6.4,2.17,-18.06,-39.06,-2.06,35.44,-91.44,18.37,0.98716461562113,-0.014512861363701557,0.4263197606896245,-68.40230300517993,-40.08291658507028,-95.37768129091222,-0.1404,-0.5621,-0.3427,-0.7395
123,731521.0,704.032547,1.0,6.58,6.4,2.17,-18.06,-39.06,-2.06,35.44,-91.44,18.37,0.98716461562113,-0.014512861363701557,0.4263197606896245,-68.40230300517993,-40.08291658507028,-95.37768129091222,-0.1404,-0.5621,-0.3427,-0.7395
124,731557.0,704.041577,1.0,6.87,6.89,1.15,-18.06,-40.19,-0.56,16.37,-60.88,-4.25,0.3235181993116013,0.4394423457876049,0.024332973883799625,-70.24128817122835,-40.21712102458852,-93.471410399605,-0.1434,-0.5753,-0.3438,-0.7282
125,731557.0,704.041577,1.0,6.87,6.89,1.15,-18.06,-40.19,-0.56,16.37,-60.88,-4.25,0.3235181993116013,0.4394423457876049,0.024332973883799625,-70.24128817122835,-40.21712102458852,-93.471410399605,-0.1434,-0.5753,-0.3438,-0.7282
126,731594.0,704.0444650000001,1.0,7.16,5.76,0.63,-18.87,-40.0,1.37,28.37,-57.56,-5.19,-0.12410857241655505,-0.5166938527292033,0.6111225803897167,-72.2856337588228,-40.63229985656115,-91.13897874666814,-0.147,-0.5898,-0.3472,-0.7141
127,731594.0,704.0444650000001,1.0,7.16,5.76,0.63,-18.87,-40.0,1.37,28.37,-57.56,-5.19,-0.12410857241655505,-0.5166938527292033,0.6111225803897167,-72.2856337588228,-40.63229985656115,-91.13897874666814,-0.147,-0.5898,-0.3472,-0.7141
128,731627.0,704.08365,1.0,6.5,6.95,1.0,-18.87,-40.0,1.37,26.19,-79.0,34.56,1.0199760358423515,0.6561978682243939,0.3155197593993009,-74.71696010988838,-40.43685258518578,-89.04671926027092,-0.1437,-0.6068,-0.3456,-0.7012
129,731627.0,704.08365,1.0,6.5,6.95,1.0,-18.87,-40.0,1.37,26.19,-79.0,34.56,1.0199760358423515,0.6561978682243939,0.3155197593993009,-74.71696010988838,-40.43685258518578,-89.04671926027092,-0.1437,-0.6068,-0.3456,-0.7012
130,731662.0,704.149681,1.0,6.71,7.03,0.21,-19.5,-40.25,2.56,27.25,-57.38,13.0,0.6679688219779764,0.8242171302049188,0.1441666869410767,-77.36437490697888,-40.33917501022326,-86.62860462931063,-0.1412,-0.625,-0.3448,-0.6859999999999999
131,731662.0,704.149681,1.0,6.71,7.03,0.21,-19.5,-40.25,2.56,27.25,-57.38,13.0,0.6679688219779764,0.8242171302049188,0.1441666869410767,-77.36437490697888,-40.33917501022326,-86.62860462931063,-0.1412,-0.625,-0.3448,-0.6859999999999999
132,731697.0,704.208753,1.0,7.37,6.05,-0.73,-19.06,-40.69,5.75,16.62,-80.12,-1.19,-0.28019708699978463,-0.12710011610668914,0.2485311917343029,-79.16669200758267,-40.54677652678586,-84.64454836195905,-0.1438,-0.6372,-0.3465,-0.6733
133,731697.0,704.208753,1.0,7.37,6.05,-0.73,-19.06,-40.69,5.75,16.62,-80.12,-1.19,-0.28019708699978463,-0.12710011610668914,0.2485311917343029,-79.16669200758267,-40.54677652678586,-84.64454836195905,-0.1438,-0.6372,-0.3465,-0.6733
134,731734.0,704.2257089999999,1.0,6.74,5.94,0.11,-18.75,-39.56,7.38,20.87,-73.44,8.13,1.0077447473341634,-0.11502715920225935,0.8794713148348894,-81.96067611888428,-40.461276767806375,-81.8089732715648,-0.1465,-0.6558,-0.3458,-0.6548
135,731734.0,704.2257089999999,1.0,6.74,5.94,0.11,-18.75,-39.56,7.38,20.87,-73.44,8.13,1.0077447473341634,-0.11502715920225935,0.8794713148348894,-81.96067611888428,-40.461276767806375,-81.8089732715648,-0.1465,-0.6558,-0.3458,-0.6548
136,731768.0,704.279215,1.0,7.01,6.34,-0.51,-18.75,-39.56,7.38,1.69,-27.0,8.06,0.6613305756219916,0.15602515708100695,0.36556436220890376,-83.10407566239712,-40.29034769423164,-80.78195924057705,-0.1467,-0.6633,-0.3444,-0.648
137,731768.0,704.279215,1.0,7.01,6.34,-0.51,-18.75,-39.56,7.38,1.69,-27.0,8.06,0.6613305756219916,0.15602515708100695,0.36556436220890376,-83.10407566239712,-40.29034769423164,-80.78195924057705,-0.1467,-0.6633,-0.3444,-0.648
138,731805.0,704.2898690000001,1.0,6.87,5.85,-0.55,-20.25,-40.0,9.0,26.31,1.5,19.75,0.6094641238417766,-0.04321643673120423,0.7873049117274586,-83.6872680998447,-40.265936898659355,-80.37634433071155,-0.1418,-0.6671,-0.3442,-0.6453
139,731805.0,704.2898690000001,1.0,6.87,5.85,-0.55,-20.25,-40.0,9.0,26.31,1.5,19.75,0.6094641238417766,-0.04321643673120423,0.7873049117274586,-83.6872680998447,-40.265936898659355,-80.37634433071155,-0.1418,-0.6671,-0.3442,-0.6453
140,731840.0,704.329084,1.0,7.99,6.07,-2.1,-19.06,-39.19,8.88,15.81,23.06,22.75,-0.8478178468179774,-0.0614004925354914,-0.4096328307625328,-83.7488111988913,-40.265936898659355,-80.6165617364412,-0.1327,-0.6675,-0.3442,-0.6469
141,731840.0,704.329084,1.0,7.99,6.07,-2.1,-19.06,-39.19,8.88,15.81,23.06,22.75,-0.8478178468179774,-0.0614004925354914,-0.4096328307625328,-83.7488111988913,-40.265936898659355,-80.6165617364412,-0.1327,-0.6675,-0.3442,-0.6469
142,731873.0,704.370604,1.0,8.09,6.11,-2.98,-19.06,-39.19,8.88,-3.0,4.19,7.25,-1.7437544627569503,0.2531193487886192,-0.6123639153800937,-83.39534135240477,-40.07071902721768,-81.2189848647937,-0.1285,-0.6652,-0.3426,-0.6509
143,731873.0,704.370604,1.0,8.09,6.11,-2.98,-19.06,-39.19,8.88,-3.0,4.19,7.25,-1.7437544627569503,0.2531193487886192,-0.6123639153800937,-83.39534135240477,-40.07071902721768,-81.2189848647937,-0.1285,-0.6652,-0.3426,-0.6509
144,731908.0,704.395522,1.0,7.62,5.93,-1.69,-21.19,-38.5,8.5,10.5,-27.06,1.88,-0.4350801083294696,0.04107902377091843,0.014080479534900547,-84.07240023072654,-39.86343282424955,-80.63158949863124,-0.1301,-0.6696,-0.3409,-0.647
145,731908.0,704.395522,1.0,7.62,5.93,-1.69,-21.19,-38.5,8.5,10.5,-27.06,1.88,-0.4350801083294696,0.04107902377091843,0.014080479534900547,-84.07240023072654,-39.86343282424955,-80.63158949863124,-0.1301,-0.6696,-0.3409,-0.647
146,731944.0,704.412219,1.0,7.5,6.41,-0.95,-20.87,-39.56,8.88,7.5,-10.44,1.88,0.5766874994855715,0.25985483253501584,-0.08478604305994253,-85.03261129904976,-39.76593345094053,-79.70299876376654,-0.13,-0.6758,-0.3401,-0.6408
147,731944.0,704.412219,1.0,7.5,6.41,-0.95,-20.87,-39.56,8.88,7.5,-10.44,1.88,0.5766874994855715,0.25985483253501584,-0.08478604305994253,-85.03261129904976,-39.76593345094053,-79.70299876376654,-0.13,-0.6758,-0.3401,-0.6408
148,731979.0,704.453072,1.0,7.68,5.84,-1.57,-20.87,-39.56,8.88,10.63,-2.25,5.25,-0.14388108055603446,-0.10425295872654372,0.03314860309751566,-85.20374096421402,-39.92438520696097,-79.50909171234422,-0.1279,-0.6769,-0.3414,-0.6395
149,731979.0,704.453072,1.0,7.68,5.84,-1.57,-20.87,-39.56,8.88,10.63,-2.25,5.25,-0.14388108055603446,-0.10425295872654372,0.03314860309751566,-85.20374096421402,-39.92438520696097,-79.50909171234422,-0.1279,-0.6769,-0.3414,-0.6395
150,732012.0,704.510442,1.0,7.58,5.78,-2.11,-20.5,-38.5,9.69,2.63,-0.5,9.5,-0.6406392525023828,0.10741233452703858,0.0652464081891857,-85.42188290417067,-39.72937892373464,-79.47928409235018,-0.1257,-0.6783,-0.3398,-0.6393
151,732012.0,704.510442,1.0,7.58,5.78,-2.11,-20.5,-38.5,9.69,2.63,-0.5,9.5,-0.6406392525023828,0.10741233452703858,0.0652464081891857,-85.42188290417067,-39.72937892373464,-79.47928409235018,-0.1257,-0.6783,-0.3398,-0.6393
152,732047.0,704.529983,1.0,7.58,6.24,-1.51,-21.06,-38.06,10.06,8.25,-11.69,21.25,0.11947047176803355,0.3678153339894417,-0.11930278481908728,-85.8749731823786,-39.278884517127096,-79.37500813467463,-0.1235,-0.6812,-0.3361,-0.6386
153,732047.0,704.529983,1.0,7.58,6.24,-1.51,-21.06,-38.06,10.06,8.25,-11.69,21.25,0.11947047176803355,0.3678153339894417,-0.11930278481908728,-85.8749731823786,-39.278884517127096,-79.37500813467463,-0.1235,-0.6812,-0.3361,-0.6386
154,732084.0,704.568441,1.0,8.67,6.57,-2.34,-21.5,-37.69,10.06,4.25,-5.31,15.75,-0.5183047693089474,0.2528481691581579,-1.3053627775963663,-86.53414601080244,-38.8168714421915,-79.09236926487023,-0.1205,-0.6854,-0.3323,-0.6367
155,732084.0,704.568441,1.0,8.67,6.57,-2.34,-21.5,-37.69,10.06,4.25,-5.31,15.75,-0.5183047693089474,0.2528481691581579,-1.3053627775963663,-86.53414601080244,-38.8168714421915,-79.09236926487023,-0.1205,-0.6854,-0.3323,-0.6367
156,732119.0,704.575338,1.0,6.86,6.59,-2.59,-21.5,-37.69,10.06,17.19,-38.06,-3.25,-0.6050158097651676,1.3739309015592545,0.06282786760889357,-87.11781645834128,-38.86547335701747,-78.38088122929612,-0.1227,-0.6891,-0.3327,-0.6319
157,732119.0,704.575338,1.0,6.86,6.59,-2.59,-21.5,-37.69,10.06,17.19,-38.06,-3.25,-0.6050158097651676,1.3739309015592545,0.06282786760889357,-87.11781645834128,-38.86547335701747,-78.38088122929612,-0.1227,-0.6891,-0.3327,-0.6319
158,732155.0,704.63128,1.0,6.49,6.33,-1.44,-21.19,-38.5,11.69,111.0,-67.94,4.06,1.034873627286214,1.0115948643557848,0.7419761279869252,-90.0151077513171,-40.22932427895751,-74.83233783296691,-0.1117,-0.7072,-0.3439,-0.6076
159,732155.0,704.63128,1.0,6.49,6.33,-1.44,-21.19,-38.5,11.69,111.0,-67.94,4.06,1.034873627286214,1.0115948643557848,0.7419761279869252,-90.0151077513171,-40.22932427895751,-74.83233783296691,-0.1117,-0.7072,-0.3439,-0.6076
160,732190.0,704.649529,1.0,7.57,4.62,-1.95,-20.75,-38.06,12.06,41.44,-18.94,-9.75,0.3028575952643947,-0.8655831014955675,0.7727780078033,-91.2372369350846,-41.55011839728967,-72.89699940259716,-0.1027,-0.7147,-0.3547,-0.5941
161,732190.0,704.649529,1.0,7.57,4.62,-1.95,-20.75,-38.06,12.06,41.44,-18.94,-9.75,0.3028575952643947,-0.8655831014955675,0.7727780078033,-91.2372369350846,-41.55011839728967,-72.89699940259716,-0.1027,-0.7147,-0.3547,-0.5941
162,732223.0,704.6899860000001,1.0,7.62,4.89,-3.33,-20.75,-38.06,12.06,12.19,-0.31,25.75,-0.7856842218885288,-0.2571880524395733,0.1950968159845381,-91.51610407003919,-41.62366360590611,-72.66923443071872,-0.0973,-0.7164,-0.3553,-0.5925
163,732223.0,704.6899860000001,1.0,7.62,4.89,-3.33,-20.75,-38.06,12.06,12.19,-0.31,25.75,-0.7856842218885288,-0.2571880524395733,0.1950968159845381,-91.51610407003919,-41.62366360590611,-72.66923443071872,-0.0973,-0.7164,-0.3553,-0.5925
164,732258.0,704.783544,1.0,8.0,6.13,-2.93,-20.75,-35.75,14.5,-8.75,8.06,12.44,0.09867251640800118,0.39543062892988706,-0.6812334066845853,-91.84507796689995,-41.0113310955595,-72.79731116496349,-0.0956,-0.7184,-0.3503,-0.5934
165,732258.0,704.783544,1.0,8.0,6.13,-2.93,-20.75,-35.75,14.5,-8.75,8.06,12.44,0.09867251640800118,0.39543062892988706,-0.6812334066845853,-91.84507796689995,-41.0113310955595,-72.79731116496349,-0.0956,-0.7184,-0.3503,-0.5934
166,732295.0,704.794828,1.0,7.97,6.5,-2.5,-21.06,-35.5,15.25,-15.31,3.38,-10.5,0.5045240800604149,0.5664691976848735,-0.7501235649067226,-91.51610407003919,-40.5589927006499,-73.33924904872958,-0.1006,-0.7164,-0.3466,-0.5972
167,732295.0,704.794828,1.0,7.97,6.5,-2.5,-21.06,-35.5,15.25,-15.31,3.38,-10.5,0.5045240800604149,0.5664691976848735,-0.7501235649067226,-91.51610407003919,-40.5589927006499,-73.33924904872958,-0.1006,-0.7164,-0.3466,-0.5972
168,732329.0,704.79828,1.0,7.61,5.51,-3.14,-21.06,-35.5,15.25,-1.56,-2.94,-12.56,-0.5141025641999991,0.16715566533665482,-0.0847380490570604,-91.28639832349863,-40.742293166188276,-73.36782485981517,-0.1036,-0.715,-0.3481,-0.5974
169,732329.0,704.79828,1.0,7.61,5.51,-3.14,-21.06,-35.5,15.25,-1.56,-2.94,-12.56,-0.5141025641999991,0.16715566533665482,-0.0847380490570604,-91.28639832349863,-40.742293166188276,-73.36782485981517,-0.1036,-0.715,-0.3481,-0.5974
170,732364.0,704.837358,1.0,7.05,5.27,-2.72,-20.37,-37.0,14.5,-2.13,-8.69,-11.5,-0.22989583858919066,0.1451865127525762,0.5979655782210589,-91.43401211484779,-40.815643818297026,-73.05378191708796,-0.1082,-0.7159,-0.3487,-0.5952
171,732364.0,704.837358,1.0,7.05,5.27,-2.72,-20.37,-37.0,14.5,-2.13,-8.69,-11.5,-0.22989583858919066,0.1451865127525762,0.5979655782210589,-91.43401211484779,-40.815643818297026,-73.05378191708796,-0.1082,-0.7159,-0.3487,-0.5952
172,732399.0,704.894489,1.0,7.47,4.94,-2.08,-21.5,-36.5,14.06,-2.5,13.44,1.25,0.2453440396353092,-0.5350737556013021,0.6314441506317063,-91.40119221425032,-40.73006975326216,-73.11083313213125,-0.1096,-0.7157,-0.348,-0.5956
173,732399.0,704.894489,1.0,7.47,4.94,-2.08,-21.5,-36.5,14.06,-2.5,13.44,1.25,0.2453440396353092,-0.5350737556013021,0.6314441506317063,-91.40119221425032,-40.73006975326216,-73.11083313213125,-0.1096,-0.7157,-0.348,-0.5956
174,732436.0,704.910701,1.0,7.68,5.5,-2.93,-20.75,-36.06,13.25,-28.44,43.25,8.19,-0.5708679339284133,0.07371272638144344,-0.0668486826343262,-90.38849700989724,-39.99754361581977,-74.61607730658687,-0.1108,-0.7095,-0.342,-0.6061
175,732436.0,704.910701,1.0,7.68,5.5,-2.93,-20.75,-36.06,13.25,-28.44,43.25,8.19,-0.5708679339284133,0.07371272638144344,-0.0668486826343262,-90.38849700989724,-39.99754361581977,-74.61607730658687,-0.1108,-0.7095,-0.342,-0.6061
176,732469.0,704.951324,1.0,8.22,6.02,-2.8,-20.75,-36.06,13.25,-17.94,28.69,14.13,-0.4923846895399542,0.2531501603427406,-0.7452347754240165,-89.40085398971644,-39.25455153393627,-76.1656564719778,-0.1094,-0.7034,-0.3359,-0.6168
177,732469.0,704.951324,1.0,8.22,6.02,-2.8,-20.75,-36.06,13.25,-17.94,28.69,14.13,-0.4923846895399542,0.2531501603427406,-0.7452347754240165,-89.40085398971644,-39.25455153393627,-76.1656564719778,-0.1094,-0.7034,-0.3359,-0.6168
178,732508.0,705.0043,1.0,8.45,6.62,-2.41,-21.06,-36.5,13.25,-14.13,28.0,2.81,-0.0614051629161621,0.5512738828213233,-1.1809487600606516,-88.91820974498009,-38.719689385129655,-76.98321557761712,-0.1097,-0.7004,-0.3315,-0.6224
179,732508.0,705.0043,1.0,8.45,6.62,-2.41,-21.06,-36.5,13.25,-14.13,28.0,2.81,-0.0614051629161621,0.5512738828213233,-1.1809487600606516,-88.91820974498009,-38.719689385129655,-76.98321557761712,-0.1097,-0.7004,-0.3315,-0.6224
180,732542.0,705.026977,1.0,8.82,6.07,-2.17,-21.87,-36.06,12.06,-1.81,22.0,-6.31,-0.1864028200506334,-0.12978558223452685,-1.1155571803880928,-87.95884845875601,-38.85332219688672,-77.89381687679162,-0.1095,-0.6944,-0.3326,-0.6286
181,732542.0,705.026977,1.0,8.82,6.07,-2.17,-21.87,-36.06,12.06,-1.81,22.0,-6.31,-0.1864028200506334,-0.12978558223452685,-1.1155571803880928,-87.95884845875601,-38.85332219688672,-77.89381687679162,-0.1095,-0.6944,-0.3326,-0.6286
182,732577.0,705.084787,1.0,8.19,6.14,-3.0,-21.87,-36.06,12.06,-6.25,10.81,-8.75,-1.043424339199364,0.5059803472263544,-0.7966961481075412,-87.37109100921478,-38.999166163078655,-78.38088122929612,-0.1107,-0.6907,-0.3338,-0.6319
183,732577.0,705.084787,1.0,8.19,6.14,-3.0,-21.87,-36.06,12.06,-6.25,10.81,-8.75,-1.043424339199364,0.5059803472263544,-0.7966961481075412,-87.37109100921478,-38.999166163078655,-78.38088122929612,-0.1107,-0.6907,-0.3338,-0.6319
184,732610.0,705.1092530000001,1.0,7.21,5.99,-1.88,-21.5,-36.06,10.5,-1.63,-10.88,-15.88,-0.013342743220080222,0.5840317018955559,0.26425360588681457,-87.46620685664602,-39.10859227464813,-78.07073688001653,-0.1163,-0.6913,-0.3347,-0.6298
185,732610.0,705.1092530000001,1.0,7.21,5.99,-1.88,-21.5,-36.06,10.5,-1.63,-10.88,-15.88,-0.013342743220080222,0.5840317018955559,0.26425360588681457,-87.46620685664602,-39.10859227464813,-78.07073688001653,-0.1163,-0.6913,-0.3347,-0.6298
186,732647.0,705.134683,1.0,7.17,5.61,-1.05,-21.5,-36.88,11.69,10.38,3.25,-13.06,0.6745265188978227,0.03625191979907028,0.6673283745392542,-87.38693841130173,-39.58320288872564,-77.80543964009445,-0.1172,-0.6908,-0.3386,-0.628
187,732647.0,705.134683,1.0,7.17,5.61,-1.05,-21.5,-36.88,11.69,10.38,3.25,-13.06,0.6745265188978227,0.03625191979907028,0.6673283745392542,-87.38693841130173,-39.58320288872564,-77.80543964009445,-0.1172,-0.6908,-0.3386,-0.628
188,732684.0,705.152009,1.0,6.94,5.5,-1.4,-21.5,-36.88,11.69,11.69,24.25,-4.13,0.2544174064525529,0.18278755533782265,0.8469926129729952,-86.64435486876549,-40.18051411535947,-78.27742390598648,-0.1136,-0.6861,-0.3435,-0.6312
189,732684.0,705.152009,1.0,6.94,5.5,-1.4,-21.5,-36.88,11.69,11.69,24.25,-4.13,0.2544174064525529,0.18278755533782265,0.8469926129729952,-86.64435486876549,-40.18051411535947,-78.27742390598648,-0.1136,-0.6861,-0.3435,-0.6312
190,732717.0,705.195085,1.0,7.67,5.71,-0.61,-20.37,-37.19,12.06,-2.06,48.0,6.25,0.9057108695496092,-0.2640296001339344,0.2717102418770985,-85.65603262918377,-40.302553807332,-79.31545721761533,-0.1091,-0.6798,-0.3445,-0.6382
191,732717.0,705.195085,1.0,7.67,5.71,-0.61,-20.37,-37.19,12.06,-2.06,48.0,6.25,0.9057108695496092,-0.2640296001339344,0.2717102418770985,-85.65603262918377,-40.302553807332,-79.31545721761533,-0.1091,-0.6798,-0.3445,-0.6382
192,732753.0,705.211304,1.0,8.44,6.11,-1.58,-20.75,-37.19,12.06,-3.75,83.44,4.31,-0.307796598562693,0.06082232328282532,-0.7272790817293675,-83.1806607941667,-40.48570286910027,-81.93032160430613,-0.0992,-0.6638,-0.34600000000000003,-0.6556
193,732753.0,705.211304,1.0,8.44,6.11,-1.58,-20.75,-37.19,12.06,-3.75,83.44,4.31,-0.307796598562693,0.06082232328282532,-0.7272790817293675,-83.1806607941667,-40.48570286910027,-81.93032160430613,-0.0992,-0.6638,-0.34600000000000003,-0.6556
194,732788.0,705.2466919999999,1.0,8.83,6.07,-3.38,-22.56,-38.0,10.5,6.38,28.44,4.75,-2.24492644929412,0.5221002268531527,-1.1899820566971613,-81.93032160430613,-40.595644110417574,-83.22663368427064,-0.0941,-0.6556,-0.3469,-0.6641
195,732788.0,705.2466919999999,1.0,8.83,6.07,-3.38,-22.56,-38.0,10.5,6.38,28.44,4.75,-2.24492644929412,0.5221002268531527,-1.1899820566971613,-81.93032160430613,-40.595644110417574,-83.22663368427064,-0.0941,-0.6556,-0.3469,-0.6641
196,732823.0,705.32239,1.0,7.51,5.99,-0.83,-22.56,-38.0,10.5,-4.69,-20.62,-11.63,0.30532073396341325,0.29709952299637843,0.17401738358368668,-82.18855815257656,-40.68118093937297,-82.82874378341789,-0.098,-0.6573,-0.3476,-0.6615
197,732823.0,705.32239,1.0,7.51,5.99,-0.83,-22.56,-38.0,10.5,-4.69,-20.62,-11.63,0.30532073396341325,0.29709952299637843,0.17401738358368668,-82.18855815257656,-40.68118093937297,-82.82874378341789,-0.098,-0.6573,-0.3476,-0.6615
198,732858.0,705.36377,1.0,7.32,5.58,-0.83,-22.56,-37.56,8.5,4.25,0.12,-5.5,0.2175283104078357,0.06241398616596605,0.567792606983156,-82.41683612578922,-40.68118093937297,-82.52350218370225,-0.1008,-0.6588,-0.3476,-0.6595
199,732858.0,705.36377,1.0,7.32,5.58,-0.83,-22.56,-37.56,8.5,4.25,0.12,-5.5,0.2175283104078357,0.06241398616596605,0.567792606983156,-82.41683612578922,-40.68118093937297,-82.52350218370225,-0.1008,-0.6588,-0.3476,-0.6595
200,732895.0,705.370745,1.0,7.75,6.05,-1.02,-22.25,-37.19,9.69,-8.88,18.87,-3.94,0.042727809302528334,0.2222504265886931,-0.07536290639682086,-81.83929990977303,-40.69340241756593,-83.073454311338,-0.1016,-0.655,-0.3477,-0.6631
201,732895.0,705.370745,1.0,7.75,6.05,-1.02,-22.25,-37.19,9.69,-8.88,18.87,-3.94,0.042727809302528334,0.2222504265886931,-0.07536290639682086,-81.83929990977303,-40.69340241756593,-83.073454311338,-0.1016,-0.655,-0.3477,-0.6631
202,732930.0,705.425145,1.0,7.43,6.98,-0.74,-22.25,-37.19,9.69,-3.94,9.5,-0.56,0.5820080448602325,1.0291233578067756,-0.3459394110879153,-81.4607148625289,-40.68118093937297,-83.48745702732505,-0.1008,-0.6525,-0.3476,-0.6658
203,732930.0,705.425145,1.0,7.43,6.98,-0.74,-22.25,-37.19,9.69,-3.94,9.5,-0.56,0.5820080448602325,1.0291233578067756,-0.3459394110879153,-81.4607148625289,-40.68118093937297,-83.48745702732505,-0.1008,-0.6525,-0.3476,-0.6658
204,732962.0,705.432153,1.0,7.2,5.31,-0.35,-22.25,-37.19,8.88,30.5,10.38,-8.06,0.4715826543175955,-0.2397101575431981,0.8691588061292368,-81.2189848647937,-41.43983413767325,-83.31862865554434,-0.0967,-0.6509,-0.3538,-0.6647
205,732962.0,705.432153,1.0,7.2,5.31,-0.35,-22.25,-37.19,8.88,30.5,10.38,-8.06,0.4715826543175955,-0.2397101575431981,0.8691588061292368,-81.2189848647937,-41.43983413767325,-83.31862865554434,-0.0967,-0.6509,-0.3538,-0.6647
206,732999.0,705.452487,1.0,7.71,5.76,-1.03,-22.25,-38.38,10.5,1.31,32.25,4.25,-0.16433948171099771,0.08755988091694444,0.1294641589610439,-80.4963997494357,-41.62366360590611,-84.01070082113738,-0.0919,-0.6461,-0.3553,-0.6692
207,732999.0,705.452487,1.0,7.71,5.76,-1.03,-22.25,-38.38,10.5,1.31,32.25,4.25,-0.16433948171099771,0.08755988091694444,0.1294641589610439,-80.4963997494357,-41.62366360590611,-84.01070082113738,-0.0919,-0.6461,-0.3553,-0.6692
208,733034.0,705.493003,1.0,8.2,6.56,-1.25,-23.75,-38.0,9.25,3.06,30.37,1.5,-0.3272190824049704,0.5617917381031359,-0.7486054547537629,-79.52399794108469,-41.57463147554045,-85.07925976340502,-0.0883,-0.6396,-0.3549,-0.6761
209,733034.0,705.493003,1.0,8.2,6.56,-1.25,-23.75,-38.0,9.25,3.06,30.37,1.5,-0.3272190824049704,0.5617917381031359,-0.7486054547537629,-79.52399794108469,-41.57463147554045,-85.07925976340502,-0.0883,-0.6396,-0.3549,-0.6761
210,733069.0,705.54925,1.0,8.52,5.8,-1.78,-23.75,-38.0,9.25,10.63,13.69,1.0,-1.1552548477454696,0.052815487062511934,-0.5886083787555272,-79.06265131180031,-41.9548397514564,-85.35951757320912,-0.0839,-0.6365,-0.358,-0.6779
211,733069.0,705.54925,1.0,8.52,5.8,-1.78,-23.75,-38.0,9.25,10.63,13.69,1.0,-1.1552548477454696,0.052815487062511934,-0.5886083787555272,-79.06265131180031,-41.9548397514564,-85.35951757320912,-0.0839,-0.6365,-0.358,-0.6779
212,733106.0,705.6069980000001,1.0,7.93,6.07,-1.05,-23.37,-37.19,9.25,10.81,-5.81,-0.94,-0.2457758653504657,0.2995783890890906,-0.22739938261726775,-79.16669200758267,-42.138984987118995,-85.15704595460248,-0.0825,-0.6372,-0.3595,-0.6766
213,733106.0,705.6069980000001,1.0,7.93,6.07,-1.05,-23.37,-37.19,9.25,10.81,-5.81,-0.94,-0.2457758653504657,0.2995783890890906,-0.22739938261726775,-79.16669200758267,-42.138984987118995,-85.15704595460248,-0.0825,-0.6372,-0.3595,-0.6766
214,733140.0,705.6225360000001,1.0,7.39,5.5,-0.48,-24.06,-36.88,10.5,5.38,4.56,0.19,0.191914581914019,-0.035489851362953566,0.5841552581365477,-79.06265131180031,-42.47073434166396,-85.0948131238888,-0.0801,-0.6365,-0.3622,-0.6762
215,733140.0,705.6225360000001,1.0,7.39,5.5,-0.48,-24.06,-36.88,10.5,5.38,4.56,0.19,0.191914581914019,-0.035489851362953566,0.5841552581365477,-79.06265131180031,-42.47073434166396,-85.0948131238888,-0.0801,-0.6365,-0.3622,-0.6762
216,733173.0,705.6770809999999,1.0,7.46,5.7,-0.7,-24.06,-36.88,10.5,1.0,13.13,3.38,0.00916756400124158,0.19779109611111997,0.3942967003161488,-78.73617218118244,-42.47073434166396,-85.46867747110112,-0.0776,-0.6343,-0.3622,-0.6786
217,733173.0,705.6770809999999,1.0,7.46,5.7,-0.7,-24.06,-36.88,10.5,1.0,13.13,3.38,0.00916756400124158,0.19779109611111997,0.3942967003161488,-78.73617218118244,-42.47073434166396,-85.46867747110112,-0.0776,-0.6343,-0.3622,-0.6786
218,733210.0,705.7197259999999,1.0,7.58,5.44,-1.07,-23.37,-36.88,10.88,8.63,21.31,5.31,-0.48592608845378205,0.14034619188872502,0.4290661543080603,-78.20357233698766,-42.70441132531611,-85.90628216751116,-0.0727,-0.6307,-0.3641,-0.6814
219,733210.0,705.7197259999999,1.0,7.58,5.44,-1.07,-23.37,-36.88,10.88,8.63,21.31,5.31,-0.48592608845378205,0.14034619188872502,0.4290661543080603,-78.20357233698766,-42.70441132531611,-85.90628216751116,-0.0727,-0.6307,-0.3641,-0.6814
220,733247.0,705.738465,1.0,7.65,5.52,-0.78,-23.25,-36.5,9.25,-0.31,22.69,12.13,-0.26397704690167395,0.13877842042787147,0.34555298809209845,-77.70240232798936,-42.60599837478333,-86.54988402192322,-0.0676,-0.6273,-0.3633,-0.6855
221,733247.0,705.738465,1.0,7.65,5.52,-0.78,-23.25,-36.5,9.25,-0.31,22.69,12.13,-0.26397704690167395,0.13877842042787147,0.34555298809209845,-77.70240232798936,-42.60599837478333,-86.54988402192322,-0.0676,-0.6273,-0.3633,-0.6855
222,733280.0,705.741887,1.0,7.89,6.0,-0.59,-23.25,-36.5,9.25,4.31,30.94,14.75,-0.02749237153779313,0.3920557500167989,-0.11533248629708125,-77.18832949283414,-42.43385492531204,-87.24438704610047,-0.0621,-0.6238,-0.3619,-0.6899
223,733280.0,705.741887,1.0,7.89,6.0,-0.59,-23.25,-36.5,9.25,4.31,30.94,14.75,-0.02749237153779313,0.3920557500167989,-0.11533248629708125,-77.18832949283414,-42.43385492531204,-87.24438704610047,-0.0621,-0.6238,-0.3619,-0.6899
224,733315.0,705.781793,1.0,8.31,6.04,-1.1,-24.5,-36.5,8.88,3.5,38.88,9.5,-0.7016789512594606,0.5771575673800271,-0.4852028842854814,-76.12198798415724,-42.34782086095775,-88.45354239097509,-0.0544,-0.6165,-0.3612,-0.6975
225,733315.0,705.781793,1.0,8.31,6.04,-1.1,-24.5,-36.5,8.88,3.5,38.88,9.5,-0.7016789512594606,0.5771575673800271,-0.4852028842854814,-76.12198798415724,-42.34782086095775,-88.45354239097509,-0.0544,-0.6165,-0.3612,-0.6975
226,733349.0,705.839426,1.0,8.44,6.27,-1.4,-24.87,-35.69,9.69,0.44,18.37,0.5,-1.00598607141516,0.8827836030246816,-0.7154783557248763,-75.41056702241764,-42.43385492531204,-89.12710972399763,-0.0507,-0.6116,-0.3619,-0.7017
227,733349.0,705.839426,1.0,8.44,6.27,-1.4,-24.87,-35.69,9.69,0.44,18.37,0.5,-1.00598607141516,0.8827836030246816,-0.7154783557248763,-75.41056702241764,-42.43385492531204,-89.12710972399763,-0.0507,-0.6116,-0.3619,-0.7017
228,733384.0,705.8585059999999,1.0,8.11,6.01,-0.53,-25.87,-35.69,8.06,11.5,-1.88,-0.94,-0.21719450801437135,0.46115740847828096,-0.2885597744570898,-75.36712180089249,-42.71671526594671,-88.99851159744894,-0.0487,-0.6113,-0.3642,-0.7009
229,733384.0,705.8585059999999,1.0,8.11,6.01,-0.53,-25.87,-35.69,8.06,11.5,-1.88,-0.94,-0.21719450801437135,0.46115740847828096,-0.2885597744570898,-75.36712180089249,-42.71671526594671,-88.99851159744894,-0.0487,-0.6113,-0.3642,-0.7009
230,733419.0,705.89554,1.0,8.12,6.08,-0.21,-25.87,-35.69,8.06,3.31,3.13,-4.88,0.09258748707075404,0.3424497648896567,-0.3333231614913519,-75.29474135486807,-42.889024777076095,-88.95032385550869,-0.0485,-0.6108,-0.3656,-0.7006
231,733419.0,705.89554,1.0,8.12,6.08,-0.21,-25.87,-35.69,8.06,3.31,3.13,-4.88,0.09258748707075404,0.3424497648896567,-0.3333231614913519,-75.29474135486807,-42.889024777076095,-88.95032385550869,-0.0485,-0.6108,-0.3656,-0.7006
232,733456.0,705.95232,1.0,8.05,5.76,0.04,-25.5,-36.19,9.38,13.63,2.06,-9.69,0.21375614850305616,-0.02742972119719456,-0.08957432644754881,-75.04891103546538,-43.480576858025245,-88.80587982352934,-0.0471,-0.6091,-0.3704,-0.6997
233,733456.0,705.95232,1.0,8.05,5.76,0.04,-25.5,-36.19,9.38,13.63,2.06,-9.69,0.21375614850305616,-0.02742972119719456,-0.08957432644754881,-75.04891103546538,-43.480576858025245,-88.80587982352934,-0.0471,-0.6091,-0.3704,-0.6997
234,733491.0,705.9836190000001,1.0,7.8,5.45,0.51,-25.19,-36.19,8.56,3.88,5.63,-7.06,0.560592883563641,-0.3772259332564243,0.3015968063468151,-74.84676629523163,-43.81385964623059,-88.77380536718846,-0.0469,-0.6077,-0.3731,-0.6995
235,733491.0,705.9836190000001,1.0,7.8,5.45,0.51,-25.19,-36.19,8.56,3.88,5.63,-7.06,0.560592883563641,-0.3772259332564243,0.3015968063468151,-74.84676629523163,-43.81385964623059,-88.77380536718846,-0.0469,-0.6077,-0.3731,-0.6995
236,733523.0,706.017035,1.0,8.0,5.2,-0.19,-25.19,-36.19,8.56,10.81,17.62,-7.94,-0.2762438397049275,-0.3524365454643408,0.27378171063156564,-74.21322028612755,-44.27121519182589,-89.07886878573439,-0.0452,-0.6033,-0.3768,-0.7014
237,733523.0,706.017035,1.0,8.0,5.2,-0.19,-25.19,-36.19,8.56,10.81,17.62,-7.94,-0.2762438397049275,-0.3524365454643408,0.27378171063156564,-74.21322028612755,-44.27121519182589,-89.07886878573439,-0.0452,-0.6033,-0.3768,-0.7014
238,733560.0,706.0345580000001,1.0,7.74,5.04,-0.23,-25.19,-35.06,9.38,3.0,17.31,-8.63,-0.3670409793992467,-0.3236945275832319,0.580458869731002,-73.61093410103018,-44.70453316546126,-89.38473348979856,-0.0433,-0.5991,-0.3803,-0.7033
239,733560.0,706.0345580000001,1.0,7.74,5.04,-0.23,-25.19,-35.06,9.38,3.0,17.31,-8.63,-0.3670409793992467,-0.3236945275832319,0.580458869731002,-73.61093410103018,-44.70453316546126,-89.38473348979856,-0.0433,-0.5991,-0.3803,-0.7033
