,TIME,ELAPSED_SECONDS,PSTATE,acc_x,acc_y,acc_z,mag_x,mag_y,mag_z,gyr_x,gyr_y,gyr_z,lin_x,lin_y,lin_z,eul_x,eul_y,eul_z,qua_w,qua_x,qua_y,qua_z
0,1926676.0,1904.4783129999998,1.0,7.4,5.12,3.86,-21.5,-23.06,-25.06,2.25,1.25,1.63,0.008687380002514122,-0.27297890732296004,0.018932848100611462,-64.11904710633912,11.800859775906506,-70.59190932634084,-0.6114,-0.5308,0.1028,-0.5778
1,1926676.0,1904.4783129999998,1.0,7.4,5.12,3.86,-21.5,-23.06,-25.06,2.25,1.25,1.63,0.008687380002514122,-0.27297890732296004,0.018932848100611462,-64.11904710633912,11.800859775906506,-70.59190932634084,-0.6114,-0.5308,0.1028,-0.5778
2,1926713.0,1904.48701,1.0,7.21,5.16,3.98,-21.5,-23.06,-26.0,0.56,-0.5,0.5,-0.0272275053123614,-0.05277399749115297,0.08828730003128094,-64.13256877996223,11.823900394126868,-70.60594994922624,-0.6112,-0.5309,0.10300000000000001,-0.5779
3,1926713.0,1904.48701,1.0,7.21,5.16,3.98,-21.5,-23.06,-26.0,0.56,-0.5,0.5,-0.0272275053123614,-0.05277399749115297,0.08828730003128094,-64.13256877996223,11.823900394126868,-70.60594994922624,-0.6112,-0.5309,0.10300000000000001,-0.5779
4,1926748.0,1904.50648,1.0,7.18,5.07,4.21,-21.87,-23.87,-26.75,0.56,0.37,2.0,0.14542244245287486,0.1233309547473378,0.06267535980146732,-64.13256877996223,11.823900394126868,-70.64807912994407,-0.6109,-0.5309,0.10300000000000001,-0.5782
5,1926748.0,1904.50648,1.0,7.18,5.07,4.21,-21.87,-23.87,-26.75,0.56,0.37,2.0,0.14542244245287486,0.1233309547473378,0.06267535980146732,-64.13256877996223,11.823900394126868,-70.64807912994407,-0.6109,-0.5309,0.10300000000000001,-0.5782
6,1926780.0,1904.558101,1.0,7.13,5.24,4.06,-21.87,-23.87,-26.75,-2.44,-1.06,2.0,-0.0959968618277658,0.08242615926931496,0.07206780399449819,-64.0920067563967,11.904546342091734,-70.67617134909206,-0.6108,-0.5306,0.1037,-0.5784
7,1926780.0,1904.558101,1.0,7.13,5.24,4.06,-21.87,-23.87,-26.75,-2.44,-1.06,2.0,-0.0959968618277658,0.08242615926931496,0.07206780399449819,-64.0920067563967,11.904546342091734,-70.67617134909206,-0.6108,-0.5306,0.1037,-0.5784
8,1926815.0,1904.575669,1.0,7.23,5.3,3.9,-21.06,-23.5,-26.37,0.5,-0.44,1.94,-0.19905754314229265,-0.08106692531135007,0.032873644458671684,-64.0920067563967,11.950632395319571,-70.70426845211381,-0.6107,-0.5306,0.1041,-0.5786
9,1926815.0,1904.575669,1.0,7.23,5.3,3.9,-21.06,-23.5,-26.37,0.5,-0.44,1.94,-0.19905754314229265,-0.08106692531135007,0.032873644458671684,-64.0920067563967,11.950632395319571,-70.70426845211381,-0.6107,-0.5306,0.1041,-0.5786
10,1926852.0,1904.6340530000002,1.0,7.17,5.2,4.08,-21.56,-23.06,-26.37,1.63,-0.5,1.37,-0.04930097046171167,0.08004374223804378,0.0554212357036743,-64.13256877996223,11.950632395319571,-70.74642327318205,-0.61,-0.5309,0.1041,-0.5789
11,1926852.0,1904.6340530000002,1.0,7.17,5.2,4.08,-21.56,-23.06,-26.37,1.63,-0.5,1.37,-0.04930097046171167,0.08004374223804378,0.0554212357036743,-64.13256877996223,11.950632395319571,-70.74642327318205,-0.61,-0.5309,0.1041,-0.5789
12,1926887.0,1904.651955,1.0,7.2,5.26,4.04,-21.56,-23.06,-26.37,0.12,1.75,1.19,-0.11181634312811316,0.043645598458800006,0.01814693941179613,-64.11904710633912,11.939110700430106,-70.78858910682754,-0.6099,-0.5308,0.10400000000000001,-0.5792
13,1926887.0,1904.651955,1.0,7.2,5.26,4.04,-21.56,-23.06,-26.37,0.12,1.75,1.19,-0.11181634312811316,0.043645598458800006,0.01814693941179613,-64.11904710633912,11.939110700430106,-70.78858910682754,-0.6099,-0.5308,0.10400000000000001,-0.5792
14,1926920.0,1904.7032800000002,1.0,7.34,5.15,3.92,-21.19,-23.5,-26.0,1.25,1.88,1.19,-0.04423715799755945,-0.16410441807965534,0.022192283099229826,-64.07848807925822,11.89302513102135,-70.8870189593387,-0.6096,-0.5305,0.1036,-0.5799
15,1926920.0,1904.7032800000002,1.0,7.34,5.15,3.92,-21.19,-23.5,-26.0,1.25,1.88,1.19,-0.04423715799755945,-0.16410441807965534,0.022192283099229826,-64.07848807925822,11.89302513102135,-70.8870189593387,-0.6096,-0.5305,0.1036,-0.5799
16,1926955.0,1904.721062,1.0,7.33,5.13,3.97,-22.0,-22.69,-26.0,-3.56,10.06,0.25,-0.02182328835798131,-0.15287698606637254,0.01977857082425416,-63.9028359466197,11.812380025110386,-71.01366013662432,-0.6099,-0.5292,0.1029,-0.5808
17,1926955.0,1904.721062,1.0,7.33,5.13,3.97,-22.0,-22.69,-26.0,-3.56,10.06,0.25,-0.02182328835798131,-0.15287698606637254,0.01977857082425416,-63.9028359466197,11.812380025110386,-71.01366013662432,-0.6099,-0.5292,0.1029,-0.5808
18,1926991.0,1904.7704379999998,1.0,6.77,5.35,4.75,-21.56,-23.5,-26.0,-7.88,25.31,1.69,-0.0551181722035981,0.6831308413742998,-0.0192440682594448,-63.04051613304179,11.420757981123572,-71.56359842931408,-0.6123,-0.5228,0.0995,-0.5847
19,1926991.0,1904.7704379999998,1.0,6.77,5.35,4.75,-21.56,-23.5,-26.0,-7.88,25.31,1.69,-0.0551181722035981,0.6831308413742998,-0.0192440682594448,-63.04051613304179,11.420757981123572,-71.56359842931408,-0.6123,-0.5228,0.0995,-0.5847
20,1927026.0,1904.787344,1.0,7.19,5.64,4.03,-21.56,-23.5,-26.0,-29.56,111.31,-18.19,-0.6598130311916157,-0.4583084329727085,-0.14830857068907122,-60.861952842422134,10.200656128703407,-72.78307520859934,-0.6193,-0.5065,0.0889,-0.5933
21,1927026.0,1904.787344,1.0,7.19,5.64,4.03,-21.56,-23.5,-26.0,-29.56,111.31,-18.19,-0.6598130311916157,-0.4583084329727085,-0.14830857068907122,-60.861952842422134,10.200656128703407,-72.78307520859934,-0.6193,-0.5065,0.0889,-0.5933
22,1927063.0,1904.83492,1.0,8.6,5.84,4.74,-21.19,-23.5,-27.56,-41.5,172.19,-36.13,-0.40649062190158,-2.0246281126831285,-1.4302911487129908,-55.56287082864312,6.48935022815341,-75.59897705351443,-0.6356,-0.4661,0.0566,-0.6129
23,1927063.0,1904.83492,1.0,8.6,5.84,4.74,-21.19,-23.5,-27.56,-41.5,172.19,-36.13,-0.40649062190158,-2.0246281126831285,-1.4302911487129908,-55.56287082864312,6.48935022815341,-75.59897705351443,-0.6356,-0.4661,0.0566,-0.6129
24,1927098.0,1904.8513269999999,1.0,7.09,5.63,6.22,-17.5,-22.69,-30.87,-50.5,144.94,-49.63,-0.022069679205001136,-0.8616380718070693,-1.1437149602409329,-51.736087563875465,3.908329853329541,-76.86613864248247,-0.6497,-0.4363,0.0341,-0.6216
25,1927098.0,1904.8513269999999,1.0,7.09,5.63,6.22,-17.5,-22.69,-30.87,-50.5,144.94,-49.63,-0.022069679205001136,-0.8616380718070693,-1.1437149602409329,-51.736087563875465,3.908329853329541,-76.86613864248247,-0.6497,-0.4363,0.0341,-0.6216
26,1927133.0,1904.8964670000003,1.0,8.45,10.05,6.18,-17.5,-22.69,-30.87,-58.81,104.37,-84.75,-3.642949359698018,-2.7744078904180074,-3.9639338954004426,-46.66919183707166,0.9740399810272836,-77.05643698119782,-0.6746,-0.3961,0.0085,-0.6229
27,1927133.0,1904.8964670000003,1.0,8.45,10.05,6.18,-17.5,-22.69,-30.87,-58.81,104.37,-84.75,-3.642949359698018,-2.7744078904180074,-3.9639338954004426,-46.66919183707166,0.9740399810272836,-77.05643698119782,-0.6746,-0.3961,0.0085,-0.6229
28,1927168.0,1904.914107,1.0,8.67,12.07,6.39,-10.25,-21.56,-33.88,16.44,18.5,-114.69,-4.497075764886657,-3.684490330128329,-5.28926801024568,-45.7970207204561,-1.5126525087430307,-73.9117794904022,-0.6978,-0.3891,-0.0132,-0.6012
29,1927168.0,1904.914107,1.0,8.67,12.07,6.39,-10.25,-21.56,-33.88,16.44,18.5,-114.69,-4.497075764886657,-3.684490330128329,-5.28926801024568,-45.7970207204561,-1.5126525087430307,-73.9117794904022,-0.6978,-0.3891,-0.0132,-0.6012
30,1927204.0,1904.956298,1.0,9.45,13.53,5.92,-5.75,-21.56,-36.0,82.31,-82.87,-202.06,-4.182667301781042,-5.0022817187000665,-6.468861415908593,-48.296621479022534,-3.6790210459755386,-68.80458261894461,-0.7158,-0.4091,-0.0321,-0.565
31,1927204.0,1904.956298,1.0,9.45,13.53,5.92,-5.75,-21.56,-36.0,82.31,-82.87,-202.06,-4.182667301781042,-5.0022817187000665,-6.468861415908593,-48.296621479022534,-3.6790210459755386,-68.80458261894461,-0.7158,-0.4091,-0.0321,-0.565
32,1927241.0,1905.0264920000002,1.0,6.56,13.33,7.13,-4.69,-25.37,-34.38,140.69,-252.19,-252.31,-1.593452443727288,-1.3644177095334131,-6.538339251250397,-57.03145830719132,-4.183521171347446,-56.04262977353804,-0.7416,-0.4774,-0.0365,-0.4698
33,1927241.0,1905.0264920000002,1.0,6.56,13.33,7.13,-4.69,-25.37,-34.38,140.69,-252.19,-252.31,-1.593452443727288,-1.3644177095334131,-6.538339251250397,-57.03145830719132,-4.183521171347446,-56.04262977353804,-0.7416,-0.4774,-0.0365,-0.4698
34,1927276.0,1905.044911,1.0,1.7,12.12,7.2,-4.69,-25.37,-34.38,137.38,-298.06,-264.06,-2.1174737506068397,3.1666977062773025,-3.8722655473871175,-65.59888072386629,-2.87655022805785,-44.469220271844826,-0.7502,-0.5417,-0.0251,-0.3784
35,1927276.0,1905.044911,1.0,1.7,12.12,7.2,-4.69,-25.37,-34.38,137.38,-298.06,-264.06,-2.1174737506068397,3.1666977062773025,-3.8722655473871175,-65.59888072386629,-2.87655022805785,-44.469220271844826,-0.7502,-0.5417,-0.0251,-0.3784
36,1927313.0,1905.048304,1.0,1.31,14.88,6.65,-6.69,-29.56,-27.25,66.25,-100.25,-312.06,-1.6219751936307576,2.2870905602759324,-6.302087170875412,-70.40949185665009,-5.823757869537403,-31.43565821002521,-0.7692,-0.5765,-0.0508,-0.2709
37,1927313.0,1905.048304,1.0,1.31,14.88,6.65,-6.69,-29.56,-27.25,66.25,-100.25,-312.06,-1.6219751936307576,2.2870905602759324,-6.302087170875412,-70.40949185665009,-5.823757869537403,-31.43565821002521,-0.7692,-0.5765,-0.0508,-0.2709
38,1927350.0,1905.0992809999998,1.0,-0.9,14.24,7.89,-2.56,-32.88,-23.56,104.69,-92.56,-290.63,-0.27666785749530104,4.32400060784357,-5.9116887684576085,-73.85442987393886,-10.67243717618693,-19.889680039418103,-0.775,-0.6008,-0.09300000000000001,-0.1727
39,1927350.0,1905.0992809999998,1.0,-0.9,14.24,7.89,-2.56,-32.88,-23.56,104.69,-92.56,-290.63,-0.27666785749530104,4.32400060784357,-5.9116887684576085,-73.85442987393886,-10.67243717618693,-19.889680039418103,-0.775,-0.6008,-0.09300000000000001,-0.1727
40,1927385.0,1905.150503,1.0,-1.93,14.09,8.91,-2.56,-32.88,-23.56,119.94,-58.38,-276.94,0.9740079662015424,5.84122663885988,-5.895976526643548,-76.36961551362315,-14.511670666824136,-12.204140573704526,-0.7685,-0.6182,-0.1263,-0.1063
41,1927385.0,1905.150503,1.0,-1.93,14.09,8.91,-2.56,-32.88,-23.56,119.94,-58.38,-276.94,0.9740079662015424,5.84122663885988,-5.895976526643548,-76.36961551362315,-14.511670666824136,-12.204140573704526,-0.7685,-0.6182,-0.1263,-0.1063
42,1927419.0,1905.1678510000002,1.0,-2.26,11.8,8.89,4.06,-35.19,-20.19,126.56,9.88,-260.94,2.9233177366224474,6.78915606187429,-3.183395164596781,-79.07750949309555,-21.24064723466595,-3.5299782811888885,-0.7482,-0.6366,-0.1843,-0.0308
43,1927419.0,1905.1678510000002,1.0,-2.26,11.8,8.89,4.06,-35.19,-20.19,126.56,9.88,-260.94,2.9233177366224474,6.78915606187429,-3.183395164596781,-79.07750949309555,-21.24064723466595,-3.5299782811888885,-0.7482,-0.6366,-0.1843,-0.0308
44,1927454.0,1905.204576,1.0,-1.37,10.91,8.4,11.56,-35.69,-19.0,100.5,123.44,-237.19,5.1411072295335085,6.433292494703243,-1.313006655312396,-80.21144137505003,-27.92656022686475,0.4010712754482724,-0.7258,-0.6442,-0.2413,0.0035
45,1927454.0,1905.204576,1.0,-1.37,10.91,8.4,11.56,-35.69,-19.0,100.5,123.44,-237.19,5.1411072295335085,6.433292494703243,-1.313006655312396,-80.21144137505003,-27.92656022686475,0.4010712754482724,-0.7258,-0.6442,-0.2413,0.0035
46,1927493.0,1905.273041,1.0,0.1,11.96,5.06,20.5,-32.38,-13.69,85.62,136.38,-233.94,7.751092872248122,2.5693306943504157,-0.2915824725098925,-80.16650253253808,-38.149326328386564,4.057388916858228,-0.6909,-0.6439,-0.3268,0.0354
47,1927493.0,1905.273041,1.0,0.1,11.96,5.06,20.5,-32.38,-13.69,85.62,136.38,-233.94,7.751092872248122,2.5693306943504157,-0.2915824725098925,-80.16650253253808,-38.149326328386564,4.057388916858228,-0.6909,-0.6439,-0.3268,0.0354
48,1927528.0,1905.289713,1.0,-1.71,9.32,4.72,20.5,-32.38,-13.69,123.75,98.25,-230.06,6.560799747588674,3.4689826016422165,2.257678786546874,-80.16650253253808,-46.9938686467816,9.188627520029687,-0.6481,-0.6439,-0.3987,0.0801
49,1927528.0,1905.289713,1.0,-1.71,9.32,4.72,20.5,-32.38,-13.69,123.75,98.25,-230.06,6.560799747588674,3.4689826016422165,2.257678786546874,-80.16650253253808,-46.9938686467816,9.188627520029687,-0.6481,-0.6439,-0.3987,0.0801
50,1927565.0,1905.339865,1.0,-0.62,6.37,2.39,29.19,-28.75,-9.88,127.81,168.69,-210.88,5.187172707858169,1.4642703329212368,5.608727693551476,-80.4963997494357,-54.117000476338404,11.950632395319571,-0.604,-0.6461,-0.4549,0.1041
51,1927565.0,1905.339865,1.0,-0.62,6.37,2.39,29.19,-28.75,-9.88,127.81,168.69,-210.88,5.187172707858169,1.4642703329212368,5.608727693551476,-80.4963997494357,-54.117000476338404,11.950632395319571,-0.604,-0.6461,-0.4549,0.1041
52,1927602.0,1905.3804420000001,1.0,1.41,6.86,-2.87,34.75,-24.06,-2.75,103.87,94.87,-210.06,4.991677963506039,-4.1822015017442515,5.9495861286781455,-79.28569137845204,-62.933006816189014,15.158799741488714,-0.5505,-0.638,-0.522,0.1319
53,1927602.0,1905.3804420000001,1.0,1.41,6.86,-2.87,34.75,-24.06,-2.75,103.87,94.87,-210.06,4.991677963506039,-4.1822015017442515,5.9495861286781455,-79.28569137845204,-62.933006816189014,15.158799741488714,-0.5505,-0.638,-0.522,0.1319
54,1927636.0,1905.387725,1.0,-0.66,2.29,-2.58,34.75,-24.06,-2.75,111.25,84.62,-223.69,0.8415933256386009,-2.1500116928115447,7.159902865305378,-77.6288499193909,-68.4993168665412,18.994468937034103,-0.5129,-0.6268,-0.5628,0.165
55,1927636.0,1905.387725,1.0,-0.66,2.29,-2.58,34.75,-24.06,-2.75,111.25,84.62,-223.69,0.8415933256386009,-2.1500116928115447,7.159902865305378,-77.6288499193909,-68.4993168665412,18.994468937034103,-0.5129,-0.6268,-0.5628,0.165
56,1927671.0,1905.4557129999998,1.0,-0.69,-0.15,-3.03,38.88,-17.37,2.5,48.0,38.38,-215.13,-1.3041777311508702,-2.0650636332810217,7.8794414912832185,-73.21072347606676,-75.70052817172606,23.109005518751957,-0.4772,-0.5963,-0.6136,0.2003
57,1927671.0,1905.4557129999998,1.0,-0.69,-0.15,-3.03,38.88,-17.37,2.5,48.0,38.38,-215.13,-1.3041777311508702,-2.0650636332810217,7.8794414912832185,-73.21072347606676,-75.70052817172606,23.109005518751957,-0.4772,-0.5963,-0.6136,0.2003
58,1927706.0,1905.473945,1.0,-1.42,1.55,-3.93,40.0,-10.25,4.06,-8.69,93.5,-153.5,-0.06556360730127109,-2.7250642570784698,6.280529439356758,-69.94734861219692,-80.73683070850339,23.79950985538602,-0.4577,-0.5732,-0.6477,0.2062
59,1927706.0,1905.473945,1.0,-1.42,1.55,-3.93,40.0,-10.25,4.06,-8.69,93.5,-153.5,-0.06556360730127109,-2.7250642570784698,6.280529439356758,-69.94734861219692,-80.73683070850339,23.79950985538602,-0.4577,-0.5732,-0.6477,0.2062
60,1927743.0,1905.525825,1.0,-1.1,-0.91,-6.35,40.38,-3.19,6.25,-3.25,61.94,-139.94,-3.08841886510333,-3.8998820987038685,5.609843055442869,-66.1450243398958,-87.05458100062674,24.38536915234885,-0.4282,-0.5457,-0.6887,0.2112
61,1927743.0,1905.525825,1.0,-1.1,-0.91,-6.35,40.38,-3.19,6.25,-3.25,61.94,-139.94,-3.08841886510333,-3.8998820987038685,5.609843055442869,-66.1450243398958,-87.05458100062674,24.38536915234885,-0.4282,-0.5457,-0.6887,0.2112
62,1927778.0,1905.543397,1.0,-2.37,-1.79,-5.89,40.38,-3.19,6.25,-23.06,-9.38,-92.25,-3.588701312633668,-2.4869748715086635,4.862028793356778,-62.677919076870104,-90.19353290614056,25.547298987438325,-0.423,-0.5201,-0.7083,0.2211
63,1927778.0,1905.543397,1.0,-2.37,-1.79,-5.89,40.38,-3.19,6.25,-23.06,-9.38,-92.25,-3.588701312633668,-2.4869748715086635,4.862028793356778,-62.677919076870104,-90.19353290614056,25.547298987438325,-0.423,-0.5201,-0.7083,0.2211
64,1927815.0,1905.5908149999998,1.0,-5.13,0.37,-5.35,39.75,1.69,9.25,-62.31,-51.31,-41.13,-1.192011426267213,-1.527904513081522,2.6427881533035187,-60.31782031136974,-90.82839290633041,25.88816308640127,-0.436,-0.5024,-0.7122,0.22399999999999998
65,1927815.0,1905.5908149999998,1.0,-5.13,0.37,-5.35,39.75,1.69,9.25,-62.31,-51.31,-41.13,-1.192011426267213,-1.527904513081522,2.6427881533035187,-60.31782031136974,-90.82839290633041,25.88816308640127,-0.436,-0.5024,-0.7122,0.22399999999999998
66,1927852.0,1905.607302,1.0,-5.84,2.31,-6.46,40.5,4.38,7.69,-38.75,-12.5,-44.75,0.10992102455372477,-2.947986310709325,1.2936837672329788,-57.78921694693311,-92.14199055285606,25.735333308776628,-0.4453,-0.4832,-0.7202,0.2227
67,1927852.0,1905.607302,1.0,-5.84,2.31,-6.46,40.5,4.38,7.69,-38.75,-12.5,-44.75,0.10992102455372477,-2.947986310709325,1.2936837672329788,-57.78921694693311,-92.14199055285606,25.735333308776628,-0.4453,-0.4832,-0.7202,0.2227
68,1927884.0,1905.655553,1.0,-7.31,0.89,-5.79,40.5,4.38,7.69,-27.75,-19.44,-47.13,-0.6222556672364677,-1.2144426741238508,0.5389519645729166,-56.068593069762564,-93.18754718833176,25.93519704664329,-0.4484,-0.47,-0.7265,0.2244
69,1927884.0,1905.655553,1.0,-7.31,0.89,-5.79,40.5,4.38,7.69,-27.75,-19.44,-47.13,-0.6222556672364677,-1.2144426741238508,0.5389519645729166,-56.068593069762564,-93.18754718833176,25.93519704664329,-0.4484,-0.47,-0.7265,0.2244
70,1927919.0,1905.671884,1.0,-7.75,1.85,-5.7,40.06,5.06,7.69,-38.38,-57.56,-29.94,0.20629717200654585,-1.7009018702267007,0.16095799244132006,-53.87264873756229,-93.33773486561995,26.335166138238048,-0.4624,-0.45299999999999996,-0.7274,0.2278
71,1927919.0,1905.671884,1.0,-7.75,1.85,-5.7,40.06,5.06,7.69,-38.38,-57.56,-29.94,0.20629717200654585,-1.7009018702267007,0.16095799244132006,-53.87264873756229,-93.33773486561995,26.335166138238048,-0.4624,-0.45299999999999996,-0.7274,0.2278
72,1927956.0,1905.7260800000001,1.0,-9.15,1.02,-3.55,39.75,7.38,6.5,-15.56,-3.0,-24.5,0.7237157799837516,0.7895220696669345,-0.0024422297280590755,-52.795499446887185,-93.55504179839458,26.582368805630427,-0.4673,-0.4446,-0.7287,0.2299
73,1927956.0,1905.7260800000001,1.0,-9.15,1.02,-3.55,39.75,7.38,6.5,-15.56,-3.0,-24.5,0.7237157799837516,0.7895220696669345,-0.0024422297280590755,-52.795499446887185,-93.55504179839458,26.582368805630427,-0.4673,-0.4446,-0.7287,0.2299
74,1927993.0,1905.7869050000002,1.0,-7.63,0.79,-5.24,40.19,7.38,6.88,-29.62,-1.69,-19.62,-0.5319708710123903,-1.0510064557498462,0.5919339206860794,-51.634227840640925,-94.37809988831016,26.25279302590076,-0.4697,-0.4355,-0.7336,0.2271
75,1927993.0,1905.7869050000002,1.0,-7.63,0.79,-5.24,40.19,7.38,6.88,-29.62,-1.69,-19.62,-0.5319708710123903,-1.0510064557498462,0.5919339206860794,-51.634227840640925,-94.37809988831016,26.25279302590076,-0.4697,-0.4355,-0.7336,0.2271
76,1928026.0,1905.794345,1.0,-8.8,1.83,-4.51,40.19,7.38,6.88,-10.63,-8.88,-10.88,0.8745120594021508,-0.6337350560804023,-0.19148025203487684,-51.02398420663922,-94.41182940148542,26.205728877683853,-0.474,-0.4307,-0.7338,0.2267
77,1928026.0,1905.794345,1.0,-8.8,1.83,-4.51,40.19,7.38,6.88,-10.63,-8.88,-10.88,0.8745120594021508,-0.6337350560804023,-0.19148025203487684,-51.02398420663922,-94.41182940148542,26.205728877683853,-0.474,-0.4307,-0.7338,0.2267
78,1928065.0,1905.812607,1.0,-8.58,0.09,-3.98,39.88,8.06,5.25,-13.56,24.19,-9.69,-0.2657625292369308,0.6323759926331867,0.37296721531856747,-50.57999179913578,-95.2755931282083,26.00575632582789,-0.47,-0.4272,-0.7389,0.225
79,1928065.0,1905.812607,1.0,-8.58,0.09,-3.98,39.88,8.06,5.25,-13.56,24.19,-9.69,-0.2657625292369308,0.6323759926331867,0.37296721531856747,-50.57999179913578,-95.2755931282083,26.00575632582789,-0.47,-0.4272,-0.7389,0.225
80,1928099.0,1905.86533,1.0,-8.54,1.82,-4.64,40.19,8.88,5.25,-13.88,3.25,-2.0,0.83715321714046,-0.7483987505822665,-0.01743641050954281,-50.2633517404334,-95.71869958125956,25.46505599443148,-0.4703,-0.4247,-0.7415,0.2204
81,1928099.0,1905.86533,1.0,-8.54,1.82,-4.64,40.19,8.88,5.25,-13.88,3.25,-2.0,0.83715321714046,-0.7483987505822665,-0.01743641050954281,-50.2633517404334,-95.71869958125956,25.46505599443148,-0.4703,-0.4247,-0.7415,0.2204
82,1928132.0,1905.878622,1.0,-7.87,1.35,-5.97,40.19,8.88,5.25,22.69,-2.25,-13.56,-0.26179273258466984,-1.760791402816146,-0.0031093345063570865,-50.28866780725309,-95.92384977618164,25.9116795113663,-0.4665,-0.4249,-0.7427,0.2242
83,1928132.0,1905.878622,1.0,-7.87,1.35,-5.97,40.19,8.88,5.25,22.69,-2.25,-13.56,-0.26179273258466984,-1.760791402816146,-0.0031093345063570865,-50.28866780725309,-95.92384977618164,25.9116795113663,-0.4665,-0.4249,-0.7427,0.2242
84,1928167.0,1905.9707170000001,1.0,-9.22,0.75,-4.41,39.06,8.5,7.75,0.31,6.31,-22.37,0.39462593462253337,0.2210995505975324,-0.43123969272715534,-49.555559524438046,-96.57619970569807,26.076325639174165,-0.4649,-0.4191,-0.7465,0.2256
85,1928167.0,1905.9707170000001,1.0,-9.22,0.75,-4.41,39.06,8.5,7.75,0.31,6.31,-22.37,0.39462593462253337,0.2210995505975324,-0.43123969272715534,-49.555559524438046,-96.57619970569807,26.076325639174165,-0.4649,-0.4191,-0.7465,0.2256
86,1928204.0,1905.97425,1.0,-9.55,0.8,-4.04,38.69,10.0,7.25,19.0,-20.5,-11.69,0.7900711773935697,0.4972047402156148,-0.5515677511847628,-48.62334193420396,-97.16343265081737,26.370473139201327,-0.4649,-0.4117,-0.7499,0.2281
87,1928204.0,1905.97425,1.0,-9.55,0.8,-4.04,38.69,10.0,7.25,19.0,-20.5,-11.69,0.7900711773935697,0.4972047402156148,-0.5515677511847628,-48.62334193420396,-97.16343265081737,26.370473139201327,-0.4649,-0.4117,-0.7499,0.2281
88,1928239.0,1905.9877420000003,1.0,-8.0,-1.11,-4.44,38.69,10.0,7.25,47.38,15.5,5.38,-1.2678875713627582,0.58415202676188,0.6963850468817956,-49.290658600791176,-96.817590777602,27.324738438026902,-0.4594,-0.41700000000000004,-0.7479,0.2362
89,1928239.0,1905.9877420000003,1.0,-8.0,-1.11,-4.44,38.69,10.0,7.25,47.38,15.5,5.38,-1.2678875713627582,0.58415202676188,0.6963850468817956,-49.290658600791176,-96.817590777602,27.324738438026902,-0.4594,-0.41700000000000004,-0.7479,0.2362
90,1928271.0,1906.0410739999998,1.0,-7.35,0.0,-5.69,39.5,10.38,7.75,9.31,-13.06,8.63,-1.0791565452191625,-1.1871718673440224,0.651070056146219,-49.45461164689416,-96.817590777602,27.36011828826252,-0.4581,-0.4183,-0.7479,0.2365
91,1928271.0,1906.0410739999998,1.0,-7.35,0.0,-5.69,39.5,10.38,7.75,9.31,-13.06,8.63,-1.0791565452191625,-1.1871718673440224,0.651070056146219,-49.45461164689416,-96.817590777602,27.36011828826252,-0.4581,-0.4183,-0.7479,0.2365
92,1928306.0,1906.1069309999998,1.0,-8.47,1.42,-4.9,39.5,11.5,5.56,27.25,1.94,-0.25,0.7657300716346813,-0.9314050170048956,-0.00729121399208843,-49.290658600791176,-96.86939197442554,27.407295558849807,-0.4584,-0.41700000000000004,-0.7482,0.2369
93,1928306.0,1906.1069309999998,1.0,-8.47,1.42,-4.9,39.5,11.5,5.56,27.25,1.94,-0.25,0.7657300716346813,-0.9314050170048956,-0.00729121399208843,-49.290658600791176,-96.86939197442554,27.407295558849807,-0.4584,-0.41700000000000004,-0.7482,0.2369
94,1928343.0,1906.114119,1.0,-8.59,0.13,-4.14,39.88,10.0,6.88,20.19,-15.0,26.87,0.050410698433717815,0.3425716491204478,0.2764504518949185,-49.959762980286655,-96.1465565233062,27.914752300246647,-0.4582,-0.4223,-0.7440000000000001,0.2412
95,1928343.0,1906.114119,1.0,-8.59,0.13,-4.14,39.88,10.0,6.88,20.19,-15.0,26.87,0.050410698433717815,0.3425716491204478,0.2764504518949185,-49.959762980286655,-96.1465565233062,27.914752300246647,-0.4582,-0.4223,-0.7440000000000001,0.2412
96,1928378.0,1906.1319440000002,1.0,-9.38,2.65,-3.22,39.88,10.0,6.88,30.37,-6.0,44.31,2.6645819168131903,0.1030656677716959,-0.10620431531801522,-51.26535237984769,-94.83435769046784,28.056467420340038,-0.4604,-0.4326,-0.7363,0.2424
97,1928378.0,1906.1319440000002,1.0,-9.38,2.65,-3.22,39.88,10.0,6.88,30.37,-6.0,44.31,2.6645819168131903,0.1030656677716959,-0.10620431531801522,-51.26535237984769,-94.83435769046784,28.056467420340038,-0.4604,-0.4326,-0.7363,0.2424
98,1928415.0,1906.1809460000002,1.0,-8.54,-0.06,-4.91,38.38,10.38,5.56,101.94,22.0,21.87,-0.4767328155117578,-0.10674641497332417,-0.032284445635083266,-53.75699560652143,-93.52158145031368,29.59457663056109,-0.4468,-0.4521,-0.7285,0.2554
99,1928415.0,1906.1809460000002,1.0,-8.54,-0.06,-4.91,38.38,10.38,5.56,101.94,22.0,21.87,-0.4767328155117578,-0.10674641497332417,-0.032284445635083266,-53.75699560652143,-93.52158145031368,29.59457663056109,-0.4468,-0.4521,-0.7285,0.2554
100,1928450.0,1906.201999,1.0,-7.19,-1.71,-5.95,39.56,8.88,6.06,52.81,-15.5,35.88,-2.560234939600311,-0.8294608981055112,0.7083044541018975,-55.097091918968275,-92.5059720581388,30.63884419055943,-0.441,-0.4625,-0.7224,0.2642
101,1928450.0,1906.201999,1.0,-7.19,-1.71,-5.95,39.56,8.88,6.06,52.81,-15.5,35.88,-2.560234939600311,-0.8294608981055112,0.7083044541018975,-55.097091918968275,-92.5059720581388,30.63884419055943,-0.441,-0.4625,-0.7224,0.2642
102,1928484.0,1906.249925,1.0,-9.67,2.41,-3.71,39.56,8.88,6.06,84.19,6.31,29.06,2.355136835825505,0.27570821338518736,-0.5595650983668925,-57.24022157573342,-90.16107125343979,31.816774454596118,-0.4406,-0.479,-0.7081,0.2741
103,1928484.0,1906.249925,1.0,-9.67,2.41,-3.71,39.56,8.88,6.06,84.19,6.31,29.06,2.355136835825505,0.27570821338518736,-0.5595650983668925,-57.24022157573342,-90.16107125343979,31.816774454596118,-0.4406,-0.479,-0.7081,0.2741
104,1928519.0,1906.2674359999999,1.0,-7.31,-2.17,-5.57,40.25,9.56,4.38,76.37,-7.44,23.44,-2.7604122996394787,-0.6230582863978744,0.7976643574456705,-59.14177438587889,-88.67763467052185,33.46454755353707,-0.4304,-0.4935,-0.6989,0.2879
105,1928519.0,1906.2674359999999,1.0,-7.31,-2.17,-5.57,40.25,9.56,4.38,76.37,-7.44,23.44,-2.7604122996394787,-0.6230582863978744,0.7976643574456705,-59.14177438587889,-88.67763467052185,33.46454755353707,-0.4304,-0.4935,-0.6989,0.2879
106,1928554.0,1906.319778,1.0,-10.29,1.69,-2.63,40.69,8.06,4.75,41.69,-7.06,24.87,2.0844928023800997,1.713649200358118,-0.6037004347806434,-59.52422071985297,-87.72021935597425,33.73986021591224,-0.4351,-0.4964,-0.6929,0.2902
107,1928554.0,1906.319778,1.0,-10.29,1.69,-2.63,40.69,8.06,4.75,41.69,-7.06,24.87,2.0844928023800997,1.713649200358118,-0.6037004347806434,-59.52422071985297,-87.72021935597425,33.73986021591224,-0.4351,-0.4964,-0.6929,0.2902
108,1928591.0,1906.337386,1.0,-8.56,-2.16,-4.32,40.69,8.06,4.75,53.88,-2.44,26.44,-2.2383555262097143,0.8254747161604754,0.2719787402623979,-61.2077995443589,-86.67586147437744,34.723057470664465,-0.4252,-0.5091,-0.6863,0.2984
109,1928591.0,1906.337386,1.0,-8.56,-2.16,-4.32,40.69,8.06,4.75,53.88,-2.44,26.44,-2.2383555262097143,0.8254747161604754,0.2719787402623979,-61.2077995443589,-86.67586147437744,34.723057470664465,-0.4252,-0.5091,-0.6863,0.2984
110,1928624.0,1906.424057,1.0,-8.97,1.96,-5.53,41.0,8.06,4.75,25.0,7.38,7.69,1.3032029818853073,-1.2406300879702912,-0.7596122990737904,-61.31433804552232,-86.54988402192322,34.29108977492126,-0.4279,-0.5099,-0.6855,0.2948
111,1928624.0,1906.424057,1.0,-8.97,1.96,-5.53,41.0,8.06,4.75,25.0,7.38,7.69,1.3032029818853073,-1.2406300879702912,-0.7596122990737904,-61.31433804552232,-86.54988402192322,34.29108977492126,-0.4279,-0.5099,-0.6855,0.2948
112,1928658.0,1906.435825,1.0,-7.85,-1.97,-4.81,40.56,6.06,5.25,67.44,2.94,2.38,-2.208849295847581,0.02614492069581087,0.6546119083312707,-62.30262894881712,-86.04727130143922,35.39602326525133,-0.4176,-0.5173,-0.6823,0.304
113,1928658.0,1906.435825,1.0,-7.85,-1.97,-4.81,40.56,6.06,5.25,67.44,2.94,2.38,-2.208849295847581,0.02614492069581087,0.6546119083312707,-62.30262894881712,-86.04727130143922,35.39602326525133,-0.4176,-0.5173,-0.6823,0.304
114,1928695.0,1906.4399449999999,1.0,-9.89,1.57,-2.02,40.19,6.88,3.56,-25.56,-58.81,-3.19,2.034165190401043,2.037660698418855,0.005246485386395604,-61.03479928474157,-85.7341811031503,35.46820114810156,-0.43200000000000005,-0.5078,-0.6803,0.3046
115,1928695.0,1906.4399449999999,1.0,-9.89,1.57,-2.02,40.19,6.88,3.56,-25.56,-58.81,-3.19,2.034165190401043,2.037660698418855,0.005246485386395604,-61.03479928474157,-85.7341811031503,35.46820114810156,-0.43200000000000005,-0.5078,-0.6803,0.3046
116,1928730.0,1906.498182,1.0,-10.75,1.72,-0.97,40.19,6.88,3.56,-50.31,-37.88,-22.25,2.560678547227412,2.908941222615956,-0.4130753554650344,-59.07590865675504,-85.96892404416114,35.44414023991489,-0.4466,-0.493,-0.6818,0.3044
117,1928730.0,1906.498182,1.0,-10.75,1.72,-0.97,40.19,6.88,3.56,-50.31,-37.88,-22.25,2.560678547227412,2.908941222615956,-0.4130753554650344,-59.07590865675504,-85.96892404416114,35.44414023991489,-0.4466,-0.493,-0.6818,0.3044
118,1928767.0,1906.5648420000002,1.0,-7.74,-0.74,-5.46,40.19,6.5,1.56,-4.5,-8.19,-21.81,-1.4525570160016774,-1.3555737993908032,0.5158320710085231,-57.920143749681635,-86.80196974664999,35.39602326525133,-0.4484,-0.4842,-0.6871,0.304
119,1928767.0,1906.5648420000002,1.0,-7.74,-0.74,-5.46,40.19,6.5,1.56,-4.5,-8.19,-21.81,-1.4525570160016774,-1.3555737993908032,0.5158320710085231,-57.920143749681635,-86.80196974664999,35.39602326525133,-0.4484,-0.4842,-0.6871,0.304
120,1928802.0,1906.5826789999999,1.0,-7.6,-0.54,-6.05,40.56,6.5,1.5,-29.06,-15.75,-16.87,-1.4970768022104373,-2.056443605311533,0.4160216532674639,-56.70567847737765,-87.32356135651855,35.37196719600466,-0.4534,-0.4749,-0.6904,0.3038
121,1928802.0,1906.5826789999999,1.0,-7.6,-0.54,-6.05,40.56,6.5,1.5,-29.06,-15.75,-16.87,-1.4970768022104373,-2.056443605311533,0.4160216532674639,-56.70567847737765,-87.32356135651855,35.37196719600466,-0.4534,-0.4749,-0.6904,0.3038
122,1928837.0,1906.6271239999999,1.0,-8.45,0.71,-3.36,40.56,6.5,1.5,3.5,-12.0,-19.87,0.7158757868463115,-0.017755897911132083,0.7136083424523694,-55.99071256936834,-87.37109100921478,35.76909927860193,-0.4564,-0.4694,-0.6907,0.3071
123,1928837.0,1906.6271239999999,1.0,-8.45,0.71,-3.36,40.56,6.5,1.5,3.5,-12.0,-19.87,0.7158757868463115,-0.017755897911132083,0.7136083424523694,-55.99071256936834,-87.37109100921478,35.76909927860193,-0.4564,-0.4694,-0.6907,0.3071
124,1928871.0,1906.6314320000001,1.0,-8.36,0.26,-3.74,40.19,7.25,1.88,33.56,0.81,-8.69,0.2816582427805152,-0.2693550248776713,0.6528029123080206,-55.99071256936834,-87.29188537138376,36.73370161256758,-0.4517,-0.4694,-0.6902,0.3151
125,1928871.0,1906.6314320000001,1.0,-8.36,0.26,-3.74,40.19,7.25,1.88,33.56,0.81,-8.69,0.2816582427805152,-0.2693550248776713,0.6528029123080206,-55.99071256936834,-87.29188537138376,36.73370161256758,-0.4517,-0.4694,-0.6902,0.3151
126,1928906.0,1906.6873460000002,1.0,-7.73,-1.57,-4.12,41.38,6.88,1.06,68.19,-1.31,18.06,-1.5513727855695216,-0.24748420662207396,1.0474152133495735,-57.12276675948825,-86.32973658874529,38.04022025359053,-0.4439,-0.4781,-0.6841,0.3259
127,1928906.0,1906.6873460000002,1.0,-7.73,-1.57,-4.12,41.38,6.88,1.06,68.19,-1.31,18.06,-1.5513727855695216,-0.24748420662207396,1.0474152133495735,-57.12276675948825,-86.32973658874529,38.04022025359053,-0.4439,-0.4781,-0.6841,0.3259
128,1928941.0,1906.7036010000002,1.0,-7.04,-0.31,-4.2,41.38,6.88,1.06,96.06,16.81,47.56,-0.4265110516550077,-0.9385436216258802,1.6681658540965678,-60.33107392327209,-84.07240023072654,39.40057712393039,-0.4308,-0.5025,-0.6696,0.3371
129,1928941.0,1906.7036010000002,1.0,-7.04,-0.31,-4.2,41.38,6.88,1.06,96.06,16.81,47.56,-0.4265110516550077,-0.9385436216258802,1.6681658540965678,-60.33107392327209,-84.07240023072654,39.40057712393039,-0.4308,-0.5025,-0.6696,0.3371
130,1928976.0,1906.7563,1.0,-5.98,-0.35,-3.24,40.56,8.0,1.06,258.31,100.25,103.19,-0.230042084189118,-0.2680676531247774,3.005494188459574,-66.37764861539371,-80.66165004119368,41.378582455790294,-0.3958,-0.5474,-0.6472,0.3533
131,1928976.0,1906.7563,1.0,-5.98,-0.35,-3.24,40.56,8.0,1.06,258.31,100.25,103.19,-0.230042084189118,-0.2680676531247774,3.005494188459574,-66.37764861539371,-80.66165004119368,41.378582455790294,-0.3958,-0.5474,-0.6472,0.3533
132,1929013.0,1906.763742,1.0,-6.87,-0.63,-1.08,41.0,6.06,1.06,324.31,164.19,144.88,-0.5510356415418924,2.617928331114891,3.356610389664532,-78.46961958186714,-73.72547201814446,43.7274156925049,-0.3184,-0.6325,-0.5999,0.3724
133,1929013.0,1906.763742,1.0,-6.87,-0.63,-1.08,41.0,6.06,1.06,324.31,164.19,144.88,-0.5510356415418924,2.617928331114891,3.356610389664532,-78.46961958186714,-73.72547201814446,43.7274156925049,-0.3184,-0.6325,-0.5999,0.3724
134,1929048.0,1906.854016,1.0,-5.36,-2.26,-3.26,41.38,2.0,4.0,395.88,167.31,164.5,-1.838139658296128,-0.006907244451240802,3.3968142075187995,-88.74173969605336,-66.77519331232165,45.12611671542185,-0.2467,-0.6993,-0.5503,0.3837
135,1929048.0,1906.854016,1.0,-5.36,-2.26,-3.26,41.38,2.0,4.0,395.88,167.31,164.5,-1.838139658296128,-0.006907244451240802,3.3968142075187995,-88.74173969605336,-66.77519331232165,45.12611671542185,-0.2467,-0.6993,-0.5503,0.3837
136,1929082.0,1906.857752,1.0,-4.56,-4.01,-5.76,41.38,2.0,4.0,341.81,177.06,182.69,-1.8969636814503048,-2.73735918784441,2.128128432147089,-101.827911474709,-56.19845659098237,45.946335125324666,-0.1528,-0.7762,-0.47100000000000003,0.3903
137,1929082.0,1906.857752,1.0,-4.56,-4.01,-5.76,41.38,2.0,4.0,341.81,177.06,182.69,-1.8969636814503048,-2.73735918784441,2.128128432147089,-101.827911474709,-56.19845659098237,45.946335125324666,-0.1528,-0.7762,-0.47100000000000003,0.3903
138,1929117.0,1906.911539,1.0,-4.35,-4.56,-6.31,39.88,-2.0,9.75,204.94,161.0,177.06,-1.696408584056469,-3.31452749429773,1.7030517001406125,-110.0695462273055,-49.31587513221956,44.51874337646561,-0.1042,-0.8195,-0.4172,0.3788
139,1929117.0,1906.911539,1.0,-4.35,-4.56,-6.31,39.88,-2.0,9.75,204.94,161.0,177.06,-1.696408584056469,-3.31452749429773,1.7030517001406125,-110.0695462273055,-49.31587513221956,44.51874337646561,-0.1042,-0.8195,-0.4172,0.3788
140,1929156.0,1906.9289899999999,1.0,-3.65,-1.53,-9.92,38.75,-5.0,15.06,88.56,126.69,186.94,2.6109858166958557,-2.78491990894827,-0.16815697385952788,-119.81110097439955,-41.31734313597096,40.827870624577365,-0.073,-0.8652,-0.3528,0.3488
141,1929156.0,1906.9289899999999,1.0,-3.65,-1.53,-9.92,38.75,-5.0,15.06,88.56,126.69,186.94,2.6109858166958557,-2.78491990894827,-0.16815697385952788,-119.81110097439955,-41.31734313597096,40.827870624577365,-0.073,-0.8652,-0.3528,0.3488
142,1929191.0,1906.9323239999999,1.0,-3.57,-2.16,-10.68,38.75,-5.0,15.06,49.56,93.5,168.25,2.4214657833584434,-3.29139655473752,-0.9067113856476574,-125.77163105081793,-36.08230406752302,38.31911836146923,-0.0637,-0.8901,-0.3097,0.3282
143,1929191.0,1906.9323239999999,1.0,-3.57,-2.16,-10.68,38.75,-5.0,15.06,49.56,93.5,168.25,2.4214657833584434,-3.29139655473752,-0.9067113856476574,-125.77163105081793,-36.08230406752302,38.31911836146923,-0.0637,-0.8901,-0.3097,0.3282
144,1929226.0,1906.981819,1.0,-5.65,2.08,-9.48,36.19,-8.38,20.75,-61.0,43.63,179.0,2.1040817559781315,1.2356265456203601,-1.1553464880453337,-131.73432389141507,-30.21133398212997,35.383995029265094,-0.0829,-0.9126,-0.2606,0.3039
145,1929226.0,1906.981819,1.0,-5.65,2.08,-9.48,36.19,-8.38,20.75,-61.0,43.63,179.0,2.1040817559781315,1.2356265456203601,-1.1553464880453337,-131.73432389141507,-30.21133398212997,35.383995029265094,-0.0829,-0.9126,-0.2606,0.3039
146,1929261.0,1907.0377039999998,1.0,-6.54,4.5,-10.23,32.5,-12.0,22.06,-26.0,36.0,166.06,2.0871722070619856,2.892292037416299,-2.641356223824209,-136.46613430112782,-24.61989330860375,32.97426433366517,-0.1077,-0.9287,-0.2132,0.2838
147,1929261.0,1907.0377039999998,1.0,-6.54,4.5,-10.23,32.5,-12.0,22.06,-26.0,36.0,166.06,2.0871722070619856,2.892292037416299,-2.641356223824209,-136.46613430112782,-24.61989330860375,32.97426433366517,-0.1077,-0.9287,-0.2132,0.2838
148,1929297.0,1907.056669,1.0,-6.35,2.66,-10.82,30.06,-16.75,24.19,45.63,50.44,117.0,1.1408485968050657,1.0110091097019225,-2.9270385881219685,-139.8686617976523,-21.019168663575197,31.36423874673959,-0.1061,-0.9393,-0.1824,0.2703
149,1929297.0,1907.056669,1.0,-6.35,2.66,-10.82,30.06,-16.75,24.19,45.63,50.44,117.0,1.1408485968050657,1.0110091097019225,-2.9270385881219685,-139.8686617976523,-21.019168663575197,31.36423874673959,-0.1061,-0.9393,-0.1824,0.2703
150,1929332.0,1907.1588329999997,1.0,-6.2,2.01,-10.68,30.06,-16.75,24.19,20.69,32.69,90.62,0.4641336595779621,0.36501742098362255,-2.6911034872642325,-143.13615512462272,-17.36976491594495,29.8198276164604,-0.1047,-0.9487,-0.151,0.2573
151,1929332.0,1907.1588329999997,1.0,-6.2,2.01,-10.68,30.06,-16.75,24.19,20.69,32.69,90.62,0.4641336595779621,0.36501742098362255,-2.6911034872642325,-143.13615512462272,-17.36976491594495,29.8198276164604,-0.1047,-0.9487,-0.151,0.2573
152,1929367.0,1907.224147,1.0,-6.42,4.28,-10.13,26.37,-19.37,24.56,-25.06,3.75,69.87,0.5256729459632122,2.402688578717401,-2.6874468280057524,-144.1275913572786,-15.598198868035936,29.19178700040293,-0.1143,-0.9514,-0.1357,0.252
153,1929367.0,1907.224147,1.0,-6.42,4.28,-10.13,26.37,-19.37,24.56,-25.06,3.75,69.87,0.5256729459632122,2.402688578717401,-2.6874468280057524,-144.1275913572786,-15.598198868035936,29.19178700040293,-0.1143,-0.9514,-0.1357,0.252
154,1929406.0,1907.244826,1.0,-6.66,3.58,-8.95,24.19,-20.5,25.75,10.63,4.81,34.31,-0.6039222996607292,1.9445254550678768,-1.7314867044495337,-144.841458151918,-14.095906005217,28.801196435314267,-0.1196,-0.9533,-0.1227,0.2487
155,1929406.0,1907.244826,1.0,-6.66,3.58,-8.95,24.19,-20.5,25.75,10.63,4.81,34.31,-0.6039222996607292,1.9445254550678768,-1.7314867044495337,-144.841458151918,-14.095906005217,28.801196435314267,-0.1196,-0.9533,-0.1227,0.2487
156,1929439.0,1907.287697,1.0,-6.41,2.84,-8.58,24.19,-20.5,25.75,16.25,9.31,10.5,-0.8354900891308212,1.3343142155749257,-1.161105553670902,-145.37657897397716,-13.530302549412001,28.61194247203445,-0.1172,-0.9547,-0.1178,0.2471
157,1929439.0,1907.287697,1.0,-6.41,2.84,-8.58,24.19,-20.5,25.75,16.25,9.31,10.5,-0.8354900891308212,1.3343142155749257,-1.161105553670902,-145.37657897397716,-13.530302549412001,28.61194247203445,-0.1172,-0.9547,-0.1178,0.2471
158,1929474.0,1907.348173,1.0,-5.38,2.21,-9.04,24.06,-20.87,25.75,20.37,3.56,-1.25,0.016280317692681182,0.5702324968693275,-0.9276254692978708,-145.84171829017612,-13.691869135619404,28.257305549296962,-0.1116,-0.9559,-0.1192,0.2441
159,1929474.0,1907.348173,1.0,-5.38,2.21,-9.04,24.06,-20.87,25.75,20.37,3.56,-1.25,0.016280317692681182,0.5702324968693275,-0.9276254692978708,-145.84171829017612,-13.691869135619404,28.257305549296962,-0.1116,-0.9559,-0.1192,0.2441
160,1929508.0,1907.355692,1.0,-5.18,1.47,-8.24,22.19,-20.5,25.87,23.62,5.19,-3.81,-0.36656519583038094,0.16363233219209838,-0.028478591791120774,-146.0373496598969,-13.841919736512358,28.22185710635222,-0.1061,-0.9564,-0.1205,0.2438
161,1929508.0,1907.355692,1.0,-5.18,1.47,-8.24,22.19,-20.5,25.87,23.62,5.19,-3.81,-0.36656519583038094,0.16363233219209838,-0.028478591791120774,-146.0373496598969,-13.841919736512358,28.22185710635222,-0.1061,-0.9564,-0.1205,0.2438
162,1929545.0,1907.37308,1.0,-4.71,0.49,-8.09,22.87,-21.0,26.75,20.87,3.0,-8.13,-0.2949411597976172,-0.659121656271682,0.4604813542665571,-146.23408088100356,-14.222925164993965,28.18641141984425,-0.0986,-0.9569,-0.1238,0.2435
163,1929545.0,1907.37308,1.0,-4.71,0.49,-8.09,22.87,-21.0,26.75,20.87,3.0,-8.13,-0.2949411597976172,-0.659121656271682,0.4604813542665571,-146.23408088100356,-14.222925164993965,28.18641141984425,-0.0986,-0.9569,-0.1238,0.2435
164,1929580.0,1907.376459,1.0,-4.77,0.55,-7.88,22.87,-21.0,26.75,3.13,4.31,-1.69,-0.4324035328277206,-0.4883177460981892,0.6020656550312555,-146.39227073603638,-14.269118297459285,28.080090858618394,-0.096,-0.9573,-0.1242,0.2426
165,1929580.0,1907.376459,1.0,-4.77,0.55,-7.88,22.87,-21.0,26.75,3.13,4.31,-1.69,-0.4324035328277206,-0.4883177460981892,0.6020656550312555,-146.39227073603638,-14.269118297459285,28.080090858618394,-0.096,-0.9573,-0.1242,0.2426
166,1929617.0,1907.424125,1.0,-4.55,0.99,-8.58,22.19,-20.19,26.37,2.31,10.69,0.56,0.14192974548758364,-0.2750468518670373,0.04943701797363431,-146.5113892939378,-14.500119080393965,27.784885032921768,-0.0964,-0.9576,-0.1262,0.2401
167,1929617.0,1907.424125,1.0,-4.55,0.99,-8.58,22.19,-20.19,26.37,2.31,10.69,0.56,0.14192974548758364,-0.2750468518670373,0.04943701797363431,-146.5113892939378,-14.500119080393965,27.784885032921768,-0.0964,-0.9576,-0.1262,0.2401
168,1929652.0,1907.436107,1.0,-4.57,0.36,-8.53,23.25,-19.87,26.75,9.94,3.63,0.69,-0.104957873594935,-0.8005726869052812,0.15659988522071444,-146.67085725236174,-14.765843296845908,27.584252585600556,-0.0942,-0.958,-0.1285,0.2384
169,1929652.0,1907.436107,1.0,-4.57,0.36,-8.53,23.25,-19.87,26.75,9.94,3.63,0.69,-0.104957873594935,-0.8005726869052812,0.15659988522071444,-146.67085725236174,-14.765843296845908,27.584252585600556,-0.0942,-0.958,-0.1285,0.2384
170,1929687.0,1907.445336,1.0,-4.86,1.08,-8.68,23.25,-19.87,26.75,-8.63,-0.69,5.5,-0.08475794009897834,-0.12406478385131925,-0.19863980194966932,-146.67085725236174,-14.661854827129085,27.57245336826063,-0.0955,-0.958,-0.1276,0.2383
171,1929687.0,1907.445336,1.0,-4.86,1.08,-8.68,23.25,-19.87,26.75,-8.63,-0.69,5.5,-0.08475794009897834,-0.12406478385131925,-0.19863980194966932,-146.67085725236174,-14.661854827129085,27.57245336826063,-0.0955,-0.958,-0.1276,0.2383
172,1929719.0,1907.487368,1.0,-5.17,1.3,-8.38,23.19,-19.87,27.69,-1.12,-0.12,5.69,-0.4272073190348796,0.18015446258256615,-0.11445569826643087,-146.59103083752737,-14.800508833176535,27.513461750107517,-0.098,-0.9578,-0.1288,0.2378
173,1929719.0,1907.487368,1.0,-5.17,1.3,-8.38,23.19,-19.87,27.69,-1.12,-0.12,5.69,-0.4272073190348796,0.18015446258256615,-0.11445569826643087,-146.59103083752737,-14.800508833176535,27.513461750107517,-0.098,-0.9578,-0.1288,0.2378
174,1929756.0,1907.553607,1.0,-4.83,1.32,-8.49,22.5,-20.19,27.19,1.37,1.81,0.75,-0.09757579404625903,0.10792572976234116,-0.048817061548703584,-146.5511870394875,-14.985414779298193,27.407295558849807,-0.0983,-0.9577,-0.1304,0.2369
175,1929756.0,1907.553607,1.0,-4.83,1.32,-8.49,22.5,-20.19,27.19,1.37,1.81,0.75,-0.09757579404625903,0.10792572976234116,-0.048817061548703584,-146.5511870394875,-14.985414779298193,27.407295558849807,-0.0983,-0.9577,-0.1304,0.2369
176,1929791.0,1907.560732,1.0,-4.99,1.2,-8.07,22.5,-20.19,27.19,0.63,-1.75,-2.38,-0.43462443993734745,0.13626778244451754,0.25376914197205025,-146.39227073603638,-15.239724647140953,27.466273808985672,-0.0986,-0.9573,-0.1326,0.2374
177,1929791.0,1907.560732,1.0,-4.99,1.2,-8.07,22.5,-20.19,27.19,0.63,-1.75,-2.38,-0.43462443993734745,0.13626778244451754,0.25376914197205025,-146.39227073603638,-15.239724647140953,27.466273808985672,-0.0986,-0.9573,-0.1326,0.2374
178,1929826.0,1907.5778489999998,1.0,-4.81,1.03,-8.16,22.5,-20.56,27.56,0.12,6.0,-2.88,-0.3105407950912302,-0.07011287312536517,0.2839797547585832,-146.47163743677675,-15.332219618835126,27.348324709600163,-0.0982,-0.9575,-0.1334,0.2364
179,1929826.0,1907.5778489999998,1.0,-4.81,1.03,-8.16,22.5,-20.56,27.56,0.12,6.0,-2.88,-0.3105407950912302,-0.07011287312536517,0.2839797547585832,-146.47163743677675,-15.332219618835126,27.348324709600163,-0.0982,-0.9575,-0.1334,0.2364
180,1929861.0,1907.629972,1.0,-4.58,0.88,-8.33,22.75,-19.87,26.37,0.37,9.38,-2.88,-0.1351100080171974,-0.27294166225905786,0.2647975522445396,-146.5113892939378,-15.7832777083714,27.006438787370872,-0.098,-0.9576,-0.1373,0.2335
181,1929861.0,1907.629972,1.0,-4.58,0.88,-8.33,22.75,-19.87,26.37,0.37,9.38,-2.88,-0.1351100080171974,-0.27294166225905786,0.2647975522445396,-146.5113892939378,-15.7832777083714,27.006438787370872,-0.098,-0.9576,-0.1373,0.2335
182,1929897.0,1907.649339,1.0,-4.7,0.85,-8.19,22.5,-20.19,26.75,-1.94,0.25,-0.88,-0.31528456905839897,-0.2389310735713882,0.3339467119942121,-146.39227073603638,-16.10726571114575,26.923951406436,-0.0988,-0.9573,-0.1401,0.2328
183,1929897.0,1907.649339,1.0,-4.7,0.85,-8.19,22.5,-20.19,26.75,-1.94,0.25,-0.88,-0.31528456905839897,-0.2389310735713882,0.3339467119942121,-146.39227073603638,-16.10726571114575,26.923951406436,-0.0988,-0.9573,-0.1401,0.2328
184,1929930.0,1907.699475,1.0,-4.53,1.25,-8.59,22.5,-20.19,26.75,-5.69,1.81,0.56,0.10201051905583801,-0.02786757684193708,0.01582177904938753,-146.39227073603638,-16.15356023236983,26.817917077101303,-0.1004,-0.9573,-0.1405,0.2319
185,1929930.0,1907.699475,1.0,-4.53,1.25,-8.59,22.5,-20.19,26.75,-5.69,1.81,0.56,0.10201051905583801,-0.02786757684193708,0.01582177904938753,-146.39227073603638,-16.15356023236983,26.817917077101303,-0.1004,-0.9573,-0.1405,0.2319
186,1929967.0,1907.772407,1.0,-4.59,1.31,-8.77,22.5,-21.0,27.19,-1.25,2.81,-1.19,0.13502711179370086,-0.01406165136596038,-0.17727057004869984,-146.31308564363076,-16.373495591769153,26.74724052277769,-0.1014,-0.9571,-0.1424,0.2313
187,1929967.0,1907.772407,1.0,-4.59,1.31,-8.77,22.5,-21.0,27.19,-1.25,2.81,-1.19,0.13502711179370086,-0.01406165136596038,-0.17727057004869984,-146.31308564363076,-16.373495591769153,26.74724052277769,-0.1014,-0.9571,-0.1424,0.2313
188,1930004.0,1907.780068,1.0,-4.44,1.17,-8.96,21.69,-19.87,27.56,0.69,2.75,-1.19,0.2795176157871679,-0.21468556997156246,-0.2551530197629397,-146.35265556905202,-16.466118077182387,26.629469277048536,-0.10099999999999999,-0.9572,-0.1432,0.2303
189,1930004.0,1907.780068,1.0,-4.44,1.17,-8.96,21.69,-19.87,27.56,0.69,2.75,-1.19,0.2795176157871679,-0.21468556997156246,-0.2551530197629397,-146.35265556905202,-16.466118077182387,26.629469277048536,-0.10099999999999999,-0.9572,-0.1432,0.2303
190,1930039.0,1907.797954,1.0,-4.59,1.15,-8.67,21.69,-19.87,27.56,2.38,-0.12,-0.06,0.03424699308226098,-0.11812074288514672,-0.06980557037366886,-146.35265556905202,-16.454539675361616,26.676574330601248,-0.1006,-0.9572,-0.1431,0.2307
191,1930039.0,1907.797954,1.0,-4.59,1.15,-8.67,21.69,-19.87,27.56,2.38,-0.12,-0.06,0.03424699308226098,-0.11812074288514672,-0.06980557037366886,-146.35265556905202,-16.454539675361616,26.676574330601248,-0.1006,-0.9572,-0.1431,0.2307
192,1930072.0,1907.841498,1.0,-4.63,1.05,-8.52,22.5,-20.19,26.37,3.06,1.25,-0.44,-0.09484989899035268,-0.14143491476365816,0.05468611257981948,-146.2735608004224,-16.720885966499374,26.629469277048536,-0.1,-0.9570000000000001,-0.1454,0.2303
193,1930072.0,1907.841498,1.0,-4.63,1.05,-8.52,22.5,-20.19,26.37,3.06,1.25,-0.44,-0.09484989899035268,-0.14143491476365816,0.05468611257981948,-146.2735608004224,-16.720885966499374,26.629469277048536,-0.1,-0.9570000000000001,-0.1454,0.2303
194,1930108.0,1907.8641,1.0,-4.46,0.92,-8.53,21.69,-20.19,27.25,2.63,3.63,-0.25,-0.00549898131402185,-0.2803102109049357,0.14123247426077512,-146.35265556905202,-16.801965875210325,26.499953978465857,-0.099,-0.9572,-0.1461,0.2292
195,1930108.0,1907.8641,1.0,-4.46,0.92,-8.53,21.69,-20.19,27.25,2.63,3.63,-0.25,-0.00549898131402185,-0.2803102109049357,0.14123247426077512,-146.35265556905202,-16.801965875210325,26.499953978465857,-0.099,-0.9572,-0.1461,0.2292
196,1930141.0,1907.9126469999999,1.0,-4.4,1.11,-8.69,21.69,-20.19,27.25,-0.25,1.69,0.75,0.16341600330583805,-0.15020167261190834,0.005683993151075485,-146.4319313048688,-16.79038251334145,26.441094791301843,-0.0987,-0.9574,-0.146,0.2287
197,1930141.0,1907.9126469999999,1.0,-4.4,1.11,-8.69,21.69,-20.19,27.25,-0.25,1.69,0.75,0.16341600330583805,-0.15020167261190834,0.005683993151075485,-146.4319313048688,-16.79038251334145,26.441094791301843,-0.0987,-0.9574,-0.146,0.2287
198,1930176.0,1907.931918,1.0,-4.65,0.95,-8.29,22.75,-20.19,27.56,0.75,3.0,1.88,-0.27331872641297555,-0.13000998479620066,0.2590066113074112,-146.39227073603638,-16.97573712493423,26.370473139201327,-0.0987,-0.9573,-0.1476,0.2281
199,1930176.0,1907.931918,1.0,-4.65,0.95,-8.29,22.75,-20.19,27.56,0.75,3.0,1.88,-0.27331872641297555,-0.13000998479620066,0.2590066113074112,-146.39227073603638,-16.97573712493423,26.370473139201327,-0.0987,-0.9573,-0.1476,0.2281
200,1930211.0,1907.9826309999999,1.0,-4.67,0.98,-8.16,22.06,-20.56,28.37,-0.81,6.31,1.81,-0.36870008247690894,-0.0600960974081437,0.36126230503174384,-146.59103083752737,-16.96415115593626,26.158669228245632,-0.0988,-0.9578,-0.1475,0.2263
201,1930211.0,1907.9826309999999,1.0,-4.67,0.98,-8.16,22.06,-20.56,28.37,-0.81,6.31,1.81,-0.36870008247690894,-0.0600960974081437,0.36126230503174384,-146.59103083752737,-16.96415115593626,26.158669228245632,-0.0988,-0.9578,-0.1475,0.2263
202,1930248.0,1908.001221,1.0,-4.44,1.04,-8.59,22.5,-20.19,26.37,-2.19,8.63,0.19,-0.02115013042711915,-0.16149927411368548,0.08261942330785921,-146.59103083752737,-17.26544349477142,25.876405289927124,-0.0994,-0.9578,-0.1501,0.2239
203,1930248.0,1908.001221,1.0,-4.44,1.04,-8.59,22.5,-20.19,26.37,-2.19,8.63,0.19,-0.02115013042711915,-0.16149927411368548,0.08261942330785921,-146.59103083752737,-17.26544349477142,25.876405289927124,-0.0994,-0.9578,-0.1501,0.2239
204,1930280.0,1908.0629920000001,1.0,-4.54,1.22,-8.61,22.5,-20.19,26.37,0.25,4.81,2.19,-0.07706731061464664,0.03309248882279403,-0.0027875739294120905,-146.79094642726758,-17.230672895970507,25.65305965168436,-0.0993,-0.9583,-0.1498,0.222
205,1930280.0,1908.0629920000001,1.0,-4.54,1.22,-8.61,22.5,-20.19,26.37,0.25,4.81,2.19,-0.07706731061464664,0.03309248882279403,-0.0027875739294120905,-146.79094642726758,-17.230672895970507,25.65305965168436,-0.0993,-0.9583,-0.1498,0.222
206,1930317.0,1908.0838800000001,1.0,-4.34,1.39,-9.15,21.25,-20.19,25.87,-3.81,5.25,0.44,0.328539816577201,-0.00630863694112771,-0.4101118054853057,-146.83107004149562,-17.439320584956548,25.441560447887092,-0.1005,-0.9584,-0.1516,0.2202
207,1930317.0,1908.0838800000001,1.0,-4.34,1.39,-9.15,21.25,-20.19,25.87,-3.81,5.25,0.44,0.328539816577201,-0.00630863694112771,-0.4101118054853057,-146.83107004149562,-17.439320584956548,25.441560447887092,-0.1005,-0.9584,-0.1516,0.2202
208,1930354.0,1908.1344149999998,1.0,-4.53,1.05,-8.47,21.69,-20.19,28.06,2.69,1.5,0.31,-0.2277092100422548,-0.08974391365892176,0.1472300098751731,-146.871240884656,-17.508882729880764,25.34758912480893,-0.1002,-0.9585,-0.1522,0.2194
209,1930354.0,1908.1344149999998,1.0,-4.53,1.05,-8.47,21.69,-20.19,28.06,2.69,1.5,0.31,-0.2277092100422548,-0.08974391365892176,0.1472300098751731,-146.871240884656,-17.508882729880764,25.34758912480893,-0.1002,-0.9585,-0.1522,0.2194
210,1930387.0,1908.141897,1.0,-4.33,1.12,-8.71,21.69,-20.19,28.06,-2.13,6.0,0.25,0.03389373497634729,-0.1310988007161204,0.016396462977571247,-146.951724947316,-17.520477052231193,25.183180957237052,-0.1002,-0.9587,-0.1523,0.218
211,1930387.0,1908.141897,1.0,-4.33,1.12,-8.71,21.69,-20.19,28.06,-2.13,6.0,0.25,0.03389373497634729,-0.1310988007161204,0.016396462977571247,-146.951724947316,-17.520477052231193,25.183180957237052,-0.1002,-0.9587,-0.1523,0.218
212,1930422.0,1908.2066539999998,1.0,-4.49,1.01,-8.48,21.69,-21.0,27.56,1.06,5.25,-0.19,-0.25627796251110924,-0.12119262103149757,0.16246864777840742,-147.0728095954594,-17.636430239406273,25.00708778933191,-0.1,-0.9590000000000001,-0.1533,0.2165
213,1930422.0,1908.2066539999998,1.0,-4.49,1.01,-8.48,21.69,-21.0,27.56,1.06,5.25,-0.19,-0.25627796251110924,-0.12119262103149757,0.16246864777840742,-147.0728095954594,-17.636430239406273,25.00708778933191,-0.1,-0.9590000000000001,-0.1533,0.2165
214,1930459.0,1908.2245440000002,1.0,-4.33,0.94,-8.58,21.69,-20.19,27.19,0.81,8.38,-0.75,-0.13748735232478632,-0.2314752859506679,0.15385680735649387,-147.113267463602,-17.87999134136898,24.772390131710253,-0.0997,-0.9591,-0.1554,0.2145
215,1930459.0,1908.2245440000002,1.0,-4.33,0.94,-8.58,21.69,-20.19,27.19,0.81,8.38,-0.75,-0.13748735232478632,-0.2314752859506679,0.15385680735649387,-147.113267463602,-17.87999134136898,24.772390131710253,-0.0997,-0.9591,-0.1554,0.2145
216,1930491.0,1908.2869059999998,1.0,-4.41,1.11,-8.59,21.69,-20.19,27.19,-2.69,8.69,0.5,-0.1821933917773335,-0.04188987665041189,0.08896762166375005,-147.27558529764082,-17.90319186690899,24.537797991913113,-0.0994,-0.9595,-0.1556,0.2125
217,1930491.0,1908.2869059999998,1.0,-4.41,1.11,-8.59,21.69,-20.19,27.19,-2.69,8.69,0.5,-0.1821933917773335,-0.04188987665041189,0.08896762166375005,-147.27558529764082,-17.90319186690899,24.537797991913113,-0.0994,-0.9595,-0.1556,0.2125
218,1930526.0,1908.308592,1.0,-4.24,1.09,-8.82,21.25,-20.56,26.25,-1.37,11.25,0.56,-0.02812833697484773,-0.14110193912729824,-0.039029206608020665,-147.4795905833761,-18.15844670797989,24.080642561887807,-0.0994,-0.96,-0.1578,0.2086
219,1930526.0,1908.308592,1.0,-4.24,1.09,-8.82,21.25,-20.56,26.25,-1.37,11.25,0.56,-0.02812833697484773,-0.14110193912729824,-0.039029206608020665,-147.4795905833761,-18.15844670797989,24.080642561887807,-0.0994,-0.96,-0.1578,0.2086
220,1930561.0,1908.345188,1.0,-4.23,1.26,-8.81,20.56,-20.56,28.75,-3.56,10.0,-0.56,-0.016000574540925266,0.022044875074350267,-0.047073052993590984,-147.68484875398153,-18.20486640453508,23.776088713509264,-0.0997,-0.9605,-0.1582,0.20600000000000002
221,1930561.0,1908.345188,1.0,-4.23,1.26,-8.81,20.56,-20.56,28.75,-3.56,10.0,-0.56,-0.016000574540925266,0.022044875074350267,-0.047073052993590984,-147.68484875398153,-18.20486640453508,23.776088713509264,-0.0997,-0.9605,-0.1582,0.20600000000000002
222,1930596.0,1908.3635149999998,1.0,-4.17,0.93,-8.6,21.0,-20.56,27.56,1.06,10.75,-0.19,-0.2056008459605484,-0.2042440737710604,0.20822238655884107,-147.93284627196644,-18.37896716762953,23.42489188862897,-0.0983,-0.9611,-0.1597,0.203
223,1930596.0,1908.3635149999998,1.0,-4.17,0.93,-8.6,21.0,-20.56,27.56,1.06,10.75,-0.19,-0.2056008459605484,-0.2042440737710604,0.20822238655884107,-147.93284627196644,-18.37896716762953,23.42489188862897,-0.0983,-0.9611,-0.1597,0.203
224,1930631.0,1908.41482,1.0,-4.12,1.16,-8.85,21.0,-20.56,27.56,-2.75,16.19,1.0,-0.05445813749886666,-0.05209043336027297,-0.023752885844123384,-148.1827256280383,-18.437010245615284,23.050527648721737,-0.0982,-0.9617,-0.1602,0.1998
225,1930631.0,1908.41482,1.0,-4.12,1.16,-8.85,21.0,-20.56,27.56,-2.75,16.19,1.0,-0.05445813749886666,-0.05209043336027297,-0.023752885844123384,-148.1827256280383,-18.437010245615284,23.050527648721737,-0.0982,-0.9617,-0.1602,0.1998
226,1930665.0,1908.4320460000001,1.0,-3.92,0.65,-8.66,21.0,-20.19,27.19,-8.5,11.5,6.5,-0.2195062960475742,-0.5294718041539147,0.2958153050533223,-148.4345315385202,-18.611168175342147,22.477763863075143,-0.0993,-0.9623,-0.1617,0.1949
227,1930665.0,1908.4320460000001,1.0,-3.92,0.65,-8.66,21.0,-20.19,27.19,-8.5,11.5,6.5,-0.2195062960475742,-0.5294718041539147,0.2958153050533223,-148.4345315385202,-18.611168175342147,22.477763863075143,-0.0993,-0.9623,-0.1617,0.1949
228,1930702.0,1908.4788879999999,1.0,-3.98,1.76,-9.15,20.56,-21.37,28.87,-33.38,-8.88,10.25,0.24088784937238236,0.2638904236948023,-0.3191998353623102,-148.30838490049834,-18.471838381894354,22.349262916740443,-0.1058,-0.9620000000000001,-0.1605,0.1938
229,1930702.0,1908.4788879999999,1.0,-3.98,1.76,-9.15,20.56,-21.37,28.87,-33.38,-8.88,10.25,0.24088784937238236,0.2638904236948023,-0.3191998353623102,-148.30838490049834,-18.471838381894354,22.349262916740443,-0.1058,-0.9620000000000001,-0.1605,0.1938
230,1930735.0,1908.495773,1.0,-4.2,2.01,-9.03,20.56,-21.37,28.87,3.19,3.06,3.44,0.07394128131688799,0.4969653057160754,-0.3406924191672811,-148.22455825803132,-18.35575126897081,22.314222150985408,-0.1102,-0.9618,-0.1595,0.1935
231,1930735.0,1908.495773,1.0,-4.2,2.01,-9.03,20.56,-21.37,28.87,3.19,3.06,3.44,0.07394128131688799,0.4969653057160754,-0.3406924191672811,-148.22455825803132,-18.35575126897081,22.314222150985408,-0.1102,-0.9618,-0.1595,0.1935
232,1930770.0,1908.55391,1.0,-3.92,1.46,-9.24,19.75,-21.0,27.56,-5.56,0.12,2.06,0.17795073035360526,-0.1586764984382638,-0.3333083483567627,-148.26644461114088,-18.332536130219392,22.22079043012782,-0.1111,-0.9619,-0.1593,0.1927
233,1930770.0,1908.55391,1.0,-3.92,1.46,-9.24,19.75,-21.0,27.56,-5.56,0.12,2.06,0.17795073035360526,-0.1586764984382638,-0.3333083483567627,-148.26644461114088,-18.332536130219392,22.22079043012782,-0.1111,-0.9619,-0.1593,0.1927
234,1930807.0,1908.574875,1.0,-3.99,1.63,-8.98,20.19,-20.19,28.37,3.44,9.38,-2.31,0.060508306668298074,0.10167603630617028,-0.1534403976050971,-148.26644461114088,-18.51827857520288,22.022297601396428,-0.111,-0.9619,-0.1609,0.191
235,1930807.0,1908.574875,1.0,-3.99,1.63,-8.98,20.19,-20.19,28.37,3.44,9.38,-2.31,0.060508306668298074,0.10167603630617028,-0.1534403976050971,-148.26644461114088,-18.51827857520288,22.022297601396428,-0.111,-0.9619,-0.1609,0.191
236,1930842.0,1908.624389,1.0,-3.99,1.16,-8.65,20.19,-20.19,28.37,13.56,10.44,-1.63,-0.2409157668062657,-0.17200044421130528,0.21495695651204366,-148.56117141184754,-18.564721836939235,21.800531789289547,-0.1077,-0.9626,-0.1613,0.1891
237,1930842.0,1908.624389,1.0,-3.99,1.16,-8.65,20.19,-20.19,28.37,13.56,10.44,-1.63,-0.2409157668062657,-0.17200044421130528,0.21495695651204366,-148.56117141184754,-18.564721836939235,21.800531789289547,-0.1077,-0.9626,-0.1613,0.1891
238,1930876.0,1908.646985,1.0,-3.85,1.25,-9.03,19.5,-21.37,28.0,6.88,10.69,-1.63,-0.012227309381087624,-0.1552570071755287,-0.08787605002524224,-148.90133503664836,-18.646004953165537,21.43888030792546,-0.1046,-0.9634,-0.162,0.18600000000000003
239,1930876.0,1908.646985,1.0,-3.85,1.25,-9.03,19.5,-21.37,28.0,6.88,10.69,-1.63,-0.012227309381087624,-0.1552570071755287,-0.08787605002524224,-148.90133503664836,-18.646004953165537,21.43888030792546,-0.1046,-0.9634,-0.162,0.18600000000000003
240,1930909.0,1908.684184,1.0,-3.89,1.42,-8.82,19.06,-20.56,28.37,0.75,7.5,0.06,-0.08797395551611513,0.09535200733687987,0.06375163360780611,-149.11579237958978,-18.646004953165537,21.22898847391229,-0.1035,-0.9639,-0.162,0.1842
241,1930909.0,1908.684184,1.0,-3.89,1.42,-8.82,19.06,-20.56,28.37,0.75,7.5,0.06,-0.08797395551611513,0.09535200733687987,0.06375163360780611,-149.11579237958978,-18.646004953165537,21.22898847391229,-0.1035,-0.9639,-0.162,0.1842
242,1930946.0,1908.6962039999999,1.0,-3.6,1.38,-9.27,19.75,-21.37,28.37,7.81,6.13,-1.63,0.26832339882343503,-0.0869160953580943,-0.2291732420669668,-149.288410054367,-18.76214012304259,21.007514103633174,-0.1014,-0.9643,-0.163,0.1823
243,1930946.0,1908.6962039999999,1.0,-3.6,1.38,-9.27,19.75,-21.37,28.37,7.81,6.13,-1.63,0.26832339882343503,-0.0869160953580943,-0.2291732420669668,-149.288410054367,-18.76214012304259,21.007514103633174,-0.1014,-0.9643,-0.163,0.1823
