acc_x,acc_y,acc_z,lin_x,lin_y,lin_z,eul_x,eul_y,eul_z
-2.93,-0.88,-9.25,0.1266553212393206,0.0129315933048693,0.0646999280946669,-156.41828103776766,-13.714952301602876,18.76214012304259
-2.93,-0.88,-9.25,0.1266553212393206,0.0129315933048693,0.0646999280946669,-156.41828103776766,-13.714952301602876,18.76214012304259
-2.9,-0.87,-9.26,0.160295800170699,0.0200464227465048,0.0655821223295678,-156.47442582901172,-13.668786527863627,18.76214012304259
-2.9,-0.87,-9.26,0.160295800170699,0.0200464227465048,0.0655821223295678,-156.47442582901172,-13.668786527863627,18.76214012304259
-2.9,-0.83,-9.35,0.2045749623267643,0.0583052003470931,-0.0155773231890492,-156.47442582901172,-13.611082444309169,18.796984460560505
-2.9,-0.83,-9.35,0.2045749623267643,0.0583052003470931,-0.0155773231890492,-156.47442582901172,-13.611082444309169,18.796984460560505
-3.26,-1.07,-9.05,-0.2654695146084568,-0.0960521114383151,0.1321836101311628,-156.41828103776766,-13.553381828311744,18.86667840059343
-3.26,-1.07,-9.05,-0.2654695146084568,-0.0960521114383151,0.1321836101311628,-156.41828103776766,-13.553381828311744,18.86667840059343
-3.07,-0.78,-9.33,0.0731517703421028,0.1440604523729701,-0.0450552028853312,-156.41828103776766,-13.495684664619231,18.91314493847748
-3.07,-0.78,-9.33,0.0731517703421028,0.1440604523729701,-0.0450552028853312,-156.41828103776766,-13.495684664619231,18.91314493847748
-3.22,-1.25,-9.17,-0.2077260590502412,-0.2568596942907304,0.0132505400657567,-156.41828103776766,-13.44952940908047,18.971232525472264
-3.22,-1.25,-9.17,-0.2077260590502412,-0.2568596942907304,0.0132505400657567,-156.41828103776766,-13.44952940908047,18.971232525472264
-3.0,-0.89,-9.3,0.1238729820796531,0.037994137049835,-0.0048387723454386,-156.41828103776766,-13.380300633180664,19.017706136871343
-3.0,-0.89,-9.3,0.1238729820796531,0.037994137049835,-0.0048387723454386,-156.41828103776766,-13.380300633180664,19.017706136871343
-3.16,-0.85,-9.08,-0.0714640608631998,0.1077236283378086,0.1558578818418894,-156.36226771891504,-13.34568808643722,19.110662839696182
-3.16,-0.85,-9.08,-0.0714640608631998,0.1077236283378086,0.1558578818418894,-156.36226771891504,-13.34568808643722,19.110662839696182
-3.35,-0.9,-9.0,-0.2747186803567554,0.1070981092414599,0.1658222532938076,-156.30638493987288,-13.334150842815474,19.157145947707967
-3.35,-0.9,-9.0,-0.2747186803567554,0.1070981092414599,0.1658222532938076,-156.30638493987288,-13.334150842815474,19.157145947707967
-3.05,-1.21,-9.27,0.0223279343177718,-0.2341163753649045,-0.0241277406538458,-156.30638493987288,-13.334150842815474,19.13390399645449
-3.05,-1.21,-9.27,0.0223279343177718,-0.2341163753649045,-0.0241277406538458,-156.30638493987288,-13.334150842815474,19.13390399645449
-3.06,-0.95,-9.24,0.060318469177126,0.0283263590134103,0.0271173271336113,-156.30638493987288,-13.357225465957494,19.13390399645449
-3.06,-0.95,-9.24,0.060318469177126,0.0283263590134103,0.0271173271336113,-156.30638493987288,-13.357225465957494,19.13390399645449
-3.14,-1.11,-9.06,-0.0965228315469202,-0.0994453065293559,0.1549095365395629,-156.25063177900063,-13.380300633180664,19.192010366536685
-3.14,-1.11,-9.06,-0.0965228315469202,-0.0994453065293559,0.1549095365395629,-156.25063177900063,-13.380300633180664,19.192010366536685
-3.1,-1.05,-9.19,-0.001924107432277,-0.0349915428691975,0.0512734368048004,-156.19500732541923,-13.414914406298776,19.192010366536685
-3.1,-1.05,-9.19,-0.001924107432277,-0.0349915428691975,0.0512734368048004,-156.19500732541923,-13.414914406298776,19.192010366536685
-3.31,-1.0,-9.0,-0.2348520909575743,0.0636142813679333,0.1683463256712585,-156.13951067883625,-13.426452603767608,19.261744588057013
-3.31,-1.0,-9.0,-0.2348520909575743,0.0636142813679333,0.1683463256712585,-156.13951067883625,-13.426452603767608,19.261744588057013
-3.16,-0.98,-9.14,-0.0458312207748691,0.0694883807592755,0.0866360666693619,-156.0841409493743,-13.47260676237266,19.250121718432275
-3.16,-0.98,-9.14,-0.0458312207748691,0.0694883807592755,0.0866360666693619,-156.0841409493743,-13.47260676237266,19.250121718432275
-3.09,-1.07,-9.31,0.0471377716692352,-0.0187450683717564,-0.0607978287393926,-156.0841409493743,-13.4841456448157,19.192010366536685
-3.09,-1.07,-9.31,0.0471377716692352,-0.0187450683717564,-0.0607978287393926,-156.0841409493743,-13.4841456448157,19.192010366536685
-2.99,-1.09,-9.32,0.1394368805779813,-0.0484710243408894,-0.0406241363350954,-156.0841409493743,-13.4841456448157,19.192010366536685
-2.99,-1.09,-9.32,0.1394368805779813,-0.0484710243408894,-0.0406241363350954,-156.0841409493743,-13.4841456448157,19.192010366536685
-3.23,-0.98,-9.18,-0.0922317106052254,0.1222966314503554,0.0269650947745372,-156.02889725740351,-13.4841456448157,19.250121718432275
-3.23,-0.98,-9.18,-0.0922317106052254,0.1222966314503554,0.0269650947745372,-156.02889725740351,-13.4841456448157,19.250121718432275
-3.07,-1.25,-9.26,0.0314536186103662,-0.1532245976640225,-0.0275013559913759,-155.97377873337675,-13.4841456448157,19.284990927591146
-3.07,-1.25,-9.26,0.0314536186103662,-0.1532245976640225,-0.0275013559913759,-155.97377873337675,-13.4841456448157,19.284990927591146
-3.11,-1.03,-9.31,0.0708133923661211,0.0816738027454025,-0.062362861143038,-155.91878451766874,-13.47260676237266,19.343110284151184
-3.11,-1.03,-9.31,0.0708133923661211,0.0816738027454025,-0.062362861143038,-155.91878451766874,-13.47260676237266,19.343110284151184
-3.15,-0.93,-9.15,0.0111513131939863,0.2109409020654758,0.0873249419494239,-155.8639137604186,-13.4841456448157,19.37798430858409
-3.15,-0.93,-9.15,0.0111513131939863,0.2109409020654758,0.0873249419494239,-155.8639137604186,-13.4841456448157,19.37798430858409
-3.07,-1.28,-9.01,-0.0453117348755902,-0.1116318211652857,0.2030629002134905,-155.8639137604186,-13.507223821905177,19.30823806837105
-3.07,-1.28,-9.01,-0.0453117348755902,-0.1116318211652857,0.2030629002134905,-155.8639137604186,-13.507223821905177,19.30823806837105
-3.13,-1.25,-8.97,-0.1071913598955991,-0.0388093093665388,0.2250371999610525,-155.80916562137492,-13.51876311679545,19.284990927591146
-3.13,-1.25,-8.97,-0.1071913598955991,-0.0388093093665388,0.2250371999610525,-155.80916562137492,-13.51876311679545,19.284990927591146
-3.01,-1.12,-9.11,0.0487180225056062,0.1017985958369149,0.1477751379796448,-155.91878451766874,-13.588001782657653,19.08742247639564
-3.01,-1.12,-9.11,0.0487180225056062,0.1017985958369149,0.1477751379796448,-155.91878451766874,-13.588001782657653,19.08742247639564
-3.0,-1.39,-8.96,-0.0470052579533257,-0.0839042000658004,0.2565478753661416,-155.75453926974473,-13.738036026791262,19.05256341690962
-3.0,-1.39,-8.96,-0.0470052579533257,-0.0839042000658004,0.2565478753661416,-155.75453926974473,-13.738036026791262,19.05256341690962
-3.52,-0.06,-8.9,-0.2527079925921171,1.344379940808059,0.3339111539622301,-155.591382770185,-13.991994191085649,19.029325032716933
-3.52,-0.06,-8.9,-0.2527079925921171,1.344379940808059,0.3339111539622301,-155.591382770185,-13.991994191085649,19.029325032716933
-3.03,0.02,-9.65,0.3752771611055747,1.513792440040708,-0.1869179064500397,-155.3754969883622,-14.962299399917931,18.320928845487863
-3.03,0.02,-9.65,0.3752771611055747,1.513792440040708,-0.1869179064500397,-155.3754969883622,-14.962299399917931,18.320928845487863
-2.52,-2.56,-8.91,-0.0382438918129354,-0.861681402565805,0.2385706438694655,-154.63414056108863,-15.748572284340511,17.996001378555594
-2.52,-2.56,-8.91,-0.0382438918129354,-0.861681402565805,0.2385706438694655,-154.63414056108863,-15.748572284340511,17.996001378555594
-2.73,-2.11,-9.22,-0.1153665287662635,-0.2310078499416517,-0.0344234138764463,-154.52996593229264,-16.29245975343786,17.3929494210965
-2.73,-2.11,-9.22,-0.1153665287662635,-0.2310078499416517,-0.0344234138764463,-154.52996593229264,-16.29245975343786,17.3929494210965
-2.26,-1.95,-9.2,0.3275190258907155,-0.1580774736927999,0.1413593783999172,-154.37448496866145,-16.524012627926176,17.230672895970507
-2.26,-1.95,-9.2,0.3275190258907155,-0.1580774736927999,0.1413593783999172,-154.37448496866145,-16.524012627926176,17.230672895970507
-2.49,-2.54,-8.53,-0.3002878575369889,-0.6335841306265602,0.5913910046144633,-154.27134430279995,-16.848301053200124,16.848301053200124
-2.49,-2.54,-8.53,-0.3002878575369889,-0.6335841306265602,0.5913910046144633,-154.27134430279995,-16.848301053200124,16.848301053200124
-1.99,-2.88,-9.12,0.1534424503622556,-0.9695491564091536,0.087322356189798,-154.58200075536982,-16.778799324271787,16.188282864682783
-1.99,-2.88,-9.12,0.1534424503622556,-0.9695491564091536,0.087322356189798,-154.58200075536982,-16.778799324271787,16.188282864682783
-2.91,-3.38,-7.73,-1.2796257876234582,-1.2887520464408908,1.0689686138173062,-155.0021140741398,-16.442961442690333,15.771709071970363
-2.91,-3.38,-7.73,-1.2796257876234582,-1.2887520464408908,1.0689686138173062,-155.0021140741398,-16.442961442690333,15.771709071970363
-2.26,-2.99,-8.72,-0.367988839772934,-0.99731287332374,0.3749984348442261,-155.6456486519571,-15.968397992715149,15.216602467156427
-2.26,-2.99,-8.72,-0.367988839772934,-0.99731287332374,0.3749984348442261,-155.6456486519571,-15.968397992715149,15.216602467156427
-3.11,-3.35,-7.6,-1.5486186135154465,-1.2429433404267176,1.1630701720373755,-156.0841409493743,-15.30909493616346,15.135679738336451
-3.11,-3.35,-7.6,-1.5486186135154465,-1.2429433404267176,1.1630701720373755,-156.0841409493743,-15.30909493616346,15.135679738336451
-4.39,-5.47,-5.66,-3.758249738019103,-3.144351231983936,2.242443879289085,-156.58711361479934,-14.39616145402999,14.754288420181696
-4.39,-5.47,-5.66,-3.758249738019103,-3.144351231983936,2.242443879289085,-156.58711361479934,-14.39616145402999,14.754288420181696
-4.07,-6.01,-4.52,-3.830945305205697,-3.989437113390225,3.2856340065502763,-157.863978815261,-12.596044357776794,13.85346307502466
-4.07,-6.01,-4.52,-3.830945305205697,-3.989437113390225,3.2856340065502763,-157.863978815261,-12.596044357776794,13.85346307502466
-4.06,-5.0,-3.61,-3.8835079945055737,-3.360468307308272,4.501810849546146,-159.9290177639615,-11.063807546045703,12.619102083523115
-4.06,-5.0,-3.61,-3.8835079945055737,-3.360468307308272,4.501810849546146,-159.9290177639615,-11.063807546045703,12.619102083523115
-2.6,-3.99,-4.99,-2.2319229516717924,-2.68628987995791,3.8583253099182295,-163.69974033883318,-9.188627520029687,9.430066128049686
-2.6,-3.99,-4.99,-2.2319229516717924,-2.68628987995791,3.8583253099182295,-163.69974033883318,-9.188627520029687,9.430066128049686
-1.95,-5.16,-4.96,-2.0555306891649447,-4.100086587665547,3.9762311848936407,-167.65213833847682,-7.338875609975954,5.181303758795194
-1.95,-5.16,-4.96,-2.0555306891649447,-4.100086587665547,3.9762311848936407,-167.65213833847682,-7.338875609975954,5.181303758795194
0.92,-3.92,-7.73,0.8068917663880246,-3.115741992959704,1.7068489215387057,-170.9747190636711,-5.938500516393254,1.8220825674649568
0.92,-3.92,-7.73,0.8068917663880246,-3.115741992959704,1.7068489215387057,-170.9747190636711,-5.938500516393254,1.8220825674649568
0.75,-0.73,-8.73,0.4676413128926197,-0.510946136083395,1.0414605754354902,-175.71212631630448,-3.438262641755622,-1.6043342375287626
0.75,-0.73,-8.73,0.4676413128926197,-0.510946136083395,1.0414605754354902,-175.71212631630448,-3.438262641755622,-1.6043342375287626
1.3,0.7,-8.21,0.6733554689222832,0.4488102373631873,1.5042851692237438,-174.8748825337537,-1.6272548279067642,-4.4587366294239885
1.3,0.7,-8.21,0.6733554689222832,0.4488102373631873,1.5042851692237438,-174.8748825337537,-1.6272548279067642,-4.4587366294239885
2.11,0.41,-8.96,0.5566582022383436,-0.5020815834704269,0.6229772200376953,-168.6513771745933,0.1375099038337879,-9.775051491876123
2.11,0.41,-8.96,0.5566582022383436,-0.5020815834704269,0.6229772200376953,-168.6513771745933,0.1375099038337879,-9.775051491876123
2.19,2.25,-8.56,0.104369262226934,1.0200319217407567,0.7468022123309339,-164.35965769726891,2.3263684457528235,-13.034229810442689
2.19,2.25,-8.56,0.104369262226934,1.0200319217407567,0.7468022123309339,-164.35965769726891,2.3263684457528235,-13.034229810442689
4.39,3.88,-9.06,1.180477982625886,1.9057269265346104,-0.7472486452408393,-158.16444882979192,4.263789782102698,-17.219083051744406
4.39,3.88,-9.06,1.180477982625886,1.9057269265346104,-0.7472486452408393,-158.16444882979192,4.263789782102698,-17.219083051744406
4.44,5.75,-8.04,0.4968433283812673,3.348969716713204,-0.4868065887062922,-152.57624392499284,6.2024314124588535,-20.984205642908503
4.44,5.75,-8.04,0.4968433283812673,3.348969716713204,-0.4868065887062922,-152.57624392499284,6.2024314124588535,-20.984205642908503
5.51,7.04,-10.82,-0.3979099267731053,3.3415166543382018,-3.8194291917174734,-148.94411093259438,6.925545442265205,-23.91663071897709
5.51,7.04,-10.82,-0.3979099267731053,3.3415166543382018,-3.8194291917174734,-148.94411093259438,6.925545442265205,-23.91663071897709
5.27,4.12,-7.91,0.4385812694355252,1.5097574212371527,-0.4326702410667717,-146.31308564363076,7.017388604693049,-27.27756943376897
5.27,4.12,-7.91,0.4385812694355252,1.5097574212371527,-0.4326702410667717,-146.31308564363076,7.017388604693049,-27.27756943376897
6.64,4.02,-9.33,0.6263325866396027,0.9858741477584084,-2.273691868328686,-144.65224571956077,7.1207175606295605,-29.32206069578229
6.64,4.02,-9.33,0.6263325866396027,0.9858741477584084,-2.273691868328686,-144.65224571956077,7.1207175606295605,-29.32206069578229
6.66,3.81,-8.01,1.0205571025214164,1.2617347635052356,-1.165965394109806,-143.42720670361226,7.890132207309978,-30.57944178497209
6.66,3.81,-8.01,1.0205571025214164,1.2617347635052356,-1.165965394109806,-143.42720670361226,7.890132207309978,-30.57944178497209
6.37,6.56,-9.54,-0.7314478144755832,3.228806159772644,-2.9863908768718166,-142.5249164652642,9.06217605835773,-30.91220422108664
6.37,6.56,-9.54,-0.7314478144755832,3.228806159772644,-2.9863908768718166,-142.5249164652642,9.06217605835773,-30.91220422108664
6.26,4.54,-8.28,0.0303027474280209,1.995085617674864,-1.3457629730585747,-142.1344807161217,9.25760576115156,-32.055155405875595
6.26,4.54,-8.28,0.0303027474280209,1.995085617674864,-1.3457629730585747,-142.1344807161217,9.25760576115156,-32.055155405875595
7.1,2.71,-7.76,1.2070022069902615,0.6248787983132704,-0.9694519000257812,-141.67799864882886,8.866772764864926,-33.285102998046874
7.1,2.71,-7.76,1.2070022069902615,0.6248787983132704,-0.9694519000257812,-141.67799864882886,8.866772764864926,-33.285102998046874
7.24,3.61,-7.68,0.8476906246010489,1.7161577103081092,-1.1828141961432124,-140.71214769326966,8.993207204284674,-34.92721890485463
7.24,3.61,-7.68,0.8476906246010489,1.7161577103081092,-1.1828141961432124,-140.71214769326966,8.993207204284674,-34.92721890485463
8.59,2.73,-8.48,1.370386616675063,0.8594213618801911,-2.4626138509236544,-139.66874405322235,8.76333445653462,-36.52850049317351
8.59,2.73,-8.48,1.370386616675063,0.8594213618801911,-2.4626138509236544,-139.66874405322235,8.76333445653462,-36.52850049317351
8.08,2.29,-7.55,1.1687260675385802,0.7237698296766037,-1.4024193910201872,-137.91042216197232,8.602444609340731,-38.75612925877516
8.08,2.29,-7.55,1.1687260675385802,0.7237698296766037,-1.4024193910201872,-137.91042216197232,8.602444609340731,-38.75612925877516
10.34,2.08,-10.56,0.3455095153584531,-0.14180681376552,-5.113675532721008,-135.12607315636853,8.671395302011161,-41.80760523510253
10.34,2.08,-10.56,0.3455095153584531,-0.14180681376552,-5.113675532721008,-135.12607315636853,8.671395302011161,-41.80760523510253
6.19,3.93,-5.82,-0.4319579219377389,2.2822085046858738,0.7381144680182938,-132.29797094336487,8.68288738926451,-44.07334918943469
6.19,3.93,-5.82,-0.4319579219377389,2.2822085046858738,0.7381144680182938,-132.29797094336487,8.68288738926451,-44.07334918943469
8.15,2.33,-4.92,1.2474246367005115,0.7942101534238764,0.1179471968404861,-128.0277034878583,7.844187348567063,-48.42223359833176
8.15,2.33,-4.92,1.2474246367005115,0.7942101534238764,0.1179471968404861,-128.0277034878583,7.844187348567063,-48.42223359833176
8.95,0.42,-5.54,1.114666958537706,-1.2896786557442743,-0.5887694978587525,-124.74966789127242,7.269980754447582,-52.09294338177222
8.95,0.42,-5.54,1.114666958537706,-1.2896786557442743,-0.5887694978587525,-124.74966789127242,7.269980754447582,-52.09294338177222
8.89,1.08,-4.67,1.3480852132820136,-0.8965632056498377,-0.1626148011779324,-122.58898532309728,6.11062569758793,-53.64140160793269
8.89,1.08,-4.67,1.3480852132820136,-0.8965632056498377,-0.1626148011779324,-122.58898532309728,6.11062569758793,-53.64140160793269
14.74,7.88,-8.18,0.6171561141166941,2.126807432665199,-8.66955654991626,-120.70844309282911,3.346549205454908,-53.42321798982236
14.74,7.88,-8.18,0.6171561141166941,2.126807432665199,-8.66955654991626,-120.70844309282911,3.346549205454908,-53.42321798982236
11.25,9.78,-5.46,0.6095651067199075,1.5754430015827774,-5.978435040297796,-114.87396927454428,-4.2867240536107065,-52.47589269472505
11.25,9.78,-5.46,0.6095651067199075,1.5754430015827774,-5.978435040297796,-114.87396927454428,-4.2867240536107065,-52.47589269472505
10.01,9.55,-1.42,3.322088810400622,-0.7724948182812534,-3.676153035405493,-103.44135652414452,-16.10726571114575,-51.54513650446032
10.01,9.55,-1.42,3.322088810400622,-0.7724948182812534,-3.676153035405493,-103.44135652414452,-16.10726571114575,-51.54513650446032
3.6,10.03,-0.61,0.7032087612360001,1.002025542088651,-0.7968608455229553,-93.94058643018808,-25.265378432632104,-47.65695432872225
3.6,10.03,-0.61,0.7032087612360001,1.002025542088651,-0.7968608455229553,-93.94058643018808,-25.265378432632104,-47.65695432872225
1.37,11.07,-1.34,-0.2345799576725063,-0.5552710750689487,-1.411818980955026,-81.20389126609984,-39.61974059674283,-43.04911763533004
1.37,11.07,-1.34,-0.2345799576725063,-0.5552710750689487,-1.411818980955026,-81.20389126609984,-39.61974059674283,-43.04911763533004
-0.2,11.5,-1.23,0.2005513193992892,-1.4198137713956465,-1.6714512376979176,-71.38007517925647,-52.65481814526298,-38.95054421712168
-0.2,11.5,-1.23,0.2005513193992892,-1.4198137713956465,-1.6714512376979176,-71.38007517925647,-52.65481814526298,-38.95054421712168
-0.19,6.58,-2.48,-0.8276200500862181,-2.492863938772622,3.28104087628884,-62.30262894881712,-67.4489827766823,-33.548317235556404
-0.19,6.58,-2.48,-0.8276200500862181,-2.492863938772622,3.28104087628884,-62.30262894881712,-67.4489827766823,-33.548317235556404
-2.35,8.52,-3.58,-1.2549171377501618,-2.306442674942952,0.6396000293397021,-57.26633156409672,-74.91892947359995,-29.582724563014253
-2.35,8.52,-3.58,-1.2549171377501618,-2.306442674942952,0.6396000293397021,-57.26633156409672,-74.91892947359995,-29.582724563014253
-6.61,8.24,-1.56,0.7140412306657493,-0.3819643804337236,-0.8407697969737846,-47.40653562717492,-83.01223334311237,-21.368908312577144
-6.61,8.24,-1.56,0.7140412306657493,-0.3819643804337236,-0.8407697969737846,-47.40653562717492,-83.01223334311237,-21.368908312577144
-5.82,4.64,-3.4,-1.2970017423270486,-0.6063541036262348,1.7498441079968805,-37.57994324822506,-92.70501720124948,-14.661854827129083
-5.82,4.64,-3.4,-1.2970017423270486,-0.6063541036262348,1.7498441079968805,-37.57994324822506,-92.70501720124948,-14.661854827129083
-4.51,3.29,-2.97,-1.1671246577905603,-0.6770160505133151,3.628902085061692,-33.6081640231361,-96.645110284176,-12.365495103087907
-4.51,3.29,-2.97,-1.1671246577905603,-0.6770160505133151,3.628902085061692,-33.6081640231361,-96.645110284176,-12.365495103087907
-7.42,4.59,-2.57,-0.3676451105800754,-0.6085687863358735,0.7389115220241234,-30.38941055279805,-95.44579560430292,-10.822063795614437
-7.42,4.59,-2.57,-0.3676451105800754,-0.6085687863358735,0.7389115220241234,-30.38941055279805,-95.44579560430292,-10.822063795614437
-4.31,3.16,-3.0,-1.6610572244634807,-1.2240758425787392,4.035668521198251,-29.92656655764556,-93.89021932509144,-9.556550648732504
-4.31,3.16,-3.0,-1.6610572244634807,-1.2240758425787392,4.035668521198251,-29.92656655764556,-93.89021932509144,-9.556550648732504
-1.94,1.12,-2.42,-1.807053051522308,-0.4934648213925569,7.0927134239113245,-34.05132504616154,-92.67181786365629,-9.25760576115156
-1.94,1.12,-2.42,-1.807053051522308,-0.4934648213925569,7.0927134239113245,-34.05132504616154,-92.67181786365629,-9.25760576115156
2.31,-2.7,-5.06,-5.7482762197422455,-0.5862894654051864,12.0073965015991,-38.07658496090942,-90.68157114407572,-11.685663847129462
2.31,-2.7,-5.06,-5.7482762197422455,-0.5862894654051864,12.0073965015991,-38.07658496090942,-90.68157114407572,-11.685663847129462
2.42,-3.63,-1.96,-2.8225377847315616,-0.7644538280032969,13.591328427371838,-55.01955829122679,-78.839968934118,-23.331277218076693
2.42,-3.63,-1.96,-2.8225377847315616,-0.7644538280032969,13.591328427371838,-55.01955829122679,-78.839968934118,-23.331277218076693
6.11,-0.93,2.47,3.443377276289845,-5.2322643531708986,12.057086106995229,-73.03952240082316,-62.59743692135864,-39.99754361581977
6.11,-0.93,2.47,3.443377276289845,-5.2322643531708986,12.057086106995229,-73.03952240082316,-62.59743692135864,-39.99754361581977
6.05,20.77,6.81,6.303406384809419,1.618529113820923,-11.919346673470654,-73.05378191708796,-43.59162801664085,-66.35026504226904
6.05,20.77,6.81,6.303406384809419,1.618529113820923,-11.919346673470654,-73.05378191708796,-43.59162801664085,-66.35026504226904
-0.02,15.74,4.94,-0.46955269508753,6.179466442805687,-5.482081626553407,-63.49812368940196,-33.105742400688804,-77.55533546921926
-0.02,15.74,4.94,-0.46955269508753,6.179466442805687,-5.482081626553407,-63.49812368940196,-33.105742400688804,-77.55533546921926
3.89,11.61,8.58,3.8671309571720296,3.925112308360445,-4.0922489321758535,-64.9185496744115,-27.006438787370872,-86.36116191059776
3.89,11.61,8.58,3.8671309571720296,3.925112308360445,-4.0922489321758535,-64.9185496744115,-27.006438787370872,-86.36116191059776
8.97,15.11,6.35,-1.109742389743028,2.77865089843041,-8.636318064090426,-64.07848807925822,-21.0191686635752,-90.79574936750706
8.97,15.11,6.35,-1.109742389743028,2.77865089843041,-8.636318064090426,-64.07848807925822,-21.0191686635752,-90.79574936750706
9.47,10.48,5.75,-0.0007233762482814,0.0421183161945624,-5.443662309069866,-64.34905178938227,-19.33148601143644,-91.58182113625664
9.47,10.48,5.75,-0.0007233762482814,0.0421183161945624,-5.443662309069866,-64.34905178938227,-19.33148601143644,-91.58182113625664
9.63,12.3,3.71,-2.1363101224326457,1.6744489579952146,-6.018121712345829,-68.40230300517993,-16.003112701402525,-89.90170904203455
9.63,12.3,3.71,-2.1363101224326457,1.6744489579952146,-6.018121712345829,-68.40230300517993,-16.003112701402525,-89.90170904203455
11.09,7.29,1.64,0.440740961368711,-1.8243261538034463,-3.4334172766236564,-80.22642428776203,-14.708070420797664,-81.35490406773994
11.09,7.29,1.64,0.440740961368711,-1.8243261538034463,-3.4334172766236564,-80.22642428776203,-14.708070420797664,-81.35490406773994
11.33,7.8,1.51,2.1202710260676487,-0.2821360478028447,-3.8649940133053566,-90.25848391058588,-11.236511835589646,-73.33924904872958
11.33,7.8,1.51,2.1202710260676487,-0.2821360478028447,-3.8649940133053566,-90.25848391058588,-11.236511835589646,-73.33924904872958
12.45,8.62,-1.94,1.4156339397347162,-0.1023840037972592,-5.393876243010062,-101.33846927981492,-7.3733240323499585,-63.99739696031453
12.45,8.62,-1.94,1.4156339397347162,-0.1023840037972592,-5.393876243010062,-101.33846927981492,-7.3733240323499585,-63.99739696031453
12.02,7.11,-1.71,3.53510912649551,0.0819456379378391,-3.81145883993042,-109.43221295455638,-5.261601195679236,-56.51045043124189
12.02,7.11,-1.71,3.53510912649551,0.0819456379378391,-3.81145883993042,-109.43221295455638,-5.261601195679236,-56.51045043124189
8.82,7.08,0.99,5.336645453570402,3.537344508195061,0.4308135502090469,-119.15163191547693,-2.7619239753850606,-45.74726752330664
8.82,7.08,0.99,5.336645453570402,3.537344508195061,0.4308135502090469,-119.15163191547693,-2.7619239753850606,-45.74726752330664
7.05,6.32,-0.96,3.604193961296663,2.621352208656884,1.3980354596894315,-123.52645816564733,-2.0971425933011094,-39.93657709614047
7.05,6.32,-0.96,3.604193961296663,2.621352208656884,1.3980354596894315,-123.52645816564733,-2.0971425933011094,-39.93657709614047
5.11,3.34,-0.41,3.48665533498818,1.2808843921195423,4.944719339344396,-128.23732310544656,-1.8908465277120163,-33.8955603834521
5.11,3.34,-0.41,3.48665533498818,1.2808843921195423,4.944719339344396,-128.23732310544656,-1.8908465277120163,-33.8955603834521
3.34,4.54,0.91,2.6520456833221915,3.425500628544748,6.088061674114536,-130.16081866157813,-1.0084187350403075,-28.61194247203445
3.34,4.54,0.91,2.6520456833221915,3.425500628544748,6.088061674114536,-130.16081866157813,-1.0084187350403075,-28.61194247203445
4.55,7.85,-1.45,2.2591990501157366,4.117042637604484,1.908961757729175,-129.72743673627951,-0.9167422509706517,-26.8414782366778
4.55,7.85,-1.45,2.2591990501157366,4.117042637604484,1.908961757729175,-129.72743673627951,-0.9167422509706517,-26.8414782366778
2.63,6.01,-2.28,0.6505343314238254,2.5085271688624866,3.3630875903761366,-130.10645331555745,-2.142987063023817,-25.88816308640127
2.63,6.01,-2.28,0.6505343314238254,2.5085271688624866,3.3630875903761366,-130.10645331555745,-2.142987063023817,-25.88816308640127
2.7,4.53,-1.32,1.2645278396952797,1.9675395975393608,4.899200838291828,-129.3510733053071,-3.5529075421905287,-27.855717200127582
2.7,4.53,-1.32,1.2645278396952797,1.9675395975393608,4.899200838291828,-129.3510733053071,-3.5529075421905287,-27.855717200127582
6.05,5.02,-6.8,0.9702594382911952,-2.0414345399631,-0.3389915096065987,-126.47990511760632,-5.307486603594608,-32.01938920775377
6.05,5.02,-6.8,0.9702594382911952,-2.0414345399631,-0.3389915096065987,-126.47990511760632,-5.307486603594608,-32.01938920775377
1.36,6.15,-2.74,-1.2031114169884467,2.4134880772364684,3.4894276499992127,-123.86648635871312,-5.491036825631306,-34.315074743396394
1.36,6.15,-2.74,-1.2031114169884467,2.4134880772364684,3.4894276499992127,-123.86648635871312,-5.491036825631306,-34.315074743396394
3.47,5.85,-5.22,-1.5302283629009603,0.0135611918521485,1.3704175914275003,-119.99417813762396,-6.145052377433652,-39.76593345094053
3.47,5.85,-5.22,-1.5302283629009603,0.0135611918521485,1.3704175914275003,-119.99417813762396,-6.145052377433652,-39.76593345094053
1.41,-1.65,-2.73,-0.5405275314370126,-3.2293770088704283,8.605627884326148,-118.36422556879909,-3.908329853329541,-45.13852596002858
1.41,-1.65,-2.73,-0.5405275314370126,-3.2293770088704283,8.605627884326148,-118.36422556879909,-3.908329853329541,-45.13852596002858
0.68,-3.63,4.78,4.900304239339143,-0.1996604638217052,13.332958843692126,-113.3567321523323,-0.3093975852894872,-50.4026226278441
0.68,-3.63,4.78,4.900304239339143,-0.1996604638217052,13.332958843692126,-113.3567321523323,-0.3093975852894872,-50.4026226278441
10.91,3.98,6.2,7.767411976526949,2.2888704324634985,-0.5729879190364889,-95.872524082521,3.2319104185008167,-62.115262460964935
10.91,3.98,6.2,7.767411976526949,2.2888704324634985,-0.5729879190364889,-95.872524082521,3.2319104185008167,-62.115262460964935
16.0,8.46,2.14,2.530814795325787,-1.7419757843275274,-8.157528156502918,-84.304040393457,6.190955481383822,-66.50092772303125
16.0,8.46,2.14,2.530814795325787,-1.7419757843275274,-8.157528156502918,-84.304040393457,6.190955481383822,-66.50092772303125
10.22,8.62,10.57,2.1390451610712,6.3407779752404405,-5.8680659613054456,-71.93128239622219,13.576461659580188,-71.36596675624855
10.22,8.62,10.57,2.1390451610712,6.3407779752404405,-5.8680659613054456,-71.93128239622219,13.576461659580188,-71.36596675624855
14.07,17.09,4.21,-10.50388731138282,0.2015471700317093,-10.127863540290454,-61.08801371359053,19.18038869449432,-75.3236892986672
14.07,17.09,4.21,-10.50388731138282,0.2015471700317093,-10.127863540290454,-61.08801371359053,19.18038869449432,-75.3236892986672
12.49,16.79,2.02,-13.5403519795339,-1.389257761308805,-6.215629211865447,-54.864572903487776,22.804986838376163,-79.43458474445285
12.49,16.79,2.02,-13.5403519795339,-1.389257761308805,-6.215629211865447,-54.864572903487776,22.804986838376163,-79.43458474445285
14.38,11.41,1.78,-9.540453838370247,-3.778505328113937,-5.517955640711966,-52.386481614636175,19.66867198617123,-86.20411602380804
14.38,11.41,1.78,-9.540453838370247,-3.778505328113937,-5.517955640711966,-52.386481614636175,19.66867198617123,-86.20411602380804
14.37,10.03,-0.74,-9.324998043496672,-6.316515681076658,-3.6392207839803294,-51.76155935207183,17.798795314151782,-87.03877731535627
14.37,10.03,-0.74,-9.324998043496672,-6.316515681076658,-3.6392207839803294,-51.76155935207183,17.798795314151782,-87.03877731535627
10.99,7.23,1.16,-5.235348169054628,-3.894018241128805,-1.6749157245226076,-54.24571355108697,15.494110041456644,-84.61355507220527
10.99,7.23,1.16,-5.235348169054628,-3.894018241128805,-1.6749157245226076,-54.24571355108697,15.494110041456644,-84.61355507220527
9.8,3.68,1.02,-1.5877366651811629,-4.370924734073125,0.3728326787292939,-57.24022157573342,13.138038375794716,-82.24939344216158
9.8,3.68,1.02,-1.5877366651811629,-4.370924734073125,0.3728326787292939,-57.24022157573342,13.138038375794716,-82.24939344216158
8.15,0.49,2.56,2.2630126508267683,-3.270598586960133,2.2304927534024603,-60.79551422894158,10.361732200036483,-80.16650253253808
8.15,0.49,2.56,2.2630126508267683,-3.270598586960133,2.2304927534024603,-60.79551422894158,10.361732200036483,-80.16650253253808
6.74,1.52,4.3,2.4105483380927293,-0.6925858184656839,2.064713446799722,-62.62426048552695,10.074110549810433,-78.48441476201302
6.74,1.52,4.3,2.4105483380927293,-0.6925858184656839,2.064713446799722,-62.62426048552695,10.074110549810433,-78.48441476201302
6.46,3.66,4.66,0.954329126837288,0.7455450661911187,1.1247021498946967,-64.07848807925822,12.042810329741007,-75.36712180089249
6.46,3.66,4.66,0.954329126837288,0.7455450661911187,1.1247021498946967,-64.07848807925822,12.042810329741007,-75.36712180089249
6.56,4.54,4.81,0.2921952916585191,1.1318664702946892,0.5646372211214068,-63.99739696031453,13.380300633180664,-73.78277317194505
6.56,4.54,4.81,0.2921952916585191,1.1318664702946892,0.5646372211214068,-63.99739696031453,13.380300633180664,-73.78277317194505
6.17,4.72,4.47,-0.1473639236219188,1.191997760835575,0.9248919976573476,-64.05145371860036,14.072813487232237,-73.05378191708796
6.17,4.72,4.47,-0.1473639236219188,1.191997760835575,0.9248919976573476,-64.05145371860036,14.072813487232237,-73.05378191708796
6.25,4.18,3.96,0.1382500317202653,0.6073443637550746,1.3314792198596823,-64.24077819073915,14.315313760812993,-71.9737624996918
6.25,4.18,3.96,0.1382500317202653,0.6073443637550746,1.3314792198596823,-64.24077819073915,14.315313760812993,-71.9737624996918
6.17,3.24,4.39,1.1312360745602077,0.7952269760812172,1.687135297745538,-64.55223852912117,14.523222401516824,-71.56359842931408
6.17,3.24,4.39,1.1312360745602077,0.7952269760812172,1.687135297745538,-64.55223852912117,14.523222401516824,-71.56359842931408
7.76,3.22,3.59,1.170524115427908,-0.5977077070881245,0.7652607930202908,-64.94571342127749,15.216602467156427,-71.64837292642449
7.76,3.22,3.59,1.170524115427908,-0.5977077070881245,0.7652607930202908,-64.94571342127749,15.216602467156427,-71.64837292642449
7.92,3.95,4.31,0.8324397561323511,0.2506596739968385,0.0010794515697813,-65.06800105005402,16.5471716366683,-71.40829576929687
7.92,3.95,4.31,0.8324397561323511,0.2506596739968385,0.0010794515697813,-65.06800105005402,16.5471716366683,-71.40829576929687
7.52,5.15,4.87,-0.2299511699033572,1.3986298851471246,-0.4295972080266529,-64.82350878733949,18.75052573300884,-70.24128817122835
7.52,5.15,4.87,-0.2299511699033572,1.3986298851471246,-0.4295972080266529,-64.82350878733949,18.75052573300884,-70.24128817122835
6.34,5.19,4.68,-0.7772281551687481,1.8897012949181256,0.5947530503594027,-64.5657923959142,20.075850034388896,-69.01303790274106
6.34,5.19,4.68,-0.7772281551687481,1.8897012949181256,0.5947530503594027,-64.5657923959142,20.075850034388896,-69.01303790274106
7.05,5.27,3.48,-1.2046320681823364,0.5197927914807239,0.4330446619120263,-64.0109096555285,20.786119068432164,-68.81847155097867
7.05,5.27,3.48,-1.2046320681823364,0.5197927914807239,0.4330446619120263,-64.0109096555285,20.786119068432164,-68.81847155097867
8.92,5.29,1.97,-1.4216259777600384,-1.713258727684843,-0.5120284091456959,-63.48464854041524,20.378490735265764,-70.32536827305816
8.92,5.29,1.97,-1.4216259777600384,-1.713258727684843,-0.5120284091456959,-63.48464854041524,20.378490735265764,-70.32536827305816
9.94,4.57,1.53,-0.8724589026758004,-2.8173107667546624,-0.8390522082467609,-63.09429398938783,19.57563811342796,-72.01625404214369
9.94,4.57,1.53,-0.8724589026758004,-2.8173107667546624,-0.8390522082467609,-63.09429398938783,19.57563811342796,-72.01625404214369
10.4,4.8,1.54,-1.153727536413461,-3.1877429782812605,-1.2422778880866918,-61.821201404862826,19.261744588057013,-73.13936663783453
10.4,4.8,1.54,-1.153727536413461,-3.1877429782812605,-1.2422778880866918,-61.821201404862826,19.261744588057013,-73.13936663783453
8.52,5.95,2.15,-2.431280077356522,-1.4671861110325768,-0.4183997358713309,-61.16786271295341,20.11076285425295,-72.75460720541858
8.52,5.95,2.15,-2.431280077356522,-1.4671861110325768,-0.4183997358713309,-61.16786271295341,20.11076285425295,-72.75460720541858
7.61,6.07,2.69,-2.6384880704003058,-0.4190398609633101,0.0672513380045298,-61.15455226396579,20.82107094211026,-72.98249746822417
7.61,6.07,2.69,-2.6384880704003058,-0.4190398609633101,0.0672513380045298,-61.15455226396579,20.82107094211026,-72.98249746822417
9.08,5.25,2.12,-1.9103201871667048,-1.7455923024653908,-0.5763594046031244,-61.38095442802087,20.471639758994087,-74.24196019139418
9.08,5.25,2.12,-1.9103201871667048,-1.7455923024653908,-0.5763594046031244,-61.38095442802087,20.471639758994087,-74.24196019139418
9.38,5.11,2.25,-1.7815048166922804,-1.6951383464588277,-0.8287506306517242,-61.84791552643628,19.947852442498814,-75.6860165897593
9.38,5.11,2.25,-1.7815048166922804,-1.6951383464588277,-0.8287506306517242,-61.84791552643628,19.947852442498814,-75.6860165897593
8.98,5.51,2.57,-2.045516093854037,-0.9626702233513532,-0.7996938540741656,-62.5706171740576,20.040939097265657,-75.75858878812349
8.98,5.51,2.57,-2.045516093854037,-0.9626702233513532,-0.7996938540741656,-62.5706171740576,20.040939097265657,-75.75858878812349
8.54,5.18,3.03,-1.5504807917839578,-0.3163577142796936,-0.5103663860936418,-63.48464854041524,20.087487431641744,-75.48300403742995
8.54,5.18,3.03,-1.5504807917839578,-0.3163577142796936,-0.5103663860936418,-63.48464854041524,20.087487431641744,-75.48300403742995
7.75,4.58,3.87,-0.6336974463480338,0.8014526394115298,0.0612971991378223,-65.16317122703664,19.72682480222871,-75.39608386757837
7.75,4.58,3.87,-0.6336974463480338,0.8014526394115298,0.0612971991378223,-65.16317122703664,19.72682480222871,-75.39608386757837
8.19,4.1,3.11,-0.3693259836101788,-0.0620102770945778,0.1413536753462647,-66.35026504226904,19.192010366536685,-75.43953757831886
8.19,4.1,3.11,-0.3693259836101788,-0.0620102770945778,0.1413536753462647,-66.35026504226904,19.192010366536685,-75.43953757831886
8.11,3.64,3.04,0.1343627946009845,-0.0837683982320132,0.4131293876372073,-68.02862779063561,18.344143604670897,-75.61348008001588
8.11,3.64,3.04,0.1343627946009845,-0.0837683982320132,0.4131293876372073,-68.02862779063561,18.344143604670897,-75.61348008001588
8.22,3.33,2.78,0.3948833591861573,-0.3629162782992929,0.5277460287551587,-69.1660709028975,17.798795314151782,-75.5844754506404
8.22,3.33,2.78,0.3948833591861573,-0.3629162782992929,0.5277460287551587,-69.1660709028975,17.798795314151782,-75.5844754506404
7.42,2.99,3.43,1.0449066535530878,0.5043766812222423,1.1802269725337649,-70.76047732673608,17.161136490218524,-75.17900592971374
7.42,2.99,3.43,1.0449066535530878,0.5043766812222423,1.1802269725337649,-70.76047732673608,17.161136490218524,-75.17900592971374
7.08,2.87,3.48,1.179792458454732,0.6644706866131739,1.5217077273221058,-71.36596675624855,16.674558377811383,-75.12117195535056
7.08,2.87,3.48,1.179792458454732,0.6644706866131739,1.5217077273221058,-71.36596675624855,16.674558377811383,-75.12117195535056
7.34,3.26,3.44,0.918508452703818,0.670899485684314,1.1439116279596568,-71.63424070118842,15.979969398223384,-75.88930894202932
7.34,3.26,3.44,0.918508452703818,0.670899485684314,1.1439116279596568,-71.63424070118842,15.979969398223384,-75.88930894202932
8.28,4.06,2.66,-0.0084037014500358,-0.0209650261162424,0.2088851640873272,-71.54947374195106,15.679165793853407,-76.48629178886966
8.28,4.06,2.66,-0.0084037014500358,-0.0209650261162424,0.2088851640873272,-71.54947374195106,15.679165793853407,-76.48629178886966
8.79,4.11,2.13,-0.3054623504881089,-0.6260014265074874,-0.1033406642965548,-71.57772437161505,15.239724647140951,-77.26165547882309
8.79,4.11,2.13,-0.3054623504881089,-0.6260014265074874,-0.1033406642965548,-71.57772437161505,15.239724647140951,-77.26165547882309
8.55,3.9,2.29,-0.107254249303845,-0.4839573766363263,0.1468942171861531,-71.6766411521629,14.84673166768115,-77.79071544905813
8.55,3.9,2.29,-0.107254249303845,-0.4839573766363263,0.1468942171861531,-71.6766411521629,14.84673166768115,-77.79071544905813
8.65,4.06,2.25,-0.2125081810704929,-0.3829390960507609,-0.0003270022007271,-72.21469959987994,14.927627478593791,-77.79071544905813
8.65,4.06,2.25,-0.2125081810704929,-0.3829390960507609,-0.0003270022007271,-72.21469959987994,14.927627478593791,-77.79071544905813
7.93,3.87,2.69,0.1025814389613064,0.2311780768264522,0.5852654106243094,-72.54126289658385,14.950741939900691,-77.70240232798936
7.93,3.87,2.69,0.1025814389613064,0.2311780768264522,0.5852654106243094,-72.54126289658385,14.950741939900691,-77.70240232798936
8.0,3.92,2.28,-0.170225116713118,-0.0686825774058104,0.6125700507499996,-72.62656558446132,14.89295693159816,-77.74655203029216
8.0,3.92,2.28,-0.170225116713118,-0.0686825774058104,0.6125700507499996,-72.62656558446132,14.89295693159816,-77.74655203029216
8.27,4.53,2.13,-0.6938087589113604,-0.0151692526321545,0.1646014987824049,-72.52705031289004,14.973857013009212,-77.73183393976127
8.27,4.53,2.13,-0.6938087589113604,-0.0151692526321545,0.1646014987824049,-72.52705031289004,14.973857013009212,-77.73183393976127
8.76,4.96,2.02,-0.9775757983020096,-0.1617991229499611,-0.4128297618267673,-72.42759839996175,15.008530771963963,-77.39373685475255
8.76,4.96,2.02,-0.9775757983020096,-0.1617991229499611,-0.4128297618267673,-72.42759839996175,15.008530771963963,-77.39373685475255
8.2,4.67,2.58,-0.4420422025090754,0.3547886572130783,0.0401755235108591,-72.640787235407,14.950741939900691,-76.82225926226535
8.2,4.67,2.58,-0.4420422025090754,0.3547886572130783,0.0401755235108591,-72.640787235407,14.950741939900691,-76.82225926226535
8.02,3.92,2.63,0.1933136009233321,0.0914332265465272,0.5029964264418503,-72.82578699012866,14.673408500442047,-76.54466504445786
8.02,3.92,2.63,0.1933136009233321,0.0914332265465272,0.5029964264418503,-72.82578699012866,14.673408500442047,-76.54466504445786
8.22,3.71,2.5,0.3488777577735154,-0.241882117247205,0.4577314876004514,-72.86851051764684,14.2344732300193,-76.6030617698578
8.22,3.71,2.5,0.3488777577735154,-0.241882117247205,0.4577314876004514,-72.86851051764684,14.2344732300193,-76.6030617698578
8.49,3.99,2.03,-0.1201784826880477,-0.6218274468746097,0.2295947240494502,-72.65501018396799,14.118999098561428,-76.77839320064767
8.49,3.99,2.03,-0.1201784826880477,-0.6218274468746097,0.2295947240494502,-72.65501018396799,14.118999098561428,-76.77839320064767
8.98,4.49,1.53,-0.7702472535137266,-1.023358223249052,-0.2681133776363751,-72.31401640199769,14.026630173419028,-77.17366878994224
8.98,4.49,1.53,-0.7702472535137266,-1.023358223249052,-0.2681133776363751,-72.31401640199769,14.026630173419028,-77.17366878994224
8.58,4.65,2.1,-0.6099082188949,-0.3274828524219071,-0.151746806007182,-72.37079710684984,14.08435967436596,-77.07108573183801
8.58,4.65,2.1,-0.6099082188949,-0.3274828524219071,-0.151746806007182,-72.37079710684984,14.08435967436596,-77.07108573183801
8.01,4.21,2.69,0.0387956751605956,0.1503863742086228,0.3675727763493093,-72.4986290240276,14.095906005217,-76.50088290484744
8.01,4.21,2.69,0.0387956751605956,0.1503863742086228,0.3675727763493093,-72.4986290240276,14.095906005217,-76.50088290484744
7.0,4.54,2.97,-0.218078675785029,0.9744545564020616,1.006912503422324,-72.54126289658385,14.25756979612918,-75.91837365235722
7.0,4.54,2.97,-0.218078675785029,0.9744545564020616,1.006912503422324,-72.54126289658385,14.25756979612918,-75.91837365235722
8.14,5.04,2.26,-0.8541388153581402,0.1008150933940186,0.0072069953674134,-72.18633490403623,14.095906005217,-76.50088290484744
8.14,5.04,2.26,-0.8541388153581402,0.1008150933940186,0.0072069953674134,-72.18633490403623,14.095906005217,-76.50088290484744
9.27,5.23,1.51,-1.3146761080978222,-0.9268822242190602,-0.8224805417340448,-71.90296867479128,13.668786527863627,-77.40842008878053
9.27,5.23,1.51,-1.3146761080978222,-0.9268822242190602,-0.8224805417340448,-71.90296867479128,13.668786527863627,-77.40842008878053
