acc_x,acc_y,acc_z,lin_x,lin_y,lin_z,eul_x,eul_y,eul_z
1.93,-1.27,-9.63,-0.0241518169111291,-0.0027860238623935,-0.0965872953398889,-150.56941987552764,-26.00575632582789,-9.418568108565768
1.93,-1.27,-9.63,-0.0241518169111291,-0.0027860238623935,-0.0965872953398889,-150.56941987552764,-26.00575632582789,-9.418568108565768
1.87,-1.12,-9.74,-0.0135506190859798,0.1565521468035331,-0.1730397650204338,-150.61456567249238,-26.00575632582789,-9.3380846266553
1.87,-1.12,-9.74,-0.0135506190859798,0.1565521468035331,-0.1730397650204338,-150.61456567249238,-26.00575632582789,-9.3380846266553
1.76,-1.47,-9.47,-0.2102509499957182,-0.1624212341062481,0.0665876859931042,-150.65977940351803,-26.00575632582789,-9.188627520029687
1.76,-1.47,-9.47,-0.2102509499957182,-0.1624212341062481,0.0665876859931042,-150.65977940351803,-26.00575632582789,-9.188627520029687
1.82,-1.1,-9.58,0.0050994149915602,0.1473748956745764,-0.0054371702248801,-150.70506138327715,-25.99399574998519,-9.119652615329128
1.82,-1.1,-9.58,0.0050994149915602,0.1473748956745764,-0.0054371702248801,-150.70506138327715,-25.99399574998519,-9.119652615329128
1.82,-1.16,-9.74,-0.0390478832278766,0.1482623044140653,-0.1684236113527131,-150.70506138327715,-25.970475433904987,-9.142643881088318
1.82,-1.16,-9.74,-0.0390478832278766,0.1482623044140653,-0.1684236113527131,-150.70506138327715,-25.970475433904987,-9.142643881088318
1.63,-1.11,-9.47,-0.1459283383957194,0.2448693517340453,0.1376974238088006,-150.61456567249238,-25.970475433904987,-9.13114820216436
1.63,-1.11,-9.47,-0.1459283383957194,0.2448693517340453,0.1376974238088006,-150.61456567249238,-25.970475433904987,-9.13114820216436
1.7,-1.41,-9.55,-0.2347487113883955,0.0522202486287802,0.0075293206668476,-150.43438697810743,-25.99399574998519,-9.280599254023052
1.7,-1.41,-9.55,-0.2347487113883955,0.0522202486287802,0.0075293206668476,-150.43438697810743,-25.99399574998519,-9.280599254023052
2.05,-1.81,-9.63,-0.1314627686183208,-0.3528422073212601,-0.1970353167820047,-150.21066214535367,-25.99399574998519,-9.476059158737444
2.05,-1.81,-9.63,-0.1314627686183208,-0.3528422073212601,-0.1970353167820047,-150.21066214535367,-25.99399574998519,-9.476059158737444
2.22,-1.69,-9.79,0.0163400448992248,-0.2557150270134672,-0.3699379757358869,-150.0772121119661,-26.00575632582789,-9.717547848465047
2.22,-1.69,-9.79,0.0163400448992248,-0.2557150270134672,-0.3699379757358869,-150.0772121119661,-26.00575632582789,-9.717547848465047
2.53,-2.23,-9.9,0.0313929221730656,-0.8214492762870301,-0.6196645727972818,-150.0772121119661,-25.9116795113663,-9.76355056625781
2.53,-2.23,-9.9,0.0313929221730656,-0.8214492762870301,-0.6196645727972818,-150.0772121119661,-25.9116795113663,-9.76355056625781
2.74,-2.48,-10.24,0.1855732891865828,-1.096547075930026,-1.0228812486095098,-150.70506138327715,-25.523799625853453,-9.154139652218912
2.74,-2.48,-10.24,0.1855732891865828,-1.096547075930026,-1.0228812486095098,-150.70506138327715,-25.523799625853453,-9.154139652218912
1.71,-1.44,-9.43,0.0491203056267047,-0.139489912824398,0.116411109250432,-151.95469309277132,-24.995350383000986,-7.614481849246592
1.71,-1.44,-9.43,0.0491203056267047,-0.139489912824398,0.116411109250432,-151.95469309277132,-24.995350383000986,-7.614481849246592
0.36,0.35,-8.9,-0.1855197797146214,1.6244605429195396,1.0437275219774875,-153.21193002249612,-24.64335146895964,-6.17947961245989
0.36,0.35,-8.9,-0.1855197797146214,1.6244605429195396,1.0437275219774875,-153.21193002249612,-24.64335146895964,-6.17947961245989
-0.49,-0.51,-7.46,-1.3272483085637805,1.026009057577973,2.503396112780786,-152.81901206638815,-24.70200146162693,-7.1781250358345785
-0.49,-0.51,-7.46,-1.3272483085637805,1.026009057577973,2.503396112780786,-152.81901206638815,-24.70200146162693,-7.1781250358345785
3.09,0.83,-9.58,1.1943978438024458,1.6798288350356565,-0.0809679576125841,-148.7733502639536,-25.65305965168436,-14.061267443693245
3.09,0.83,-9.58,1.1943978438024458,1.6798288350356565,-0.0809679576125841,-148.7733502639536,-25.65305965168436,-14.061267443693245
3.73,-3.03,-9.58,-0.5332347707520981,-1.2079057700152975,-0.8294594545902765,-145.2612378633091,-26.00575632582789,-17.729205890532434
3.73,-3.03,-9.58,-0.5332347707520981,-1.2079057700152975,-0.8294594545902765,-145.2612378633091,-26.00575632582789,-17.729205890532434
4.11,-1.95,-9.22,0.0761027845916503,-0.0945014025173427,-0.4738304290023194,-142.91931394004666,-26.38224270571989,-19.83151281371854
4.11,-1.95,-9.22,0.0761027845916503,-0.0945014025173427,-0.4738304290023194,-142.91931394004666,-26.38224270571989,-19.83151281371854
4.61,-1.7,-9.24,0.3073756927376461,0.2473651249540364,-0.6510758846496127,-140.71214769326966,-27.006438787370872,-21.7305176882842
4.61,-1.7,-9.24,0.3073756927376461,0.2473651249540364,-0.6510758846496127,-140.71214769326966,-27.006438787370872,-21.7305176882842
4.39,-2.93,-9.32,-0.7043483013857553,-0.4519357732148179,-0.8713201969627047,-139.07460705159409,-27.690458980540107,-22.86343926833653
4.39,-2.93,-9.32,-0.7043483013857553,-0.4519357732148179,-0.8713201969627047,-139.07460705159409,-27.690458980540107,-22.86343926833653
4.48,-3.29,-8.5,-0.603631758597864,-0.9351147758557709,-0.2881847711088525,-138.48861330559183,-27.57245336826063,-23.2493773342699
4.48,-3.29,-8.5,-0.603631758597864,-0.9351147758557709,-0.2881847711088525,-138.48861330559183,-27.57245336826063,-23.2493773342699
4.56,-2.67,-8.84,-0.291048458140616,-0.3227380200415122,-0.4831134066791663,-138.6505925631453,-27.47807034873948,-23.08561363949995
4.56,-2.67,-8.84,-0.291048458140616,-0.3227380200415122,-0.4831134066791663,-138.6505925631453,-27.47807034873948,-23.08561363949995
4.84,-1.96,-8.93,0.394143501252217,0.081363298116267,-0.5301836986787336,-139.66874405322235,-27.053580833430228,-22.349262916740443
4.84,-1.96,-8.93,0.394143501252217,0.081363298116267,-0.5301836986787336,-139.66874405322235,-27.053580833430228,-22.349262916740443
4.43,-2.34,-9.05,-0.1243971139180241,-0.0525505481875234,-0.5366939369448644,-139.96897956123578,-26.86504055226497,-22.139049946746336
4.43,-2.34,-9.05,-0.1243971139180241,-0.0525505481875234,-0.5366939369448644,-139.96897956123578,-26.86504055226497,-22.139049946746336
5.14,-3.5,-9.35,-0.0786468030751174,-1.2006907121606418,-1.3577692188441794,-140.54206620040912,-26.57059440264536,-21.53218888989049
5.14,-3.5,-9.35,-0.0786468030751174,-1.2006907121606418,-1.3577692188441794,-140.54206620040912,-26.57059440264536,-21.53218888989049
3.73,-2.43,-8.58,-0.0254221541070355,-0.5075426237631657,0.1538807497203596,-143.83109490597238,-25.74708778893412,-18.402183827223173
3.73,-2.43,-8.58,-0.0254221541070355,-0.5075426237631657,0.1538807497203596,-143.83109490597238,-25.74708778893412,-18.402183827223173
3.6,-1.8,-8.99,0.6132934696390824,-0.2648813287686513,-0.0205474133914602,-147.35703857325038,-24.8662564695287,-14.788953503219902
3.6,-1.8,-8.99,0.6132934696390824,-0.2648813287686513,-0.0205474133914602,-147.35703857325038,-24.8662564695287,-14.788953503219902
2.42,-2.29,-9.23,-0.2860607183796553,-0.4069909164445036,0.0063475730678685,-149.50552295905456,-24.02206117401117,-12.365495103087907
2.42,-2.29,-9.23,-0.2860607183796553,-0.4069909164445036,0.0063475730678685,-149.50552295905456,-24.02206117401117,-12.365495103087907
2.45,-2.02,-9.4,0.2203137951664904,-0.4515065178753361,-0.1024621547783208,-152.28767595523584,-22.62966555670664,-9.98208514628972
2.45,-2.02,-9.4,0.2203137951664904,-0.4515065178753361,-0.1024621547783208,-152.28767595523584,-22.62966555670664,-9.98208514628972
1.81,-1.22,-9.54,0.1428054382016939,0.3060341094185513,0.025952185902458,-153.91350924378722,-21.84721243198945,-8.61393617408195
1.81,-1.22,-9.54,0.1428054382016939,0.3060341094185513,0.025952185902458,-153.91350924378722,-21.84721243198945,-8.61393617408195
1.52,-1.98,-9.19,-0.2310474636140573,-0.5069636043675068,0.2999941750842687,-155.5372354443148,-20.72787028869477,-7.752301412421159
1.52,-1.98,-9.19,-0.2310474636140573,-0.5069636043675068,0.2999941750842687,-155.5372354443148,-20.72787028869477,-7.752301412421159
1.59,-1.12,-9.41,0.1552274471425338,0.1674602571939582,0.200482111506993,-156.58711361479934,-19.95948754584176,-7.47667331573405
1.59,-1.12,-9.41,0.1552274471425338,0.1674602571939582,0.200482111506993,-156.58711361479934,-19.95948754584176,-7.47667331573405
0.78,-0.76,-9.18,-0.5958912056203997,0.7161828376998766,0.6093462747744187,-157.21671751944734,-19.029325032716933,-8.372631359788455
0.78,-0.76,-9.18,-0.5958912056203997,0.7161828376998766,0.6093462747744187,-157.21671751944734,-19.029325032716933,-8.372631359788455
2.49,-1.54,-9.91,0.4073943585981414,-0.3105832719180322,-0.5140751619150823,-156.92843283344138,-18.448619433327213,-9.890066196362191
2.49,-1.54,-9.91,0.4073943585981414,-0.3105832719180322,-0.5140751619150823,-156.92843283344138,-18.448619433327213,-9.890066196362191
1.93,-1.46,-9.51,-0.0419050027724062,-0.2523434722840503,-0.0030985565501815,-157.80436691060555,-17.729205890532434,-9.92457255015729
1.93,-1.46,-9.51,-0.0419050027724062,-0.2523434722840503,-0.0030985565501815,-157.80436691060555,-17.729205890532434,-9.92457255015729
1.34,-0.52,-9.47,-0.2625374804930874,0.661167523104789,0.2546433219386905,-158.6538881524584,-17.219083051744406,-9.62554711472919
1.34,-0.52,-9.47,-0.2625374804930874,0.661167523104789,0.2546433219386905,-158.6538881524584,-17.219083051744406,-9.62554711472919
1.41,-0.55,-9.36,-0.2213445140746046,0.5190245632002046,0.3418826965274064,-159.21811781644797,-16.651395613206027,-9.752049739225924
1.41,-0.55,-9.36,-0.2213445140746046,0.5190245632002046,0.3418826965274064,-159.21811781644797,-16.651395613206027,-9.752049739225924
1.22,-0.14,-8.98,-0.424989569448514,0.89086000581975,0.7969800662071496,-158.77799072087697,-16.59349169701811,-11.00624507066077
1.22,-0.14,-8.98,-0.424989569448514,0.89086000581975,0.7969800662071496,-158.77799072087697,-16.59349169701811,-11.00624507066077
2.18,-0.55,-9.31,-0.2269356879625249,0.5539971139720025,0.2477490489889593,-156.41828103776766,-16.581911426258042,-14.349961892702815
2.18,-0.55,-9.31,-0.2269356879625249,0.5539971139720025,0.2477490489889593,-156.41828103776766,-16.581911426258042,-14.349961892702815
2.64,-1.32,-9.3,-0.4152047858258607,-0.0280526095560494,0.0583774331846651,-154.3228637180319,-16.709303811577858,-16.801965875210325
2.64,-1.32,-9.3,-0.4152047858258607,-0.0280526095560494,0.0583774331846651,-154.3228637180319,-16.709303811577858,-16.801965875210325
3.53,-1.03,-9.4,-0.0853406628643612,0.2950655276362693,-0.2823268215445225,-151.34635737161238,-17.195903895593172,-20.05257586733213
3.53,-1.03,-9.4,-0.0853406628643612,0.2950655276362693,-0.2823268215445225,-151.34635737161238,-17.195903895593172,-20.05257586733213
3.29,-1.17,-8.72,-0.3921357905501056,0.1851657593141059,0.4235085663783557,-149.72415559222358,-17.636430239406273,-21.672178876755066
3.29,-1.17,-8.72,-0.3921357905501056,0.1851657593141059,0.4235085663783557,-149.72415559222358,-17.636430239406273,-21.672178876755066
3.88,-1.79,-8.92,-0.5156513788843564,-0.2439082275099969,-0.0675341400698812,-147.35703857325038,-18.03080801097451,-23.95177191669858
3.88,-1.79,-8.92,-0.5156513788843564,-0.2439082275099969,-0.0675341400698812,-147.35703857325038,-18.03080801097451,-23.95177191669858
4.86,-2.08,-8.76,-0.0025799360894062,-0.627279779987727,-0.4056031021096605,-145.5696464213463,-18.320928845487863,-25.664812206839983
4.86,-2.08,-8.76,-0.0025799360894062,-0.627279779987727,-0.4056031021096605,-145.5696464213463,-18.320928845487863,-25.664812206839983
5.17,-1.56,-8.78,0.1787427215500079,-0.1510041243291535,-0.4985015657911856,-144.3515283507124,-18.320928845487863,-27.14787893324093
5.17,-1.56,-8.78,0.1787427215500079,-0.1510041243291535,-0.4985015657911856,-144.3515283507124,-18.320928845487863,-27.14787893324093
5.3,-1.34,-8.9,0.1087939388778958,0.0788861973656559,-0.6373693817671899,-143.3907030739344,-18.506668239532367,-28.28093937794029
5.3,-1.34,-8.9,0.1087939388778958,0.0788861973656559,-0.6373693817671899,-143.3907030739344,-18.506668239532367,-28.28093937794029
4.84,-1.21,-8.65,-0.2493644070567564,0.284019648461277,-0.171794279133957,-142.73954322436268,-18.49505809550988,-29.06155185997118
4.84,-1.21,-8.65,-0.2493644070567564,0.284019648461277,-0.171794279133957,-142.73954322436268,-18.49505809550988,-29.06155185997118
5.5,-1.46,-8.6,0.0535691595099346,-0.0628765204618801,-0.5052255271931045,-141.88802849828062,-18.448619433327213,-30.05706136986712
5.5,-1.46,-8.6,0.0535691595099346,-0.0628765204618801,-0.5052255271931045,-141.88802849828062,-18.448619433327213,-30.05706136986712
5.52,-1.95,-8.58,-0.1398001560280149,-0.5259785928156198,-0.566059503127633,-141.88802849828062,-18.112030016161896,-30.34191613696452
5.52,-1.95,-8.58,-0.1398001560280149,-0.5259785928156198,-0.566059503127633,-141.88802849828062,-18.112030016161896,-30.34191613696452
5.23,-1.29,-8.63,-0.0748272888583708,0.0263446257318267,-0.366235865748088,-142.84730495776557,-17.682816604505923,-29.79611144994345
5.23,-1.29,-8.63,-0.0748272888583708,0.0263446257318267,-0.366235865748088,-142.84730495776557,-17.682816604505923,-29.79611144994345
5.32,-1.67,-8.6,-0.069552756526485,-0.4255963562462649,-0.4337274420481929,-143.42720670361226,-17.288624783675054,-29.535319528051428
5.32,-1.67,-8.6,-0.069552756526485,-0.4255963562462649,-0.4337274420481929,-143.42720670361226,-17.288624783675054,-29.535319528051428
4.71,-0.9,-8.72,-0.3151559306668316,0.3427645086821073,-0.1339580916085534,-144.1275913572786,-16.96415115593626,-29.1681050221712
4.71,-0.9,-8.72,-0.3151559306668316,0.3427645086821073,-0.1339580916085534,-144.1275913572786,-16.96415115593626,-29.1681050221712
4.44,-0.51,-8.83,-0.3697015287757338,0.6355348035096908,-0.0625959840227299,-145.18454955392758,-16.55875139620892,-28.52916895270361
4.44,-0.51,-8.83,-0.3697015287757338,0.6355348035096908,-0.0625959840227299,-145.18454955392758,-16.55875139620892,-28.52916895270361
4.47,-0.77,-8.73,-0.3284769686280101,0.3217944570115714,-0.0206207914515932,-145.7248595525418,-16.16513427708501,-28.210041571444727
4.47,-0.77,-8.73,-0.3284769686280101,0.3217944570115714,-0.0206207914515932,-145.7248595525418,-16.16513427708501,-28.210041571444727
4.61,-1.12,-8.72,-0.302733218053822,-0.0340243619820656,-0.1156529051464883,-145.84171829017612,-15.979969398223384,-28.16278249153404
4.61,-1.12,-8.72,-0.302733218053822,-0.0340243619820656,-0.1156529051464883,-145.84171829017612,-15.979969398223384,-28.16278249153404
4.83,-0.79,-8.81,-0.0455933985622198,0.2421442360819085,-0.268487091421628,-145.9981360073074,-15.806415466969176,-28.115528300006986
4.83,-0.79,-8.81,-0.0455933985622198,0.2421442360819085,-0.268487091421628,-145.9981360073074,-15.806415466969176,-28.115528300006986
4.67,-0.8,-8.83,-0.1729263447301814,0.2692446763544971,-0.2091077738058846,-146.15525518443252,-15.713868313956253,-28.009224192772628
4.67,-0.8,-8.83,-0.1729263447301814,0.2692446763544971,-0.2091077738058846,-146.15525518443252,-15.713868313956253,-28.009224192772628
4.52,-0.87,-8.72,-0.2404499615894216,0.1896954781527962,-0.0489017066037469,-146.35265556905202,-15.713868313956253,-27.808494550687968
4.52,-0.87,-8.72,-0.2404499615894216,0.1896954781527962,-0.0489017066037469,-146.35265556905202,-15.713868313956253,-27.808494550687968
4.43,-1.11,-8.66,-0.3494253354216277,-0.0235544381290953,0.0224818123915149,-146.39227073603638,-15.644464720667994,-27.737669605365127
4.43,-1.11,-8.66,-0.3494253354216277,-0.0235544381290953,0.0224818123915149,-146.39227073603638,-15.644464720667994,-27.737669605365127
4.83,-0.64,-8.94,0.0231803775117561,0.3848414689942741,-0.3675064620287163,-146.5113892939378,-15.644464720667994,-27.65505415801313
4.83,-0.64,-8.94,0.0231803775117561,0.3848414689942741,-0.3675064620287163,-146.5113892939378,-15.644464720667994,-27.65505415801313
4.7,-0.95,-8.73,-0.0435792702934942,0.0744515011092956,-0.153167158019686,-146.71084020226166,-15.632898017228824,-27.39550079751796
4.7,-0.95,-8.73,-0.0435792702934942,0.0744515011092956,-0.153167158019686,-146.71084020226166,-15.632898017228824,-27.39550079751796
4.23,-1.49,-8.59,-0.483107417716019,-0.3598622095968553,0.1351347922855534,-146.992038514199,-15.609765091037287,-27.03000922772236
4.23,-1.49,-8.59,-0.483107417716019,-0.3598622095968553,0.1351347922855534,-146.992038514199,-15.609765091037287,-27.03000922772236
4.52,-1.15,-8.62,-0.1232760585689386,-0.1004290340338607,0.0070573032341432,-147.15377378773437,-15.575066901599747,-26.90038619571759
4.52,-1.15,-8.62,-0.1232760585689386,-0.1004290340338607,0.0070573032341432,-147.15377378773437,-15.575066901599747,-26.90038619571759
4.58,-0.85,-8.71,-0.0116000221754761,0.1796426360480839,-0.0691078930834088,-147.1943287474599,-15.598198868035936,-26.8414782366778
4.58,-0.85,-8.71,-0.0116000221754761,0.1796426360480839,-0.0691078930834088,-147.1943287474599,-15.598198868035936,-26.8414782366778
4.59,-0.97,-8.83,-0.0909288023861606,0.0880417281593117,-0.1914438486793255,-147.15377378773437,-15.632898017228824,-26.8414782366778
4.59,-0.97,-8.83,-0.0909288023861606,0.0880417281593117,-0.1914438486793255,-147.15377378773437,-15.632898017228824,-26.8414782366778
4.53,-1.28,-8.74,-0.1987319535345278,-0.1991569126932148,-0.1164413597916098,-147.113267463602,-15.679165793853407,-26.85325924989716
4.53,-1.28,-8.74,-0.1987319535345278,-0.1991569126932148,-0.1164413597916098,-147.113267463602,-15.679165793853407,-26.85325924989716
4.65,-1.07,-8.83,-0.0719302972135825,0.0022166539601887,-0.2298394818252074,-147.0728095954594,-15.679165793853407,-26.86504055226497
4.65,-1.07,-8.83,-0.0719302972135825,0.0022166539601887,-0.2298394818252074,-147.0728095954594,-15.679165793853407,-26.86504055226497
4.56,-1.19,-8.78,-0.1652442514969513,-0.0986247518681151,-0.1563348687863683,-147.0728095954594,-15.667598608855752,-26.87682214392707
4.56,-1.19,-8.78,-0.1652442514969513,-0.0986247518681151,-0.1563348687863683,-147.0728095954594,-15.667598608855752,-26.87682214392707
4.49,-1.07,-8.82,-0.2073866630371302,0.0293411004992975,-0.1459139848139532,-147.0728095954594,-15.690733139619653,-26.87682214392707
4.49,-1.07,-8.82,-0.2073866630371302,0.0293411004992975,-0.1459139848139532,-147.0728095954594,-15.690733139619653,-26.87682214392707
4.69,-1.04,-8.91,-0.0632797702654655,0.0458538414580221,-0.3155875538167745,-147.0728095954594,-15.644464720667994,-26.87682214392707
4.69,-1.04,-8.91,-0.0632797702654655,0.0458538414580221,-0.3155875538167745,-147.0728095954594,-15.644464720667994,-26.87682214392707
4.78,-0.99,-8.72,0.1107328615097236,0.0197078780484978,-0.1860598343204547,-147.0728095954594,-15.725436142775802,-26.85325924989716
4.78,-0.99,-8.72,0.1107328615097236,0.0197078780484978,-0.1860598343204547,-147.0728095954594,-15.725436142775802,-26.85325924989716
4.42,-1.21,-8.74,-0.2447982224478131,-0.0942581092229592,-0.0584039400011491,-147.23493252348757,-15.656031584502133,-26.71190613338563
4.42,-1.21,-8.74,-0.2447982224478131,-0.0942581092229592,-0.0584039400011491,-147.23493252348757,-15.656031584502133,-26.71190613338563
4.34,-1.24,-8.69,-0.2531082028700401,-0.1065353087127017,0.0181932030560911,-147.4795905833761,-15.494110041456644,-26.45286606002896
4.34,-1.24,-8.69,-0.2531082028700401,-0.1065353087127017,0.0181932030560911,-147.4795905833761,-15.494110041456644,-26.45286606002896
4.39,-1.1,-8.65,-0.1123046138872466,0.0024947911401637,0.0448888141423555,-147.72605283657722,-15.424724640986325,-26.22926038886817
4.39,-1.1,-8.65,-0.1123046138872466,0.0024947911401637,0.0448888141423555,-147.72605283657722,-15.424724640986325,-26.22926038886817
4.48,-0.99,-8.86,-0.0674437221542676,0.1216806749175618,-0.1698596681000435,-147.84997349806363,-15.401597439742238,-26.09985097880343
4.48,-0.99,-8.86,-0.0674437221542676,0.1216806749175618,-0.1698596681000435,-147.84997349806363,-15.401597439742238,-26.09985097880343
4.57,-1.01,-8.98,-0.0370062208701414,0.1126062052692135,-0.3191265323036703,-147.84997349806363,-15.424724640986325,-26.05280141790223
4.57,-1.01,-8.98,-0.0370062208701414,0.1126062052692135,-0.3191265323036703,-147.84997349806363,-15.424724640986325,-26.05280141790223
