acc_x,acc_y,acc_z,lin_x,lin_y,lin_z,eul_x,eul_y,eul_z
1.74,-0.75,-9.76,0.0333840213429727,0.0815633829389528,-0.135177443769205,-161.7899992062843,-14.32686299177392,-9.326587364176332
1.74,-0.75,-9.76,0.0333840213429727,0.0815633829389528,-0.135177443769205,-161.7899992062843,-14.32686299177392,-9.326587364176332
1.8,-0.62,-9.9,0.1097738138663813,0.1955164080901348,-0.272244931685556,-161.86255690793462,-14.292215737283833,-9.280599254023052
1.8,-0.62,-9.9,0.1097738138663813,0.1955164080901348,-0.272244931685556,-161.86255690793462,-14.292215737283833,-9.280599254023052
1.58,-0.99,-9.68,-0.1281019896472878,-0.1394985307216487,-0.0494663771627017,-162.0085427715158,-14.222925164993963,-9.085166406176857
1.58,-0.99,-9.68,-0.1281019896472878,-0.1394985307216487,-0.0494663771627017,-162.0085427715158,-14.222925164993963,-9.085166406176857
1.68,-0.87,-9.77,-0.002682286474573,-0.0554199649266746,-0.1446876705258457,-162.15571301144445,-14.176734355559056,-9.004701785923347
1.68,-0.87,-9.77,-0.002682286474573,-0.0554199649266746,-0.1446876705258457,-162.15571301144445,-14.176734355559056,-9.004701785923347
1.72,-0.74,-9.95,0.0589737666141228,0.0606286359389944,-0.3176448526480371,-162.30409717935632,-14.118999098561428,-8.901253805563371
1.72,-0.74,-9.95,0.0589737666141228,0.0606286359389944,-0.3176448526480371,-162.30409717935632,-14.118999098561428,-8.901253805563371
1.55,-0.74,-9.96,-0.0902102595445531,0.0864223761114642,-0.2995903138842983,-162.45372607444324,-14.049721543626418,-8.809306149715164
1.55,-0.74,-9.96,-0.0902102595445531,0.0864223761114642,-0.2995903138842983,-162.45372607444324,-14.049721543626418,-8.809306149715164
1.69,-0.78,-9.87,0.0624504525952481,-0.0044209286037927,-0.2371281933075817,-162.60463181843892,-13.968904250085991,-8.717364176475899
1.69,-0.78,-9.87,0.0624504525952481,-0.0044209286037927,-0.2371281933075817,-162.60463181843892,-13.968904250085991,-8.717364176475899
1.49,-0.83,-9.78,-0.1110958201330376,-0.0200013817699051,-0.1203161862764634,-162.68057392822612,-13.899637842978937,-8.61393617408195
1.49,-0.83,-9.78,-0.1110958201330376,-0.0200013817699051,-0.1203161862764634,-162.68057392822612,-13.899637842978937,-8.61393617408195
1.39,-0.99,-9.76,-0.221621809453652,-0.1615439174620718,-0.0976211663355375,-162.8334582675195,-13.807290567361374,-8.487533709607298
1.39,-0.99,-9.76,-0.221621809453652,-0.1615439174620718,-0.0976211663355375,-162.8334582675195,-13.807290567361374,-8.487533709607298
1.55,-0.48,-9.96,0.0372062618883111,0.2905640294075719,-0.2804054791222779,-162.9877060930459,-13.761120312162008,-8.430081473298436
1.55,-0.48,-9.96,0.0372062618883111,0.2905640294075719,-0.2804054791222779,-162.9877060930459,-13.761120312162008,-8.430081473298436
1.28,-0.66,-9.89,-0.226602948582533,0.1675604308181566,-0.1836790539259887,-163.06535294380294,-13.714952301602876,-8.257737442475136
1.28,-0.66,-9.89,-0.226602948582533,0.1675604308181566,-0.1836790539259887,-163.06535294380294,-13.714952301602876,-8.257737442475136
1.59,-0.85,-9.91,0.0330958077396015,-0.0821104878774386,-0.2656318931605845,-163.06535294380294,-13.703410648771609,-8.200293609338797
1.59,-0.85,-9.91,0.0330958077396015,-0.0821104878774386,-0.2656318931605845,-163.06535294380294,-13.703410648771609,-8.200293609338797
1.24,-0.84,-9.66,-0.2375146390023437,-0.0294223993298616,0.0341620302618306,-163.22171672296716,-13.657245433015795,-8.016487142063689
1.24,-0.84,-9.66,-0.2375146390023437,-0.0294223993298616,0.0341620302618306,-163.22171672296716,-13.657245433015795,-8.016487142063689
1.23,-0.86,-9.8,-0.2528433516434851,-0.0427851966919618,-0.1042904027303937,-163.30044367130742,-13.622622983127284,-7.913105112625811
1.23,-0.86,-9.8,-0.2528433516434851,-0.0427851966919618,-0.1042904027303937,-163.30044367130742,-13.622622983127284,-7.913105112625811
0.65,-1.36,-9.75,-0.8796487082146678,-0.4332427456548445,-0.0103311486767019,-163.61910772281004,-13.507223821905177,-7.6374510050387485
0.65,-1.36,-9.75,-0.8796487082146678,-0.4332427456548445,-0.0103311486767019,-163.61910772281004,-13.507223821905177,-7.6374510050387485
-0.3,-1.62,-9.78,-1.8248912919501288,-0.5429728205098412,0.0733179760345041,-163.94405112777469,-13.34568808643722,-7.396290017779932
-0.3,-1.62,-9.78,-1.8248912919501288,-0.5429728205098412,0.0733179760345041,-163.94405112777469,-13.34568808643722,-7.396290017779932
-0.27,-0.68,-9.57,-1.4100555092608402,0.1663672458842584,0.3143233410454069,-165.13681976050614,-12.803582439206052,-6.454917855397503
-0.27,-0.68,-9.57,-1.4100555092608402,0.1663672458842584,0.3143233410454069,-165.13681976050614,-12.803582439206052,-6.454917855397503
-1.64,0.33,-8.8,-2.3488009530601,1.1755580606758862,1.24279004499817,-165.95667115359868,-12.561458728935325,-5.7319679651977244
-1.64,0.33,-8.8,-2.3488009530601,1.1755580606758862,1.24279004499817,-165.95667115359868,-12.561458728935325,-5.7319679651977244
-2.76,0.5,-7.2,-3.2743662468258603,1.2887674392264017,2.92731833411578,-165.95667115359868,-12.780520582262024,-5.777862453568277
-2.76,0.5,-7.2,-3.2743662468258603,1.2887674392264017,2.92731833411578,-165.95667115359868,-12.780520582262024,-5.777862453568277
-4.66,2.57,-4.16,-4.419438211830692,3.5594504321824783,6.142638740103721,-164.70021747025422,-13.4841456448157,-7.051830951076286
-4.66,2.57,-4.16,-4.419438211830692,3.5594504321824783,6.142638740103721,-164.70021747025422,-13.4841456448157,-7.051830951076286
-0.98,4.58,-4.69,-0.8480866204292223,4.483307785132199,4.998989405904162,-158.840311807755,-15.702300646279072,-13.403376345459217
-0.98,4.58,-4.69,-0.8480866204292223,4.483307785132199,4.998989405904162,-158.840311807755,-15.702300646279072,-13.403376345459217
-0.04,4.0,-3.96,-0.2254986909787263,3.7280469336591047,5.595472444873426,-153.21193002249612,-17.787196618044018,-19.37798430858409
-0.04,4.0,-3.96,-0.2254986909787263,3.7280469336591047,5.595472444873426,-153.21193002249612,-17.787196618044018,-19.37798430858409
4.83,8.76,-5.24,4.309823536442158,6.302482540468417,1.4862993516306702,-144.7656551188059,-20.84437327920369,-27.47807034873948
4.83,8.76,-5.24,4.309823536442158,6.302482540468417,1.4862993516306702,-144.7656551188059,-20.84437327920369,-27.47807034873948
12.48,18.5,-10.02,9.98927184647715,11.72842897888778,-9.19490787466818,-136.5279785234642,-24.37364567505576,-34.86715957624261
12.48,18.5,-10.02,9.98927184647715,11.72842897888778,-9.19490787466818,-136.5279785234642,-24.37364567505576,-34.86715957624261
17.33,7.19,-12.25,6.74335426436086,0.8201146862549864,-11.546150405724658,-125.1463924412778,-34.435022863600715,-40.99909698527016
17.33,7.19,-12.25,6.74335426436086,0.8201146862549864,-11.546150405724658,-125.1463924412778,-34.435022863600715,-40.99909698527016
18.87,-3.07,-12.28,2.1099914578775656,-7.8195194350086465,-11.423122769702596,-118.72304914641389,-45.98367660557063,-35.32385988676265
18.87,-3.07,-12.28,2.1099914578775656,-7.8195194350086465,-11.423122769702596,-118.72304914641389,-45.98367660557063,-35.32385988676265
14.23,-14.25,-6.42,-5.207588816043785,-14.905465125652391,-4.246105178646495,-119.60574054309872,-50.465953903367264,-24.655080942437507
14.23,-14.25,-6.42,-5.207588816043785,-14.905465125652391,-4.246105178646495,-119.60574054309872,-50.465953903367264,-24.655080942437507
8.69,-9.59,-1.95,-2.4790422268990824,-11.212656203897524,3.5283229544846497,-124.40467458524144,-50.17476615256415,-14.800508833176536
8.69,-9.59,-1.95,-2.4790422268990824,-11.212656203897524,3.5283229544846497,-124.40467458524144,-50.17476615256415,-14.800508833176536
5.23,-12.38,1.06,-5.909901906061696,-11.77985242123121,6.96956762637359,-127.48115670522915,-47.982860599138895,-10.776022876638455
5.23,-12.38,1.06,-5.909901906061696,-11.77985242123121,6.96956762637359,-127.48115670522915,-47.982860599138895,-10.776022876638455
4.74,-8.85,1.94,-2.3130816074511813,-9.942293169972162,9.211536565774248,-135.30656135192416,-41.35408524581363,-9.568049817899787
4.74,-8.85,1.94,-2.3130816074511813,-9.942293169972162,9.211536565774248,-135.30656135192416,-41.35408524581363,-9.568049817899787
2.65,0.01,4.85,2.8413372163095563,-2.2919181599379304,13.956229975294006,-143.3178010626215,-34.13522516911611,-10.856595634361932
2.65,0.01,4.85,2.8413372163095563,-2.2919181599379304,13.956229975294006,-143.3178010626215,-34.13522516911611,-10.856595634361932
0.01,5.68,8.18,4.8039100706111935,4.652444059937992,17.185817453217744,-148.98694437514695,-25.559049077875773,-17.253853117357277
0.01,5.68,8.18,4.8039100706111935,4.652444059937992,17.185817453217744,-148.98694437514695,-25.559049077875773,-17.253853117357277
4.83,3.38,7.19,8.498074269536414,1.0568049792182523,13.428154790186351,-143.97904817901198,-21.21732993545333,-28.61194247203445
4.83,3.38,7.19,8.498074269536414,1.0568049792182523,13.428154790186351,-143.97904817901198,-21.21732993545333,-28.61194247203445
14.71,2.51,1.51,11.781144481464333,-1.6842287897367063,0.6779968632725168,-133.64792062272215,-15.366907820940328,-43.17232602381402
14.71,2.51,1.51,11.781144481464333,-1.6842287897367063,0.6779968632725168,-133.64792062272215,-15.366907820940328,-43.17232602381402
15.56,1.82,3.81,12.591214035608086,-1.564130318390666,-0.1410595583152734,-126.45446035214496,-10.6148933492606,-51.65968866130368
15.56,1.82,3.81,12.591214035608086,-1.564130318390666,-0.1410595583152734,-126.45446035214496,-10.6148933492606,-51.65968866130368
15.86,3.38,8.56,14.777733077634087,2.207750264231103,-0.8226511932575598,-116.64120406641231,-2.8994758203914888,-61.78113721204743
15.86,3.38,8.56,14.777733077634087,2.207750264231103,-0.8226511932575598,-116.64120406641231,-2.8994758203914888,-61.78113721204743
24.56,5.31,3.86,8.746200454083219,4.125281080463903,-13.704524654282189,-103.05373789076752,6.236859579751598,-74.29945637663062
24.56,5.31,3.86,8.746200454083219,4.125281080463903,-13.704524654282189,-103.05373789076752,6.236859579751598,-74.29945637663062
25.37,4.63,1.71,2.452622361549656,3.334989076987409,-15.705315651591835,-92.65522197363408,13.426452603767608,-82.18855815257656
25.37,4.63,1.71,2.452622361549656,3.334989076987409,-15.705315651591835,-92.65522197363408,13.426452603767608,-82.18855815257656
26.21,3.44,1.43,-2.583308066028064,2.869204705171875,-16.383744876668324,-80.75187187324588,24.2915885788112,-88.80587982352934
26.21,3.44,1.43,-2.583308066028064,2.869204705171875,-16.383744876668324,-80.75187187324588,24.2915885788112,-88.80587982352934
21.37,7.69,-0.8,-9.25327347397538,5.078340312827768,-10.318965262220734,-73.96915070870061,34.315074743396394,-88.91820974498009
21.37,7.69,-0.8,-9.25327347397538,5.078340312827768,-10.318965262220734,-73.96915070870061,34.315074743396394,-88.91820974498009
18.41,7.5,-3.73,-12.315316351355529,1.8558234118403227,-6.130096927466113,-67.21492107332485,46.66919183707166,-85.11036842223878
18.41,7.5,-3.73,-12.315316351355529,1.8558234118403227,-6.130096927466113,-67.21492107332485,46.66919183707166,-85.11036842223878
18.02,7.27,-6.86,-14.205360291650829,-1.103558371987134,-5.080350970780076,-63.83532215478704,55.09709191896828,-81.43047462829705
18.02,7.27,-6.86,-14.205360291650829,-1.103558371987134,-5.080350970780076,-63.83532215478704,55.09709191896828,-81.43047462829705
12.88,8.07,-4.35,-12.769043237270832,1.3109294166102288,0.5776306117131824,-62.5706171740576,65.39450949953873,-74.84676629523163
12.88,8.07,-4.35,-12.769043237270832,1.3109294166102288,0.5776306117131824,-62.5706171740576,65.39450949953873,-74.84676629523163
8.45,7.99,-2.3,-10.636739575532662,2.257691440368449,5.0848706148122265,-63.1077408741901,71.47886911000296,-69.5004515073649
8.45,7.99,-2.3,-10.636739575532662,2.257691440368449,5.0848706148122265,-63.1077408741901,71.47886911000296,-69.5004515073649
7.1,1.43,-1.67,-4.12116623344805,1.386643292494817,3.77863131591592,-64.4302992386677,72.20051661196997,-68.31919267545712
7.1,1.43,-1.67,-4.12116623344805,1.386643292494817,3.77863131591592,-64.4302992386677,72.20051661196997,-68.31919267545712
6.78,-0.62,-2.11,-2.3020278620419607,0.6847137294792696,3.0957085734157137,-65.65341937322533,72.640787235407,-67.2562029587362
6.78,-0.62,-2.11,-2.3020278620419607,0.6847137294792696,3.0957085734157137,-65.65341937322533,72.640787235407,-67.2562029587362
6.63,-0.91,-1.48,-1.7243843294076353,1.2415047425621604,3.290472849347246,-66.1586995980381,73.31067854232553,-66.11767701122476
6.63,-0.91,-1.48,-1.7243843294076353,1.2415047425621604,3.290472849347246,-66.1586995980381,73.31067854232553,-66.11767701122476
7.44,-0.16,-2.51,-2.922396552631932,0.7629374271254183,2.55704139874046,-65.99466654035382,73.668192340648,-65.53073092524775
7.44,-0.16,-2.51,-2.922396552631932,0.7629374271254183,2.55704139874046,-65.99466654035382,73.668192340648,-65.53073092524775
8.34,-1.38,-3.11,-2.2440373176829143,0.2870291746338964,1.0880485771939608,-66.13135014443881,73.06804274776655,-65.80348711235835
8.34,-1.38,-3.11,-2.2440373176829143,0.2870291746338964,1.0880485771939608,-66.13135014443881,73.06804274776655,-65.80348711235835
9.12,-3.62,-3.93,-0.6603445459181692,-0.7249373493684315,-0.7177079813766714,-66.78891793624743,71.62010973363981,-66.50092772303125
9.12,-3.62,-3.93,-0.6603445459181692,-0.7249373493684315,-0.7177079813766714,-66.78891793624743,71.62010973363981,-66.50092772303125
8.43,-3.47,-3.55,-0.3947582584014442,-0.6596329337438163,0.0538375692114119,-67.29749473790226,71.06997715893745,-66.45982503485911
8.43,-3.47,-3.55,-0.3947582584014442,-0.6596329337438163,0.0538375692114119,-67.29749473790226,71.06997715893745,-66.45982503485911
9.01,-3.92,-4.15,-0.2360629439880677,-1.218029852169487,-0.7872009318235964,-67.80757842682634,70.04526973118621,-66.70658643296115
9.01,-3.92,-4.15,-0.2360629439880677,-1.218029852169487,-0.7872009318235964,-67.80757842682634,70.04526973118621,-66.70658643296115
9.4,-4.01,-4.34,-0.2504033733227304,-1.3169829739735763,-1.2150809891365224,-68.29149832235984,69.4307331793357,-66.74774731388283
9.4,-4.01,-4.34,-0.2504033733227304,-1.3169829739735763,-1.2150809891365224,-68.29149832235984,69.4307331793357,-66.74774731388283
8.34,-3.74,-3.21,0.2173979613158572,-0.6292389280603452,0.1420705214179545,-68.97132601860129,68.94352388945018,-66.63800657923225
8.34,-3.74,-3.21,0.2173979613158572,-0.6292389280603452,0.1420705214179545,-68.97132601860129,68.94352388945018,-66.63800657923225
8.66,-3.6,-3.32,-0.005006467838829,-0.6450742927000599,-0.1211822957319022,-69.13823625091533,68.43001555142907,-66.91248837447597
8.66,-3.6,-3.32,-0.005006467838829,-0.6450742927000599,-0.1211822957319022,-69.13823625091533,68.43001555142907,-66.91248837447597
9.32,-3.54,-4.14,-0.4691706912392535,-1.208002619652638,-0.9103555768108312,-69.27745617086707,67.90425219273371,-67.14613988325526
9.32,-3.54,-4.14,-0.4691706912392535,-1.208002619652638,-0.9103555768108312,-69.27745617086707,67.90425219273371,-67.14613988325526
8.72,-3.1,-3.49,-0.4678919505993495,-0.7261352238990162,-0.0463853069080943,-69.44467449288967,67.82138560708218,-67.03614692743177
8.72,-3.1,-3.49,-0.4678919505993495,-0.7261352238990162,-0.0463853069080943,-69.44467449288967,67.82138560708218,-67.03614692743177
8.59,-2.98,-3.0,-0.3734705430504881,-0.3331914524958699,0.2453737667005296,-69.4865054886989,67.60060461724801,-67.20116264131201
8.59,-2.98,-3.0,-0.3734705430504881,-0.3331914524958699,0.2453737667005296,-69.4865054886989,67.60060461724801,-67.20116264131201
8.72,-2.66,-3.08,-0.6967685643499499,-0.2765209782103979,0.212982832730578,-69.62601872527647,67.49032089207272,-67.13238693393745
8.72,-2.66,-3.08,-0.6967685643499499,-0.2765209782103979,0.212982832730578,-69.62601872527647,67.49032089207272,-67.13238693393745
8.99,-2.3,-3.3,-1.1880441115376608,-0.2786382158830105,0.0336764538529408,-69.70978337535752,67.33879642330523,-67.32502809337325
8.99,-2.3,-3.3,-1.1880441115376608,-0.2786382158830105,0.0336764538529408,-69.70978337535752,67.33879642330523,-67.32502809337325
8.64,-2.74,-2.59,-0.4970130298911566,0.0662713331404787,0.3931551039201029,-68.81847155097867,67.93188335325443,-67.36633638987873
8.64,-2.74,-2.59,-0.4970130298911566,0.0662713331404787,0.3931551039201029,-68.81847155097867,67.93188335325443,-67.36633638987873
8.75,-3.01,-2.85,-0.3840606338193417,-0.2616212376850473,0.1356029130738676,-68.0148037838229,68.36074272349704,-67.39388076848982
8.75,-3.01,-2.85,-0.3840606338193417,-0.2616212376850473,0.1356029130738676,-68.0148037838229,68.36074272349704,-67.39388076848982
8.69,-2.84,-2.76,-0.4881820140452618,-0.1797863694634409,0.2709982035826268,-68.08393507833873,68.16692984371839,-67.49032089207272
8.69,-2.84,-2.76,-0.4881820140452618,-0.1797863694634409,0.2709982035826268,-68.08393507833873,68.16692984371839,-67.49032089207272
8.87,-2.87,-2.98,-0.5453270240920673,-0.3524896384959302,0.0407619455756673,-67.39388076848982,68.81847155097867,-67.10488432031785
8.87,-2.87,-2.98,-0.5453270240920673,-0.3524896384959302,0.0407619455756673,-67.39388076848982,68.81847155097867,-67.10488432031785
8.64,-2.6,-2.63,-0.6028610804060694,-0.0720358750121563,0.4280643203549665,-66.61058219226842,69.58415236536644,-66.67915125155818
8.64,-2.6,-2.63,-0.6028610804060694,-0.0720358750121563,0.4280643203549665,-66.61058219226842,69.58415236536644,-66.67915125155818
9.11,-3.5,-3.01,-0.0372718652650523,-0.5247892115492625,-0.3926346362625441,-66.70658643296115,69.04085162488089,-67.20116264131201
9.11,-3.5,-3.01,-0.0372718652650523,-0.5247892115492625,-0.3926346362625441,-66.70658643296115,69.04085162488089,-67.20116264131201
9.02,-3.01,-3.05,-0.45724681199295,-0.5044793039317685,-0.1562524879714057,-65.74890233219018,69.93336466039091,-66.74774731388283
9.02,-3.01,-3.05,-0.45724681199295,-0.5044793039317685,-0.1562524879714057,-65.74890233219018,69.93336466039091,-66.74774731388283
8.81,-2.39,-2.66,-0.8557121257852125,-0.0903688605666452,0.3375745315699348,-64.67425982878002,71.12631395587046,-66.07666398061995
8.81,-2.39,-2.66,-0.8557121257852125,-0.0903688605666452,0.3375745315699348,-64.67425982878002,71.12631395587046,-66.07666398061995
8.77,-2.83,-2.51,-0.401385802895327,-0.0554042196333961,0.2642331253460295,-64.78279229947678,70.9010852783508,-66.25445619743063
8.77,-2.83,-2.51,-0.401385802895327,-0.0554042196333961,0.2642331253460295,-64.78279229947678,70.9010852783508,-66.25445619743063
8.96,-3.35,-2.67,-0.028629270537571,-0.2994191990305326,-0.12020894470756,-63.98388526065868,71.25314422862833,-66.29551072464068
8.96,-3.35,-2.67,-0.028629270537571,-0.2994191990305326,-0.12020894470756,-63.98388526065868,71.25314422862833,-66.29551072464068
8.97,-3.09,-2.63,-0.250874372105117,-0.2279730230117096,-0.0326076117408273,-63.98388526065868,71.21085630412055,-66.28182481526375
8.97,-3.09,-2.63,-0.250874372105117,-0.2279730230117096,-0.0326076117408273,-63.98388526065868,71.21085630412055,-66.28182481526375
8.74,-2.32,-2.64,-0.8980849959453714,-0.2089330257765991,0.4317158492553848,-63.1077408741901,72.00208892273058,-65.84443673875893
8.74,-2.32,-2.64,-0.8980849959453714,-0.2089330257765991,0.4317158492553848,-63.1077408741901,72.00208892273058,-65.84443673875893
9.13,-3.11,-3.11,-0.4000509148974223,-0.6846626750418041,-0.2964335039058419,-63.12118872806756,71.74733376464029,-66.1586995980381
9.13,-3.11,-3.11,-0.4000509148974223,-0.6846626750418041,-0.2964335039058419,-63.12118872806756,71.74733376464029,-66.1586995980381
9.02,-2.97,-2.89,-0.4470211647704741,-0.5051773764849388,-0.0968023221215652,-62.235691121359,72.52705031289004,-65.78983934086463
9.02,-2.97,-2.89,-0.4470211647704741,-0.5051773764849388,-0.0968023221215652,-62.235691121359,72.52705031289004,-65.78983934086463
8.66,-3.02,-2.58,-0.2174537570168304,-0.2907276236218614,0.2861147570411031,-61.56760277209649,73.35353629089147,-65.21757686713724
8.66,-3.02,-2.58,-0.2174537570168304,-0.2907276236218614,0.2861147570411031,-61.56760277209649,73.35353629089147,-65.21757686713724
8.91,-3.07,-2.98,-0.3402489229691188,-0.6460484453899156,-0.0503400109834544,-61.59428159649024,73.08230489344335,-65.54435879722949
8.91,-3.07,-2.98,-0.3402489229691188,-0.6460484453899156,-0.0503400109834544,-61.59428159649024,73.08230489344335,-65.54435879722949
9.13,-3.17,-3.18,-0.3460304429354608,-0.8249178458434785,-0.3283375915153837,-60.56979164506137,73.82576315428821,-65.24478588422559
9.13,-3.17,-3.18,-0.3460304429354608,-0.8249178458434785,-0.3283375915153837,-60.56979164506137,73.82576315428821,-65.24478588422559
8.74,-3.19,-2.53,-0.1123978016249371,-0.3057109762736689,0.170338074103471,-59.72232420224728,74.60167100356149,-64.8778117314165
8.74,-3.19,-2.53,-0.1123978016249371,-0.3057109762736689,0.170338074103471,-59.72232420224728,74.60167100356149,-64.8778117314165
8.85,-2.82,-2.77,-0.5401979618939028,-0.4779069879354876,0.1408550987594345,-59.629851488997545,74.68812953802521,-64.86423446267784
8.85,-2.82,-2.77,-0.5401979618939028,-0.4779069879354876,0.1408550987594345,-59.629851488997545,74.68812953802521,-64.86423446267784
8.87,-2.77,-2.87,-0.5840647377718657,-0.5694184732398444,0.1153481790667232,-58.74690084345127,75.54097917727157,-64.28137325688984
8.87,-2.77,-2.87,-0.5840647377718657,-0.5694184732398444,0.1153481790667232,-58.74690084345127,75.54097917727157,-64.28137325688984
8.7,-3.0,-2.47,-0.2404819072056197,-0.2068107007826698,0.2835046274695276,-58.06425892056141,76.38419493533601,-63.6194442055739
8.7,-3.0,-2.47,-0.2404819072056197,-0.2068107007826698,0.2835046274695276,-58.06425892056141,76.38419493533601,-63.6194442055739
8.94,-2.92,-2.71,-0.410431151625458,-0.3444172689381182,0.0338805350718214,-58.12979906907962,76.50088290484744,-63.44422897307763
8.94,-2.92,-2.71,-0.410431151625458,-0.3444172689381182,0.0338805350718214,-58.12979906907962,76.50088290484744,-63.44422897307763
8.85,-2.99,-2.67,-0.301913658710022,-0.2862396543823826,0.1000329269439408,-57.47532863305489,77.37905512772029,-62.79870690317408
8.85,-2.99,-2.67,-0.301913658710022,-0.2862396543823826,0.1000329269439408,-57.47532863305489,77.37905512772029,-62.79870690317408
8.68,-2.78,-2.43,-0.4072915675669906,-0.0683374599266968,0.3830018969265616,-56.74474561080106,78.23310832001327,-62.115262460964935
8.68,-2.78,-2.43,-0.4072915675669906,-0.0683374599266968,0.3830018969265616,-56.74474561080106,78.23310832001327,-62.115262460964935
8.85,-2.94,-2.71,-0.2959230547778091,-0.2881183079070195,0.1040927398597748,-56.10754388870858,78.85480334917152,-61.55426474750001
8.85,-2.94,-2.71,-0.2959230547778091,-0.2881183079070195,0.1040927398597748,-56.10754388870858,78.85480334917152,-61.55426474750001
8.89,-3.14,-2.87,-0.1223168345861598,-0.4311392678609485,-0.0385395626079816,-56.06859306976256,78.85480334917152,-61.52759147164257
8.89,-3.14,-2.87,-0.1223168345861598,-0.4311392678609485,-0.0385395626079816,-56.06859306976256,78.85480334917152,-61.52759147164257
8.87,-2.86,-2.86,-0.3473874980782678,-0.4059616429105843,0.0726571362947741,-55.16172418420825,79.85234457633116,-60.7025381110459
8.87,-2.86,-2.86,-0.3473874980782678,-0.4059616429105843,0.0726571362947741,-55.16172418420825,79.85234457633116,-60.7025381110459
8.65,-2.98,-2.66,-0.1455963013744967,-0.2212610130677968,0.2825571150517288,-54.41315136848768,80.72179122194791,-60.02646555170329
8.65,-2.98,-2.66,-0.1455963013744967,-0.2212610130677968,0.2825571150517288,-54.41315136848768,80.72179122194791,-60.02646555170329
8.7,-3.23,-2.68,0.0809237262665787,-0.180192969610516,0.1492030369444901,-54.38738352787694,80.90237600189252,-59.81483977840183
8.7,-3.23,-2.68,0.0809237262665787,-0.180192969610516,0.1492030369444901,-54.38738352787694,80.90237600189252,-59.81483977840183
8.94,-2.77,-3.15,-0.4047230346143436,-0.6133669550482037,-0.0411406275320196,-53.538700860812206,81.65744421958767,-59.20766160334654
8.94,-2.77,-3.15,-0.4047230346143436,-0.6133669550482037,-0.0411406275320196,-53.538700860812206,81.65744421958767,-59.20766160334654
8.83,-2.68,-2.94,-0.4312952830740321,-0.4438328686044035,0.1416669806903154,-52.61646535624809,82.47777750148487,-58.54975129457163
8.83,-2.68,-2.94,-0.4312952830740321,-0.4438328686044035,0.1416669806903154,-52.61646535624809,82.47777750148487,-58.54975129457163
8.71,-3.03,-2.83,-0.0510164205097887,-0.3131696448971184,0.1654248652801708,-52.64203317675828,82.47777750148487,-58.444682614751024
8.71,-3.03,-2.83,-0.0510164205097887,-0.3131696448971184,0.1654248652801708,-52.64203317675828,82.47777750148487,-58.444682614751024
8.95,-2.79,-3.15,-0.3152028600439083,-0.6036743652371173,-0.0597234177141139,-51.76155935207183,83.19598327143912,-57.867763106675405
8.95,-2.79,-3.15,-0.3152028600439083,-0.6036743652371173,-0.0597234177141139,-51.76155935207183,83.19598327143912,-57.867763106675405
8.74,-2.57,-2.63,-0.4572920038721933,-0.1550022115269314,0.3368950751027189,-51.138286174965344,83.88739165034603,-57.18801133423565
8.74,-2.57,-2.63,-0.4572920038721933,-0.1550022115269314,0.3368950751027189,-51.138286174965344,83.88739165034603,-57.18801133423565
8.82,-2.58,-2.87,-0.4388572935961368,-0.3752324096850135,0.1966393384773255,-50.2633517404334,84.56707943682893,-56.640582553149535
8.82,-2.58,-2.87,-0.4388572935961368,-0.3752324096850135,0.1966393384773255,-50.2633517404334,84.56707943682893,-56.640582553149535
8.98,-2.86,-3.09,-0.1831415612061111,-0.4864644609576576,-0.0977889794063635,-50.326646830888215,84.56707943682893,-56.47142628686849
8.98,-2.86,-3.09,-0.1831415612061111,-0.4864644609576576,-0.0977889794063635,-50.326646830888215,84.56707943682893,-56.47142628686849
8.98,-3.14,-2.99,0.0818914806491903,-0.3400566131813736,-0.1591793827071246,-49.643922599586496,85.06370833977694,-56.05561103021528
8.98,-3.14,-2.99,0.0818914806491903,-0.3400566131813736,-0.1591793827071246,-49.643922599586496,85.06370833977694,-56.05561103021528
8.71,-2.38,-2.81,-0.5333807362696321,-0.3755004982748695,0.3727163365713775,-48.91271498969397,85.70291578094474,-55.49811986129514
8.71,-2.38,-2.81,-0.5333807362696321,-0.3755004982748695,0.3727163365713775,-48.91271498969397,85.70291578094474,-55.49811986129514
8.93,-2.99,-2.92,-0.0257519860475954,-0.3279371552409205,-0.0474452937054081,-49.00085095475104,85.46867747110112,-55.67947118427708
8.93,-2.99,-2.92,-0.0257519860475954,-0.3279371552409205,-0.0474452937054081,-49.00085095475104,85.46867747110112,-55.67947118427708
8.92,-2.8,-2.94,-0.1817340174523209,-0.398015476806914,0.0159117016323637,-48.397106226699925,85.89062667972252,-55.316919407310365
8.92,-2.8,-2.94,-0.1817340174523209,-0.398015476806914,0.0159117016323637,-48.397106226699925,85.89062667972252,-55.316919407310365
8.84,-2.69,-2.69,-0.2705516007539537,-0.1913640899876949,0.1885430336374032,-47.895076146413096,86.32973658874529,-54.8516623694969
8.84,-2.69,-2.69,-0.2705516007539537,-0.1913640899876949,0.1885430336374032,-47.895076146413096,86.32973658874529,-54.8516623694969
8.91,-2.89,-2.87,-0.0620643021255438,-0.2992736550928943,0.014628589598109,-48.03303658033746,86.20411602380804,-54.83875259027354
8.91,-2.89,-2.87,-0.0620643021255438,-0.2992736550928943,0.014628589598109,-48.03303658033746,86.20411602380804,-54.83875259027354
8.95,-3.26,-2.88,0.2698418557549817,-0.2232394172253722,-0.1382909015579141,-47.35648075084825,86.61285643063455,-54.52914355096097
8.95,-3.26,-2.88,0.2698418557549817,-0.2232394172253722,-0.1382909015579141,-47.35648075084825,86.61285643063455,-54.52914355096097
8.95,-2.76,-2.78,-0.1986030012930195,-0.2694068811037469,0.0426100174778412,-46.70663424071843,87.03877731535627,-54.18134776958782
8.95,-2.76,-2.78,-0.1986030012930195,-0.2694068811037469,0.0426100174778412,-46.70663424071843,87.03877731535627,-54.18134776958782
8.83,-2.9,-2.6,-0.0616600194564107,-0.103764018926737,0.1565551263535844,-46.70663424071843,86.92820940034244,-54.31009785710634
8.83,-2.9,-2.6,-0.0616600194564107,-0.103764018926737,0.1565551263535844,-46.70663424071843,86.92820940034244,-54.31009785710634
8.82,-3.21,-2.64,0.2326801778665808,-0.0819125471018138,0.0595863257719848,-46.04592388413568,87.2602177357086,-54.06553592895308
8.82,-3.21,-2.64,0.2326801778665808,-0.0819125471018138,0.0595863257719848,-46.04592388413568,87.2602177357086,-54.06553592895308
9.03,-2.8,-2.87,-0.1666344745310353,-0.3985897018509339,-0.0640723242008061,-45.324731779489326,87.67255085031937,-53.74414891259134
9.03,-2.8,-2.87,-0.1666344745310353,-0.3985897018509339,-0.0640723242008061,-45.324731779489326,87.67255085031937,-53.74414891259134
9.04,-2.71,-2.87,-0.2400524022695176,-0.4488930223563743,-0.0444144043496326,-44.469220271844826,88.16604887802973,-53.33343845721146
9.04,-2.71,-2.87,-0.2400524022695176,-0.4488930223563743,-0.0444144043496326,-44.469220271844826,88.16604887802973,-53.33343845721146
8.96,-2.76,-2.67,-0.2108910889465561,-0.265806001700172,0.0643211142528574,-44.50636177945312,88.1022563085611,-53.3975630858556
8.96,-2.76,-2.67,-0.2108910889465561,-0.265806001700172,0.0643211142528574,-44.50636177945312,88.1022563085611,-53.3975630858556
8.88,-2.85,-2.55,-0.1124371357992979,-0.1509004732724603,0.1400069975063527,-43.97446806674141,88.37361278323944,-53.07711975523274
8.88,-2.85,-2.55,-0.1124371357992979,-0.1509004732724603,0.1400069975063527,-43.97446806674141,88.37361278323944,-53.07711975523274
8.99,-3.03,-2.65,0.0366179871670857,-0.1817673941044146,-0.0416554246634905,-43.45590465390315,88.67763467052185,-52.821087070408176
8.99,-3.03,-2.65,0.0366179871670857,-0.1817673941044146,-0.0416554246634905,-43.45590465390315,88.67763467052185,-52.821087070408176
8.95,-2.73,-2.64,-0.2213671276718876,-0.2661838112026629,0.0904191066216473,-43.406566594214624,88.77380536718846,-52.73154278918168
8.95,-2.73,-2.64,-0.2213671276718876,-0.2661838112026629,0.0904191066216473,-43.406566594214624,88.77380536718846,-52.73154278918168
8.85,-2.85,-2.71,-0.0540005208298486,-0.3165807597409924,0.1274991815494495,-42.71671526594671,89.19146210713116,-52.36094189671525
8.85,-2.85,-2.71,-0.0540005208298486,-0.3165807597409924,0.1274991815494495,-42.71671526594671,89.19146210713116,-52.36094189671525
