,TIME,ELAPSED_SECONDS,PSTATE,acc_x,acc_y,acc_z,mag_x,mag_y,mag_z,gyr_x,gyr_y,gyr_z,lin_x,lin_y,lin_z,eul_x,eul_y,eul_z,qua_w,qua_x,qua_y,qua_z
0,171270.0,138.431512,1.0,0.15,-1.59,-9.83,1.19,-4.75,37.56,-5.19,2.31,3.31,0.15903920647350034,0.06880361563138937,-0.1507328184558805,-162.91040944456057,-13.968904250085991,1.1230152546764245,0.0848,-0.9889,-0.1216,0.0098
1,171270.0,138.431512,1.0,0.15,-1.59,-9.83,1.19,-4.75,37.56,-5.19,2.31,3.31,0.15903920647350034,0.06880361563138937,-0.1507328184558805,-162.91040944456057,-13.968904250085991,1.1230152546764245,0.0848,-0.9889,-0.1216,0.0098
2,171304.0,138.470291,1.0,-0.49,-1.63,-9.69,1.19,-4.75,38.5,-1.19,-5.44,4.19,-0.4539308605926123,0.14444882426714625,-0.02015931487781941,-163.06535294380294,-13.841919736512358,1.2605325708995527,0.0841,-0.9891,-0.1205,0.011000000000000001
3,171304.0,138.470291,1.0,-0.49,-1.63,-9.69,1.19,-4.75,38.5,-1.19,-5.44,4.19,-0.4539308605926123,0.14444882426714625,-0.02015931487781941,-163.06535294380294,-13.841919736512358,1.2605325708995527,0.0841,-0.9891,-0.1205,0.011000000000000001
4,171339.0,138.480499,1.0,-0.05,-1.62,-9.91,0.5,-4.75,38.38,3.75,4.56,2.06,-0.027484611909659937,0.09183112417103334,-0.2345556866066492,-163.06535294380294,-13.772662665221276,1.1803139285143014,0.0844,-0.9891,-0.1199,0.0103
5,171339.0,138.480499,1.0,-0.05,-1.62,-9.91,0.5,-4.75,38.38,3.75,4.56,2.06,-0.027484611909659937,0.09183112417103334,-0.2345556866066492,-163.06535294380294,-13.772662665221276,1.1803139285143014,0.0844,-0.9891,-0.1199,0.0103
6,171374.0,138.543858,1.0,-0.22,-1.67,-9.81,0.5,-4.75,38.38,-2.25,-1.19,0.56,-0.2050101557404212,0.07560497243500486,-0.14451348595411415,-163.06535294380294,-13.738036026791262,1.1917736982377245,0.0848,-0.9891,-0.1196,0.0104
7,171374.0,138.543858,1.0,-0.22,-1.67,-9.81,0.5,-4.75,38.38,-2.25,-1.19,0.56,-0.2050101557404212,0.07560497243500486,-0.14451348595411415,-163.06535294380294,-13.738036026791262,1.1917736982377245,0.0848,-0.9891,-0.1196,0.0104
8,171409.0,138.561625,1.0,-0.04,-1.78,-9.82,0.88,-4.38,38.38,5.5,-0.19,1.44,-0.048144914163310126,-0.06182508450914447,-0.17314256929550176,-163.06535294380294,-13.714952301602876,1.2261530793833222,0.0853,-0.9891,-0.1194,0.0107
9,171409.0,138.561625,1.0,-0.04,-1.78,-9.82,0.88,-4.38,38.38,5.5,-0.19,1.44,-0.048144914163310126,-0.06182508450914447,-0.17314256929550176,-163.06535294380294,-13.714952301602876,1.2261530793833222,0.0853,-0.9891,-0.1194,0.0107
10,171444.0,138.608033,1.0,-0.19,-1.9,-9.62,0.88,-4.75,38.5,-2.31,-1.56,0.44,-0.22402124609384005,-0.17300844671174953,0.00305971079141365,-163.06535294380294,-13.703410648771609,1.2605325708995527,0.0854,-0.9891,-0.1193,0.011000000000000001
11,171444.0,138.608033,1.0,-0.19,-1.9,-9.62,0.88,-4.75,38.5,-2.31,-1.56,0.44,-0.22402124609384005,-0.17300844671174953,0.00305971079141365,-163.06535294380294,-13.703410648771609,1.2605325708995527,0.0854,-0.9891,-0.1193,0.011000000000000001
12,171479.0,138.626221,1.0,-0.09,-1.6,-9.89,0.88,-4.75,36.38,-3.81,1.25,0.37,-0.04537037024813901,0.13318055880496735,-0.21135401618306385,-163.06535294380294,-13.691869135619404,1.2605325708995527,0.0853,-0.9891,-0.1192,0.011000000000000001
13,171479.0,138.626221,1.0,-0.09,-1.6,-9.89,0.88,-4.75,36.38,-3.81,1.25,0.37,-0.04537037024813901,0.13318055880496735,-0.21135401618306385,-163.06535294380294,-13.691869135619404,1.2605325708995527,0.0853,-0.9891,-0.1192,0.011000000000000001
14,171513.0,138.668507,1.0,-0.2,-1.65,-9.81,0.88,-4.75,36.38,0.94,-0.69,0.56,-0.16354006917828054,0.09349860104807907,-0.14137053965386315,-163.14335483645732,-13.668786527863627,1.283452294756085,0.0851,-0.9892,-0.11900000000000001,0.0112
15,171513.0,138.668507,1.0,-0.2,-1.65,-9.81,0.88,-4.75,36.38,0.94,-0.69,0.56,-0.16354006917828054,0.09349860104807907,-0.14137053965386315,-163.14335483645732,-13.668786527863627,1.283452294756085,0.0851,-0.9892,-0.11900000000000001,0.0112
16,171550.0,138.734194,1.0,0.01,-1.64,-9.97,0.06,-4.75,39.25,1.0,-1.37,-0.19,0.0463253695789365,0.08639303985401603,-0.29686375526346964,-163.06535294380294,-13.668786527863627,1.2605325708995527,0.0854,-0.9891,-0.11900000000000001,0.011000000000000001
17,171550.0,138.734194,1.0,0.01,-1.64,-9.97,0.06,-4.75,39.25,1.0,-1.37,-0.19,0.0463253695789365,0.08639303985401603,-0.29686375526346964,-163.06535294380294,-13.668786527863627,1.2605325708995527,0.0854,-0.9891,-0.11900000000000001,0.011000000000000001
18,171583.0,138.75071699999998,1.0,-0.23,-1.93,-9.53,0.5,-5.19,38.88,3.69,-3.69,0.0,-0.2505368028525876,-0.19636238884252974,0.0856740653181074,-163.06535294380294,-13.680327762024126,1.3865917007687605,0.0861,-0.9891,-0.1191,0.0121
19,171583.0,138.75071699999998,1.0,-0.23,-1.93,-9.53,0.5,-5.19,38.88,3.69,-3.69,0.0,-0.2505368028525876,-0.19636238884252974,0.0856740653181074,-163.06535294380294,-13.680327762024126,1.3865917007687605,0.0861,-0.9891,-0.1191,0.0121
20,171618.0,138.754771,1.0,-0.13,-1.78,-9.63,0.5,-5.19,38.88,-0.63,-1.0,-1.63,-0.10113280714028844,-0.06311645731351934,0.013387598321175531,-162.9877060930459,-13.714952301602876,1.4668120111410634,0.086,-0.9890000000000001,-0.1194,0.0128
21,171618.0,138.754771,1.0,-0.13,-1.78,-9.63,0.5,-5.19,38.88,-0.63,-1.0,-1.63,-0.10113280714028844,-0.06311645731351934,0.013387598321175531,-162.9877060930459,-13.714952301602876,1.4668120111410634,0.086,-0.9890000000000001,-0.1194,0.0128
22,171653.0,138.794203,1.0,-0.13,-1.88,-9.64,0.88,-4.38,38.0,-0.5,-1.88,-0.56,-0.1145736406743478,-0.15822870499431108,-0.013876287209788174,-162.9877060930459,-13.726494094235369,1.5241126706819226,0.086,-0.9890000000000001,-0.1195,0.0133
23,171653.0,138.794203,1.0,-0.13,-1.88,-9.64,0.88,-4.38,38.0,-0.5,-1.88,-0.56,-0.1145736406743478,-0.15822870499431108,-0.013876287209788174,-162.9877060930459,-13.726494094235369,1.5241126706819226,0.086,-0.9890000000000001,-0.1195,0.0133
24,171687.0,138.851553,1.0,-0.21,-1.9,-9.45,1.19,-4.38,37.56,-3.44,-0.44,-0.31,-0.19321752225284644,-0.19729169221398848,0.16920516346382364,-162.9877060930459,-13.726494094235369,1.6043342375287626,0.0857,-0.9890000000000001,-0.1195,0.013999999999999999
25,171687.0,138.851553,1.0,-0.21,-1.9,-9.45,1.19,-4.38,37.56,-3.44,-0.44,-0.31,-0.19321752225284644,-0.19729169221398848,0.16920516346382364,-162.9877060930459,-13.726494094235369,1.6043342375287626,0.0857,-0.9890000000000001,-0.1195,0.013999999999999999
26,171722.0,138.868641,1.0,-0.05,-1.79,-9.82,1.19,-4.38,37.56,-4.19,-1.06,0.5,0.0018041998948240547,-0.08449682514088885,-0.1749258791587529,-163.06535294380294,-13.726494094235369,1.5928739664684124,0.0849,-0.9891,-0.1195,0.0139
27,171722.0,138.868641,1.0,-0.05,-1.79,-9.82,1.19,-4.38,37.56,-4.19,-1.06,0.5,0.0018041998948240547,-0.08449682514088885,-0.1749258791587529,-163.06535294380294,-13.726494094235369,1.5928739664684124,0.0849,-0.9891,-0.1195,0.0139
28,171755.0,138.908444,1.0,-0.3,-1.73,-9.71,0.88,-4.38,38.75,-2.69,-0.37,2.31,-0.23163481161852226,-0.006020444463171404,-0.05810083660479215,-163.22171672296716,-13.657245433015795,1.6043342375287626,0.0839,-0.9893,-0.1189,0.013999999999999999
29,171755.0,138.908444,1.0,-0.3,-1.73,-9.71,0.88,-4.38,38.75,-2.69,-0.37,2.31,-0.23163481161852226,-0.006020444463171404,-0.05810083660479215,-163.22171672296716,-13.657245433015795,1.6043342375287626,0.0839,-0.9893,-0.1189,0.013999999999999999
30,171792.0,138.928227,1.0,-0.23,-1.61,-9.92,0.88,-4.75,39.25,-4.31,1.44,2.25,-0.13760786880536566,0.1193425893789104,-0.2441321298047825,-163.30044367130742,-13.576461659580188,1.5355728478655368,0.0835,-0.9894,-0.1182,0.0134
31,171792.0,138.928227,1.0,-0.23,-1.61,-9.92,0.88,-4.75,39.25,-4.31,1.44,2.25,-0.13760786880536566,0.1193425893789104,-0.2441321298047825,-163.30044367130742,-13.576461659580188,1.5355728478655368,0.0835,-0.9894,-0.1182,0.0134
32,171827.0,138.976737,1.0,-0.36,-1.68,-9.9,0.88,-4.75,39.25,1.19,0.5,2.88,-0.27556457012762026,0.06429354006805288,-0.23734972662265186,-163.37954086931006,-13.4841456448157,1.5699534720315549,0.0828,-0.9895,-0.1174,0.0137
33,171827.0,138.976737,1.0,-0.36,-1.68,-9.9,0.88,-4.75,39.25,1.19,0.5,2.88,-0.27556457012762026,0.06429354006805288,-0.23734972662265186,-163.37954086931006,-13.4841456448157,1.5699534720315549,0.0828,-0.9895,-0.1174,0.0137
34,171859.0,138.998345,1.0,-0.35,-1.51,-10.17,1.56,-4.75,38.88,-3.13,-3.38,1.12,-0.2042481755299618,0.24411604291009315,-0.4758686622921626,-163.45901362866948,-13.44952940908047,1.638715147453804,0.0817,-0.9896,-0.1171,0.0143
35,171859.0,138.998345,1.0,-0.35,-1.51,-10.17,1.56,-4.75,38.88,-3.13,-3.38,1.12,-0.2042481755299618,0.24411604291009315,-0.4758686622921626,-163.45901362866948,-13.44952940908047,1.638715147453804,0.0817,-0.9896,-0.1171,0.0143
36,171894.0,139.04433600000002,1.0,-0.26,-1.84,-10.4,1.19,-4.38,38.06,4.19,-4.94,0.81,-0.1304692726799576,-0.041985446049645485,-0.7571757743682213,-163.45901362866948,-13.414914406298776,1.9023072532875973,0.0827,-0.9896,-0.1168,0.0166
37,171894.0,139.04433600000002,1.0,-0.26,-1.84,-10.4,1.19,-4.38,38.06,4.19,-4.94,0.81,-0.1304692726799576,-0.041985446049645485,-0.7571757743682213,-163.45901362866948,-13.414914406298776,1.9023072532875973,0.0827,-0.9896,-0.1168,0.0166
38,171931.0,139.109542,1.0,-0.97,-1.59,-10.21,1.56,-5.19,38.06,0.75,-19.44,1.81,-0.6702427280106328,0.32369645928734925,-0.5451177373380887,-163.37954086931006,-13.380300633180664,2.47537018520181,0.0828,-0.9895,-0.1165,0.0216
39,171931.0,139.109542,1.0,-0.97,-1.59,-10.21,1.56,-5.19,38.06,0.75,-19.44,1.81,-0.6702427280106328,0.32369645928734925,-0.5451177373380887,-163.37954086931006,-13.380300633180664,2.47537018520181,0.0828,-0.9895,-0.1165,0.0216
40,171964.0,139.113932,1.0,-0.95,-1.26,-10.71,1.56,-5.19,38.06,4.75,-13.13,-3.5,-0.4362805334283701,0.717875178425353,-0.9863345049621106,-163.14335483645732,-13.51876311679545,3.048495041051397,0.0834,-0.9892,-0.1177,0.0266
41,171964.0,139.113932,1.0,-0.95,-1.26,-10.71,1.56,-5.19,38.06,4.75,-13.13,-3.5,-0.4362805334283701,0.717875178425353,-0.9863345049621106,-163.14335483645732,-13.51876311679545,3.048495041051397,0.0834,-0.9892,-0.1177,0.0266
42,172001.0,139.155576,1.0,-1.72,-1.6,-10.26,2.69,-4.75,37.56,20.12,-35.13,-4.13,-1.09909882558546,0.5766050116383051,-0.6454076171465051,-162.52901727888843,-13.645704477358525,4.068855279934243,0.0877,-0.9884,-0.1188,0.0355
43,172001.0,139.155576,1.0,-1.72,-1.6,-10.26,2.69,-4.75,37.56,20.12,-35.13,-4.13,-1.09909882558546,0.5766050116383051,-0.6454076171465051,-162.52901727888843,-13.645704477358525,4.068855279934243,0.0877,-0.9884,-0.1188,0.0355
44,172038.0,139.214958,1.0,-1.57,-1.6,-9.88,2.0,-4.75,38.75,29.5,-30.0,-6.75,-0.7377519531466812,0.6205976262321142,-0.2784816621025499,-161.36053358743402,-13.968904250085991,5.3992599817249625,0.0957,-0.9868,-0.1216,0.0471
45,172038.0,139.214958,1.0,-1.57,-1.6,-9.88,2.0,-4.75,38.75,29.5,-30.0,-6.75,-0.7377519531466812,0.6205976262321142,-0.2784816621025499,-161.36053358743402,-13.968904250085991,5.3992599817249625,0.0957,-0.9868,-0.1216,0.0471
46,172070.0,139.233477,1.0,-1.08,-0.78,-9.17,2.0,-4.75,38.75,30.06,-37.69,-15.25,0.04963893594380475,1.2399731385110149,0.623856166323371,-160.26052613773837,-14.39616145402999,6.592650878252481,0.1014,-0.9852,-0.1253,0.0575
47,172070.0,139.233477,1.0,-1.08,-0.78,-9.17,2.0,-4.75,38.75,30.06,-37.69,-15.25,0.04963893594380475,1.2399731385110149,0.623856166323371,-160.26052613773837,-14.39616145402999,6.592650878252481,0.1014,-0.9852,-0.1253,0.0575
48,172105.0,139.236723,1.0,-1.29,-1.46,-9.39,4.19,-3.25,38.38,37.19,-23.0,-22.62,-0.0813626148068643,0.8900074950829864,0.25840059062615595,-158.5304946671076,-15.262847451308847,7.648935698119245,0.1123,-0.9825,-0.1328,0.0667
49,172105.0,139.236723,1.0,-1.29,-1.46,-9.39,4.19,-3.25,38.38,37.19,-23.0,-22.62,-0.0813626148068643,0.8900074950829864,0.25840059062615595,-158.5304946671076,-15.262847451308847,7.648935698119245,0.1123,-0.9825,-0.1328,0.0667
50,172142.0,139.275486,1.0,-1.38,-1.93,-8.61,6.06,-2.88,37.56,29.19,-26.87,-29.0,-0.2905682911473641,0.4662112918793501,0.8926375981966501,-157.10097394877238,-16.0609738361326,8.326672787534774,0.1207,-0.9801,-0.1397,0.0726
51,172142.0,139.275486,1.0,-1.38,-1.93,-8.61,6.06,-2.88,37.56,29.19,-26.87,-29.0,-0.2905682911473641,0.4662112918793501,0.8926375981966501,-157.10097394877238,-16.0609738361326,8.326672787534774,0.1207,-0.9801,-0.1397,0.0726
52,172177.0,139.344602,1.0,-1.07,-1.46,-8.37,5.0,-1.37,39.25,28.12,-11.25,-38.63,0.18526602324724045,0.9296466483233976,1.2957843795186594,-155.214797761141,-17.474100846214462,8.878266355561609,0.1303,-0.9767,-0.1519,0.0774
53,172177.0,139.344602,1.0,-1.07,-1.46,-8.37,5.0,-1.37,39.25,28.12,-11.25,-38.63,0.18526602324724045,0.9296466483233976,1.2957843795186594,-155.214797761141,-17.474100846214462,8.878266355561609,0.1303,-0.9767,-0.1519,0.0774
54,172212.0,139.378774,1.0,-1.1,-3.83,-8.09,5.0,-1.37,39.25,58.56,14.75,-42.69,-0.5828532937143939,-1.0126421800497596,0.8645116733361569,-153.4604028099656,-18.51827857520288,8.636919564056372,0.1451,-0.9733,-0.1609,0.0753
55,172212.0,139.378774,1.0,-1.1,-3.83,-8.09,5.0,-1.37,39.25,58.56,14.75,-42.69,-0.5828532937143939,-1.0126421800497596,0.8645116733361569,-153.4604028099656,-18.51827857520288,8.636919564056372,0.1451,-0.9733,-0.1609,0.0753
56,172249.0,139.431121,1.0,-0.47,-2.6,-8.61,6.06,0.0,37.56,16.37,3.19,-46.88,0.386444314489952,0.2161987868954112,0.8112668021399241,-151.7661453802759,-20.180594156388953,8.1313637329408,0.1543,-0.9698,-0.1752,0.0709
57,172249.0,139.431121,1.0,-0.47,-2.6,-8.61,6.06,0.0,37.56,16.37,3.19,-46.88,0.386444314489952,0.2161987868954112,0.8112668021399241,-151.7661453802759,-20.180594156388953,8.1313637329408,0.1543,-0.9698,-0.1752,0.0709
58,172283.0,139.459709,1.0,-0.52,-3.56,-8.26,6.06,1.19,39.25,44.75,11.5,-41.31,-0.04329686563372648,-0.4878727767502504,0.8104449370230409,-150.12163073433226,-21.22898847391229,8.016487142063689,0.166,-0.9662,-0.1842,0.0699
59,172283.0,139.459709,1.0,-0.52,-3.56,-8.26,6.06,1.19,39.25,44.75,11.5,-41.31,-0.04329686563372648,-0.4878727767502504,0.8104449370230409,-150.12163073433226,-21.22898847391229,8.016487142063689,0.166,-0.9662,-0.1842,0.0699
60,172316.0,139.462626,1.0,0.3,-4.21,-8.8,6.06,1.19,39.25,22.44,26.81,-43.94,0.4460744007005215,-0.919120095682728,0.10044910166949704,-148.35037934063973,-22.64135196781312,7.109236280779951,0.179,-0.9621,-0.1963,0.062
61,172316.0,139.462626,1.0,0.3,-4.21,-8.8,6.06,1.19,39.25,22.44,26.81,-43.94,0.4460744007005215,-0.919120095682728,0.10044910166949704,-148.35037934063973,-22.64135196781312,7.109236280779951,0.179,-0.9621,-0.1963,0.062
62,172353.0,139.50521899999998,1.0,0.53,-4.26,-8.93,6.88,2.56,39.69,13.69,21.31,-39.63,0.5194694258452166,-0.8662653049160112,-0.04997903517783975,-147.31628725286762,-23.65899809735879,6.351624225020216,0.1848,-0.9596,-0.205,0.0554
63,172353.0,139.50521899999998,1.0,0.53,-4.26,-8.93,6.88,2.56,39.69,13.69,21.31,-39.63,0.5194694258452166,-0.8662653049160112,-0.04997903517783975,-147.31628725286762,-23.65899809735879,6.351624225020216,0.1848,-0.9596,-0.205,0.0554
64,172390.0,139.575784,1.0,0.62,-4.33,-8.73,5.69,3.25,39.25,11.19,25.87,-32.0,0.3385011700898371,-0.8431388965888769,0.08447258139120706,-146.07660730478975,-24.79585513058625,5.2271876941715805,0.1919,-0.9565,-0.2147,0.0456
65,172390.0,139.575784,1.0,0.62,-4.33,-8.73,5.69,3.25,39.25,11.19,25.87,-32.0,0.3385011700898371,-0.8431388965888769,0.08447258139120706,-146.07660730478975,-24.79585513058625,5.2271876941715805,0.1919,-0.9565,-0.2147,0.0456
66,172423.0,139.59306999999998,1.0,0.72,-4.37,-8.75,5.69,3.25,39.25,9.88,23.44,-26.5,0.2630504864475042,-0.7497012686337488,0.0318583168290143,-145.22287322309495,-25.47680417585264,4.2867240536107065,0.1982,-0.9543,-0.2205,0.0374
67,172423.0,139.59306999999998,1.0,0.72,-4.37,-8.75,5.69,3.25,39.25,9.88,23.44,-26.5,0.2630504864475042,-0.7497012686337488,0.0318583168290143,-145.22287322309495,-25.47680417585264,4.2867240536107065,0.1982,-0.9543,-0.2205,0.0374
68,172457.0,139.632692,1.0,1.01,-4.3,-9.04,5.0,5.19,40.5,5.75,26.69,-22.06,0.38659005084749776,-0.5228958263525123,-0.2337099580577213,-144.31411111967859,-26.158669228245632,2.9911793597011727,0.205,-0.9519,-0.2263,0.0261
69,172457.0,139.632692,1.0,1.01,-4.3,-9.04,5.0,5.19,40.5,5.75,26.69,-22.06,0.38659005084749776,-0.5228958263525123,-0.2337099580577213,-144.31411111967859,-26.158669228245632,2.9911793597011727,0.205,-0.9519,-0.2263,0.0261
70,172492.0,139.651937,1.0,0.68,-4.21,-8.62,3.5,5.5,39.69,2.0,28.69,-19.44,-0.06969089620110698,-0.3667346934326985,0.19667867623323687,-143.83109490597238,-26.57059440264536,2.1315259137202647,0.2081,-0.9506,-0.2298,0.0186
71,172492.0,139.651937,1.0,0.68,-4.21,-8.62,3.5,5.5,39.69,2.0,28.69,-19.44,-0.06969089620110698,-0.3667346934326985,0.19667867623323687,-143.83109490597238,-26.57059440264536,2.1315259137202647,0.2081,-0.9506,-0.2298,0.0186
72,172527.0,139.698657,1.0,0.95,-4.32,-8.79,3.5,5.5,39.69,5.88,37.0,-14.63,-0.07348585037370478,-0.36313907817635216,-0.0265453016146342,-143.3178010626215,-26.841478236677798,0.7104722177704716,0.2126,-0.9492,-0.2321,0.0062
73,172527.0,139.698657,1.0,0.95,-4.32,-8.79,3.5,5.5,39.69,5.88,37.0,-14.63,-0.07348585037370478,-0.36313907817635216,-0.0265453016146342,-143.3178010626215,-26.841478236677798,0.7104722177704716,0.2126,-0.9492,-0.2321,0.0062
74,172562.0,139.717883,1.0,1.09,-3.87,-9.02,3.5,5.06,39.25,-3.06,43.94,-17.31,0.06765599093899878,0.11607076072271585,-0.06793101619482833,-142.99145809873448,-27.077153605664893,-0.5500415954991054,0.2144,-0.9483,-0.2341,-0.0048
75,172562.0,139.717883,1.0,1.09,-3.87,-9.02,3.5,5.06,39.25,-3.06,43.94,-17.31,0.06765599093899878,0.11607076072271585,-0.06793101619482833,-142.99145809873448,-27.077153605664893,-0.5500415954991054,0.2144,-0.9483,-0.2341,-0.0048
76,172597.0,139.756179,1.0,1.49,-4.39,-9.13,0.88,6.19,40.88,4.81,44.94,-8.69,-0.06380139307560942,-0.2665431298258105,-0.4292663801871832,-142.56060519917662,-27.077153605664893,-2.2575997541901875,0.2189,-0.9471,-0.2341,-0.0197
77,172597.0,139.756179,1.0,1.49,-4.39,-9.13,0.88,6.19,40.88,4.81,44.94,-8.69,-0.06380139307560942,-0.2665431298258105,-0.4292663801871832,-142.56060519917662,-27.077153605664893,-2.2575997541901875,0.2189,-0.9471,-0.2341,-0.0197
78,172632.0,139.76371799999998,1.0,1.81,-4.43,-9.03,-0.56,5.75,41.75,-8.06,36.94,-2.06,0.026614747406049518,-0.4215436165139814,-0.4042996441122888,-142.5249164652642,-26.912168656137837,-3.335085177891311,0.2195,-0.9470000000000001,-0.2327,-0.0291
79,172632.0,139.76371799999998,1.0,1.81,-4.43,-9.03,-0.56,5.75,41.75,-8.06,36.94,-2.06,0.026614747406049518,-0.4215436165139814,-0.4042996441122888,-142.5249164652642,-26.912168656137837,-3.335085177891311,0.2195,-0.9470000000000001,-0.2327,-0.0291
80,172664.0,139.822552,1.0,1.81,-3.97,-9.22,-0.56,5.75,41.75,-14.13,37.13,-0.56,-0.007998118739423465,0.06486936039340474,-0.3934052937804591,-142.6678687639012,-26.617693729981983,-4.860139072417077,0.2182,-0.9474,-0.2302,-0.0424
81,172664.0,139.822552,1.0,1.81,-3.97,-9.22,-0.56,5.75,41.75,-14.13,37.13,-0.56,-0.007998118739423465,0.06486936039340474,-0.3934052937804591,-142.6678687639012,-26.617693729981983,-4.860139072417077,0.2182,-0.9474,-0.2302,-0.0424
82,172701.0,139.878559,1.0,2.21,-4.47,-9.38,-1.25,4.69,41.0,-12.44,69.0,2.38,-0.14588355102362205,-0.3338337615976963,-0.8101608681071593,-142.6678687639012,-26.13514108768563,-6.569694717687418,0.2193,-0.9474,-0.2261,-0.0573
83,172701.0,139.878559,1.0,2.21,-4.47,-9.38,-1.25,4.69,41.0,-12.44,69.0,2.38,-0.14588355102362205,-0.3338337615976963,-0.8101608681071593,-142.6678687639012,-26.13514108768563,-6.569694717687418,0.2193,-0.9474,-0.2261,-0.0573
84,172738.0,139.938447,1.0,2.49,-4.06,-9.41,-2.38,5.06,41.0,-22.87,23.19,10.19,0.05513338736901807,-0.12303292928885902,-0.739136988551774,-143.20870960086745,-25.45330808515709,-7.982025743589274,0.2153,-0.9489,-0.2203,-0.0696
85,172738.0,139.938447,1.0,2.49,-4.06,-9.41,-2.38,5.06,41.0,-22.87,23.19,10.19,0.05513338736901807,-0.12303292928885902,-0.739136988551774,-143.20870960086745,-25.45330808515709,-7.982025743589274,0.2153,-0.9489,-0.2203,-0.0696
86,172773.0,139.960738,1.0,2.39,-3.94,-9.03,-2.38,5.06,41.0,-29.75,22.94,15.25,-0.06982431280929274,-0.22981615350814846,-0.3283837493728896,-143.86802831777294,-24.854522251558684,-8.625427825614647,0.2101,-0.9507,-0.2152,-0.0752
87,172773.0,139.960738,1.0,2.39,-3.94,-9.03,-2.38,5.06,41.0,-29.75,22.94,15.25,-0.06982431280929274,-0.22981615350814846,-0.3283837493728896,-143.86802831777294,-24.854522251558684,-8.625427825614647,0.2101,-0.9507,-0.2152,-0.0752
88,172806.0,139.964605,1.0,2.53,-3.24,-9.57,-3.19,4.25,40.19,-44.5,39.81,7.81,0.04111553551749148,0.3894135796181997,-0.6015230662373252,-144.80353687392875,-24.06892577380089,-10.212160888414617,0.2,-0.9532,-0.2085,-0.08900000000000001
89,172806.0,139.964605,1.0,2.53,-3.24,-9.57,-3.19,4.25,40.19,-44.5,39.81,7.81,0.04111553551749148,0.3894135796181997,-0.6015230662373252,-144.80353687392875,-24.06892577380089,-10.212160888414617,0.2,-0.9532,-0.2085,-0.08900000000000001
90,172843.0,140.011318,1.0,2.7,-3.95,-9.33,-6.19,3.19,40.5,-44.06,-3.81,17.75,-0.1561984424125728,-0.5013608966240839,-0.6654863292273934,-145.7248595525418,-23.42489188862897,-10.580368342525214,0.1925,-0.9556,-0.203,-0.0922
91,172843.0,140.011318,1.0,2.7,-3.95,-9.33,-6.19,3.19,40.5,-44.06,-3.81,17.75,-0.1561984424125728,-0.5013608966240839,-0.6654863292273934,-145.7248595525418,-23.42489188862897,-10.580368342525214,0.1925,-0.9556,-0.203,-0.0922
92,172877.0,140.02992,1.0,2.0,-2.55,-9.4,-5.75,2.5,39.69,-64.87,-15.5,10.88,-0.23827716734435084,0.5488281339324816,-0.11829391273454705,-147.8086150107539,-22.816676842803346,-10.419264327291232,0.1721,-0.9608,-0.1978,-0.0908
93,172877.0,140.02992,1.0,2.0,-2.55,-9.4,-5.75,2.5,39.69,-64.87,-15.5,10.88,-0.23827716734435084,0.5488281339324816,-0.11829391273454705,-147.8086150107539,-22.816676842803346,-10.419264327291232,0.1721,-0.9608,-0.1978,-0.0908
94,172912.0,140.074217,1.0,1.88,-2.31,-9.59,-5.75,2.5,39.69,-33.06,-9.25,15.25,-0.2826784943053189,0.6530964034354976,-0.20994412957702305,-148.94411093259438,-22.349262916740443,-10.315708384533187,0.1614,-0.9635,-0.1938,-0.0899
95,172912.0,140.074217,1.0,1.88,-2.31,-9.59,-5.75,2.5,39.69,-33.06,-9.25,15.25,-0.2826784943053189,0.6530964034354976,-0.20994412957702305,-148.94411093259438,-22.349262916740443,-10.315708384533187,0.1614,-0.9635,-0.1938,-0.0899
96,172949.0,140.098162,1.0,1.99,-2.78,-9.79,-4.69,0.19,40.06,-25.87,-11.88,17.5,-0.3570188114298117,0.08056449531777088,-0.5566818450380335,-150.12163073433226,-21.707181480459113,-10.016593913069029,0.1524,-0.9662,-0.1883,-0.0873
97,172949.0,140.098162,1.0,1.99,-2.78,-9.79,-4.69,0.19,40.06,-25.87,-11.88,17.5,-0.3570188114298117,0.08056449531777088,-0.5566818450380335,-150.12163073433226,-21.707181480459113,-10.016593913069029,0.1524,-0.9662,-0.1883,-0.0873
98,172984.0,140.141146,1.0,1.84,-2.52,-9.76,-5.0,-0.88,39.38,-44.94,-36.94,15.06,-0.3052909292558485,0.12455657486085968,-0.4346820963716915,-151.3927025567389,-21.298944377524897,-9.384074619875276,0.1423,-0.9690000000000001,-0.1848,-0.0818
99,172984.0,140.141146,1.0,1.84,-2.52,-9.76,-5.0,-0.88,39.38,-44.94,-36.94,15.06,-0.3052909292558485,0.12455657486085968,-0.4346820963716915,-151.3927025567389,-21.298944377524897,-9.384074619875276,0.1423,-0.9690000000000001,-0.1848,-0.0818
100,173017.0,140.241823,1.0,0.9,-1.64,-9.43,-5.0,-0.88,39.38,-28.25,-47.5,16.5,-0.5847849738494932,0.8142928966561376,0.24529791921063016,-153.1625065187994,-20.797769475573414,-7.8212153932673,0.1287,-0.9727,-0.1805,-0.0682
101,173017.0,140.241823,1.0,0.9,-1.64,-9.43,-5.0,-0.88,39.38,-28.25,-47.5,16.5,-0.5847849738494932,0.8142928966561376,0.24529791921063016,-153.1625065187994,-20.797769475573414,-7.8212153932673,0.1287,-0.9727,-0.1805,-0.0682
102,173053.0,140.33279199999998,1.0,1.07,-2.23,-10.05,-3.88,-1.56,39.25,-7.31,-56.69,23.62,-0.460119499324345,0.27837831069296315,-0.5292629041646482,-154.16860854190614,-20.285355318851703,-6.454917855397503,0.1252,-0.9747,-0.1761,-0.0563
103,173053.0,140.33279199999998,1.0,1.07,-2.23,-10.05,-3.88,-1.56,39.25,-7.31,-56.69,23.62,-0.460119499324345,0.27837831069296315,-0.5292629041646482,-154.16860854190614,-20.285355318851703,-6.454917855397503,0.1252,-0.9747,-0.1761,-0.0563
104,173090.0,140.391142,1.0,0.99,-1.93,-9.98,-2.38,-2.5,39.25,-5.88,-68.94,24.12,0.009139405623968005,0.3486374548198117,-0.4003950374416174,-155.6456486519571,-19.691932497848974,-3.908329853329541,0.1188,-0.9775,-0.171,-0.0341
105,173090.0,140.391142,1.0,0.99,-1.93,-9.98,-2.38,-2.5,39.25,-5.88,-68.94,24.12,0.009139405623968005,0.3486374548198117,-0.4003950374416174,-155.6456486519571,-19.691932497848974,-3.908329853329541,0.1188,-0.9775,-0.171,-0.0341
106,173125.0,140.39506699999998,1.0,0.46,-2.22,-9.84,-2.38,-2.5,39.25,5.38,-51.56,25.12,-0.2764087620870584,0.12919001683589015,-0.28654117701589144,-156.41828103776766,-19.16876722159467,-2.142987063023817,0.1169,-0.9789,-0.1665,-0.0187
107,173125.0,140.39506699999998,1.0,0.46,-2.22,-9.84,-2.38,-2.5,39.25,5.38,-51.56,25.12,-0.2764087620870584,0.12919001683589015,-0.28654117701589144,-156.41828103776766,-19.16876722159467,-2.142987063023817,0.1169,-0.9789,-0.1665,-0.0187
108,173158.0,140.413355,1.0,0.78,-2.21,-10.16,-0.5,-2.5,40.56,6.25,-79.62,28.62,0.5143035181029988,0.03114756048047207,-0.6074088494948969,-157.21671751944734,-18.320928845487863,0.4812859628976946,0.1168,-0.9803,-0.1592,0.0042
109,173158.0,140.413355,1.0,0.78,-2.21,-10.16,-0.5,-2.5,40.56,6.25,-79.62,28.62,0.5143035181029988,0.03114756048047207,-0.6074088494948969,-157.21671751944734,-18.320928845487863,0.4812859628976946,0.1168,-0.9803,-0.1592,0.0042
110,173193.0,140.41638500000002,1.0,-0.73,-2.31,-9.46,1.25,-2.75,39.56,9.0,-54.69,24.81,-0.6464862657434809,0.17219972269550854,0.06431954144396458,-157.56748354792904,-17.81039419409229,2.4639083675369537,0.1157,-0.9809,-0.1548,0.0215
111,173193.0,140.41638500000002,1.0,-0.73,-2.31,-9.46,1.25,-2.75,39.56,9.0,-54.69,24.81,-0.6464862657434809,0.17219972269550854,0.06431954144396458,-157.56748354792904,-17.81039419409229,2.4639083675369537,0.1157,-0.9809,-0.1548,0.0215
112,173230.0,140.455106,1.0,-0.61,-2.73,-9.91,3.19,-3.19,39.19,19.37,-52.44,30.0,-0.23936419003259626,-0.1680384297213655,-0.4864334967305517,-157.6856148741907,-16.998909587512788,4.49314033842009,0.1182,-0.9811,-0.1478,0.0392
113,173230.0,140.455106,1.0,-0.61,-2.73,-9.91,3.19,-3.19,39.19,19.37,-52.44,30.0,-0.23936419003259626,-0.1680384297213655,-0.4864334967305517,-157.6856148741907,-16.998909587512788,4.49314033842009,0.1182,-0.9811,-0.1478,0.0392
114,173264.0,140.462917,1.0,-0.64,-2.39,-9.69,3.19,-3.19,39.19,9.25,-53.0,29.81,0.111736065093737,0.085853867366817,-0.1932472077324654,-157.80436691060555,-16.24615724549883,6.190955481383822,0.1196,-0.9813,-0.1413,0.054000000000000006
115,173264.0,140.462917,1.0,-0.64,-2.39,-9.69,3.19,-3.19,39.19,9.25,-53.0,29.81,0.111736065093737,0.085853867366817,-0.1932472077324654,-157.80436691060555,-16.24615724549883,6.190955481383822,0.1196,-0.9813,-0.1413,0.054000000000000006
116,173301.0,140.48148,1.0,-1.18,-2.34,-9.72,4.69,-2.06,39.19,22.44,-47.63,26.44,-0.020712975819287882,0.2581425958239023,-0.2571133802099084,-157.50864759230302,-15.540370148995088,8.22327089407658,0.1206,-0.9808,-0.1352,0.0717
117,173301.0,140.48148,1.0,-1.18,-2.34,-9.72,4.69,-2.06,39.19,22.44,-47.63,26.44,-0.020712975819287882,0.2581425958239023,-0.2571133802099084,-157.50864759230302,-15.540370148995088,8.22327089407658,0.1206,-0.9808,-0.1352,0.0717
118,173336.0,140.484624,1.0,-1.73,-2.64,-9.22,5.5,-2.06,38.75,18.62,-41.81,23.81,-0.4443904026464071,0.03126672453602364,0.07153625839571197,-157.1587733939545,-14.962299399917931,9.683046840720888,0.1232,-0.9802,-0.1302,0.0844
119,173336.0,140.484624,1.0,-1.73,-2.64,-9.22,5.5,-2.06,38.75,18.62,-41.81,23.81,-0.4443904026464071,0.03126672453602364,0.07153625839571197,-157.1587733939545,-14.962299399917931,9.683046840720888,0.1232,-0.9802,-0.1302,0.0844
120,173371.0,140.54616399999998,1.0,-0.6,-2.93,-10.43,5.5,-2.06,38.75,32.94,-64.25,35.19,1.2007250270379188,-0.2139904128513992,-0.9749207349463892,-156.41828103776766,-14.026630173419028,11.616551985135152,0.1288,-0.9789,-0.1221,0.1012
121,173371.0,140.54616399999998,1.0,-0.6,-2.93,-10.43,5.5,-2.06,38.75,32.94,-64.25,35.19,1.2007250270379188,-0.2139904128513992,-0.9749207349463892,-156.41828103776766,-14.026630173419028,11.616551985135152,0.1288,-0.9789,-0.1221,0.1012
122,173406.0,140.549823,1.0,-2.7,-3.12,-8.57,7.25,-1.69,37.88,25.56,-103.81,38.44,-0.5560899301559369,-0.2926534219454471,0.3158956588423507,-154.42620867150097,-12.907367253850758,15.748572284340513,0.1324,-0.9752,-0.1124,0.13699999999999998
123,173406.0,140.549823,1.0,-2.7,-3.12,-8.57,7.25,-1.69,37.88,25.56,-103.81,38.44,-0.5560899301559369,-0.2926534219454471,0.3158956588423507,-154.42620867150097,-12.907367253850758,15.748572284340513,0.1324,-0.9752,-0.1124,0.13699999999999998
124,173443.0,140.60949499999998,1.0,-3.29,-2.51,-8.34,8.75,-1.37,37.0,4.69,-38.44,23.94,-0.7681012198078891,0.30854540723276025,0.5333215658397386,-153.61058909469406,-12.307865676783145,17.578451378167774,0.1311,-0.9736,-0.1072,0.1528
125,173443.0,140.60949499999998,1.0,-3.29,-2.51,-8.34,8.75,-1.37,37.0,4.69,-38.44,23.94,-0.7681012198078891,0.30854540723276025,0.5333215658397386,-153.61058909469406,-12.307865676783145,17.578451378167774,0.1311,-0.9736,-0.1072,0.1528
126,173477.0,140.648731,1.0,-2.39,-2.63,-9.52,8.75,-1.37,37.0,15.56,-26.0,21.81,0.5860164216330511,0.237945835902043,-0.3353106848357097,-153.21193002249612,-11.754779974813852,18.37896716762953,0.1325,-0.9728,-0.1024,0.1597
127,173477.0,140.648731,1.0,-2.39,-2.63,-9.52,8.75,-1.37,37.0,15.56,-26.0,21.81,0.5860164216330511,0.237945835902043,-0.3353106848357097,-153.21193002249612,-11.754779974813852,18.37896716762953,0.1325,-0.9728,-0.1024,0.1597
128,173512.0,140.655403,1.0,-3.35,-2.74,-8.53,11.5,-2.06,36.69,30.25,-70.06,27.44,-0.2540337397157953,0.17833922731469,0.24659445732208066,-151.57882322936237,-10.937173775974523,20.669626923426364,0.1374,-0.9694,-0.0953,0.1794
129,173512.0,140.655403,1.0,-3.35,-2.74,-8.53,11.5,-2.06,36.69,30.25,-70.06,27.44,-0.2540337397157953,0.17833922731469,0.24659445732208066,-151.57882322936237,-10.937173775974523,20.669626923426364,0.1374,-0.9694,-0.0953,0.1794
130,173547.0,140.717199,1.0,-3.7,-3.14,-8.14,12.25,-1.37,37.5,22.69,-48.13,21.69,-0.3803409664651883,-0.16895136811839118,0.3390211424433591,-149.85607839466778,-10.166142467644526,22.921897728102717,0.1424,-0.9656,-0.0886,0.1987
131,173547.0,140.717199,1.0,-3.7,-3.14,-8.14,12.25,-1.37,37.5,22.69,-48.13,21.69,-0.3803409664651883,-0.16895136811839118,0.3390211424433591,-149.85607839466778,-10.166142467644526,22.921897728102717,0.1424,-0.9656,-0.0886,0.1987
132,173582.0,140.729796,1.0,-3.35,-2.84,-8.9,13.75,-1.0,35.0,-2.13,-26.75,17.25,0.4435295908598982,0.19968084521562732,-0.10604433918375557,-149.33171261025748,-9.671546700479858,23.81122080455561,0.1428,-0.9644,-0.0843,0.2063
133,173582.0,140.729796,1.0,-3.35,-2.84,-8.9,13.75,-1.0,35.0,-2.13,-26.75,17.25,0.4435295908598982,0.19968084521562732,-0.10604433918375557,-149.33171261025748,-9.671546700479858,23.81122080455561,0.1428,-0.9644,-0.0843,0.2063
134,173617.0,140.770065,1.0,-3.85,-2.46,-8.51,13.75,-1.0,35.0,3.94,-39.94,12.5,0.11717212016206845,0.528349369567056,0.16293092290454148,-148.30838490049834,-9.349581983346614,25.28886585104528,0.1416,-0.9620000000000001,-0.0815,0.2189
135,173617.0,140.770065,1.0,-3.85,-2.46,-8.51,13.75,-1.0,35.0,3.94,-39.94,12.5,0.11717212016206845,0.528349369567056,0.16293092290454148,-148.30838490049834,-9.349581983346614,25.28886585104528,0.1416,-0.9620000000000001,-0.0815,0.2189
136,173654.0,140.830516,1.0,-3.83,-2.81,-8.31,14.19,-0.25,35.38,22.31,-28.56,9.56,0.19693610006901616,0.19201917505250554,0.2387116218068268,-147.31628725286762,-9.050681021579294,26.32339770363258,0.1451,-0.9596,-0.0789,0.2277
137,173654.0,140.830516,1.0,-3.83,-2.81,-8.31,14.19,-0.25,35.38,22.31,-28.56,9.56,0.19693610006901616,0.19201917505250554,0.2387116218068268,-147.31628725286762,-9.050681021579294,26.32339770363258,0.1451,-0.9596,-0.0789,0.2277
138,173688.0,140.84894599999998,1.0,-4.24,-3.39,-7.49,14.56,0.0,33.69,26.94,-43.25,11.81,-0.3064554366503299,-0.37689640081435294,0.5690185845125537,-145.68599243347148,-8.61393617408195,27.961985822582488,0.1517,-0.9555,-0.0751,0.2416
139,173688.0,140.84894599999998,1.0,-4.24,-3.39,-7.49,14.56,0.0,33.69,26.94,-43.25,11.81,-0.3064554366503299,-0.37689640081435294,0.5690185845125537,-145.68599243347148,-8.61393617408195,27.961985822582488,0.1517,-0.9555,-0.0751,0.2416
140,173723.0,140.895239,1.0,-4.15,-2.35,-7.01,14.56,0.0,33.69,-1.25,-5.44,0.06,-0.3030718115121194,0.4564827840840389,1.3458657015497872,-145.22287322309495,-8.533497036933403,28.52916895270361,0.1517,-0.9543,-0.0744,0.2464
141,173723.0,140.895239,1.0,-4.15,-2.35,-7.01,14.56,0.0,33.69,-1.25,-5.44,0.06,-0.3030718115121194,0.4564827840840389,1.3458657015497872,-145.22287322309495,-8.533497036933403,28.52916895270361,0.1517,-0.9543,-0.0744,0.2464
142,173758.0,140.913035,1.0,-4.04,-2.76,-7.34,16.19,0.37,34.06,5.19,10.31,-8.0,-0.12498262740163768,0.16793168594549954,0.9878644661692046,-145.37657897397716,-8.717364176475899,28.18641141984425,0.1534,-0.9547,-0.076,0.2435
143,173758.0,140.913035,1.0,-4.04,-2.76,-7.34,16.19,0.37,34.06,5.19,10.31,-8.0,-0.12498262740163768,0.16793168594549954,0.9878644661692046,-145.37657897397716,-8.717364176475899,28.18641141984425,0.1534,-0.9547,-0.076,0.2435
144,173793.0,140.95818300000002,1.0,-4.54,-3.04,-6.71,17.25,0.0,33.69,-1.56,5.75,-5.44,-0.9151390555078964,-0.13146542381033965,1.2030148757384804,-145.4536804163923,-8.843785851491393,28.009224192772628,0.1539,-0.9549,-0.0771,0.242
145,173793.0,140.95818300000002,1.0,-4.54,-3.04,-6.71,17.25,0.0,33.69,-1.56,5.75,-5.44,-0.9151390555078964,-0.13146542381033965,1.2030148757384804,-145.4536804163923,-8.843785851491393,28.009224192772628,0.1539,-0.9549,-0.0771,0.242
146,173830.0,141.01636000000002,1.0,-4.22,-2.31,-6.98,16.5,0.37,33.69,-9.44,26.75,-14.69,-0.5993806342714626,0.5669327628158792,1.3695752641862722,-146.15525518443252,-9.257605761151561,27.041794884833607,0.1533,-0.9567,-0.0807,0.2338
147,173830.0,141.01636000000002,1.0,-4.22,-2.31,-6.98,16.5,0.37,33.69,-9.44,26.75,-14.69,-0.5993806342714626,0.5669327628158792,1.3695752641862722,-146.15525518443252,-9.257605761151561,27.041794884833607,0.1533,-0.9567,-0.0807,0.2338
148,173862.0,141.02393899999998,1.0,-3.82,-3.18,-7.71,16.5,0.37,33.69,7.69,61.44,-28.37,-0.2429998903240975,-0.06413679424936758,0.6368224375577327,-147.15377378773437,-9.752049739225924,25.371080328389592,0.1566,-0.9592,-0.085,0.2196
149,173862.0,141.02393899999998,1.0,-3.82,-3.18,-7.71,16.5,0.37,33.69,7.69,61.44,-28.37,-0.2429998903240975,-0.06413679424936758,0.6368224375577327,-147.15377378773437,-9.752049739225924,25.371080328389592,0.1566,-0.9592,-0.085,0.2196
150,173899.0,141.087779,1.0,-3.5,-3.5,-7.76,14.69,-0.37,34.88,-16.44,88.62,-39.56,-0.4534296670438082,-0.2978026549667563,0.6184338991597933,-148.94411093259438,-10.499813733449363,22.337582426465424,0.1607,-0.9635,-0.0915,0.1937
151,173899.0,141.087779,1.0,-3.5,-3.5,-7.76,14.69,-0.37,34.88,-16.44,88.62,-39.56,-0.4534296670438082,-0.2978026549667563,0.6184338991597933,-148.94411093259438,-10.499813733449363,22.337582426465424,0.1607,-0.9635,-0.0915,0.1937
152,173934.0,141.106405,1.0,-2.89,-3.04,-9.05,13.5,0.37,34.75,0.0,108.5,-49.38,0.08780591787106565,0.4358599816960944,-0.15821408322475428,-150.79583135983617,-11.443790822449785,19.017706136871343,0.1622,-0.9677,-0.0997,0.1652
153,173934.0,141.106405,1.0,-2.89,-3.04,-9.05,13.5,0.37,34.75,0.0,108.5,-49.38,0.08780591787106565,0.4358599816960944,-0.15821408322475428,-150.79583135983617,-11.443790822449785,19.017706136871343,0.1622,-0.9677,-0.0997,0.1652
154,173969.0,141.154857,1.0,-1.96,-3.61,-8.61,13.5,0.37,34.75,12.31,93.06,-41.25,0.07950935706811074,-0.2004233851956632,0.2693910264371375,-152.04943428155016,-12.434654560583265,15.147239662385427,0.1711,-0.9704,-0.1083,0.1318
155,173969.0,141.154857,1.0,-1.96,-3.61,-8.61,13.5,0.37,34.75,12.31,93.06,-41.25,0.07950935706811074,-0.2004233851956632,0.2693910264371375,-152.04943428155016,-12.434654560583265,15.147239662385427,0.1711,-0.9704,-0.1083,0.1318
156,174004.0,141.173644,1.0,-1.95,-3.2,-9.1,11.25,1.06,37.0,-9.38,53.19,-37.69,-0.03189780159996497,0.3749619770937251,-0.02751931143586717,-152.62462859250314,-13.2187858542384,13.276466658923828,0.1714,-0.9716,-0.1151,0.1156
157,174004.0,141.173644,1.0,-1.95,-3.2,-9.1,11.25,1.06,37.0,-9.38,53.19,-37.69,-0.03189780159996497,0.3749619770937251,-0.02751931143586717,-152.62462859250314,-13.2187858542384,13.276466658923828,0.1714,-0.9716,-0.1151,0.1156
158,174041.0,141.17870200000002,1.0,-1.56,-3.74,-9.08,8.25,1.06,38.06,6.56,69.25,-34.5,-0.2270817073925919,-0.08087563419489552,-0.13364642565860407,-152.91671705681662,-14.222925164993965,10.67243717618693,0.1754,-0.9722,-0.1238,0.09300000000000001
159,174041.0,141.17870200000002,1.0,-1.56,-3.74,-9.08,8.25,1.06,38.06,6.56,69.25,-34.5,-0.2270817073925919,-0.08087563419489552,-0.13364642565860407,-152.91671705681662,-14.222925164993965,10.67243717618693,0.1754,-0.9722,-0.1238,0.09300000000000001
160,174075.0,141.216123,1.0,-0.6,-4.29,-9.27,8.25,1.06,38.06,2.5,47.0,-26.5,0.29899728527717884,-0.6546545824739023,-0.4001628228670313,-152.965699486827,-14.7196246947995,8.878266355561609,0.1795,-0.9723,-0.1281,0.0774
161,174075.0,141.216123,1.0,-0.6,-4.29,-9.27,8.25,1.06,38.06,2.5,47.0,-26.5,0.29899728527717884,-0.6546545824739023,-0.4001628228670313,-152.965699486827,-14.7196246947995,8.878266355561609,0.1795,-0.9723,-0.1281,0.0774
162,174110.0,141.274542,1.0,-1.05,-3.57,-8.77,6.75,1.5,37.69,-28.37,39.69,-32.94,-0.3658794741409849,-0.07510062029509901,0.28715462959125304,-153.3110465719337,-15.632898017228825,7.281463046960031,0.1754,-0.973,-0.136,0.0635
163,174110.0,141.274542,1.0,-1.05,-3.57,-8.77,6.75,1.5,37.69,-28.37,39.69,-32.94,-0.3658794741409849,-0.07510062029509901,0.28715462959125304,-153.3110465719337,-15.632898017228825,7.281463046960031,0.1754,-0.973,-0.136,0.0635
164,174145.0,141.325353,1.0,-0.71,-3.66,-9.27,5.69,1.88,38.19,4.13,47.56,-25.19,-0.2659950630599777,-0.04836308683613977,-0.18131814363458965,-153.3110465719337,-16.2808838756779,5.697547703194251,0.1753,-0.973,-0.1416,0.0497
165,174145.0,141.325353,1.0,-0.71,-3.66,-9.27,5.69,1.88,38.19,4.13,47.56,-25.19,-0.2659950630599777,-0.04836308683613977,-0.18131814363458965,-153.3110465719337,-16.2808838756779,5.697547703194251,0.1753,-0.973,-0.1416,0.0497
166,174182.0,141.33283500000002,1.0,-0.28,-3.9,-9.0,4.5,1.06,38.06,-16.5,35.75,-20.62,-0.2158499594124837,-0.4341111435884131,0.0059685793010277885,-153.2614432071201,-16.801965875210325,4.240855681461491,0.1755,-0.9729,-0.1461,0.037000000000000005
167,174182.0,141.33283500000002,1.0,-0.28,-3.9,-9.0,4.5,1.06,38.06,-16.5,35.75,-20.62,-0.2158499594124837,-0.4341111435884131,0.0059685793010277885,-153.2614432071201,-16.801965875210325,4.240855681461491,0.1755,-0.9729,-0.1461,0.037000000000000005
168,174215.0,141.392566,1.0,0.41,-3.66,-9.74,4.5,1.06,38.06,-14.94,38.69,-20.44,0.2740666607793131,-0.19654899926821434,-0.6009220490581271,-153.36074062083046,-17.346581127291525,2.555603608821701,0.1724,-0.9731,-0.1508,0.0223
169,174215.0,141.392566,1.0,0.41,-3.66,-9.74,4.5,1.06,38.06,-14.94,38.69,-20.44,0.2740666607793131,-0.19654899926821434,-0.6009220490581271,-153.36074062083046,-17.346581127291525,2.555603608821701,0.1724,-0.9731,-0.1508,0.0223
170,174252.0,141.446254,1.0,0.01,-3.29,-9.51,3.0,1.5,39.38,-23.37,33.25,-18.12,-0.2291417824175637,0.1175500805722538,-0.2530704743525565,-153.61058909469406,-17.740803669389525,1.5011923619341792,0.1678,-0.9736,-0.1542,0.0131
171,174252.0,141.446254,1.0,0.01,-3.29,-9.51,3.0,1.5,39.38,-23.37,33.25,-18.12,-0.2291417824175637,0.1175500805722538,-0.2530704743525565,-153.61058909469406,-17.740803669389525,1.5011923619341792,0.1678,-0.9736,-0.1542,0.0131
172,174288.0,141.45264,1.0,0.96,-3.13,-9.66,1.88,0.75,38.56,-16.87,38.75,-15.5,0.4975666973252066,-0.009741108381721821,-0.3809126374771523,-153.71118144535646,-18.03080801097451,0.2406424508273681,0.1646,-0.9738,-0.1567,0.0021
173,174288.0,141.45264,1.0,0.96,-3.13,-9.66,1.88,0.75,38.56,-16.87,38.75,-15.5,0.4975666973252066,-0.009741108381721821,-0.3809126374771523,-153.71118144535646,-18.03080801097451,0.2406424508273681,0.1646,-0.9738,-0.1567,0.0021
174,174321.0,141.507553,1.0,0.46,-2.94,-9.35,1.88,0.75,38.56,-20.19,22.44,-14.25,-0.15227351345052792,0.15879286789303215,-0.003003286544217332,-153.81215335885898,-18.4137924426918,-0.9052827329224428,0.1601,-0.9740000000000001,-0.16,-0.0079
175,174321.0,141.507553,1.0,0.46,-2.94,-9.35,1.88,0.75,38.56,-20.19,22.44,-14.25,-0.15227351345052792,0.15879286789303215,-0.003003286544217332,-153.81215335885898,-18.4137924426918,-0.9052827329224428,0.1601,-0.9740000000000001,-0.16,-0.0079
176,174356.0,141.529282,1.0,0.93,-2.85,-9.78,0.75,0.37,39.75,-16.94,43.31,-17.0,0.032158955213761116,0.1997908893923808,-0.4205123338106542,-153.76161968319718,-18.773754707559725,-2.532679647359437,0.1563,-0.9739,-0.1631,-0.0221
177,174356.0,141.529282,1.0,0.93,-2.85,-9.78,0.75,0.37,39.75,-16.94,43.31,-17.0,0.032158955213761116,0.1997908893923808,-0.4205123338106542,-153.76161968319718,-18.773754707559725,-2.532679647359437,0.1563,-0.9739,-0.1631,-0.0221
178,174393.0,141.53379099999998,1.0,1.0,-3.23,-9.16,0.0,-0.5,39.0,-8.44,18.62,-7.25,-0.17793290338857645,-0.3393212847756033,0.05002656012132256,-153.61058909469406,-18.86667840059343,-3.40386984812725,0.1559,-0.9736,-0.1639,-0.0297
179,174393.0,141.53379099999998,1.0,1.0,-3.23,-9.16,0.0,-0.5,39.0,-8.44,18.62,-7.25,-0.17793290338857645,-0.3393212847756033,0.05002656012132256,-153.61058909469406,-18.86667840059343,-3.40386984812725,0.1559,-0.9736,-0.1639,-0.0297
180,174428.0,141.57941599999998,1.0,0.93,-2.91,-9.27,0.0,-0.5,39.0,-17.19,27.81,-11.44,-0.2785791374470624,-0.03887530160863073,0.050278626630486656,-153.66083809692267,-19.05256341690962,-4.149120969117045,0.1526,-0.9737,-0.1655,-0.0362
181,174428.0,141.57941599999998,1.0,0.93,-2.91,-9.27,0.0,-0.5,39.0,-17.19,27.81,-11.44,-0.2785791374470624,-0.03887530160863073,0.050278626630486656,-153.66083809692267,-19.05256341690962,-4.149120969117045,0.1526,-0.9737,-0.1655,-0.0362
182,174462.0,141.601792,1.0,0.39,-3.01,-8.5,-1.06,-0.5,38.88,-2.38,27.56,-3.88,-0.9802004143444156,-0.18651021767072806,0.8363311045301476,-153.4604028099656,-19.08742247639564,-5.273072468222583,0.1517,-0.9733,-0.1658,-0.046
183,174462.0,141.601792,1.0,0.39,-3.01,-8.5,-1.06,-0.5,38.88,-2.38,27.56,-3.88,-0.9802004143444156,-0.18651021767072806,0.8363311045301476,-153.4604028099656,-19.08742247639564,-5.273072468222583,0.1517,-0.9733,-0.1658,-0.046
184,174497.0,141.654818,1.0,1.77,-2.75,-9.6,-1.75,-1.19,39.38,-8.25,71.94,-10.44,-0.05663883787136401,0.061653948041468835,-0.33476956694108395,-152.81901206638815,-19.05256341690962,-7.729330710703709,0.1528,-0.972,-0.1655,-0.0674
185,174497.0,141.654818,1.0,1.77,-2.75,-9.6,-1.75,-1.19,39.38,-8.25,71.94,-10.44,-0.05663883787136401,0.061653948041468835,-0.33476956694108395,-152.81901206638815,-19.05256341690962,-7.729330710703709,0.1528,-0.972,-0.1655,-0.0674
186,174534.0,141.707074,1.0,2.28,-3.07,-9.47,-4.0,-0.75,40.06,1.06,54.06,-4.06,0.024604686907169104,-0.3287844453498088,-0.4009694775215955,-152.1444912618588,-18.959614614971002,-9.499056247386587,0.1545,-0.9706,-0.1647,-0.0828
187,174534.0,141.707074,1.0,2.28,-3.07,-9.47,-4.0,-0.75,40.06,1.06,54.06,-4.06,0.024604686907169104,-0.3287844453498088,-0.4009694775215955,-152.1444912618588,-18.959614614971002,-9.499056247386587,0.1545,-0.9706,-0.1647,-0.0828
188,174567.0,141.76981999999998,1.0,2.27,-2.64,-9.38,-4.0,-0.75,40.06,-7.0,36.13,-1.31,-0.08752591815217231,0.10262276389152647,-0.19778440590136093,-151.6255402012684,-18.738911537329376,-11.086833319532733,0.1555,-0.9695,-0.1628,-0.0966
189,174567.0,141.76981999999998,1.0,2.27,-2.64,-9.38,-4.0,-0.75,40.06,-7.0,36.13,-1.31,-0.08752591815217231,0.10262276389152647,-0.19778440590136093,-151.6255402012684,-18.738911537329376,-11.086833319532733,0.1555,-0.9695,-0.1628,-0.0966
190,174604.0,141.78823500000001,1.0,2.11,-3.16,-9.19,-4.0,-1.56,39.25,-3.06,36.19,2.69,-0.5214111972004152,-0.3153088045068437,-0.1192006296052277,-151.30008546167102,-18.460228812044047,-11.962154211464537,0.1575,-0.9688,-0.1604,-0.1042
191,174604.0,141.78823500000001,1.0,2.11,-3.16,-9.19,-4.0,-1.56,39.25,-3.06,36.19,2.69,-0.5214111972004152,-0.3153088045068437,-0.1192006296052277,-151.30008546167102,-18.460228812044047,-11.962154211464537,0.1575,-0.9688,-0.1604,-0.1042
192,174639.0,141.7917,1.0,3.1,-2.76,-9.55,-5.88,-0.5,38.38,-16.31,51.56,0.56,0.15044014310309126,-0.07759543107671374,-0.6049515440670383,-150.84131999821054,-18.054013364312716,-13.865006554805131,0.1556,-0.9678,-0.1569,-0.1207
193,174639.0,141.7917,1.0,3.1,-2.76,-9.55,-5.88,-0.5,38.38,-16.31,51.56,0.56,0.15044014310309126,-0.07759543107671374,-0.6049515440670383,-150.84131999821054,-18.054013364312716,-13.865006554805131,0.1556,-0.9678,-0.1569,-0.1207
194,174673.0,141.83701100000002,1.0,2.86,-2.66,-9.21,-5.88,-0.5,38.38,-19.62,31.12,2.13,-0.16149095932264065,-0.0665898636503992,-0.19578902556351885,-150.65977940351803,-17.787196618044018,-14.962299399917931,0.1523,-0.9674,-0.1546,-0.1302
195,174673.0,141.83701100000002,1.0,2.86,-2.66,-9.21,-5.88,-0.5,38.38,-19.62,31.12,2.13,-0.16149095932264065,-0.0665898636503992,-0.19578902556351885,-150.65977940351803,-17.787196618044018,-14.962299399917931,0.1523,-0.9674,-0.1546,-0.1302
196,174708.0,141.855895,1.0,3.22,-2.56,-9.47,-7.69,-1.19,38.88,-20.25,26.44,5.13,-0.0479788546568796,-0.042755197974026604,-0.5180180344964125,-150.70506138327715,-17.346581127291525,-16.084119443363345,0.1472,-0.9675,-0.1508,-0.1399
197,174708.0,141.855895,1.0,3.22,-2.56,-9.47,-7.69,-1.19,38.88,-20.25,26.44,5.13,-0.0479788546568796,-0.042755197974026604,-0.5180180344964125,-150.70506138327715,-17.346581127291525,-16.084119443363345,0.1472,-0.9675,-0.1508,-0.1399
198,174743.0,141.899351,1.0,2.88,-2.33,-9.16,-9.56,-2.25,38.5,-32.13,-0.19,5.44,-0.2614024319912831,0.05172730149686866,-0.07048992281312749,-151.1157235364922,-17.010496081346126,-16.338764939656073,0.1415,-0.9684,-0.1479,-0.1421
199,174743.0,141.899351,1.0,2.88,-2.33,-9.16,-9.56,-2.25,38.5,-32.13,-0.19,5.44,-0.2614024319912831,0.05172730149686866,-0.07048992281312749,-151.1157235364922,-17.010496081346126,-16.338764939656073,0.1415,-0.9684,-0.1479,-0.1421
200,174780.0,141.96563,1.0,3.26,-2.15,-9.66,-9.56,-2.25,38.5,-35.06,19.62,2.5,-0.11333997242178688,0.09435101456858352,-0.6117928748590522,-151.6255402012684,-16.605072138436235,-17.033669594732867,0.131,-0.9695,-0.1444,-0.1481
201,174780.0,141.96563,1.0,3.26,-2.15,-9.66,-9.56,-2.25,38.5,-35.06,19.62,2.5,-0.11333997242178688,0.09435101456858352,-0.6117928748590522,-151.6255402012684,-16.605072138436235,-17.033669594732867,0.131,-0.9695,-0.1444,-0.1481
202,174815.0,141.98593400000001,1.0,3.02,-1.68,-9.28,-8.5,-3.38,38.88,-51.13,-11.0,1.94,-0.13385546099492884,0.2990278414251548,-0.09051449623903453,-152.33556563307292,-16.269308165184984,-17.195903895593172,0.1215,-0.971,-0.1415,-0.1495
203,174815.0,141.98593400000001,1.0,3.02,-1.68,-9.28,-8.5,-3.38,38.88,-51.13,-11.0,1.94,-0.13385546099492884,0.2990278414251548,-0.09051449623903453,-152.33556563307292,-16.269308165184984,-17.195903895593172,0.1215,-0.971,-0.1415,-0.1495
204,174850.0,142.036987,1.0,3.58,-1.77,-9.84,-9.56,-4.19,38.0,-31.0,-1.12,13.88,0.19771609627615186,-0.01200910672461908,-0.8110552194261356,-153.4604028099656,-15.725436142775802,-17.137959104392678,0.1089,-0.9733,-0.1368,-0.149
205,174850.0,142.036987,1.0,3.58,-1.77,-9.84,-9.56,-4.19,38.0,-31.0,-1.12,13.88,0.19771609627615186,-0.01200910672461908,-0.8110552194261356,-153.4604028099656,-15.725436142775802,-17.137959104392678,0.1089,-0.9733,-0.1368,-0.149
206,174884.0,142.051035,1.0,2.25,-0.95,-9.0,-9.19,-5.25,38.06,-40.38,-26.5,8.06,-0.4856438559214129,0.6470025646154629,0.5163035195619976,-154.63414056108863,-15.39003407585724,-16.524012627926176,0.0981,-0.9756,-0.1339,-0.1437
207,174884.0,142.051035,1.0,2.25,-0.95,-9.0,-9.19,-5.25,38.06,-40.38,-26.5,8.06,-0.4856438559214129,0.6470025646154629,0.5163035195619976,-154.63414056108863,-15.39003407585724,-16.524012627926176,0.0981,-0.9756,-0.1339,-0.1437
208,174919.0,142.105842,1.0,2.82,-1.4,-9.79,-9.19,-5.25,38.06,-19.25,0.0,15.31,-0.26916182068838634,0.1317065816864076,-0.4727811754407973,-155.48320588867858,-14.754288420181696,-16.361918539628213,0.0909,-0.9772,-0.1284,-0.1423
209,174919.0,142.105842,1.0,2.82,-1.4,-9.79,-9.19,-5.25,38.06,-19.25,0.0,15.31,-0.26916182068838634,0.1317065816864076,-0.4727811754407973,-155.48320588867858,-14.754288420181696,-16.361918539628213,0.0909,-0.9772,-0.1284,-0.1423
210,174954.0,142.124456,1.0,2.38,-0.56,-9.65,-8.5,-5.69,36.75,-26.87,-18.69,9.0,-0.355249425947861,0.8470294135190861,-0.10580877761906747,-156.36226771891504,-14.430812668433536,-15.945255673236543,0.0834,-0.9788,-0.1256,-0.1387
211,174954.0,142.124456,1.0,2.38,-0.56,-9.65,-8.5,-5.69,36.75,-26.87,-18.69,9.0,-0.355249425947861,0.8470294135190861,-0.10580877761906747,-156.36226771891504,-14.430812668433536,-15.945255673236543,0.0834,-0.9788,-0.1256,-0.1387
