,TIME,ELAPSED_SECONDS,PSTATE,acc_x,acc_y,acc_z,mag_x,mag_y,mag_z,gyr_x,gyr_y,gyr_z,lin_x,lin_y,lin_z,eul_x,eul_y,eul_z,qua_w,qua_x,qua_y,qua_z
0,2163300.0,2141.475899,1.0,-0.99,3.68,-9.15,7.38,-26.19,26.25,0.12,1.19,0.81,0.010499291215499971,-0.0576149056602493,-0.1050385689336366,-149.20198320614296,-20.308637900960072,1.9596111689111861,-0.1981,-0.9641,-0.1763,0.0171
1,2163300.0,2141.475899,1.0,-0.99,3.68,-9.15,7.38,-26.19,26.25,0.12,1.19,0.81,0.010499291215499971,-0.0576149056602493,-0.1050385689336366,-149.20198320614296,-20.308637900960072,1.9596111689111861,-0.1981,-0.9641,-0.1763,0.0171
2,2163335.0,2141.5435850000003,1.0,-1.08,3.64,-9.1,8.06,-25.37,26.69,-0.88,1.12,0.81,-0.0894056164848438,-0.036305847262505735,-0.05320235798160944,-149.20198320614296,-20.285355318851703,1.9366895446536667,-0.1978,-0.9641,-0.1761,0.0169
3,2163335.0,2141.5435850000003,1.0,-1.08,3.64,-9.1,8.06,-25.37,26.69,-0.88,1.12,0.81,-0.0894056164848438,-0.036305847262505735,-0.05320235798160944,-149.20198320614296,-20.285355318851703,1.9366895446536667,-0.1978,-0.9641,-0.1761,0.0169
4,2163369.0,2141.551779,1.0,-1.02,3.67,-9.18,8.06,-25.37,26.69,1.12,1.25,0.69,-0.03417813200215211,-0.06163780675482311,-0.13199843105295095,-149.24516700325162,-20.27371434520358,1.8908465277120163,-0.1979,-0.9642,-0.17600000000000002,0.0165
5,2163369.0,2141.551779,1.0,-1.02,3.67,-9.18,8.06,-25.37,26.69,1.12,1.25,0.69,-0.03417813200215211,-0.06163780675482311,-0.13199843105295095,-149.24516700325162,-20.27371434520358,1.8908465277120163,-0.1979,-0.9642,-0.17600000000000002,0.0165
6,2163406.0,2141.618486,1.0,-0.98,3.43,-9.09,7.69,-26.5,26.25,0.12,0.12,1.0,-0.07667150764681853,-0.2243040013535937,0.0446210513186891,-149.33171261025748,-20.262073582983945,1.867925133192117,-0.1968,-0.9644,-0.1759,0.0163
7,2163406.0,2141.618486,1.0,-0.98,3.43,-9.09,7.69,-26.5,26.25,0.12,0.12,1.0,-0.07667150764681853,-0.2243040013535937,0.0446210513186891,-149.33171261025748,-20.262073582983945,1.867925133192117,-0.1968,-0.9644,-0.1759,0.0163
8,2163441.0,2141.636457,1.0,-1.15,3.68,-8.89,8.88,-25.37,26.25,1.94,0.25,1.06,-0.14024770827076347,0.11990508807856215,0.11836050441938363,-149.33171261025748,-20.22715256357965,1.8908465277120163,-0.19699999999999998,-0.9644,-0.1756,0.0165
9,2163441.0,2141.636457,1.0,-1.15,3.68,-8.89,8.88,-25.37,26.25,1.94,0.25,1.06,-0.14024770827076347,0.11990508807856215,0.11836050441938363,-149.33171261025748,-20.22715256357965,1.8908465277120163,-0.19699999999999998,-0.9644,-0.1756,0.0165
10,2163474.0,2141.683563,1.0,-0.81,3.66,-9.29,8.88,-25.37,26.25,0.19,3.25,0.75,0.1410029043674784,-0.1490660450246799,-0.20902259325007397,-149.4184972482763,-20.21551264575777,1.7877008349543104,-0.1964,-0.9646,-0.1755,0.0156
11,2163474.0,2141.683563,1.0,-0.81,3.66,-9.29,8.88,-25.37,26.25,0.19,3.25,0.75,0.1410029043674784,-0.1490660450246799,-0.20902259325007397,-149.4184972482763,-20.21551264575777,1.7877008349543104,-0.1964,-0.9646,-0.1755,0.0156
12,2163511.0,2141.701747,1.0,-0.91,3.5,-9.03,8.06,-25.37,26.25,4.06,1.94,2.19,-0.0006761331381801711,-0.1392365784907268,0.08041677649285539,-149.50552295905456,-20.168955080859906,1.7647797695524667,-0.1957,-0.9648,-0.1751,0.0154
13,2163511.0,2141.701747,1.0,-0.91,3.5,-9.03,8.06,-25.37,26.25,4.06,1.94,2.19,-0.0006761331381801711,-0.1392365784907268,0.08041677649285539,-149.50552295905456,-20.168955080859906,1.7647797695524667,-0.1957,-0.9648,-0.1751,0.0154
14,2163546.0,2141.7431109999998,1.0,-0.58,3.3,-9.08,8.88,-26.19,25.0,2.19,3.06,5.13,0.2177292013110889,-0.4044106276858794,0.1390832927509038,-149.72415559222358,-20.040939097265657,1.6272548279067642,-0.1941,-0.9653,-0.174,0.0142
15,2163546.0,2141.7431109999998,1.0,-0.58,3.3,-9.08,8.88,-26.19,25.0,2.19,3.06,5.13,0.2177292013110889,-0.4044106276858794,0.1390832927509038,-149.72415559222358,-20.040939097265657,1.6272548279067642,-0.1941,-0.9653,-0.174,0.0142
16,2163580.0,2141.803356,1.0,0.11,2.52,-9.67,8.88,-26.19,25.0,19.25,9.56,10.75,0.5557858270475706,-1.4590238035949894,-0.0642036436823048,-150.1661139822511,-19.81987998842397,1.4553519237055776,-0.1909,-0.9663,-0.1721,0.0127
17,2163580.0,2141.803356,1.0,0.11,2.52,-9.67,8.88,-26.19,25.0,19.25,9.56,10.75,0.5557858270475706,-1.4590238035949894,-0.0642036436823048,-150.1661139822511,-19.81987998842397,1.4553519237055776,-0.1909,-0.9663,-0.1721,0.0127
18,2163613.0,2141.820077,1.0,0.68,0.21,-8.93,7.69,-25.75,25.75,41.19,14.88,29.19,0.333924829883692,-3.1335385404054015,1.4208983685848915,-151.95469309277132,-18.947996901150276,0.9625804159917916,-0.1777,-0.9702,-0.1646,0.0084
19,2163613.0,2141.820077,1.0,0.68,0.21,-8.93,7.69,-25.75,25.75,41.19,14.88,29.19,0.333924829883692,-3.1335385404054015,1.4208983685848915,-151.95469309277132,-18.947996901150276,0.9625804159917916,-0.1777,-0.9702,-0.1646,0.0084
20,2163650.0,2141.8427039999997,1.0,0.58,-2.11,-6.31,7.69,-24.69,27.87,48.0,28.69,62.75,-0.3784252633712679,-4.120925209525405,4.56457314654388,-153.8627830260387,-17.578451378167774,0.1833465726697912,-0.1669,-0.9741,-0.1528,0.0016
21,2163650.0,2141.8427039999997,1.0,0.58,-2.11,-6.31,7.69,-24.69,27.87,48.0,28.69,62.75,-0.3784252633712679,-4.120925209525405,4.56457314654388,-153.8627830260387,-17.578451378167774,0.1833465726697912,-0.1669,-0.9741,-0.1528,0.0016
22,2163687.0,2141.874929,1.0,1.82,-2.92,-4.63,5.5,-23.87,29.25,-17.69,306.19,107.75,0.365090007055734,-4.463472674026316,6.170742826409287,-156.36226771891504,-14.765843296845908,-6.592650878252481,-0.1488,-0.9788,-0.1285,-0.0575
23,2163687.0,2141.874929,1.0,1.82,-2.92,-4.63,5.5,-23.87,29.25,-17.69,306.19,107.75,0.365090007055734,-4.463472674026316,6.170742826409287,-156.36226771891504,-14.765843296845908,-6.592650878252481,-0.1488,-0.9788,-0.1285,-0.0575
24,2163722.0,2141.9182969999997,1.0,5.49,-5.15,-0.57,5.5,-23.87,29.25,-91.31,553.63,146.38,3.9191199385070683,-6.424091170443763,9.207440903421135,-149.98856759602742,-12.941964550756788,-20.984205642908503,-0.1456,-0.9659,-0.1127,-0.1821
25,2163722.0,2141.9182969999997,1.0,5.49,-5.15,-0.57,5.5,-23.87,29.25,-91.31,553.63,146.38,3.9191199385070683,-6.424091170443763,9.207440903421135,-149.98856759602742,-12.941964550756788,-20.984205642908503,-0.1456,-0.9659,-0.1127,-0.1821
26,2163759.0,2141.939454,1.0,9.73,-1.22,2.51,-4.25,-23.87,28.75,-257.94,495.06,150.63,8.774240268482218,-2.988976419598722,5.739694421925912,-131.51059102084358,-8.303694005010767,-42.69210790112656,-0.1755,-0.9118,-0.0724,-0.364
27,2163759.0,2141.939454,1.0,9.73,-1.22,2.51,-4.25,-23.87,28.75,-257.94,495.06,150.63,8.774240268482218,-2.988976419598722,5.739694421925912,-131.51059102084358,-8.303694005010767,-42.69210790112656,-0.1755,-0.9118,-0.0724,-0.364
28,2163793.0,2141.983989,1.0,10.97,2.42,2.5,-18.87,-26.25,18.5,-376.88,435.06,94.37,6.9020295755831595,-0.14802939923685532,0.5986439707482312,-110.69183416222988,-2.4180613422720283,-60.79551422894158,-0.2587,-0.8226,-0.0211,-0.506
29,2163793.0,2141.983989,1.0,10.97,2.42,2.5,-18.87,-26.25,18.5,-376.88,435.06,94.37,6.9020295755831595,-0.14802939923685532,0.5986439707482312,-110.69183416222988,-2.4180613422720283,-60.79551422894158,-0.2587,-0.8226,-0.0211,-0.506
30,2163828.0,2142.048055,1.0,4.46,3.88,13.53,-18.87,-26.25,18.5,-361.06,418.0,58.5,11.54562807540314,8.172001799328928,5.573003942967403,-96.23234135298,1.7189378496716434,-71.87466002619819,-0.3179,-0.7445,0.015,-0.5869
31,2163828.0,2142.048055,1.0,4.46,3.88,13.53,-18.87,-26.25,18.5,-361.06,418.0,58.5,11.54562807540314,8.172001799328928,5.573003942967403,-96.23234135298,1.7189378496716434,-71.87466002619819,-0.3179,-0.7445,0.015,-0.5869
32,2163863.0,2142.065548,1.0,3.11,5.97,14.03,-25.75,-26.37,2.56,-339.13,346.38,30.06,7.890290563572195,10.560503797651704,1.5378547816996058,-77.30566907284118,6.099150260471113,-84.27313057499694,-0.3961,-0.6246,0.0532,-0.6709
33,2163863.0,2142.065548,1.0,3.11,5.97,14.03,-25.75,-26.37,2.56,-339.13,346.38,30.06,7.890290563572195,10.560503797651704,1.5378547816996058,-77.30566907284118,6.099150260471113,-84.27313057499694,-0.3961,-0.6246,0.0532,-0.6709
34,2163900.0,2142.1123420000004,1.0,-2.99,3.65,18.83,-26.75,-23.06,-12.69,-297.56,327.13,111.94,10.837396558330637,14.796743666457145,3.44750597689094,-64.94571342127749,9.936074868420336,-92.67181786365627,-0.4254,-0.5369,0.0866,-0.7234
35,2163900.0,2142.1123420000004,1.0,-2.99,3.65,18.83,-26.75,-23.06,-12.69,-297.56,327.13,111.94,10.837396558330637,14.796743666457145,3.44750597689094,-64.94571342127749,9.936074868420336,-92.67181786365627,-0.4254,-0.5369,0.0866,-0.7234
36,2163939.0,2142.134829,1.0,-5.02,5.82,23.91,-22.75,-14.19,-22.0,-322.06,516.63,52.88,8.27656846457721,19.034952787338398,-4.333006531718313,-43.97446806674141,12.745928771149693,-104.72685126814748,-0.4694,-0.3744,0.111,-0.7919
37,2163939.0,2142.134829,1.0,-5.02,5.82,23.91,-22.75,-14.19,-22.0,-322.06,516.63,52.88,8.27656846457721,19.034952787338398,-4.333006531718313,-43.97446806674141,12.745928771149693,-104.72685126814748,-0.4694,-0.3744,0.111,-0.7919
38,2163972.0,2142.193684,1.0,-4.13,9.92,27.87,-22.75,-14.19,-22.0,-310.63,586.94,77.69,-2.408022255274324,17.68996111406358,-14.140519031036256,-18.483448143006754,12.607573156584115,-114.98049967133859,-0.5011,-0.1606,0.1098,-0.8433
39,2163972.0,2142.193684,1.0,-4.13,9.92,27.87,-22.75,-14.19,-22.0,-310.63,586.94,77.69,-2.408022255274324,17.68996111406358,-14.140519031036256,-18.483448143006754,12.607573156584115,-114.98049967133859,-0.5011,-0.1606,0.1098,-0.8433
40,2164011.0,2142.238148,1.0,-4.93,13.38,27.18,-12.56,-4.5,-32.19,-172.06,535.5,155.94,-10.864302697762689,15.46019370846128,-14.380764855421006,-0.8823637238721431,10.51132121524803,-120.3388206480064,-0.4888,-0.0077,0.0916,-0.8675
41,2164011.0,2142.238148,1.0,-4.93,13.38,27.18,-12.56,-4.5,-32.19,-172.06,535.5,155.94,-10.864302697762689,15.46019370846128,-14.380764855421006,-0.8823637238721431,10.51132121524803,-120.3388206480064,-0.4888,-0.0077,0.0916,-0.8675
42,2164047.0,2142.255315,1.0,-6.16,13.44,26.02,3.38,3.0,-34.38,0.25,471.38,100.25,-15.096388757710583,10.23851922932186,-13.918681830490303,17.439320584956548,3.1287382797377283,-121.40719542947477,-0.4644,0.1516,0.0273,-0.8721
43,2164047.0,2142.255315,1.0,-6.16,13.44,26.02,3.38,3.0,-34.38,0.25,471.38,100.25,-15.096388757710583,10.23851922932186,-13.918681830490303,17.439320584956548,3.1287382797377283,-121.40719542947477,-0.4644,0.1516,0.0273,-0.8721
44,2164084.0,2142.3748219999998,1.0,-1.95,10.11,22.07,3.38,3.0,-34.38,119.0,443.5,137.94,-15.231545661860578,0.925240655033316,-9.173430254860088,28.115528300006982,-5.812283928177061,-119.31022017941788,-0.4401,0.2429,-0.0507,-0.863
45,2164084.0,2142.3748219999998,1.0,-1.95,10.11,22.07,3.38,3.0,-34.38,119.0,443.5,137.94,-15.231545661860578,0.925240655033316,-9.173430254860088,28.115528300006982,-5.812283928177061,-119.31022017941788,-0.4401,0.2429,-0.0507,-0.863
46,2164117.0,2142.380595,1.0,3.54,1.21,19.55,20.0,2.25,-30.25,166.94,334.38,12.13,-10.334445021270213,-11.955228622097216,-2.295827213187838,37.362137156703376,-19.029325032716933,-113.2733386110762,-0.4154,0.3203,-0.1653,-0.8352
47,2164117.0,2142.380595,1.0,3.54,1.21,19.55,20.0,2.25,-30.25,166.94,334.38,12.13,-10.334445021270213,-11.955228622097216,-2.295827213187838,37.362137156703376,-19.029325032716933,-113.2733386110762,-0.4154,0.3203,-0.1653,-0.8352
48,2164154.0,2142.391474,1.0,5.6,3.32,16.77,31.87,-6.0,-20.0,96.5,-53.06,-497.88,-10.226089070598007,-12.330477103576605,1.6211911418559468,38.987009992065246,-16.466118077182387,-99.90298951638178,-0.5312,0.3337,-0.1432,-0.7655
49,2164154.0,2142.391474,1.0,5.6,3.32,16.77,31.87,-6.0,-20.0,96.5,-53.06,-497.88,-10.226089070598007,-12.330477103576605,1.6211911418559468,38.987009992065246,-16.466118077182387,-99.90298951638178,-0.5312,0.3337,-0.1432,-0.7655
50,2164191.0,2142.394363,1.0,9.56,-2.78,11.73,36.75,-3.38,-15.88,125.19,222.13,82.37,-2.978649266162572,-15.06092751125972,8.801159547648826,42.60599837478333,-21.882225322200526,-95.54805066002704,-0.5325,0.3633,-0.1898,-0.7405
51,2164191.0,2142.394363,1.0,9.56,-2.78,11.73,36.75,-3.38,-15.88,125.19,222.13,82.37,-2.978649266162572,-15.06092751125972,8.801159547648826,42.60599837478333,-21.882225322200526,-95.54805066002704,-0.5325,0.3633,-0.1898,-0.7405
52,2164224.0,2142.435,1.0,4.33,-13.4,12.79,36.75,-3.38,-15.88,149.5,259.94,334.81,7.3289891835797825,-17.483652372073045,8.225252744572055,45.29989704883653,-35.63667282414923,-95.47986946417305,-0.4586,0.3851,-0.306,-0.7401
53,2164224.0,2142.435,1.0,4.33,-13.4,12.79,36.75,-3.38,-15.88,149.5,259.94,334.81,7.3289891835797825,-17.483652372073045,8.225252744572055,45.29989704883653,-35.63667282414923,-95.47986946417305,-0.4586,0.3851,-0.306,-0.7401
54,2164260.0,2142.452955,1.0,-1.63,-11.18,11.57,40.19,-3.0,-9.0,-41.56,-50.25,96.12,7.13024112283583,-13.610652817807386,4.764429119938049,43.41890031609472,-38.683253582612885,-99.17554944715711,-0.4168,0.3699,-0.3312,-0.7614
55,2164260.0,2142.452955,1.0,-1.63,-11.18,11.57,40.19,-3.0,-9.0,-41.56,-50.25,96.12,7.13024112283583,-13.610652817807386,4.764429119938049,43.41890031609472,-38.683253582612885,-99.17554944715711,-0.4168,0.3699,-0.3312,-0.7614
56,2164299.0,2142.498657,1.0,-3.74,-12.69,12.75,39.69,-14.69,-3.25,-97.12,-115.56,-62.19,8.453561256246495,-13.982256606781965,1.4030791953366517,43.628654629122934,-34.315074743396394,-100.31347946564678,-0.4304,0.3716,-0.295,-0.7678
57,2164299.0,2142.498657,1.0,-3.74,-12.69,12.75,39.69,-14.69,-3.25,-97.12,-115.56,-62.19,8.453561256246495,-13.982256606781965,1.4030791953366517,43.628654629122934,-34.315074743396394,-100.31347946564678,-0.4304,0.3716,-0.295,-0.7678
58,2164334.0,2142.5643,1.0,-8.62,-11.0,12.08,39.69,-14.69,-3.25,-221.63,-196.5,22.25,8.326447030620828,-9.561080152539883,-3.6278885541511428,41.31734313597096,-27.560654449020664,-105.89809368556764,-0.4264,0.3528,-0.2382,-0.7981
59,2164334.0,2142.5643,1.0,-8.62,-11.0,12.08,39.69,-14.69,-3.25,-221.63,-196.5,22.25,8.326447030620828,-9.561080152539883,-3.6278885541511428,41.31734313597096,-27.560654449020664,-105.89809368556764,-0.4264,0.3528,-0.2382,-0.7981
60,2164369.0,2142.581981,1.0,-2.82,-2.9,17.16,39.0,-12.69,-5.88,-235.06,-43.31,-105.94,-4.841945737673943,-9.650623113989962,-4.1306752450082325,43.52992762326994,-17.161136490218524,-108.9180458077566,-0.42200000000000004,0.3708,-0.1492,-0.8137
61,2164369.0,2142.581981,1.0,-2.82,-2.9,17.16,39.0,-12.69,-5.88,-235.06,-43.31,-105.94,-4.841945737673943,-9.650623113989962,-4.1306752450082325,43.52992762326994,-17.161136490218524,-108.9180458077566,-0.42200000000000004,0.3708,-0.1492,-0.8137
62,2164406.0,2142.6198679999998,1.0,-0.48,-0.5,21.03,37.06,-9.25,-14.25,-249.31,-92.5,-141.19,-11.73102258388824,-8.845878668922229,-5.255715010549006,45.49863792387894,-6.225383461526625,-108.99693778149953,-0.4297,0.3867,-0.0543,-0.8141
63,2164406.0,2142.6198679999998,1.0,-0.48,-0.5,21.03,37.06,-9.25,-14.25,-249.31,-92.5,-141.19,-11.73102258388824,-8.845878668922229,-5.255715010549006,45.49863792387894,-6.225383461526625,-108.99693778149953,-0.4297,0.3867,-0.0543,-0.8141
64,2164441.0,2142.6418670000003,1.0,-1.63,5.0,22.87,35.88,-1.06,-18.37,-164.25,-230.06,-139.44,-17.12588981057371,-2.0636698951326067,-6.103691440711162,42.69210790112656,2.9453273542124467,-110.43028252227127,-0.4387,0.364,0.0257,-0.8213
65,2164441.0,2142.6418670000003,1.0,-1.63,5.0,22.87,35.88,-1.06,-18.37,-164.25,-230.06,-139.44,-17.12588981057371,-2.0636698951326067,-6.103691440711162,42.69210790112656,2.9453273542124467,-110.43028252227127,-0.4387,0.364,0.0257,-0.8213
66,2164475.0,2142.67949,1.0,-2.33,5.77,25.99,35.88,-1.06,-18.37,-83.56,-251.56,-177.88,-18.912530264840623,2.2362293339486663,-8.942146690653908,35.66074669721593,12.492290914481535,-110.47046523443146,-0.4686,0.3062,0.1088,-0.8215
67,2164475.0,2142.67949,1.0,-2.33,5.77,25.99,35.88,-1.06,-18.37,-83.56,-251.56,-177.88,-18.912530264840623,2.2362293339486663,-8.942146690653908,35.66074669721593,12.492290914481535,-110.47046523443146,-0.4686,0.3062,0.1088,-0.8215
68,2164512.0,2142.735186,1.0,-5.31,14.57,26.7,29.5,7.88,-22.75,-57.88,-305.44,-225.56,-23.90589892127405,12.13279161668324,-5.512434971106112,28.71838798339577,19.982758376303032,-108.6425203865957,-0.4985,0.248,0.1735,-0.8123
69,2164512.0,2142.735186,1.0,-5.31,14.57,26.7,29.5,7.88,-22.75,-57.88,-305.44,-225.56,-23.90589892127405,12.13279161668324,-5.512434971106112,28.71838798339577,19.982758376303032,-108.6425203865957,-0.4985,0.248,0.1735,-0.8123
70,2164549.0,2142.743011,1.0,-14.26,15.67,26.92,18.75,15.38,-25.37,151.25,-402.44,-91.25,-18.178040928190324,25.047528639365808,-4.882224601996839,14.107452479907948,26.841478236677798,-108.58359923261342,-0.5214,0.1228,0.2321,-0.812
71,2164549.0,2142.743011,1.0,-14.26,15.67,26.92,18.75,15.38,-25.37,151.25,-402.44,-91.25,-18.178040928190324,25.047528639365808,-4.882224601996839,14.107452479907948,26.841478236677798,-108.58359923261342,-0.5214,0.1228,0.2321,-0.812
72,2164586.0,2142.802082,1.0,-14.43,12.15,25.92,18.75,15.38,-25.37,277.88,-356.44,31.62,-7.57410688495681,27.172050792250246,-5.425105008488788,-2.578527672575933,25.93519704664329,-114.28023924222178,-0.4936,-0.0225,0.2244,-0.84
73,2164586.0,2142.802082,1.0,-14.43,12.15,25.92,18.75,15.38,-25.37,277.88,-356.44,31.62,-7.57410688495681,27.172050792250246,-5.425105008488788,-2.578527672575933,25.93519704664329,-114.28023924222178,-0.4936,-0.0225,0.2244,-0.84
74,2164621.0,2142.8205989999997,1.0,-16.89,10.46,25.53,7.5,18.06,-28.0,321.0,-310.25,87.44,1.6384705867269869,29.196712493879446,-4.025630856249793,-14.407711711634985,22.489447184752866,-118.56583115924386,-0.4551,-0.1254,0.195,-0.8597
75,2164621.0,2142.8205989999997,1.0,-16.89,10.46,25.53,7.5,18.06,-28.0,321.0,-310.25,87.44,1.6384705867269869,29.196712493879446,-4.025630856249793,-14.407711711634985,22.489447184752866,-118.56583115924386,-0.4551,-0.1254,0.195,-0.8597
76,2164658.0,2142.86388,1.0,-21.59,9.44,27.48,-0.69,11.5,-32.75,395.25,-291.0,208.0,15.924663778899955,30.95915934550577,-0.10937925311209716,-30.116390374671145,16.396650200988272,-123.98838434414272,-0.3643,-0.2598,0.1426,-0.8829
77,2164658.0,2142.86388,1.0,-21.59,9.44,27.48,-0.69,11.5,-32.75,395.25,-291.0,208.0,15.924663778899955,30.95915934550577,-0.10937925311209716,-30.116390374671145,16.396650200988272,-123.98838434414272,-0.3643,-0.2598,0.1426,-0.8829
78,2164695.0,2142.886644,1.0,-20.07,4.12,25.56,-9.06,-1.88,-35.25,480.38,-166.25,255.5,24.86258716818264,20.225648880225737,3.0340739259833303,-39.23022039326242,8.579461739762628,-128.2635811405088,-0.2687,-0.3357,0.0748,-0.8998
79,2164695.0,2142.886644,1.0,-20.07,4.12,25.56,-9.06,-1.88,-35.25,480.38,-166.25,255.5,24.86258716818264,20.225648880225737,3.0340739259833303,-39.23022039326242,8.579461739762628,-128.2635811405088,-0.2687,-0.3357,0.0748,-0.8998
80,2164729.0,2142.946966,1.0,-16.15,-0.54,26.74,-9.06,-1.88,-35.25,510.56,-161.19,286.13,30.46963455672575,4.278222962086666,4.380797231424525,-49.03863296676083,-4.126187708974658,-128.6854111372357,-0.11800000000000001,-0.415,-0.036000000000000004,-0.9014
81,2164729.0,2142.946966,1.0,-16.15,-0.54,26.74,-9.06,-1.88,-35.25,510.56,-161.19,286.13,30.46963455672575,4.278222962086666,4.380797231424525,-49.03863296676083,-4.126187708974658,-128.6854111372357,-0.11800000000000001,-0.415,-0.036000000000000004,-0.9014
82,2164764.0,2142.950802,1.0,-13.17,-6.19,25.33,-15.75,-16.87,-31.19,508.31,-36.19,356.94,25.99242321958847,-13.119262422401011,7.42909060726646,-53.33343845721146,-15.760140597334962,-123.5506835259097,0.0589,-0.4488,-0.1371,-0.8811
83,2164764.0,2142.950802,1.0,-13.17,-6.19,25.33,-15.75,-16.87,-31.19,508.31,-36.19,356.94,25.99242321958847,-13.119262422401011,7.42909060726646,-53.33343845721146,-15.760140597334962,-123.5506835259097,0.0589,-0.4488,-0.1371,-0.8811
84,2164801.0,2142.993689,1.0,-2.62,-17.39,21.59,-23.19,-25.5,-20.37,348.5,3.13,468.44,7.544010501422429,-25.77777207082405,2.4582506764009047,-53.35908614472047,-20.20387293870638,-116.88163381383896,0.2038,-0.449,-0.1754,-0.8521
85,2164801.0,2142.993689,1.0,-2.62,-17.39,21.59,-23.19,-25.5,-20.37,348.5,3.13,468.44,7.544010501422429,-25.77777207082405,2.4582506764009047,-53.35908614472047,-20.20387293870638,-116.88163381383896,0.2038,-0.449,-0.1754,-0.8521
86,2164838.0,2143.054767,1.0,2.85,-19.86,20.09,-32.5,-22.69,-11.5,201.06,-144.56,288.5,-3.0802264466556304,-25.323926010658003,-2.657746352974419,-56.45841982476564,-22.477763863075143,-103.81206807438305,0.3448,-0.473,-0.1949,-0.787
87,2164838.0,2143.054767,1.0,2.85,-19.86,20.09,-32.5,-22.69,-11.5,201.06,-144.56,288.5,-3.0802264466556304,-25.323926010658003,-2.657746352974419,-56.45841982476564,-22.477763863075143,-103.81206807438305,0.3448,-0.473,-0.1949,-0.787
88,2164873.0,2143.072814,1.0,6.05,-20.89,14.7,-32.5,-22.69,-11.5,18.31,-172.0,56.69,-8.222711348571215,-21.608277653121,-2.6253230913362917,-62.27585098329318,-24.631622257728548,-95.92384977618164,0.3681,-0.5171,-0.2133,-0.7427
89,2164873.0,2143.072814,1.0,6.05,-20.89,14.7,-32.5,-22.69,-11.5,18.31,-172.0,56.69,-8.222711348571215,-21.608277653121,-2.6253230913362917,-62.27585098329318,-24.631622257728548,-95.92384977618164,0.3681,-0.5171,-0.2133,-0.7427
90,2164912.0,2143.1134629999997,1.0,3.21,-14.64,9.36,-39.0,-13.69,-4.19,-145.13,-165.0,-52.94,-4.898068577666665,-15.56046576559396,3.0151752436416377,-67.64197933171232,-24.40881688456287,-93.53831032521614,0.3384,-0.5566,-0.2114,-0.7286
91,2164912.0,2143.1134629999997,1.0,3.21,-14.64,9.36,-39.0,-13.69,-4.19,-145.13,-165.0,-52.94,-4.898068577666665,-15.56046576559396,3.0151752436416377,-67.64197933171232,-24.40881688456287,-93.53831032521614,0.3384,-0.5566,-0.2114,-0.7286
92,2164948.0,2143.171686,1.0,0.78,-10.57,7.39,-39.06,-13.38,1.06,-212.88,-148.19,-108.12,-1.0872274246108744,-12.622921543650826,7.2718544993708445,-74.99112748831256,-23.015443848374385,-91.92747384583168,0.27,-0.6087,-0.1995,-0.7189
93,2164948.0,2143.171686,1.0,0.78,-10.57,7.39,-39.06,-13.38,1.06,-212.88,-148.19,-108.12,-1.0872274246108744,-12.622921543650826,7.2718544993708445,-74.99112748831256,-23.015443848374385,-91.92747384583168,0.27,-0.6087,-0.1995,-0.7189
94,2164983.0,2143.185032,1.0,-0.94,-5.7,6.53,-39.06,-13.38,1.06,-258.63,-110.69,-161.81,2.638888751361613,-8.306179171345708,10.04780084789364,-79.34522946763786,-21.32226479540238,-92.12547447908048,0.1993,-0.6384,-0.185,-0.7201
95,2164983.0,2143.185032,1.0,-0.94,-5.7,6.53,-39.06,-13.38,1.06,-258.63,-110.69,-161.81,2.638888751361613,-8.306179171345708,10.04780084789364,-79.34522946763786,-21.32226479540238,-92.12547447908048,0.1993,-0.6384,-0.185,-0.7201
96,2165018.0,2143.23635,1.0,-2.58,-3.52,8.31,-36.0,-15.25,2.19,-325.13,-82.12,-193.13,6.888265804716606,-5.890370653360713,12.247598129231504,-83.48745702732505,-18.146842253651585,-92.83791553872564,0.0836,-0.6658,-0.1577,-0.7244
97,2165018.0,2143.23635,1.0,-2.58,-3.52,8.31,-36.0,-15.25,2.19,-325.13,-82.12,-193.13,6.888265804716606,-5.890370653360713,12.247598129231504,-83.48745702732505,-18.146842253651585,-92.83791553872564,0.0836,-0.6658,-0.1577,-0.7244
98,2165055.0,2143.2594059999997,1.0,-1.99,2.02,9.62,-33.69,-20.87,2.56,-355.69,-40.31,-206.81,9.906560243994713,1.385554467841138,10.531358871719467,-84.10326116842597,-13.564921674838883,-94.00777948611471,-0.0493,-0.6698,-0.1181,-0.7314
99,2165055.0,2143.2594059999997,1.0,-1.99,2.02,9.62,-33.69,-20.87,2.56,-355.69,-40.31,-206.81,9.906560243994713,1.385554467841138,10.531358871719467,-84.10326116842597,-13.564921674838883,-94.00777948611471,-0.0493,-0.6698,-0.1181,-0.7314
100,2165092.0,2143.3078739999996,1.0,-4.18,3.41,10.18,-30.0,-25.37,-3.56,-363.56,-22.69,-223.63,10.10946163774024,5.2626573854824805,11.490729166216722,-82.75236627086224,-10.396251161173769,-93.75602271423008,-0.1485,-0.6609999999999999,-0.0906,-0.7299
101,2165092.0,2143.3078739999996,1.0,-4.18,3.41,10.18,-30.0,-25.37,-3.56,-363.56,-22.69,-223.63,10.10946163774024,5.2626573854824805,11.490729166216722,-82.75236627086224,-10.396251161173769,-93.75602271423008,-0.1485,-0.6609999999999999,-0.0906,-0.7299
102,2165125.0,2143.324431,1.0,-9.3,6.16,10.9,-30.0,-25.37,-3.56,-384.94,-61.81,-290.0,8.007602744605915,12.974283417347488,13.091747881482675,-79.22617890812475,-6.030298919379606,-89.98269667432403,-0.3015,-0.6376,-0.0526,-0.7070000000000001
103,2165125.0,2143.324431,1.0,-9.3,6.16,10.9,-30.0,-25.37,-3.56,-384.94,-61.81,-290.0,8.007602744605915,12.974283417347488,13.091747881482675,-79.22617890812475,-6.030298919379606,-89.98269667432403,-0.3015,-0.6376,-0.0526,-0.7070000000000001
104,2165161.0,2143.366153,1.0,-6.25,11.34,13.62,-25.5,-29.19,-11.0,-379.38,52.13,-189.56,5.473233584658134,17.403447831077248,5.2981893182658455,-73.33924904872958,-2.578527672575933,-88.43755212986639,-0.3955,-0.5972,-0.0225,-0.6974
105,2165161.0,2143.366153,1.0,-6.25,11.34,13.62,-25.5,-29.19,-11.0,-379.38,52.13,-189.56,5.473233584658134,17.403447831077248,5.2981893182658455,-73.33924904872958,-2.578527672575933,-88.43755212986639,-0.3955,-0.5972,-0.0225,-0.6974
106,2165200.0,2143.424628,1.0,-1.11,9.5,13.44,-21.0,-28.37,-20.37,-238.56,160.69,-67.94,3.3077712193523507,12.635867187765081,-0.2685279127510185,-62.95987835378689,0.27502000568243146,-89.07886878573439,-0.4851,-0.5222,0.0024,-0.7014
107,2165200.0,2143.424628,1.0,-1.11,9.5,13.44,-21.0,-28.37,-20.37,-238.56,160.69,-67.94,3.3077712193523507,12.635867187765081,-0.2685279127510185,-62.95987835378689,0.27502000568243146,-89.07886878573439,-0.4851,-0.5222,0.0024,-0.7014
108,2165235.0,2143.44333,1.0,-1.17,12.91,17.44,-21.0,-28.37,-20.37,-242.94,164.81,75.37,0.6736584569163933,15.851676054347026,-5.041284218316912,-52.565338173503186,4.355527902560735,-94.88517495078123,-0.5098,-0.4428,0.038,-0.7366
109,2165235.0,2143.44333,1.0,-1.17,12.91,17.44,-21.0,-28.37,-20.37,-242.94,164.81,75.37,0.6736584569163933,15.851676054347026,-5.041284218316912,-52.565338173503186,4.355527902560735,-94.88517495078123,-0.5098,-0.4428,0.038,-0.7366
110,2165270.0,2143.487808,1.0,8.73,10.55,14.93,-16.5,-23.5,-27.87,-74.87,270.44,-72.12,-1.7327942946545831,4.346321281105215,-9.904443710239024,-44.89044689976561,2.9911793597011727,-97.91103310726488,-0.5336,-0.3818,0.0261,-0.7542
111,2165270.0,2143.487808,1.0,8.73,10.55,14.93,-16.5,-23.5,-27.87,-74.87,270.44,-72.12,-1.7327942946545831,4.346321281105215,-9.904443710239024,-44.89044689976561,2.9911793597011727,-97.91103310726488,-0.5336,-0.3818,0.0261,-0.7542
112,2165309.0,2143.505192,1.0,13.79,9.53,15.71,-13.06,-17.19,-35.38,-85.06,118.94,-66.5,-2.796250692438988,-2.833739714040384,-12.819441162596002,-36.999437339480345,-0.5500415954991054,-99.92080048347364,-0.5596,-0.3173,-0.0048,-0.7656
113,2165309.0,2143.505192,1.0,13.79,9.53,15.71,-13.06,-17.19,-35.38,-85.06,118.94,-66.5,-2.796250692438988,-2.833739714040384,-12.819441162596002,-36.999437339480345,-0.5500415954991054,-99.92080048347364,-0.5596,-0.3173,-0.0048,-0.7656
114,2165344.0,2143.546087,1.0,11.32,11.85,13.79,-6.25,-16.37,-38.69,-164.13,-74.56,-73.44,-6.197468954111597,-0.8471260327593377,-10.677557479115324,-34.91520624744418,2.1086036789736795,-98.01579456165285,-0.5831,-0.3,0.0184,-0.7548
115,2165344.0,2143.546087,1.0,11.32,11.85,13.79,-6.25,-16.37,-38.69,-164.13,-74.56,-73.44,-6.197468954111597,-0.8471260327593377,-10.677557479115324,-34.91520624744418,2.1086036789736795,-98.01579456165285,-0.5831,-0.3,0.0184,-0.7548
116,2165379.0,2143.598223,1.0,8.44,14.76,10.02,-6.25,-16.37,-38.69,-126.62,-188.0,-79.12,-10.675498748722383,1.3462319202522446,-6.737623513301235,-36.25106819831296,8.809306149715164,-92.42314314089434,-0.6133,-0.3111,0.0768,-0.7219
117,2165379.0,2143.598223,1.0,8.44,14.76,10.02,-6.25,-16.37,-38.69,-126.62,-188.0,-79.12,-10.675498748722383,1.3462319202522446,-6.737623513301235,-36.25106819831296,8.809306149715164,-92.42314314089434,-0.6133,-0.3111,0.0768,-0.7219
118,2165413.0,2143.615578,1.0,9.26,15.86,6.71,-7.06,-12.69,-37.88,-26.0,-146.25,-71.56,-12.515308208075087,-0.4787995776393901,-5.208312917747766,-39.948769456648414,12.757459245108164,-87.24438704610047,-0.6285,-0.3416,0.1111,-0.6899
119,2165413.0,2143.615578,1.0,9.26,15.86,6.71,-7.06,-12.69,-37.88,-26.0,-146.25,-71.56,-12.515308208075087,-0.4787995776393901,-5.208312917747766,-39.948769456648414,12.757459245108164,-87.24438704610047,-0.6285,-0.3416,0.1111,-0.6899
120,2165450.0,2143.660241,1.0,12.55,4.84,5.07,-12.25,-9.56,-38.25,207.44,59.5,90.75,-2.3759588254674875,-5.8146731114046215,-3.1230598291953666,-42.72901972322527,9.878564278366849,-89.25585014264172,-0.6053,-0.3643,0.0861,-0.7025
121,2165450.0,2143.660241,1.0,12.55,4.84,5.07,-12.25,-9.56,-38.25,207.44,59.5,90.75,-2.3759588254674875,-5.8146731114046215,-3.1230598291953666,-42.72901972322527,9.878564278366849,-89.25585014264172,-0.6053,-0.3643,0.0861,-0.7025
122,2165487.0,2143.681477,1.0,12.73,1.61,5.09,-13.38,-12.5,-38.25,118.5,40.06,76.44,0.2815517156845626,-6.896654602178747,-2.147846389628546,-44.51874337646561,6.053249123067683,-93.37113824061916,-0.5695,-0.3788,0.0528,-0.7276
123,2165487.0,2143.681477,1.0,12.73,1.61,5.09,-13.38,-12.5,-38.25,118.5,40.06,76.44,0.2815517156845626,-6.896654602178747,-2.147846389628546,-44.51874337646561,6.053249123067683,-93.37113824061916,-0.5695,-0.3788,0.0528,-0.7276
124,2165522.0,2143.736259,1.0,7.25,5.01,5.91,-13.38,-12.5,-38.25,-31.37,-141.81,-60.38,-1.6374967025051368,-0.6443255051321111,-0.6572952021080969,-46.8189931753183,7.844187348567063,-90.43729021823671,-0.5776,-0.3973,0.0684,-0.7098
125,2165522.0,2143.736259,1.0,7.25,5.01,5.91,-13.38,-12.5,-38.25,-31.37,-141.81,-60.38,-1.6374967025051368,-0.6443255051321111,-0.6572952021080969,-46.8189931753183,7.844187348567063,-90.43729021823671,-0.5776,-0.3973,0.0684,-0.7098
126,2165561.0,2143.755945,1.0,4.87,5.32,7.48,-13.38,-15.06,-35.75,9.31,-95.62,-13.75,-0.8711442087499015,2.702111549439329,-0.18881902060869396,-50.250694690935106,10.120125690641805,-86.91242223942659,-0.5821,-0.4246,0.0882,-0.6878
127,2165561.0,2143.755945,1.0,4.87,5.32,7.48,-13.38,-15.06,-35.75,9.31,-95.62,-13.75,-0.8711442087499015,2.702111549439329,-0.18881902060869396,-50.250694690935106,10.120125690641805,-86.91242223942659,-0.5821,-0.4246,0.0882,-0.6878
128,2165596.0,2143.806094,1.0,4.98,5.06,7.11,-17.06,-14.25,-35.38,24.69,-44.63,-4.81,-0.6565924797243068,2.568304827247125,0.11496301424212164,-52.00367866289412,10.764512919793646,-85.68728608719269,-0.5802,-0.4384,0.0938,-0.68
129,2165596.0,2143.806094,1.0,4.98,5.06,7.11,-17.06,-14.25,-35.38,24.69,-44.63,-4.81,-0.6565924797243068,2.568304827247125,0.11496301424212164,-52.00367866289412,10.764512919793646,-85.68728608719269,-0.5802,-0.4384,0.0938,-0.68
130,2165630.0,2143.87167,1.0,5.17,4.4,6.85,-17.06,-14.25,-35.38,27.62,-36.25,-6.75,0.018852992879148326,2.2478336176745337,0.4280419693852373,-53.692769431450216,10.64941932234672,-85.06370833977694,-0.5748,-0.4516,0.0928,-0.6759999999999999
131,2165630.0,2143.87167,1.0,5.17,4.4,6.85,-17.06,-14.25,-35.38,27.62,-36.25,-6.75,0.018852992879148326,2.2478336176745337,0.4280419693852373,-53.692769431450216,10.64941932234672,-85.06370833977694,-0.5748,-0.4516,0.0928,-0.6759999999999999
132,2165663.0,2143.890112,1.0,5.56,3.27,6.52,-18.19,-15.38,-34.19,31.87,-31.06,0.56,1.0665286293066036,1.578704457148521,0.8351891981099993,-55.47222486463927,10.545844298925708,-84.33495776110861,-0.5695,-0.4654,0.0919,-0.6713
133,2165663.0,2143.890112,1.0,5.56,3.27,6.52,-18.19,-15.38,-34.19,31.87,-31.06,0.56,1.0665286293066036,1.578704457148521,0.8351891981099993,-55.47222486463927,10.545844298925708,-84.33495776110861,-0.5695,-0.4654,0.0919,-0.6713
134,2165700.0,2143.9416260000003,1.0,5.01,3.78,6.64,-20.06,-17.19,-32.5,14.81,-56.81,2.31,0.7755723298549354,2.4096298474543945,1.027682432032778,-56.966262181573775,11.017757342406151,-83.56427059214394,-0.5652,-0.4769,0.096,-0.6663
135,2165700.0,2143.9416260000003,1.0,5.01,3.78,6.64,-20.06,-17.19,-32.5,14.81,-56.81,2.31,0.7755723298549354,2.4096298474543945,1.027682432032778,-56.966262181573775,11.017757342406151,-83.56427059214394,-0.5652,-0.4769,0.096,-0.6663
136,2165737.0,2143.960004,1.0,5.1,3.98,6.21,-20.06,-17.19,-32.5,24.5,-52.44,-0.75,0.565523824363362,2.4084643981806826,1.187254310813108,-59.0363995158976,11.639588800101585,-82.35592311764404,-0.5598,-0.4927,0.1014,-0.6584
137,2165737.0,2143.960004,1.0,5.1,3.98,6.21,-20.06,-17.19,-32.5,24.5,-52.44,-0.75,0.565523824363362,2.4084643981806826,1.187254310813108,-59.0363995158976,11.639588800101585,-82.35592311764404,-0.5598,-0.4927,0.1014,-0.6584
138,2165772.0,2143.96322,1.0,5.94,3.77,5.79,-21.56,-17.56,-31.69,10.56,-8.56,4.56,0.6881282012893406,1.6029043015299669,0.8636204585790939,-59.80162063871753,11.662626087112969,-82.17335373167707,-0.5562,-0.4985,0.1016,-0.6572
139,2165772.0,2143.96322,1.0,5.94,3.77,5.79,-21.56,-17.56,-31.69,10.56,-8.56,4.56,0.6881282012893406,1.6029043015299669,0.8636204585790939,-59.80162063871753,11.662626087112969,-82.17335373167707,-0.5562,-0.4985,0.1016,-0.6572
140,2165809.0,2144.005152,1.0,6.83,4.88,5.14,-22.25,-18.0,-30.37,0.63,-4.31,-0.56,-0.4852820881927865,1.013876876978555,0.028129919067124483,-59.8677251126705,11.731740790019305,-82.15815106961863,-0.5557,-0.499,0.1022,-0.6571
141,2165809.0,2144.005152,1.0,6.83,4.88,5.14,-22.25,-18.0,-30.37,0.63,-4.31,-0.56,-0.4852820881927865,1.013876876978555,0.028129919067124483,-59.8677251126705,11.731740790019305,-82.15815106961863,-0.5557,-0.499,0.1022,-0.6571
142,2165843.0,2144.073653,1.0,6.33,4.33,5.81,-22.25,-17.56,-30.06,11.69,-5.06,1.56,0.30522652017849106,1.6345062076550256,0.3298822900412421,-60.158846336733674,12.019765115233204,-81.56660985214896,-0.5579,-0.5012,0.1047,-0.6532
143,2165843.0,2144.073653,1.0,6.33,4.33,5.81,-22.25,-17.56,-30.06,11.69,-5.06,1.56,0.30522652017849106,1.6345062076550256,0.3298822900412421,-60.158846336733674,12.019765115233204,-81.56660985214896,-0.5579,-0.5012,0.1047,-0.6532
144,2165876.0,2144.093548,1.0,6.96,4.38,5.12,-22.25,-17.56,-30.06,4.5,4.25,-0.81,-0.007043693578639099,0.7652280319190479,0.1497987302772401,-60.21182344932971,11.800859775906506,-81.64230083997052,-0.5572,-0.5016,0.1028,-0.6537
145,2165876.0,2144.093548,1.0,6.96,4.38,5.12,-22.25,-17.56,-30.06,4.5,4.25,-0.81,-0.007043693578639099,0.7652280319190479,0.1497987302772401,-60.21182344932971,11.800859775906506,-81.64230083997052,-0.5572,-0.5016,0.1028,-0.6537
146,2165913.0,2144.134693,1.0,7.18,4.62,4.79,-22.25,-17.19,-30.19,4.56,0.25,4.44,-0.3626264595469065,0.4961040831986665,0.03611865367752465,-60.19857784037951,12.158043754647913,-81.18879937131794,-0.5602,-0.5015,0.1059,-0.6507
147,2165913.0,2144.134693,1.0,7.18,4.62,4.79,-22.25,-17.19,-30.19,4.56,0.25,4.44,-0.3626264595469065,0.4961040831986665,0.03611865367752465,-60.19857784037951,12.158043754647913,-81.18879937131794,-0.5602,-0.5015,0.1059,-0.6507
148,2165950.0,2144.152374,1.0,7.55,4.58,4.83,-23.0,-18.37,-29.25,6.31,-2.06,1.88,-0.2467871252553675,0.29678627682422265,-0.2511238103765816,-60.29131575913539,12.330917071488784,-80.90237600189252,-0.5615,-0.5022,0.1074,-0.6488
149,2165950.0,2144.152374,1.0,7.55,4.58,4.83,-23.0,-18.37,-29.25,6.31,-2.06,1.88,-0.2467871252553675,0.29678627682422265,-0.2511238103765816,-60.29131575913539,12.330917071488784,-80.90237600189252,-0.5615,-0.5022,0.1074,-0.6488
150,2165983.0,2144.194973,1.0,7.57,4.55,4.82,-23.0,-18.37,-29.25,1.5,-3.19,3.25,-0.22217395021795092,0.2881362385503907,-0.2485683588363017,-60.38409728444597,12.377021364647927,-80.91743568101406,-0.5607,-0.5029,0.1078,-0.6489
151,2165983.0,2144.194973,1.0,7.57,4.55,4.82,-23.0,-18.37,-29.25,1.5,-3.19,3.25,-0.22217395021795092,0.2881362385503907,-0.2485683588363017,-60.38409728444597,12.377021364647927,-80.91743568101406,-0.5607,-0.5029,0.1078,-0.6489
152,2166018.0,2144.257189,1.0,7.2,4.82,4.78,-22.69,-18.0,-28.87,-0.94,-11.94,-0.25,-0.4485057461057521,0.5567396938314261,-0.0629844161788835,-60.55652194040018,12.400074265032766,-80.12157851666187,-0.5656,-0.5042,0.10800000000000001,-0.6436
153,2166018.0,2144.257189,1.0,7.2,4.82,4.78,-22.69,-18.0,-28.87,-0.94,-11.94,-0.25,-0.4485057461057521,0.5567396938314261,-0.0629844161788835,-60.55652194040018,12.400074265032766,-80.12157851666187,-0.5656,-0.5042,0.10800000000000001,-0.6436
154,2166052.0,2144.265852,1.0,7.08,4.46,4.97,-23.06,-18.0,-29.69,3.38,-5.0,-0.19,-0.04824068858627661,0.6783853799670407,0.09807821460274192,-60.71581770752129,12.757459245108164,-79.55381523993225,-0.5682,-0.5054,0.1111,-0.6398
155,2166052.0,2144.265852,1.0,7.08,4.46,4.97,-23.06,-18.0,-29.69,3.38,-5.0,-0.19,-0.04824068858627661,0.6783853799670407,0.09807821460274192,-60.71581770752129,12.757459245108164,-79.55381523993225,-0.5682,-0.5054,0.1111,-0.6398
156,2166089.0,2144.286259,1.0,7.12,4.57,4.88,-23.06,-18.0,-28.5,-3.5,-2.5,0.81,-0.15766501015959922,0.4956949741918599,0.053541355207185504,-60.26481476661726,12.50381856554563,-79.06265131180031,-0.5753,-0.502,0.1089,-0.6365
157,2166089.0,2144.286259,1.0,7.12,4.57,4.88,-23.06,-18.0,-28.5,-3.5,-2.5,0.81,-0.15766501015959922,0.4956949741918599,0.053541355207185504,-60.26481476661726,12.50381856554563,-79.06265131180031,-0.5753,-0.502,0.1089,-0.6365
158,2166124.0,2144.332779,1.0,7.13,4.63,4.8,-23.06,-18.0,-28.5,-2.56,-1.12,2.25,-0.22476838152119805,0.36487209143557703,0.05318151276122585,-60.02646555170329,12.123472436717575,-79.01808630319101,-0.5779,-0.5002,0.1056,-0.6362
159,2166124.0,2144.332779,1.0,7.13,4.63,4.8,-23.06,-18.0,-28.5,-2.56,-1.12,2.25,-0.22476838152119805,0.36487209143557703,0.05318151276122585,-60.02646555170329,12.123472436717575,-79.01808630319101,-0.5779,-0.5002,0.1056,-0.6362
160,2166161.0,2144.3841390000002,1.0,6.95,4.78,4.86,-22.69,-18.37,-28.87,-5.25,-3.44,-3.0,-0.3003127283359207,0.43457419365865135,0.0859783392861484,-59.669477410983546,11.800859775906506,-78.36609695169302,-0.5854,-0.4975,0.1028,-0.6318
161,2166161.0,2144.3841390000002,1.0,6.95,4.78,4.86,-22.69,-18.37,-28.87,-5.25,-3.44,-3.0,-0.3003127283359207,0.43457419365865135,0.0859783392861484,-59.669477410983546,11.800859775906506,-78.36609695169302,-0.5854,-0.4975,0.1028,-0.6318
162,2166194.0,2144.391497,1.0,7.2,4.73,4.73,-23.06,-18.37,-29.25,-0.63,-2.31,-2.0,-0.2274475845102261,0.10438752795814077,-0.017970646127118073,-59.577029137074135,11.720221376139571,-77.71711737256554,-0.5908,-0.4968,0.1021,-0.6274
163,2166194.0,2144.391497,1.0,7.2,4.73,4.73,-23.06,-18.37,-29.25,-0.63,-2.31,-2.0,-0.2274475845102261,0.10438752795814077,-0.017970646127118073,-59.577029137074135,11.720221376139571,-77.71711737256554,-0.5908,-0.4968,0.1021,-0.6274
164,2166228.0,2144.4555100000002,1.0,6.84,4.51,5.07,-23.06,-18.37,-29.25,-5.63,-3.81,1.0,0.06453655164855693,0.5227556340053532,0.18619462716982405,-59.616644593421185,11.766299745968876,-77.6288499193909,-0.5911,-0.4971,0.1025,-0.6268
165,2166228.0,2144.4555100000002,1.0,6.84,4.51,5.07,-23.06,-18.37,-29.25,-5.63,-3.81,1.0,0.06453655164855693,0.5227556340053532,0.18619462716982405,-59.616644593421185,11.766299745968876,-77.6288499193909,-0.5911,-0.4971,0.1025,-0.6268
166,2166263.0,2144.468747,1.0,6.87,5.01,4.79,-22.69,-18.37,-30.19,-7.13,-3.5,-3.81,-0.5104794817701608,0.4351590439446915,0.07057546735775944,-59.45822976014184,12.261764386292771,-76.98321557761712,-0.596,-0.4959,0.1068,-0.6224
167,2166263.0,2144.468747,1.0,6.87,5.01,4.79,-22.69,-18.37,-30.19,-7.13,-3.5,-3.81,-0.5104794817701608,0.4351590439446915,0.07057546735775944,-59.45822976014184,12.261764386292771,-76.98321557761712,-0.596,-0.4959,0.1068,-0.6224
168,2166300.0,2144.482319,1.0,7.02,4.76,5.02,-24.19,-18.0,-30.06,-0.12,0.69,-0.44,-0.14374431846058072,0.4133301914437957,-0.03951147154571722,-59.352689332048705,12.457708722341449,-76.42794195968905,-0.6005,-0.4951,0.1085,-0.6186
169,2166300.0,2144.482319,1.0,7.02,4.76,5.02,-24.19,-18.0,-30.06,-0.12,0.69,-0.44,-0.14374431846058072,0.4133301914437957,-0.03951147154571722,-59.352689332048705,12.457708722341449,-76.42794195968905,-0.6005,-0.4951,0.1085,-0.6186
170,2166335.0,2144.522687,1.0,6.95,4.73,4.98,-24.19,-18.0,-30.06,-1.19,-1.0,-1.75,-0.11808647750081985,0.3652051998384924,0.043019489485873315,-59.2603868777191,12.169567773976445,-76.28216959343423,-0.6025,-0.4944,0.106,-0.6176
171,2166335.0,2144.522687,1.0,6.95,4.73,4.98,-24.19,-18.0,-30.06,-1.19,-1.0,-1.75,-0.11808647750081985,0.3652051998384924,0.043019489485873315,-59.2603868777191,12.169567773976445,-76.28216959343423,-0.6025,-0.4944,0.106,-0.6176
172,2166368.0,2144.586199,1.0,7.44,4.77,4.56,-22.69,-17.56,-29.69,0.63,0.94,-2.0,-0.23362723376679884,-0.281552594117092,-0.13147087129093293,-59.089080085565726,12.307865676783145,-75.77310751763166,-0.6068,-0.4931,0.1072,-0.6141
173,2166368.0,2144.586199,1.0,7.44,4.77,4.56,-22.69,-17.56,-29.69,0.63,0.94,-2.0,-0.23362723376679884,-0.281552594117092,-0.13147087129093293,-59.089080085565726,12.307865676783145,-75.77310751763166,-0.6068,-0.4931,0.1072,-0.6141
174,2166403.0,2144.60411,1.0,7.05,4.6,5.04,-23.06,-18.0,-30.19,3.69,-6.63,0.5,0.06900290458168967,0.30339575997211066,0.00015778249479048156,-59.194482438730184,12.653689634339962,-75.17900592971374,-0.6098,-0.4939,0.1102,-0.61
175,2166403.0,2144.60411,1.0,7.05,4.6,5.04,-23.06,-18.0,-30.19,3.69,-6.63,0.5,0.06900290458168967,0.30339575997211066,0.00015778249479048156,-59.194482438730184,12.653689634339962,-75.17900592971374,-0.6098,-0.4939,0.1102,-0.61
176,2166439.0,2144.639298,1.0,7.07,4.67,4.83,-23.75,-18.0,-29.25,0.88,-3.94,-0.31,-0.07530016399283945,0.17026055208006285,0.055340281315638506,-59.23402251666461,13.011162702254634,-74.61607730658687,-0.6129,-0.4942,0.1133,-0.6061
177,2166439.0,2144.639298,1.0,7.07,4.67,4.83,-23.75,-18.0,-29.25,0.88,-3.94,-0.31,-0.07530016399283945,0.17026055208006285,0.055340281315638506,-59.23402251666461,13.011162702254634,-74.61607730658687,-0.6129,-0.4942,0.1133,-0.6061
178,2166474.0,2144.6593620000003,1.0,7.26,4.56,4.72,-23.75,-18.0,-29.25,6.06,-4.0,1.12,0.031612175829541116,-0.035111638595654686,0.02005877306227255,-59.39226049534915,13.022696190101502,-74.5296601704127,-0.6125,-0.4954,0.1134,-0.6055
179,2166474.0,2144.6593620000003,1.0,7.26,4.56,4.72,-23.75,-18.0,-29.25,6.06,-4.0,1.12,0.031612175829541116,-0.035111638595654686,0.02005877306227255,-59.39226049534915,13.022696190101502,-74.5296601704127,-0.6125,-0.4954,0.1134,-0.6055
180,2166511.0,2144.697936,1.0,7.39,4.82,4.57,-23.75,-18.37,-30.19,-0.56,-3.94,2.19,-0.22610794146914134,-0.13841766846412895,-0.12607952152939286,-59.471426215105645,13.368762981498053,-74.14139436333637,-0.6141,-0.496,0.1164,-0.6028
181,2166511.0,2144.697936,1.0,7.39,4.82,4.57,-23.75,-18.37,-30.19,-0.56,-3.94,2.19,-0.22610794146914134,-0.13841766846412895,-0.12607952152939286,-59.471426215105645,13.368762981498053,-74.14139436333637,-0.6141,-0.496,0.1164,-0.6028
182,2166544.0,2144.754155,1.0,7.47,4.75,4.56,-24.19,-18.69,-30.5,2.25,-5.38,1.94,-0.14418202708794958,-0.1822617435885032,-0.14839857847960758,-59.52422071985297,13.79574779269871,-73.58231300844331,-0.6169,-0.4964,0.1201,-0.5989
183,2166544.0,2144.754155,1.0,7.47,4.75,4.56,-24.19,-18.69,-30.5,2.25,-5.38,1.94,-0.14418202708794958,-0.1822617435885032,-0.14839857847960758,-59.52422071985297,13.79574779269871,-73.58231300844331,-0.6169,-0.4964,0.1201,-0.5989
184,2166579.0,2144.7718210000003,1.0,7.16,4.67,4.66,-24.19,-18.69,-30.5,2.13,-12.63,1.25,-0.08359474984644788,0.13924556180133196,0.07198397638538623,-59.920624504637715,13.957359493385505,-73.41069853307816,-0.6153,-0.4994,0.1215,-0.5977
185,2166579.0,2144.7718210000003,1.0,7.16,4.67,4.66,-24.19,-18.69,-30.5,2.13,-12.63,1.25,-0.08359474984644788,0.13924556180133196,0.07198397638538623,-59.920624504637715,13.957359493385505,-73.41069853307816,-0.6153,-0.4994,0.1215,-0.5977
186,2166614.0,2144.833386,1.0,7.19,4.75,4.54,-24.19,-18.0,-28.87,5.25,-7.81,1.75,-0.18297015256675908,0.08758771271920196,0.06862913763528944,-60.06617050138386,14.38461134345722,-72.79731116496349,-0.6177,-0.5005,0.1252,-0.5934
187,2166614.0,2144.833386,1.0,7.19,4.75,4.54,-24.19,-18.0,-28.87,5.25,-7.81,1.75,-0.18297015256675908,0.08758771271920196,0.06862913763528944,-60.06617050138386,14.38461134345722,-72.79731116496349,-0.6177,-0.5005,0.1252,-0.5934
188,2166650.0,2144.875784,1.0,7.2,4.67,4.55,-24.5,-17.56,-29.25,6.13,-14.88,2.19,-0.07550871047937857,0.14513427720619365,0.09456297010670413,-60.42387417457696,14.84673166768115,-72.12962086079537,-0.6194,-0.5032,0.1292,-0.5887
189,2166650.0,2144.875784,1.0,7.2,4.67,4.55,-24.5,-17.56,-29.25,6.13,-14.88,2.19,-0.07550871047937857,0.14513427720619365,0.09456297010670413,-60.42387417457696,14.84673166768115,-72.12962086079537,-0.6194,-0.5032,0.1292,-0.5887
190,2166685.0,2144.901091,1.0,6.99,4.81,4.69,-24.5,-17.56,-29.25,3.0,-10.25,3.06,-0.1801286208707733,0.4729661461055228,0.12490652557447213,-60.74237960510433,15.054764601110485,-71.9737624996918,-0.618,-0.5056,0.131,-0.5876
191,2166685.0,2144.901091,1.0,6.99,4.81,4.69,-24.5,-17.56,-29.25,3.0,-10.25,3.06,-0.1801286208707733,0.4729661461055228,0.12490652557447213,-60.74237960510433,15.054764601110485,-71.9737624996918,-0.618,-0.5056,0.131,-0.5876
192,2166718.0,2144.904525,1.0,6.95,4.76,4.64,-24.56,-18.69,-28.87,-1.69,-2.06,1.12,-0.16852181018123558,0.4710256361108929,0.20251363853471996,-60.79551422894158,15.39003407585724,-71.535350308977,-0.6201,-0.506,0.1339,-0.5845
193,2166718.0,2144.904525,1.0,6.95,4.76,4.64,-24.56,-18.69,-28.87,-1.69,-2.06,1.12,-0.16852181018123558,0.4710256361108929,0.20251363853471996,-60.79551422894158,15.39003407585724,-71.535350308977,-0.6201,-0.506,0.1339,-0.5845
194,2166753.0,2144.94266,1.0,7.07,4.88,4.59,-24.5,-18.37,-27.69,-1.37,2.81,1.94,-0.2608564578204157,0.3542420173663081,0.07660033406583366,-60.609606145201504,15.505674829864251,-71.22495103692498,-0.623,-0.5046,0.1349,-0.5823
195,2166753.0,2144.94266,1.0,7.07,4.88,4.59,-24.5,-18.37,-27.69,-1.37,2.81,1.94,-0.2608564578204157,0.3542420173663081,0.07660033406583366,-60.609606145201504,15.505674829864251,-71.22495103692498,-0.623,-0.5046,0.1349,-0.5823
196,2166788.0,2145.002153,1.0,7.3,4.8,4.51,-24.5,-18.37,-27.69,1.12,4.75,1.63,-0.16167625535702868,0.11023901476632768,-0.02349792096624803,-60.41061431817495,15.644464720667994,-70.9010852783508,-0.6261,-0.5031,0.1361,-0.58
197,2166788.0,2145.002153,1.0,7.3,4.8,4.51,-24.5,-18.37,-27.69,1.12,4.75,1.63,-0.16167625535702868,0.11023901476632768,-0.02349792096624803,-60.41061431817495,15.644464720667994,-70.9010852783508,-0.6261,-0.5031,0.1361,-0.58
198,2166822.0,2145.063826,1.0,7.35,4.82,4.44,-25.0,-18.37,-29.69,-1.0,3.19,-0.81,-0.1947196589258684,0.009905298926276895,-0.03867813772506956,-60.33107392327209,15.563501157916,-70.95736285453455,-0.6264,-0.5025,0.1354,-0.5804
199,2166822.0,2145.063826,1.0,7.35,4.82,4.44,-25.0,-18.37,-29.69,-1.0,3.19,-0.81,-0.1947196589258684,0.009905298926276895,-0.03867813772506956,-60.33107392327209,15.563501157916,-70.95736285453455,-0.6264,-0.5025,0.1354,-0.5804
200,2166857.0,2145.082864,1.0,7.24,4.81,4.56,-24.56,-17.56,-29.25,-1.0,2.5,-0.81,-0.1684406937792372,0.1449215456056061,-0.006500639743512338,-60.145604275403045,15.806415466969176,-70.479628139678,-0.6301,-0.5011,0.1375,-0.5770000000000001
201,2166857.0,2145.082864,1.0,7.24,4.81,4.56,-24.56,-17.56,-29.25,-1.0,2.5,-0.81,-0.1684406937792372,0.1449215456056061,-0.006500639743512338,-60.145604275403045,15.806415466969176,-70.479628139678,-0.6301,-0.5011,0.1375,-0.5770000000000001
202,2166892.0,2145.128455,1.0,7.26,4.48,4.62,-24.56,-18.0,-28.5,3.25,2.44,0.88,0.15023013975780652,0.11464729511810567,0.10682077970800208,-60.0396996516268,15.979969398223385,-70.12924881260771,-0.6327,-0.5003,0.139,-0.5745
203,2166892.0,2145.128455,1.0,7.26,4.48,4.62,-24.56,-18.0,-28.5,3.25,2.44,0.88,0.15023013975780652,0.11464729511810567,0.10682077970800208,-60.0396996516268,15.979969398223385,-70.12924881260771,-0.6327,-0.5003,0.139,-0.5745
204,2166927.0,2145.135284,1.0,7.23,4.57,4.68,-24.56,-18.0,-28.5,-2.56,2.75,-0.88,0.07893016547034104,0.1766148434276702,0.05868727817653864,-59.93385155178053,15.933684759016295,-70.19926439078702,-0.6329,-0.4995,0.1386,-0.575
205,2166927.0,2145.135284,1.0,7.23,4.57,4.68,-24.56,-18.0,-28.5,-2.56,2.75,-0.88,0.07893016547034104,0.1766148434276702,0.05868727817653864,-59.93385155178053,15.933684759016295,-70.19926439078702,-0.6329,-0.4995,0.1386,-0.575
206,2166964.0,2145.154519,1.0,7.15,4.61,4.67,-25.0,-18.37,-28.87,-4.94,7.0,0.5,-0.0023454459518651443,0.184773139749546,0.10359102946342168,-59.629851488997545,16.13041264048083,-69.90540033624497,-0.6364,-0.4972,0.1403,-0.5729
207,2166964.0,2145.154519,1.0,7.15,4.61,4.67,-25.0,-18.37,-28.87,-4.94,7.0,0.5,-0.0023454459518651443,0.184773139749546,0.10359102946342168,-59.629851488997545,16.13041264048083,-69.90540033624497,-0.6364,-0.4972,0.1403,-0.5729
208,2166999.0,2145.201815,1.0,7.07,4.66,4.79,-24.56,-18.37,-27.69,-8.13,8.63,0.44,-0.06431178184201712,0.26738683453383105,0.08199225407216383,-59.11542551802431,16.269308165184984,-69.76565017151245,-0.64,-0.4933,0.1415,-0.5719
209,2166999.0,2145.201815,1.0,7.07,4.66,4.79,-24.56,-18.37,-27.69,-8.13,8.63,0.44,-0.06431178184201712,0.26738683453383105,0.08199225407216383,-59.11542551802431,16.269308165184984,-69.76565017151245,-0.64,-0.4933,0.1415,-0.5719
210,2167033.0,2145.223273,1.0,7.48,4.85,4.52,-24.56,-18.37,-27.69,-4.75,8.13,0.19,-0.2339632792615003,-0.21720776974387104,-0.1834141623925607,-58.786353648776284,16.19985740781584,-69.8914199628782,-0.6413,-0.4908,0.1409,-0.5728
211,2167033.0,2145.223273,1.0,7.48,4.85,4.52,-24.56,-18.37,-27.69,-4.75,8.13,0.19,-0.2339632792615003,-0.21720776974387104,-0.1834141623925607,-58.786353648776284,16.19985740781584,-69.8914199628782,-0.6413,-0.4908,0.1409,-0.5728
