acc_x,acc_y,acc_z,lin_x,lin_y,lin_z,eul_x,eul_y,eul_z
7.8,5.01,3.0,0.1290327661941742,0.0518572182977052,0.0639213588975131,-69.33317685680693,-19.54075377357945,-101.5194456395094
7.8,5.01,3.0,0.1290327661941742,0.0518572182977052,0.0639213588975131,-69.33317685680693,-19.54075377357945,-101.5194456395094
7.86,5.04,2.79,-0.0921898686040564,0.0487765850973795,0.062194044284821,-69.34710995579182,-19.494244164289388,-101.50133226645922
7.86,5.04,2.79,-0.0921898686040564,0.0487765850973795,0.062194044284821,-69.34710995579182,-19.494244164289388,-101.50133226645922
7.8,5.0,2.85,-0.0031652097095559,0.0452478480198284,0.113330516268066,-69.4307331793357,-19.447737797457524,-101.41081790768304
7.8,5.0,2.85,-0.0031652097095559,0.0452478480198284,0.113330516268066,-69.4307331793357,-19.447737797457524,-101.41081790768304
7.87,5.01,2.91,0.0353100440569029,0.0134442744773468,0.0340519599559669,-69.44467449288967,-19.412860145181693,-101.37463662093218
7.87,5.01,2.91,0.0353100440569029,0.0134442744773468,0.0340519599559669,-69.44467449288967,-19.412860145181693,-101.37463662093218
7.83,5.11,2.77,-0.1064658684420467,0.1200211265809754,0.056359750575055,-69.44467449288967,-19.343110284151184,-101.33846927981492
7.83,5.11,2.77,-0.1064658684420467,0.1200211265809754,0.056359750575055,-69.44467449288967,-19.343110284151184,-101.33846927981492
7.85,4.99,2.8,-0.0598535910678648,0.0067216241504244,0.092795339392552,-69.47256064706727,-19.343110284151184,-101.30231586461944
7.85,4.99,2.8,-0.0598535910678648,0.0067216241504244,0.092795339392552,-69.47256064706727,-19.343110284151184,-101.30231586461944
7.83,5.1,2.83,-0.0461419034317352,0.1079774016720511,0.0437604786812286,-69.47256064706727,-19.30823806837105,-101.30231586461944
7.83,5.1,2.83,-0.0461419034317352,0.1079774016720511,0.0437604786812286,-69.47256064706727,-19.30823806837105,-101.30231586461944
7.88,5.06,2.85,-0.034990342402881,0.0444075248203432,0.0180186529894363,-69.47256064706727,-19.284990927591146,-101.28424437309432
7.88,5.06,2.85,-0.034990342402881,0.0444075248203432,0.0180186529894363,-69.47256064706727,-19.284990927591146,-101.28424437309432
7.86,4.99,2.73,-0.1333419963948062,-0.0085750498769976,0.1053744972366104,-69.47256064706727,-19.296614397760404,-101.26617635567744
7.86,4.99,2.73,-0.1333419963948062,-0.0085750498769976,0.1053744972366104,-69.47256064706727,-19.296614397760404,-101.26617635567744
8.29,4.76,2.73,-0.2069771948527075,-0.447646876949753,-0.1226688444307715,-69.44467449288967,-19.343110284151184,-101.23005073336392
8.29,4.76,2.73,-0.2069771948527075,-0.447646876949753,-0.1226688444307715,-69.44467449288967,-19.343110284151184,-101.23005073336392
8.92,5.18,2.45,-0.7217468033437081,-0.4632682812298148,-0.7605522811844345,-69.31924492932319,-19.296614397760404,-101.23005073336392
8.92,5.18,2.45,-0.7217468033437081,-0.4632682812298148,-0.7605522811844345,-69.31924492932319,-19.296614397760404,-101.23005073336392
8.57,6.07,2.3,-0.8825998489983701,0.4531038546371944,-0.8982794441140971,-69.73771440110959,-18.796984460560505,-100.65391350970894
8.57,6.07,2.3,-0.8825998489983701,0.4531038546371944,-0.8982794441140971,-69.73771440110959,-18.796984460560505,-100.65391350970894
8.74,5.43,2.18,-0.8342478267014011,-0.23199739812235,-0.6754827873152056,-70.19926439078702,-18.93637938388069,-100.00990479193828
8.74,5.43,2.18,-0.8342478267014011,-0.23199739812235,-0.6754827873152056,-70.19926439078702,-18.93637938388069,-100.00990479193828
9.03,6.07,2.28,-0.7887942775771858,0.0814436164466778,-1.281874271741554,-70.8870189593387,-18.855062255560348,-99.06954993305422
9.03,6.07,2.28,-0.7887942775771858,0.0814436164466778,-1.281874271741554,-70.8870189593387,-18.855062255560348,-99.06954993305422
9.23,7.02,1.76,-1.3938974148007608,0.6905982009802316,-1.8187972654524007,-71.52122812984334,-18.669230437467,-98.24315676541242
9.23,7.02,1.76,-1.3938974148007608,0.6905982009802316,-1.8187972654524007,-71.52122812984334,-18.669230437467,-98.24315676541242
9.63,7.6,2.26,-0.8196637065376636,0.8817020608786472,-2.6092773871921167,-72.74037515744728,-18.959614614971,-96.7830712993422
9.63,7.6,2.26,-0.8196637065376636,0.8817020608786472,-2.6092773871921167,-72.74037515744728,-18.959614614971,-96.7830712993422
9.7,9.93,2.24,-1.0118004432819878,2.7342464780736964,-3.948809136652473,-73.89744006262889,-18.98285063278348,-95.54805066002704
9.7,9.93,2.24,-1.0118004432819878,2.7342464780736964,-3.948809136652473,-73.89744006262889,-18.98285063278348,-95.54805066002704
9.34,11.6,3.05,-0.0754514652103832,4.224098746661662,-4.796411215198992,-75.25133001282822,-19.61052428537218,-93.90700572648474
9.34,11.6,3.05,-0.0754514652103832,4.224098746661662,-4.796411215198992,-75.25133001282822,-19.61052428537218,-93.90700572648474
5.49,11.78,6.29,3.578502707777957,6.378714018916558,-2.6424032103972936,-73.668192340648,-21.53218888989049,-94.91906676360666
5.49,11.78,6.29,3.578502707777957,6.378714018916558,-2.6424032103972936,-73.668192340648,-21.53218888989049,-94.91906676360666
10.86,12.46,5.31,-0.8147048546638695,2.4693079724857987,-7.358025182968229,-60.42387417457696,-27.99741414521811,-106.29841038740038
10.86,12.46,5.31,-0.8147048546638695,2.4693079724857987,-7.358025182968229,-60.42387417457696,-27.99741414521811,-106.29841038740038
8.54,11.37,6.93,2.3495728891041683,1.7300578262758584,-5.740690838758517,-58.60230588655673,-34.44701981345315,-106.58549683521667
8.54,11.37,6.93,2.3495728891041683,1.7300578262758584,-5.740690838758517,-58.60230588655673,-34.44701981345315,-106.58549683521667
11.45,5.33,2.23,-1.7635217486089467,-3.23277513467547,-2.4784408002670943,-63.86232469664676,-40.19271594298347,-100.11693910211171
11.45,5.33,2.23,-1.7635217486089467,-3.23277513467547,-2.4784408002670943,-63.86232469664676,-40.19271594298347,-100.11693910211171
10.24,-0.54,5.72,2.4460385550171058,-9.060989007873635,2.7509449617658297,-76.99785688069619,-48.79944259465472,-83.05814635391897
10.24,-0.54,5.72,2.4460385550171058,-9.060989007873635,2.7509449617658297,-76.99785688069619,-48.79944259465472,-83.05814635391897
6.41,-3.6,5.97,2.8282795686795663,-9.001867859742077,8.996582276206311,-89.32027391021383,-51.06207881053215,-68.76292273675115
6.41,-3.6,5.97,2.8282795686795663,-9.001867859742077,8.996582276206311,-89.32027391021383,-51.06207881053215,-68.76292273675115
6.34,-2.48,2.16,1.0929162324435415,-6.698134495445162,7.581312185242653,-97.42359233173356,-50.42795316020507,-60.21182344932971
6.34,-2.48,2.16,1.0929162324435415,-6.698134495445162,7.581312185242653,-97.42359233173356,-50.42795316020507,-60.21182344932971
6.26,-3.43,2.27,0.6436208760612974,-7.180984795388451,7.775736526634378,-96.55897932515958,-48.02049166769566,-63.34995089580225
6.26,-3.43,2.27,0.6436208760612974,-7.180984795388451,7.775736526634378,-96.55897932515958,-48.02049166769566,-63.34995089580225
12.72,-1.36,-1.73,-1.26705160242327,-7.831864069005933,-0.3765413191008325,-93.9237947609836,-43.887975339090566,-69.47256064706727
12.72,-1.36,-1.73,-1.26705160242327,-7.831864069005933,-0.3765413191008325,-93.9237947609836,-43.887975339090566,-69.47256064706727
16.87,3.06,-3.7,-1.113625001612587,-5.200325886448329,-6.907623840957577,-93.62199370524858,-35.299808644002006,-75.25133001282822
16.87,3.06,-3.7,-1.113625001612587,-5.200325886448329,-6.907623840957577,-93.62199370524858,-35.299808644002006,-75.25133001282822
12.85,10.11,-5.34,-0.6783388641650407,3.2021334337759195,-7.079332288799714,-97.78895026657293,-27.914752300246647,-74.1844858325427
12.85,10.11,-5.34,-0.6783388641650407,3.2021334337759195,-7.079332288799714,-97.78895026657293,-27.914752300246647,-74.1844858325427
10.24,14.8,-6.54,-0.2035463041067258,8.559546908412852,-7.32116146628969,-109.8498937322769,-19.6570420373131,-63.95686484639014
10.24,14.8,-6.54,-0.2035463041067258,8.559546908412852,-7.32116146628969,-109.8498937322769,-19.6570420373131,-63.95686484639014
4.9,20.2,-3.6,1.8987693036064144,16.070497731676898,-3.7264123950327512,-123.84213593724544,-14.58098330322708,-50.07356471942519
4.9,20.2,-3.6,1.8987693036064144,16.070497731676898,-3.7264123950327512,-123.84213593724544,-14.58098330322708,-50.07356471942519
-0.57,16.64,-0.24,1.3289491740364028,15.629019028766429,4.217396177593587,-142.4180463131718,-11.89302513102135,-30.74578979374247
-0.57,16.64,-0.24,1.3289491740364028,15.629019028766429,4.217396177593587,-142.4180463131718,-11.89302513102135,-30.74578979374247
-1.48,10.39,2.47,1.919046434039556,10.601016640275745,10.229860321940317,-152.57624392499284,-15.332219618835126,-19.982758376303032
-1.48,10.39,2.47,1.919046434039556,10.601016640275745,10.229860321940317,-152.57624392499284,-15.332219618835126,-19.982758376303032
2.21,1.38,1.4,2.873966232213803,0.4716296749604868,10.322773576085671,-151.7661453802759,-21.054133663315955,-18.35575126897081
2.21,1.38,1.4,2.873966232213803,0.4716296749604868,10.322773576085671,-151.7661453802759,-21.054133663315955,-18.35575126897081
15.44,-25.6,-3.37,-0.2701835740769036,-25.64569767814305,-5.920259786655067,-140.33889297208822,-24.33847679675364,-24.03377694135321
15.44,-25.6,-3.37,-0.2701835740769036,-25.64569767814305,-5.920259786655067,-140.33889297208822,-24.33847679675364,-24.03377694135321
14.48,-8.8,-14.14,4.897472907657979,-7.390768912745553,-10.403280578731588,-146.39227073603638,-20.075850034388896,-21.31060447484913
14.48,-8.8,-14.14,4.897472907657979,-7.390768912745553,-10.403280578731588,-146.39227073603638,-20.075850034388896,-21.31060447484913
2.0,-1.78,-5.6,1.1272913960982298,-1.272009784398748,3.836758441799237,-160.12726585571855,-16.871469682269606,-4.080321683767285
2.0,-1.78,-5.6,1.1272913960982298,-1.272009784398748,3.836758441799237,-160.12726585571855,-16.871469682269606,-4.080321683767285
-0.68,3.03,-7.2,1.110601705127697,3.842404592495505,3.0623345565960567,-163.78077108801162,-11.605033754368794,8.866772764864926
-0.68,3.03,-7.2,1.110601705127697,3.842404592495505,3.0623345565960567,-163.78077108801162,-11.605033754368794,8.866772764864926
-3.13,3.59,-4.62,-1.111003810482137,4.451359084428328,5.012854756711903,-160.19378503937315,-9.303593121383251,16.327188391573927
-3.13,3.59,-4.62,-1.111003810482137,4.451359084428328,5.012854756711903,-160.19378503937315,-9.303593121383251,16.327188391573927
-3.41,2.55,-5.05,-0.7064932926271141,3.472611489165573,4.2321601872199865,-153.81215335885898,-8.22327089407658,23.91663071897709
-3.41,2.55,-5.05,-0.7064932926271141,3.472611489165573,4.2321601872199865,-153.81215335885898,-8.22327089407658,23.91663071897709
-5.71,-2.91,-1.59,-4.453600550538137,-1.6873550441999867,5.232967119534932,-148.85861645005238,-7.878645873813733,28.671075748006672
-5.71,-2.91,-1.59,-4.453600550538137,-1.6873550441999867,5.232967119534932,-148.85861645005238,-7.878645873813733,28.671075748006672
-5.93,-4.21,-2.67,-3.860576161319373,-2.7108052992841163,3.66129514189573,-145.41510886588998,-7.5455762164051485,32.01938920775377
-5.93,-4.21,-2.67,-3.860576161319373,-2.7108052992841163,3.66129514189573,-145.41510886588998,-7.5455762164051485,32.01938920775377
-4.55,-4.22,-5.36,-1.0545663432631378,-2.7012472247228634,2.136470519793316,-144.27673180622273,-7.074792869515193,33.488479867763736
-4.55,-4.22,-5.36,-1.0545663432631378,-2.7012472247228634,2.136470519793316,-144.27673180622273,-7.074792869515193,33.488479867763736
-4.8,-2.76,-6.46,-0.3087409560154508,-1.4628517418864233,1.4308548853056031,-143.20870960086745,-6.581172764918962,35.34791273696944
-4.8,-2.76,-6.46,-0.3087409560154508,-1.4628517418864233,1.4308548853056031,-143.20870960086745,-6.581172764918962,35.34791273696944
-7.06,-0.81,-6.2,-2.009065111754131,0.471123660664868,0.604400281963974,-142.6678687639012,-6.328670789467022,36.34754136011127
-7.06,-0.81,-6.2,-2.009065111754131,0.471123660664868,0.604400281963974,-142.6678687639012,-6.328670789467022,36.34754136011127
-7.11,-1.98,-6.42,-1.9006506169914408,-0.7881913462142485,0.2434297456148133,-142.09917876057762,-6.248335760592128,37.04777503969204
-7.11,-1.98,-6.42,-1.9006506169914408,-0.7881913462142485,0.2434297456148133,-142.09917876057762,-6.248335760592128,37.04777503969204
-6.08,-1.85,-8.13,-0.0486786139375505,-0.9733173673215236,-0.466425668708732,-142.31146828862353,-5.777862453568277,37.07194645139856
-6.08,-1.85,-8.13,-0.0486786139375505,-0.9733173673215236,-0.466425668708732,-142.31146828862353,-5.777862453568277,37.07194645139856
-6.59,-0.5,-7.8,-0.441182470435988,0.1907097702373459,-0.4054549647619669,-141.74788525089278,-5.823757869537403,37.73733524113148
-6.59,-0.5,-7.8,-0.441182470435988,0.1907097702373459,-0.4054549647619669,-141.74788525089278,-5.823757869537403,37.73733524113148
-6.79,-0.08,-7.33,-0.795130957493259,0.4616177928017256,-0.142926663044749,-141.3650146581067,-6.236859579751598,38.07658496090942
-6.79,-0.08,-7.33,-0.795130957493259,0.4616177928017256,-0.142926663044749,-141.3650146581067,-6.236859579751598,38.07658496090942
-6.29,-1.23,-7.11,-0.6774541965065767,-0.7339796937117524,0.2865959234280364,-141.5038163967487,-6.282764679968377,37.94326713356112
-6.29,-1.23,-7.11,-0.6774541965065767,-0.7339796937117524,0.2865959234280364,-141.5038163967487,-6.282764679968377,37.94326713356112
-5.78,-1.12,-8.27,0.3232353141345982,-0.7460820587525615,-0.3123707279807401,-142.06390845011202,-6.695956892035202,37.30166033497223
-5.78,-1.12,-8.27,0.3232353141345982,-0.7460820587525615,-0.3123707279807401,-142.06390845011202,-6.695956892035202,37.30166033497223
-6.14,-1.21,-7.13,-0.6292979625187802,-0.7882526433193096,0.3735570902132093,-141.74788525089278,-7.086273935339353,37.54363247388456
-6.14,-1.21,-7.13,-0.6292979625187802,-0.7882526433193096,0.3735570902132093,-141.74788525089278,-7.086273935339353,37.54363247388456
-6.36,-1.29,-7.01,-0.8203348398744823,-0.9042051467026216,0.3323023283571302,-141.19218403998903,-7.522608280519941,38.015979325491685
-6.36,-1.29,-7.01,-0.8203348398744823,-0.9042051467026216,0.3323023283571302,-141.19218403998903,-7.522608280519941,38.015979325491685
-6.76,-0.88,-6.45,-1.394048204023634,-0.4988172508927136,0.5393790449091593,-140.91718374591224,-7.660420468145224,38.24633966792924
-6.76,-0.88,-6.45,-1.394048204023634,-0.4988172508927136,0.5393790449091593,-140.91718374591224,-7.660420468145224,38.24633966792924
-6.29,0.34,-7.64,-0.1680616161001842,0.4324645628107211,-0.0844586181027615,-140.91718374591224,-8.303694005010767,38.04022025359053
-6.29,0.34,-7.64,-0.1680616161001842,0.4324645628107211,-0.0844586181027615,-140.91718374591224,-8.303694005010767,38.04022025359053
-6.78,-0.34,-7.19,-0.9942139170224152,-0.1101071373735012,-0.0310080091756788,-141.1232586742633,-9.027691221695424,37.62836370499113
-6.78,-0.34,-7.19,-0.9942139170224152,-0.1101071373735012,-0.0310080091756788,-141.1232586742633,-9.027691221695424,37.62836370499113
-6.35,-1.4,-7.48,-0.8704401458893483,-1.0827958468434444,-0.0067483464691164,-142.24057734218397,-9.660046657878476,36.34754136011127
-6.35,-1.4,-7.48,-0.8704401458893483,-1.0827958468434444,-0.0067483464691164,-142.24057734218397,-9.660046657878476,36.34754136011127
-5.32,-1.91,-8.43,0.2967154187890581,-1.7594838972926716,-0.1849252699672252,-142.70368938881398,-10.200656128703407,35.70889932534101
-5.32,-1.91,-8.43,0.2967154187890581,-1.7594838972926716,-0.1849252699672252,-142.70368938881398,-10.200656128703407,35.70889932534101
-5.77,-0.99,-7.82,-0.3088287869339529,-0.8084535180879322,0.0764687226829039,-142.81135091208287,-10.603384906468609,35.44414023991489
-5.77,-0.99,-7.82,-0.3088287869339529,-0.8084535180879322,0.0764687226829039,-142.81135091208287,-10.603384906468609,35.44414023991489
-5.93,-0.37,-7.73,-0.3955814268941394,-0.1873843677543059,0.0668808839779124,-142.84730495776557,-10.810553401892458,35.31183406453793
-5.93,-0.37,-7.73,-0.3955814268941394,-0.1873843677543059,0.0668808839779124,-142.84730495776557,-10.810553401892458,35.31183406453793
-5.76,-1.09,-7.82,-0.3909485153891259,-0.8816267808484033,0.081014109344526,-142.95536907296346,-11.2825706212041,35.05938432236356
-5.76,-1.09,-7.82,-0.3909485153891259,-0.8816267808484033,0.081014109344526,-142.95536907296346,-11.2825706212041,35.05938432236356
-5.78,-0.99,-7.55,-0.5320980770117515,-0.7648092256483219,0.2922956611705043,-142.70368938881398,-11.731740790019304,35.143514652215984
-5.78,-0.99,-7.55,-0.5320980770117515,-0.7648092256483219,0.2922956611705043,-142.70368938881398,-11.731740790019304,35.143514652215984
-6.15,-0.93,-7.16,-0.9692270222510276,-0.6012803090680665,0.3911276581824499,-142.09917876057762,-12.284814782039538,35.57649524988903
-6.15,-0.93,-7.16,-0.9692270222510276,-0.6012803090680665,0.3911276581824499,-142.09917876057762,-12.284814782039538,35.57649524988903
-6.09,-0.81,-7.61,-0.6143696835336945,-0.5516961588242989,0.0611648278655092,-141.78287468010964,-12.711338126294772,35.73297808318577
-6.09,-0.81,-7.61,-0.6143696835336945,-0.5516961588242989,0.0611648278655092,-141.78287468010964,-12.711338126294772,35.73297808318577
-6.14,-0.64,-7.77,-0.5318233717978093,-0.3669303655411025,-0.0961085049850378,-141.6082344949301,-13.322613734970494,35.67278424373711
-6.14,-0.64,-7.77,-0.5318233717978093,-0.3669303655411025,-0.0961085049850378,-141.6082344949301,-13.322613734970494,35.67278424373711
-5.86,-1.08,-7.72,-0.5006147838344109,-0.7813028467976905,0.0987485429500658,-141.67799864882886,-14.003539375629764,35.33588611084891
-5.86,-1.08,-7.72,-0.5006147838344109,-0.7813028467976905,0.0987485429500658,-141.67799864882886,-14.003539375629764,35.33588611084891
-5.4,-0.68,-8.02,0.0413905006412728,-0.5063872058316781,0.1275664264261706,-142.0286696964437,-14.373061379793723,34.80711013090355
-5.4,-0.68,-8.02,0.0413905006412728,-0.5063872058316781,0.1275664264261706,-142.0286696964437,-14.373061379793723,34.80711013090355
-5.06,-0.2,-8.72,0.8009876567086386,-0.1995086211419821,-0.2432562226416035,-141.85294621850556,-15.054764601110485,34.66303165808797
-5.06,-0.2,-8.72,0.8009876567086386,-0.1995086211419821,-0.2432562226416035,-141.85294621850556,-15.054764601110485,34.66303165808797
-5.62,-1.31,-7.88,-0.3539144467463711,-0.9732203747509665,0.0946735447899804,-141.46907086921098,-15.424724640986325,34.91520624744418
-5.62,-1.31,-7.88,-0.3539144467463711,-0.9732203747509665,0.0946735447899804,-141.46907086921098,-15.424724640986325,34.91520624744418
-5.47,-0.8,-7.99,-0.0048375745386582,-0.5316774967774676,0.1051915716350624,-141.26122730722247,-15.52880488350912,35.10745640434998
-5.47,-0.8,-7.99,-0.0048375745386582,-0.5316774967774676,0.1051915716350624,-141.26122730722247,-15.52880488350912,35.10745640434998
-6.03,-1.19,-7.38,-0.834522185218197,-0.6742767321998193,0.2625249164319658,-140.8487237731441,-15.817984589415364,35.44414023991489
-6.03,-1.19,-7.38,-0.834522185218197,-0.6742767321998193,0.2625249164319658,-140.8487237731441,-15.817984589415364,35.44414023991489
-5.84,-1.28,-7.62,-0.5386079286929087,-0.8209507681464598,0.1710731446462503,-140.64403039131906,-15.875832638109523,35.64870955741132
-5.84,-1.28,-7.62,-0.5386079286929087,-0.8209507681464598,0.1710731446462503,-140.64403039131906,-15.875832638109523,35.64870955741132
-5.61,-0.53,-7.92,0.0454403672988046,-0.190606380785442,0.0885738333596322,-140.40650617828152,-16.072546557241562,35.805224148583044
-5.61,-0.53,-7.92,0.0454403672988046,-0.190606380785442,0.0885738333596322,-140.40650617828152,-16.072546557241562,35.805224148583044
-5.89,-0.79,-7.65,-0.370996569366672,-0.3345265127907174,0.1325012747757359,-140.20399733163396,-16.19985740781584,35.96180782852424
-5.89,-0.79,-7.65,-0.370996569366672,-0.3345265127907174,0.1325012747757359,-140.20399733163396,-16.19985740781584,35.96180782852424
-5.67,-1.44,-7.93,-0.196513648951978,-1.0220492160366943,0.0074562685864609,-140.00247242955643,-16.38507281218067,36.10640826375515
-5.67,-1.44,-7.93,-0.196513648951978,-1.0220492160366943,0.0074562685864609,-140.00247242955643,-16.38507281218067,36.10640826375515
-5.74,-1.53,-7.49,-0.5024950596215092,-1.0761508035977323,0.3209766890024106,-139.5028685781741,-16.883054257264604,36.35960237870008
-5.74,-1.53,-7.49,-0.5024950596215092,-1.0761508035977323,0.3209766890024106,-139.5028685781741,-16.883054257264604,36.35960237870008
-5.64,-0.06,-7.84,0.2110339580998673,0.1805012196781609,0.1525480750033825,-139.33764146351638,-17.045256614539127,36.43197725116238
-5.64,-0.06,-7.84,0.2110339580998673,0.1805012196781609,0.1525480750033825,-139.33764146351638,-17.045256614539127,36.43197725116238
-5.46,-1.01,-8.13,0.2320843182643853,-0.7401585806073174,-0.0079769488335159,-139.43670037409964,-17.056843809922572,36.35960237870008
-5.46,-1.01,-8.13,0.2320843182643853,-0.7401585806073174,-0.0079769488335159,-139.43670037409964,-17.056843809922572,36.35960237870008
-5.55,-1.64,-7.89,-0.1651586683921305,-1.2417451801870865,0.1022699826193402,-139.43670037409964,-17.149547708947626,36.29930145114271
-5.55,-1.64,-7.89,-0.1651586683921305,-1.2417451801870865,0.1022699826193402,-139.43670037409964,-17.149547708947626,36.29930145114271
-5.99,-0.58,-7.4,-0.4582190941993246,-0.1099299410479,0.2801369616542057,-139.3046731473042,-17.161136490218524,36.41991372856602
-5.99,-0.58,-7.4,-0.4582190941993246,-0.1099299410479,0.2801369616542057,-139.3046731473042,-17.161136490218524,36.41991372856602
-6.14,-0.77,-7.35,-0.6514470592256313,-0.2542588329986768,0.2240632315502395,-139.33764146351638,-17.02208275037734,36.46817032738551
-6.14,-0.77,-7.35,-0.6514470592256313,-0.2542588329986768,0.2240632315502395,-139.33764146351638,-17.02208275037734,36.46817032738551
-5.91,-0.96,-7.7,-0.34523934532432,-0.5268866727470894,0.0730535306305437,-139.5028685781741,-16.894639006068054,36.35960237870008
-5.91,-0.96,-7.7,-0.34523934532432,-0.5268866727470894,0.0730535306305437,-139.5028685781741,-16.894639006068054,36.35960237870008
-6.0,-0.82,-7.51,-0.4894459256123324,-0.3358589009790268,0.1775201595349376,-139.5691405181039,-16.859885280956842,36.311360803930285
-6.0,-0.82,-7.51,-0.4894459256123324,-0.3358589009790268,0.1775201595349376,-139.5691405181039,-16.859885280956842,36.311360803930285
-5.87,-1.43,-7.52,-0.6175909519024312,-0.8854808728860996,0.220894680783827,-139.9020743124711,-16.9525653616307,35.92566698091841
-5.87,-1.43,-7.52,-0.6175909519024312,-0.8854808728860996,0.220894680783827,-139.9020743124711,-16.9525653616307,35.92566698091841
-5.16,-0.6,-8.33,0.5392822587243078,-0.3744599950175649,0.0115770366394585,-140.37268573421258,-17.056843809922572,35.37196719600466
-5.16,-0.6,-8.33,0.5392822587243078,-0.3744599950175649,0.0115770366394585,-140.37268573421258,-17.056843809922572,35.37196719600466
-5.33,-1.61,-8.04,-0.0814873431132016,-1.1904766422460935,0.1000169494938258,-140.71214769326966,-16.883054257264604,35.119475421316324
-5.33,-1.61,-8.04,-0.0814873431132016,-1.1904766422460935,0.1000169494938258,-140.71214769326966,-16.883054257264604,35.119475421316324
-5.66,-0.99,-7.82,-0.3100677010425685,-0.5054721895784,0.1207604752153503,-140.91718374591224,-16.686140017359815,34.96325925488904
-5.66,-0.99,-7.82,-0.3100677010425685,-0.5054721895784,0.1207604752153503,-140.91718374591224,-16.686140017359815,34.96325925488904
-5.78,-0.57,-7.7,-0.383885422534094,-0.1021815425103074,0.1699757337016905,-141.15770665873933,-16.477696648278283,34.80711013090355
-5.78,-0.57,-7.7,-0.383885422534094,-0.1021815425103074,0.1699757337016905,-141.15770665873933,-16.477696648278283,34.80711013090355
-5.78,-0.62,-7.75,-0.3840523583540886,-0.1668724184660407,0.1278092955562115,-141.26122730722247,-16.361918539628213,34.73506381234489
-5.78,-0.62,-7.75,-0.3840523583540886,-0.1668724184660407,0.1278092955562115,-141.26122730722247,-16.361918539628213,34.73506381234489
-5.61,-0.92,-7.95,-0.2193171817740857,-0.4980898519639083,0.0483301408670122,-141.19218403998903,-16.477696648278283,34.747070547478
-5.61,-0.92,-7.95,-0.2193171817740857,-0.4980898519639083,0.0483301408670122,-141.19218403998903,-16.477696648278283,34.747070547478
-5.93,-0.75,-8.12,-0.3113144566327891,-0.2603184175338102,-0.2679277891971292,-141.19218403998903,-16.419805484293857,34.8191192303352
-5.93,-0.75,-8.12,-0.3113144566327891,-0.2603184175338102,-0.2679277891971292,-141.19218403998903,-16.419805484293857,34.8191192303352
-5.96,-0.73,-7.69,-0.5717431762369042,-0.1698992567660986,0.0683316655555543,-141.26122730722247,-16.327188391573927,34.795101425948374
-5.96,-0.73,-7.69,-0.5717431762369042,-0.1698992567660986,0.0683316655555543,-141.26122730722247,-16.327188391573927,34.795101425948374
-5.44,-0.81,-7.92,-0.1224365775451484,-0.3924778589634313,0.1730073652173231,-141.5733981273395,-16.350341655632345,34.411030131340006
-5.44,-0.81,-7.92,-0.1224365775451484,-0.3924778589634313,0.1730073652173231,-141.5733981273395,-16.350341655632345,34.411030131340006
-5.25,-0.85,-8.34,0.1774810669495039,-0.4988575147200496,-0.0706088125897448,-141.95828650840244,-16.361918539628213,33.9794256257345
-5.25,-0.85,-8.34,0.1774810669495039,-0.4988575147200496,-0.0706088125897448,-141.95828650840244,-16.361918539628213,33.9794256257345
-5.42,-1.09,-8.11,-0.1492361677641434,-0.6254949970665447,0.0126168892291484,-142.0286696964437,-16.350341655632345,33.95546221645167
-5.42,-1.09,-8.11,-0.1492361677641434,-0.6254949970665447,0.0126168892291484,-142.0286696964437,-16.350341655632345,33.95546221645167
-5.31,-0.9,-8.02,-0.0551300617073751,-0.4561003492634466,0.1570161650973549,-142.0286696964437,-16.30403579859025,33.96744372977673
-5.31,-0.9,-8.02,-0.0551300617073751,-0.4561003492634466,0.1570161650973549,-142.0286696964437,-16.30403579859025,33.96744372977673
-5.42,-0.88,-7.91,-0.1737472513229603,-0.3649084088963913,0.1860703009499253,-141.95828650840244,-16.315612011260463,34.07529458830543
-5.42,-0.88,-7.91,-0.1737472513229603,-0.3649084088963913,0.1860703009499253,-141.95828650840244,-16.315612011260463,34.07529458830543
-5.51,-1.1,-7.92,-0.2801082774660363,-0.5282342968055459,0.1144362239541276,-141.85294621850556,-16.361918539628213,34.17118813606689
-5.51,-1.1,-7.92,-0.2801082774660363,-0.5282342968055459,0.1144362239541276,-141.85294621850556,-16.361918539628213,34.17118813606689
-5.58,-0.83,-7.92,-0.2320930018050284,-0.2165788607436278,0.0880633519532718,-141.71292660191068,-16.419805484293857,34.30308206548676
-5.58,-0.83,-7.92,-0.2320930018050284,-0.2165788607436278,0.0880633519532718,-141.71292660191068,-16.419805484293857,34.30308206548676
-5.35,-1.1,-8.06,-0.0548060791825106,-0.5335784512865689,0.0851074099576525,-141.74788525089278,-16.454539675361616,34.255115225601216
-5.35,-1.1,-8.06,-0.0548060791825106,-0.5335784512865689,0.0851074099576525,-141.74788525089278,-16.454539675361616,34.255115225601216
-5.42,-0.98,-8.11,-0.0423449231684886,-0.3771432856804818,0.0104839208878253,-141.71292660191068,-16.51243337847321,34.267106355147284
-5.42,-0.98,-8.11,-0.0423449231684886,-0.3771432856804818,0.0104839208878253,-141.71292660191068,-16.51243337847321,34.267106355147284
-5.44,-1.18,-7.76,-0.2936256941656393,-0.4901570454862801,0.2737002979148197,-141.64310130769366,-16.570331326030242,34.315074743396394
-5.44,-1.18,-7.76,-0.2936256941656393,-0.4901570454862801,0.2737002979148197,-141.64310130769366,-16.570331326030242,34.315074743396394
-5.53,-1.01,-7.68,-0.3586125857379725,-0.2899123198016498,0.3002969737244872,-141.64310130769366,-16.570331326030242,34.32706780881908
-5.53,-1.01,-7.68,-0.3586125857379725,-0.2899123198016498,0.3002969737244872,-141.64310130769366,-16.570331326030242,34.32706780881908
-5.52,-1.09,-7.8,-0.2962209133597748,-0.3579773512332128,0.2002664251841182,-141.6082344949301,-16.55875139620892,34.36304933185503
-5.52,-1.09,-7.8,-0.2962209133597748,-0.3579773512332128,0.2002664251841182,-141.6082344949301,-16.55875139620892,34.36304933185503
-5.48,-0.64,-8.25,0.0982976981643969,-0.0030834715970705,-0.1177052966799046,-141.64310130769366,-16.581911426258042,34.315074743396394
-5.48,-0.64,-8.25,0.0982976981643969,-0.0030834715970705,-0.1177052966799046,-141.64310130769366,-16.581911426258042,34.315074743396394
-5.43,-0.97,-8.03,-0.0666236375820325,-0.302568756074672,0.0695706925914994,-141.5733981273395,-16.605072138436235,34.36304933185503
-5.43,-0.97,-8.03,-0.0666236375820325,-0.302568756074672,0.0695706925914994,-141.5733981273395,-16.605072138436235,34.36304933185503
-5.45,-0.99,-8.03,-0.0793116454780757,-0.2971664226012317,0.0563217091079462,-141.53859212209682,-16.674558377811383,34.39903434859307
-5.45,-0.99,-8.03,-0.0793116454780757,-0.2971664226012317,0.0563217091079462,-141.53859212209682,-16.674558377811383,34.39903434859307
-5.25,-1.32,-8.15,0.0536985160881141,-0.6311923730143926,0.0431407611239276,-141.53859212209682,-16.732468293463864,34.36304933185503
-5.25,-1.32,-8.15,0.0536985160881141,-0.6311923730143926,0.0431407611239276,-141.53859212209682,-16.732468293463864,34.36304933185503
-5.54,-1.01,-7.9,-0.200035004637434,-0.2332292972055023,0.1098830082730799,-141.3650146581067,-16.801965875210325,34.519009695351265
-5.54,-1.01,-7.9,-0.200035004637434,-0.2332292972055023,0.1098830082730799,-141.3650146581067,-16.801965875210325,34.519009695351265
-5.56,-1.07,-7.64,-0.3653995323570878,-0.2596322627287047,0.3078514301858384,-141.29579335128196,-16.801965875210325,34.591013631336175
-5.56,-1.07,-7.64,-0.3653995323570878,-0.2596322627287047,0.3078514301858384,-141.29579335128196,-16.801965875210325,34.591013631336175
-5.34,-1.04,-7.88,-0.0605820366992509,-0.3098761356429379,0.2362839360822626,-141.3650146581067,-16.79038251334145,34.53100937438062
-5.34,-1.04,-7.88,-0.0605820366992509,-0.3098761356429379,0.2362839360822626,-141.3650146581067,-16.79038251334145,34.53100937438062
-5.46,-1.12,-7.88,-0.1712217707800806,-0.3582704479113196,0.1628579350825703,-141.33038910827102,-16.79038251334145,34.56701075551299
-5.46,-1.12,-7.88,-0.1712217707800806,-0.3582704479113196,0.1628579350825703,-141.33038910827102,-16.79038251334145,34.56701075551299
-5.69,-0.85,-7.64,-0.3968560906725691,-0.0366840201156264,0.2510568982629735,-141.226690896529,-16.801965875210325,34.66303165808797
-5.69,-0.85,-7.64,-0.3968560906725691,-0.0366840201156264,0.2510568982629735,-141.226690896529,-16.801965875210325,34.66303165808797
-5.61,-0.72,-7.89,-0.1725090809332131,0.0150503302014357,0.1003317430831991,-141.26122730722247,-16.871469682269606,34.60301565627788
-5.61,-0.72,-7.89,-0.1725090809332131,0.0150503302014357,0.1003317430831991,-141.26122730722247,-16.871469682269606,34.60301565627788
-5.38,-1.18,-8.26,0.0521452930648894,-0.4964272226271153,-0.1087542217675636,-141.39967008106163,-16.987323268750952,34.39903434859307
-5.38,-1.18,-8.26,0.0521452930648894,-0.4964272226271153,-0.1087542217675636,-141.39967008106163,-16.987323268750952,34.39903434859307
-5.44,-1.3,-8.17,-0.0934009332013647,-0.5762669117498538,-0.0772608004928603,-141.5038163967487,-16.940979741891212,34.30308206548676
-5.44,-1.3,-8.17,-0.0934009332013647,-0.5762669117498538,-0.0772608004928603,-141.5038163967487,-16.940979741891212,34.30308206548676
-5.19,-0.91,-8.41,0.3218783446600472,-0.3108926885049557,-0.1075842148787824,-141.46907086921098,-17.172725448331995,34.18317656247093
-5.19,-0.91,-8.41,0.3218783446600472,-0.3108926885049557,-0.1075842148787824,-141.46907086921098,-17.172725448331995,34.18317656247093
