TIME,ELAPSED_SECONDS,PSTATE,acc_x,acc_y,acc_z,mag_x,mag_y,mag_z,gyr_x,gyr_y,gyr_z,lin_x,lin_y,lin_z,eul_x,eul_y,eul_z,qua_w,qua_x,qua_y,qua_z
2590025.0,779.021322,1.0,-0.29,1.36,-10.42,10.69,-16.19,48.38,6.44,4.31,-0.37,0.4798487369439271,-0.8335078367962117,-0.6616406854773871,-146.19464572787078,-31.60235240767247,3.2548379133840775,-0.098,-0.9568,-0.2723,0.0284
2590060.0,779.059219,1.0,-1.44,1.57,-9.2,10.69,-16.19,48.38,-6.69,-2.31,0.44,-0.3559356172292718,0.1539519549222918,0.37117923103657624,-146.1552551844325,-31.55471850803618,3.495584654482353,-0.0989,-0.9567,-0.2719,0.0305
2590093.0,779.080543,1.0,-1.02,1.76,-9.84,11.0,-17.25,49.19,0.31,5.69,-2.25,0.07813106134161263,-0.03614143787227903,-0.24104572258844748,-146.1159090950019,-31.626171458397582,3.3465492054549077,-0.0993,-0.9566,-0.2725,0.0292
2590130.0,779.110743,1.0,-1.29,1.43,-9.32,11.0,-16.87,49.19,2.5,-1.0,-1.63,-0.3133433434544557,-0.048064466180040843,0.2950304872038938,-146.1159090950019,-31.649991911429222,3.3924056518954067,-0.0983,-0.9566,-0.2727,0.0296
2590167.0,779.145657,1.0,-0.91,1.47,-9.8,11.0,-16.87,49.19,1.12,-2.5,0.81,0.03570217912990248,-0.3036375649308077,-0.1399840831242134,-146.1159090950019,-31.661902664209094,3.40386984812725,-0.098,-0.9566,-0.2728,0.0297
2590199.0,779.181641,1.0,-1.5,1.49,-9.11,10.69,-16.87,48.38,2.63,-0.19,-1.19,-0.42452577993048957,0.15969209758850367,0.4655324921135797,-146.1552551844325,-31.626171458397582,3.5987664920103746,-0.0974,-0.9567,-0.2725,0.0314
2590234.0,779.237356,1.0,-1.35,1.65,-9.21,11.0,-17.25,48.75,-2.31,12.31,-2.94,-0.26634937683487303,0.22401339894099248,0.3595353078543315,-146.1159090950019,-31.73337455864903,3.2204467196467967,-0.0968,-0.9566,-0.2734,0.0281
2590271.0,779.250782,1.0,0.02,1.3,-10.66,11.0,-16.87,47.88,-6.5,5.63,0.94,0.64314553159728,-1.0550640105510762,-0.8610209622497393,-146.07660730478977,-31.804859125621785,2.8421620551927376,-0.0971,-0.9565,-0.274,0.0248
2590306.0,779.294052,1.0,-1.34,1.77,-9.38,11.0,-16.87,47.88,-1.19,-24.94,7.75,-0.1751942141590268,0.21424929665001333,0.1714902075414333,-146.19464572787078,-31.48327814398648,3.4726557451993814,-0.0999,-0.9568,-0.2713,0.0303
2590343.0,779.330205,1.0,-1.37,0.76,-9.03,10.69,-17.25,47.88,-10.31,10.13,10.44,-0.7566411230773467,-0.5408029040611106,0.6890611504286781,-146.39227073603635,-31.26903222594612,3.335085177891311,-0.1002,-0.9573,-0.2695,0.0291
2590380.0,779.366124,1.0,-1.09,1.21,-9.15,11.38,-17.25,49.19,-29.94,19.75,13.0,-0.4851687068613384,-0.4194763677838046,0.5350077019627513,-146.5113892939378,-30.924093518803122,2.2919839967771853,-0.1075,-0.9576,-0.2666,0.02
2590412.0,779.423805,1.0,-0.3,1.73,-10.2,11.38,-17.25,49.19,-34.0,7.0,17.5,0.2652049038494587,-0.7179834626066983,-0.515029422768249,-146.59103083752737,-30.52004779633356,1.535572847865537,-0.1147,-0.9578,-0.2632,0.0134
2590447.0,779.432781,1.0,-1.28,1.12,-8.26,10.69,-17.69,47.88,-45.63,10.56,27.5,-1.012262317798607,-0.4956488116137463,1.4490153312967262,-146.63092085313292,-29.713115141941437,0.6646347687728765,-0.1285,-0.9579,-0.2564,0.0058
2590482.0,779.476961,1.0,-0.83,2.21,-7.87,9.5,-19.19,48.75,-96.37,37.63,50.25,-0.39337691660034074,0.019918721885785307,1.5996555534316066,-146.47163743677677,-28.552816976564145,-0.93966131468631,-0.1492,-0.9575,-0.2466,-0.0082
2590521.0,779.515429,1.0,-0.45,3.18,-7.74,8.75,-23.69,46.19,-126.44,126.94,50.0,-0.42107876083038603,0.38201678176937726,1.4460725166185924,-145.41510886588998,-26.876822143927065,-5.697547703194251,-0.1785,-0.9548,-0.2324,-0.0497
2590554.0,779.547388,1.0,2.14,5.24,-11.49,8.75,-23.69,46.19,-57.56,53.0,29.75,1.1993576908762904,-0.5457246050726763,-2.9338769037333883,-144.05324557319378,-25.93519704664329,-9.22311622194562,-0.1962,-0.9512,-0.2244,-0.0804
2590593.0,779.582052,1.0,0.81,2.73,-9.32,2.75,-27.37,45.38,-25.0,1.69,55.38,-0.5202409873664962,-1.2779804433679536,0.15949936878079818,-145.108024588444,-24.11579445991055,-9.51055493545105,-0.1984,-0.954,-0.2089,-0.0829
2590627.0,779.612962,1.0,0.45,4.55,-8.67,1.25,-28.87,44.19,-56.63,3.94,50.88,-0.34045193381377314,0.4042805719300467,0.01918098600448026,-144.87941908090355,-22.19743483976267,-10.6148933492606,-0.213,-0.9534,-0.1925,-0.0925
2590662.0,779.65997,1.0,0.87,5.38,-8.68,1.25,-28.87,44.19,-30.19,40.56,25.44,0.012698754637422038,0.8293038221851616,-0.40881836479560185,-144.23939029133865,-21.473869337236096,-11.985198208002227,-0.2205,-0.9517,-0.1863,-0.1044
2590695.0,779.679628,1.0,1.78,5.07,-9.61,-1.25,-29.87,42.0,-15.06,7.44,28.06,0.25657536818189763,-0.14633048794100548,-1.1996280479479644,-144.27673180622273,-20.436707276203283,-12.94196455075679,-0.2233,-0.9518,-0.1774,-0.1127
2590732.0,779.72777,1.0,1.02,4.59,-8.43,-2.75,-31.87,42.38,-21.25,4.19,28.5,-0.3034746318297993,0.18549839587888853,0.1605682310659322,-144.5768347492103,-19.505871262305693,-13.149573327758747,-0.2254,-0.9526,-0.1694,-0.1145
2590769.0,779.758504,1.0,0.74,6.05,-8.09,-2.75,-32.69,41.88,-28.06,17.69,8.38,-0.26304371610439964,1.5346572458313175,-0.20203798300933506,-143.72051272987528,-19.157145947707967,-14.061267443693245,-0.2327,-0.9503,-0.1664,-0.1224
2590803.0,779.798426,1.0,2.35,3.63,-9.1,-2.75,-32.69,41.88,21.25,38.06,10.69,0.11741507573893517,-1.3692926826285525,-0.1743645400800382,-143.7573372230702,-19.23849904872923,-15.054764601110485,-0.2274,-0.9504,-0.1671,-0.131
2590840.0,779.838006,1.0,2.02,4.19,-9.22,-5.5,-33.25,42.38,-35.5,-7.31,9.63,-0.17885076758210294,-0.8291087192625035,-0.4853610345149839,-143.7573372230702,-18.506668239532367,-15.494110041456644,-0.2293,-0.9504,-0.1608,-0.1348
2590875.0,779.876055,1.0,1.62,6.09,-9.0,-7.0,-31.75,41.5,-5.44,-0.37,-8.69,-0.030647515322346774,0.9015991495763368,-1.1431755558382193,-143.42720670361226,-18.40218382722317,-15.470980940849387,-0.2342,-0.9495,-0.1599,-0.1346
2590910.0,779.906386,1.0,1.63,5.04,-8.27,-7.0,-31.75,41.5,19.56,-12.38,-12.88,0.09001998165043945,0.3680686668422417,-0.007004867550241656,-143.7573372230702,-18.92476206303288,-14.950741939900693,-0.2299,-0.9504,-0.1644,-0.1301
2590945.0,779.924372,1.0,2.07,3.51,-9.22,-6.19,-32.25,40.38,34.06,-11.63,-4.38,-0.04808204391784865,-1.313495950856094,-0.18763919454192113,-144.61452078820065,-19.215254308568724,-14.25756979612918,-0.2216,-0.9527,-0.1669,-0.1241
2590982.0,779.963485,1.0,1.85,5.29,-9.38,-5.75,-31.87,41.5,-7.25,-32.06,-9.25,0.29915527140817955,0.13932802411959722,-1.1149842103772922,-144.690009668053,-19.20363223785156,-13.4841456448157,-0.2241,-0.9529,-0.1668,-0.1174
2591016.0,780.002051,1.0,1.48,5.42,-9.49,-5.75,-31.87,41.5,36.0,-51.75,-14.69,0.2429663552689001,0.36476611591705543,-1.213096504837857,-145.49229376528544,-19.30823806837105,-12.042810329741007,-0.2213,-0.955,-0.1677,-0.1049
2591051.0,780.067851,1.0,0.78,4.13,-9.0,-4.25,-31.5,42.0,73.06,-99.06,-15.19,0.040044134098062456,-0.09866052635360771,-0.12582011411884153,-147.72605283657722,-19.552381683513467,-8.453062112264227,-0.2072,-0.9606,-0.1698,-0.0737
2591086.0,780.073887,1.0,0.71,2.41,-8.93,-2.5,-30.37,43.56,73.31,-108.69,1.25,0.25567870927054237,-1.29735246527841,0.6246782630329459,-150.61456567249238,-18.9944689370341,-3.9427275023832014,-0.1892,-0.9673,-0.165,-0.0344
2591123.0,780.113964,1.0,-0.69,3.2,-8.47,1.69,-27.0,44.88,13.44,-87.5,10.63,-0.33562241794632486,-0.018262460761763723,0.7322891919265846,-151.57882322936237,-18.262895263137004,-1.0542572154525014,-0.1871,-0.9694,-0.1587,-0.0092
2591156.0,780.158138,1.0,-0.58,3.66,-9.43,1.69,-27.0,44.88,7.19,-53.19,1.56,0.20487446219466357,-0.06314095327243108,-0.3230558039589848,-151.9074399210319,-17.659623057349794,1.2261530793833222,-0.1876,-0.9701,-0.1535,0.0107
2591193.0,780.179442,1.0,-1.22,3.26,-8.85,5.38,-26.25,45.25,25.87,-57.94,-1.75,-0.2291255387140555,-0.01026047589151221,0.29950025835064054,-152.1444912618588,-17.474100846214466,2.922401528803222,-0.1849,-0.9706,-0.1519,0.0255
2591229.0,780.249939,1.0,-1.95,2.99,-7.99,6.19,-25.87,44.56,17.56,-42.31,-1.94,-0.7315775525462241,0.3012881733635673,1.0913347606525594,-152.57624392499284,-17.080018727926856,4.768384859798278,-0.1802,-0.9715,-0.1485,0.0416
2591264.0,780.252959,1.0,-1.38,2.96,-9.06,6.19,-25.87,44.56,3.63,-13.25,0.63,-0.0842659008916713,-0.2562845417398645,0.17977005416022074,-152.62462859250314,-16.987323268750952,5.273072468222583,-0.1788,-0.9716,-0.1477,0.046
2591297.0,780.299868,1.0,-1.9,2.95,-8.43,8.0,-25.19,44.06,5.69,-15.44,1.06,-0.5173669318656238,0.09561767044429031,0.6906975692931141,-152.7702885732456,-16.686140017359815,5.89260274896743,-0.1781,-0.9719,-0.1451,0.0514
2591334.0,780.314069,1.0,-1.75,3.15,-8.87,10.0,-24.75,44.88,-1.56,-9.5,0.56,-0.25082692909256177,0.06435989467611888,0.2361304918646514,-152.72165046658662,-16.628233533749977,6.168003805570945,-0.1783,-0.9718,-0.1446,0.0538
2591369.0,780.357358,1.0,-1.44,2.97,-9.44,10.0,-24.75,44.88,2.19,-17.94,2.06,0.1151249075036822,-0.4000643187780053,-0.18508632540976322,-152.67309729035,-16.489275388774946,6.741872419794731,-0.1783,-0.9717,-0.1434,0.0588
2591404.0,780.401621,1.0,-2.23,3.35,-8.29,10.75,-25.19,45.75,-2.19,-3.88,-4.06,-0.5425631795776453,0.5410030562615714,0.6233803813248393,-152.52794284369597,-16.477696648278283,7.097755072388745,-0.1789,-0.9714,-0.1433,0.0619
2591438.0,780.428279,1.0,-1.54,3.38,-9.31,10.25,-24.37,43.25,4.13,2.69,-3.5,0.18131458769184527,0.02907086400430152,-0.21524502565039683,-152.52794284369597,-16.55875139620892,7.005907963772472,-0.1785,-0.9714,-0.144,0.0611
2591475.0,780.468375,1.0,-1.95,3.25,-8.87,10.75,-24.0,44.38,9.25,-10.25,-5.88,-0.22355832808711384,0.20497651975713205,0.16559682618692406,-152.57624392499284,-16.63981448789728,7.292945412680463,-0.1768,-0.9715,-0.1447,0.0636
2591508.0,780.525143,1.0,-1.9,2.73,-9.03,10.75,-24.0,44.38,9.31,-1.25,-7.19,-0.27109516548258994,-0.27599468414156747,0.1913427066485518,-152.62462859250314,-16.848301053200124,7.52260828051994,-0.1737,-0.9716,-0.1465,0.0656
2591545.0,780.547086,1.0,-1.49,2.42,-9.51,11.5,-24.37,43.56,-1.63,8.88,-2.0,0.03834736984464726,-0.8138427163535882,-0.08540688986189693,-152.62462859250314,-16.998909587512788,7.3733240323499585,-0.173,-0.9716,-0.1478,0.0643
2591582.0,780.567476,1.0,-1.7,3.03,-9.45,11.5,-23.69,44.5,3.69,-23.87,4.56,0.08934606056923156,-0.23127766983211967,-0.25873265148910285,-152.52794284369597,-16.81354941000451,7.8097295337257515,-0.1744,-0.9714,-0.1462,0.0681
2591614.0,780.607472,1.0,-2.49,3.07,-8.34,11.5,-23.69,44.5,2.13,-22.37,2.5,-0.6354219688628101,0.38474924551057293,0.6072583386146881,-152.47972490837182,-16.581911426258042,8.522006076442151,-0.1744,-0.9713,-0.1442,0.0743
2591649.0,780.630795,1.0,-2.48,3.04,-8.33,11.06,-24.0,44.5,-2.44,8.5,0.44,-0.6541902577856709,0.3500014920328247,0.6289360110922431,-152.43158968261443,-16.55875139620892,8.41859128124216,-0.175,-0.9712,-0.144,0.0734
2591684.0,780.675795,1.0,-1.37,3.12,-9.83,12.25,-23.25,44.5,-5.94,19.5,-0.25,0.4384052335444902,-0.40390554184582894,-0.5801137483706675,-152.43158968261443,-16.755633464025784,7.717845476549469,-0.176,-0.9712,-0.1457,0.0673
2591721.0,780.712932,1.0,-1.83,3.02,-9.15,11.06,-24.0,44.38,2.31,-14.69,-0.31,-0.0564685304863628,-0.1356081848034482,8.285056038559446e-06,-152.43158968261443,-16.67455837781138,7.890132207309979,-0.1761,-0.9712,-0.145,0.0688
2591756.0,780.744084,1.0,-2.18,3.14,-8.85,11.06,-24.0,44.38,-1.37,7.19,-4.06,-0.36424981442523363,0.16439695244422264,0.17468261453205436,-152.28767595523587,-16.778799324271784,7.947565068163919,-0.1764,-0.9709,-0.1459,0.0693
2591793.0,780.789383,1.0,-1.99,2.69,-9.02,11.06,-24.37,43.56,-0.69,21.62,-4.56,-0.4015896129873867,-0.31247973206921364,0.19948172835061584,-152.47972490837182,-16.96415115593626,7.338875609975954,-0.1755,-0.9713,-0.1475,0.064
2591827.0,780.819662,1.0,-0.95,3.17,-10.28,11.06,-24.75,44.38,-10.81,14.38,-2.25,0.714461775330253,-0.6169010904588064,-0.9515458253316194,-152.47972490837182,-17.103194349757633,6.741872419794731,-0.1765,-0.9713,-0.1487,0.0588
2591862.0,780.858512,1.0,-1.96,2.8,-8.82,11.06,-24.75,44.38,9.63,-12.06,-1.25,-0.38547019908687363,-0.17444122021680114,0.35704773396227907,-152.3355656330729,-17.03366959473287,7.155161830094744,-0.1771,-0.971,-0.1481,0.0624
2591897.0,780.901435,1.0,-2.16,2.86,-8.69,10.75,-24.0,44.38,-0.94,-3.31,-1.5,-0.5371960957465751,-0.013540130521688065,0.4219530406102052,-152.28767595523587,-17.068431181009654,7.315910364212048,-0.1765,-0.9709,-0.1484,0.0638
2591934.0,780.923013,1.0,-1.93,3.17,-8.77,11.88,-23.69,43.56,-4.56,19.06,-2.69,-0.2756532316551382,0.17643534057270494,0.2893191837219913,-152.19213918576153,-17.358172932119434,6.902585349926142,-0.1771,-0.9707,-0.1509,0.0602
