TIME,ELAPSED_SECONDS,PSTATE,acc_x,acc_y,acc_z,mag_x,mag_y,mag_z,gyr_x,gyr_y,gyr_z,lin_x,lin_y,lin_z,eul_x,eul_y,eul_z,qua_w,qua_x,qua_y,qua_z
1589549.0,676.680538,1.0,-1.26,0.51,-10.4,16.37,-13.0,45.88,-1.31,-4.25,-1.12,0.27157321510303845,-0.01827158123138066,-0.678273182272628,-142.063908450112,-36.90278239165085,7.097755072388745,-0.0389,-0.9457,-0.3165,0.0619
1589583.0,676.717554,1.0,-1.38,0.21,-9.96,16.37,-13.38,45.88,-0.63,4.31,-1.94,-0.05599754213124308,-0.11872854516811313,-0.2498338690189108,-142.02866969644373,-37.011521124582174,7.005907963772472,-0.0383,-0.9456,-0.3174,0.0611
1589620.0,676.749059,1.0,-1.41,0.13,-9.65,16.37,-13.38,45.88,-2.25,-2.31,1.31,-0.15475599991199962,-0.1320341112682225,0.055438917577832925,-141.95828650840244,-37.05986053192884,7.017388604693049,-0.0384,-0.9454,-0.3178,0.0612
1589655.0,676.781975,1.0,-1.29,0.11,-9.87,16.37,-13.38,45.88,-6.19,-3.56,1.63,-0.05660969198050303,-0.2639071625008324,-0.14424183703423488,-141.9934624116977,-37.011521124582174,7.028869316139516,-0.0394,-0.9455,-0.3174,0.0613
1589690.0,676.813668,1.0,-1.72,0.15,-9.34,14.88,-13.75,46.25,-0.12,-0.63,-0.06,-0.40863359499093876,0.06199861158508868,0.31741005376582265,-142.063908450112,-36.90278239165085,7.143680335170353,-0.0402,-0.9457,-0.3165,0.0623
1589725.0,676.859101,1.0,-1.6,0.22,-9.33,15.69,-13.75,46.69,-1.69,0.88,1.5,-0.28399379800359137,0.043077141910388445,0.3422539874411257,-142.09917876057762,-36.86654380200173,7.086273935339353,-0.0406,-0.9458,-0.3162,0.0618
1589762.0,676.894869,1.0,-1.51,0.5,-9.53,16.75,-14.19,46.69,-7.69,-1.12,3.44,-0.04416436143867253,0.15899355889957884,0.14622710255875226,-142.1344807161217,-36.8423868643515,7.040350098228412,-0.0424,-0.9459,-0.316,0.0614
1589794.0,676.926909,1.0,-1.37,0.71,-9.91,16.75,-14.19,46.69,-6.75,1.19,1.69,0.19433288013977557,0.16417038414481386,-0.21953485849260268,-142.16981440543415,-36.769926221818416,6.925545442265205,-0.0445,-0.946,-0.3154,0.0604
1589831.0,676.961618,1.0,-1.5,0.5,-9.65,15.69,-14.19,45.0,2.31,6.88,-3.94,-0.06926413210754045,0.11848540023476933,0.028937399911235673,-142.1344807161217,-36.8423868643515,6.833706733841952,-0.0441,-0.9459,-0.316,0.0596
1589866.0,676.991617,1.0,-1.3,0.07,-9.64,16.06,-14.19,46.25,-0.44,4.38,-1.06,-0.19923322996685822,-0.3223870901572397,0.08652280514411181,-142.063908450112,-36.93902480540506,6.638563994932458,-0.0437,-0.9457,-0.3168,0.0579
1589901.0,677.030669,1.0,-1.27,0.52,-10.16,16.06,-14.19,46.25,-8.25,-8.13,2.75,0.12293789338296257,-0.09792541863542858,-0.44440833008258807,-142.063908450112,-36.86654380200173,6.65004244052053,-0.0464,-0.9457,-0.3162,0.058
1589934.0,677.070673,1.0,-1.85,0.66,-9.29,15.25,-14.5,45.88,0.06,-7.94,-0.63,-0.2835761842063771,0.42187534806774246,0.32488825766309937,-142.02866969644373,-36.83030903162442,6.959986103018455,-0.0479,-0.9456,-0.3159,0.0607
1589970.0,677.096604,1.0,-1.61,0.61,-9.41,15.69,-14.19,45.0,0.94,6.69,-4.63,-0.12295928858184924,0.2398454987118202,0.24424156121748197,-141.95828650840244,-36.963188541465996,6.868145731332586,-0.0474,-0.9454,-0.317,0.0599
1590007.0,677.138046,1.0,-1.65,0.43,-9.18,15.69,-14.19,45.0,-2.13,11.0,-5.44,-0.3278438885478785,0.18015421059547562,0.47713431883270196,-141.81789497427926,-37.156559865314904,6.535260971441646,-0.0468,-0.945,-0.3186,0.057
1590040.0,677.167091,1.0,-1.81,0.73,-8.73,15.69,-14.88,44.69,-15.69,25.75,-4.88,-0.4098480619898922,0.5855485756944021,0.889752701523058,-141.74788525089278,-37.337945134050294,5.858180044713635,-0.048,-0.9448,-0.3201,0.0511
1590077.0,677.220628,1.0,-2.24,0.28,-7.41,15.25,-14.19,46.69,-20.69,80.87,-8.5,-1.4529966348914913,0.8071566279534242,2.2408454190618414,-141.64310130769366,-37.83422856646789,2.991179359701173,-0.0467,-0.9445,-0.3242,0.0261
1590112.0,677.244475,1.0,0.69,0.77,-11.12,14.19,-15.69,46.69,-56.69,132.63,-20.69,0.4296915282066768,-0.7446287163187773,-1.3281734501235292,-140.91718374591224,-38.62253627833281,-1.306372069959298,-0.0475,-0.9424,-0.3307,-0.0114
1590147.0,677.285632,1.0,0.69,1.21,-10.18,14.19,-15.69,46.69,-39.94,91.87,-17.87,0.03439561270278407,-0.1622298659726721,-0.4668644138903755,-139.63551670559374,-39.51014004319908,-5.4336758888612415,-0.051,-0.9386,-0.338,-0.0474
1590183.0,677.324237,1.0,0.94,1.24,-9.52,9.69,-16.75,48.0,-31.25,77.5,-11.56,-0.049991609618300514,-0.13649509265511747,0.16141957617658598,-138.84577222800962,-39.88781236546699,-7.798243752767078,-0.0514,-0.9362,-0.3411,-0.068
1590220.0,677.350626,1.0,1.78,1.54,-9.55,6.25,-18.25,47.56,-35.13,110.94,-8.06,0.12029497038252834,-0.23340471180894495,-0.025620915745053097,-137.4343266309111,-40.27814205807221,-11.823900394126868,-0.0515,-0.9318,-0.3443,-0.103
1590255.0,677.386083,1.0,3.22,0.79,-11.16,6.25,-18.25,47.56,-14.56,52.31,5.06,-0.07852306295605338,-1.5916504952983388,-1.7258511523693532,-136.65191882638644,-40.33917501022326,-14.118999098561428,-0.0498,-0.9293,-0.3448,-0.1229
1590290.0,677.415997,1.0,2.04,0.82,-8.75,2.69,-20.19,47.06,-52.75,60.81,13.75,-0.635114413522827,-0.7404680302857525,0.8375454305426722,-136.4043735540619,-39.619740596742815,-16.29245975343786,-0.0549,-0.9285,-0.3389,-0.1417
1590325.0,677.485405,1.0,2.43,2.43,-8.86,0.0,-20.06,47.06,-44.81,97.12,6.19,-0.03548153901059736,0.3826625444518603,0.31129795610699773,-134.88648767208014,-39.24238573337944,-20.21551264575777,-0.0592,-0.9235,-0.3358,-0.1755
1590362.0,677.497403,1.0,5.36,0.87,-11.7,-3.25,-23.06,45.75,-28.87,19.87,26.44,-0.27515793601903127,-2.5068481026853737,-2.8431128713074525,-134.58869098980696,-38.54969038931156,-22.057320868979353,-0.059,-0.9225,-0.3301,-0.1913
1590394.0,677.524465,1.0,2.86,2.97,-8.83,-3.25,-23.06,45.75,-60.13,-26.62,32.06,0.18186680197588223,0.4040516185750923,0.07150404547697775,-135.7304149229091,-36.80615463747225,-22.022297601396424,-0.0763,-0.9263,-0.3157,-0.191
1590431.0,677.578224,1.0,2.62,3.56,-9.3,-6.25,-23.37,44.06,-29.31,-27.0,27.56,0.10256903802286388,0.882915702237938,-0.45190445251331646,-136.68295663578678,-35.56446095223015,-21.78886220109525,-0.0847,-0.9294,-0.3054,-0.189
1590468.0,677.616153,1.0,2.56,3.24,-8.96,-5.56,-24.69,44.19,-7.81,-27.87,16.37,0.10211502531488947,0.5753854686622294,-0.04176632365617117,-137.7829624670443,-34.579011997804514,-20.995859763455268,-0.0901,-0.9329,-0.2972,-0.1822
1590503.0,677.631668,1.0,2.73,2.88,-9.09,-5.56,-24.69,44.19,3.19,-62.13,25.56,0.1759914599407848,0.09361179605467068,-0.10978402830207479,-138.9763854221543,-33.84764578735518,-19.73845598070809,-0.0928,-0.9366,-0.2911,-0.1714
1590538.0,677.665699,1.0,1.82,3.63,-9.27,-5.19,-25.37,45.0,-0.31,-79.56,29.81,0.16870288444721315,1.0297407460481058,-0.25979790046159046,-141.29579335128196,-32.49653690025889,-17.02208275037734,-0.0981,-0.9435,-0.2798,-0.148
1590573.0,677.724778,1.0,1.67,3.02,-9.13,-2.19,-25.25,43.75,13.38,-52.56,10.94,0.057674914539504685,0.5483105765013652,0.06179345329139352,-142.34696199162144,-32.15054762531955,-15.309094936163461,-0.0986,-0.9465,-0.2769,-0.1332
1590609.0,677.748293,1.0,1.63,2.81,-9.23,-0.69,-24.56,44.69,19.19,-62.31,8.31,0.23011922672607898,0.290930011023393,0.028700068128957312,-143.39070307393442,-31.935947193238352,-13.184178987120148,-0.0989,-0.9494,-0.2751,-0.1148
1590644.0,677.777077,1.0,1.21,2.91,-9.58,-0.69,-24.56,44.69,13.44,-67.94,8.25,0.15826625656340998,0.46924791603443045,-0.2662521729256735,-144.50157885257724,-31.471372637897833,-11.201968941881601,-0.0994,-0.9524,-0.2712,-0.0976
1590681.0,677.819637,1.0,0.52,2.85,-9.18,0.37,-24.87,44.88,22.81,-56.75,-4.94,0.05684223270238531,0.7426824670298944,0.20922890296837338,-145.49229376528544,-31.25713296863674,-8.61393617408195,-0.0989,-0.955,-0.2694,-0.0751
1590716.0,677.860627,1.0,0.71,2.12,-9.54,3.0,-23.75,45.75,27.56,-47.06,-6.88,0.057921530802020005,-0.03204049207613577,0.008399212071726225,-145.8027223342799,-31.459467480314125,-7.051830951076286,-0.0956,-0.9558,-0.2711,-0.0615
1590751.0,677.891793,1.0,0.21,2.09,-9.34,3.0,-23.75,45.75,18.44,-39.88,-12.63,-0.02924688760275293,0.18512766602643876,0.23519909813370177,-145.95896619488119,-31.74528777217434,-5.15836210329675,-0.0937,-0.9562,-0.2735,-0.045
1590786.0,677.917978,1.0,0.11,2.33,-9.96,6.0,-22.25,44.88,24.0,-32.44,-20.75,0.22793898298928245,0.335056726293048,-0.4148166662959696,-145.49229376528544,-32.61591400140699,-3.6102313192651674,-0.0897,-0.955,-0.2808,-0.0315
1590822.0,677.95601,1.0,-0.12,1.06,-9.26,7.19,-22.25,45.75,50.5,-34.13,-24.31,-0.29560046034763804,-0.3949935877321751,0.49847077775182136,-145.22287322309495,-33.344908493651104,-2.2117544130994498,-0.0812,-0.9543,-0.2869,-0.0193
1590857.0,677.996702,1.0,-0.78,0.64,-8.71,7.19,-22.25,45.75,17.37,-25.94,-14.56,-0.8046788727079175,-0.25999320638519796,1.0792795229060506,-144.9554604078314,-33.88358116240482,-0.8823637238721431,-0.0757,-0.9536,-0.2914,-0.0077
1590892.0,678.021414,1.0,-0.44,1.05,-9.65,7.88,-19.69,45.38,2.81,10.19,-10.81,-0.3558425724132221,-0.22592093355716109,0.09887292203622167,-144.5768347492103,-34.26710635514728,-0.9625804159917916,-0.0749,-0.9526,-0.2946,-0.0084
1590927.0,678.063664,1.0,0.0,1.1,-10.16,10.19,-19.25,45.75,8.06,6.63,-8.56,-0.0006449102903974824,-0.43856690824897565,-0.40330879771704353,-144.27673180622273,-34.65102767354547,-1.1115555540621913,-0.0719,-0.9518,-0.2978,-0.0097
1590964.0,678.093721,1.0,-0.26,0.87,-9.73,9.38,-18.87,45.38,10.56,-18.25,-2.75,-0.23250680046241923,-0.4171464427790812,0.046049125411618874,-144.23939029133865,-34.77108519878443,-0.6417160846123932,-0.0704,-0.9517,-0.2988,-0.0056
1590996.0,678.135029,1.0,-0.79,1.16,-9.36,9.38,-18.87,45.38,1.63,-14.94,-2.94,-0.38751508704899496,0.12624993371929347,0.35079504068800027,-144.1648201843402,-34.8191192303352,-0.011459155921715059,-0.071,-0.9515,-0.2992,-0.0001
1591033.0,678.166726,1.0,-0.34,1.13,-10.1,10.5,-18.87,45.75,-0.12,3.06,-2.0,-0.06427129746274396,-0.24852339535446852,-0.35881139249389804,-144.1275913572786,-34.90319398604888,-0.011459155921715059,-0.0707,-0.9514,-0.2999,-0.0001
1591070.0,678.234203,1.0,-0.51,1.17,-9.47,10.88,-18.56,45.75,1.56,-1.44,-0.63,-0.13920733474609864,-0.033023543314035314,0.25209973515027784,-144.09039985888566,-34.93923195845143,0.06875493954099557,-0.0704,-0.9513,-0.3002,0.0006
1591105.0,678.237987,1.0,-0.5,1.41,-9.62,10.88,-18.56,45.75,-4.19,4.69,-0.69,-0.022175581475667033,0.12810552207060882,0.07188769068801548,-144.01612838483007,-34.975273498072475,-0.04583662483277591,-0.0711,-0.9511,-0.3005,-0.0004
1591138.0,678.274599,1.0,-0.55,1.09,-9.54,10.5,-18.19,45.38,-1.44,8.81,0.31,-0.29128244700426553,-0.07389585070704528,0.19353947638094304,-144.01612838483007,-34.98728813812748,-0.3552344019497601,-0.071,-0.9511,-0.3006,-0.0031
1591173.0,678.305878,1.0,0.06,1.4,-10.51,10.88,-18.56,45.75,-8.25,6.0,0.25,0.2698267679924998,-0.3090556224233666,-0.7884138571706227,-143.94200484154302,-35.02333444123644,-0.6990128451499703,-0.0723,-0.9509,-0.3009,-0.0061
1591209.0,678.35575,1.0,-0.45,1.21,-9.5,10.19,-18.87,44.88,0.44,-7.0,2.06,-0.1674306966880335,-0.060068906060465055,0.2209857721892181,-144.01612838483007,-34.927218904854634,-0.4583674584234223,-0.073,-0.9511,-0.3001,-0.004
1591244.0,678.38109,1.0,-0.66,1.44,-9.59,10.19,-18.87,44.88,-5.56,0.06,2.63,-0.21788291602043727,0.20853728464160637,0.09138679019344487,-144.05324557319378,-34.867159576242614,-0.43544897228423995,-0.0743,-0.9512,-0.2996,-0.0038
1591281.0,678.412632,1.0,-0.23,1.33,-9.94,9.38,-18.87,44.56,-3.44,2.0,-0.5,0.016605254991595236,-0.17721127480773993,-0.2229920888079402,-144.1275913572786,-34.77108519878443,-0.6302567522155992,-0.075,-0.9514,-0.2988,-0.0055
1591316.0,678.45962,1.0,-0.22,1.38,-9.99,9.75,-18.5,46.19,-0.25,-7.56,0.88,0.060253200944612006,-0.16524639463696256,-0.27908067163879124,-144.09039985888566,-34.77108519878443,-0.5500415954991054,-0.0756,-0.9513,-0.2988,-0.0048
1591351.0,678.525786,1.0,-0.8,1.26,-9.15,9.75,-18.5,46.19,1.5,0.75,1.44,-0.4010144876246255,0.17360944352657004,0.5460265252098946,-144.1648201843402,-34.699045966979874,-0.29793838914592274,-0.0756,-0.9515,-0.2982,-0.0026
1591386.0,678.560692,1.0,-0.47,1.4,-9.69,10.88,-19.56,45.0,-8.81,12.94,0.88,-0.1355130463500936,0.026663036638483045,0.005735486713694726,-144.1275913572786,-34.699045966979874,-0.6302567522155992,-0.0763,-0.9514,-0.2982,-0.0055
1591422.0,678.565711,1.0,0.18,1.38,-10.46,10.5,-18.75,46.56,0.19,-3.5,3.31,0.28276769656452366,-0.4600022337457298,-0.7317009324148298,-144.1275913572786,-34.675036035061034,-0.9625804159917916,-0.0768,-0.9514,-0.298,-0.0084
1591457.0,678.591524,1.0,-0.88,1.44,-9.05,10.5,-18.75,46.56,-0.31,-9.38,4.06,-0.42704384795693157,0.3567083287304497,0.6174774191776908,-144.27673180622273,-34.53100937438062,-0.6417160846123932,-0.0778,-0.9518,-0.2968,-0.0056
1591490.0,678.632687,1.0,-0.42,1.55,-9.75,10.5,-18.5,46.19,-0.94,7.69,-0.25,-0.056419163012476736,0.0856254273123638,-0.07418423422549836,-144.1275913572786,-34.66303165808797,-0.8250663536663884,-0.0782,-0.9514,-0.2979,-0.0072
1591525.0,678.666022,1.0,-0.06,0.34,-9.83,10.5,-19.19,45.38,5.81,10.25,5.88,-0.4896312384695768,-1.0575039913196251,0.039867184832157676,-144.27673180622273,-34.53100937438062,-1.1459346897143055,-0.0762,-0.9518,-0.2968,-0.01
1591562.0,678.699636,1.0,-0.59,1.38,-9.35,9.75,-19.56,46.19,-17.31,-11.25,16.94,-0.3290108297487863,0.08662384554410725,0.3430751900620983,-144.65224571956077,-34.03934085088464,-1.100095864564908,-0.0798,-0.9528,-0.2927,-0.0096
1591597.0,678.722597,1.0,-0.51,2.53,-9.74,9.75,-19.56,46.19,-18.06,1.44,6.06,0.273447997190404,0.8235065886079814,-0.23205823818242877,-144.7656551188059,-33.703938528301116,-1.306372069959298,-0.0857,-0.9531,-0.2899,-0.0114
1591633.0,678.776289,1.0,0.26,0.43,-10.34,9.38,-19.19,47.06,13.0,2.94,3.63,-0.2846916239285813,-1.3705596450148252,-0.4504751790509882,-144.9174197897038,-33.64407662582566,-1.3751317128217122,-0.0837,-0.9535,-0.2894,-0.012
1591670.0,678.798249,1.0,-0.39,0.33,-9.18,9.0,-20.0,47.06,0.94,-9.56,26.31,-0.7641164714354964,-0.9407596502890639,0.6926773591331745,-145.64716796815563,-32.84283089936096,-1.1573944243672372,-0.0842,-0.9554,-0.2827,-0.0101
1591703.0,678.83943,1.0,-0.83,3.44,-9.33,9.0,-20.0,47.06,-36.06,2.5,12.06,0.40024631109451647,1.6542208756242267,-0.0256821844364179,-145.68599243347148,-32.38912849332685,-1.4668120111410634,-0.0953,-0.9555,-0.2789,-0.0128
1591738.0,678.880692,1.0,-0.14,2.88,-10.2,9.38,-20.0,45.38,3.75,11.56,1.19,0.5449560055266618,0.6982804740250672,-0.755993008813455,-145.76376947074462,-32.2936788968098,-1.8793858210517667,-0.095,-0.9557,-0.2781,-0.0164
1591773.0,678.920615,1.0,-0.07,1.67,-9.92,8.69,-21.75,44.56,4.06,-6.06,0.63,0.023966833629694095,-0.24742190458852248,-0.2501093185884464,-145.88075748629683,-32.28174931703743,-1.7533192633889718,-0.0924,-0.956,-0.278,-0.0153
1591810.0,678.948595,1.0,-0.6,2.14,-9.28,8.69,-21.75,44.56,-3.19,-12.13,3.25,-0.08227907580582033,0.4784591554133714,0.276576181278255,-145.95896619488119,-32.12669742786024,-1.3980517025844337,-0.0945,-0.9562,-0.2767,-0.0122
