TIME,ELAPSED_SECONDS,PSTATE,acc_x,acc_y,acc_z,mag_x,mag_y,mag_z,gyr_x,gyr_y,gyr_z,lin_x,lin_y,lin_z,eul_x,eul_y,eul_z,qua_w,qua_x,qua_y,qua_z
2541127.0,730.03402,1.0,-0.61,3.0,-9.31,6.5,-23.56,45.88,-2.31,4.63,-0.44,0.017707054430563307,-0.1393532206215984,0.007238428883812986,-148.4345315385202,-25.007087789331905,-0.09167325699941424,-0.1648,-0.9623,-0.2165,-0.0008
2541162.0,730.062277,1.0,-0.48,3.12,-9.45,7.69,-23.25,46.69,0.25,0.81,0.19,0.164236433023003,-0.13363808808888342,-0.15439749790300894,-148.35037934063973,-25.10099664997855,-0.1718874029970642,-0.1648,-0.9621,-0.2173,-0.0015
2541197.0,730.104315,1.0,-0.75,2.89,-9.01,8.75,-24.0,44.69,4.06,-10.81,3.31,-0.10127890883866048,-0.07102163533348,0.31563327311878453,-148.30838490049834,-25.194922646375748,0.057295781900406746,-0.164,-0.962,-0.2181,0.0005
2541232.0,730.122077,1.0,-0.91,3.03,-9.15,8.75,-24.0,44.69,-2.69,-9.0,4.94,-0.1595838806204013,0.04150451543769761,0.1265513248704746,-148.4345315385202,-24.960139762282665,0.3552344019497601,-0.165,-0.9623,-0.2161,0.0031
2541268.0,730.162165,1.0,-0.95,3.05,-9.15,7.25,-23.56,45.5,0.19,0.81,2.63,-0.19139461773327254,0.07593681208662689,0.11721752431428989,-148.51890294966256,-24.889725700371912,0.34377519274259805,-0.165,-0.9625,-0.2155,0.003
2541303.0,730.199484,1.0,-0.44,3.18,-9.66,7.25,-24.0,45.88,-2.13,-0.19,0.0,0.2845724893119741,-0.1850130510184903,-0.36715895580802815,-148.56117141184754,-24.831054609816952,0.3093975852894872,-0.165,-0.9626,-0.215,0.0027
2541338.0,730.242629,1.0,-0.85,2.92,-9.11,7.25,-24.0,45.88,1.25,-2.38,-0.81,-0.1366756241980745,-0.055376215619143083,0.20356438919272257,-148.60349534227026,-24.819321185763364,0.43544897228423995,-0.1644,-0.9627,-0.2149,0.0038
2541371.0,730.271031,1.0,-1.03,3.17,-9.12,7.69,-23.56,45.88,0.56,2.19,0.81,-0.20539692745156007,0.23494608692952912,0.1016609511432236,-148.60349534227026,-24.819321185763364,0.3781528311358495,-0.1642,-0.9627,-0.2149,0.0033
2541408.0,730.312282,1.0,-0.9,2.73,-8.84,8.0,-23.56,45.88,-8.44,17.19,3.13,-0.31850860094420574,-0.09403768522370509,0.5169670568160747,-148.56117141184754,-24.842788298368426,-0.04583662483277591,-0.1644,-0.9626,-0.2151,-0.0004
2541443.0,730.337395,1.0,-0.74,2.5,-9.09,8.0,-23.56,45.88,-5.75,20.06,13.13,-0.43435482391174773,-0.415279818953861,0.36924683181256235,-148.7733502639536,-24.51434453810049,-0.9167422509706517,-0.165,-0.9631,-0.2123,-0.008
2541477.0,730.376394,1.0,-0.64,2.55,-8.66,7.25,-23.56,46.75,-49.19,45.5,28.31,-0.5119223564593243,-0.32687421033943553,0.7767669026630148,-148.94411093259444,-23.76437852052494,-2.165909426065293,-0.1701,-0.9635,-0.2059,-0.0189
2541512.0,730.420665,1.0,-0.24,3.97,-8.64,6.5,-24.0,45.5,-45.19,73.31,17.44,-0.13507327603771738,0.6390652132510424,0.31763261866314707,-147.93284627196644,-23.495113294365407,-5.296015172064578,-0.1808,-0.9611,-0.2036,-0.0462
2541549.0,730.448605,1.0,1.28,4.04,-10.14,3.19,-26.25,45.06,-21.75,93.87,7.31,0.5041236547992323,-0.375974448133006,-1.1653189461382905,-147.113267463602,-23.506817731301982,-8.096899901459961,-0.1834,-0.9591,-0.2037,-0.0706
2541582.0,730.47601,1.0,0.7,3.32,-8.75,3.19,-26.25,45.06,-21.5,64.0,4.88,-0.43899965656769285,-0.2440323879498719,0.43527723528911544,-145.95896619488119,-23.729249451725817,-10.902639624835572,-0.1851,-0.9562,-0.2056,-0.095
2541619.0,730.520757,1.0,0.13,4.27,-7.08,0.5,-26.25,45.06,-33.19,111.44,9.5,-0.5509536974074499,1.343115287981511,1.6660915826367635,-144.53918747848587,-23.94005793030564,-13.68032776202412,-0.1889,-0.9525,-0.2074,-0.1191
2541656.0,730.57534,1.0,4.19,4.66,-10.81,-2.75,-27.75,43.0,0.88,95.56,3.69,1.0404048456232613,-1.0565202955886908,-2.6001675864003477,-142.063908450112,-24.631622257728544,-18.576333132780544,-0.1848,-0.9457,-0.2133,-0.1614
2541690.0,730.615648,1.0,2.3,3.66,-8.35,-2.75,-27.75,43.0,-26.87,-11.75,12.0,-0.07411661528354907,-0.3232862880755046,0.4099435182968847,-141.88802849828062,-24.350199497398,-19.12228331882828,-0.1857,-0.9452,-0.2109,-0.1661
2541725.0,730.629986,1.0,1.75,5.36,-8.12,-7.0,-28.87,42.56,-17.44,40.56,2.81,-0.09876851201496817,1.2856617117159197,0.0054348332942897315,-140.88293936908892,-24.0923596055089,-20.11076285425295,-0.195,-0.9423,-0.2087,-0.1746
2541760.0,730.674942,1.0,2.48,4.7,-8.28,-8.88,-29.25,41.69,3.63,65.56,-4.94,0.0029536732616637362,0.4221782535801164,-0.02292561637420043,-140.00247242955643,-24.315032171134934,-21.683846183764324,-0.1931,-0.9397,-0.2106,-0.1881
2541797.0,730.698531,1.0,2.95,4.21,-8.59,-10.75,-30.75,40.88,-5.31,-15.69,0.63,-0.014483890833347335,-0.21487372006961547,-0.2017624366120021,-139.70199765652578,-24.326754354712538,-22.47776386307514,-0.1901,-0.9388,-0.2107,-0.1949
2541832.0,730.746288,1.0,2.29,4.62,-7.93,-10.75,-30.75,40.88,-5.75,0.25,0.44,-0.12852217024618318,0.5720452972001284,0.3658001320216737,-139.73527758064986,-24.209544126742898,-22.302542365509357,-0.1927,-0.9389,-0.2097,-0.1934
2541869.0,730.780016,1.0,3.31,4.3,-8.97,-11.19,-29.69,42.69,4.5,3.75,1.81,0.12782908219545197,-0.4279838502987833,-0.6674843102725472,-139.70199765652578,-24.209544126742898,-22.53618284114898,-0.1912,-0.9388,-0.2097,-0.1954
2541903.0,730.811006,1.0,3.21,4.28,-9.03,-11.06,-30.5,41.38,0.88,-9.94,-4.81,0.07995109289238855,-0.4320984780098192,-0.6800224335247016,-139.93551354464947,-24.197824520118107,-22.139049946746336,-0.1915,-0.9395,-0.2096,-0.192
2541938.0,730.833171,1.0,1.95,4.43,-7.69,-11.06,-30.5,41.38,-1.25,-29.75,0.25,-0.22381855924193916,0.6196956365911517,0.7441237202847901,-140.40650617828152,-24.0923596055089,-21.32226479540238,-0.1925,-0.9409,-0.2087,-0.185
2541971.0,730.876958,1.0,2.41,4.69,-8.59,-10.25,-30.5,42.19,8.75,-7.81,0.37,-0.0454659770494259,0.3608310387759701,-0.26608715562889174,-140.74624891732873,-24.045492963672757,-20.774468878532232,-0.1921,-0.9419,-0.2083,-0.1803
2542008.0,730.902991,1.0,2.3,4.42,-8.37,-10.0,-30.75,42.19,13.5,-12.19,-6.75,-0.04562824861231829,0.27165271009340636,0.06973966519525199,-141.08884000838947,-24.127512270969643,-20.30863790096007,-0.19,-0.9429,-0.209,-0.1763
2542045.0,730.942993,1.0,2.81,4.62,-9.05,-10.0,-30.75,42.19,21.31,-21.37,-4.44,0.365333651151432,0.08000902412459843,-0.7291522893083471,-141.88802849828062,-24.209544126742898,-19.377984308584086,-0.1851,-0.9452,-0.2097,-0.1683
2542077.0,730.989173,1.0,1.87,3.42,-8.11,-10.0,-30.0,42.69,26.94,-24.37,2.44,-0.285936374705271,-0.15822066364474494,0.8145086192600246,-142.91931394004666,-24.139230338119987,-18.3441436046709,-0.179,-0.9481,-0.2091,-0.1594
2542114.0,731.016357,1.0,2.32,4.09,-8.97,-7.69,-28.87,43.5,-0.06,-11.38,-4.25,0.09076737926773526,-0.02552305778688524,-0.3206650368882169,-143.13615512462272,-24.279867169785643,-17.891591511712036,-0.1779,-0.9487,-0.2103,-0.1555
2542149.0,731.058384,1.0,1.94,4.28,-8.75,-8.06,-28.06,43.06,11.19,-9.06,-9.25,-0.012870410267614374,0.368189041165746,-0.11850849659364293,-143.3178010626215,-24.420541139763646,-17.474100846214466,-0.177,-0.9492,-0.2115,-0.1519
2542184.0,731.086081,1.0,2.06,4.24,-9.14,-8.06,-28.06,43.06,18.44,-21.62,-6.88,0.1110375893919473,0.21566381875199164,-0.4744958394005536,-143.83109490597238,-24.66681067830264,-16.605072138436235,-0.1731,-0.9506,-0.2136,-0.1444
2542219.0,731.126389,1.0,1.88,3.54,-9.04,-7.0,-27.75,43.5,19.06,-27.75,0.69,-0.09234135833512913,-0.21784314071743732,-0.07928027689267125,-144.50157885257724,-24.702001461626935,-15.725436142775802,-0.1689,-0.9524,-0.2139,-0.1368
2542256.0,731.165012,1.0,2.08,4.27,-9.61,-6.56,-27.37,44.75,20.44,-56.19,2.56,0.44950409848345196,0.15491695645145542,-0.9024744647753753,-145.53094905314887,-24.420541139763646,-14.095906005216998,-0.1671,-0.9551,-0.2115,-0.1227
2542290.0,731.194932,1.0,0.95,3.77,-8.83,-6.56,-27.37,44.75,37.44,-60.19,-9.75,-0.15252335646010184,0.4586644884249961,0.17074508594070714,-146.71084020226166,-24.350199497398,-12.111948910357556,-0.1627,-0.9581,-0.2109,-0.1055
2542325.0,731.239853,1.0,1.11,3.34,-9.04,-4.0,-27.0,44.75,37.5,-36.19,-16.94,0.16267978679298073,0.05028883136056922,0.107149687076177,-147.56154217602332,-24.93666734562011,-10.05110359058591,-0.1539,-0.9602,-0.2159,-0.0876
2542360.0,731.266038,1.0,1.11,2.82,-9.31,-1.25,-26.25,46.5,32.19,-32.56,-16.44,0.13361299171299734,-0.3936387859194852,0.024636093106114032,-147.93284627196644,-25.5003013557049,-8.855279263547427,-0.1474,-0.9611,-0.2207,-0.0772
2542397.0,731.302297,1.0,0.29,2.25,-8.53,0.19,-24.06,46.0,23.5,-22.0,-14.31,-0.4191001479363995,-0.27159995428849426,0.9942673181806168,-148.14094650942238,-26.12337743794119,-7.4651897628112485,-0.1415,-0.9616,-0.226,-0.0651
2542432.0,731.326358,1.0,0.37,2.21,-8.93,0.19,-24.06,46.0,6.75,1.94,-14.56,-0.3827226465088982,-0.40594228530587906,0.616729748069087,-147.89138385145154,-26.688351311037593,-7.212570385921346,-0.1389,-0.961,-0.2308,-0.0629
2542469.0,731.371059,1.0,1.04,2.6,-10.06,1.25,-22.5,47.69,2.0,-9.31,-3.5,0.18457448047846564,-0.653224786807886,-0.613735292255555,-147.6436957459843,-26.994654003838157,-7.143680335170353,-0.1386,-0.9604,-0.2334,-0.0623
2542503.0,731.402998,1.0,0.16,2.79,-8.93,1.25,-23.0,45.56,7.94,-26.81,-3.75,-0.1496974730954022,0.15611813439857317,0.45208866369668854,-147.89138385145154,-27.006438787370872,-6.17947961245989,-0.1383,-0.961,-0.2335,-0.0539
2542538.0,731.444077,1.0,-0.26,2.28,-8.65,1.25,-23.0,45.56,7.5,-0.75,-7.81,-0.6377041775382013,-0.00439829005314582,0.8801829476329228,-147.84997349806363,-27.20682475697043,-5.858180044713635,-0.1369,-0.9609,-0.2352,-0.0511
2542571.0,731.488305,1.0,0.44,2.54,-9.36,2.38,-22.5,46.88,-1.69,13.88,-3.0,-0.07475320012596454,-0.24640363954899974,0.10157415251236124,-147.6025936178383,-27.47807034873948,-6.248335760592127,-0.1358,-0.9603,-0.2375,-0.0545
2542608.0,731.519665,1.0,0.37,3.06,-9.35,3.19,-22.06,46.88,7.81,-11.88,-3.38,0.12639033028998847,0.22801828196917806,-0.03484547312282338,-147.52054122823532,-27.631452438914533,-6.087674884576737,-0.1355,-0.9601,-0.2388,-0.0531
2542643.0,731.560623,1.0,0.15,2.56,-9.08,3.19,-22.06,46.88,2.88,1.12,-5.81,-0.20171340162164103,-0.010906217588710576,0.37363919972927384,-147.52054122823532,-27.784885032921764,-5.881128455236523,-0.134,-0.9601,-0.2401,-0.0513
2542678.0,731.586361,1.0,0.13,3.15,-9.39,2.38,-22.06,47.38,-6.81,13.81,-5.44,-0.0720955535488565,0.40688390359914234,-0.08985179205513383,-147.15377378773437,-28.021034543913196,-6.271288310584378,-0.1357,-0.9592,-0.2421,-0.0547
2542712.0,731.637422,1.0,0.54,2.9,-9.7,3.19,-22.87,46.88,2.13,3.44,-6.88,0.09350759650678497,-0.06246537201166541,-0.33134558131167147,-146.83107004149565,-28.35184823709937,-6.48935022815341,-0.1353,-0.9584,-0.2449,-0.0566
2542749.0,731.652992,1.0,-0.05,3.54,-8.86,1.69,-22.5,46.56,-4.69,-3.63,-11.13,0.04338004053028155,0.9259852589230442,0.3106313883743468,-146.63092085313292,-28.54099280947513,-6.317194167065647,-0.1365,-0.9579,-0.2465,-0.0551
2542782.0,731.686168,1.0,0.13,3.63,-9.12,1.69,-22.5,46.56,2.19,13.38,-19.31,0.18264204877236062,0.8616190252748346,0.029510615839381416,-145.95896619488119,-29.274683969227155,-6.581172764918963,-0.1359,-0.9562,-0.2527,-0.0574
2542819.0,731.727409,1.0,0.27,2.75,-9.0,2.38,-22.87,48.19,8.0,35.13,-29.87,-0.1426691056242707,0.16489369095089548,0.39453782488303446,-145.26123786330908,-30.17572764472251,-7.1781250358345785,-0.1322,-0.9544,-0.2603,-0.0626
2542856.0,731.753339,1.0,0.7,2.66,-9.47,2.75,-22.5,47.25,-2.19,36.88,-31.81,-0.07441325466351978,-0.14864626587933363,-0.05331282727123643,-143.83109490597238,-31.63808150954527,-8.430081473298436,-0.1293,-0.9506,-0.2726,-0.0735
2542891.0,731.80286,1.0,0.78,2.54,-9.32,2.75,-22.5,47.25,9.0,17.19,-22.5,-0.08764114336717405,-0.21534365205064152,0.11808219348129079,-143.06373822672285,-32.48460118565665,-8.889760035755181,-0.1273,-0.9485,-0.2797,-0.0775
2542923.0,731.827441,1.0,0.83,2.38,-9.41,1.25,-22.87,46.5,7.5,19.25,-24.0,-0.18819915995794528,-0.3090377172912431,0.07163706906444212,-142.31146828862353,-33.38079627736779,-9.338084626655299,-0.1233,-0.9464,-0.2872,-0.0814
2542960.0,731.88499,1.0,1.43,2.09,-9.87,1.25,-22.87,46.75,8.56,20.0,-18.5,-0.001862933304349501,-0.8910446746450433,-0.344011846267275,-141.74788525089278,-34.03934085088464,-9.76355056625781,-0.1198,-0.9448,-0.2927,-0.0851
2542997.0,731.890677,1.0,1.31,2.5,-9.72,0.88,-22.5,48.06,2.81,11.56,-14.38,0.11128928904893143,-0.4175691608409988,-0.30560744777384663,-141.19218403998903,-34.675036035061034,-10.131629731204741,-0.1174,-0.9432,-0.298,-0.0883
2543032.0,731.937183,1.0,1.59,2.03,-9.9,0.88,-22.5,48.06,4.31,12.88,-8.56,0.011791821438736028,-0.9242824779145773,-0.3818024268392861,-140.91718374591224,-35.02333444123644,-10.396251161173769,-0.1146,-0.9424,-0.3009,-0.0906
2543067.0,731.965747,1.0,1.71,1.6,-9.98,0.88,-22.06,47.25,7.63,-10.63,6.81,-0.12928321844645474,-1.3092452160647343,-0.3596503503555688,-140.98575914579104,-35.03535067049245,-10.373238415502241,-0.1125,-0.9426,-0.301,-0.0904
2543104.0,732.014207,1.0,1.37,2.03,-9.75,0.19,-21.75,49.0,-7.69,-15.19,10.69,-0.06800767752740933,-0.7793335428986804,-0.21574064219262823,-141.29579335128196,-34.73506381234489,-10.039600263356236,-0.1144,-0.9435,-0.2985,-0.0875
2543136.0,732.053914,1.0,1.01,2.35,-9.48,0.19,-21.75,49.0,2.88,-26.75,15.81,-0.016417987906324205,-0.3527078766326482,-0.006011596296614741,-142.02866969644373,-34.02735703924717,-9.246109154854068,-0.1174,-0.9456,-0.2926,-0.0806
2543171.0,732.074982,1.0,1.47,1.91,-10.41,0.88,-22.06,48.5,0.0,-34.0,28.56,0.042359558359454486,-1.171486148846062,-0.8142221803285725,-142.84730495776557,-33.2731430190265,-8.533497036933401,-0.1183,-0.9479,-0.2863,-0.0744
2543208.0,732.125111,1.0,0.71,2.3,-9.51,1.69,-21.75,48.19,-0.12,-56.38,36.94,0.051733631668683555,-0.4085743352897854,0.005395455611466815,-144.46400874868328,-31.68572522309548,-6.787789031247121,-0.1228,-0.9523,-0.273,-0.0592
2543243.0,732.146393,1.0,0.61,2.31,-10.07,1.69,-21.75,48.19,4.63,-69.5,45.0,0.1253443259672162,-0.581384108569205,-0.5257931437221579,-145.91984007134727,-30.223203424759074,-5.135420654691241,-0.1261,-0.9561,-0.2607,-0.0448
2543278.0,732.17958,1.0,-0.42,2.22,-8.89,3.19,-22.06,46.75,-1.63,-54.25,38.0,-0.32500772580150317,-0.02636489058238306,0.6398307658973685,-147.80861501075395,-28.257305549296962,-2.8192367490322434,-0.1296,-0.9608,-0.2441,-0.0246
2543312.0,732.217505,1.0,-0.49,3.08,-9.02,5.38,-21.37,46.38,-11.0,-29.56,34.63,0.06752022460306961,0.6034139766169702,0.28203806081356575,-148.51890294966256,-27.218614801739264,-2.039837477354927,-0.1339,-0.9625,-0.2353,-0.0178
2543349.0,732.253998,1.0,-0.32,2.7,-9.34,6.19,-21.75,46.75,0.63,-16.44,28.69,0.06256601989540819,0.060115035909349177,0.07934453159755961,-149.46197984083236,-25.99399574998519,-1.5126525087430307,-0.1366,-0.9647,-0.2249,-0.0132
2543384.0,732.293868,1.0,-0.38,2.77,-9.47,6.19,-21.75,46.75,-1.44,-23.06,29.37,0.09985523328153365,0.06938131686199533,-0.06671898759773676,-150.43438697810745,-24.772390131710257,-0.8594447501191841,-0.1381,-0.9669,-0.2145,-0.0075
2543421.0,732.317377,1.0,-0.81,3.23,-9.23,5.75,-21.0,46.88,-4.31,-24.06,21.25,-0.025547665165569222,0.6325385555823769,0.014758339421520716,-150.88687816852095,-23.998630403703217,-0.26356081813331494,-0.1413,-0.9679,-0.2079,-0.0023
2543458.0,732.362763,1.0,-0.75,2.95,-9.21,6.19,-21.75,46.5,5.44,-18.19,17.81,-0.0001925907228586543,0.3481120224764117,0.1129449300736276,-151.57882322936237,-23.17918701849416,0.3896120513439707,-0.1414,-0.9694,-0.2009,0.0034
2543491.0,732.394073,1.0,-0.91,2.47,-8.89,6.19,-21.75,46.5,9.06,-16.62,16.12,-0.2562228586908155,0.08831057308883697,0.5390909314337211,-152.09692309623645,-22.62966555670664,0.8365258107465946,-0.1399,-0.9705,-0.1962,0.0073
2543525.0,732.454861,1.0,-0.88,2.29,-9.07,6.5,-22.5,46.06,0.5,-1.94,16.87,-0.29386610976530425,-0.13993786506954028,0.41636458881833605,-152.67309729035,-21.92891239364033,0.9969591404369118,-0.14,-0.9717,-0.1902,0.0087
2543560.0,732.468808,1.0,-0.9,2.89,-8.98,8.0,-21.06,46.88,-7.25,-8.81,15.63,-0.10420814053753913,0.38245825972802966,0.3385263029303669,-152.7702885732456,-21.590514086807826,0.9969591404369118,-0.1423,-0.9719,-0.1873,0.0087
2543597.0,732.516359,1.0,-1.03,3.07,-8.94,6.88,-21.75,46.0,-4.81,-6.38,14.31,-0.1549101098045031,0.5594001766896374,0.31599805715645246,-153.11317220133924,-20.995859763455268,1.1803139285143014,-0.1442,-0.9726,-0.1822,0.0103
2543632.0,732.55,1.0,-0.89,2.35,-9.09,6.88,-21.75,46.0,6.56,-0.75,10.88,-0.280725563448355,-0.15669745232439306,0.381187726643768,-153.46040280996561,-20.64633108966224,1.237612897472461,-0.1431,-0.9733,-0.1792,0.0108
2543669.0,732.577446,1.0,-0.71,3.36,-9.27,6.88,-22.5,46.5,-18.19,3.0,5.56,0.18102827086456308,0.5754617397219748,-0.060602533064304964,-153.46040280996561,-20.343563363128435,1.0313379546174166,-0.1465,-0.9733,-0.1766,0.009
2543704.0,732.612317,1.0,-0.85,3.3,-9.17,6.19,-21.87,45.56,3.31,5.25,0.06,-0.00028912207035614035,0.5759479507906281,0.04090968631212988,-153.36074062083046,-20.29699650405997,0.870904232640807,-0.1479,-0.9731,-0.1762,0.0076
2543736.0,732.63639,1.0,-0.75,2.68,-9.23,6.19,-21.87,45.56,2.25,-3.06,1.5,-0.11168299874038495,0.019381406719468256,0.16689111977555982,-153.61058909469406,-20.23879269230359,0.893823223927814,-0.1453,-0.9736,-0.1757,0.0078
2543773.0,732.67842,1.0,-0.71,2.69,-9.51,6.5,-21.87,46.0,-2.69,0.56,0.37,-0.07987135515900223,-0.07138358157174657,-0.10136821510775285,-153.61058909469406,-20.23879269230359,0.9052827329224427,-0.1456,-0.9736,-0.1757,0.0079
2543808.0,732.719647,1.0,-0.85,2.34,-9.08,5.75,-21.87,47.25,4.69,-0.63,3.63,-0.29765576989047016,-0.19750407820995242,0.39830831924981247,-153.81215335885898,-20.075850034388896,1.0198783397289317,-0.1445,-0.974,-0.1743,0.0089
2543843.0,732.750989,1.0,-0.41,2.6,-9.88,5.75,-21.87,47.25,2.0,-3.75,4.56,0.1804656333166244,-0.3360386507719677,-0.4108355116304896,-153.91350924378722,-19.95948754584176,1.0427975798203954,-0.1443,-0.9742,-0.1733,0.0091
2543878.0,732.797004,1.0,-1.02,2.62,-9.1,6.88,-21.87,45.19,3.69,-7.06,2.25,-0.32107579110488055,0.11957709126299113,0.28838273880106513,-154.0662728728033,-19.8664125287693,1.2834522947560847,-0.1433,-0.9745,-0.1725,0.0112
2543912.0,732.826393,1.0,-0.55,2.31,-9.61,6.5,-21.87,45.56,8.38,-6.75,8.31,0.028281262158658893,-0.4326968459274446,-0.08287342682574028,-154.3228637180319,-19.63378275290543,1.432431792389882,-0.1417,-0.975,-0.1705,0.0125
2543947.0,732.896795,1.0,-0.88,2.24,-8.97,5.38,-21.87,46.5,-2.88,-6.06,6.63,-0.2585907187883954,-0.21839362536044232,0.52557597462134,-154.68638599830706,-19.145524872704485,1.6960169933572922,-0.1418,-0.9757,-0.1663,0.0148
2543982.0,732.956664,1.0,-0.69,2.87,-9.5,5.38,-21.87,46.5,4.25,0.12,6.69,0.10410737703778744,0.1191571283019659,-0.14010641768818743,-154.73873772257048,-18.98285063278348,1.6616358358374437,-0.143,-0.9758,-0.1649,0.0145
2544019.0,732.960653,1.0,-0.63,2.24,-9.68,6.19,-22.19,46.88,9.19,-13.75,8.31,0.004823801294282115,-0.4717225389849726,-0.13791407175068926,-155.26824995377314,-18.51827857520288,1.959611168911186,-0.1401,-0.9768,-0.1609,0.0171
2544054.0,732.978576,1.0,-1.04,2.32,-9.02,6.5,-21.06,46.75,2.31,-8.81,5.25,-0.29806876410347,-0.08165512463607878,0.4402799746120145,-155.4832058886786,-18.274501601194086,2.303445456683929,-0.1392,-0.9772,-0.1588,0.0201
2544089.0,733.000008,1.0,-0.74,2.63,-9.63,6.5,-21.06,46.75,0.5,-3.56,11.0,0.0772556967728299,-0.07676966697955735,-0.20282241244752264,-155.70003388404493,-17.949595138790563,2.337829975144579,-0.14,-0.9776,-0.156,0.0204
2544123.0,733.035043,1.0,-0.73,2.36,-9.62,6.5,-22.19,46.5,8.5,-7.19,10.38,0.032823207556207046,-0.2946759408335632,-0.12103798497110141,-156.13951067883627,-17.508882729880764,2.532679647359437,-0.1383,-0.9784,-0.1522,0.0221
2544160.0,733.064637,1.0,-1.07,2.36,-9.0,6.5,-21.87,46.0,-9.13,-1.12,7.94,-0.28683805292153275,-0.04335512629928689,0.4455419318053053,-156.36226771891504,-17.09160645080068,2.6358382855186164,-0.1391,-0.9788,-0.1486,0.023
2544195.0,733.103399,1.0,-0.72,2.88,-9.66,6.5,-21.87,46.0,4.94,-3.06,8.19,0.19431453969686563,0.13663045263206672,-0.2964175529304445,-156.47442582901172,-16.871469682269606,2.6243761106355543,-0.1398,-0.979,-0.1467,0.0229
2544228.0,733.125338,1.0,-0.71,2.17,-9.68,7.69,-21.06,46.5,10.31,-13.0,8.5,0.06303021922363705,-0.45940014708769955,-0.12815642470302357,-156.87120131517742,-16.628233533749977,2.9797163137078666,-0.1361,-0.9797,-0.1446,0.026
2544263.0,733.179001,1.0,-1.26,2.66,-8.79,6.19,-20.69,46.88,-9.56,-8.0,5.38,-0.29723969378346654,0.35715580379850226,0.548605482054942,-156.98580474112185,-16.350341655632345,3.266301709643329,-0.1373,-0.9799,-0.1422,0.0285
2544300.0,733.201153,1.0,-1.2,3.47,-9.17,6.88,-20.69,46.0,-6.31,8.63,0.88,-0.05406222708975861,0.9135252230283324,-0.028610491847340214,-156.75715530060586,-16.2808838756779,3.025568677774776,-0.1411,-0.9795,-0.1416,0.0264
2544334.0,733.243863,1.0,-0.81,2.8,-9.59,6.88,-20.69,46.0,3.19,8.5,-4.88,0.09519289201662773,0.0990294776936212,-0.21559183882314592,-156.75715530060586,-16.419805484293857,2.7619239753850606,-0.1401,-0.9795,-0.1428,0.0241
2544371.0,733.271957,1.0,-1.21,2.72,-9.08,6.88,-23.0,47.25,2.31,0.25,-5.5,-0.3025822275067901,0.2888935110803001,0.26024310866896094,-156.70033876277134,-16.524012627926176,2.807774138332147,-0.1395,-0.9794,-0.1437,0.0245
