TIME,ELAPSED_SECONDS,PSTATE,acc_x,acc_y,acc_z,mag_x,mag_y,mag_z,gyr_x,gyr_y,gyr_z,lin_x,lin_y,lin_z,eul_x,eul_y,eul_z,qua_w,qua_x,qua_y,qua_z
2217144.0,405.481079,1.0,1.02,-0.98,-9.66,3.19,-2.25,53.19,-9.44,6.5,-3.31,-0.0846756673169452,0.13055426749572513,0.0448783567682689,-128.95070405160266,-50.12416021166318,-3.7592774051414257,0.072,-0.9024,-0.4236,-0.0328
2217181.0,405.505015,1.0,1.79,-0.46,-10.34,3.19,-1.5,54.0,-9.88,4.5,-3.06,0.7354899154893513,-0.019618318923013744,-0.6714208961991712,-128.81789729217328,-50.2633517404334,-4.11472114096103,0.0706,-0.9019,-0.4247,-0.0359
2217213.0,405.536361,1.0,1.08,-1.35,-9.53,3.19,-1.5,54.0,10.81,4.25,0.0,-0.3867716753053124,-0.13016618385103082,0.12970500502543914,-128.73836728652063,-50.30132682508742,-4.137654318321577,0.0726,-0.9016,-0.425,-0.0361
2217248.0,405.583304,1.0,1.3,-0.69,-9.7,3.19,-2.25,52.25,-4.69,-1.63,-1.19,0.23104545510225383,0.13196721861620603,-0.0007605986691139321,-128.63250588646886,-50.41528756455499,-4.263789782102698,0.0714,-0.9012,-0.4259,-0.0372
2217285.0,405.612012,1.0,1.33,-0.98,-9.7,2.38,-1.88,53.19,-2.94,3.25,-2.19,-0.0004777637631099285,-0.0655133358570204,-0.032811762442428005,-128.5268474503853,-50.52930167815198,-4.412865642375664,0.0712,-0.9008,-0.4268,-0.0385
2217320.0,405.649797,1.0,1.66,-0.94,-9.85,2.38,-1.88,53.19,3.19,-1.19,1.5,0.2409527947746628,-0.25640938410131153,-0.220208729354626,-128.47409395200594,-50.54197321585954,-4.424333322525306,0.0718,-0.9006,-0.4269,-0.0386
2217353.0,405.683045,1.0,1.11,-1.03,-9.78,2.38,-2.25,52.69,2.0,-3.44,0.5,-0.15089824609700275,0.08393627297135667,-0.0883782678426197,-128.50046440745703,-50.52930167815198,-4.263789782102698,0.0718,-0.9007,-0.4268,-0.0372
2217388.0,405.713965,1.0,1.18,-0.88,-9.55,1.69,-2.25,54.0,-4.38,1.56,-0.25,-0.004239327675370719,0.08175142076445474,0.14421765957432875,-128.5268474503853,-50.5039605862624,-4.332593112917143,0.0712,-0.9008,-0.4266,-0.0378
2217424.0,405.74163,1.0,1.39,-0.94,-9.77,3.19,-2.25,53.19,-2.63,6.5,-0.75,0.04675652158453991,-0.06746821850466583,-0.10606213478839344,-128.47409395200594,-50.567318276092784,-4.539012581284228,0.0711,-0.9006,-0.4271,-0.0396
2217459.0,405.799699,1.0,1.44,-0.8,-9.94,3.19,-2.25,53.19,3.56,-2.44,2.06,0.19012408127637692,0.005197468466682925,-0.26712912305210246,-128.50046440745703,-50.52930167815198,-4.504608331312204,0.071,-0.9007,-0.4268,-0.0393
2217494.0,405.827311,1.0,1.22,-1.24,-9.5,2.75,-2.69,53.19,2.94,5.0,4.94,-0.2724947935640209,-0.15524440854745292,0.1537931295654662,-128.60607229870925,-50.402622627844096,-4.49314033842009,0.0721,-0.9011,-0.4258,-0.0392
2217529.0,405.851277,1.0,1.45,-1.48,-9.41,2.75,-2.25,51.88,-7.25,8.69,5.06,-0.3387909782137435,-0.4711302977777277,0.18873666520659071,-128.71188283967422,-50.2633517404334,-4.722508904243301,0.0726,-0.9015,-0.4247,-0.0412
2217564.0,405.890955,1.0,1.83,-1.38,-9.86,2.75,-2.25,51.88,-2.88,2.13,11.25,-0.04558084249443051,-0.6209369101790775,-0.29707504279361174,-129.1104989092044,-49.84601386938241,-4.883078110442898,0.072,-0.903,-0.4214,-0.0426
2217598.0,405.9284,1.0,2.16,-1.55,-10.14,1.69,-2.69,53.19,-9.88,0.12,17.94,0.037110428334458545,-0.9437363120052591,-0.6334498361850756,-129.64656611878058,-49.31587513221956,-4.906017344265485,0.0712,-0.905,-0.4172,-0.0428
2217635.0,405.965231,1.0,1.77,-1.31,-9.82,1.69,-2.69,52.69,-9.44,-5.13,24.0,-0.026638460767321015,-0.6167331908820033,-0.23826565736977479,-130.62518646665285,-48.42223359833176,-4.860139072417077,0.0677,-0.9086,-0.4101,-0.0424
2217670.0,405.990607,1.0,1.68,-0.96,-9.93,1.69,-2.69,52.69,-7.5,1.0,26.06,0.16096150799063702,-0.3381715839748978,-0.30317845416960054,-131.37124925693712,-47.66948159847917,-4.917487034889402,0.0654,-0.9113,-0.4041,-0.0429
2217703.0,406.030588,1.0,1.46,-1.26,-9.67,2.38,-2.69,53.56,-4.0,0.44,31.0,-0.18444933394745255,-0.42889190136804506,-0.04272207034779818,-132.46829135766268,-46.569371208551814,-4.917487034889402,0.0648,-0.9152,-0.3953,-0.0429
2217740.0,406.087985,1.0,1.53,-1.14,-9.68,0.88,-3.0,52.25,-10.5,-0.81,33.63,-0.05745471781606759,-0.43004106076383075,-0.05005653116231379,-133.47352940641977,-45.61049316943376,-4.986306217889055,0.0626,-0.9187,-0.3876,-0.0435
2217775.0,406.121073,1.0,1.28,-1.09,-9.51,0.88,-3.0,52.25,-15.81,1.31,34.13,-0.21113362906659972,-0.28282803312114757,0.15563808961682035,-134.88648767208014,-44.221735687209446,-5.146891353190199,0.0599,-0.9235,-0.3764,-0.0449
2217807.0,406.148343,1.0,1.7,-0.55,-10.01,0.88,-3.5,52.69,-8.88,-2.94,36.0,0.4227622034289331,-0.14599598106697334,-0.3517237523712051,-135.91325060474233,-43.184649743140426,-5.273072468222583,0.0573,-0.9269,-0.368,-0.046
2217844.0,406.171048,1.0,1.2,-0.97,-9.58,2.06,-4.25,53.56,-6.13,-4.75,39.63,-0.172811284288111,-0.218365649859377,0.10717822556897083,-137.4343266309111,-41.72175180713575,-5.089538374458754,0.0553,-0.9318,-0.3561,-0.0444
2217879.0,406.210584,1.0,1.16,-0.55,-9.6,1.69,-4.25,53.56,-12.44,2.5,35.94,0.05841190370168203,0.08374505057354786,0.12173003047983677,-138.4562899093435,-40.70562437914749,-5.15836210329675,0.0527,-0.935,-0.3478,-0.045
2217914.0,406.244979,1.0,1.06,0.15,-9.94,1.69,-4.25,53.56,-22.31,3.88,25.87,0.32952871881325985,0.6479379114224203,-0.16437237919556758,-139.60231554875963,-39.58320288872563,-5.502509177758649,0.0471,-0.9385,-0.3386,-0.048
2217949.0,406.281209,1.0,0.66,0.93,-9.94,0.88,-4.19,52.69,-14.25,-11.44,21.0,0.4940311264527507,1.4212264173519906,-0.08476793256743598,-140.305127821115,-38.95054421712167,-5.4336758888612415,0.0427,-0.9406,-0.3334,-0.0474
2217986.0,406.308389,1.0,0.56,0.48,-9.7,0.56,-5.75,52.69,1.81,1.37,17.75,0.1463131800693365,1.0951772839396035,0.14160063799047862,-140.98575914579104,-38.270597450084026,-5.364844561963228,0.0419,-0.9426,-0.3278,-0.0468
2218020.0,406.346151,1.0,0.38,0.64,-9.64,0.56,-5.75,52.69,-6.19,-5.5,4.5,0.09423410652757314,1.2565670454953748,0.22042242115846733,-141.26122730722247,-38.07658496090942,-5.296015172064578,0.0383,-0.9434,-0.3262,-0.0462
2218053.0,406.394449,1.0,0.31,0.47,-9.84,0.56,-6.5,51.88,-5.75,3.13,-3.5,-0.10048928930847745,1.134110317726554,0.016537861216272987,-141.26122730722247,-38.100830311382886,-5.318958088351593,0.0354,-0.9434,-0.3264,-0.0464
2218090.0,406.421039,1.0,0.77,-0.1,-9.66,0.88,-6.06,52.69,12.63,-0.75,-3.06,-0.06334934577974666,0.40547982190636156,0.12418786609954857,-141.1577066587393,-38.19782944329835,-5.250129975900072,0.0366,-0.9431,-0.3272,-0.0458
2218125.0,406.478947,1.0,0.7,-0.1,-9.67,0.88,-6.06,52.69,-2.44,5.0,-13.13,-0.13380064408557013,0.4761285663040822,0.12345326668968859,-140.78037862226373,-38.54969038931156,-5.387788121139308,0.0377,-0.942,-0.3301,-0.047
2218160.0,406.487423,1.0,1.49,-0.14,-10.1,0.19,-6.5,51.88,7.25,8.31,-14.06,0.3875493602918574,0.03806803369913525,-0.39619550104271894,-140.305127821115,-38.97485427752673,-5.663127955663873,0.0391,-0.9406,-0.3336,-0.0494
2218194.0,406.516922,1.0,1.44,-0.15,-10.15,0.88,-6.5,52.69,3.25,-1.37,-14.31,0.34996885476351025,0.08504854652146285,-0.4397585681486529,-139.73527758064986,-39.534492464525485,-5.628708719478254,0.0405,-0.9389,-0.3382,-0.0491
2218229.0,406.546359,1.0,0.77,0.04,-9.69,0.56,-5.75,53.19,1.69,-6.06,-19.0,0.019610066825040573,0.5725090018817935,0.10291623984131704,-139.23881312164076,-40.10731312190341,-5.3992599817249625,0.0397,-0.9374,-0.3429,-0.0471
2218264.0,406.59509,1.0,1.43,0.1,-10.23,0.56,-5.75,53.19,3.56,-1.25,-21.5,0.5400965993286552,0.2468332242520046,-0.5062142492180133,-138.4239905330992,-40.91347187505044,-5.318958088351593,0.0402,-0.9349,-0.3495,-0.0464
2218299.0,406.636777,1.0,0.84,-0.38,-9.75,0.56,-5.38,51.88,3.25,-0.81,-26.62,-0.17246578320503897,0.22448912010638883,0.017249600150305966,-137.71937015042116,-41.648182661236724,-5.215716631990905,0.041,-0.9327,-0.3555,-0.0455
2218336.0,406.662138,1.0,0.9,-0.46,-9.45,1.25,-5.75,52.25,7.31,4.0,-25.31,-0.1681394763658116,0.13253778850278752,0.3051625979609778,-136.68295663578678,-42.64289936464318,-5.284543793645802,0.0431,-0.9294,-0.3636,-0.0461
2218371.0,406.699537,1.0,1.7,-1.22,-9.59,1.25,-5.75,52.25,9.38,4.69,-19.19,-0.11238570372388879,-0.8835258394669558,0.03151565081621399,-136.06616582647524,-43.209298755684706,-5.364844561963228,0.0463,-0.9274,-0.3682,-0.0468
2218403.0,406.729791,1.0,0.96,-1.26,-9.24,2.06,-5.38,52.25,1.37,7.31,-20.25,-0.6963528587089813,-0.40423518553751203,0.4664954717846719,-135.1561066706563,-44.073349189434694,-5.594289991509483,0.0479,-0.9244,-0.3752,-0.0488
2218440.0,406.78496,1.0,1.9,-1.15,-9.48,1.25,-5.75,52.69,2.19,21.81,-15.94,-0.055974664342031244,-0.8786008288888097,0.10985530172842495,-134.58869098980696,-44.54350821350816,-6.190955481383823,0.0495,-0.9225,-0.379,-0.054
2218475.0,406.798479,1.0,1.86,-1.63,-9.23,1.25,-5.75,52.69,2.0,25.75,-10.5,-0.5208499207037188,-1.102950828786228,0.3292234068058999,-133.99857662596108,-44.952445815509726,-7.028869316139516,0.0533,-0.9205,-0.3823,-0.0613
2218510.0,406.850355,1.0,2.22,-1.41,-9.56,0.56,-4.56,53.19,-11.0,26.5,-3.38,-0.2702477513237168,-1.0865980803442727,-0.04506917812808098,-133.73534909546765,-45.05167296504691,-7.878645873813734,0.0538,-0.9196,-0.3831,-0.0687
2218545.0,406.872965,1.0,1.62,-0.98,-9.04,-0.19,-5.38,53.56,-17.25,34.0,-4.75,-0.5567987171133101,-0.37448364443779636,0.5949109031372597,-133.41553604515124,-45.07648531811652,-9.303593121383253,0.0528,-0.9185,-0.3833,-0.0811
2218582.0,406.908588,1.0,1.9,-0.17,-9.25,-1.25,-5.5,52.69,-28.0,66.31,-12.06,-0.10880200628220693,0.1660499788549767,0.3640873431810796,-132.81066902216784,-45.200580565791434,-11.294085603048902,0.0533,-0.9164,-0.3843,-0.0984
2218614.0,406.970426,1.0,1.85,-0.51,-8.63,-1.25,-5.5,52.69,-11.56,72.56,-9.06,-0.6803606004356885,0.08138746991176118,0.99245772089035,-131.73432389141507,-45.37440798509372,-14.118999098561428,0.0568,-0.9126,-0.3857,-0.1229
2218651.0,406.974593,1.0,2.47,0.23,-8.45,-3.88,-7.0,51.88,-31.37,91.0,-14.63,-0.054706199932834876,0.31782128231342294,1.0059513422684692,-130.735045365197,-45.43651590599992,-16.709303811577854,0.0587,-0.909,-0.3862,-0.1453
2218688.0,407.013988,1.0,4.43,1.6,-9.89,-8.06,-8.19,52.69,-24.12,127.12,-18.31,1.106310230983568,0.6440470498577388,-1.0726092151483702,-128.63250588646886,-45.49863792387894,-21.43888030792546,0.0616,-0.9012,-0.3867,-0.186
2218721.0,407.051047,1.0,5.38,0.82,-10.27,-8.06,-8.19,52.69,-17.87,105.25,-17.87,0.4280676305781199,-0.03041787196267498,-1.8082341086218534,-126.53082829262021,-45.7223943424676,-24.960139762282665,0.0684,-0.8931,-0.3885,-0.2161
2218756.0,407.118312,1.0,4.34,1.42,-9.41,-13.25,-9.25,50.19,-24.62,50.69,-18.44,0.1026625787944555,0.9625485578331894,-0.6079100324127253,-125.29584795913513,-45.6850888383235,-27.360118288262516,0.0665,-0.8882,-0.3882,-0.2365
2218792.0,407.124329,1.0,4.49,1.92,-8.84,-16.69,-11.06,49.25,-24.81,44.75,-30.25,0.5015980856914803,1.073233041201145,-0.22274032043846503,-124.2819393463901,-45.95878171202678,-28.813027467482133,0.0636,-0.8841,-0.3904,-0.2488
2218829.0,407.158534,1.0,5.08,1.79,-8.83,-17.75,-11.5,49.0,6.13,36.19,-19.56,0.4920637720318206,0.7027744421517068,-0.500793006280082,-122.70838865597605,-46.681672051659035,-30.37753644795623,0.0655,-0.8776,-0.3962,-0.262
2218862.0,407.197786,1.0,5.25,1.52,-8.67,-17.75,-11.5,49.0,2.06,31.25,-31.69,0.26541950416179727,0.45052091861259824,-0.4289927931372688,-121.1034762928651,-47.65695432872225,-31.530903656573713,0.0686,-0.8708,-0.404,-0.2717
2218899.0,407.218541,1.0,5.17,1.57,-8.49,-20.06,-11.5,48.5,-1.81,21.37,-32.63,0.20907485477749077,0.48457814317669123,-0.24299535335726397,-119.94836140851372,-48.51019892418311,-32.18632560419117,0.0685,-0.8658,-0.4108,-0.2772
2218934.0,407.286953,1.0,5.54,1.56,-8.45,-20.06,-12.56,46.88,0.69,20.56,-33.63,0.261865444317781,0.1977182741472358,-0.4119621353704641,-118.79053985855313,-49.41676675386262,-32.84283089936096,0.0671,-0.8607,-0.418,-0.2827
2218969.0,407.303944,1.0,5.7,1.62,-8.45,-20.06,-12.56,46.88,9.38,8.25,-31.19,0.2970132390349911,0.13432247375633388,-0.50890333508009,-117.51946956763666,-50.567318276092784,-33.24922417976444,0.0688,-0.855,-0.4271,-0.2861
2219003.0,407.34585,1.0,5.57,1.76,-8.58,-20.75,-13.0,46.88,15.31,3.13,-35.06,0.25508274314225465,0.312779672336785,-0.5652351551067571,-116.24952660685355,-52.003678662894124,-33.24922417976444,0.0699,-0.8492,-0.4384,-0.2861
2219040.0,407.364077,1.0,6.33,0.69,-8.3,-20.37,-14.06,47.25,29.06,-2.88,-21.5,-0.09370785187240704,-0.9668923466054125,-0.6092675317671059,-115.5155016589776,-52.96186978619434,-32.962313998592656,0.0737,-0.8458,-0.4459,-0.2837
2219075.0,407.410621,1.0,5.93,1.07,-8.43,-20.37,-14.06,47.25,9.81,-22.12,-23.62,0.044168142086206785,-0.4716040449632636,-0.5446947822009545,-115.12990385023734,-53.744148912591335,-32.38912849332685,0.0745,-0.844,-0.452,-0.2789
2219108.0,407.449589,1.0,4.9,1.5,-8.41,-19.69,-13.38,48.19,3.88,-41.69,-27.19,0.05157115914362276,0.24974349229055726,-0.03830142718353713,-114.85268180222258,-55.03247866420509,-31.102474019884113,0.0676,-0.8427,-0.462,-0.2681
2219145.0,407.476392,1.0,5.9,0.42,-8.55,-18.56,-13.75,49.75,24.5,-23.25,-6.88,-0.2867379252084281,-1.1750114765847057,-0.5193380588804395,-114.810125415467,-55.8609742090792,-29.83168618976498,0.0681,-0.8425,-0.4684,-0.2574
2219182.0,407.513039,1.0,5.18,0.49,-8.58,-17.06,-13.38,49.75,6.25,-31.87,-7.38,-0.4248533362752678,-0.6964680330294395,-0.19451652804180952,-115.0231553616165,-56.211447262477904,-28.860354735501215,0.0667,-0.8435,-0.4711,-0.2492
2219214.0,407.547464,1.0,4.28,1.16,-8.39,-17.06,-13.38,49.75,-0.56,-30.75,-9.44,-0.09858903756364912,0.10424501960841437,0.31794549529762683,-115.25820896831395,-56.65360014298316,-27.82029976108695,0.0611,-0.8446,-0.4745,-0.2404
2219251.0,407.614911,1.0,5.09,0.67,-8.93,-15.56,-13.06,49.75,14.13,-8.06,0.56,-0.2692676227696036,-0.6373246463340666,-0.47066542001621947,-115.27961518989136,-56.861990212559846,-27.360118288262516,0.062,-0.8447,-0.4761,-0.2365
2219288.0,407.62784,1.0,4.85,0.86,-8.76,-14.75,-13.38,49.69,3.19,-18.06,2.0,-0.06562441281110454,-0.47714115080879205,-0.23166309327658396,-115.6229775841169,-56.87502139751708,-26.711906133385632,0.061,-0.8463,-0.4762,-0.231
2219323.0,407.660752,1.0,3.83,1.15,-8.53,-14.75,-13.38,49.69,-0.12,-26.25,-0.12,-0.1325932722638603,0.292695954833054,0.39128765422834455,-115.92476601153636,-56.92715416608731,-26.06456338881546,0.0577,-0.8477,-0.4766,-0.2255
2219356.0,407.682994,1.0,4.29,1.31,-8.94,-14.38,-12.69,50.19,0.0,-17.25,0.31,0.1458448525759919,0.036193983594009604,-0.1944109074502034,-116.24952660685355,-56.97929979586889,-25.382826336621633,0.0546,-0.8492,-0.477,-0.2197
2219393.0,407.722882,1.0,3.69,0.99,-8.38,-12.56,-12.25,50.56,3.88,-27.12,4.06,-0.1205999372248805,0.08158714993207739,0.5979910752646855,-116.59757736800644,-57.005377440065516,-24.64335146895964,0.0529,-0.8508,-0.4772,-0.2134
2219427.0,407.783341,1.0,3.36,1.14,-8.61,-12.56,-12.69,50.69,-1.63,-4.69,-3.88,-0.18772562106749735,0.4329740297168909,0.5061880447643592,-116.72853831267862,-57.07058565644392,-24.315032171134934,0.051,-0.8514,-0.4777,-0.2106
2219462.0,407.796391,1.0,4.12,0.96,-9.06,-12.56,-12.69,50.69,2.63,3.13,-0.81,-0.13820468365185667,-0.11146448242508061,-0.19075341961723957,-116.59757736800644,-57.148862161344155,-24.40881688456287,0.0521,-0.8508,-0.4783,-0.2114
2219497.0,407.833964,1.0,3.97,1.03,-8.84,-12.19,-12.69,49.69,-0.69,-17.37,0.12,-0.044360659166927,-0.07819728311699564,0.061942856281859804,-116.8597426528086,-57.07058565644392,-24.068925773800885,0.0501,-0.852,-0.4777,-0.2085
2219534.0,407.876244,1.0,3.74,0.99,-8.82,-11.06,-12.69,50.88,-0.5,-0.63,-1.81,-0.16071880315841547,0.04537037545376127,0.1768934612632851,-116.90353178561006,-57.10972027162278,-23.893204521999117,0.0491,-0.8522,-0.478,-0.207
2219567.0,407.900211,1.0,4.65,1.11,-9.37,-11.06,-12.69,50.88,-0.37,3.19,0.69,0.18180886927387352,-0.4467510078079434,-0.7013878316827533,-116.90353178561006,-57.0836297204198,-23.95177191669858,0.0494,-0.8522,-0.4778,-0.2075
2219603.0,407.925991,1.0,3.54,0.97,-8.94,-11.75,-12.25,50.19,-1.25,-11.13,0.44,-0.2767373373010067,0.18812257148720984,0.14827920859627675,-117.10092120050629,-57.031458307191315,-23.635582985023575,0.0479,-0.8531,-0.4774,-0.2048
2219640.0,407.959284,1.0,3.92,1.09,-8.91,-11.38,-12.25,50.88,-0.12,4.63,0.69,0.004454741993879852,-0.05923639847446022,0.011800781948219097,-117.12288767556585,-57.005377440065516,-23.647290415990856,0.0477,-0.8532,-0.4772,-0.2049
2219675.0,408.01038,1.0,3.83,1.16,-9.01,-11.38,-12.25,50.88,-4.38,-13.44,1.81,0.0036184814189610393,0.05294603767241973,-0.05193933233791803,-117.25483147566798,-56.96626218157377,-23.518522416981746,0.0468,-0.8538,-0.4769,-0.2038
2219708.0,408.053007,1.0,3.53,1.4,-9.0,-11.06,-13.06,50.06,1.5,6.38,-1.25,0.06305057269386394,0.3972979573401887,0.04657423398382221,-117.38702490663178,-56.84895982984303,-23.483409106034056,0.0455,-0.8544,-0.476,-0.2035
2219743.0,408.105232,1.0,4.16,1.08,-9.06,-11.06,-13.06,51.06,3.5,13.38,0.56,0.054047199933078716,-0.2014620838057789,-0.21892190034404102,-117.27684633570153,-56.809873491969896,-23.729249451725817,0.0477,-0.8539,-0.4757,-0.2056
2219780.0,408.110216,1.0,4.05,1.18,-9.05,-11.38,-12.25,51.38,-0.94,-0.19,-0.56,0.07930507963104749,-0.03859297022645619,-0.1778190037574756,-117.23282354978821,-56.783819938789286,-23.8463551666527,0.0485,-0.8537,-0.4755,-0.2066
2219814.0,408.159403,1.0,3.57,1.12,-8.84,-11.38,-12.25,51.38,-2.31,-2.56,-1.0,-0.13035740569159704,0.23353331428656965,0.21116308489768798,-117.25483147566798,-56.809873491969896,-23.811220804555614,0.0477,-0.8538,-0.4757,-0.2063
2219851.0,408.193024,1.0,4.13,1.26,-9.14,-11.38,-12.25,50.56,0.5,8.38,-0.94,0.13053620270612143,-0.026679337604059994,-0.3010870619109465,-117.14486104081259,-56.83593024905006,-23.98691540045918,0.0483,-0.8533,-0.4759,-0.2078
2219888.0,408.220016,1.0,4.37,0.85,-9.07,-11.06,-12.69,51.38,2.63,-0.63,2.63,-0.06757915257599478,-0.43856590419730773,-0.2872785219290481,-117.14486104081259,-56.796846315050196,-23.98691540045918,0.0494,-0.8533,-0.4756,-0.2078
2219921.0,408.245999,1.0,3.9,1.08,-9.05,-11.06,-12.69,51.38,-0.5,-8.0,0.25,-0.07521168505448528,0.013323562103457975,-0.10662724242211219,-117.25483147566798,-56.796846315050196,-23.822932006064157,0.0479,-0.8538,-0.4756,-0.2064
2219956.0,408.284935,1.0,3.84,1.21,-9.18,-11.38,-11.56,50.06,-3.63,1.69,-1.19,-0.04250052638012414,0.15419213610494076,-0.21614993267454174,-117.21082255070307,-56.84895982984303,-23.822932006064157,0.0472,-0.8536,-0.476,-0.2064
2219993.0,408.330297,1.0,3.99,1.11,-8.92,-10.25,-12.25,50.56,2.44,4.25,1.06,0.023393117051880852,-0.07370138622622335,-0.027607514817422185,-117.16684130354302,-56.84895982984303,-23.869779338261072,0.048,-0.8534,-0.476,-0.2068
