TIME,ELAPSED_SECONDS,PSTATE,acc_x,acc_y,acc_z,mag_x,mag_y,mag_z,gyr_x,gyr_y,gyr_z,lin_x,lin_y,lin_z,eul_x,eul_y,eul_z,qua_w,qua_x,qua_y,qua_z
1360662.0,447.386041,1.0,2.43,1.27,-9.49,-1.06,-14.19,49.19,-5.81,8.75,-4.25,0.22097913675284264,0.22328303412467237,-0.06650617762588062,-129.97078188553854,-47.26890777482772,-15.436288478593854,0.0059,-0.9062,-0.4009,-0.1343
1360697.0,447.42374,1.0,2.56,0.88,-9.55,-1.06,-14.19,49.19,3.94,0.5,-0.94,-0.004751466031260865,-0.11286908814228092,-0.11896020756469383,-129.86249210271768,-47.343968530185975,-15.528804883509121,0.0065,-0.9058,-0.4015,-0.1351
1360734.0,447.480607,1.0,2.43,0.95,-9.62,-1.5,-14.19,47.88,-4.0,0.69,0.69,-0.05153791094642801,0.032333185438806394,-0.16070162462199278,-129.8895440244663,-47.33145690842095,-15.505674829864251,0.0063,-0.9059,-0.4014,-0.1349
1360766.0,447.495512,1.0,2.37,1.07,-9.41,-1.75,-14.19,47.5,-3.06,-1.25,-0.69,0.031188426011016457,0.11424338663914207,0.044689350074587963,-129.8895440244663,-47.31894588531801,-15.551935573755918,0.0051,-0.9059,-0.4013,-0.1353
1360801.0,447.530533,1.0,2.39,1.09,-9.47,-1.75,-14.19,47.5,-0.88,-0.44,-1.19,0.04053511923353259,0.11677342889636615,-0.02014097520714131,-129.86249210271768,-47.35648075084824,-15.563501157916,0.0049,-0.9058,-0.4016,-0.1354
1360836.0,447.557994,1.0,2.31,0.92,-9.45,-2.56,-14.19,49.19,1.25,0.19,0.5,-0.12389643063002742,0.060858542563244605,0.03598237121054382,-129.86249210271768,-47.36899357064292,-15.540370148995088,0.0052,-0.9058,-0.4017,-0.1352
1360873.0,447.594947,1.0,2.46,1.1,-9.48,-2.56,-14.56,48.38,-1.25,4.19,-0.31,0.0770159705999165,0.08341694274756145,-0.04825284852850764,-129.8895440244663,-47.29392563415834,-15.656031584502133,0.005,-0.9059,-0.4011,-0.1362
1360906.0,447.623615,1.0,2.61,1.0,-9.55,-2.56,-14.56,48.38,0.63,-1.31,-0.25,0.07848787154206982,-0.08100186948550178,-0.14331876131581645,-129.86249210271768,-47.30643546064212,-15.690733139619654,0.0051,-0.9058,-0.4012,-0.1365
1360941.0,447.664522,1.0,2.39,1.02,-9.53,-1.75,-14.56,47.88,-0.56,-4.25,0.94,-0.025591657720908767,0.07026275668897929,-0.07099183457152769,-129.94368889359723,-47.26890777482772,-15.551935573755918,0.0045,-0.9061,-0.4009,-0.1353
1360975.0,447.699242,1.0,2.27,0.95,-9.37,-3.0,-13.5,47.88,0.69,-1.06,0.63,-0.10160012376279681,0.08768114759393547,0.11983992489230211,-129.97078188553854,-47.25639974151138,-15.470980940849387,0.0046,-0.9062,-0.4008,-0.1346
1361010.0,447.733008,1.0,2.36,1.09,-9.4,-3.0,-13.5,47.88,-2.06,2.69,-0.81,0.03767422742402804,0.12031214672798693,0.05463453446992972,-129.94368889359723,-47.25639974151138,-15.540370148995088,0.0043,-0.9061,-0.4008,-0.1352
1361043.0,447.778644,1.0,2.52,1.12,-9.72,-0.69,-14.19,48.75,1.12,-4.31,0.19,0.08708191967416545,0.06120676813978962,-0.29641243031288766,-129.80842917390055,-47.40653562717492,-15.528804883509121,0.0045,-0.9056,-0.402,-0.1351
1361078.0,447.821564,1.0,2.65,1.67,-9.8,-2.19,-14.19,47.06,5.56,-19.94,3.69,0.6642579146189365,0.29267310764251353,-0.45612271866277254,-130.16081866157813,-47.29392563415834,-14.823619947246293,0.004,-0.9069,-0.4011,-0.129
1361115.0,447.858428,1.0,2.59,1.46,-10.45,-1.5,-14.56,48.0,41.63,-67.44,18.19,0.6596285617916016,0.17357536720525985,-1.0366410941451836,-131.01070305716067,-47.01886031964005,-12.988096123558291,0.0059,-0.91,-0.3989,-0.1131
1361149.0,447.870638,1.0,1.5,0.26,-9.43,-1.5,-14.56,48.0,63.94,-84.37,19.25,-0.06694871814100067,-0.0702130658079779,0.2550486685724209,-132.46829135766268,-46.53194812307301,-9.119652615329128,0.0139,-0.9152,-0.395,-0.0795
1361184.0,447.917585,1.0,1.51,-0.81,-10.15,0.0,-12.69,48.38,45.0,-95.94,34.25,-0.41668579831376495,-0.8707315369199603,-0.4416132448672272,-133.5025517023973,-45.98367660557063,-6.259812004164342,0.0182,-0.9188,-0.3906,-0.0546
1361221.0,447.946024,1.0,0.3,-0.36,-9.08,4.19,-10.06,50.38,20.06,-67.31,23.25,-0.3575461146624168,-0.04283427779395324,0.7216994772654015,-134.73735728971755,-45.13852596002858,-2.8536247508829486,0.0149,-0.923,-0.3838,-0.0249
1361256.0,447.982609,1.0,0.25,-0.77,-9.74,4.19,-10.06,50.38,16.12,-42.75,17.19,-0.4684657906874767,-0.38531436345445197,0.051903840090391284,-135.33670998155702,-44.60542990052726,-1.3292918974264516,0.014,-0.925,-0.3795,-0.0116
1361291.0,448.012678,1.0,0.41,-1.12,-10.05,7.88,-9.25,49.19,11.81,-23.75,16.62,-0.4232044850089912,-0.8104786858863051,-0.272487972247049,-135.7912803367973,-44.15989850900582,-0.26356081813331494,0.014,-0.9265,-0.3759,-0.0023
1361326.0,448.052677,1.0,0.01,-0.52,-9.72,7.75,-8.19,49.69,-4.44,-24.94,24.5,-0.2330355291586944,-0.2088819391934223,0.07777736347995123,-136.43524351543036,-43.55460618777381,0.26356081813331494,0.0106,-0.9286,-0.371,0.0023
1361362.0,448.105329,1.0,0.32,-0.73,-10.08,9.25,-8.56,47.88,-17.37,-9.13,24.62,-0.1237822292051837,-0.6723944407711049,-0.28167313497903024,-137.33971584289498,-42.667502601243356,0.5500415954991054,0.0062,-0.9315,-0.3638,0.0048
1361397.0,448.123632,1.0,-0.35,0.21,-9.79,9.25,-8.56,47.88,-14.31,-17.94,22.19,0.003721635049331512,0.34508198866907985,0.01422412228569847,-137.97429037596618,-42.016208864191285,0.7677691897415189,0.0001,-0.9335,-0.3585,0.0067
1361434.0,448.190583,1.0,-0.21,-0.82,-9.47,10.38,-9.69,48.88,-9.19,0.88,26.69,-0.558481862599173,-0.584515117858381,0.33332745264932306,-138.87838831455554,-41.096983557102725,1.0084187350403075,-0.0026,-0.9363,-0.351,0.0088
1361469.0,448.196562,1.0,-0.37,-0.37,-9.29,9.69,-10.75,47.88,-42.13,19.06,26.0,-0.5268795985275471,-0.22519892437276523,0.5195846221146461,-139.70199765652578,-40.26593689865936,0.3552344019497601,-0.0093,-0.9388,-0.3442,0.0031
1361504.0,448.248554,1.0,-0.37,0.64,-9.28,9.69,-10.75,47.88,-65.69,74.31,0.88,-0.36935389884133185,0.4733668067829981,0.5166337694626861,-139.96897956123578,-39.851243758997164,-2.337829975144579,-0.022,-0.9396,-0.3408,-0.0204
1361539.0,448.262594,1.0,0.09,1.14,-8.72,9.75,-12.0,47.06,-66.0,125.56,-13.31,-0.43011059386174244,0.7088575638903591,1.0511588183949794,-138.84577222800962,-40.290347694231635,-7.3733240323499585,-0.0298,-0.9362,-0.3444,-0.0643
1361575.0,448.300049,1.0,2.22,1.97,-11.55,5.69,-14.56,47.56,-66.0,74.12,-9.81,0.5959242238165653,-0.035852060775070416,-2.1036559972952347,-137.97429037596618,-40.26593689865936,-10.672437176186932,-0.0385,-0.9335,-0.3442,-0.093
1361610.0,448.351655,1.0,0.91,2.56,-9.1,5.69,-14.56,47.56,-34.13,56.88,-20.62,0.05347797782879077,1.295180133963436,0.39860299084481454,-136.49704595560382,-40.86455395752174,-13.288003224878931,-0.0453,-0.9288,-0.3491,-0.1157
1361645.0,448.364106,1.0,1.79,2.52,-9.37,1.88,-16.75,47.19,-14.94,76.69,-27.56,0.2457512635582193,0.7933483479100841,-0.025013374797159926,-134.88648767208014,-41.70948903373751,-15.598198868035936,-0.0453,-0.9235,-0.356,-0.1357
1361680.0,448.411581,1.0,2.29,1.83,-9.32,-0.69,-18.0,47.06,-10.75,75.87,-26.12,-0.23539583764910432,0.18259968449932018,0.0410652169550918,-132.86795984370113,-42.72901972322527,-18.378967167629526,-0.0399,-0.9166,-0.3643,-0.1597
1361717.0,448.434067,1.0,2.7,1.96,-9.41,-2.19,-19.75,46.69,-2.44,14.38,-8.81,-0.033959896156809055,0.058105269183296504,-0.17709531441713722,-132.12822120462246,-43.13535801110393,-19.23849904872923,-0.0391,-0.914,-0.3676,-0.1671
1361750.0,448.493883,1.0,2.71,1.88,-9.42,-2.19,-19.75,46.69,0.06,-8.5,0.25,-0.0647897244598723,-0.03173390455442132,-0.17381568306840478,-132.15647345628565,-43.184649743140426,-19.08742247639564,-0.0399,-0.9141,-0.368,-0.1658
1361786.0,448.509412,1.0,2.69,1.71,-9.52,-4.5,-19.75,45.5,1.88,-22.37,5.88,-0.15073093836822338,-0.18126209114794856,-0.23003392640374543,-132.55366749345725,-42.950588537317486,-18.599556301853195,-0.041,-0.9155,-0.3661,-0.1616
1361823.0,448.541659,1.0,2.45,1.94,-9.4,-3.0,-19.5,45.06,5.06,-29.0,11.44,0.04238315099654022,0.05464342702189745,-0.09897051384944255,-133.41553604515124,-42.50761837071937,-17.485694626999514,-0.0429,-0.9185,-0.3625,-0.152
1361856.0,448.578108,1.0,2.09,2.01,-9.47,-3.0,-19.5,45.06,5.88,-40.31,12.56,-0.018544415681226667,0.26634329091871206,-0.09374480808869734,-134.20429804752104,-42.11442571308733,-16.38507281218067,-0.0445,-0.9212,-0.3593,-0.1425
1361891.0,448.61462,1.0,2.01,1.68,-9.53,-1.88,-18.25,47.19,15.06,-43.5,15.88,-0.04041020563136255,-0.020828135952540294,-0.07673672743475812,-135.12607315636853,-41.78307317970489,-14.719624694799501,-0.0448,-0.9243,-0.3566,-0.1281
1361926.0,448.65466,1.0,1.78,1.83,-9.78,-1.75,-18.0,45.38,10.94,-56.19,19.37,0.057713875208621146,0.14429646017433617,-0.2998601612866114,-136.15815825603804,-41.23162880897231,-13.241857771581179,-0.0461,-0.9277,-0.3521,-0.1153
1361965.0,448.686022,1.0,1.15,1.79,-9.41,-0.25,-17.56,46.69,22.44,-48.06,14.0,0.0032779386050963977,0.418635771422149,0.16821478747694485,-137.46590815068691,-40.57120935574602,-11.052294827398207,-0.0461,-0.9319,-0.3467,-0.0963
1361997.0,448.74106,1.0,1.85,1.4,-10.57,-0.25,-17.56,46.69,27.81,-54.63,15.38,0.3255537184384967,-0.406062400691651,-1.0024446939674583,-138.29503211078548,-40.16831276292925,-9.476059158737442,-0.044,-0.9345,-0.3434,-0.0826
1362034.0,448.759232,1.0,0.65,0.35,-9.59,2.69,-18.25,47.06,42.13,-71.12,19.37,-0.5044333853571935,-0.48840896194497635,0.2139390356464439,-139.86866179765227,-39.32755601712488,-6.2024314124588535,-0.0385,-0.9393,-0.3365,-0.0541
1362071.0,448.799199,1.0,0.64,0.72,-9.74,5.69,-16.06,46.69,15.38,-64.56,20.19,0.014940159121438534,-0.3066396035949145,0.0239433732451797,-140.50813431460048,-38.98700999206525,-4.263789782102698,-0.0383,-0.9412,-0.3337,-0.0372
1362106.0,448.826028,1.0,-0.07,0.78,-9.74,5.69,-16.06,46.69,23.5,-61.94,15.94,-0.09569591113406657,0.016942978035365895,0.03570044388788496,-141.50381639674873,-38.17357699786608,-1.6730962049034406,-0.0397,-0.9441,-0.327,-0.0146
1362139.0,448.867779,1.0,-0.45,0.05,-9.7,6.75,-14.56,46.38,22.69,-50.69,16.56,-0.4796702899796687,-0.4088345249555596,0.11656379067682643,-142.240577342184,-37.49522418973963,0.5156637559929028,-0.0378,-0.9462,-0.3214,0.0045
1362176.0,448.902583,1.0,-0.55,0.15,-9.68,9.38,-14.19,46.75,2.75,-39.31,18.31,-0.3174038711815126,-0.3709440654967524,0.12217503834969179,-142.6678687639012,-36.99943733948034,1.7189378496716434,-0.0397,-0.9474,-0.3173,0.015
1362212.0,448.924523,1.0,-0.8,0.4,-9.31,9.38,-14.19,46.75,-4.19,-24.94,19.5,-0.2450525070743378,-0.11181442497426881,0.4576635948786265,-143.1724151146164,-36.35960237870008,2.681687249969397,-0.0435,-0.9488,-0.312,0.0234
1362245.0,448.986956,1.0,-0.76,0.45,-9.66,10.88,-12.69,48.0,-16.31,4.06,15.56,-0.20355584208480393,-0.18525217806287145,0.11026166981870134,-143.61025532246643,-35.853396366027425,2.647300486778665,-0.0465,-0.95,-0.3078,0.0231
1362282.0,449.002628,1.0,-1.01,0.66,-9.4,11.88,-14.56,46.0,-18.37,8.88,13.69,-0.4128703483175022,0.09246044980610185,0.33898454643110654,-144.05324557319378,-35.335886110848904,2.0627594617091103,-0.0515,-0.9512,-0.3035,0.018
1362317.0,449.04954,1.0,-0.69,0.03,-8.9,11.56,-15.25,46.75,-52.25,36.69,27.75,-0.7176450970302571,-0.5891321788440664,0.9283106963599952,-144.65224571956077,-34.71105152226627,0.9052827329224427,-0.0568,-0.9528,-0.2983,0.0079
1362352.0,449.0745,1.0,-0.24,2.04,-10.15,11.56,-15.25,46.75,-77.75,81.0,10.38,0.06518807110235933,0.5083225499428169,-0.5364181473441736,-144.50157885257724,-34.3150747433964,-2.578527672575933,-0.0737,-0.9524,-0.295,-0.0225
1362388.0,449.111528,1.0,0.29,0.94,-9.27,8.88,-16.06,46.0,-18.31,52.25,8.63,-0.36974340575949044,-0.5492701851364824,0.5081451697803843,-144.27673180622273,-34.171188136066895,-4.584885551911774,-0.0776,-0.9518,-0.2938,-0.04
1362425.0,449.155753,1.0,0.43,2.06,-9.61,6.25,-19.5,45.5,-71.69,64.69,14.88,-0.17166120086876083,0.24612420216310063,-0.026485578706616053,-144.35152835071236,-33.356870714029654,-7.28146304696003,-0.085,-0.952,-0.287,-0.0635
1362460.0,449.189563,1.0,0.62,2.78,-9.19,6.25,-19.5,45.5,-25.25,69.5,-4.88,0.045340622375020956,0.7765716263369002,0.21687519883125006,-143.46374555627924,-33.476513522752754,-9.591048446078224,-0.0911,-0.9496,-0.288,-0.0836
1362493.0,449.229671,1.0,1.41,2.35,-9.62,3.69,-21.75,45.06,-16.5,74.25,-2.88,-0.09367426545885549,0.11057944033011813,-0.19504972151569078,-142.5249164652642,-33.58422417640036,-12.492290914481536,-0.0887,-0.947,-0.2889,-0.1088
1362528.0,449.262681,1.0,1.86,2.66,-9.46,0.0,-21.37,44.25,-12.63,53.88,-12.13,0.18744556610130658,0.21769397805552748,-0.19056328629470265,-141.78287468010964,-33.703938528301116,-14.25756979612918,-0.0881,-0.9449,-0.2899,-0.1241
1362565.0,449.296645,1.0,2.27,2.71,-9.3,-1.5,-22.19,44.25,-17.87,51.5,-22.69,0.23949929460683594,0.08997633839071284,-0.13928104472440417,-140.06953899210683,-34.579011997804514,-16.373495591769156,-0.0892,-0.9399,-0.2972,-0.1424
1362599.0,449.330627,1.0,2.07,2.78,-9.29,-1.5,-22.19,44.25,-9.81,34.19,-7.5,-0.10821664934901509,0.31439731879419375,-0.10328660336627316,-138.9763854221543,-35.05938432236355,-17.81039419409229,-0.0895,-0.9366,-0.3012,-0.1548
1362636.0,449.387972,1.0,2.53,2.86,-9.51,-2.25,-23.25,44.69,-0.19,41.88,-16.81,0.02739714705917118,0.1595228536056511,-0.44002760083777304,-137.97429037596618,-35.624636497255686,-18.9944689370341,-0.088,-0.9335,-0.3059,-0.165
1362671.0,449.39263,1.0,2.81,2.0,-9.23,-4.5,-22.87,45.5,-0.12,2.56,1.56,-0.18619565619814282,-0.6220151445918796,-0.025309537015566264,-137.62415242586073,-35.841352697842,-19.436111711406607,-0.0859,-0.9324,-0.3077,-0.1688
1362706.0,449.437087,1.0,2.37,2.67,-9.1,-4.5,-22.87,45.5,-4.81,-0.12,4.44,-0.12452205328622612,0.14601572560111148,0.033269128156183214,-137.7829624670443,-35.58852995304725,-19.447737797457524,-0.0884,-0.9329,-0.3056,-0.1689
1362739.0,449.469579,1.0,2.38,3.03,-9.27,-4.5,-24.37,43.5,-3.88,4.44,-3.5,-0.018395496548210488,0.4085451810695823,-0.22385110616272108,-137.6876081935447,-35.56446095223015,-19.61052428537218,-0.0893,-0.9326,-0.3054,-0.1703
1362776.0,449.502595,1.0,2.76,2.05,-9.17,-4.06,-22.87,44.25,6.5,8.69,-1.44,-0.23962973834416323,-0.5499099127640537,0.03172408333214527,-137.40276743944383,-35.865440443720345,-19.796614956633128,-0.0869,-0.9317,-0.3079,-0.1719
1362812.0,449.53457,1.0,2.49,2.58,-9.07,-4.06,-22.87,44.25,-5.69,-2.0,4.88,-0.12821282331088035,0.036932433117465524,0.05454266530957952,-137.46590815068691,-35.745018073663594,-19.843145845453694,-0.0874,-0.9319,-0.3069,-0.1723
1362845.0,449.569198,1.0,2.33,3.06,-9.11,-5.56,-23.69,44.25,-3.81,-5.44,-5.06,-0.014024993078965542,0.4563220947759053,-0.07141526833005152,-137.46590815068691,-35.69686055762551,-19.784982749875187,-0.0904,-0.9319,-0.3065,-0.1718
1362880.0,449.613552,1.0,2.41,2.37,-9.02,-4.5,-24.06,44.69,5.31,1.94,-2.63,-0.27737913530686287,-0.12035545496556621,0.17887895059523728,-137.37123052660468,-35.865440443720345,-19.73845598070809,-0.0892,-0.9316,-0.3079,-0.1714
1362917.0,449.642677,1.0,2.56,2.58,-9.13,-4.75,-23.25,44.25,0.37,2.44,1.75,-0.10189074690167432,-0.0367663057208637,-0.019598852662927158,-137.37123052660468,-35.841352697842,-19.81987998842397,-0.0887,-0.9316,-0.3077,-0.1721
1362952.0,449.694157,1.0,2.42,2.83,-9.12,-4.75,-23.25,44.25,-3.75,-2.63,-3.25,-0.06785370173764393,0.2249243405757087,-0.04142112668145792,-137.30822333899698,-35.9015751355927,-19.784982749875187,-0.0897,-0.9314,-0.3082,-0.1718
1362987.0,449.711646,1.0,2.47,2.24,-9.09,-4.5,-23.69,43.0,6.06,1.12,-0.5,-0.3290180551182136,-0.2670281869593673,0.1336441038591616,-137.27675296577297,-35.973855599658116,-19.73845598070809,-0.0892,-0.9313,-0.3088,-0.1714
1363023.0,449.746029,1.0,2.6,2.68,-9.15,-3.69,-23.69,43.5,-4.19,0.37,1.75,-0.02322252150619497,0.004412535339481716,-0.07587706771030334,-137.24530467426428,-35.973855599658116,-19.796614956633128,-0.0891,-0.9312,-0.3088,-0.1719
1363058.0,449.790033,1.0,2.43,2.84,-9.07,-3.69,-23.69,43.5,-2.25,1.19,-3.19,-0.0407200486977326,0.22769762499358254,-0.0005869028797462761,-137.1824741414482,-36.02205079852741,-19.81987998842397,-0.0897,-0.931,-0.3092,-0.1721
1363091.0,449.819418,1.0,2.71,2.71,-9.32,-4.06,-23.25,43.88,2.19,1.25,-2.81,0.0002791482296851111,-0.05768579853192113,-0.27041665010825433,-136.99450746728783,-36.23901092380315,-19.8664125287693,-0.0893,-0.9304,-0.311,-0.1725
1363128.0,449.866227,1.0,2.47,2.67,-9.05,-5.19,-23.69,44.25,-2.63,-2.75,1.19,-0.08801809711470909,0.07214746964505875,0.053735176358600256,-137.02578084639396,-36.20284159032565,-19.796614956633128,-0.0892,-0.9305,-0.3107,-0.1719
