TIME,ELAPSED_SECONDS,PSTATE,acc_x,acc_y,acc_z,mag_x,mag_y,mag_z,gyr_x,gyr_y,gyr_z,lin_x,lin_y,lin_z,eul_x,eul_y,eul_z,qua_w,qua_x,qua_y,qua_z
1342121.0,428.808937,1.0,2.0,0.17,-9.6,-1.5,-9.56,48.75,6.81,-1.31,-0.31,-0.014651646767190774,0.16419482574503805,0.00044148761125306635,-132.49673400768697,-45.635356121986106,-11.674144907935558,0.0394,-0.9153,-0.3878,-0.1017
1342158.0,428.847992,1.0,1.98,0.29,-9.45,-1.06,-10.0,49.56,8.44,6.0,-5.44,0.08269671361603781,0.2789073298533099,0.15147667400987608,-132.24132459051677,-45.821900740364754,-11.754779974813852,0.0415,-0.9144,-0.3893,-0.1024
1342193.0,428.905208,1.0,2.02,-0.4,-9.37,-0.69,-9.56,47.88,5.69,-3.75,0.81,-0.3387908498244979,-0.2066208187500042,0.22125336776123206,-132.2130251212284,-45.88411078347371,-11.628070333672753,0.0439,-0.9143,-0.3898,-0.1013
1342226.0,428.919115,1.0,2.11,0.18,-9.72,-0.69,-9.56,47.88,-4.06,2.06,-1.37,0.06875400355679262,0.1736405877766919,-0.13960667441130958,-132.18474141916647,-45.89655450704208,-11.697182904814724,0.0429,-0.9142,-0.3899,-0.1019
1342263.0,428.964623,1.0,2.45,0.14,-9.96,-1.75,-8.75,49.19,0.94,1.75,-1.19,0.2251696366014122,-0.04630568595770401,-0.44863421927938596,-132.12822120462246,-45.92144367093001,-11.754779974813852,0.0432,-0.914,-0.3901,-0.1024
1342298.0,428.992704,1.0,1.98,-0.2,-9.37,-0.69,-9.56,47.5,9.44,-1.88,1.06,-0.2071942961170603,-0.03892932403729993,0.22996711753038745,-132.15647345628565,-45.95878171202678,-11.547444362906596,0.0443,-0.9141,-0.3904,-0.1006
1342332.0,429.033275,1.0,2.06,0.15,-9.61,-0.69,-9.56,47.5,-9.0,-1.12,-0.69,0.052621959114431904,0.1687105195014907,-0.02121689419573336,-132.15647345628565,-45.94633512532467,-11.570479767497385,0.0433,-0.9141,-0.3903,-0.1008
1342365.0,429.050388,1.0,2.26,0.12,-9.86,-0.69,-9.19,49.56,0.12,-1.44,-0.19,0.12668341279248785,0.027234520376452243,-0.3089226280731694,-132.15647345628565,-45.95878171202678,-11.535926836248434,0.0424,-0.9141,-0.3904,-0.1005
1342402.0,429.115081,1.0,2.14,-0.05,-9.65,-1.06,-9.19,48.75,3.25,-4.56,0.44,-0.023384690568110322,-0.04788603949801162,-0.07777006814098719,-132.2130251212284,-45.95878171202678,-11.397725602729446,0.0424,-0.9143,-0.3904,-0.0993
1342435.0,429.139,1.0,1.81,-0.12,-9.38,-1.06,-9.19,48.75,-1.31,-1.5,1.81,-0.234248253362762,0.09794106950883946,0.2562345481623165,-132.269639855159,-45.92144367093001,-11.2825706212041,0.043,-0.9145,-0.3901,-0.0983
1342470.0,429.160624,1.0,2.09,0.02,-9.71,-0.69,-8.75,49.69,-7.06,5.06,1.37,-0.04239655000341602,0.03747057665799686,-0.12559035595357493,-132.2130251212284,-45.94633512532467,-11.524409426521864,0.0415,-0.9143,-0.3903,-0.1004
1342504.0,429.203649,1.0,2.15,0.31,-9.69,-1.06,-10.0,48.0,-3.44,6.44,0.44,0.1556524993431595,0.2004352767581312,-0.12060027383107474,-132.29797094336487,-45.77214298203665,-11.835420883076138,0.0406,-0.9146,-0.3889,-0.1031
1342541.0,429.232675,1.0,2.07,0.25,-9.61,-1.06,-9.19,49.56,0.88,1.75,-2.63,0.05706755123104701,0.2113937907401561,-0.024502321057434884,-132.18474141916647,-45.846783043563605,-11.92758912667584,0.0408,-0.9142,-0.3895,-0.1039
1342574.0,429.264831,1.0,2.29,0.37,-9.99,-1.06,-9.19,49.56,8.38,-1.81,-3.63,0.26799294472903146,0.2104614520688579,-0.44347125580807756,-132.07176372350168,-46.02102324962843,-11.766299745968878,0.0422,-0.9138,-0.3909,-0.1025
1342611.0,429.302684,1.0,2.59,0.1,-10.48,-1.06,-10.0,49.69,37.94,-29.06,2.06,0.39057545642673963,-0.08965545576081574,-0.9816729795964729,-132.09998463629478,-46.170461586302,-10.868106466869213,0.0468,-0.9139,-0.3921,-0.0947
1342646.0,429.330694,1.0,2.37,0.19,-10.72,0.0,-8.75,49.69,35.69,-77.94,9.75,0.6411061512778329,0.05577933007070335,-1.1549772318087275,-132.32631788342704,-46.357376428185454,-8.878266355561609,0.049,-0.9147,-0.3936,-0.0774
1342681.0,429.361737,1.0,1.3,-2.17,-9.35,0.0,-8.75,49.69,67.94,-99.37,31.5,-0.8938612219993674,-1.2095140131899513,0.23797778449888973,-133.58972143720712,-45.709958605695505,-4.263789782102698,0.055,-0.9191,-0.3884,-0.0372
1342713.0,429.413638,1.0,0.37,-1.14,-9.1,1.88,-7.69,50.0,7.25,-79.19,28.37,-0.3363324021058868,-0.14998292856909493,0.6354512977347646,-134.64810211296725,-44.915244802076664,-0.9969591404369118,0.0507,-0.9227,-0.382,-0.0087
1342750.0,429.438005,1.0,0.23,-1.45,-9.67,6.0,-5.0,48.75,5.38,-31.69,17.5,-0.47591738700498754,-0.3351399051493667,0.04317296132557047,-135.00612922505886,-44.60542990052726,0.14896906869365514,0.0482,-0.9239,-0.3795,0.0013
1342785.0,429.477047,1.0,0.3,-1.84,-10.02,6.0,-5.0,48.75,-0.44,-32.38,26.37,-0.5517615353712371,-0.7339845355918564,-0.3438586527521732,-135.63926552609757,-43.99918511445215,0.9969591404369118,0.0461,-0.926,-0.3746,0.0087
1342820.0,429.518046,1.0,-0.19,-0.63,-9.62,8.25,-5.0,48.75,-19.75,-27.44,27.62,0.011160824199047376,0.22595833656419112,0.16682540272955215,-136.68295663578678,-43.02448223143953,1.993993752612486,0.0379,-0.9294,-0.3667,0.0174
1342855.0,429.546159,1.0,-0.52,-1.09,-9.17,9.38,-5.38,48.38,-4.5,-11.31,22.5,-0.5334816369022483,-0.023883876862462905,0.5728952434822538,-137.56078717941855,-42.18810962075827,2.4180613422720283,0.0334,-0.9322,-0.3599,0.0211
1342892.0,429.583655,1.0,0.24,-1.7,-9.34,10.19,-6.5,49.56,-27.25,24.44,26.44,-0.45372454324847583,-0.9942175571192721,0.37325901435916364,-138.29503211078548,-41.48884440066444,1.867925133192117,0.0311,-0.9345,-0.3542,0.0163
1342926.0,429.621553,1.0,0.5,-0.69,-9.71,10.19,-6.5,49.56,-59.44,30.75,31.37,0.05624700428812757,-0.5314975822191786,0.07399637446683904,-139.66874405322235,-40.26593689865936,0.022918311958021676,0.0175,-0.9387,-0.3442,0.0002
1342963.0,429.659726,1.0,-0.24,1.87,-10.1,8.69,-7.25,48.0,-100.75,70.44,21.25,0.622157256541546,1.7893633367427024,-0.2916468463624451,-140.64403039131906,-39.27888451712709,-2.372214704126748,0.0026,-0.9416,-0.3361,-0.0207
1342998.0,429.685223,1.0,0.75,1.61,-10.52,7.19,-10.0,48.38,-47.81,103.81,-23.37,0.39761779432639577,1.0607997368405417,-0.8019127682525404,-139.7685838910077,-39.619740596742815,-6.707435672786218,-0.006,-0.939,-0.3389,-0.0585
1343033.0,429.74484,1.0,1.51,0.41,-9.21,7.19,-10.0,48.38,-44.88,78.94,-13.81,-0.038492647003311675,-0.25038922710361433,0.468121017816717,-138.84577222800962,-39.997543615819765,-9.303593121383253,-0.0062,-0.9362,-0.342,-0.0811
1343068.0,429.753627,1.0,1.48,2.64,-9.92,3.0,-12.56,47.5,-63.94,71.75,-25.75,0.6095603542204426,1.4885233150428199,-0.43928258396406683,-137.30822333899698,-40.52234562197142,-12.757459245108164,-0.0173,-0.9314,-0.3463,-0.1111
1343102.0,429.793634,1.0,2.29,0.93,-9.4,-0.25,-14.5,47.5,8.19,74.81,-17.12,-0.09737572537466921,-0.18425963620886504,0.08936816017607185,-136.12747373883852,-40.999096985270164,-14.881400387429185,-0.0139,-0.9276,-0.3502,-0.1295
1343139.0,429.823679,1.0,2.97,0.61,-9.85,-3.0,-15.19,47.06,-34.44,24.12,-10.19,-0.2092171328395369,-0.6804096648475227,-0.47482707672921975,-135.24632190274463,-41.21938587506413,-16.651395613206024,-0.011,-0.9247,-0.352,-0.1448
1343174.0,429.862654,1.0,2.44,2.21,-9.67,-3.0,-15.19,47.06,-19.31,7.38,-12.44,0.3403805123138839,0.7520645570916207,-0.37495792845626674,-134.64810211296725,-41.53786260419432,-17.31180678552449,-0.0181,-0.9227,-0.3546,-0.1505
1343211.0,429.910012,1.0,2.82,0.92,-9.6,-4.06,-16.69,47.5,5.38,3.88,0.44,-0.20429197623956208,-0.43752016181634457,-0.22956646321203777,-134.58869098980696,-41.57463147554045,-17.346581127291522,-0.0165,-0.9225,-0.3549,-0.1508
1343248.0,429.937754,1.0,2.9,1.3,-9.6,-3.69,-17.06,46.69,-3.5,-10.81,2.5,0.13634268909719371,-0.24558604632418604,-0.30181665746000697,-134.8267795347168,-41.43983413767325,-17.068431181009654,-0.0179,-0.9233,-0.3538,-0.1484
1343283.0,429.972254,1.0,1.93,1.56,-9.4,-3.69,-17.06,46.69,3.63,-57.94,19.81,-0.13233801970202574,0.4465717696890999,0.09575095289534374,-135.8217429117077,-40.92570257127247,-15.713868313956251,-0.0211,-0.9266,-0.3496,-0.1367
1343315.0,430.010628,1.0,1.76,1.24,-9.32,-4.06,-16.69,47.88,12.81,-36.81,13.63,-0.18095353229101696,0.20801028360683843,0.24518632851825117,-136.99450746728783,-40.36359153375482,-14.026630173419028,-0.022,-0.9304,-0.345,-0.1221
1343352.0,430.070494,1.0,2.04,1.02,-10.05,-2.56,-16.69,47.06,16.19,-56.56,23.81,-0.07399498714795782,-0.173871707225104,-0.49717421100552706,-137.87852272532075,-39.87562235967538,-12.757459245108164,-0.0218,-0.9332,-0.341,-0.1111
1343389.0,430.076017,1.0,1.26,1.31,-9.65,-2.56,-16.69,47.06,12.25,-76.19,22.81,0.05113078988189679,0.3220825626286788,-0.007617596982294472,-139.5028685781741,-39.05995387185956,-9.901568214246721,-0.0251,-0.9382,-0.3343,-0.0863
1343422.0,430.110629,1.0,0.89,0.78,-9.62,-0.25,-15.56,48.0,27.81,-66.44,19.94,-0.18808417038120773,0.020446606381652632,0.11597890450101644,-140.71214769326966,-38.36764641216122,-7.5915129998336095,-0.0251,-0.9418,-0.3286,-0.0662
1343459.0,430.15823,1.0,0.98,-0.36,-9.71,2.69,-14.5,47.06,15.75,-35.69,18.06,-0.5221528395205504,-0.9441525682648443,0.10046473801269684,-141.3650146581067,-38.07658496090942,-5.858180044713635,-0.0207,-0.9437,-0.3262,-0.0511
1343494.0,430.195516,1.0,0.64,0.78,-9.89,2.69,-13.25,48.0,-5.88,-30.37,12.31,-0.0019777909576572106,0.037715304824921525,-0.13461116969697962,-141.88802849828062,-37.640469908070976,-5.0321866714644,-0.025,-0.9452,-0.3226,-0.0439
1343528.0,430.253566,1.0,0.57,0.45,-10.09,2.69,-13.25,48.0,7.0,-24.12,10.0,-0.12014449542396746,-0.2437109314553323,-0.30580124992494184,-142.4180463131718,-37.22910236456349,-4.080321683767285,-0.0254,-0.9467,-0.3192,-0.0356
1343563.0,430.274513,1.0,0.31,0.31,-9.87,5.69,-14.06,48.0,9.25,-28.37,12.13,-0.25849822017691654,-0.23436839519187802,-0.06691825699303777,-142.73954322436268,-36.97527104810168,-3.266301709643329,-0.0253,-0.9476,-0.3171,-0.0285
1343600.0,430.297108,1.0,0.21,0.6,-9.76,6.0,-13.25,47.88,0.31,-22.06,13.5,-0.01720004562924221,-0.0029412054335435436,0.025985630554488992,-143.3178010626215,-36.48023552286196,-2.360753104216733,-0.0262,-0.9492,-0.313,-0.0206
1343635.0,430.337178,1.0,0.11,0.53,-9.76,6.0,-13.25,47.88,6.75,-24.56,13.88,-0.0410074724359617,-0.047523211808546684,0.03185281890494451,-143.72051272987528,-36.10640826375515,-1.7189378496716434,-0.027,-0.9503,-0.3099,-0.015
1343670.0,430.361967,1.0,-0.32,0.54,-9.35,7.5,-13.69,47.88,-3.19,-5.13,9.75,-0.2904422899591296,0.1682290873435663,0.44161704488580966,-144.1275913572786,-35.70889932534102,-1.1573944243672372,-0.0289,-0.9514,-0.3066,-0.0101
1343705.0,430.399683,1.0,0.11,0.31,-9.93,7.5,-13.25,47.5,-14.06,5.38,13.69,-0.1421885725727033,-0.3159074974210104,-0.1227550608736312,-144.38898361895096,-35.39602326525133,-1.3751317128217122,-0.0305,-0.9521,-0.304,-0.012
1343741.0,430.425994,1.0,-0.37,0.65,-9.29,6.75,-14.06,46.69,-4.56,-3.06,8.5,-0.36204117674531766,0.17141912818693691,0.4952031914297841,-144.87941908090355,-34.80711013090355,-1.4668120111410634,-0.0363,-0.9534,-0.2991,-0.0128
1343776.0,430.483617,1.0,0.27,-0.94,-9.17,6.75,-14.06,46.69,1.31,19.81,21.06,-0.8140868140993451,-1.4468193844338526,0.7353007989199281,-145.49229376528544,-34.183176562470926,-2.0971425933011094,-0.0353,-0.955,-0.2939,-0.0183
1343813.0,430.504327,1.0,0.67,1.98,-10.22,6.75,-14.5,47.88,-60.19,54.44,7.81,0.7151335990795631,0.5833270604854274,-0.5840195393498551,-145.68599243347148,-33.64407662582566,-3.8853982832056504,-0.0453,-0.9555,-0.2894,-0.0339
1343848.0,430.546992,1.0,0.64,1.39,-9.83,5.69,-16.69,47.06,-27.37,33.44,2.63,0.0674536728151045,0.08247987381209188,-0.14117624860525702,-145.60838601203167,-33.320985174647795,-5.617235753841245,-0.0529,-0.9553,-0.2867,-0.049
1343883.0,430.577983,1.0,1.0,0.26,-9.47,5.69,-16.69,47.06,-17.06,34.81,25.12,-0.3548706177438242,-0.9705550439978412,0.33666638062491394,-145.91984007134727,-32.80699313475501,-6.627085616027941,-0.0525,-0.9561,-0.2824,-0.0578
1343918.0,430.612692,1.0,0.59,3.01,-9.92,4.19,-17.5,45.5,-65.75,51.63,1.37,0.20837104592021538,1.4048039928754408,-0.4791512448629103,-145.37657897397716,-32.46073084280037,-9.073671186517632,-0.0648,-0.9547,-0.2795,-0.0791
1343952.0,430.648566,1.0,1.9,1.56,-9.96,1.5,-18.56,46.25,-4.69,55.44,0.69,0.2139934740640339,-0.46385188504799724,-0.43953212905643646,-144.7656551188059,-32.48460118565665,-10.868106466869213,-0.0662,-0.9531,-0.2797,-0.0947
1343989.0,430.680627,1.0,1.34,2.16,-9.25,1.5,-18.56,46.25,-21.44,21.56,6.81,-0.008083919164335818,0.41531251641488265,0.2227494285228513,-144.61452078820065,-32.10284865965952,-12.169567773976446,-0.0687,-0.9527,-0.2765,-0.106
1344022.0,430.727425,1.0,1.45,2.65,-9.42,-0.19,-20.19,45.0,-30.5,43.69,-15.63,0.0908811176345955,0.7481624207377882,-0.05709135988232639,-143.86802831777294,-32.353332192550205,-13.334150842815472,-0.0715,-0.9507,-0.2786,-0.1161
1344059.0,430.762057,1.0,1.67,2.78,-9.21,-1.0,-19.75,46.38,2.75,54.5,-15.13,0.11529386225134286,0.8521140651390664,0.08029359354854115,-142.5249164652642,-33.045974096012706,-15.205041610922962,-0.0696,-0.947,-0.2844,-0.1323
1344094.0,430.789981,1.0,3.09,2.04,-10.12,-2.88,-20.56,45.38,-7.25,-11.31,1.94,0.551165404498275,-0.5947412753026742,-0.9388885864243957,-142.34696199162144,-33.1057424006888,-15.505674829864251,-0.0698,-0.9465,-0.2849,-0.1349
1344129.0,430.842388,1.0,1.43,2.48,-9.02,-2.88,-20.56,45.38,-13.69,-14.5,-0.56,-0.1839611019263443,0.6507726460225333,0.36745759406998424,-142.5249164652642,-32.950364032221074,-15.043205913037665,-0.0747,-0.947,-0.2836,-0.1309
1344165.0,430.863363,1.0,1.97,2.0,-9.38,-2.06,-21.25,45.88,5.94,1.69,1.06,-0.09043564676980576,-0.050747931929355894,0.01611650885671878,-142.48926046846375,-33.05792701658909,-15.020088998588148,-0.0734,-0.9469,-0.2845,-0.1307
1344202.0,430.901368,1.0,2.11,1.77,-9.44,-2.06,-20.75,45.38,-3.5,-17.0,3.13,-0.06306642312789501,-0.34918813369115287,-0.020490493224015083,-142.63208125401738,-33.022069364247294,-14.684962323742262,-0.074,-0.9473,-0.2842,-0.1278
1344235.0,430.929462,1.0,1.76,2.2,-9.34,-2.06,-20.75,45.38,-3.44,-13.56,1.56,-0.04188095841556472,0.1555719667952989,0.05230515534386804,-142.84730495776557,-32.91451634367141,-14.292215737283831,-0.076,-0.9479,-0.2833,-0.1244
1344270.0,430.970872,1.0,1.84,2.44,-9.56,-2.06,-21.19,45.0,9.06,8.13,-1.37,0.08555676187298578,0.3145966729572826,-0.22462653760287843,-142.77543036661098,-32.99816611056945,-14.338412369029564,-0.0749,-0.9477,-0.284,-0.1248
1344305.0,430.99601,1.0,2.1,1.72,-9.5,-2.5,-21.56,44.56,-2.25,-1.81,-0.25,-0.05989103517097427,-0.3930142838132021,-0.0655510127744563,-142.91931394004666,-32.890619725136126,-14.373061379793722,-0.0736,-0.9481,-0.2831,-0.1251
1344342.0,431.060167,1.0,1.62,2.35,-9.24,-1.69,-20.75,44.56,0.12,-5.56,-1.12,-0.028225091640291078,0.3542473414629524,0.14237495397257582,-142.84730495776557,-32.938414434386345,-14.153639819523335,-0.0762,-0.9479,-0.2835,-0.1232
1344376.0,431.068141,1.0,1.68,2.23,-9.36,-1.69,-20.75,44.56,5.88,-1.88,0.12,-0.04967384060138014,0.22175821174213212,0.04175082975329225,-142.9553690729635,-32.938414434386345,-14.026630173419028,-0.0754,-0.9482,-0.2835,-0.1221
1344411.0,431.114597,1.0,1.96,1.59,-9.43,-1.37,-21.56,45.38,10.69,5.56,1.69,-0.1633726535292701,-0.4131242933039913,0.05486874248807361,-142.9553690729635,-33.022069364247294,-14.061267443693245,-0.0724,-0.9482,-0.2842,-0.1224
1344448.0,431.129162,1.0,1.88,2.11,-9.4,-1.37,-19.69,44.56,-3.31,1.88,-2.56,0.040650487187188444,0.06951410641441991,-0.00864496891972344,-142.77543036661098,-33.177476600322066,-14.142092768246478,-0.0721,-0.9477,-0.2855,-0.1231
1344481.0,431.176505,1.0,1.98,2.1,-9.55,-1.37,-19.69,44.56,-3.69,-1.37,-2.88,0.06821494854725907,-0.00866753260173131,-0.16973068613429199,-142.6678687639012,-33.24922417976444,-14.176734355559054,-0.0723,-0.9474,-0.2861,-0.1234
1344516.0,431.217057,1.0,1.88,1.99,-9.47,-3.19,-21.56,44.56,2.56,-0.31,-5.94,-0.042286664977082666,-0.04484167150172824,-0.05091567629463256,-142.73954322436268,-33.20139097173225,-14.130545861300057,-0.0726,-0.9476,-0.2857,-0.123
1344552.0,431.246029,1.0,1.82,2.02,-9.41,-2.88,-20.56,44.56,-1.37,-2.38,1.06,-0.05236094227078547,0.016165185870708587,0.011860721077749048,-142.84730495776557,-33.08183396795116,-14.08435967436596,-0.0727,-0.9479,-0.2847,-0.1226
1344587.0,431.279364,1.0,1.81,1.9,-9.39,-2.88,-20.56,44.56,0.37,0.63,0.63,-0.11103081490606781,-0.0671095781253061,0.05773372881041006,-142.91931394004666,-33.045974096012706,-14.061267443693245,-0.0722,-0.9481,-0.2844,-0.1224
1344622.0,431.317088,1.0,1.91,1.97,-9.61,-2.5,-20.56,45.88,-0.12,-1.06,-3.0,-0.05477644367229184,-0.08491049808144963,-0.18689240239836735,-142.84730495776557,-33.1057424006888,-14.061267443693245,-0.0724,-0.9479,-0.2849,-0.1224
1344657.0,431.35657,1.0,2.02,1.87,-9.5,-1.69,-20.06,44.56,-0.81,-0.19,1.75,0.010114383549630901,-0.21555046642046416,-0.08176421541751999,-142.84730495776557,-33.14160783025417,-14.08435967436596,-0.0721,-0.9479,-0.2852,-0.1226
1344692.0,431.386013,1.0,1.9,2.23,-9.52,-1.37,-20.87,44.56,-4.0,-4.63,-0.94,0.10137905829596117,0.1145724555971609,-0.15276240430164556,-142.88329260111252,-33.08183396795116,-13.991994191085649,-0.0737,-0.948,-0.2847,-0.1218
