,TIME,ELAPSED_SECONDS,PSTATE,acc_x,acc_y,acc_z,mag_x,mag_y,mag_z,gyr_x,gyr_y,gyr_z,lin_x,lin_y,lin_z,eul_x,eul_y,eul_z,qua_w,qua_x,qua_y,qua_z
0,1452240.0,1422.668604,1.0,2.21,1.3,-9.48,2.25,-21.37,36.5,-0.44,-2.0,-0.06,-0.03974488020397851,0.0715877442929913,-0.013624718120908595,-142.6678687639012,-33.811713840931375,-15.066323443247011,-0.0276,-0.9474,-0.2908,-0.1311
1,1452240.0,1422.668604,1.0,2.21,1.3,-9.48,2.25,-21.37,36.5,-0.44,-2.0,-0.06,-0.03974488020397851,0.0715877442929913,-0.013624718120908595,-142.6678687639012,-33.811713840931375,-15.066323443247011,-0.0276,-0.9474,-0.2908,-0.1311
2,1452275.0,1422.671922,1.0,2.22,1.17,-9.43,3.06,-22.06,35.69,0.56,-0.37,0.06,-0.08071324181309791,-0.041578341294364767,0.04888608534561456,-142.6678687639012,-33.811713840931375,-15.02008899858815,-0.0274,-0.9474,-0.2908,-0.1307
3,1452275.0,1422.671922,1.0,2.22,1.17,-9.43,3.06,-22.06,35.69,0.56,-0.37,0.06,-0.08071324181309791,-0.041578341294364767,0.04888608534561456,-142.6678687639012,-33.811713840931375,-15.02008899858815,-0.0274,-0.9474,-0.2908,-0.1307
4,1452312.0,1422.742817,1.0,2.25,1.03,-9.54,3.06,-21.0,37.0,-0.63,-1.81,-0.19,-0.15364126440122428,-0.17216382180760864,-0.04635735716429501,-142.70368938881398,-33.811713840931375,-14.973857013009212,-0.0273,-0.9475,-0.2908,-0.1303
5,1452312.0,1422.742817,1.0,2.25,1.03,-9.54,3.06,-21.0,37.0,-0.63,-1.81,-0.19,-0.15364126440122428,-0.17216382180760864,-0.04635735716429501,-142.70368938881398,-33.811713840931375,-14.973857013009212,-0.0273,-0.9475,-0.2908,-0.1303
6,1452345.0,1422.8005,1.0,2.19,1.29,-9.52,3.06,-21.0,37.0,-1.12,0.12,1.31,-0.05573734485307204,0.06735901040985626,-0.04641836026754476,-142.73954322436268,-33.775785318620265,-14.962299399917931,-0.0278,-0.9476,-0.2905,-0.1302
7,1452345.0,1422.8005,1.0,2.19,1.29,-9.52,3.06,-21.0,37.0,-1.12,0.12,1.31,-0.05573734485307204,0.06735901040985626,-0.04641836026754476,-142.73954322436268,-33.775785318620265,-14.962299399917931,-0.0278,-0.9476,-0.2905,-0.1302
8,1452382.0,1422.807927,1.0,2.55,1.73,-9.89,2.25,-20.19,36.88,0.0,-1.81,0.69,0.3671780209097195,0.2369016804706814,-0.543062937794506,-142.77543036661098,-33.727885940809074,-14.985414779298193,-0.0281,-0.9477,-0.2901,-0.1304
9,1452382.0,1422.807927,1.0,2.55,1.73,-9.89,2.25,-20.19,36.88,0.0,-1.81,0.69,0.3671780209097195,0.2369016804706814,-0.543062937794506,-142.77543036661098,-33.727885940809074,-14.985414779298193,-0.0281,-0.9477,-0.2901,-0.1304
10,1452417.0,1422.824801,1.0,2.52,1.25,-9.86,2.25,-21.0,37.25,5.38,-3.19,-0.44,0.11328972679361456,-0.13556164681188698,-0.4452419462563899,-142.81135091208287,-33.73986021591224,-14.881400387429185,-0.0273,-0.9478,-0.2902,-0.1295
11,1452417.0,1422.824801,1.0,2.52,1.25,-9.86,2.25,-21.0,37.25,5.38,-3.19,-0.44,0.11328972679361456,-0.13556164681188698,-0.4452419462563899,-142.81135091208287,-33.73986021591224,-14.881400387429185,-0.0273,-0.9478,-0.2902,-0.1295
12,1452451.0,1422.867624,1.0,2.11,1.18,-9.59,2.25,-21.0,37.25,4.31,-4.63,-0.44,-0.13773407681054728,0.02754895142425895,-0.0823777772570029,-142.91931394004666,-33.751834870470574,-14.638747929971785,-0.0267,-0.9481,-0.2903,-0.1274
13,1452451.0,1422.867624,1.0,2.11,1.18,-9.59,2.25,-21.0,37.25,4.31,-4.63,-0.44,-0.13773407681054728,0.02754895142425895,-0.0823777772570029,-142.91931394004666,-33.751834870470574,-14.638747929971785,-0.0267,-0.9481,-0.2903,-0.1274
14,1452484.0,1422.885808,1.0,2.04,0.96,-9.49,3.06,-21.0,36.5,2.63,-5.0,0.69,-0.247400987335555,-0.11425516999523322,0.056314697683736974,-142.99145809873448,-33.751834870470574,-14.419262116395176,-0.0259,-0.9483,-0.2903,-0.1255
15,1452484.0,1422.885808,1.0,2.04,0.96,-9.49,3.06,-21.0,36.5,2.63,-5.0,0.69,-0.247400987335555,-0.11425516999523322,0.056314697683736974,-142.99145809873448,-33.751834870470574,-14.419262116395176,-0.0259,-0.9483,-0.2903,-0.1255
16,1452521.0,1422.9283599999999,1.0,1.84,0.87,-9.36,3.06,-20.56,36.06,2.38,-4.0,1.0,-0.39172213094015423,-0.07565375772661309,0.2362304542813529,-143.09992952909138,-33.71591204499429,-14.24602144035678,-0.0252,-0.9486,-0.29,-0.124
17,1452521.0,1422.9283599999999,1.0,1.84,0.87,-9.36,3.06,-20.56,36.06,2.38,-4.0,1.0,-0.39172213094015423,-0.07565375772661309,0.2362304542813529,-143.09992952909138,-33.71591204499429,-14.24602144035678,-0.0252,-0.9486,-0.29,-0.124
18,1452556.0,1422.9841310000002,1.0,1.86,0.98,-9.3,3.06,-20.56,36.06,2.63,-2.06,2.13,-0.27459321545376664,0.0038232166288569287,0.2759320863776757,-143.20870960086745,-33.67999263161277,-14.095906005217,-0.0248,-0.9489,-0.2897,-0.1227
19,1452556.0,1422.9841310000002,1.0,1.86,0.98,-9.3,3.06,-20.56,36.06,2.63,-2.06,2.13,-0.27459321545376664,0.0038232166288569287,0.2759320863776757,-143.20870960086745,-33.67999263161277,-14.095906005217,-0.0248,-0.9489,-0.2897,-0.1227
20,1452589.0,1423.047942,1.0,2.17,1.24,-9.72,3.06,-20.19,36.06,0.31,0.5,1.94,0.017262536330211284,0.07037074543720867,-0.2292679930401036,-143.3178010626215,-33.596193911040075,-14.084359674365961,-0.0242,-0.9492,-0.289,-0.1226
21,1452589.0,1423.047942,1.0,2.17,1.24,-9.72,3.06,-20.19,36.06,0.31,0.5,1.94,0.017262536330211284,0.07037074543720867,-0.2292679930401036,-143.3178010626215,-33.596193911040075,-14.084359674365961,-0.0242,-0.9492,-0.289,-0.1226
22,1452623.0,1423.067534,1.0,2.13,1.08,-9.57,3.38,-21.0,36.56,3.5,-1.37,0.5,-0.053806514162214936,-0.0350836966032696,-0.056618930393531386,-143.3178010626215,-33.58422417640036,-14.038175786909196,-0.0236,-0.9492,-0.2889,-0.1222
23,1452623.0,1423.067534,1.0,2.13,1.08,-9.57,3.38,-21.0,36.56,3.5,-1.37,0.5,-0.053806514162214936,-0.0350836966032696,-0.056618930393531386,-143.3178010626215,-33.58422417640036,-14.038175786909196,-0.0236,-0.9492,-0.2889,-0.1222
24,1452660.0,1423.0709470000002,1.0,2.13,0.98,-9.58,3.38,-21.0,37.88,1.37,0.31,0.81,-0.09715009600799536,-0.10129197806472734,-0.0550943585820729,-143.35423456188457,-33.57225481905068,-13.991994191085649,-0.0226,-0.9493,-0.2888,-0.1218
25,1452660.0,1423.0709470000002,1.0,2.13,0.98,-9.58,3.38,-21.0,37.88,1.37,0.31,0.81,-0.09715009600799536,-0.10129197806472734,-0.0550943585820729,-143.35423456188457,-33.57225481905068,-13.991994191085649,-0.0226,-0.9493,-0.2888,-0.1218
26,1452695.0,1423.109907,1.0,2.19,0.99,-9.66,3.38,-21.0,37.88,1.81,-2.44,1.31,-0.05160964672826295,-0.11441363660421228,-0.14704509097619226,-143.42720670361226,-33.548317235556404,-13.945814879054648,-0.022000000000000002,-0.9495,-0.2886,-0.1214
27,1452695.0,1423.109907,1.0,2.19,0.99,-9.66,3.38,-21.0,37.88,1.81,-2.44,1.31,-0.05160964672826295,-0.11441363660421228,-0.14704509097619226,-143.42720670361226,-33.548317235556404,-13.945814879054648,-0.022000000000000002,-0.9495,-0.2886,-0.1214
28,1452732.0,1423.170134,1.0,2.03,0.93,-9.26,3.06,-20.56,37.75,1.69,-0.06,0.19,-0.10280712151205293,-0.0847622978430152,0.2821738438730552,-143.46374555627918,-33.536349009079444,-13.8765501759761,-0.0217,-0.9496,-0.2885,-0.1208
29,1452732.0,1423.170134,1.0,2.03,0.93,-9.26,3.06,-20.56,37.75,1.69,-0.06,0.19,-0.10280712151205293,-0.0847622978430152,0.2821738438730552,-143.46374555627918,-33.536349009079444,-13.8765501759761,-0.0217,-0.9496,-0.2885,-0.1208
30,1452767.0,1423.24864,1.0,1.91,0.71,-9.04,3.06,-20.19,37.75,-1.25,0.25,1.63,-0.2654902108325441,-0.20747790089488888,0.5459660150779193,-143.46374555627918,-33.51241368583526,-13.8765501759761,-0.0217,-0.9496,-0.2883,-0.1208
31,1452767.0,1423.24864,1.0,1.91,0.71,-9.04,3.06,-20.19,37.75,-1.25,0.25,1.63,-0.2654902108325441,-0.20747790089488888,0.5459660150779193,-143.46374555627918,-33.51241368583526,-13.8765501759761,-0.0217,-0.9496,-0.2883,-0.1208
32,1452800.0,1423.3102310000002,1.0,1.8,0.95,-8.93,3.06,-20.19,37.75,-3.44,2.13,1.37,-0.21404922900185006,0.03941615466052062,0.6502298865323191,-143.53692935464713,-33.428651899003285,-13.957359493385505,-0.0226,-0.9498,-0.2876,-0.1215
33,1452800.0,1423.3102310000002,1.0,1.8,0.95,-8.93,3.06,-20.19,37.75,-3.44,2.13,1.37,-0.21404922900185006,0.03941615466052062,0.6502298865323191,-143.53692935464713,-33.428651899003285,-13.957359493385505,-0.0226,-0.9498,-0.2876,-0.1215
34,1452834.0,1423.354681,1.0,2.0,1.13,-9.06,2.69,-20.56,37.75,-6.88,4.44,2.44,-0.018567607616355758,0.0721938125548226,0.4602633560944369,-143.53692935464713,-33.3449084936511,-14.118999098561428,-0.0237,-0.9498,-0.2869,-0.1229
35,1452834.0,1423.354681,1.0,2.0,1.13,-9.06,2.69,-20.56,37.75,-6.88,4.44,2.44,-0.018567607616355758,0.0721938125548226,0.4602633560944369,-143.53692935464713,-33.3449084936511,-14.118999098561428,-0.0237,-0.9498,-0.2869,-0.1229
36,1452871.0,1423.3747970000002,1.0,2.23,1.31,-9.05,3.38,-20.56,37.0,-7.94,7.25,-0.19,0.20523925514082786,0.08020696343075108,0.3969239842667864,-143.42720670361226,-33.26118341298741,-14.442363367873067,-0.0255,-0.9495,-0.2862,-0.1257
37,1452871.0,1423.3747970000002,1.0,2.23,1.31,-9.05,3.38,-20.56,37.0,-7.94,7.25,-0.19,0.20523925514082786,0.08020696343075108,0.3969239842667864,-143.42720670361226,-33.26118341298741,-14.442363367873067,-0.0255,-0.9495,-0.2862,-0.1257
38,1452906.0,1423.410119,1.0,2.37,1.4,-8.84,3.38,-20.56,37.0,-12.56,5.44,0.63,0.3689316894077968,0.049423079019289,0.5554907878898216,-143.35423456188457,-33.2133487153414,-14.696516297153034,-0.0276,-0.9493,-0.2858,-0.1279
39,1452906.0,1423.410119,1.0,2.37,1.4,-8.84,3.38,-20.56,37.0,-12.56,5.44,0.63,0.3689316894077968,0.049423079019289,0.5554907878898216,-143.35423456188457,-33.2133487153414,-14.696516297153034,-0.0276,-0.9493,-0.2858,-0.1279
40,1452939.0,1423.416864,1.0,2.65,1.18,-9.06,3.06,-20.56,36.19,-12.94,4.13,0.0,0.3505422290194615,-0.3322778460487197,0.30584942432748186,-143.24503868567004,-33.15356371555689,-15.008530771963965,-0.0312,-0.9490000000000001,-0.2853,-0.1306
41,1452939.0,1423.416864,1.0,2.65,1.18,-9.06,3.06,-20.56,36.19,-12.94,4.13,0.0,0.3505422290194615,-0.3322778460487197,0.30584942432748186,-143.24503868567004,-33.15356371555689,-15.008530771963965,-0.0312,-0.9490000000000001,-0.2853,-0.1306
42,1452974.0,1423.433464,1.0,2.11,0.86,-8.02,2.25,-21.37,36.88,-16.25,4.19,-0.44,-0.024110850382341453,-0.3689989364222159,1.4774628576785425,-143.1724151146164,-33.08183396795116,-15.216602467156429,-0.035,-0.9488,-0.2847,-0.1324
43,1452974.0,1423.433464,1.0,2.11,0.86,-8.02,2.25,-21.37,36.88,-16.25,4.19,-0.44,-0.024110850382341453,-0.3689989364222159,1.4774628576785425,-143.1724151146164,-33.08183396795116,-15.216602467156429,-0.035,-0.9488,-0.2847,-0.1324
44,1453010.0,1423.436355,1.0,2.0,0.6,-8.05,2.69,-21.69,36.5,-23.69,17.56,4.44,-0.3790559510207028,-0.5805151437104348,1.5192005278210792,-142.91931394004666,-32.914516343671416,-15.910543420989347,-0.0404,-0.9481,-0.2833,-0.1384
45,1453010.0,1423.436355,1.0,2.0,0.6,-8.05,2.69,-21.69,36.5,-23.69,17.56,4.44,-0.3790559510207028,-0.5805151437104348,1.5192005278210792,-142.91931394004666,-32.914516343671416,-15.910543420989347,-0.0404,-0.9481,-0.2833,-0.1384
46,1453045.0,1423.4713060000001,1.0,2.4,1.66,-8.13,2.69,-21.69,36.5,-33.94,22.06,7.38,0.3254394898171634,0.04224414569627233,1.175033432367842,-142.73954322436268,-32.61591400140699,-16.767216307875252,-0.0458,-0.9476,-0.2808,-0.1458
47,1453045.0,1423.4713060000001,1.0,2.4,1.66,-8.13,2.69,-21.69,36.5,-33.94,22.06,7.38,0.3254394898171634,0.04224414569627233,1.175033432367842,-142.73954322436268,-32.61591400140699,-16.767216307875252,-0.0458,-0.9476,-0.2808,-0.1458
48,1453082.0,1423.494583,1.0,2.67,1.74,-8.15,1.88,-23.56,35.25,-31.44,25.87,4.75,0.35121869323625265,-0.10849920482941322,1.0634312933638217,-142.2760067690691,-32.23403459047365,-18.03080801097451,-0.0539,-0.9463,-0.2776,-0.1567
49,1453082.0,1423.494583,1.0,2.67,1.74,-8.15,1.88,-23.56,35.25,-31.44,25.87,4.75,0.35121869323625265,-0.10849920482941322,1.0634312933638217,-142.2760067690691,-32.23403459047365,-18.03080801097451,-0.0539,-0.9463,-0.2776,-0.1567
50,1453117.0,1423.535449,1.0,2.87,1.44,-8.45,1.56,-23.56,34.88,-32.69,30.06,7.0,0.06917311979341248,-0.5115858717098506,0.7818788131296692,-141.81789497427926,-31.98362621241675,-19.12228331882828,-0.0592,-0.945,-0.2755,-0.1661
51,1453117.0,1423.535449,1.0,2.87,1.44,-8.45,1.56,-23.56,34.88,-32.69,30.06,7.0,0.06917311979341248,-0.5115858717098506,0.7818788131296692,-141.81789497427926,-31.98362621241675,-19.12228331882828,-0.0592,-0.945,-0.2755,-0.1661
52,1453152.0,1423.54278,1.0,3.04,1.94,-8.54,1.56,-23.56,34.88,-44.44,30.81,9.56,0.12989493424235826,-0.2669998304789353,0.5411959692154102,-141.19218403998903,-31.423754097001943,-20.69292362085707,-0.0687,-0.9432,-0.2708,-0.1796
53,1453152.0,1423.54278,1.0,3.04,1.94,-8.54,1.56,-23.56,34.88,-44.44,30.81,9.56,0.12989493424235826,-0.2669998304789353,0.5411959692154102,-141.19218403998903,-31.423754097001943,-20.69292362085707,-0.0687,-0.9432,-0.2708,-0.1796
54,1453187.0,1423.609043,1.0,3.32,2.63,-8.44,0.37,-24.37,33.25,-44.81,30.44,11.13,0.40343801440087146,0.07527314564721999,0.3724318701240179,-140.50813431460048,-30.74578979374247,-22.337582426465424,-0.0793,-0.9412,-0.2651,-0.1937
55,1453187.0,1423.609043,1.0,3.32,2.63,-8.44,0.37,-24.37,33.25,-44.81,30.44,11.13,0.40343801440087146,0.07527314564721999,0.3724318701240179,-140.50813431460048,-30.74578979374247,-22.337582426465424,-0.0793,-0.9412,-0.2651,-0.1937
56,1453223.0,1423.6463820000001,1.0,3.73,2.02,-8.13,-0.69,-25.5,32.88,-33.19,28.0,16.0,0.3709555534676293,-0.6785795879371186,0.6692476492119699,-140.1367137765361,-30.17572764472251,-23.436594836002673,-0.0851,-0.9401,-0.2603,-0.2031
57,1453223.0,1423.6463820000001,1.0,3.73,2.02,-8.13,-0.69,-25.5,32.88,-33.19,28.0,16.0,0.3709555534676293,-0.6785795879371186,0.6692476492119699,-140.1367137765361,-30.17572764472251,-23.436594836002673,-0.0851,-0.9401,-0.2603,-0.2031
58,1453258.0,1423.664673,1.0,3.94,2.69,-8.33,-0.69,-25.5,32.88,-46.0,32.31,17.56,0.5194343409663531,-0.2754471530050517,0.2252661317205185,-139.66874405322235,-29.511618949559608,-24.666810678302642,-0.092,-0.9387,-0.2547,-0.2136
59,1453258.0,1423.664673,1.0,3.94,2.69,-8.33,-0.69,-25.5,32.88,-46.0,32.31,17.56,0.5194343409663531,-0.2754471530050517,0.2252661317205185,-139.66874405322235,-29.511618949559608,-24.666810678302642,-0.092,-0.9387,-0.2547,-0.2136
60,1453293.0,1423.7062859999999,1.0,4.08,2.84,-8.03,-2.19,-26.25,32.06,-52.38,31.69,16.75,0.4901287063720789,-0.26397487704797795,0.3788723660356972,-138.84577222800962,-28.552816976564145,-26.464637612964076,-0.1019,-0.9362,-0.2466,-0.2289
61,1453293.0,1423.7062859999999,1.0,4.08,2.84,-8.03,-2.19,-26.25,32.06,-52.38,31.69,16.75,0.4901287063720789,-0.26397487704797795,0.3788723660356972,-138.84577222800962,-28.552816976564145,-26.464637612964076,-0.1019,-0.9362,-0.2466,-0.2289
62,1453330.0,1423.7771810000002,1.0,4.21,3.34,-7.74,-3.69,-27.75,32.38,-50.44,35.88,18.44,0.569057616067555,0.02376664341816204,0.4011777324178922,-137.78296246704429,-27.537057504249983,-28.34002932498839,-0.1141,-0.9329,-0.23800000000000002,-0.2448
63,1453330.0,1423.7771810000002,1.0,4.21,3.34,-7.74,-3.69,-27.75,32.38,-50.44,35.88,18.44,0.569057616067555,0.02376664341816204,0.4011777324178922,-137.78296246704429,-27.537057504249983,-28.34002932498839,-0.1141,-0.9329,-0.23800000000000002,-0.2448
64,1453365.0,1423.798007,1.0,4.18,3.53,-7.65,-4.38,-28.56,30.75,-57.56,37.06,17.37,0.3725488764967833,0.1284904394601818,0.4098155574024141,-136.83846436491558,-26.78257750270593,-29.83168618976498,-0.1237,-0.9299,-0.2316,-0.2574
65,1453365.0,1423.798007,1.0,4.18,3.53,-7.65,-4.38,-28.56,30.75,-57.56,37.06,17.37,0.3725488764967833,0.1284904394601818,0.4098155574024141,-136.83846436491558,-26.78257750270593,-29.83168618976498,-0.1237,-0.9299,-0.2316,-0.2574
66,1453400.0,1423.840414,1.0,4.66,3.7,-7.88,-4.38,-28.56,30.75,-54.69,35.44,22.56,0.26366518914135945,-0.1003066120007503,-0.06352827861402055,-135.57859793518082,-25.58255007875368,-31.82869013670581,-0.1368,-0.9258,-0.2214,-0.2742
67,1453400.0,1423.840414,1.0,4.66,3.7,-7.88,-4.38,-28.56,30.75,-54.69,35.44,22.56,0.26366518914135945,-0.1003066120007503,-0.06352827861402055,-135.57859793518082,-25.58255007875368,-31.82869013670581,-0.1368,-0.9258,-0.2214,-0.2742
68,1453436.0,1423.857824,1.0,4.7,4.16,-8.02,-6.25,-30.37,29.37,-56.44,35.81,22.25,0.04710038411858691,0.16186452628194714,-0.3760599256016999,-134.5590130176977,-24.61989330860375,-33.285102998046874,-0.147,-0.9224,-0.2132,-0.2864
69,1453436.0,1423.857824,1.0,4.7,4.16,-8.02,-6.25,-30.37,29.37,-56.44,35.81,22.25,0.04710038411858691,0.16186452628194714,-0.3760599256016999,-134.5590130176977,-24.61989330860375,-33.285102998046874,-0.147,-0.9224,-0.2132,-0.2864
70,1453473.0,1423.916438,1.0,5.15,4.87,-8.21,-7.38,-31.06,27.25,-61.38,28.12,22.0,0.039677892614270634,0.3888936251920696,-1.0326621282267112,-133.18424101457546,-23.284475807440252,-35.143514652215984,-0.1609,-0.9177,-0.2018,-0.3019
71,1453473.0,1423.916438,1.0,5.15,4.87,-8.21,-7.38,-31.06,27.25,-61.38,28.12,22.0,0.039677892614270634,0.3888936251920696,-1.0326621282267112,-133.18424101457546,-23.284475807440252,-35.143514652215984,-0.1609,-0.9177,-0.2018,-0.3019
72,1453508.0,1423.920533,1.0,5.16,4.77,-8.03,-7.38,-31.06,27.25,-54.25,25.44,20.69,-0.15622442690513932,0.21145750068483785,-0.8606026760099876,-132.24132459051677,-22.337582426465424,-36.311360803930285,-0.1711,-0.9144,-0.1937,-0.3116
73,1453508.0,1423.920533,1.0,5.16,4.77,-8.03,-7.38,-31.06,27.25,-54.25,25.44,20.69,-0.15622442690513932,0.21145750068483785,-0.8606026760099876,-132.24132459051677,-22.337582426465424,-36.311360803930285,-0.1711,-0.9144,-0.1937,-0.3116
74,1453541.0,1423.960584,1.0,5.0,5.02,-7.88,-9.25,-31.87,25.25,-55.19,23.5,23.12,-0.4732619531867066,0.3796729254238676,-0.7728902354434126,-131.0660093808112,-21.007514103633174,-37.71311628724267,-0.1841,-0.9102,-0.1823,-0.3232
75,1453541.0,1423.960584,1.0,5.0,5.02,-7.88,-9.25,-31.87,25.25,-55.19,23.5,23.12,-0.4732619531867066,0.3796729254238676,-0.7728902354434126,-131.0660093808112,-21.007514103633174,-37.71311628724267,-0.1841,-0.9102,-0.1823,-0.3232
76,1453578.0,1424.019734,1.0,5.28,4.87,-7.59,-9.69,-33.0,24.0,-46.75,17.75,18.5,-0.35412195037227007,0.07388718093997326,-0.6371298870311932,-130.16081866157813,-20.11076285425295,-38.683253582612885,-0.1935,-0.9069,-0.1746,-0.3312
77,1453578.0,1424.019734,1.0,5.28,4.87,-7.59,-9.69,-33.0,24.0,-46.75,17.75,18.5,-0.35412195037227007,0.07388718093997326,-0.6371298870311932,-130.16081866157813,-20.11076285425295,-38.683253582612885,-0.1935,-0.9069,-0.1746,-0.3312
78,1453613.0,1424.028315,1.0,5.28,5.66,-7.43,-11.19,-33.38,21.06,-50.75,19.69,16.37,-0.4248636603409252,0.6395953401931331,-0.8951866961435629,-128.97730409708814,-18.86667840059343,-39.86343282424955,-0.20600000000000002,-0.9025,-0.1639,-0.3409
79,1453613.0,1424.028315,1.0,5.28,5.66,-7.43,-11.19,-33.38,21.06,-50.75,19.69,16.37,-0.4248636603409252,0.6395953401931331,-0.8951866961435629,-128.97730409708814,-18.86667840059343,-39.86343282424955,-0.20600000000000002,-0.9025,-0.1639,-0.3409
80,1453647.0,1424.0468449999998,1.0,5.73,5.91,-7.73,-11.19,-33.38,21.06,-43.94,23.25,15.0,-0.6015775504556267,0.4364316304171458,-1.461070793610359,-127.66274936627121,-17.93799404290059,-41.12146009512062,-0.2165,-0.8975,-0.1559,-0.3512
81,1453647.0,1424.0468449999998,1.0,5.73,5.91,-7.73,-11.19,-33.38,21.06,-43.94,23.25,15.0,-0.6015775504556267,0.4364316304171458,-1.461070793610359,-127.66274936627121,-17.93799404290059,-41.12146009512062,-0.2165,-0.8975,-0.1559,-0.3512
82,1453684.0,1424.092545,1.0,5.79,5.48,-7.57,-12.69,-34.19,21.5,-28.19,10.0,10.75,-0.6702870480767272,0.0128324425827695,-1.1664967957736678,-126.9655039569828,-17.381357078894993,-41.77080790377483,-0.2221,-0.8948,-0.1511,-0.3565
83,1453684.0,1424.092545,1.0,5.79,5.48,-7.57,-12.69,-34.19,21.5,-28.19,10.0,10.75,-0.6702870480767272,0.0128324425827695,-1.1664967957736678,-126.9655039569828,-17.381357078894993,-41.77080790377483,-0.2221,-0.8948,-0.1511,-0.3565
84,1453721.0,1424.153961,1.0,5.79,5.69,-7.53,-13.75,-34.5,19.5,-31.75,6.19,10.0,-0.7773498149483422,0.10216712485748758,-1.2380948654913784,-126.32740410450675,-16.674558377811383,-42.286383276048326,-0.2293,-0.8923,-0.145,-0.3607
85,1453721.0,1424.153961,1.0,5.79,5.69,-7.53,-13.75,-34.5,19.5,-31.75,6.19,10.0,-0.7773498149483422,0.10216712485748758,-1.2380948654913784,-126.32740410450675,-16.674558377811383,-42.286383276048326,-0.2293,-0.8923,-0.145,-0.3607
86,1453756.0,1424.173243,1.0,5.48,6.16,-6.85,-13.75,-34.5,19.5,-31.06,1.06,9.25,-0.5621990435705311,0.7628230423481202,-0.8704532233219133,-125.97311846044451,-16.118839093056636,-42.507618370719364,-0.235,-0.8909,-0.1402,-0.3625
87,1453756.0,1424.173243,1.0,5.48,6.16,-6.85,-13.75,-34.5,19.5,-31.06,1.06,9.25,-0.5621990435705311,0.7628230423481202,-0.8704532233219133,-125.97311846044451,-16.118839093056636,-42.507618370719364,-0.235,-0.8909,-0.1402,-0.3625
88,1453791.0,1424.211869,1.0,5.69,5.84,-7.17,-13.06,-34.88,18.19,-19.5,6.0,6.56,-0.7881658387574313,0.22073631050794784,-1.0201994998239972,-125.44568125373512,-15.621331474060085,-42.901336489189035,-0.2405,-0.8888,-0.1359,-0.3657
89,1453791.0,1424.211869,1.0,5.69,5.84,-7.17,-13.06,-34.88,18.19,-19.5,6.0,6.56,-0.7881658387574313,0.22073631050794784,-1.0201994998239972,-125.44568125373512,-15.621331474060085,-42.901336489189035,-0.2405,-0.8888,-0.1359,-0.3657
90,1453826.0,1424.2286119999999,1.0,5.65,5.7,-6.64,-14.19,-34.06,18.19,-13.31,4.38,4.69,-0.4781455218106365,0.2497807962272729,-0.5958057876401703,-125.27091255577452,-15.459416628401115,-42.97521768410124,-0.2432,-0.8881,-0.1345,-0.3663
91,1453826.0,1424.2286119999999,1.0,5.65,5.7,-6.64,-14.19,-34.06,18.19,-13.31,4.38,4.69,-0.4781455218106365,0.2497807962272729,-0.5958057876401703,-125.27091255577452,-15.459416628401115,-42.97521768410124,-0.2432,-0.8881,-0.1345,-0.3663
92,1453862.0,1424.268257,1.0,5.68,5.66,-6.72,-13.38,-34.06,16.87,-9.06,4.94,3.13,-0.573841303633031,0.14099235228137408,-0.6387905036285062,-124.94770072590693,-15.309094936163461,-43.19697398702748,-0.2455,-0.8868,-0.1332,-0.3681
93,1453862.0,1424.268257,1.0,5.68,5.66,-6.72,-13.38,-34.06,16.87,-9.06,4.94,3.13,-0.573841303633031,0.14099235228137408,-0.6387905036285062,-124.94770072590693,-15.309094936163461,-43.19697398702748,-0.2455,-0.8868,-0.1332,-0.3681
94,1453895.0,1424.329576,1.0,5.74,5.67,-6.81,-13.38,-34.06,16.87,-3.75,1.81,2.0,-0.5943907286440543,0.07326750891564071,-0.7344093174424007,-124.9229107357918,-15.274409087771584,-43.14768015800515,-0.2466,-0.8867,-0.1329,-0.3677
95,1453895.0,1424.329576,1.0,5.74,5.67,-6.81,-13.38,-34.06,16.87,-3.75,1.81,2.0,-0.5943907286440543,0.07326750891564071,-0.7344093174424007,-124.9229107357918,-15.274409087771584,-43.14768015800515,-0.2466,-0.8867,-0.1329,-0.3677
96,1453932.0,1424.347937,1.0,5.51,5.28,-6.5,-14.56,-33.69,16.0,-3.69,-0.88,1.44,-0.5188109135568637,-0.0504269906800876,-0.2041837492231533,-125.1215196986378,-15.216602467156429,-42.93827474491775,-0.2465,-0.8875,-0.1324,-0.366
97,1453932.0,1424.347937,1.0,5.51,5.28,-6.5,-14.56,-33.69,16.0,-3.69,-0.88,1.44,-0.5188109135568637,-0.0504269906800876,-0.2041837492231533,-125.1215196986378,-15.216602467156429,-42.93827474491775,-0.2465,-0.8875,-0.1324,-0.366
98,1453967.0,1424.390702,1.0,5.8,5.73,-6.64,-14.56,-34.06,17.19,3.56,3.06,2.69,-0.3869433519451244,0.16582798076028782,-0.6997897358564114,-125.17127559163816,-15.205041610922965,-42.91364872106161,-0.2463,-0.8877,-0.1323,-0.3658
99,1453967.0,1424.390702,1.0,5.8,5.73,-6.64,-14.56,-34.06,17.19,3.56,3.06,2.69,-0.3869433519451244,0.16582798076028782,-0.6997897358564114,-125.17127559163816,-15.205041610922965,-42.91364872106161,-0.2463,-0.8877,-0.1323,-0.3658
100,1454000.0,1424.407944,1.0,6.23,5.51,-7.17,-14.56,-34.06,17.19,6.88,-5.19,0.44,-0.4391909085295092,-0.3377718252820365,-1.1603423652709208,-125.42068267085124,-15.239724647140953,-42.76593619701882,-0.2442,-0.8887,-0.1326,-0.3646
101,1454000.0,1424.407944,1.0,6.23,5.51,-7.17,-14.56,-34.06,17.19,6.88,-5.19,0.44,-0.4391909085295092,-0.3377718252820365,-1.1603423652709208,-125.42068267085124,-15.239724647140953,-42.76593619701882,-0.2442,-0.8887,-0.1326,-0.3646
102,1454036.0,1424.450505,1.0,6.03,5.23,-6.9,-14.88,-33.38,16.87,11.5,-12.56,0.94,-0.32968272591846737,-0.35882857574201443,-0.7331010100315929,-125.87228808096123,-15.25128597113998,-42.421562810614134,-0.242,-0.8905,-0.1327,-0.3618
103,1454036.0,1424.450505,1.0,6.03,5.23,-6.9,-14.88,-33.38,16.87,11.5,-12.56,0.94,-0.32968272591846737,-0.35882857574201443,-0.7331010100315929,-125.87228808096123,-15.25128597113998,-42.421562810614134,-0.242,-0.8905,-0.1327,-0.3618
104,1454073.0,1424.512673,1.0,5.92,4.77,-6.71,-15.25,-34.06,17.69,10.94,-12.63,2.5,-0.19110629810317584,-0.582361806741599,-0.3149967587480038,-126.5308282926202,-15.262847451308847,-41.868944153662135,-0.2388,-0.8931,-0.1328,-0.3573
105,1454073.0,1424.512673,1.0,5.92,4.77,-6.71,-15.25,-34.06,17.69,10.94,-12.63,2.5,-0.19110629810317584,-0.582361806741599,-0.3149967587480038,-126.5308282926202,-15.262847451308847,-41.868944153662135,-0.2388,-0.8931,-0.1328,-0.3573
106,1454108.0,1424.573754,1.0,6.11,5.11,-7.13,-15.25,-34.06,17.69,6.0,-20.69,3.31,-0.23611612311297525,-0.4745170760645849,-0.8704368087193721,-127.09397976921673,-15.112560354905925,-41.378582455790294,-0.2374,-0.8953,-0.1315,-0.3533
107,1454108.0,1424.573754,1.0,6.11,5.11,-7.13,-15.25,-34.06,17.69,6.0,-20.69,3.31,-0.23611612311297525,-0.4745170760645849,-0.8704368087193721,-127.09397976921673,-15.112560354905925,-41.378582455790294,-0.2374,-0.8953,-0.1315,-0.3533
108,1454141.0,1424.5779539999999,1.0,6.47,4.88,-7.71,-14.56,-33.69,17.69,13.06,-23.5,6.63,-0.22942242912494,-0.9348630186098954,-1.3375321810956606,-128.05386288415187,-14.916070477056891,-40.5589927006499,-0.2343,-0.899,-0.1298,-0.3466
109,1454141.0,1424.5779539999999,1.0,6.47,4.88,-7.71,-14.56,-33.69,17.69,13.06,-23.5,6.63,-0.22942242912494,-0.9348630186098954,-1.3375321810956606,-128.05386288415187,-14.916070477056891,-40.5589927006499,-0.2343,-0.899,-0.1298,-0.3466
110,1454178.0,1424.59453,1.0,6.52,4.43,-8.2,-13.38,-33.69,18.87,17.75,-23.56,4.94,-0.4148494369334558,-1.4215743472169136,-1.470864190636643,-128.8444329155711,-14.916070477056891,-39.9000028418168,-0.2303,-0.902,-0.1298,-0.3412
111,1454178.0,1424.59453,1.0,6.52,4.43,-8.2,-13.38,-33.69,18.87,17.75,-23.56,4.94,-0.4148494369334558,-1.4215743472169136,-1.470864190636643,-128.8444329155711,-14.916070477056891,-39.9000028418168,-0.2303,-0.902,-0.1298,-0.3412
112,1454213.0,1424.635232,1.0,6.46,4.64,-8.54,-13.75,-33.38,19.37,15.81,-36.56,8.5,-0.4237087397084971,-1.2341120303249982,-1.7903426446687778,-130.16081866157813,-14.661854827129085,-38.73183555708117,-0.2263,-0.9069,-0.1276,-0.3316
113,1454213.0,1424.635232,1.0,6.46,4.64,-8.54,-13.75,-33.38,19.37,15.81,-36.56,8.5,-0.4237087397084971,-1.2341120303249982,-1.7903426446687778,-130.16081866157813,-14.661854827129085,-38.73183555708117,-0.2263,-0.9069,-0.1276,-0.3316
114,1454247.0,1424.689283,1.0,6.41,4.69,-9.33,-13.75,-33.38,19.37,33.5,-47.31,16.06,-0.7016415100118376,-1.2789190533588954,-2.3590873490628965,-131.70630400699523,-14.269118297459285,-37.519427463611905,-0.2204,-0.9125,-0.1242,-0.3216
115,1454247.0,1424.689283,1.0,6.41,4.69,-9.33,-13.75,-33.38,19.37,33.5,-47.31,16.06,-0.7016415100118376,-1.2789190533588954,-2.3590873490628965,-131.70630400699523,-14.269118297459285,-37.519427463611905,-0.2204,-0.9125,-0.1242,-0.3216
116,1454284.0,1424.6961880000001,1.0,6.03,4.12,-9.06,-13.38,-33.69,18.87,38.69,-58.38,17.37,-0.3909996245565419,-1.2745485293917955,-1.7536936514587165,-134.47008902668762,-13.622622983127284,-35.33588611084891,-0.2088,-0.9221,-0.1186,-0.3035
117,1454284.0,1424.6961880000001,1.0,6.03,4.12,-9.06,-13.38,-33.69,18.87,38.69,-58.38,17.37,-0.3909996245565419,-1.2745485293917955,-1.7536936514587165,-134.47008902668762,-13.622622983127284,-35.33588611084891,-0.2088,-0.9221,-0.1186,-0.3035
118,1454321.0,1424.750877,1.0,6.1,3.75,-9.45,-12.25,-33.38,21.0,38.44,-59.5,16.75,-0.10493748757070703,-1.480835608282657,-1.956475181045404,-137.24530467426428,-13.011162702254634,-33.05792701658909,-0.1976,-0.9312,-0.1133,-0.2845
119,1454321.0,1424.750877,1.0,6.1,3.75,-9.45,-12.25,-33.38,21.0,38.44,-59.5,16.75,-0.10493748757070703,-1.480835608282657,-1.956475181045404,-137.24530467426428,-13.011162702254634,-33.05792701658909,-0.1976,-0.9312,-0.1133,-0.2845
120,1454354.0,1424.75856,1.0,4.91,4.22,-8.68,-12.25,-33.38,21.0,49.38,-74.5,25.87,-0.1839495634615875,-0.21646291407321794,-1.0182382841779596,-139.80191665328087,-12.273289521851867,-30.99543647635929,-0.1877,-0.9391,-0.1069,-0.2672
121,1454354.0,1424.75856,1.0,4.91,4.22,-8.68,-12.25,-33.38,21.0,49.38,-74.5,25.87,-0.1839495634615875,-0.21646291407321794,-1.0182382841779596,-139.80191665328087,-12.273289521851867,-30.99543647635929,-0.1877,-0.9391,-0.1069,-0.2672
122,1454389.0,1424.817771,1.0,4.77,3.47,-9.01,-12.25,-32.19,22.25,56.31,-63.88,26.69,-0.0450366477193459,-0.5660301529095839,-0.9474878811301952,-143.2814024718206,-11.38620958683243,-28.45823232032684,-0.1701,-0.9491,-0.0992,-0.2458
123,1454389.0,1424.817771,1.0,4.77,3.47,-9.01,-12.25,-32.19,22.25,56.31,-63.88,26.69,-0.0450366477193459,-0.5660301529095839,-0.9474878811301952,-143.2814024718206,-11.38620958683243,-28.45823232032684,-0.1701,-0.9491,-0.0992,-0.2458
124,1454426.0,1424.8353339999999,1.0,4.4,4.6,-8.51,-12.25,-30.37,26.37,45.69,-58.75,21.94,0.3252864051155803,0.9438828415009816,-0.7736795759710144,-145.53094905314887,-10.764512919793646,-26.723683975588173,-0.1597,-0.9551,-0.0938,-0.2311
125,1454426.0,1424.8353339999999,1.0,4.4,4.6,-8.51,-12.25,-30.37,26.37,45.69,-58.75,21.94,0.3252864051155803,0.9438828415009816,-0.7736795759710144,-145.53094905314887,-10.764512919793646,-26.723683975588173,-0.1597,-0.9551,-0.0938,-0.2311
126,1454462.0,1424.889068,1.0,3.83,4.51,-8.53,-11.88,-29.19,26.75,50.75,-59.94,20.0,0.2298962483735068,1.3323789530357684,-0.4861539931056207,-148.6458749656724,-10.074110549810433,-24.40881688456287,-0.1436,-0.9628,-0.0878,-0.2114
127,1454462.0,1424.889068,1.0,3.83,4.51,-8.53,-11.88,-29.19,26.75,50.75,-59.94,20.0,0.2298962483735068,1.3323789530357684,-0.4861539931056207,-148.6458749656724,-10.074110549810433,-24.40881688456287,-0.1436,-0.9628,-0.0878,-0.2114
128,1454497.0,1424.934888,1.0,3.08,4.24,-7.9,-11.88,-29.19,26.75,70.75,-55.63,21.0,0.10042712838920624,1.6920026872361578,0.4792151276318642,-151.16170585731885,-9.660046657878476,-22.66472550596455,-0.1277,-0.9685,-0.0842,-0.1965
129,1454497.0,1424.934888,1.0,3.08,4.24,-7.9,-11.88,-29.19,26.75,70.75,-55.63,21.0,0.10042712838920624,1.6920026872361578,0.4792151276318642,-151.16170585731885,-9.660046657878476,-22.66472550596455,-0.1277,-0.9685,-0.0842,-0.1965
130,1454534.0,1424.942454,1.0,3.29,2.31,-8.41,-10.38,-28.19,28.87,66.62,-56.25,18.37,0.26499187833403764,0.1303076766639102,0.4899392492135686,-154.47803544959174,-9.22311622194562,-20.448351223683986,-0.1038,-0.9753,-0.0804,-0.1775
131,1454534.0,1424.942454,1.0,3.29,2.31,-8.41,-10.38,-28.19,28.87,66.62,-56.25,18.37,0.26499187833403764,0.1303076766639102,0.4899392492135686,-154.47803544959174,-9.22311622194562,-20.448351223683986,-0.1038,-0.9753,-0.0804,-0.1775
132,1454569.0,1425.0069640000002,1.0,2.78,1.71,-7.93,-10.75,-25.19,29.56,40.44,-49.5,4.56,0.15247821247241594,-0.09237107884633032,1.2331082593589695,-156.5307030363511,-8.797813093528106,-18.80859962930239,-0.0933,-0.9791,-0.0767,-0.1634
133,1454569.0,1425.0069640000002,1.0,2.78,1.71,-7.93,-10.75,-25.19,29.56,40.44,-49.5,4.56,0.15247821247241594,-0.09237107884633032,1.2331082593589695,-156.5307030363511,-8.797813093528106,-18.80859962930239,-0.0933,-0.9791,-0.0767,-0.1634
134,1454604.0,1425.011972,1.0,2.72,0.95,-8.04,-10.75,-25.19,29.56,16.75,-35.38,4.88,0.2133701576713992,-0.7236963960413237,1.2994038708362208,-158.22503424547796,-8.751841754333862,-17.230672895970507,-0.0858,-0.982,-0.0763,-0.1498
135,1454604.0,1425.011972,1.0,2.72,0.95,-8.04,-10.75,-25.19,29.56,16.75,-35.38,4.88,0.2133701576713992,-0.7236963960413237,1.2994038708362208,-158.22503424547796,-8.751841754333862,-17.230672895970507,-0.0858,-0.982,-0.0763,-0.1498
136,1454639.0,1425.077424,1.0,2.95,2.05,-7.95,-8.56,-24.5,32.06,25.87,-44.56,22.19,0.8336344934331613,0.4449353407601757,1.1340156785322133,-160.12726585571855,-8.016487142063689,-15.621331474060085,-0.0792,-0.985,-0.0699,-0.1359
137,1454639.0,1425.077424,1.0,2.95,2.05,-7.95,-8.56,-24.5,32.06,25.87,-44.56,22.19,0.8336344934331613,0.4449353407601757,1.1340156785322133,-160.12726585571855,-8.016487142063689,-15.621331474060085,-0.0792,-0.985,-0.0699,-0.1359
138,1454675.0,1425.149784,1.0,2.97,1.67,-8.4,-7.75,-23.25,33.0,46.5,-30.44,19.19,0.8480432437616059,0.17957411228122455,0.7834368364474109,-161.71772704701445,-7.407773121999347,-14.604088706058507,-0.0703,-0.9873,-0.0646,-0.1271
139,1454675.0,1425.149784,1.0,2.97,1.67,-8.4,-7.75,-23.25,33.0,46.5,-30.44,19.19,0.8480432437616059,0.17957411228122455,0.7834368364474109,-161.71772704701445,-7.407773121999347,-14.604088706058507,-0.0703,-0.9873,-0.0646,-0.1271
140,1454710.0,1425.152888,1.0,2.21,1.72,-7.82,-7.75,-23.25,33.0,11.88,-28.94,18.37,0.3950394750693009,0.521884905822467,1.5261620941932603,-162.91040944456057,-6.937025592767178,-13.772662665221276,-0.0638,-0.9889,-0.0605,-0.1199
141,1454710.0,1425.152888,1.0,2.21,1.72,-7.82,-7.75,-23.25,33.0,11.88,-28.94,18.37,0.3950394750693009,0.521884905822467,1.5261620941932603,-162.91040944456057,-6.937025592767178,-13.772662665221276,-0.0638,-0.9889,-0.0605,-0.1199
142,1454745.0,1425.193261,1.0,2.36,3.09,-7.81,-8.56,-23.25,33.75,22.56,-19.06,24.0,0.7766451213415105,1.9778163252330048,1.3450387504129429,-164.35965769726891,-5.777862453568277,-12.872771138472865,-0.057999999999999996,-0.9907,-0.0504,-0.1121
143,1454745.0,1425.193261,1.0,2.36,3.09,-7.81,-8.56,-23.25,33.75,22.56,-19.06,24.0,0.7766451213415105,1.9778163252330048,1.3450387504129429,-164.35965769726891,-5.777862453568277,-12.872771138472865,-0.057999999999999996,-0.9907,-0.0504,-0.1121
144,1454780.0,1425.2095470000002,1.0,2.65,2.02,-8.49,-7.75,-21.75,33.38,35.0,-16.06,10.81,0.9149748450819344,1.0326487645123692,0.7911379478745975,-165.6781993872616,-5.101008867683621,-12.181091916848366,-0.0469,-0.9922,-0.0445,-0.1061
145,1454780.0,1425.2095470000002,1.0,2.65,2.02,-8.49,-7.75,-21.75,33.38,35.0,-16.06,10.81,0.9149748450819344,1.0326487645123692,0.7911379478745975,-165.6781993872616,-5.101008867683621,-12.181091916848366,-0.0469,-0.9922,-0.0445,-0.1061
146,1454817.0,1425.255745,1.0,2.0,1.32,-8.31,-7.38,-20.69,33.75,8.63,-23.75,1.06,0.362478525302094,0.4811166437912489,1.1790410558161106,-166.53078742603913,-4.837200229263812,-11.535926836248436,-0.0433,-0.9931,-0.0422,-0.1005
147,1454817.0,1425.255745,1.0,2.0,1.32,-8.31,-7.38,-20.69,33.75,8.63,-23.75,1.06,0.362478525302094,0.4811166437912489,1.1790410558161106,-166.53078742603913,-4.837200229263812,-11.535926836248436,-0.0433,-0.9931,-0.0422,-0.1005
148,1454850.0,1425.273781,1.0,2.12,1.54,-8.81,-7.38,-20.69,33.75,4.94,-22.69,5.38,0.5357996180234234,0.6777736529239824,0.6559319055153914,-167.44083871780597,-4.66516502390792,-10.637910557080565,-0.0417,-0.9940000000000001,-0.0407,-0.0927
149,1454850.0,1425.273781,1.0,2.12,1.54,-8.81,-7.38,-20.69,33.75,4.94,-22.69,5.38,0.5357996180234234,0.6777736529239824,0.6559319055153914,-167.44083871780597,-4.66516502390792,-10.637910557080565,-0.0417,-0.9940000000000001,-0.0407,-0.0927
150,1454886.0,1425.319278,1.0,1.99,1.29,-9.25,-6.69,-20.25,35.5,8.25,-19.81,6.88,0.4067188768205397,0.4583609769372051,0.2771597213933301,-168.19685993687258,-4.355527902560735,-10.028097037556813,-0.0392,-0.9947,-0.038,-0.0874
151,1454886.0,1425.319278,1.0,1.99,1.29,-9.25,-6.69,-20.25,35.5,8.25,-19.81,6.88,0.4067188768205397,0.4583609769372051,0.2771597213933301,-168.19685993687258,-4.355527902560735,-10.028097037556813,-0.0392,-0.9947,-0.038,-0.0874
152,1454923.0,1425.3373880000001,1.0,1.73,1.37,-8.69,-5.88,-19.56,34.69,8.0,-19.5,6.25,0.3689185894574135,0.6477287665055275,0.8718726373907906,-169.00454610436458,-4.034456312516312,-9.280599254023052,-0.0366,-0.9954,-0.0352,-0.0809
153,1454923.0,1425.3373880000001,1.0,1.73,1.37,-8.69,-5.88,-19.56,34.69,8.0,-19.5,6.25,0.3689185894574135,0.6477287665055275,0.8718726373907906,-169.00454610436458,-4.034456312516312,-9.280599254023052,-0.0366,-0.9954,-0.0352,-0.0809
154,1454958.0,1425.378232,1.0,1.67,0.84,-9.14,-5.88,-19.56,34.69,12.31,-19.94,4.44,0.28762841318843124,0.1560672575703741,0.4831842867021177,-169.7471998361046,-3.8853982832056495,-8.76333445653462,-0.0333,-0.996,-0.0339,-0.0764
155,1454958.0,1425.378232,1.0,1.67,0.84,-9.14,-5.88,-19.56,34.69,12.31,-19.94,4.44,0.28762841318843124,0.1560672575703741,0.4831842867021177,-169.7471998361046,-3.8853982832056495,-8.76333445653462,-0.0333,-0.996,-0.0339,-0.0764
156,1454991.0,1425.432849,1.0,1.77,0.46,-9.65,-5.19,-19.56,35.06,9.81,-18.44,4.56,0.4135271165112801,-0.19615489538602696,-0.004441610056749923,-170.54785856879653,-3.6790210459755386,-8.016487142063689,-0.03,-0.9966,-0.0321,-0.0699
157,1454991.0,1425.432849,1.0,1.77,0.46,-9.65,-5.19,-19.56,35.06,9.81,-18.44,4.56,0.4135271165112801,-0.19615489538602696,-0.004441610056749923,-170.54785856879653,-3.6790210459755386,-8.016487142063689,-0.03,-0.9966,-0.0321,-0.0699
158,1455028.0,1425.4494339999999,1.0,1.0,0.27,-9.01,-5.56,-18.75,34.56,1.19,-17.44,3.63,-0.180487130480966,-0.2832427434164824,0.7435270313962601,-171.12155545031425,-3.335085177891311,-7.465189762811248,-0.0292,-0.997,-0.0291,-0.0651
159,1455028.0,1425.4494339999999,1.0,1.0,0.27,-9.01,-5.56,-18.75,34.56,1.19,-17.44,3.63,-0.180487130480966,-0.2832427434164824,0.7435270313962601,-171.12155545031425,-3.335085177891311,-7.465189762811248,-0.0292,-0.997,-0.0291,-0.0651
160,1455065.0,1425.492094,1.0,1.14,0.41,-9.46,-4.38,-18.75,35.06,2.81,-14.25,5.38,0.0017514995154741027,-0.1729897047436074,0.27096064399105835,-171.7348937308485,-3.0714215263829594,-6.89110540785609,-0.028999999999999998,-0.9974,-0.0268,-0.0601
161,1455065.0,1425.492094,1.0,1.14,0.41,-9.46,-4.38,-18.75,35.06,2.81,-14.25,5.38,0.0017514995154741027,-0.1729897047436074,0.27096064399105835,-171.7348937308485,-3.0714215263829594,-6.89110540785609,-0.028999999999999998,-0.9974,-0.0268,-0.0601
162,1455097.0,1425.499554,1.0,1.16,0.62,-9.83,-4.38,-18.75,35.06,-3.19,-12.69,3.19,0.045797172998110966,0.007084174157697355,-0.11084728678671496,-172.05927522066784,-2.9338644268256844,-6.546738821065048,-0.0294,-0.9976,-0.0256,-0.0571
163,1455097.0,1425.499554,1.0,1.16,0.62,-9.83,-4.38,-18.75,35.06,-3.19,-12.69,3.19,0.045797172998110966,0.007084174157697355,-0.11084728678671496,-172.05927522066784,-2.9338644268256844,-6.546738821065048,-0.0294,-0.9976,-0.0256,-0.0571
164,1455134.0,1425.55989,1.0,0.93,0.48,-9.48,-5.19,-20.0,34.25,3.31,-7.5,3.69,-0.07745113333159125,-0.10478022115328103,0.2699460396581088,-172.57231796598282,-2.521217704700676,-6.11062569758793,-0.0297,-0.9979,-0.022000000000000002,-0.0533
165,1455134.0,1425.55989,1.0,0.93,0.48,-9.48,-5.19,-20.0,34.25,3.31,-7.5,3.69,-0.07745113333159125,-0.10478022115328103,0.2699460396581088,-172.57231796598282,-2.521217704700676,-6.11062569758793,-0.0297,-0.9979,-0.022000000000000002,-0.0533
166,1455169.0,1425.576076,1.0,1.39,1.08,-10.19,-4.0,-18.5,35.06,1.5,-9.94,5.94,0.3610334238667757,0.43937312154358404,-0.5186202689525778,-172.75138501198413,-2.2346770389286066,-5.904077101832591,-0.0295,-0.998,-0.0195,-0.0515
167,1455169.0,1425.576076,1.0,1.39,1.08,-10.19,-4.0,-18.5,35.06,1.5,-9.94,5.94,0.3610334238667757,0.43937312154358404,-0.5186202689525778,-172.75138501198413,-2.2346770389286066,-5.904077101832591,-0.0295,-0.998,-0.0195,-0.0515
168,1455204.0,1425.620694,1.0,1.1,0.73,-10.08,-4.0,-18.5,35.06,13.13,-9.06,2.75,0.15123867066344795,0.16366656499568127,-0.3569930535511485,-173.5168579087077,-2.0971425933011094,-5.456620099259026,-0.0268,-0.9984,-0.0183,-0.0476
169,1455204.0,1425.620694,1.0,1.1,0.73,-10.08,-4.0,-18.5,35.06,13.13,-9.06,2.75,0.15123867066344795,0.16366656499568127,-0.3569930535511485,-173.5168579087077,-2.0971425933011094,-5.456620099259026,-0.0268,-0.9984,-0.0183,-0.0476
170,1455239.0,1425.68504,1.0,0.9,0.67,-9.88,-3.56,-18.5,35.06,2.94,-8.25,0.37,0.017193920369371948,0.15762451467111405,-0.13559113977714254,-173.7227770024909,-2.0054546535892377,-5.181303758795194,-0.025,-0.9985,-0.0175,-0.0452
171,1455239.0,1425.68504,1.0,0.9,0.67,-9.88,-3.56,-18.5,35.06,2.94,-8.25,0.37,0.017193920369371948,0.15762451467111405,-0.13559113977714254,-173.7227770024909,-2.0054546535892377,-5.181303758795194,-0.025,-0.9985,-0.0175,-0.0452
172,1455276.0,1425.7026939999998,1.0,1.1,0.5,-9.88,-2.75,-19.56,35.88,2.69,-9.69,-1.5,0.25312931019525514,-0.005229758160804704,-0.1437418617283477,-173.93567700467025,-2.085681528609333,-4.940426564140192,-0.0242,-0.9986,-0.0182,-0.0431
173,1455276.0,1425.7026939999998,1.0,1.1,0.5,-9.88,-2.75,-19.56,35.88,2.69,-9.69,-1.5,0.25312931019525514,-0.005229758160804704,-0.1437418617283477,-173.93567700467025,-2.085681528609333,-4.940426564140192,-0.0242,-0.9986,-0.0182,-0.0431
174,1455308.0,1425.707891,1.0,0.64,1.01,-9.36,-2.75,-19.56,35.88,5.81,-9.63,-2.0,-0.09422131421079702,0.5579524204582348,0.38756769648161615,-174.1563208624574,-2.1315259137202647,-4.6536963885673295,-0.0235,-0.9987,-0.0186,-0.0406
175,1455308.0,1425.707891,1.0,0.64,1.01,-9.36,-2.75,-19.56,35.88,5.81,-9.63,-2.0,-0.09422131421079702,0.5579524204582348,0.38756769648161615,-174.1563208624574,-2.1315259137202647,-4.6536963885673295,-0.0235,-0.9987,-0.0186,-0.0406
176,1455343.0,1425.747181,1.0,0.95,0.3,-9.78,-2.75,-18.5,35.06,17.25,-8.31,0.94,0.2159765400227104,-0.08678003670568414,-0.021204463685812414,-174.8748825337537,-2.1315259137202647,-4.309658496908005,-0.0186,-0.9990000000000001,-0.0186,-0.0376
177,1455343.0,1425.747181,1.0,0.95,0.3,-9.78,-2.75,-18.5,35.06,17.25,-8.31,0.94,0.2159765400227104,-0.08678003670568414,-0.021204463685812414,-174.8748825337537,-2.1315259137202647,-4.309658496908005,-0.0186,-0.9990000000000001,-0.0186,-0.0376
178,1455378.0,1425.8164689999999,1.0,0.65,0.11,-9.39,-2.75,-18.5,37.06,12.31,-8.19,-1.63,-0.013964535892053686,-0.19527460297189334,0.3955728660492035,-175.13792719078654,-2.1086036789736795,-4.034456312516312,-0.0156,-0.9991,-0.0184,-0.0352
179,1455378.0,1425.8164689999999,1.0,0.65,0.11,-9.39,-2.75,-18.5,37.06,12.31,-8.19,-1.63,-0.013964535892053686,-0.19527460297189334,0.3955728660492035,-175.13792719078654,-2.1086036789736795,-4.034456312516312,-0.0156,-0.9991,-0.0184,-0.0352
180,1455415.0,1425.834257,1.0,0.66,0.23,-9.33,-2.5,-17.25,35.5,5.44,-6.0,-2.44,0.04657762848483163,-0.033957411484762716,0.4506851957304772,-175.4160320064456,-2.1659094260652934,-3.7822081305683333,-0.0134,-0.9992,-0.0189,-0.033
181,1455415.0,1425.834257,1.0,0.66,0.23,-9.33,-2.5,-17.25,35.5,5.44,-6.0,-2.44,0.04657762848483163,-0.033957411484762716,0.4506851957304772,-175.4160320064456,-2.1659094260652934,-3.7822081305683333,-0.0134,-0.9992,-0.0189,-0.033
182,1455448.0,1425.877687,1.0,0.38,0.12,-9.17,-2.5,-17.25,35.5,4.44,-3.25,-4.19,-0.2000167559882017,-0.11127260706343624,0.6308496695524557,-175.4160320064456,-2.2919839967771853,-3.621696182670093,-0.0124,-0.9992,-0.02,-0.0316
183,1455448.0,1425.877687,1.0,0.38,0.12,-9.17,-2.5,-17.25,35.5,4.44,-3.25,-4.19,-0.2000167559882017,-0.11127260706343624,0.6308496695524557,-175.4160320064456,-2.2919839967771853,-3.621696182670093,-0.0124,-0.9992,-0.02,-0.0316
184,1455484.0,1425.895013,1.0,0.69,0.17,-9.26,-2.5,-18.06,35.0,4.75,-2.06,-1.75,0.1189221574615342,-0.05042325580832598,0.5203205305196956,-175.71212631630448,-2.3034454566839293,-3.5414428939599265,-0.011000000000000001,-0.9993,-0.0201,-0.0309
185,1455484.0,1425.895013,1.0,0.69,0.17,-9.26,-2.5,-18.06,35.0,4.75,-2.06,-1.75,0.1189221574615342,-0.05042325580832598,0.5203205305196956,-175.71212631630448,-2.3034454566839293,-3.5414428939599265,-0.011000000000000001,-0.9993,-0.0201,-0.0309
186,1455519.0,1425.9357519999999,1.0,0.37,0.27,-9.04,-1.0,-18.06,35.88,2.63,0.81,-2.94,-0.1818609952387583,0.08317786726266975,0.7572628372796206,-175.71212631630448,-2.4295230620087382,-3.5414428939599265,-0.0101,-0.9993,-0.0212,-0.0309
187,1455519.0,1425.9357519999999,1.0,0.37,0.27,-9.04,-1.0,-18.06,35.88,2.63,0.81,-2.94,-0.1818609952387583,0.08317786726266975,0.7572628372796206,-175.71212631630448,-2.4295230620087382,-3.5414428939599265,-0.0101,-0.9993,-0.0212,-0.0309
188,1455552.0,1426.011417,1.0,0.49,0.3,-9.36,-1.0,-18.06,35.88,2.94,5.63,-3.75,-0.10644391950985307,0.11330222237906172,0.4303217048514494,-175.4160320064456,-2.555603608821701,-3.701951248377608,-0.0095,-0.9992,-0.0223,-0.0323
189,1455552.0,1426.011417,1.0,0.49,0.3,-9.36,-1.0,-18.06,35.88,2.94,5.63,-3.75,-0.10644391950985307,0.11330222237906172,0.4303217048514494,-175.4160320064456,-2.555603608821701,-3.701951248377608,-0.0095,-0.9992,-0.0223,-0.0323
190,1455589.0,1426.017223,1.0,0.9,0.49,-9.75,-1.69,-18.5,36.69,16.69,9.19,3.94,0.2469727365568866,0.3298764178003716,0.011611152890877108,-175.13792719078654,-2.509755787270372,-3.931261580029344,-0.0069,-0.9991,-0.0219,-0.0343
191,1455589.0,1426.017223,1.0,0.9,0.49,-9.75,-1.69,-18.5,36.69,16.69,9.19,3.94,0.2469727365568866,0.3298764178003716,0.011611152890877108,-175.13792719078654,-2.509755787270372,-3.931261580029344,-0.0069,-0.9991,-0.0219,-0.0343
192,1455626.0,1426.020907,1.0,1.17,-0.12,-9.86,-1.25,-17.69,36.25,21.44,4.0,3.88,0.4540953619477595,-0.13534462674158396,-0.11193756246421316,-175.13792719078654,-2.337829975144579,-4.11472114096103,0.0009,-0.9991,-0.0204,-0.0359
193,1455626.0,1426.020907,1.0,1.17,-0.12,-9.86,-1.25,-17.69,36.25,21.44,4.0,3.88,0.4540953619477595,-0.13534462674158396,-0.11193756246421316,-175.13792719078654,-2.337829975144579,-4.11472114096103,0.0009,-0.9991,-0.0204,-0.0359
194,1455659.0,1426.0670300000002,1.0,1.23,-0.55,-10.2,-1.25,-17.69,36.25,2.38,2.44,-5.19,0.4515450267903713,-0.5199638655457229,-0.4588818745454049,-175.13792719078654,-2.4180613422720283,-4.229388694927676,0.0032,-0.9991,-0.0211,-0.0369
195,1455659.0,1426.0670300000002,1.0,1.23,-0.55,-10.2,-1.25,-17.69,36.25,2.38,2.44,-5.19,0.4515450267903713,-0.5199638655457229,-0.4588818745454049,-175.13792719078654,-2.4180613422720283,-4.229388694927676,0.0032,-0.9991,-0.0211,-0.0369
196,1455693.0,1426.130236,1.0,0.78,-0.06,-9.82,-1.69,-16.19,36.25,-8.69,-0.19,-8.69,0.05054580697569875,-0.06017942609499286,-0.044148117821317,-174.8748825337537,-2.738999060214957,-4.229388694927676,0.001,-0.9990000000000001,-0.0239,-0.0369
197,1455693.0,1426.130236,1.0,0.78,-0.06,-9.82,-1.69,-16.19,36.25,-8.69,-0.19,-8.69,0.05054580697569875,-0.06017942609499286,-0.044148117821317,-174.8748825337537,-2.738999060214957,-4.229388694927676,0.001,-0.9990000000000001,-0.0239,-0.0369
198,1455728.0,1426.143475,1.0,0.81,0.11,-9.68,-1.69,-17.25,36.75,-6.44,-3.75,-5.88,0.10234819643506488,0.0768226689203672,0.09303979965602947,-174.8748825337537,-2.9453273542124467,-4.206454848857137,-0.0005,-0.9990000000000001,-0.0257,-0.0367
199,1455728.0,1426.143475,1.0,0.81,0.11,-9.68,-1.69,-17.25,36.75,-6.44,-3.75,-5.88,0.10234819643506488,0.0768226689203672,0.09303979965602947,-174.8748825337537,-2.9453273542124467,-4.206454848857137,-0.0005,-0.9990000000000001,-0.0257,-0.0367
200,1455765.0,1426.201964,1.0,0.52,-0.02,-9.48,-2.06,-17.0,35.88,-2.38,-0.19,-6.56,-0.16991406663405606,-0.0676550474303384,0.3141396889960042,-174.8748825337537,-3.163128706652845,-4.149120969117045,-0.002,-0.9990000000000001,-0.0276,-0.0362
201,1455765.0,1426.201964,1.0,0.52,-0.02,-9.48,-2.06,-17.0,35.88,-2.38,-0.19,-6.56,-0.16991406663405606,-0.0676550474303384,0.3141396889960042,-174.8748825337537,-3.163128706652845,-4.149120969117045,-0.002,-0.9990000000000001,-0.0276,-0.0362
202,1455800.0,1426.221945,1.0,0.47,-0.07,-9.3,-2.06,-17.0,35.88,0.06,2.44,-7.44,-0.21945433928759892,-0.1258100417309979,0.4979545153272138,-174.6246866421451,-3.369477361207863,-4.206454848857137,-0.0026,-0.9989,-0.0294,-0.0367
203,1455800.0,1426.221945,1.0,0.47,-0.07,-9.3,-2.06,-17.0,35.88,0.06,2.44,-7.44,-0.21945433928759892,-0.1258100417309979,0.4979545153272138,-174.6246866421451,-3.369477361207863,-4.206454848857137,-0.0026,-0.9989,-0.0294,-0.0367
204,1455835.0,1426.268375,1.0,0.39,0.05,-9.38,-1.69,-17.25,36.25,-5.06,11.13,-9.94,-0.34583998545308475,-0.03222228788760316,0.4248401304372447,-174.1563208624574,-3.7363468303015943,-4.49314033842009,-0.0043,-0.9987,-0.0326,-0.0392
205,1455835.0,1426.268375,1.0,0.39,0.05,-9.38,-1.69,-17.25,36.25,-5.06,11.13,-9.94,-0.34583998545308475,-0.03222228788760316,0.4248401304372447,-174.1563208624574,-3.7363468303015943,-4.49314033842009,-0.0043,-0.9987,-0.0326,-0.0392
206,1455869.0,1426.325577,1.0,1.21,0.04,-9.98,-1.25,-16.56,36.25,2.5,8.69,-3.31,0.373675053273507,-0.09847748533585317,-0.23908387759415994,-173.7227770024909,-3.919795697049856,-4.768384859798278,-0.0042,-0.9985,-0.0342,-0.0416
207,1455869.0,1426.325577,1.0,1.21,0.04,-9.98,-1.25,-16.56,36.25,2.5,8.69,-3.31,0.373675053273507,-0.09847748533585317,-0.23908387759415994,-173.7227770024909,-3.919795697049856,-4.768384859798278,-0.0042,-0.9985,-0.0342,-0.0416
208,1455904.0,1426.339018,1.0,1.27,-0.15,-10.25,-1.25,-16.56,36.25,0.25,3.56,-5.0,0.35653780678421765,-0.27598607852621154,-0.5129726906216519,-173.5168579087077,-4.080321683767285,-4.997776256010228,-0.0033,-0.9984,-0.0356,-0.0436
209,1455904.0,1426.339018,1.0,1.27,-0.15,-10.25,-1.25,-16.56,36.25,0.25,3.56,-5.0,0.35653780678421765,-0.27598607852621154,-0.5129726906216519,-173.5168579087077,-4.080321683767285,-4.997776256010228,-0.0033,-0.9984,-0.0356,-0.0436
210,1455939.0,1426.406536,1.0,1.31,-0.05,-10.32,-2.5,-17.25,37.56,-1.25,5.0,-3.38,0.3699951203213139,-0.18162461944875308,-0.58811387940335,-173.5168579087077,-4.160587661476331,-5.146891353190199,-0.0034,-0.9984,-0.0363,-0.0449
211,1455939.0,1426.406536,1.0,1.31,-0.05,-10.32,-2.5,-17.25,37.56,-1.25,5.0,-3.38,0.3699951203213139,-0.18162461944875308,-0.58811387940335,-173.5168579087077,-4.160587661476331,-5.146891353190199,-0.0034,-0.9984,-0.0363,-0.0449
212,1455976.0,1426.427809,1.0,1.33,0.05,-10.23,-2.5,-18.06,36.69,-2.56,-0.37,-3.13,0.37199090652220623,-0.08287583020342469,-0.5025233112909167,-173.1234747164887,-4.229388694927676,-5.330429626451235,-0.0034,-0.9982,-0.0369,-0.0465
213,1455976.0,1426.427809,1.0,1.33,0.05,-10.23,-2.5,-18.06,36.69,-2.56,-0.37,-3.13,0.37199090652220623,-0.08287583020342469,-0.5025233112909167,-173.1234747164887,-4.229388694927676,-5.330429626451235,-0.0034,-0.9982,-0.0369,-0.0465
214,1456011.0,1426.431241,1.0,1.06,0.01,-9.93,-2.5,-18.06,36.69,-0.56,-4.25,-4.0,0.1386427098309857,-0.10533832716030186,-0.1782527053768419,-173.1234747164887,-4.344060485976967,-5.273072468222583,-0.0035,-0.9982,-0.0379,-0.046
215,1456011.0,1426.431241,1.0,1.06,0.01,-9.93,-2.5,-18.06,36.69,-0.56,-4.25,-4.0,0.1386427098309857,-0.10533832716030186,-0.1782527053768419,-173.1234747164887,-4.344060485976967,-5.273072468222583,-0.0035,-0.9982,-0.0379,-0.046
216,1456044.0,1426.472541,1.0,0.89,0.17,-9.83,-1.69,-17.69,36.0,0.37,-2.69,-3.0,0.010832461133467038,0.0597132915259414,-0.06483504433861675,-173.1234747164887,-4.481672390551605,-5.15836210329675,-0.0038,-0.9982,-0.0391,-0.045
217,1456044.0,1426.472541,1.0,0.89,0.17,-9.83,-1.69,-17.69,36.0,0.37,-2.69,-3.0,0.010832461133467038,0.0597132915259414,-0.06483504433861675,-173.1234747164887,-4.481672390551605,-5.15836210329675,-0.0038,-0.9982,-0.0391,-0.045
218,1456078.0,1426.531108,1.0,0.96,0.16,-9.82,-2.5,-17.25,35.5,3.0,-0.63,-3.44,0.08274619853370753,0.04960179846461149,-0.060988660197145,-173.1234747164887,-4.539012581284228,-5.146891353190199,-0.0035,-0.9982,-0.0396,-0.0449
219,1456078.0,1426.531108,1.0,0.96,0.16,-9.82,-2.5,-17.25,35.5,3.0,-0.63,-3.44,0.08274619853370753,0.04960179846461149,-0.060988660197145,-173.1234747164887,-4.539012581284228,-5.146891353190199,-0.0035,-0.9982,-0.0396,-0.0449
220,1456113.0,1426.538119,1.0,1.07,0.12,-9.93,-2.5,-17.25,35.5,3.44,-0.75,-2.38,0.18385820275268186,0.021241405831847915,-0.17983811965241436,-173.1234747164887,-4.642227799866185,-5.123950007684243,-0.0024,-0.9982,-0.0405,-0.0447
221,1456113.0,1426.538119,1.0,1.07,0.12,-9.93,-2.5,-17.25,35.5,3.44,-0.75,-2.38,0.18385820275268186,0.021241405831847915,-0.17983811965241436,-173.1234747164887,-4.642227799866185,-5.123950007684243,-0.0024,-0.9982,-0.0405,-0.0447
222,1456148.0,1426.555638,1.0,0.95,0.27,-9.76,-1.69,-17.69,36.25,2.75,-2.25,-3.06,0.09839398196255042,0.18566726677906029,-0.0009412583243548768,-173.1234747164887,-4.71104003397371,-5.089538374458754,-0.0021,-0.9982,-0.0411,-0.0444
223,1456148.0,1426.555638,1.0,0.95,0.27,-9.76,-1.69,-17.69,36.25,2.75,-2.25,-3.06,0.09839398196255042,0.18566726677906029,-0.0009412583243548768,-173.1234747164887,-4.71104003397371,-5.089538374458754,-0.0021,-0.9982,-0.0411,-0.0444
224,1456181.0,1426.610103,1.0,1.1,-0.03,-9.85,-1.69,-17.25,35.88,4.69,1.5,-4.25,0.21369619287669794,-0.09596805094389756,-0.10185766111365703,-172.93498296022824,-4.883078110442899,-5.101008867683621,-0.0005,-0.9981,-0.0426,-0.0445
225,1456181.0,1426.610103,1.0,1.1,-0.03,-9.85,-1.69,-17.25,35.88,4.69,1.5,-4.25,0.21369619287669794,-0.09596805094389756,-0.10185766111365703,-172.93498296022824,-4.883078110442899,-5.101008867683621,-0.0005,-0.9981,-0.0426,-0.0445
226,1456218.0,1426.642323,1.0,1.11,-0.12,-9.81,-1.69,-16.56,37.06,3.56,0.5,-2.81,0.21609587029514205,-0.16596936877453194,-0.06291720142631085,-172.75138501198413,-4.986306217889054,-5.123950007684243,0.0006,-0.998,-0.0435,-0.0447
227,1456218.0,1426.642323,1.0,1.11,-0.12,-9.81,-1.69,-16.56,37.06,3.56,0.5,-2.81,0.21609587029514205,-0.16596936877453194,-0.06291720142631085,-172.75138501198413,-4.986306217889054,-5.123950007684243,0.0006,-0.998,-0.0435,-0.0447
228,1456250.0,1426.656823,1.0,0.79,-0.06,-9.62,-1.69,-16.56,37.06,0.5,-1.0,-4.38,-0.07893215889408127,-0.06860443089838987,0.1546469360576026,-172.75138501198413,-5.112479412053579,-5.123950007684243,0.0012,-0.998,-0.0446,-0.0447
229,1456250.0,1426.656823,1.0,0.79,-0.06,-9.62,-1.69,-16.56,37.06,0.5,-1.0,-4.38,-0.07893215889408127,-0.06860443089838987,0.1546469360576026,-172.75138501198413,-5.112479412053579,-5.123950007684243,0.0012,-0.998,-0.0446,-0.0447
230,1456287.0,1426.722994,1.0,0.92,-0.24,-9.75,-1.25,-17.25,36.25,3.31,-2.5,-1.94,0.03421530905499737,-0.24276332911735315,0.013468939759043508,-172.75138501198413,-5.261601195679236,-5.0551272004985615,0.0021,-0.998,-0.0459,-0.0441
231,1456287.0,1426.722994,1.0,0.92,-0.24,-9.75,-1.25,-17.25,36.25,3.31,-2.5,-1.94,0.03421530905499737,-0.24276332911735315,0.013468939759043508,-172.75138501198413,-5.261601195679236,-5.0551272004985615,0.0021,-0.998,-0.0459,-0.0441
232,1456322.0,1426.741683,1.0,0.82,-0.16,-9.51,-1.25,-17.25,37.19,-0.75,-1.69,-2.94,-0.02757258415847738,-0.1627124231502216,0.2614488800677748,-172.75138501198413,-5.3533728631413355,-4.997776256010228,0.0018,-0.998,-0.0467,-0.0436
233,1456322.0,1426.741683,1.0,0.82,-0.16,-9.51,-1.25,-17.25,37.19,-0.75,-1.69,-2.94,-0.02757258415847738,-0.1627124231502216,0.2614488800677748,-172.75138501198413,-5.3533728631413355,-4.997776256010228,0.0018,-0.998,-0.0467,-0.0436
234,1456355.0,1426.788859,1.0,0.9,-0.05,-9.78,-1.25,-17.25,37.19,-1.12,-0.5,-1.12,0.03852441437250016,-0.05707090293964773,-0.014559639425018034,-172.57231796598282,-5.410731896463338,-4.997776256010228,0.0019,-0.9979,-0.0472,-0.0436
235,1456355.0,1426.788859,1.0,0.9,-0.05,-9.78,-1.25,-17.25,37.19,-1.12,-0.5,-1.12,0.03852441437250016,-0.05707090293964773,-0.014559639425018034,-172.57231796598282,-5.410731896463338,-4.997776256010228,0.0019,-0.9979,-0.0472,-0.0436
236,1456390.0,1426.807035,1.0,0.98,-0.06,-9.96,-2.06,-17.69,36.75,0.12,0.56,-1.44,0.10136392635183147,-0.07123709218649721,-0.20085971176803066,-172.57231796598282,-5.422203865470181,-4.997776256010228,0.002,-0.9979,-0.0473,-0.0436
237,1456390.0,1426.807035,1.0,0.98,-0.06,-9.96,-2.06,-17.69,36.75,0.12,0.56,-1.44,0.10136392635183147,-0.07123709218649721,-0.20085971176803066,-172.57231796598282,-5.422203865470181,-4.997776256010228,0.002,-0.9979,-0.0473,-0.0436
