acc_x,acc_y,acc_z,lin_x,lin_y,lin_z,eul_x,eul_y,eul_z
7.3,-0.79,6.48,-0.0087524600034739,1.0730251405019824,0.0725326572567652,-40.827870624577365,34.519009695351265,-98.50614716044564
7.3,-0.79,6.48,-0.0087524600034739,1.0730251405019824,0.0725326572567652,-40.827870624577365,34.519009695351265,-98.50614716044564
7.91,-1.13,5.56,-0.0824886179052268,0.0449614139865077,0.0727004367873149,-41.45208595969682,34.89118212049759,-98.15564818979227
7.91,-1.13,5.56,-0.0824886179052268,0.0449614139865077,0.0727004367873149,-41.45208595969682,34.89118212049759,-98.15564818979227
8.26,-0.84,5.15,-0.5462824008702649,-0.2073957061012728,0.0539958710159247,-41.90575353350423,35.408051904136364,-97.77152203051998
8.26,-0.84,5.15,-0.5462824008702649,-0.2073957061012728,0.0539958710159247,-41.90575353350423,35.408051904136364,-97.77152203051998
8.15,-1.16,5.19,-0.1306111407173664,0.0142446506842486,0.0759286588122147,-43.14768015800515,36.27518399341682,-97.02495429303242
8.15,-1.16,5.19,-0.1306111407173664,0.0142446506842486,0.0759286588122147,-43.14768015800515,36.27518399341682,-97.02495429303242
8.05,-1.34,5.32,0.1582075331037531,0.2627946018461731,0.0697917092724562,-43.97446806674141,36.83030903162442,-96.4901268036236
8.05,-1.34,5.32,0.1582075331037531,0.2627946018461731,0.0697917092724562,-43.97446806674141,36.83030903162442,-96.4901268036236
8.87,-1.09,3.93,-0.6830023849637135,-1.0723049218533005,0.1271061111226394,-44.20936716761421,37.011521124582174,-96.2495069125742
8.87,-1.09,3.93,-0.6830023849637135,-1.0723049218533005,0.1271061111226394,-44.20936716761421,37.011521124582174,-96.2495069125742
8.39,-1.32,4.86,-0.0039778924445375,-0.0695890203871676,0.0214958599461372,-44.91524480207666,37.39842842920397,-95.71869958125956
8.39,-1.32,4.86,-0.0039778924445375,-0.0695890203871676,0.0214958599461372,-44.91524480207666,37.39842842920397,-95.71869958125956
7.93,-1.17,5.74,0.3526237648451072,1.2294442723126755,0.0308879702785294,-46.407242416234105,38.51327351873995,-94.59753382343494
7.93,-1.17,5.74,0.3526237648451072,1.2294442723126755,0.0308879702785294,-46.407242416234105,38.51327351873995,-94.59753382343494
8.52,-1.19,4.38,-0.2129729714594852,-0.0339692429228704,0.1555159420789831,-46.70663424071843,38.97485427752672,-94.47932062212016
8.52,-1.19,4.38,-0.2129729714594852,-0.0339692429228704,0.1555159420789831,-46.70663424071843,38.97485427752672,-94.47932062212016
8.82,-0.87,4.38,-0.6263228549192752,0.0204169279287476,-0.0595044094170624,-46.656712208804855,39.278884517127096,-94.42869817988996
8.82,-0.87,4.38,-0.6263228549192752,0.0204169279287476,-0.0595044094170624,-46.656712208804855,39.278884517127096,-94.42869817988996
8.63,-1.34,4.53,-0.0923220716565935,0.0592240110888633,-0.0311022408117001,-46.80650649596007,39.31538744994931,-94.42869817988996
8.63,-1.34,4.53,-0.0923220716565935,0.0592240110888633,-0.0311022408117001,-46.80650649596007,39.31538744994931,-94.42869817988996
8.65,-1.52,4.18,-0.0301246559372494,-0.3188422518549438,0.0853984281324784,-46.84396830154976,39.24238573337944,-94.46244378855972
8.65,-1.52,4.18,-0.0301246559372494,-0.3188422518549438,0.0853984281324784,-46.84396830154976,39.24238573337944,-94.46244378855972
8.65,-1.39,4.23,-0.1255425576488424,-0.2306799903432321,0.0815008593300117,-46.84396830154976,39.23022039326242,-94.41182940148542
8.65,-1.39,4.23,-0.1255425576488424,-0.2306799903432321,0.0815008593300117,-46.84396830154976,39.23022039326242,-94.41182940148542
8.27,-1.23,5.02,0.0870781993388793,0.6577742911220423,0.0770071304421033,-46.94389240735087,39.30321934435096,-94.26013087807388
8.27,-1.23,5.02,0.0870781993388793,0.6577742911220423,0.0770071304421033,-46.94389240735087,39.30321934435096,-94.26013087807388
8.63,-0.81,4.48,-0.5806194043216517,0.2185267792454897,0.0691694657921004,-46.769049990136345,39.33972504606741,-94.31067299052192
8.63,-0.81,4.48,-0.5806194043216517,0.2185267792454897,0.0691694657921004,-46.769049990136345,39.33972504606741,-94.31067299052192
9.43,-0.3,3.72,-1.5112399890925288,-0.5368211624288803,-0.2074039610557392,-46.7191162156521,39.24238573337944,-94.42869817988996
9.43,-0.3,3.72,-1.5112399890925288,-0.5368211624288803,-0.2074039610557392,-46.7191162156521,39.24238573337944,-94.42869817988996
9.39,0.33,4.25,-1.8400856494282785,0.2592915611044135,-0.3368381914018208,-47.46911772602086,39.10859227464813,-94.36123915025333
9.39,0.33,4.25,-1.8400856494282785,0.2592915611044135,-0.3368381914018208,-47.46911772602086,39.10859227464813,-94.36123915025333
11.01,2.58,3.49,-4.5360330322221305,0.0683782064688995,-1.1238728032089025,-48.13341793224112,39.181563633405815,-94.22644947426409
11.01,2.58,3.49,-4.5360330322221305,0.0683782064688995,-1.1238728032089025,-48.13341793224112,39.181563633405815,-94.22644947426409
11.8,6.11,4.51,-7.562403401528346,2.111107127089149,-1.8237189318312712,-48.7113769507911,41.158178579890034,-91.38478587581724
11.8,6.11,4.51,-7.562403401528346,2.111107127089149,-1.8237189318312712,-48.7113769507911,41.158178579890034,-91.38478587581724
11.81,4.81,5.26,-5.635823939056616,2.314565048125526,-2.569135921142625,-50.681403847895496,40.86455395752174,-88.82192034919494
11.81,4.81,5.26,-5.635823939056616,2.314565048125526,-2.569135921142625,-50.681403847895496,40.86455395752174,-88.82192034919494
12.41,4.49,4.41,-4.659840918474701,1.1412719524247177,-3.2547312801371664,-53.98836120988355,38.44045190034536,-85.89062667972252
12.41,4.49,4.41,-4.659840918474701,1.1412719524247177,-3.2547312801371664,-53.98836120988355,38.44045190034536,-85.89062667972252
13.38,5.78,5.01,-4.535317922558268,1.7627601679506415,-4.817182190353124,-57.95943792852192,35.143514652215984,-83.51817693642106
13.38,5.78,5.01,-4.535317922558268,1.7627601679506415,-4.817182190353124,-57.95943792852192,35.143514652215984,-83.51817693642106
13.32,5.16,5.56,-2.528873747764899,2.0766091881244297,-5.168465754065567,-61.84791552643628,31.769115255908964,-81.79381255981484
13.32,5.16,5.56,-2.528873747764899,2.0766091881244297,-5.168465754065567,-61.84791552643628,31.769115255908964,-81.79381255981484
12.68,3.67,5.71,0.7352348079316935,1.8001606004898745,-4.443762330513442,-67.97333851203919,26.39401255557817,-78.92899912643803
12.68,3.67,5.71,0.7352348079316935,1.8001606004898745,-4.443762330513442,-67.97333851203919,26.39401255557817,-78.92899912643803
12.57,5.22,5.83,0.7823258485111181,2.464691396657274,-4.772631964006152,-71.87466002619819,22.64135196781312,-76.38419493533601
12.57,5.22,5.83,0.7823258485111181,2.464691396657274,-4.772631964006152,-71.87466002619819,22.64135196781312,-76.38419493533601
11.58,6.15,6.35,1.8809687676102471,3.2354051492054983,-4.272963276499082,-76.26760036880688,17.416134643761747,-72.45600677848147
11.58,6.15,6.35,1.8809687676102471,3.2354051492054983,-4.272963276499082,-76.26760036880688,17.416134643761747,-72.45600677848147
10.32,5.02,6.69,4.037808178379096,3.1215827517319306,-2.4575550797719683,-80.34634707870403,12.423127669242316,-69.36104422677951
10.32,5.02,6.69,4.037808178379096,3.1215827517319306,-2.4575550797719683,-80.34634707870403,12.423127669242316,-69.36104422677951
10.29,6.56,5.52,4.058415554779302,2.4411933409917204,-2.721635527422458,-85.2504534784823,5.582817194583068,-65.31282652906373
10.29,6.56,5.52,4.058415554779302,2.4411933409917204,-2.721635527422458,-85.2504534784823,5.582817194583068,-65.31282652906373
10.27,5.4,3.41,4.974374469538158,0.0468248298794748,-1.2167072958565406,-91.72982641130142,-1.7762402933693409,-61.367629313530685
10.27,5.4,3.41,4.974374469538158,0.0468248298794748,-1.2167072958565406,-91.72982641130142,-1.7762402933693409,-61.367629313530685
9.85,5.94,1.14,3.984424194745815,-0.9210724038213978,-1.0045335366551242,-96.99036426880296,-6.604129057804274,-57.907047347217045
9.85,5.94,1.14,3.984424194745815,-0.9210724038213978,-1.0045335366551242,-96.99036426880296,-6.604129057804274,-57.907047347217045
8.85,5.27,0.73,4.825636721019804,-1.0436829491126467,0.7373470423038153,-104.35233464317456,-12.872771138472864,-51.95268548055449
8.85,5.27,0.73,4.825636721019804,-1.0436829491126467,0.7373470423038153,-104.35233464317456,-12.872771138472864,-51.95268548055449
7.31,4.27,-0.92,3.518565143019212,-1.895799918563139,2.2872722329832254,-107.95770664544784,-17.230672895970507,-47.84492701246389
7.31,4.27,-0.92,3.518565143019212,-1.895799918563139,2.2872722329832254,-107.95770664544784,-17.230672895970507,-47.84492701246389
6.96,5.1,-3.09,2.3824539451099067,-2.5685084669988902,1.3375073365195185,-110.61126490677216,-22.69978760508081,-43.27093047786308
6.96,5.1,-3.09,2.3824539451099067,-2.5685084669988902,1.3375073365195185,-110.61126490677216,-22.69978760508081,-43.27093047786308
6.19,4.74,-3.24,2.3239557193257903,-2.552798998415988,2.101862716219915,-112.4856431571934,-26.45286606002896,-39.68064610609173
6.19,4.74,-3.24,2.3239557193257903,-2.552798998415988,2.101862716219915,-112.4856431571934,-26.45286606002896,-39.68064610609173
5.32,5.32,-3.94,1.9711556334361853,-2.259797256618292,1.8608170148590928,-113.52379683838042,-30.971654123503782,-35.44414023991489
5.32,5.32,-3.94,1.9711556334361853,-2.259797256618292,1.8608170148590928,-113.52379683838042,-30.971654123503782,-35.44414023991489
3.7,4.17,-3.93,1.0871255924197398,-2.1115964090555432,3.4126591842754586,-113.3150238515142,-35.612600576556765,-31.614261757826505
3.7,4.17,-3.93,1.0871255924197398,-2.1115964090555432,3.4126591842754586,-113.3150238515142,-35.612600576556765,-31.614261757826505
2.94,3.95,-4.6,0.3319214599211648,-2.1358515949294183,3.424325493295465,-112.91993898771476,-38.64682184617822,-29.262840587223423
2.94,3.95,-4.6,0.3319214599211648,-2.1358515949294183,3.424325493295465,-112.91993898771476,-38.64682184617822,-29.262840587223423
2.0,3.27,-4.84,-0.4224966428911561,-2.047771467177549,3.9974651514210526,-112.03329231056664,-42.151265384526,-26.582368805630427
2.0,3.27,-4.84,-0.4224966428911561,-2.047771467177549,3.9974651514210526,-112.03329231056664,-42.151265384526,-26.582368805630427
0.51,2.58,-4.84,-1.5277221461646917,-1.2996195083596491,4.676430299284544,-111.2987386824523,-44.24647435383947,-25.07751783117069
0.51,2.58,-4.84,-1.5277221461646917,-1.2996195083596491,4.676430299284544,-111.2987386824523,-44.24647435383947,-25.07751783117069
1.08,3.9,-5.49,-0.8618609975719382,-1.537115419642909,3.2179496875286304,-110.1495692444103,-46.09573205363145,-24.05720924110893
1.08,3.9,-5.49,-0.8618609975719382,-1.537115419642909,3.2179496875286304,-110.1495692444103,-46.09573205363145,-24.05720924110893
0.22,4.08,-5.83,-1.432527480980322,-0.9977886102190948,2.9047674375716,-109.3528985741182,-47.29392563415834,-23.42489188862897
0.22,4.08,-5.83,-1.432527480980322,-0.9977886102190948,2.9047674375716,-109.3528985741182,-47.29392563415834,-23.42489188862897
0.42,5.04,-5.31,-0.4389029912872242,-0.6442456712869005,2.5151198670809007,-108.7211476270906,-48.04558210494044,-22.769918267605057
0.42,5.04,-5.31,-0.4389029912872242,-0.6442456712869005,2.5151198670809007,-108.7211476270906,-48.04558210494044,-22.769918267605057
0.93,6.37,-7.04,-0.4701413128043521,-1.3175012168380391,0.3702016379505952,-108.76048947633528,-48.12086811718631,-22.38430579933233
0.93,6.37,-7.04,-0.4701413128043521,-1.3175012168380391,0.3702016379505952,-108.76048947633528,-48.12086811718631,-22.38430579933233
0.23,5.93,-6.62,-0.8269340399088599,-0.9081733250932268,1.0013333500873411,-108.2309531214748,-48.29662147902253,-21.75385480831424
0.23,5.93,-6.62,-0.8269340399088599,-0.9081733250932268,1.0013333500873411,-108.2309531214748,-48.29662147902253,-21.75385480831424
0.17,7.13,-6.06,0.0777874810560681,-0.2910456315403427,0.4525791456525585,-107.7825204980392,-48.171071061668,-21.42721774773248
0.17,7.13,-6.06,0.0777874810560681,-0.2910456315403427,0.4525791456525585,-107.7825204980392,-48.171071061668,-21.42721774773248
0.41,6.38,-6.79,-0.4956356247734516,-1.1666634989313172,0.5670698359602522,-108.27006185000631,-47.85746338279603,-20.471639758994087
0.41,6.38,-6.79,-0.4956356247734516,-1.1666634989313172,0.5670698359602522,-108.27006185000631,-47.85746338279603,-20.471639758994087
0.02,6.24,-6.2,-0.3810100882465661,-0.6822463312909828,1.0449508921731194,-108.7211476270906,-47.36899357064292,-19.69193249784897
0.02,6.24,-6.2,-0.3810100882465661,-0.6822463312909828,1.0449508921731194,-108.7211476270906,-47.36899357064292,-19.69193249784897
-0.21,6.56,-5.67,0.0098124549766749,-0.1864521383804525,1.1353329537941208,-109.29346359122704,-46.63175471031061,-18.80859962930239
-0.21,6.56,-5.67,0.0098124549766749,-0.1864521383804525,1.1353329537941208,-109.29346359122704,-46.63175471031061,-18.80859962930239
-0.59,6.68,-5.94,-0.2941143263748152,-0.0486629121050308,0.8531462900545712,-109.53146516582775,-46.18291852714496,-18.228077382152183
-0.59,6.68,-5.94,-0.2941143263748152,-0.0486629121050308,0.8531462900545712,-109.53146516582775,-46.18291852714496,-18.228077382152183
-0.6,7.27,-5.91,0.0164320966135222,0.1497842776032625,0.4195154714879194,-109.49174968741804,-45.99612491286469,-18.019205613951
-0.6,7.27,-5.91,0.0164320966135222,0.1497842776032625,0.4195154714879194,-109.49174968741804,-45.99612491286469,-18.019205613951
-0.22,7.54,-6.05,0.3570395424796379,-0.1132900066657209,0.1442389065153317,-109.94966130041858,-45.52349068442483,-17.578451378167774
-0.22,7.54,-6.05,0.3570395424796379,-0.1132900066657209,0.1442389065153317,-109.94966130041858,-45.52349068442483,-17.578451378167774
-0.32,7.38,-6.39,0.1160125977436576,-0.2633648026937783,0.0436545550626821,-110.61126490677216,-45.13852596002858,-16.894639006068054
-0.32,7.38,-6.39,0.1160125977436576,-0.2633648026937783,0.0436545550626821,-110.61126490677216,-45.13852596002858,-16.894639006068054
-0.72,7.0,-6.11,-0.1308597816601332,0.0103335608450705,0.4882129564253557,-111.01493444523936,-44.77888374446125,-16.2808838756779
-0.72,7.0,-6.11,-0.1308597816601332,0.0103335608450705,0.4882129564253557,-111.01493444523936,-44.77888374446125,-16.2808838756779
-1.0,7.2,-5.95,-0.1392169333784831,0.3468687532470489,0.4203407831948365,-110.97447448991244,-44.605429900527255,-16.15356023236983
-1.0,7.2,-5.95,-0.1392169333784831,0.3468687532470489,0.4203407831948365,-110.97447448991244,-44.605429900527255,-16.15356023236983
-1.27,6.82,-5.92,-0.4802953772475242,0.4040134113128557,0.7084199790522979,-111.05541520272617,-44.580659579875785,-15.991540967744186
-1.27,6.82,-5.92,-0.4802953772475242,0.4040134113128557,0.7084199790522979,-111.05541520272617,-44.580659579875785,-15.991540967744186
-0.94,6.95,-6.67,-0.5772644735446052,-0.1780097305795642,0.1469358083998013,-111.13643927299914,-44.617815884427785,-15.991540967744186
-0.94,6.95,-6.67,-0.5772644735446052,-0.1780097305795642,0.1469358083998013,-111.13643927299914,-44.617815884427785,-15.991540967744186
-1.03,6.79,-6.27,-0.4990153703358673,0.0472999115566112,0.5208195913324314,-111.23783703748737,-44.5682752426895,-15.922114008308863
-1.03,6.79,-6.27,-0.4990153703358673,0.0472999115566112,0.5208195913324314,-111.23783703748737,-44.5682752426895,-15.922114008308863
-0.56,7.48,-6.31,0.1334263947635254,-0.0382230661698965,0.0055869763074678,-111.46137512854489,-44.19699919021153,-15.887402736014533
-0.56,7.48,-6.31,0.1334263947635254,-0.0382230661698965,0.0055869763074678,-111.46137512854489,-44.19699919021153,-15.887402736014533
-0.48,7.32,-6.42,0.0504338959547066,-0.1877235456599812,0.0602960000396208,-111.7059670825154,-44.0239043163285,-15.887402736014533
-0.48,7.32,-6.42,0.0504338959547066,-0.1877235456599812,0.0602960000396208,-111.7059670825154,-44.0239043163285,-15.887402736014533
-0.78,7.13,-6.46,-0.2705642590993761,-0.0652498645725958,0.1578450254515306,-111.82855209706509,-43.887975339090566,-15.82955387412607
-0.78,7.13,-6.46,-0.2705642590993761,-0.0652498645725958,0.1578450254515306,-111.82855209706509,-43.887975339090566,-15.82955387412607
-0.71,7.05,-6.66,-0.3705026207810732,-0.2421257118937778,0.0924180207010536,-112.01279388618184,-43.71506869334832,-15.817984589415364
-0.71,7.05,-6.66,-0.3705026207810732,-0.2421257118937778,0.0924180207010536,-112.01279388618184,-43.71506869334832,-15.817984589415364
-0.56,7.12,-6.83,-0.3216459332315777,-0.4064270874463252,-0.0618990785740916,-112.09482025042286,-43.64099789729804,-15.817984589415364
-0.56,7.12,-6.83,-0.3216459332315777,-0.4064270874463252,-0.0618990785740916,-112.09482025042286,-43.64099789729804,-15.817984589415364
-0.49,7.41,-6.76,-0.0930529799852213,-0.3009458417130393,-0.2306092246724169,-112.32084385114356,-43.29558684746807,-15.690733139619653
-0.49,7.41,-6.76,-0.0930529799852213,-0.3009458417130393,-0.2306092246724169,-112.32084385114356,-43.29558684746807,-15.690733139619653
-0.55,7.28,-6.21,0.0912833176625025,-0.0132511860861224,0.2224707569983444,-112.54753437473772,-43.01216531236248,-15.505674829864253
-0.55,7.28,-6.21,0.0912833176625025,-0.0132511860861224,0.2224707569983444,-112.54753437473772,-43.01216531236248,-15.505674829864253
-0.69,7.18,-6.34,-0.1155824277910748,-0.024082847310558,0.2040378179501942,-112.63013397663045,-42.93827474491775,-15.436288478593855
-0.69,7.18,-6.34,-0.1155824277910748,-0.024082847310558,0.2040378179501942,-112.63013397663045,-42.93827474491775,-15.436288478593855
-0.8,7.43,-6.15,0.0171958213510643,0.2518019252276451,0.1317494788483895,-112.75420115193155,-42.64289936464318,-15.343782195666376
-0.8,7.43,-6.15,0.0171958213510643,0.2518019252276451,0.1317494788483895,-112.75420115193155,-42.64289936464318,-15.343782195666376
-0.65,7.58,-6.25,0.1409221441944841,0.1560332360257712,-0.0369872636607713,-112.89920199482374,-42.45844069063149,-15.29753283007483
-0.65,7.58,-6.25,0.1409221441944841,0.1560332360257712,-0.0369872636607713,-112.89920199482374,-42.45844069063149,-15.29753283007483
-0.84,7.54,-6.2,0.0218354163211444,0.3111595225269874,0.0138004164449228,-113.16922611259191,-42.18810962075827,-15.135679738336451
-0.84,7.54,-6.2,0.0218354163211444,0.3111595225269874,0.0138004164449228,-113.16922611259191,-42.18810962075827,-15.135679738336451
-0.7,7.3,-6.3,-0.0356673214512723,0.0535677608476268,0.1388757816404133,-113.16922611259191,-42.2372423793781,-15.077882439571027
-0.7,7.3,-6.3,-0.0356673214512723,0.0535677608476268,0.1388757816404133,-113.16922611259191,-42.2372423793781,-15.077882439571027
-0.5,7.44,-6.66,0.015724930897164,-0.2093945203883103,-0.1891044318265251,-113.39846355737878,-42.11442571308733,-14.950741939900691
-0.5,7.44,-6.66,0.015724930897164,-0.2093945203883103,-0.1891044318265251,-113.39846355737878,-42.11442571308733,-14.950741939900691
-0.36,7.13,-6.64,-0.009016200699583,-0.4119991833496126,0.0656913520514219,-113.48199585621887,-42.163546289132256,-14.89295693159816
-0.36,7.13,-6.64,-0.009016200699583,-0.4119991833496126,0.0656913520514219,-113.48199585621887,-42.163546289132256,-14.89295693159816
-0.65,6.86,-6.54,-0.2754689298182686,-0.2610596796203692,0.3140389412669346,-113.52379683838042,-42.24952684009253,-14.800508833176536
-0.65,6.86,-6.54,-0.2754689298182686,-0.2610596796203692,0.3140389412669346,-113.52379683838042,-42.24952684009253,-14.800508833176536
-0.57,7.14,-6.41,-0.0154646804989579,-0.1296377148659129,0.1954297389435826,-113.48199585621887,-42.26181180963939,-14.800508833176536
-0.57,7.14,-6.41,-0.0154646804989579,-0.1296377148659129,0.1954297389435826,-113.48199585621887,-42.26181180963939,-14.800508833176536
-0.85,7.03,-6.26,-0.1891197691519467,0.1082585805823823,0.3576546146351536,-113.60746869012196,-42.151265384526,-14.73117911928188
-0.85,7.03,-6.26,-0.1891197691519467,0.1082585805823823,0.3576546146351536,-113.60746869012196,-42.151265384526,-14.73117911928188
-0.76,7.04,-6.56,-0.2660197522246429,-0.108737906959146,0.1583232249049277,-113.62840124543835,-42.18810962075827,-14.754288420181696
-0.76,7.04,-6.56,-0.2660197522246429,-0.108737906959146,0.1583232249049277,-113.62840124543835,-42.18810962075827,-14.754288420181696
-0.67,6.94,-6.71,-0.329824051617547,-0.2821325833704127,0.1397881875825231,-113.71219000408917,-42.151265384526,-14.800508833176536
-0.67,6.94,-6.71,-0.329824051617547,-0.2821325833704127,0.1397881875825231,-113.71219000408917,-42.151265384526,-14.800508833176536
-0.72,7.26,-6.5,-0.1091829438023568,0.0121036932647982,0.0360854008894655,-113.71219000408917,-42.12670509670736,-14.84673166768115
-0.72,7.26,-6.5,-0.1091829438023568,0.0121036932647982,0.0360854008894655,-113.71219000408917,-42.12670509670736,-14.84673166768115
-0.59,7.25,-6.39,0.0219172286727602,-0.0185825882892123,0.1246112517559208,-113.73315185618264,-42.065313242449655,-14.89295693159816
-0.59,7.25,-6.39,0.0219172286727602,-0.0185825882892123,0.1246112517559208,-113.73315185618264,-42.065313242449655,-14.89295693159816
-0.8,7.01,-6.47,-0.2850915963371602,-0.0159773972556087,0.2379788537814793,-113.71219000408917,-42.11442571308733,-14.916070477056891
-0.8,7.01,-6.47,-0.2850915963371602,-0.0159773972556087,0.2379788537814793,-113.71219000408917,-42.11442571308733,-14.916070477056891
-0.65,7.15,-6.31,-0.050371688486517,0.0369085836695104,0.2485539317733085,-113.6702839060659,-42.11442571308733,-15.066323443247011
-0.65,7.15,-6.31,-0.050371688486517,0.0369085836695104,0.2485539317733085,-113.6702839060659,-42.11442571308733,-15.066323443247011
-0.59,7.02,-6.41,-0.1306807342622342,-0.1055751012974317,0.2836055055287741,-113.71219000408917,-42.08986846540722,-15.135679738336451
-0.59,7.02,-6.41,-0.1306807342622342,-0.1055751012974317,0.2836055055287741,-113.71219000408917,-42.08986846540722,-15.135679738336451
-0.41,7.46,-6.78,0.0045954871174476,-0.2283616797349479,-0.2797730441086887,-113.71219000408917,-42.065313242449655,-15.32065719904219
-0.41,7.46,-6.78,0.0045954871174476,-0.2283616797349479,-0.2797730441086887,-113.71219000408917,-42.065313242449655,-15.32065719904219
-0.53,7.27,-6.76,-0.1650450628413395,-0.2031956384570344,-0.1313010795608011,-113.77509319472593,-42.040760042586655,-15.343782195666376
-0.53,7.27,-6.76,-0.1650450628413395,-0.2031956384570344,-0.1313010795608011,-113.77509319472593,-42.040760042586655,-15.343782195666376
-0.48,7.42,-6.51,0.0573376665849458,-0.0405350071716488,-0.0757570602856798,-113.75411958451244,-41.979385883293695,-15.37847086963133
-0.48,7.42,-6.51,0.0573376665849458,-0.0405350071716488,-0.0757570602856798,-113.75411958451244,-41.979385883293695,-15.37847086963133
-0.51,7.32,-6.45,0.0155347190021126,-0.0284844253554887,0.0371081832095274,-113.77509319472593,-41.9548397514564,-15.37847086963133
-0.51,7.32,-6.45,0.0155347190021126,-0.0284844253554887,0.0371081832095274,-113.77509319472593,-41.9548397514564,-15.37847086963133
