TIME,ELAPSED_SECONDS,PSTATE,acc_x,acc_y,acc_z,mag_x,mag_y,mag_z,gyr_x,gyr_y,gyr_z,lin_x,lin_y,lin_z,eul_x,eul_y,eul_z,qua_w,qua_x,qua_y,qua_z
258912.0,205.80843000000002,1.0,9.39,2.39,-0.28,-35.5,-27.87,-1.88,0.88,0.0,-0.06,-0.20712054437423894,-0.03045248648407295,0.11548011571022344,-90.12861881978974,-5.743441500733661,-87.76790692497644,-0.1257,-0.7079,-0.0501,-0.6932
258947.0,205.812722,1.0,9.38,2.41,-0.3,-34.75,-28.19,-1.06,1.0,1.31,2.13,-0.22768077258853864,-0.005049246483256109,0.12002850585130533,-90.14484388488701,-5.743441500733661,-87.76790692497644,-0.1253,-0.708,-0.0501,-0.6932
258981.0,205.816148,1.0,9.3,2.33,-0.1,-34.75,-28.56,-2.25,1.63,-0.69,0.06,-0.02174620744856904,-0.03664761454049215,0.21878871320563487,-90.16107125343979,-5.743441500733661,-87.76790692497644,-0.125,-0.7081,-0.0501,-0.6932
259016.0,205.87227,1.0,9.3,2.43,-0.24,-34.75,-28.56,-2.25,1.25,1.44,1.37,-0.1790769422317608,0.05110465216574922,0.1932312655804936,-90.11239605684216,-5.7319679651977244,-87.815613588484,-0.1246,-0.7078,-0.05,-0.6935
259053.0,205.89199299999999,1.0,9.34,2.2,-0.07,-34.5,-28.56,-1.88,1.63,1.94,0.06,0.00921631708217907,-0.16088976051802195,0.2121448254503555,-90.07995743217865,-5.777862453568277,-87.8633393777306,-0.1241,-0.7076,-0.0504,-0.6938
259088.0,205.939813,1.0,9.47,2.26,-0.11,-34.75,-28.19,-1.06,-0.44,0.37,-0.25,-0.03256843605572241,-0.13620033591466796,0.07109717720305042,-90.07995743217865,-5.7663887448030415,-87.8633393777306,-0.124,-0.7076,-0.0503,-0.6938
259123.0,205.95761399999998,1.0,9.41,2.41,-0.12,-34.75,-28.19,-1.06,1.0,0.06,0.25,-0.0631312302911601,0.02445965323994259,0.09243278124658616,-90.06374156785671,-5.7319679651977244,-87.87925222971974,-0.1241,-0.7075,-0.05,-0.6939
259158.0,206.023914,1.0,9.34,2.28,-0.15,-35.88,-26.69,-1.88,-1.56,-0.25,0.56,-0.0821480261805469,-0.0843685632003941,0.19194076636541446,-90.06374156785671,-5.720494487173099,-87.87925222971974,-0.124,-0.7075,-0.0499,-0.6939
259194.0,206.07137,1.0,9.4,2.33,-0.16,-34.75,-28.19,-1.88,-1.81,-0.19,0.56,-0.09819960130328843,-0.046466468352261085,0.12147071897361172,-90.06374156785671,-5.6516548202737225,-87.89516721143072,-0.1242,-0.7075,-0.0493,-0.6940000000000001
259227.0,206.079548,1.0,9.44,2.18,-0.05,-34.75,-28.19,-1.88,-3.56,1.94,2.0,0.024185916706385424,-0.18511177915466528,0.11987299881682745,-90.04752800047241,-5.605762844556931,-87.91108432402599,-0.1243,-0.7074,-0.0489,-0.6941
259262.0,206.099338,1.0,9.63,2.02,-0.63,-35.19,-27.5,-1.06,-4.25,0.5,1.37,-0.5437085629404979,-0.4361669561317297,-0.028406653876681176,-89.98269667432403,-5.364844561963229,-87.95884845875601,-0.1253,-0.7070000000000001,-0.0468,-0.6944
259297.0,206.14768700000002,1.0,10.0,3.02,-0.15,-35.19,-27.87,-1.06,-13.25,-12.5,0.5,-0.14044926946459382,0.5031813167170314,-0.6274279451379297,-90.16107125343979,-5.0551272004985615,-87.75200894857093,-0.1273,-0.7081,-0.0441,-0.6931
259334.0,206.165906,1.0,9.05,2.44,-0.17,-34.75,-28.19,-2.69,7.56,-31.69,-12.88,0.047801373466096315,0.12655470457827156,0.4329261436319296,-91.18809708858042,-5.215716631990905,-86.64435486876549,-0.1298,-0.7144,-0.0455,-0.6861
259368.0,206.227154,1.0,9.81,2.64,-0.87,-34.75,-28.19,-2.69,2.19,-37.75,-6.19,-0.4433729308986177,0.0382204855121655,-0.3798390732103396,-92.20807957779185,-5.273072468222583,-85.59354940204219,-0.1306,-0.7206,-0.046,-0.6794
259403.0,206.28143799999998,1.0,9.7,2.88,-1.32,-34.75,-27.87,-0.69,11.81,-81.44,-14.63,-0.510708430134682,0.2027189592994585,-0.3827995397410859,-94.46244378855972,-5.536926565771378,-83.24196162167489,-0.1322,-0.7341,-0.0483,-0.6642
259440.0,206.303662,1.0,10.0,2.87,-2.17,-34.5,-27.5,0.88,24.37,-123.31,-13.69,-0.7124180758635333,0.014478369061600825,-0.7970310052930287,-97.6844263573576,-5.835231869336321,-80.01681335104666,-0.1313,-0.7529,-0.0509,-0.6429
259473.0,206.347464,1.0,9.68,2.59,-2.27,-34.5,-27.5,0.88,29.0,-199.25,-18.62,0.3855361711846936,-0.1601419844986789,-0.4592701441229394,-104.42711160225716,-6.1221011960432445,-73.21072347606676,-0.1305,-0.7903,-0.0534,-0.5963
259510.0,206.365895,1.0,8.16,2.32,-2.85,-33.69,-29.0,5.25,26.75,-164.63,-17.75,0.2638729200704901,-0.128843681993827,0.8621393712588308,-109.7303356928047,-6.420486066048695,-67.82138560708218,-0.1298,-0.8178,-0.055999999999999994,-0.5579
259547.0,206.417536,1.0,8.07,2.58,-3.77,-32.19,-28.56,11.38,19.87,-103.75,-13.31,0.12963987677417516,0.010570339391620777,0.5342564702648058,-114.32249031100716,-6.971466463000763,-63.148087344627434,-0.1273,-0.8402,-0.0608,-0.5236
259579.0,206.436424,1.0,8.01,2.49,-4.51,-32.19,-28.56,11.38,7.5,-115.44,-11.25,-0.023028114252296283,-0.17769933833817375,0.28466529873586843,-117.45321573278471,-7.028869316139518,-59.920624504637715,-0.1276,-0.8547,-0.0613,-0.4994
259614.0,206.48744299999998,1.0,7.92,2.73,-5.47,-30.75,-29.37,14.19,12.63,-95.87,-8.94,-0.21044923473374166,-0.08820704959471959,-0.1957562422999892,-121.33697927503368,-7.109236280779951,-55.89988753147071,-0.1279,-0.8718,-0.062,-0.4687
259649.0,206.508652,1.0,7.08,2.49,-4.97,-29.56,-29.0,17.37,6.13,-62.88,-3.31,0.10923330242366533,-0.04012569551502998,0.8058801432487943,-123.5991628945627,-7.109236280779951,-53.56437169079451,-0.1277,-0.8813,-0.062,-0.4506
259686.0,206.53315600000002,1.0,6.97,2.3,-5.13,-27.0,-28.19,18.87,3.0,8.44,3.63,0.01593778750046599,-0.2115123383543984,0.8543984107263025,-124.25742213626366,-7.086273935339353,-52.936266526907346,-0.127,-0.884,-0.0618,-0.4457
259721.0,206.645709,1.0,7.63,2.87,-5.3,-27.0,-28.19,18.87,-3.13,32.0,12.81,0.1315154075635059,0.20084312291430928,0.08625053611213929,-123.52645816564731,-6.89110540785609,-53.75699560652143,-0.1255,-0.8809999999999999,-0.0601,-0.4521
259758.0,206.697485,1.0,8.14,2.49,-5.8,-27.56,-28.19,20.19,5.13,42.19,10.44,-0.2447107098281475,-0.28898859580103764,-0.4868577723773271,-122.16100086287558,-6.764830589593756,-55.30398226888506,-0.1222,-0.8753,-0.059000000000000004,-0.4641
259792.0,206.76195,1.0,6.93,2.05,-3.76,-28.0,-29.37,18.56,-3.56,53.13,10.75,0.5856264873728765,-0.09691908736543607,1.6818331831239686,-120.98704033013556,-6.638563994932457,-56.60153456365382,-0.1206,-0.8703,-0.0579,-0.4741
259825.0,206.825746,1.0,8.5,2.09,-4.3,-28.0,-29.37,18.56,-15.0,209.31,27.37,-0.029486889329236814,-0.4262028403805901,0.06367398328882247,-115.23680905302649,-6.351624225020216,-62.59743692135864,-0.1179,-0.8445,-0.0554,-0.5195
259860.0,206.834422,1.0,9.44,2.64,-4.09,-29.06,-27.87,16.19,-20.25,128.56,10.38,-0.5154950499514701,-0.0701317601696716,-0.8018676339435409,-109.49174968741804,-6.168003805570946,-68.45773265562515,-0.1179,-0.8166,-0.0538,-0.5625
259899.0,206.856717,1.0,9.29,2.79,-3.14,-32.06,-28.19,11.38,-11.94,68.5,7.75,-0.04675242081806282,0.2290703969034138,-0.3861484854214687,-107.54950844448109,-5.812283928177061,-70.39546823502994,-0.1198,-0.8067,-0.0507,-0.5764
259934.0,206.86026999999999,1.0,8.24,2.07,-1.93,-32.06,-28.19,11.38,-5.31,68.37,3.88,0.36713172460333454,-0.08444832293088744,1.1023129903510749,-104.82072855146713,-5.812283928177061,-73.18217678230073,-0.1195,-0.7924,-0.0507,-0.5961
259969.0,206.90583,1.0,10.09,2.25,-2.87,-33.19,-27.87,8.88,-14.5,112.87,8.88,-0.6634202116855511,-0.4592812804770111,-0.8917813956827612,-101.41081790768305,-5.697547703194251,-76.6176646234629,-0.12,-0.7739,-0.0497,-0.6199
260003.0,206.913682,1.0,9.4,2.32,-1.62,-33.19,-27.5,6.88,-14.81,50.56,4.19,-0.017237080552050418,-0.10191818386446028,-0.009465095436269166,-99.05189452300688,-5.491036825631306,-78.94384302757037,-0.1218,-0.7607,-0.0479,-0.6357
260038.0,206.933758,1.0,9.64,2.41,-1.57,-34.38,-27.87,4.06,-2.13,30.5,1.31,-0.12737328035274773,-0.07963285712791435,-0.2521786920256215,-97.94594136084784,-5.410731896463338,-80.04673804640113,-0.1229,-0.7544,-0.0472,-0.6431
260073.0,206.979513,1.0,9.01,1.97,-0.77,-34.38,-27.87,4.06,-10.5,55.56,6.5,0.2812045169752844,-0.2608384550467551,0.5596619865979342,-96.06084314103792,-5.250129975900072,-81.9454979887247,-0.1231,-0.7435,-0.0458,-0.6557
260108.0,207.04339,1.0,10.17,2.55,-1.53,-34.0,-28.19,2.88,-16.19,40.38,3.94,-0.6850208490485998,-0.07418460358688672,-0.7667857273763872,-94.36123915025331,-4.96336629149859,-83.6257545843694,-0.1251,-0.7335,-0.0433,-0.6667
260145.0,207.11562,1.0,9.35,2.17,-0.59,-35.06,-27.87,0.88,-7.25,3.19,2.56,0.12403042764003873,-0.13012469355742273,0.1917041334261267,-93.95738073569972,-4.66516502390792,-83.99528064351469,-0.127,-0.7311,-0.0407,-0.6691
260179.0,207.13376599999998,1.0,9.24,2.03,-0.42,-35.06,-27.87,0.88,-16.0,29.94,4.06,0.1880303921648027,-0.21815130163779595,0.34134733282574103,-93.32103704825495,-4.447268815934101,-84.61355507220527,-0.1284,-0.7273,-0.0388,-0.6731
260212.0,207.138014,1.0,9.86,2.13,-0.74,-34.69,-27.87,0.88,-15.13,28.0,4.25,-0.2971050015147429,-0.3086092034143191,-0.29882321888702634,-92.14199055285606,-4.034456312516312,-85.74981673368876,-0.1309,-0.7202,-0.0352,-0.6804
260249.0,207.141073,1.0,9.62,1.92,-0.52,-34.69,-27.5,-1.56,-11.06,-7.88,3.81,-0.08642396907087628,-0.411825703763541,-0.007835747469894017,-92.05943487025185,-3.564372225995784,-85.7654543452423,-0.1337,-0.7197,-0.0311,-0.6805
260284.0,207.187223,1.0,9.66,2.42,-0.16,-34.69,-27.5,-1.56,-14.5,-3.06,7.56,0.21419459919729025,0.15999476428491888,-0.14956024030108314,-92.20807957779185,-2.9453273542124467,-85.59354940204219,-0.1359,-0.7206,-0.0257,-0.6794
260319.0,207.205572,1.0,9.22,2.34,-0.35,-34.38,-26.69,-1.56,-10.81,-1.12,6.13,0.005236850188541704,0.1756413513814561,0.28952739434418184,-92.25767235358332,-2.589989743099661,-85.5310977047494,-0.13699999999999998,-0.7209,-0.0226,-0.679
260354.0,207.210202,1.0,9.32,1.83,-0.55,-35.88,-27.5,-1.06,-10.75,-2.75,8.06,-0.1146330503787864,-0.3274540248230413,0.2991038851821486,-92.25767235358332,-2.1086036789736795,-85.5310977047494,-0.1378,-0.7209,-0.0184,-0.679
260390.0,207.254068,1.0,9.45,2.09,-0.3,-35.88,-26.37,-1.5,-8.31,-9.25,3.25,0.107038059605205,-0.031276221588418585,0.12428641192094506,-92.34037663402384,-1.6157945246366483,-85.39069632426286,-0.1398,-0.7214,-0.0141,-0.6781
260423.0,207.261651,1.0,9.37,2.19,-0.13,-35.88,-26.37,-1.5,-20.0,-6.63,9.31,0.2708131745074417,0.1677389461006058,0.18852004296187447,-92.53912114130169,-0.9969591404369118,-85.15704595460248,-0.1413,-0.7226,-0.0087,-0.6766
260460.0,207.320291,1.0,9.56,2.14,-0.4,-36.19,-26.37,-0.69,-25.25,-18.56,9.44,0.05674329406812364,0.08363034824568083,0.002416926300119471,-92.754835123964,-0.43544897228424,-84.90830040880186,-0.1423,-0.7239,-0.0038,-0.675
260495.0,207.32898500000002,1.0,9.45,2.15,-0.54,-35.38,-26.37,-3.56,-18.75,-21.69,7.94,0.0034279684396306127,0.15199330886420234,0.10131712146910132,-93.40455194632291,0.6417160846123932,-84.10326116842597,-0.1471,-0.7278,0.0056,-0.6698
260530.0,207.396778,1.0,9.32,1.61,-0.78,-35.38,-26.37,-3.56,-15.38,-19.81,15.5,-0.06959446196843777,-0.32907043424747673,0.32246478142863744,-93.82310001862528,1.3522117780748235,-83.61038082086074,-0.1486,-0.7303,0.0118,-0.6666
260564.0,207.416108,1.0,9.97,1.63,-1.12,-36.19,-26.37,-1.88,-25.75,-25.75,26.69,-0.2327310653413262,-0.3294030871102361,-0.34960570067174856,-94.51308235594236,2.865087475133015,-82.84402467387862,-0.1492,-0.7344,0.025,-0.6616
260599.0,207.46366799999998,1.0,8.93,2.53,-0.33,-36.19,-25.56,-2.25,-0.06,-32.81,6.81,0.2995432804904991,1.0003290596818328,0.578198580857725,-95.36065966207356,3.7592774051414257,-81.91514696476024,-0.15,-0.7394,0.0328,-0.6555
260636.0,207.525486,1.0,9.15,1.92,-0.81,-36.88,-23.69,-1.06,-19.0,-12.75,10.88,0.10144957261572654,0.33084264464961866,0.42873705901481785,-95.94096400729772,4.3211257832659316,-81.29447844633472,-0.1501,-0.7428,0.0377,-0.6514
260671.0,207.54324,1.0,8.76,2.09,-1.06,-36.88,-23.69,-1.06,3.81,-8.69,-1.0,-0.20497875981102207,0.5001842557546653,0.754738631768344,-96.1808618687908,4.4702044875913645,-81.05304885614035,-0.15,-0.7442,0.039,-0.6498
260708.0,207.57169199999998,1.0,9.14,2.1,-0.98,-36.88,-24.06,-1.06,3.81,9.94,0.25,-0.09391454013347232,0.4863911766395613,0.3904616160285563,-96.06084314103792,4.412865642375664,-81.20389126609984,-0.1489,-0.7435,0.0385,-0.6508
260743.0,207.590312,1.0,9.29,2.09,-0.86,-38.38,-24.06,0.06,4.63,-0.12,-6.81,0.04657867640771305,0.4633382194585918,0.25704539450491026,-96.02657774273015,4.1720543955147065,-81.24917717727452,-0.1488,-0.7433,0.0364,-0.6511
260775.0,207.67615,1.0,9.23,2.22,-1.05,-38.38,-24.06,0.06,11.56,6.63,-11.25,-0.17058749388768332,0.4741183821951136,0.2688351733956491,-95.97520098011694,3.5070491615651807,-81.37001475180745,-0.1487,-0.743,0.0306,-0.6519
260810.0,207.733145,1.0,9.44,1.67,-1.28,-37.25,-23.69,-0.69,12.63,10.19,-6.63,-0.2481906875638773,-0.1859645026697904,0.13996915358982598,-95.82122385087229,2.9453273542124467,-81.58174459786177,-0.1474,-0.7421,0.0257,-0.6533
260847.0,207.80309,1.0,9.66,1.88,-0.8,-36.56,-24.5,-0.25,13.5,11.94,-9.06,0.14194690880541433,0.04925885161164978,-0.06590917382207984,-95.46283114085506,2.440984806055245,-82.00622099250181,-0.1465,-0.74,0.0213,-0.6561
260882.0,207.847011,1.0,9.48,1.24,-0.99,-36.56,-24.5,-0.25,23.56,16.5,-13.0,0.036367218682169015,-0.6430797371437166,0.21638275257250505,-95.207589729786,1.7533192633889718,-82.34069929138175,-0.1452,-0.7385,0.0153,-0.6583
260915.0,207.859531,1.0,9.66,1.84,-0.84,-36.19,-26.0,-0.69,5.56,16.5,-6.38,-0.004626679895794454,-0.12559335577789202,-0.062038104445171875,-94.68205278958663,1.1459346897143057,-82.92045611576899,-0.14400000000000002,-0.7354,0.01,-0.6621
260952.0,207.8673,1.0,9.44,1.93,-0.65,-36.19,-24.87,-0.69,12.44,8.94,-11.81,0.10430809024333927,-0.009980585787186743,0.1500449956406964,-94.44556964169912,0.7104722177704716,-83.16534013509425,-0.1439,-0.7340000000000001,0.0062,-0.6637
260986.0,207.87054799999999,1.0,9.17,2.14,-0.5,-36.56,-26.0,-0.69,17.12,14.75,-13.5,0.1379700561745478,0.18419385256477472,0.3797980923758786,-94.09183027952132,-0.1833465726697912,-83.56427059214394,-0.1427,-0.7319,-0.0016,-0.6663
261021.0,207.914783,1.0,9.69,2.3,-0.79,-36.56,-26.0,-0.69,4.38,19.31,-7.69,-0.19039932887828992,0.12788389790047486,-0.18122233619956066,-93.60525182327251,-0.5615008861828721,-84.04154678419287,-0.1426,-0.7290000000000001,-0.0049,-0.6694
261058.0,207.932812,1.0,9.34,2.47,-0.41,-35.38,-26.0,-0.69,18.0,8.06,-18.0,0.09717074821302316,0.34299795809853184,0.14344606722325534,-93.37113824061916,-1.3865917007687605,-84.28858454106421,-0.1423,-0.7276,-0.0121,-0.6709999999999999
261093.0,207.979755,1.0,9.71,1.57,-1.09,-35.5,-26.0,0.06,24.0,9.31,-12.5,-0.3997149088096942,-0.7917324492739886,-0.04984469742879583,-93.20422442477208,-2.3263684457528235,-84.52062093689318,-0.1395,-0.7266,-0.0203,-0.6725
261126.0,207.987415,1.0,9.8,2.15,-0.53,-35.5,-26.0,0.06,10.38,0.19,-11.88,0.07009871582229435,-0.23136282155768664,-0.2375004078165297,-93.12086388400516,-2.888013009772368,-84.55159136755906,-0.14,-0.7261,-0.0252,-0.6727
261163.0,208.00616100000002,1.0,9.33,2.46,-0.47,-35.06,-27.5,-0.69,15.44,-7.06,-23.5,0.09976567819080187,0.0961760923085364,0.14734376359133172,-93.35443526255777,-3.5299782811888885,-84.24222829795386,-0.1411,-0.7275,-0.0308,-0.6707
261199.0,208.053694,1.0,9.33,2.0,-0.66,-35.38,-27.5,-0.69,14.5,2.38,-15.13,0.016062480265055044,-0.4924599952265109,0.2545965480018797,-93.42126267707391,-4.516076369343336,-84.08782976269961,-0.1416,-0.7279,-0.0394,-0.6697
261232.0,208.072855,1.0,9.46,2.33,-0.55,-35.38,-27.5,-0.69,6.56,-9.0,-11.63,0.12810814708141344,-0.2416386659614338,0.05225616656453802,-93.55504179839458,-4.848669626539135,-83.90279877211277,-0.1425,-0.7287,-0.0423,-0.6685
261267.0,208.12251899999998,1.0,9.3,2.57,-0.87,-34.38,-28.19,-0.25,6.75,-8.06,-9.5,-0.15108350767339718,-0.07559278107942767,0.12040926867612176,-93.95738073569972,-5.307486603594608,-83.44139093704848,-0.1431,-0.7311,-0.0463,-0.6655
261302.0,208.18340700000002,1.0,9.64,2.41,-1.16,-35.06,-27.87,-0.25,12.19,-10.38,-10.81,-0.31380576460540005,-0.3970776152993472,-0.1847040278346963,-94.27697557969387,-5.663127955663872,-83.0887640805251,-0.1432,-0.733,-0.0494,-0.6632
261339.0,208.190995,1.0,9.36,2.81,-1.0,-33.56,-29.0,0.06,9.75,-36.0,-15.38,-0.04700987587158094,0.015915386506551332,-0.01695609817203625,-95.25858813139106,-6.145052377433653,-82.00622099250181,-0.1446,-0.7388,-0.0536,-0.6561
261371.0,208.25961999999998,1.0,8.97,2.75,-1.04,-33.56,-29.0,0.06,14.75,-36.38,-17.12,0.07397779918415512,0.00881250141198775,0.3673995199541,-96.38693481966624,-6.627085616027943,-80.78195924057705,-0.1451,-0.7454,-0.0578,-0.648
261408.0,208.27831799999998,1.0,9.1,2.46,-1.32,-34.0,-29.37,2.5,4.75,-24.44,-7.19,0.050976961479447865,-0.38862978605051546,0.2961101499813541,-97.49308186392095,-7.292945412680463,-79.6283867646292,-0.14400000000000002,-0.7518,-0.0636,-0.6403
261443.0,208.324025,1.0,9.63,2.85,-1.71,-33.56,-29.69,2.88,3.0,-20.81,-2.19,-0.16757935025713155,-0.2235386977478626,-0.3769371681827636,-98.0856967948129,-7.315910364212048,-79.01808630319101,-0.1444,-0.7552,-0.0638,-0.6362
261478.0,208.409575,1.0,9.31,3.07,-1.72,-33.56,-29.69,2.88,8.31,-49.94,-1.69,0.0327514703939807,0.07979359137311492,-0.14583513306917162,-99.7250605850298,-7.384806987935718,-77.36437490697888,-0.1443,-0.7645,-0.0644,-0.625
261513.0,208.47033000000002,1.0,8.95,2.7,-2.19,-33.19,-29.37,4.5,16.37,-66.37,-5.06,-0.17192298512740112,-0.21230571650626007,0.20904775933990827,-101.48322239715056,-7.499640647274437,-75.61348008001588,-0.1426,-0.7743,-0.0654,-0.613
261550.0,208.514324,1.0,8.82,2.92,-2.24,-33.56,-30.87,5.69,18.37,-86.12,-3.06,0.2159940758474044,0.0679531813591201,0.2523248577232273,-104.3897152607669,-7.522608280519941,-72.74037515744728,-0.1408,-0.7901,-0.0656,-0.593
261584.0,208.53582,1.0,8.09,2.61,-2.29,-33.56,-30.87,5.69,4.88,-44.75,1.81,0.2701125256381541,0.0014623572186784894,1.0071422248454844,-106.31751960155216,-7.430739554030821,-70.84482737383499,-0.1394,-0.8003,-0.0648,-0.5796
261617.0,208.539106,1.0,9.06,3.16,-3.39,-31.37,-29.69,7.75,-0.06,-7.69,-0.25,-0.4213971043096145,0.11940164078854942,-0.3604276395509274,-106.71980105429785,-7.407773121999347,-70.45156998938438,-0.1388,-0.8024,-0.0646,-0.5768
261652.0,208.58209,1.0,8.18,3.36,-2.49,-31.69,-29.69,8.88,5.69,-33.13,-2.63,0.2624294510423273,0.6828860953683451,0.6487628329740733,-107.56890139317557,-7.361841150905901,-69.59810663742078,-0.1389,-0.8068,-0.0642,-0.5707
261689.0,208.589845,1.0,7.64,4.32,-2.89,-32.5,-29.37,9.75,20.81,13.63,-9.94,-0.28644753609835544,1.6741799906654191,0.7237446736234912,-107.7825204980392,-7.867159619602527,-69.38891628677108,-0.1364,-0.8079,-0.0686,-0.5692
261722.0,208.609387,1.0,8.69,1.69,-3.6,-32.5,-29.37,9.75,53.19,17.75,-19.25,-0.5225246956315667,-1.2157001438255433,0.3419132840232866,-107.4913564581971,-9.073671186517632,-69.70978337535752,-0.1299,-0.8064,-0.0791,-0.5715
261761.0,208.65781299999998,1.0,8.81,3.24,-2.86,-31.37,-30.06,9.25,-9.19,15.44,-16.25,0.16135910283122573,0.300050156183896,-0.0003491915828934822,-107.20119776385687,-9.786552516199244,-69.97532009784457,-0.1264,-0.8049,-0.0853,-0.5734
261795.0,208.77466,1.0,8.58,2.95,-2.77,-31.69,-30.5,10.56,15.44,14.81,-22.44,0.15798707448163668,0.008507923245296034,0.3215686772311344,-106.89278954728873,-10.67243717618693,-70.12924881260771,-0.1265,-0.8033,-0.09300000000000001,-0.5745
261828.0,208.78169,1.0,9.21,3.24,-3.0,-31.69,-30.5,10.56,16.81,17.75,-12.0,0.05244114095657254,0.02611426640947334,-0.40698147816803854,-106.16476472421513,-11.570479767497385,-70.76047732673608,-0.1238,-0.7995,-0.1008,-0.579
261863.0,208.839228,1.0,9.02,3.64,-3.21,-31.37,-30.87,10.56,35.81,6.5,-24.06,-0.16027004456712385,0.38240160463366135,-0.42771282948714,-105.99323879892164,-12.930431986971733,-70.76047732673608,-0.1193,-0.7986,-0.1126,-0.579
261900.0,208.856768,1.0,9.41,1.73,-3.36,-31.37,-30.87,10.56,28.87,-11.81,-7.25,-0.17126485104763334,-1.576344728021338,-0.2091577881534352,-106.43226434357531,-14.049721543626418,-70.21327111376787,-0.1135,-0.8009,-0.1223,-0.5751
261935.0,208.86096,1.0,9.55,2.04,-3.66,-31.37,-30.87,10.56,1.0,-3.31,-0.31,-0.4042684922478952,-1.3818556037611194,-0.5222774407621635,-106.3557507959232,-13.865006554805133,-70.24128817122835,-0.1169,-0.8005,-0.1207,-0.5753
261969.0,208.86394199999998,1.0,9.2,2.43,-3.18,-29.06,-30.5,11.75,-3.94,-11.81,3.38,0.016402202910659844,-0.8783480117979701,-0.1876251481991087,-106.681406842105,-13.553381828311744,-69.93336466039091,-0.1189,-0.8022,-0.11800000000000001,-0.5731
262004.0,208.91001200000002,1.0,9.04,2.24,-3.21,-30.19,-30.87,10.88,-12.69,-4.38,16.31,-0.06296933835373755,-0.9571941045188812,0.002410391101125953,-106.87355122081516,-12.688278342697654,-69.87744078129813,-0.1211,-0.8032,-0.1105,-0.5727
262041.0,208.92998,1.0,9.26,2.8,-3.37,-30.19,-30.87,11.25,-21.31,-4.13,21.19,-0.15388746486671814,-0.4448754662497416,-0.4267709562436135,-106.89278954728873,-11.800859775906506,-70.0172862891219,-0.1228,-0.8033,-0.1028,-0.5737
262076.0,208.974898,1.0,9.41,2.03,-3.46,-30.19,-30.87,11.25,-21.56,-6.5,25.25,-0.20193623252427406,-1.1272696779019085,-0.35844148169739043,-107.104699496576,-10.442277914805905,-69.98930763271481,-0.1249,-0.8044,-0.091,-0.5735
262111.0,208.982231,1.0,8.83,2.79,-3.27,-31.0,-30.5,10.88,-21.25,-11.13,25.31,-0.2206538359446939,-0.13173228745478704,-0.01067440582080792,-107.31714138517357,-9.17713147157167,-69.96133375784342,-0.1272,-0.8055,-0.08,-0.5733
262148.0,209.04891,1.0,8.53,2.59,-2.94,-31.69,-30.87,10.06,-27.81,-7.19,25.37,-0.022780374041831225,-0.11201079233410738,0.4205147656791528,-107.47198140386222,-7.717845476549469,-69.91938190191141,-0.1303,-0.8063,-0.0673,-0.573
262182.0,209.063625,1.0,8.98,2.4,-3.32,-31.69,-30.87,10.06,-31.25,2.13,32.19,-0.2752222874470095,-0.3756149269455456,-0.05265860249075338,-107.35582470459705,-6.48935022815341,-70.12924881260771,-0.1323,-0.8057,-0.0566,-0.5745
262215.0,209.07176,1.0,9.16,2.98,-3.17,-32.06,-28.56,8.88,-40.94,-5.81,39.06,-0.22044192136917398,0.3110512430141559,-0.3269353716008343,-107.18188929674672,-4.137654318321577,-70.39546823502994,-0.1372,-0.8048,-0.0361,-0.5764
262252.0,209.11553899999998,1.0,8.8,2.75,-2.95,-33.19,-27.5,8.5,-23.31,-14.94,22.25,-0.1391782118935256,0.2927735304846117,0.131945193899627,-107.23982794355229,-2.7733864743736323,-70.32536827305816,-0.1401,-0.8051,-0.0242,-0.5759
262287.0,209.179774,1.0,8.85,2.35,-2.97,-33.19,-27.5,8.5,-24.06,-7.5,26.0,-0.1020666394541854,-0.011034757526368727,0.1808845428928656,-107.35582470459705,-1.3407518310456548,-70.17125455372687,-0.1429,-0.8057,-0.0117,-0.5748
262322.0,209.187253,1.0,8.45,3.23,-2.89,-33.19,-27.06,8.88,-27.37,0.19,23.56,-0.3688233007651175,0.986064369756602,0.3684750476318648,-107.104699496576,-0.1948057441759901,-70.33938584771147,-0.1453,-0.8044,-0.0017,-0.5760000000000001
262356.0,209.20636000000002,1.0,8.66,2.77,-3.15,-34.38,-26.69,6.5,-6.75,2.5,10.06,-0.5058881500979111,0.492257847151609,0.21015275405092385,-106.96978646170278,0.6417160846123932,-70.40949185665009,-0.1472,-0.8037,0.0056,-0.5765
262393.0,209.258118,1.0,8.72,3.02,-2.83,-34.69,-26.69,8.0,-11.75,-0.81,6.13,-0.26548061068800805,0.8225663984402085,0.19308642734361392,-106.85431724818577,1.0084187350403075,-70.50769114431371,-0.1478,-0.8031,0.0088,-0.5772
262426.0,209.276754,1.0,8.46,2.83,-3.02,-34.69,-26.69,8.0,-0.56,0.25,0.81,-0.5016274241299115,0.6392100266935037,0.4236504545915434,-106.81586235047912,1.1573944243672372,-70.52172446832354,-0.1483,-0.8029,0.0101,-0.5773
262463.0,209.32693600000002,1.0,8.93,1.76,-3.08,-35.06,-26.69,6.75,7.75,6.06,-0.12,-0.2294902789917581,-0.464684300299061,0.21184397210637407,-106.6622162163593,1.0542572154525014,-70.7183188364016,-0.1471,-0.8021,0.0092,-0.5787
262498.0,209.348701,1.0,9.13,2.35,-2.91,-34.69,-27.06,7.19,-4.75,3.0,-0.81,-0.14530528943250248,0.0951284163339352,-0.05830499012888346,-106.47054675108936,1.0427975798203954,-70.8870189593387,-0.1478,-0.8011,0.0091,-0.5799
262533.0,209.39896000000002,1.0,9.08,1.87,-2.78,-34.69,-27.06,7.19,1.63,5.31,0.75,0.03964728176164087,-0.3317252140665292,0.13400369842350554,-106.4131295533326,0.8938232239278141,-70.95736285453455,-0.1473,-0.8008,0.0078,-0.5804
262565.0,209.418924,1.0,9.41,2.33,-2.89,-35.75,-26.37,7.75,0.63,2.63,-0.56,-0.06256908870258114,0.02935230023159852,-0.30889860359090804,-106.29841038740038,0.8365258107465946,-71.11222790088254,-0.1468,-0.8002,0.0073,-0.5815
262602.0,209.45958000000002,1.0,9.06,2.01,-2.83,-35.38,-26.0,6.5,2.44,2.5,-2.81,-0.06300502671622803,-0.2214376164389248,0.10718631644334843,-106.26020470831196,0.7219315974960596,-71.12631395587046,-0.147,-0.8,0.0063,-0.5816
262637.0,209.53419399999999,1.0,8.99,2.01,-2.77,-35.38,-26.0,6.5,0.44,3.13,-0.63,-0.04131400810275011,-0.2005566412020965,0.18941702027010976,-106.20292801228649,0.6646347687728765,-71.21085630412055,-0.1469,-0.7997,0.0058,-0.5822
262672.0,209.55453899999998,1.0,9.32,2.13,-2.84,-34.69,-26.0,6.38,0.06,4.13,-2.25,-0.04946699224976338,-0.16154896913964145,-0.1651279230811049,-106.03132620370606,0.6531754234266163,-71.36596675624855,-0.147,-0.7988,0.0057,-0.5833
262705.0,209.55761,1.0,9.17,2.13,-2.72,-34.38,-26.37,6.0,5.25,3.25,-2.56,0.004373666740668743,-0.11798233435228125,0.008167411363119825,-105.97420139443399,0.5958787923837214,-71.43652135500591,-0.1472,-0.7985,0.0052,-0.5838
262739.0,209.621306,1.0,8.87,2.1,-2.69,-35.38,-26.69,6.38,0.63,-2.13,-4.19,-0.0487510103916549,-0.09930174002900016,0.30345251160626496,-105.99323879892164,0.5156637559929028,-71.38007517925647,-0.1473,-0.7986,0.0045,-0.5834
262774.0,209.62454499999998,1.0,9.04,2.34,-2.59,-35.38,-26.69,6.38,-1.19,5.19,0.44,0.03961399129484374,0.1186060745434574,0.1169821351671132,-105.91711433300469,0.4812859628976946,-71.49298753090414,-0.1475,-0.7982,0.0042,-0.5842
262811.0,209.672571,1.0,9.16,2.1,-2.67,-34.69,-26.69,6.75,3.06,8.13,-0.56,0.009458393910140004,-0.15081842503830112,0.0382486803646529,-105.70811662886265,0.3666936147093117,-71.73319272014939,-0.1466,-0.7971,0.0032,-0.5859
262846.0,209.73534300000003,1.0,9.16,2.17,-2.7,-35.38,-25.56,6.0,-1.81,-0.37,-1.5,-0.04008338910586299,-0.10091089464736712,0.014167663367510741,-105.63224214449237,0.43544897228424,-71.7614760712347,-0.1476,-0.7967,0.0038,-0.5861
262879.0,209.74317000000002,1.0,9.21,2.28,-2.64,-35.38,-25.56,6.0,0.63,2.88,0.37,0.0036617170213880243,0.009428010365488236,-0.04180153841196699,-105.57537971529776,0.43544897228424,-71.80391056917499,-0.1476,-0.7964,0.0038,-0.5864
262914.0,209.789796,1.0,9.22,2.13,-2.77,-34.38,-26.0,6.38,0.56,-0.75,-1.31,-0.08846306017769018,-0.16711687967315814,-0.05146575482415905,-105.57537971529776,0.4010712754482724,-71.81805792972114,-0.1474,-0.7964,0.0035,-0.5865
262950.0,209.81613900000002,1.0,9.21,2.01,-2.8,-34.69,-26.37,6.75,-1.25,-1.5,0.56,-0.09203880101889356,-0.2759167647975671,-0.022876885766713432,-105.63224214449237,0.4125305035633525,-71.7897644729481,-0.1468,-0.7967,0.0036,-0.5863
262985.0,209.836664,1.0,8.97,2.27,-2.58,-34.69,-26.37,6.75,-0.88,0.94,-0.94,-0.004403474990089568,0.06161381614754169,0.20111074668018425,-105.65120455426174,0.43544897228424,-71.7614760712347,-0.1472,-0.7968,0.0038,-0.5861
263018.0,209.886576,1.0,9.22,2.12,-2.93,-35.38,-26.69,6.0,0.88,4.63,0.56,-0.2462194135257361,-0.20714682124585213,-0.09204517637808607,-105.53749206374759,0.4698267083113723,-71.87466002619819,-0.1473,-0.7962,0.0041,-0.5869
263053.0,209.905421,1.0,9.23,2.08,-2.75,-35.06,-26.69,6.75,-1.56,-4.19,-0.63,-0.0587239830781343,-0.20194635989667786,-0.04411490235838933,-105.57537971529776,0.5156637559929028,-71.80391056917499,-0.1475,-0.7964,0.0045,-0.5864
263090.0,209.95376299999998,1.0,8.76,2.32,-2.6,-35.06,-26.69,7.19,0.31,-0.37,-2.81,-0.0999896953281628,0.1284748923676602,0.3804367484944233,-105.61328387022331,0.43544897228424,-71.7614760712347,-0.1479,-0.7966,0.0038,-0.5861
263122.0,209.981962,1.0,9.49,2.16,-2.94,-35.06,-26.69,7.19,3.94,7.88,4.06,-0.18893509736097544,-0.2220576434202272,-0.3562380704248582,-105.46176616813965,0.4239897358038088,-71.93128239622219,-0.1473,-0.7958,0.0037,-0.5873
263159.0,210.030989,1.0,9.39,2.04,-3.04,-34.69,-26.69,6.38,0.69,-1.0,-1.63,-0.29504598754560873,-0.3499872237290021,-0.2614062577122969,-105.4428449688075,0.3666936147093117,-71.95960119494845,-0.1473,-0.7957,0.0032,-0.5875
263194.0,210.05069100000003,1.0,8.94,2.18,-2.74,-35.06,-27.06,7.19,0.69,2.31,-0.12,-0.1719260655560098,-0.07615229092696851,0.2072624020035008,-105.48069147410617,0.28647919598176924,-71.93128239622219,-0.1473,-0.7959,0.0025,-0.5873
263227.0,210.099529,1.0,9.34,2.07,-2.81,-35.06,-27.06,7.19,1.56,4.0,0.37,-0.11332290125578265,-0.2669382162045356,-0.1599192145682995,-105.36720117412769,0.27502000568243146,-72.04458809955408,-0.1472,-0.7953,0.0024,-0.5881
263264.0,210.119346,1.0,9.1,2.24,-2.82,-35.06,-26.0,6.75,-0.56,-2.06,-0.94,-0.2200172665277492,-0.06752040978255258,0.022630713597685315,-105.40501487729964,0.28647919598176924,-72.00208892273058,-0.1474,-0.7955,0.0025,-0.5878
