TIME,ELAPSED_SECONDS,PSTATE,acc_x,acc_y,acc_z,mag_x,mag_y,mag_z,gyr_x,gyr_y,gyr_z,lin_x,lin_y,lin_z,eul_x,eul_y,eul_z,qua_w,qua_x,qua_y,qua_z
1450493.0,224.38624500000003,1.0,4.14,3.03,-8.41,-17.5,-21.69,27.75,-2.13,-1.63,0.37,-0.015435595472557129,-0.0099598263181995,-0.0446576565627641,-145.6083860120317,13.461068017168213,-22.84005757373193,-0.1855,-0.9553,0.1172,-0.198
1450528.0,224.42236,1.0,4.11,3.08,-8.28,-17.87,-21.25,28.56,-1.19,-0.56,0.56,-0.009358816107774448,0.07621295918228503,0.06339571832317681,-145.6083860120317,13.47260676237266,-22.816676842803346,-0.1859,-0.9553,0.1173,-0.1978
1450565.0,224.46265,1.0,4.27,3.15,-8.39,-18.56,-22.5,27.87,-1.0,-1.0,0.75,0.08256925756862321,0.1181546352594794,-0.11941275417757248,-145.6083860120317,13.51876311679545,-22.769918267605057,-0.1861,-0.9553,0.1177,-0.1974
1450600.0,224.49897,1.0,4.18,3.06,-8.4,-18.56,-22.5,27.87,-2.06,-2.0,0.75,0.03308610710282034,0.01530698939533559,-0.06222384687799476,-145.6083860120317,13.541842119876778,-22.723163534007305,-0.1864,-0.9553,0.1179,-0.197
1450635.0,224.511569,1.0,4.23,3.08,-8.4,-17.87,-21.25,29.87,0.25,-1.81,1.19,0.08062136329164682,0.03957071168938914,-0.08937113753590431,-145.6083860120317,13.576461659580188,-22.66472550596455,-0.1866,-0.9553,0.1182,-0.1965
1450670.0,224.564247,1.0,3.98,3.1,-8.2,-17.87,-22.06,28.69,-4.63,-2.13,0.81,-0.07027730370892127,0.09058432794636548,0.17974730078703516,-145.6083860120317,13.634163660769715,-22.582922295565638,-0.1873,-0.9553,0.1187,-0.1958
1450704.0,224.620028,1.0,4.09,3.28,-8.4,-17.87,-22.06,28.69,-2.19,0.88,1.63,-0.09559447253188093,0.17308555384727645,-0.09321884195294672,-145.49229376528544,13.714952301602876,-22.59460775363036,-0.1882,-0.955,0.1194,-0.1959
1450739.0,224.63982400000003,1.0,4.09,3.09,-8.39,-17.06,-22.5,27.75,-2.44,-1.19,0.69,-0.032896264629771466,0.00012483064344728792,-0.025298831243516062,-145.41510886588998,13.772662665221276,-22.57123707542117,-0.1886,-0.9548,0.1199,-0.1957
1450776.0,224.650246,1.0,4.12,3.11,-8.26,-17.5,-22.06,28.69,-2.0,1.06,1.81,0.02536386011766201,0.06789697624244481,0.06658600250916713,-145.37657897397716,13.841919736512358,-22.59460775363036,-0.1891,-0.9547,0.1205,-0.1959
1450811.0,224.719104,1.0,4.24,3.19,-8.35,-17.5,-22.06,28.69,-1.69,0.19,1.12,0.07546208719961944,0.11490976565101947,-0.08563493418752444,-145.29964361056955,13.888093938659914,-22.606293449751373,-0.1895,-0.9545,0.1209,-0.196
1450846.0,224.726521,1.0,4.16,3.19,-8.39,-17.87,-22.5,27.0,-0.56,-0.63,1.88,-0.009718872377848964,0.08216060475535182,-0.08612287612254654,-145.22287322309495,13.957359493385505,-22.59460775363036,-0.1898,-0.9543,0.1215,-0.1959
1450881.0,224.777569,1.0,4.13,3.02,-8.34,-18.56,-22.75,28.69,-1.63,-1.69,1.63,0.0360970303496142,-0.05252346120321258,0.022538477208408736,-145.22287322309495,14.003539375629765,-22.55955209306089,-0.1898,-0.9543,0.1219,-0.1956
1450915.0,224.79195,1.0,4.07,3.12,-8.35,-17.87,-21.69,27.37,-4.31,-4.25,1.94,-0.020576526060542392,0.01676535642474125,0.007614561274451148,-145.2612378633091,14.165187015253306,-22.34926291674045,-0.1907,-0.9544,0.1233,-0.1938
1450950.0,224.830713,1.0,4.3,3.04,-8.71,-17.87,-21.69,27.37,-1.75,-5.13,1.5,0.11401523960421532,-0.1743508158682784,-0.3694151687252916,-145.22287322309495,14.24602144035678,-22.22079043012782,-0.1914,-0.9543,0.124,-0.1927
1450987.0,224.87145,1.0,3.93,3.19,-8.3,-18.25,-22.06,28.25,-1.81,-0.63,2.31,-0.11242616285054384,0.06097758682497807,0.0858145373552528,-145.22287322309495,14.373061379793725,-22.080670872919914,-0.1922,-0.9543,0.1251,-0.1915
1451022.0,224.923488,1.0,4.18,3.36,-8.35,-17.87,-22.75,27.75,-1.0,1.06,2.44,0.034413211421362,0.2268932401576701,-0.11463193271668005,-145.14626672055041,14.442363367873067,-22.11569761985897,-0.1926,-0.9541,0.1257,-0.1918
1451057.0,224.949041,1.0,4.02,3.1,-8.2,-17.87,-22.75,27.75,-1.56,-1.88,0.75,0.02346141139834801,0.035017650429456176,0.1625521507279597,-145.14626672055041,14.511670666824136,-22.080670872919914,-0.1925,-0.9541,0.1263,-0.1915
1451091.0,224.993635,1.0,4.12,3.2,-8.43,-17.5,-23.19,27.0,-0.25,0.94,1.75,0.002095425138227469,0.04693285061194746,-0.10683036346100216,-145.10802458844395,14.580983303227079,-22.104021805228786,-0.1925,-0.954,0.1269,-0.1917
1451128.0,225.001729,1.0,4.14,3.26,-8.34,-17.06,-22.5,27.37,-0.81,0.63,1.75,0.02403056176532248,0.14012448366751598,-0.05755740156948441,-145.06982302382067,14.627194705880914,-22.12737366698645,-0.1926,-0.9539,0.1273,-0.1919
1451163.0,225.042313,1.0,3.96,3.09,-8.25,-17.06,-22.5,27.37,1.06,0.37,1.12,-0.05794330629043332,-0.00017200983756743282,0.14803506080355255,-145.06982302382067,14.661854827129085,-22.139049946746336,-0.1924,-0.9539,0.1276,-0.192
1451198.0,225.097571,1.0,4.19,3.2,-8.42,-18.25,-22.75,29.06,-0.25,2.13,2.13,0.04469560813507334,0.0660350373738409,-0.12743987660431874,-144.99354106549774,14.7196246947995,-22.2091125181558,-0.1924,-0.9537,0.1281,-0.1926
1451233.0,225.114112,1.0,4.23,3.24,-8.38,-17.87,-22.06,27.0,0.88,0.06,0.63,0.07278626031646906,0.13053672365794575,-0.12272874814360255,-144.9554604078314,14.742733694368155,-22.244146955349766,-0.1921,-0.9536,0.1283,-0.1929
1451270.0,225.205085,1.0,4.05,3.1,-8.26,-17.06,-22.06,27.37,1.37,0.75,1.37,-0.007486223809027414,0.03221212363605394,0.09897229956392196,-144.99354106549774,14.742733694368155,-22.25582556887037,-0.1917,-0.9537,0.1283,-0.193
1451302.0,225.212112,1.0,4.11,3.18,-8.38,-17.06,-22.06,27.37,0.5,0.88,1.63,-0.0280503373033576,0.06837861862535463,-0.053544599656344616,-144.9554604078314,14.800508833176535,-22.302542365509357,-0.1915,-0.9536,0.1288,-0.1934
1451339.0,225.241463,1.0,4.26,3.26,-8.47,-17.5,-22.06,28.19,2.06,0.37,0.69,0.04602738015397812,0.13424288550022456,-0.21811734532870555,-144.9554604078314,14.823619947246295,-22.325902171258928,-0.1912,-0.9536,0.129,-0.1936
1451376.0,225.256134,1.0,4.04,3.06,-8.2,-18.25,-21.69,27.0,2.81,-0.06,-0.31,-0.004047912397576514,0.04712991809337075,0.16699428077300382,-145.03166189361892,14.788953503219902,-22.34926291674045,-0.1902,-0.9538,0.1287,-0.1938
1451409.0,225.356115,1.0,4.12,3.17,-8.35,-18.25,-21.69,27.0,0.25,1.37,0.88,-0.02519417163503324,0.10386702508097008,-0.02871358732184781,-144.99354106549774,14.800508833176535,-22.39598723123728,-0.1898,-0.9537,0.1288,-0.1942
1451444.0,225.408542,1.0,4.2,3.24,-8.4,-17.5,-22.75,29.06,2.44,1.44,0.5,-0.004494147654862335,0.16720540084798022,-0.12660838567406785,-144.99354106549774,14.788953503219902,-22.466080778094224,-0.1893,-0.9537,0.1287,-0.1948
1451479.0,225.446151,1.0,4.07,3.23,-8.25,-18.25,-22.75,28.69,5.0,-0.63,-3.06,-0.06831385528976508,0.2123035037037368,0.059313931130180464,-145.10802458844395,14.696516297153034,-22.477763863075147,-0.1884,-0.954,0.1279,-0.1949
1451513.0,225.506317,1.0,3.85,3.08,-8.08,-18.25,-22.75,28.69,8.81,3.19,-5.0,-0.16221516433077254,0.12517429961927204,0.3433885307613984,-145.2612378633091,14.511670666824136,-22.51281453874211,-0.1873,-0.9544,0.1263,-0.1952
1451548.0,225.519655,1.0,4.02,3.49,-8.1,-17.5,-21.69,27.75,17.19,17.0,-8.81,-0.2039305633345105,0.5555131497407069,0.13192429506121786,-145.37657897397716,14.118999098561428,-22.945282804181343,-0.184,-0.9547,0.1229,-0.1989
1451583.0,225.528743,1.0,4.27,3.65,-8.11,-18.25,-21.69,29.87,34.25,22.44,-19.62,-0.13980249166843084,0.8358798633891,-0.02235097249480944,-145.76376947074462,13.057297449093687,-23.834643460050298,-0.1761,-0.9557,0.1137,-0.2065
1451620.0,225.56297,1.0,4.26,2.27,-8.19,-17.5,-21.25,29.06,49.56,36.88,-20.37,0.07031650434634784,-0.3293877799918128,0.3059574315811826,-146.19464572787078,11.823900394126868,-24.8662564695287,-0.1658,-0.9568,0.103,-0.2153
1451655.0,225.570284,1.0,4.88,2.55,-8.29,-17.5,-21.25,29.06,37.81,53.81,-20.62,0.22347955542190645,0.05732960951901112,-0.14260978172148953,-145.91984007134727,10.430771068314456,-26.723683975588173,-0.1561,-0.9561,0.0909,-0.2311
1451689.0,225.580976,1.0,5.19,1.87,-8.36,-18.56,-21.25,28.56,58.44,66.25,-29.81,0.3406677511709804,-0.5093237438383367,-0.19070639093028602,-145.37657897397716,8.970218312913039,-28.52916895270361,-0.1473,-0.9547,0.0782,-0.2464
1451726.0,225.62463,1.0,4.71,2.33,-7.89,-20.5,-20.56,28.56,20.06,45.63,-20.56,-0.21995713976466424,0.10090772215880306,0.3300189272888065,-144.65224571956077,7.763786880218299,-30.258813745298948,-0.1398,-0.9528,0.0677,-0.261
1451761.0,225.676732,1.0,5.51,1.81,-8.07,-20.5,-20.56,28.56,28.87,75.06,-10.63,0.16260901984401774,-0.38459978025258174,-0.12243562334392699,-143.3907030739344,6.89110540785609,-32.19825231317595,-0.1347,-0.9494,0.0601,-0.2773
1451796.0,225.684982,1.0,5.71,1.98,-7.87,-19.75,-20.06,27.37,10.56,56.69,-4.06,-0.0062474598469193215,-0.1762852615347062,-0.11455378158875718,-141.46907086921098,6.11062569758793,-34.66303165808797,-0.1315,-0.944,0.0533,-0.2979
1451831.0,225.733617,1.0,6.08,1.98,-7.64,-22.0,-19.69,27.75,11.13,58.44,-4.63,0.1547923494167649,-0.13373901631513188,-0.15400024002334334,-140.1367137765361,5.663127955663872,-36.27518399341682,-0.1304,-0.9401,0.0494,-0.3113
1451868.0,225.753314,1.0,6.2,1.89,-7.29,-23.06,-19.0,27.0,-4.44,52.88,4.5,0.1151206830783531,-0.1368924064074528,0.053486016071730084,-138.26285199839916,5.468092286497271,-38.37977954174036,-0.1288,-0.9344,0.0477,-0.3287
1451902.0,225.812602,1.0,6.51,2.4,-7.09,-23.06,-19.0,27.0,-8.25,46.63,3.75,0.06855633929255589,0.3301115497194425,-0.1077096057982807,-136.40437355406192,5.445147966752272,-40.253732215798784,-0.1314,-0.9285,0.0475,-0.3441
1451939.0,225.852034,1.0,6.25,2.25,-6.9,-24.25,-19.0,26.19,4.31,44.13,0.25,-0.18347844854386164,0.20239655132864715,0.2327076931480203,-135.24632190274463,5.250129975900072,-41.501098206620334,-0.1318,-0.9247,0.0458,-0.3543
1451974.0,225.863931,1.0,6.79,1.95,-6.82,-26.5,-19.69,24.37,3.75,38.75,7.88,0.05277792473553955,-0.06819204376300625,-0.012289063657950905,-133.7645266360233,5.364844561963229,-43.07375512826057,-0.1308,-0.9197,0.0468,-0.3671
1452009.0,225.907707,1.0,6.91,2.05,-6.39,-26.5,-19.69,24.37,-5.19,51.88,4.25,0.18624729102467885,0.1091197571145484,0.1766912864232264,-132.49673400768697,5.410731896463338,-44.39495201253494,-0.1318,-0.9153,0.0472,-0.3778
1452044.0,225.957582,1.0,7.36,2.04,-6.7,-26.06,-19.0,23.56,-3.88,55.0,4.38,-0.07562958511865503,-0.07012430442769667,-0.3526099507928375,-130.3788376016962,5.330429626451235,-46.519474929129665,-0.1337,-0.9077,0.0465,-0.3949
1452081.0,225.976007,1.0,7.76,1.73,-6.29,-27.56,-19.0,23.56,-11.06,36.25,12.69,0.3394836697748396,-0.29581361645293186,-0.3211259227916017,-129.21728949054742,5.536926565771378,-47.66948159847917,-0.1353,-0.9034,0.0483,-0.4041
1452115.0,226.010409,1.0,7.43,2.41,-6.02,-27.56,-19.0,23.56,-31.12,17.87,8.44,0.013428495784706396,0.34951373201902336,-0.04885911047375125,-128.05386288415187,6.190955481383822,-48.4850628718776,-0.142,-0.899,0.054000000000000006,-0.4106
1452150.0,226.031416,1.0,7.44,2.16,-6.04,-28.37,-19.37,22.0,-21.75,13.69,13.75,-0.00923764974475638,0.05803878214730127,-0.016656274650815206,-127.5329807280848,6.7418724197947295,-48.78685991006569,-0.1464,-0.897,0.0588,-0.413
1452185.0,226.072291,1.0,7.38,2.12,-5.77,-28.69,-20.06,21.06,-27.87,27.56,12.06,-0.012281091417167378,0.01952533526557781,0.2019028437196031,-126.30202625936262,7.396290017779932,-49.66917497940315,-0.1528,-0.8922,0.0645,-0.42
1452222.0,226.128896,1.0,7.99,2.65,-5.61,-30.19,-19.0,19.37,-31.12,11.19,9.13,0.25305624256062176,0.4874182749518299,-0.29449280481887463,-125.47069041747116,8.119875707408232,-50.12416021166318,-0.1595,-0.8889,0.0708,-0.4236
1452255.0,226.149488,1.0,7.51,2.35,-5.66,-30.19,-19.0,19.37,-26.94,1.69,7.0,-0.046914573045921504,0.11038519689189424,0.11418828322530496,-124.94770072590693,8.809306149715164,-50.200073046372225,-0.1667,-0.8868,0.0768,-0.4242
1452292.0,226.192895,1.0,7.29,2.35,-5.57,-30.56,-19.75,19.0,-29.62,4.38,16.94,-0.16664399147938844,0.11127590755301507,0.3382104531421284,-124.47843555677237,9.51055493545105,-50.326646830888215,-0.171,-0.8849,0.0829,-0.4252
1452328.0,226.232953,1.0,8.34,2.95,-5.62,-30.87,-19.5,18.25,-31.62,5.75,9.13,0.18705248790074425,0.548646152667118,-0.6578852866686677,-123.6476805433651,10.453784866884499,-50.554645415086966,-0.1799,-0.8815,0.0911,-0.4270000000000001
1452363.0,226.261129,1.0,7.34,2.57,-5.32,-30.87,-19.5,18.25,-29.0,-14.19,5.69,-0.07456835849580834,0.2606318507078761,0.3880826674218749,-123.50224233828399,11.029269725697887,-50.2633517404334,-0.1854,-0.8809,0.0961,-0.4247
1452398.0,226.297281,1.0,7.39,2.5,-5.61,-32.06,-20.19,18.69,-24.19,-2.44,12.81,-0.207717728448797,0.04612892619157871,0.19993747867115275,-123.33299743586115,11.858462221253813,-49.947121594647854,-0.1907,-0.8802,0.1033,-0.4222
1452433.0,226.330123,1.0,8.1,2.74,-5.63,-30.87,-19.75,17.0,-23.0,-4.13,7.19,0.13016214093222,0.22830721671773802,-0.4278716611164857,-123.04393663031479,12.446181578242712,-49.833378319901584,-0.1954,-0.879,0.1084,-0.4213
1452470.0,226.346019,1.0,7.54,3.26,-5.39,-30.87,-20.56,18.69,-22.62,-20.56,3.38,-0.17274627215226035,0.7462921835823194,0.011523318727247656,-123.14014055583445,12.953497246186647,-49.27805128980349,-0.2003,-0.8794,0.1128,-0.4169
1452505.0,226.404904,1.0,7.29,3.05,-5.67,-30.87,-20.56,18.69,-5.31,-25.19,4.0,-0.3089256375838825,0.4586183132904365,0.0963598811025186,-123.81779521129648,13.426452603767608,-48.30917991037589,-0.2017,-0.8822,0.1169,-0.4092
1452541.0,226.44869100000003,1.0,7.65,2.93,-6.1,-30.87,-19.69,16.56,4.5,-40.44,5.63,-0.16677635884651298,0.2645582341692339,-0.4021498602609093,-124.70026179828331,13.8765501759761,-47.26890777482772,-0.2002,-0.8858,0.1208,-0.4009
1452576.0,226.458031,1.0,7.24,2.53,-5.97,-30.87,-20.19,18.25,10.38,-59.19,7.94,0.09873083036743148,0.15526542402012128,0.08936926559499092,-126.60729740721462,14.430812668433536,-45.31231413333559,-0.194,-0.8934,0.1256,-0.3852
1452611.0,226.512612,1.0,6.86,2.46,-6.29,-30.87,-20.19,18.25,7.5,-55.13,3.06,-0.09274919290017047,0.07132357952574914,0.18055990410852202,-128.1324147334415,14.84673166768115,-43.71506869334832,-0.1899,-0.8993,0.1292,-0.3723
1452646.0,226.53165,1.0,6.71,2.86,-6.5,-29.37,-19.75,20.75,8.94,-47.88,-1.75,-0.19995259230755605,0.4801661179928669,0.05046429758734128,-129.88954402446632,14.858287755594215,-42.01620886419129,-0.1844,-0.9059,0.1293,-0.3585
1452681.0,226.581134,1.0,6.74,2.45,-6.72,-28.75,-19.06,20.75,19.37,-29.25,1.56,-0.026106451143023342,0.14765602217370993,-0.02015091140166448,-130.92785324394194,14.84673166768115,-41.182660023882,-0.179,-0.9097,0.1292,-0.3517
1452718.0,226.606171,1.0,6.81,2.38,-6.98,-29.0,-19.5,22.87,21.75,-21.5,-4.5,0.03251229737669803,0.12756291194528102,-0.23045967629702346,-132.07176372350168,14.61564163128423,-40.38800996971994,-0.1721,-0.9138,0.1272,-0.3452
1452750.0,226.644398,1.0,6.35,2.69,-6.77,-29.0,-19.5,22.87,23.94,-25.31,-8.25,-0.167665614047372,0.5481282507621603,0.15973631413225142,-133.06899702903365,14.315313760812993,-39.70501157955701,-0.1666,-0.9173,0.1246,-0.3396
1452787.0,226.717481,1.0,6.48,1.66,-7.13,-28.0,-18.25,23.25,20.81,-21.06,-1.44,0.17512890174835904,-0.3414651346413533,0.037533794856528864,-134.2337582296838,14.026630173419028,-39.04779541564693,-0.1572,-0.9213,0.1221,-0.3342
1452824.0,226.770089,1.0,6.21,2.23,-7.26,-26.87,-18.69,23.69,12.13,-35.06,-4.44,-0.15498861194450653,0.19175687454678755,-0.0006843896918073966,-135.1561066706563,13.957359493385505,-38.23421144458892,-0.1535,-0.9244,0.1215,-0.3275
1452857.0,226.778935,1.0,5.88,2.23,-6.99,-26.87,-18.69,23.69,19.62,-17.12,-6.19,-0.07420336108062607,0.37829065607633416,0.4120350509597941,-136.4970459556038,13.657245433015795,-37.1565598653149,-0.1471,-0.9288,0.1189,-0.3186
1452894.0,226.794521,1.0,6.1,2.1,-7.56,-25.25,-18.25,25.0,17.37,-7.25,-5.88,-0.14676685378678125,0.16266689154291214,-0.1294256324126941,-137.02578084639396,13.253393932396618,-36.999437339480345,-0.1423,-0.9305,0.1154,-0.3173
1452931.0,226.846001,1.0,5.88,1.79,-7.26,-26.0,-17.56,26.19,25.19,-12.88,-7.38,-0.0044482915546777396,0.06918614677903351,0.2944844479400395,-137.78296246704429,12.745928771149693,-36.72162758785172,-0.1346,-0.9329,0.111,-0.315
1452965.0,226.862669,1.0,6.23,1.89,-7.63,-26.0,-17.56,26.19,21.69,-12.63,-5.38,0.107470376073159,0.16446669091518007,-0.2214754891353508,-138.4562899093435,12.423127669242316,-36.311360803930285,-0.1302,-0.935,0.1082,-0.3116
1452998.0,226.872546,1.0,5.79,1.64,-7.64,-25.75,-17.19,25.87,15.63,-11.19,-5.31,-0.11396151120924135,-0.01321438842428585,0.08193210414813734,-139.14021367291954,12.146519858742266,-35.96180782852424,-0.1238,-0.9371,0.1058,-0.3087
1453035.0,226.914858,1.0,5.78,1.83,-7.59,-24.87,-17.19,25.87,21.0,-6.69,-9.38,-0.09416038870799248,0.26811133127831355,0.09662167175921432,-139.76858389100772,11.674144907935558,-35.696860557625506,-0.1182,-0.939,0.1017,-0.3065
1453072.0,226.955745,1.0,6.0,1.32,-7.71,-24.87,-16.37,28.75,17.69,2.5,-4.81,0.12720130406611352,-0.14647175908424942,-0.04976242298812572,-140.00247242955643,11.271055753655435,-35.829309438989284,-0.1127,-0.9397,0.0982,-0.3076
1453105.0,227.016406,1.0,6.21,1.52,-7.88,-24.87,-16.37,28.75,13.38,-0.88,-4.06,0.15083815396611475,0.07073747079218362,-0.3393415267820909,-140.23768007093892,10.925662281710133,-35.841352697842005,-0.1092,-0.9404,0.0952,-0.3077
1453142.0,227.030329,1.0,5.61,1.5,-7.65,-24.87,-16.06,28.37,23.25,-5.56,-8.25,-0.1568521862467489,0.08262241482594956,0.20388108013954387,-140.61001416599206,10.51132121524803,-35.67278424373711,-0.1063,-0.9415,0.0916,-0.3063
1453178.0,227.078392,1.0,5.71,1.01,-7.76,-24.25,-16.75,27.5,20.0,-6.75,-2.56,0.003699342002280392,-0.3010009975771242,0.12413045628998988,-141.1232586742633,10.166142467644526,-35.504295540348124,-0.0999,-0.943,0.0886,-0.3049
1453211.0,227.097725,1.0,6.03,1.69,-7.92,-24.25,-16.75,27.5,15.94,-23.12,-6.19,0.11158751734845662,0.4138541635102884,-0.2809499602143841,-141.78287468010964,9.970582425862727,-34.96325925488904,-0.0966,-0.9449,0.0869,-0.3004
1453246.0,227.165614,1.0,5.75,1.05,-7.85,-23.75,-16.5,28.25,21.25,-8.13,-3.44,0.1308005885207475,-0.10441018040661497,0.020972214569390246,-142.5249164652642,9.499056247386587,-34.591013631336175,-0.0896,-0.947,0.0828,-0.2973
1453283.0,227.171011,1.0,5.41,1.2,-7.7,-23.0,-16.06,28.69,18.75,5.06,-7.44,-0.09935911858543588,0.07398036886328699,0.3207259717054036,-142.6678687639012,8.993207204284674,-34.66303165808797,-0.0863,-0.9474,0.0784,-0.2979
1453318.0,227.214154,1.0,5.61,1.22,-7.83,-23.0,-16.06,28.69,19.87,4.75,-9.38,-0.04102891668257058,0.1478794063440821,0.0986199058369639,-142.77543036661098,8.476043091817116,-34.86715957624261,-0.0814,-0.9477,0.0739,-0.2996
1453352.0,227.254425,1.0,5.76,0.94,-7.96,-23.37,-16.5,28.69,9.06,-1.81,-4.94,0.05045948753043872,-0.08896276420219748,-0.06311896724050392,-142.84730495776557,8.269226458088282,-34.92721890485463,-0.0782,-0.9479,0.0721,-0.3001
1453387.0,227.310502,1.0,5.36,1.17,-7.69,-24.19,-15.56,29.19,11.06,-0.25,-6.56,-0.15740431990231896,0.1891237881331026,0.3634484204064403,-143.02758111671002,7.970538771598189,-34.903193986048876,-0.0754,-0.9484,0.0695,-0.2999
1453422.0,227.322591,1.0,6.16,1.43,-8.13,-23.75,-14.88,30.0,9.69,-1.75,-5.44,0.19933652207637287,0.4665690101734898,-0.480719844120129,-143.13615512462272,7.729330710703709,-34.92721890485463,-0.0729,-0.9487,0.0674,-0.3001
1453457.0,227.363462,1.0,5.24,0.94,-7.66,-23.75,-14.88,30.0,17.0,-4.44,-6.13,-0.1821584127878011,0.0709452292210363,0.4804189773895562,-143.46374555627918,7.361841150905901,-34.831128724414064,-0.0677,-0.9496,0.0642,-0.2993
1453494.0,227.394756,1.0,5.61,0.74,-7.98,-23.37,-15.19,30.0,4.63,1.75,-2.5,-0.036386850172323904,-0.10633126611323282,0.024652777603066056,-143.53692935464713,7.1781250358345785,-34.87917065061918,-0.0649,-0.9498,0.0626,-0.2997
1453531.0,227.430348,1.0,6.11,1.28,-8.07,-23.37,-14.88,30.37,6.56,-1.06,-5.81,0.23214619401291656,0.4516459947408169,-0.3834198741490429,-143.53692935464713,6.937025592767178,-34.91520624744418,-0.0641,-0.9498,0.0605,-0.3
1453563.0,227.448001,1.0,5.35,0.71,-7.67,-23.37,-14.88,30.37,13.25,-2.38,-2.06,-0.06085633485537256,-0.06781351489748452,0.4286332675716977,-143.72051272987528,6.7418724197947295,-34.843138613311,-0.0616,-0.9503,0.0588,-0.2994
1453598.0,227.494882,1.0,5.44,0.79,-7.85,-23.5,-14.19,30.0,7.13,4.19,-0.88,-0.1265733198024912,0.03334474630236259,0.22421464552939696,-143.68372432172094,6.604129057804274,-34.9993031752255,-0.0588,-0.9502,0.0576,-0.3007
1453633.0,227.522617,1.0,6.11,0.4,-8.18,-23.75,-14.19,31.25,-0.94,4.44,2.06,0.2496466760277128,-0.3212918547121378,-0.4030976991962909,-143.5003197378201,6.581172764918962,-35.20361971980137,-0.0571,-0.9497,0.0574,-0.3024
1453670.0,227.603425,1.0,5.78,0.89,-7.95,-23.06,-13.5,30.37,-10.75,-2.75,-0.44,0.05332566152817764,0.1179159917833376,-0.061797304044558736,-143.46374555627918,6.6729995322127,-35.143514652215984,-0.0602,-0.9496,0.0582,-0.3019
1453705.0,227.65539,1.0,5.56,1.04,-7.89,-23.06,-13.5,30.37,-6.31,-0.06,0.37,-0.10072854784958718,0.2212631301961585,0.10158965052952773,-143.46374555627918,6.730393436549607,-35.07140174532199,-0.0624,-0.9496,0.0587,-0.3013
1453742.0,227.705077,1.0,5.8,0.86,-8.02,-24.25,-14.56,30.37,-8.06,1.25,4.19,0.03919092624196452,0.02162161732946591,-0.1280365364219893,-143.35423456188457,6.971466463000763,-35.10745640434998,-0.0641,-0.9493,0.0608,-0.3016
1453776.0,227.802657,1.0,5.71,1.06,-7.8,-23.06,-14.56,30.0,-12.38,-0.88,0.5,0.05922216176444151,0.20979163345980484,0.08450104999485042,-143.2814024718206,7.086273935339353,-35.10745640434998,-0.0664,-0.9491,0.0618,-0.3016
1453811.0,227.906448,1.0,5.49,1.05,-7.81,-23.06,-14.56,30.0,-3.94,3.88,2.88,-0.13277166789916173,0.13341367205214796,0.20439648968728186,-143.13615512462272,7.1781250358345785,-35.16755548021839,-0.0692,-0.9487,0.0626,-0.3021
1453844.0,227.943567,1.0,6.07,0.88,-8.11,-23.5,-14.56,30.0,-12.31,-1.12,5.5,0.19204931668656,-0.07063200927957555,-0.3594469983187434,-142.99145809873448,7.4881569438495115,-35.16755548021839,-0.0717,-0.9483,0.0653,-0.3021
1453881.0,227.95073900000003,1.0,5.48,1.51,-7.63,-23.5,-15.69,30.0,-23.12,-7.94,-1.88,-0.08305973872482353,0.5058509043044402,0.3058807710155751,-143.02758111671002,7.683390239501281,-34.92721890485463,-0.0767,-0.9484,0.067,-0.3001
1453916.0,227.99924700000003,1.0,5.36,1.21,-7.74,-23.5,-15.69,30.0,-1.81,0.44,0.0,-0.17075568302809874,0.13952147715079408,0.3170411432489839,-143.06373822672285,7.717845476549469,-34.8191192303352,-0.0792,-0.9485,0.0673,-0.2992
1453950.0,228.006448,1.0,5.87,1.16,-8.1,-23.87,-15.69,28.69,-5.5,-1.06,2.44,0.04588650315383802,0.06588547741726998,-0.26340727554187104,-142.99145809873448,7.9245916846795215,-34.831128724414064,-0.0796,-0.9483,0.0691,-0.2993
1453985.0,228.016875,1.0,5.6,1.27,-7.72,-23.87,-15.69,28.69,-2.25,-3.44,-0.63,0.029156522455412226,0.21494000105230268,0.18769731828116493,-143.02758111671002,8.050949266749551,-34.75907767623433,-0.0805,-0.9484,0.0702,-0.2987
1454022.0,228.019337,1.0,5.68,1.34,-7.87,-23.0,-15.69,29.19,-7.75,-0.94,2.44,0.013770107343370695,0.2371260846740129,0.011830879459237664,-143.02758111671002,8.108387763620353,-34.66303165808797,-0.08199999999999999,-0.9484,0.0707,-0.2979
1454055.0,228.021988,1.0,5.85,1.6,-7.99,-23.0,-15.69,29.19,-1.19,-3.44,0.25,0.05666162019377019,0.4740070003688112,-0.21306590537368386,-143.13615512462272,8.142851840335263,-34.555009904291715,-0.0826,-0.9487,0.071,-0.297
1454092.0,228.024707,1.0,5.44,1.06,-7.94,-23.06,-15.0,29.19,2.94,0.25,-0.75,-0.14647554612148506,-0.05335304584694367,0.12488888092216754,-143.20870960086745,8.073924421552888,-34.53100937438062,-0.0811,-0.9489,0.0704,-0.2968
1454129.0,228.027239,1.0,5.66,1.1,-7.88,-23.87,-15.25,28.75,0.5,3.94,0.56,0.04239420579185449,0.011981660339328792,0.04252898625120416,-143.06373822672285,8.165828301178744,-34.61501807279963,-0.0815,-0.9485,0.0712,-0.2975
1454163.0,228.065638,1.0,5.89,1.36,-7.91,-23.87,-15.25,28.75,-1.75,-0.25,0.44,0.15530244640045154,0.272124094899869,-0.14380876465587633,-143.02758111671002,8.177316654862214,-34.675036035061034,-0.0819,-0.9484,0.0713,-0.298
1454196.0,228.121506,1.0,5.42,1.21,-7.76,-23.75,-15.69,30.0,2.25,-2.31,-0.31,-0.10641023276141803,0.12044723176080475,0.2655667634526502,-143.06373822672285,8.165828301178744,-34.61501807279963,-0.0816,-0.9485,0.0712,-0.2975
1454233.0,228.129747,1.0,5.8,1.29,-7.93,-23.0,-15.25,30.37,-0.56,0.88,-0.69,0.0909595004112398,0.19539215867642992,-0.1000420954278507,-143.09992952909138,8.016487142063689,-34.65102767354547,-0.0813,-0.9486,0.0699,-0.2978
1454268.0,228.146313,1.0,5.76,1.22,-7.92,-23.0,-15.25,30.37,2.25,-2.38,-0.5,0.08540094408842425,0.13339203260983648,-0.06083768655857291,-143.1724151146164,7.970538771598189,-34.60301565627788,-0.0808,-0.9488,0.0695,-0.2974
1454303.0,228.20598,1.0,5.41,0.94,-7.86,-23.0,-15.25,28.69,2.06,0.94,2.19,-0.11519365807656225,-0.13387931184490434,0.22019566322882334,-143.20870960086745,7.970538771598189,-34.591013631336175,-0.0795,-0.9489,0.0695,-0.2973
1454338.0,228.23867,1.0,5.75,1.31,-7.92,-23.75,-15.69,29.56,-2.63,2.25,-0.31,0.04844352193580459,0.2294687937625261,-0.06502651910614432,-143.13615512462272,7.982025743589274,-34.675036035061034,-0.0803,-0.9487,0.0696,-0.298
1454374.0,228.256492,1.0,5.58,1.22,-7.82,-23.75,-15.69,29.19,2.25,-1.63,0.12,-0.01678059574685653,0.15405766557376785,0.12402718139943406,-143.13615512462272,7.982025743589274,-34.66303165808797,-0.0799,-0.9487,0.0696,-0.2979
1454407.0,228.298946,1.0,5.47,1.11,-7.82,-23.75,-15.69,29.19,2.31,4.06,1.31,-0.10502206493523003,0.05036640110053786,0.19978612090204886,-143.06373822672285,7.982025743589274,-34.77108519878443,-0.0791,-0.9485,0.0696,-0.2988
1454444.0,228.35652,1.0,5.77,1.08,-7.99,-24.19,-15.69,30.37,1.44,3.06,0.37,0.02698009275038871,0.014445032672982359,-0.10790815534037004,-142.95536907296346,7.959051879828772,-34.903193986048876,-0.0789,-0.9482,0.0694,-0.2999
1454481.0,228.421077,1.0,6.06,1.26,-7.98,-23.37,-16.06,29.19,-3.44,-0.19,0.25,0.2350821140614809,0.2053177391946084,-0.2876147590411637,-142.91931394004666,7.9935127959191385,-34.903193986048876,-0.0796,-0.9481,0.0697,-0.2999
1454514.0,228.429142,1.0,5.31,1.28,-7.67,-23.37,-16.06,29.19,-4.13,-2.81,-0.94,-0.1844692703686341,0.21242802578701367,0.3947296102947249,-142.99145809873448,8.039461810968866,-34.78309311529889,-0.0803,-0.9483,0.0701,-0.2989
1454548.0,228.448225,1.0,5.79,1.18,-8.05,-24.19,-14.56,29.56,4.56,2.06,0.44,0.002973651211041428,0.09102285320847024,-0.1788748233426496,-142.95536907296346,8.050949266749551,-34.831128724414064,-0.0798,-0.9482,0.0702,-0.2993
1454583.0,228.521727,1.0,5.7,0.98,-7.86,-23.0,-15.69,30.0,-0.63,-1.88,1.63,0.07093340050001062,-0.06030164290718831,0.04850816025631488,-143.02758111671002,7.94756506816392,-34.843138613311,-0.0787,-0.9484,0.0693,-0.2994
1454620.0,228.525987,1.0,5.59,1.32,-7.78,-23.75,-15.69,29.56,-7.06,-1.81,-0.25,-0.016983647111227462,0.2510821158186449,0.1394079255070455,-143.02758111671002,8.004999928704901,-34.73506381234489,-0.0804,-0.9484,0.0698,-0.2985
1454655.0,228.572496,1.0,5.9,1.09,-8.01,-23.75,-15.69,29.56,6.38,-0.37,1.19,0.14631346594171646,0.021041129883080267,-0.20016515970677773,-143.06373822672285,8.004999928704901,-34.747070547477996,-0.0797,-0.9485,0.0698,-0.2986
1454692.0,228.591467,1.0,5.88,1.29,-7.93,-23.75,-15.69,31.19,1.12,-5.19,-0.31,0.16226901686030715,0.2564563664450769,-0.14479707559041444,-143.24503868567004,7.890132207309978,-34.61501807279963,-0.0781,-0.949,0.0688,-0.2975
1454727.0,228.604308,1.0,5.28,1.1,-7.69,-24.5,-15.25,29.56,2.25,0.37,-1.5,-0.15068365090475264,0.07678054677013033,0.415382823256083,-143.3178010626215,7.959051879828772,-34.555009904291715,-0.0777,-0.9492,0.0694,-0.297
1454759.0,228.647237,1.0,5.81,1.06,-8.16,-24.5,-15.25,29.56,-2.56,3.88,1.88,0.004468231357851239,-0.009162462716062024,-0.2663434023697988,-143.1724151146164,7.970538771598189,-34.687040804634904,-0.0778,-0.9488,0.0695,-0.2981
1454796.0,228.696501,1.0,5.72,1.09,-7.92,-23.0,-16.5,30.0,-1.5,-4.31,1.06,0.06873858026107804,0.053869687458408505,-0.02316551527580124,-143.24503868567004,7.913105112625811,-34.63902408126335,-0.0779,-0.949,0.069,-0.2977
1454833.0,228.715496,1.0,5.5,1.23,-7.79,-23.37,-15.25,30.0,-0.69,1.12,-1.56,-0.04726908394532625,0.18241174195724386,0.1935604035123468,-143.3178010626215,7.855673444559318,-34.555009904291715,-0.0786,-0.9492,0.0685,-0.297
1454868.0,228.760763,1.0,5.81,1.1,-8.07,-23.37,-15.25,30.0,-0.25,-0.44,2.13,0.06390739265993027,0.03849360418167272,-0.1976207923966431,-143.2814024718206,7.890132207309978,-34.60301565627788,-0.0781,-0.9491,0.0688,-0.2974
