TIME,ELAPSED_SECONDS,PSTATE,acc_x,acc_y,acc_z,mag_x,mag_y,mag_z,gyr_x,gyr_y,gyr_z,lin_x,lin_y,lin_z,eul_x,eul_y,eul_z,qua_w,qua_x,qua_y,qua_z
358711.0,1848.8503719999999,1.0,-1.5,0.06,-9.74,-15.75,-16.56,32.19,-1.5,0.63,0.69,0.0654776695646003,-0.08067404056106857,-0.04781114072037696,-132.81066902216784,46.29505700445262,8.349651905481078,0.0222,-0.9164,0.3931,0.0728
358748.0,1848.888517,1.0,-1.58,0.08,-9.66,-15.5,-17.69,31.75,-1.44,-2.13,0.06,-0.005443522343110324,-0.12881512144889418,0.01881177940446932,-132.7820481898819,46.282594858931596,8.395611151395807,0.0222,-0.9163,0.39299999999999996,0.0732
358780.0,1848.9739339999999,1.0,-1.39,0.0,-9.79,-16.19,-17.0,32.19,0.69,1.69,-1.19,0.19409253649501507,-0.033928744439239183,-0.07957156982017821,-132.81066902216784,46.2701332926198,8.384121213370948,0.0223,-0.9164,0.3929,0.0731
358815.0,1848.977325,1.0,-1.5,0.0,-9.69,-16.19,-17.0,32.19,-0.19,0.56,-0.88,0.10348187582923186,-0.11798783344941526,0.002494229484476307,-132.81066902216784,46.2701332926198,8.372631359788455,0.0226,-0.9164,0.3929,0.073
358850.0,1849.070607,1.0,-1.34,0.04,-10.03,-15.75,-17.69,31.37,0.12,0.94,0.31,0.21630745127745424,0.05275708102649698,-0.3100949200285488,-132.81066902216784,46.282594858931596,8.326672787534774,0.0225,-0.9164,0.39299999999999996,0.0726
358887.0,1849.1322940000002,1.0,-1.52,0.14,-9.61,-16.19,-17.69,31.75,0.63,-2.31,2.5,-0.016359717057151068,-0.04384725900440023,0.07628979199456865,-132.81066902216784,46.2701332926198,8.395611151395807,0.0225,-0.9164,0.3929,0.0732
358920.0,1849.152203,1.0,-1.59,0.14,-9.62,-16.19,-17.69,31.75,-1.31,-0.88,0.31,-0.060458564765936376,-0.0883533708000997,0.055719867760576136,-132.7820481898819,46.30751972941107,8.41859128124216,0.0227,-0.9163,0.3932,0.0734
358955.0,1849.2238100000002,1.0,-1.49,0.09,-9.97,-15.5,-17.25,32.19,0.81,1.75,0.81,0.07663051619281593,-0.017903172653464774,-0.27416877827376673,-132.75344370342964,46.33244691855332,8.372631359788455,0.0228,-0.9162,0.3934,0.073
358989.0,1849.229546,1.0,-1.57,0.1,-9.68,-15.06,-16.56,33.0,-1.31,-1.94,-1.19,-0.014090480577372569,-0.09277701275448427,9.638090111430132e-05,-132.75344370342964,46.30751972941107,8.407101173980415,0.0229,-0.9162,0.3932,0.0733
359024.0,1849.2332079999999,1.0,-1.55,0.11,-9.65,-15.75,-18.06,33.0,0.5,-0.31,-0.37,-0.00778656356015628,-0.0730310367286198,0.032617780025365306,-132.7820481898819,46.30751972941107,8.430081473298436,0.0229,-0.9163,0.3932,0.0735
359059.0,1849.304377,1.0,-1.63,0.1,-9.68,-15.75,-18.06,33.0,-0.19,-2.44,-2.06,-0.0478713334086357,-0.1277791071182934,-0.00918826452034338,-132.7820481898819,46.257672305289105,8.464552559408572,0.0231,-0.9163,0.3928,0.0738
359094.0,1849.320762,1.0,-1.69,0.04,-9.62,-15.75,-17.69,32.19,0.44,1.0,-2.69,-0.049988365657678224,-0.2157636239289487,0.041761510012621635,-132.89662989290295,46.170461586302004,8.487533709607298,0.0231,-0.9167,0.3921,0.07400000000000001
359129.0,1849.328416,1.0,-1.6,0.13,-9.68,-15.5,-17.0,33.0,0.88,0.5,0.25,-0.050756114983699314,-0.07834435550481494,-0.005107537707111476,-132.89662989290295,46.158005222618215,8.476043091817116,0.0234,-0.9167,0.392,0.0739
359165.0,1849.423082,1.0,-1.44,-0.05,-9.84,-15.5,-17.0,33.0,1.56,0.5,-1.88,0.1935058206230401,-0.06670581181517149,-0.13617685316681793,-132.95401941873996,46.10818553492847,8.41859128124216,0.0239,-0.9169,0.3916,0.0734
359200.0,1849.428275,1.0,-1.43,0.0,-9.78,-15.5,-17.0,31.75,0.25,-1.31,-0.37,0.1512997307169261,-0.027016540114429444,-0.07614709890096094,-132.95401941873996,46.09573205363145,8.395611151395807,0.0242,-0.9169,0.3915,0.0732
359237.0,1849.569834,1.0,-1.7,0.11,-9.45,-15.75,-17.25,31.37,-1.31,0.31,-2.38,-0.1407773442425979,-0.17648563544967052,0.2069815390672005,-133.01147504963205,46.045923884135675,8.453062112264227,0.024,-0.9171,0.3911,0.0737
359270.0,1849.590675,1.0,-1.57,0.0,-9.63,-15.75,-17.25,31.37,-0.12,-0.5,-0.94,0.047084102453005934,-0.13933696052892833,0.05061759442001623,-133.04022773049576,45.99612491286469,8.453062112264227,0.0241,-0.9172,0.3907,0.0737
359305.0,1849.633134,1.0,-1.55,0.07,-9.74,-15.75,-17.25,31.75,-0.31,0.37,-0.37,0.023969084208284475,-0.06265586038266713,-0.05593078426544197,-133.06899702903365,45.98367660557063,8.464552559408572,0.0242,-0.9173,0.3906,0.0738
359340.0,1849.636042,1.0,-1.53,-0.04,-9.68,-15.06,-17.25,32.88,0.88,1.5,-1.75,0.1036157870319054,-0.1370956760767734,0.007906787512041547,-133.12658560187518,45.93388911170107,8.41859128124216,0.024,-0.9175,0.3902,0.0734
359374.0,1849.639047,1.0,-1.54,0.09,-9.69,-15.06,-17.25,32.88,-1.56,0.94,-0.56,0.002615615602614349,-0.05953962114945496,-0.005192242518390343,-133.18424101457546,45.896554507042076,8.395611151395807,0.0237,-0.9177,0.3899,0.0732
359409.0,1849.6420219999998,1.0,-1.42,0.0,-9.87,-15.5,-17.25,31.75,1.37,2.19,-0.31,0.1594354960649843,-0.02318670876883175,-0.16367309903400162,-133.18424101457546,45.896554507042076,8.326672787534774,0.0237,-0.9177,0.3899,0.0726
359444.0,1849.644777,1.0,-1.45,0.08,-9.88,-16.19,-17.0,31.75,0.44,-0.06,0.56,0.0773187046885339,0.01401767483536881,-0.17919624970250325,-133.18424101457546,45.90899880278562,8.303694005010767,0.0239,-0.9177,0.39,0.0724
359479.0,1849.6475469999998,1.0,-1.44,-0.03,-9.79,-15.75,-17.25,31.37,1.06,1.06,-0.88,0.1521741640054182,-0.062371046234136085,-0.08736601355086115,-133.18424101457546,45.896554507042076,8.303694005010767,0.024,-0.9177,0.3899,0.0724
359516.0,1849.6738579999999,1.0,-1.55,0.05,-9.72,-15.75,-17.25,31.37,-0.63,-0.44,-0.06,0.009447004220275876,-0.09292445472348118,-0.03584337311565733,-133.18424101457546,45.896554507042076,8.292204739238791,0.024,-0.9177,0.3899,0.0723
359550.0,1849.7201949999999,1.0,-1.68,0.01,-9.6,-15.5,-16.56,31.75,-1.37,0.0,-1.0,-0.06603671450489397,-0.2274785165007457,0.06363236289864815,-133.21309386328863,45.85922505196,8.280715556970401,0.0239,-0.9178,0.3896,0.0722
359587.0,1849.731527,1.0,-1.55,0.07,-9.58,-15.06,-18.5,32.56,-0.06,3.63,1.37,-0.02794793872789097,-0.1065776907720413,0.1024416289606318,-133.21309386328863,45.896554507042076,8.22327089407658,0.0235,-0.9178,0.3899,0.0717
359620.0,1849.8466329999999,1.0,-1.32,-0.08,-9.77,-15.06,-18.5,32.56,0.31,4.38,-1.12,0.24134744810049066,-0.04201595658750623,-0.04939819736021178,-133.2419635150545,45.88411078347371,8.096899901459961,0.0232,-0.9179,0.3898,0.0706
359655.0,1849.8556629999998,1.0,-1.58,0.0,-9.65,-15.5,-17.25,31.75,-1.19,-0.5,-0.25,-0.011277414211129766,-0.19090542046225595,0.03002850071064245,-133.27085000109963,45.87166763185487,8.062436803571838,0.0229,-0.9179999999999999,0.3897,0.0703
359690.0,1849.966455,1.0,-1.46,-0.03,-9.69,-15.5,-17.69,32.56,-0.94,3.25,-0.12,0.08893785644364187,-0.12815860153659595,0.008473361944149715,-133.27085000109963,45.88411078347371,8.004999928704901,0.0228,-0.9179999999999999,0.3898,0.0698
359725.0,1849.970638,1.0,-1.44,0.13,-9.69,-15.5,-17.69,32.56,-2.44,2.0,1.19,-0.013158619516955128,-0.015777995850823182,0.00939641006065628,-133.27085000109963,45.88411078347371,7.970538771598189,0.0222,-0.9179999999999999,0.3898,0.0695
359759.0,1849.973773,1.0,-1.37,0.11,-9.9,-15.5,-17.69,32.19,1.37,2.19,-0.5,0.0693549051501476,0.021507243273552492,-0.18803495429538053,-133.2997533527462,45.88411078347371,7.913105112625811,0.0214,-0.9181,0.3898,0.069
359792.0,1849.9766739999998,1.0,-1.5,0.03,-9.68,-15.5,-18.06,32.56,0.06,0.88,-1.37,0.0074232057698301185,-0.14908791063638702,0.012211900194671443,-133.3576107786115,45.8343416064403,7.878645873813733,0.0214,-0.9183,0.3894,0.0687
359829.0,1850.0152480000002,1.0,-1.54,0.17,-9.63,-15.75,-17.0,31.37,-1.25,-1.06,-4.88,-0.12549490926010706,-0.08705716497360694,0.0540056366605608,-133.444524198005,45.7223943424676,7.878645873813733,0.0212,-0.9186,0.3885,0.0687
359862.0,1850.024241,1.0,-1.49,0.25,-9.66,-15.75,-17.0,31.37,7.38,0.81,-8.38,-0.15895418433311634,0.043228003085653,0.03060453636634186,-133.706188934986,45.461363019954995,7.890132207309978,0.023,-0.9195,0.3864,0.0688
359899.0,1850.077248,1.0,-1.42,-0.04,-9.74,-15.75,-17.69,31.37,15.63,-44.44,-0.37,0.17189947592381474,0.048348388208986535,-0.034778402601659764,-133.64792062272215,45.31231413333559,8.590953131273462,0.0287,-0.9193,0.3852,0.0749
359936.0,1850.1462789999998,1.0,-2.0,-0.64,-8.71,-15.5,-18.06,31.37,27.37,-29.87,1.56,0.13039204613693756,-0.6523460443519139,0.8718224945177209,-133.18424101457546,45.461363019954995,9.464560757916416,0.0403,-0.9177,0.3864,0.0825
359968.0,1850.1885129999998,1.0,-2.11,-0.37,-8.89,-15.5,-18.06,31.37,4.63,-19.62,7.94,-0.08359632659819632,-0.4119166250415937,0.6718573724581116,-132.83930623013015,45.67265480727474,9.890066196362193,0.0451,-0.9165,0.3881,0.0862
360003.0,1850.1913969999998,1.0,-1.85,-0.57,-8.83,-13.19,-16.19,33.75,14.0,10.56,6.5,0.1782577651911845,-0.3565528533815323,0.7757367443046181,-132.55366749345725,45.98367660557063,9.60254790532585,0.0475,-0.9155,0.3906,0.0837
360040.0,1850.236933,1.0,-1.7,-0.23,-9.27,-13.19,-16.56,32.5,6.5,28.69,10.69,-0.019972518182825718,-0.017421856863787222,0.3792910072904885,-132.38305943270692,46.3449113831939,8.832292528579133,0.0466,-0.9149,0.3935,0.077
360075.0,1850.2846530000002,1.0,-1.86,-0.68,-8.69,-13.19,-16.56,32.5,7.19,39.13,7.75,0.01250050748697179,-0.6168069968770566,0.9152219445121688,-132.29797094336487,46.656712208804855,7.8212153932673,0.0449,-0.9146,0.396,0.0682
360110.0,1850.304156,1.0,-1.45,-0.81,-8.84,-14.69,-15.75,33.25,-27.0,90.94,11.0,0.1748867213098131,-0.7717322656480005,0.8468484427741227,-132.38305943270692,47.11885074218369,5.502509177758649,0.0306,-0.9149,0.3997,0.048
360144.0,1850.354943,1.0,-0.62,-0.07,-9.2,-17.25,-15.5,33.0,-43.69,127.69,10.75,-0.09110103229043527,-0.3491693274043185,0.5925802486514886,-132.38305943270692,47.55675792365637,1.9596111689111861,0.0017,-0.9149,0.4032,0.0171
360181.0,1850.402447,1.0,-0.02,0.42,-8.6,-19.5,-15.06,30.19,-45.69,132.56,3.63,-0.2981409783509654,-0.1270283230478661,1.2024780025227564,-132.24132459051677,47.68200947327645,-0.9052827329224428,-0.0216,-0.9144,0.4042,-0.0079
360214.0,1850.4546489999998,1.0,0.92,0.18,-8.91,-19.5,-15.06,30.19,-51.63,161.0,8.0,0.09680437020662172,-0.5323122638085334,0.8638220039068205,-131.34342588798634,47.73212702761914,-5.7319679651977244,-0.0594,-0.9112,0.4046,-0.05
360251.0,1850.547277,1.0,2.24,0.85,-9.04,-22.5,-17.69,27.75,-82.94,202.56,8.38,0.11988641189394915,-0.06747878081146214,0.4555658990851015,-129.78141812262746,47.64442766376834,-10.005090889774307,-0.09699999999999999,-0.9055,0.4039,-0.0872
360288.0,1850.6186870000001,1.0,4.2,1.32,-10.69,-29.19,-18.75,23.06,-54.75,141.94,6.13,0.415812802808865,-0.09383538625744636,-1.7465657702219932,-127.14545121783674,47.38150698980535,-14.962299399917931,-0.1403,-0.8955,0.4018,-0.1302
360323.0,1850.621993,1.0,3.42,1.11,-7.31,-29.19,-18.75,23.06,-69.37,154.56,10.13,0.26704438697095584,-0.1568182029425178,1.6660913369466341,-124.99731160468365,47.21887922414317,-17.984399539927896,-0.1683,-0.887,0.4005,-0.1563
360357.0,1850.625161,1.0,5.26,2.99,-8.95,-31.5,-20.0,16.5,-83.0,175.5,6.25,-0.656898299334226,0.20111707976420728,-0.9747337954391976,-121.01031078825766,46.70663424071843,-22.711475449834968,-0.2155,-0.8704,0.3964,-0.1969
360392.0,1850.6858670000001,1.0,7.69,3.06,-10.8,-34.38,-21.75,11.5,-47.25,122.12,8.13,0.0825123654111588,-0.27289193518185906,-3.796967963661983,-118.40897537194479,46.170461586302004,-25.770597576108926,-0.2422,-0.8590000000000001,0.3921,-0.223
360429.0,1850.714366,1.0,6.27,2.2,-7.79,-36.25,-21.75,6.88,-35.88,75.69,12.56,0.2920339677153695,-0.3362653063979724,-0.4226530948062912,-116.09778802155995,46.09573205363145,-27.89113735405041,-0.262,-0.8485,0.3915,-0.24100000000000002
360464.0,1850.755216,1.0,6.84,2.8,-7.55,-36.25,-21.75,6.88,-30.81,59.69,13.25,0.019565253387520576,-0.011093928241854293,-0.7587460704564233,-113.94309450479722,46.24521189671154,-29.57087281914313,-0.2788,-0.8384,0.3927,-0.2552
360501.0,1850.771184,1.0,7.09,2.77,-7.36,-36.56,-21.75,4.06,-26.25,49.63,12.75,0.10544134309090514,-0.0565540576377701,-0.780903247173395,-112.56817591001142,46.35737642818546,-30.63884419055943,-0.2888,-0.8318,0.3936,-0.2642
360536.0,1850.77428,1.0,7.14,2.96,-7.16,-37.75,-22.06,2.69,-26.44,37.63,7.56,-0.0747925148130697,-0.1128952245645094,-0.7284561099543989,-111.0351722213916,46.48205884773244,-31.63808150954527,-0.3007,-0.8243,0.3946,-0.2726
360570.0,1850.777241,1.0,7.65,3.86,-7.31,-37.75,-22.06,2.69,-27.37,27.75,4.94,-0.6022296008077694,0.2572558190512284,-1.4374301736502757,-110.04955295767435,46.58184673902731,-32.126697427860236,-0.3093,-0.8194,0.3954,-0.2767
360605.0,1850.817452,1.0,7.71,3.54,-7.41,-38.0,-20.19,1.19,-17.19,24.5,-0.94,-0.3528077450285194,-0.17745979285226188,-1.4506958113788408,-109.17472377788086,46.50700231874489,-32.627853710613714,-0.3179,-0.815,0.3948,-0.2809
360642.0,1850.8691370000001,1.0,8.0,4.39,-7.38,-38.38,-21.69,-0.25,-10.63,12.13,3.38,-0.916739202931107,0.28379568889128315,-1.8901679109010665,-108.68182460772249,46.58184673902731,-32.86672457746944,-0.3217,-0.8125,0.3954,-0.2829
360677.0,1850.8759329999998,1.0,8.25,4.01,-7.54,-38.38,-21.69,-0.25,1.5,1.63,-0.81,-0.5163809148542364,0.07217762518894523,-2.0559947785136203,-108.62287531550987,46.50700231874489,-32.98621503760272,-0.3222,-0.8122,0.3948,-0.2839
360712.0,1850.878638,1.0,8.05,3.98,-7.45,-38.69,-20.56,-1.19,8.38,-10.56,-5.63,-0.537213690597532,0.08549019243539324,-1.84879906374834,-108.95748228388901,46.39477504755206,-32.75921457984873,-0.3208,-0.8139,0.3939,-0.282
360744.0,1850.9254870000002,1.0,7.91,3.47,-7.4,-39.06,-21.0,-1.56,18.94,-25.62,-1.12,-0.1301707747396368,0.018608976363529317,-1.5666392900603905,-109.81002132963994,46.407242416234105,-32.18632560419117,-0.3137,-0.8182,0.39399999999999996,-0.2772
360781.0,1850.97942,1.0,7.25,3.68,-7.35,-38.25,-21.69,0.06,22.5,-36.56,-3.69,-0.5906853707141477,0.061848661389106274,-1.1375112531938054,-110.65153929836842,46.519474929129665,-31.53090365657372,-0.3064,-0.8224,0.3949,-0.2717
360816.0,1850.9865,1.0,7.07,3.49,-7.92,-38.25,-21.69,0.06,27.5,-51.75,-6.25,-0.5262302053792751,-0.12063714657236613,-1.3557838049465438,-112.25913519470078,46.656712208804855,-30.21133398212997,-0.2929,-0.8303,0.396,-0.2606
360851.0,1851.0535350000002,1.0,6.04,2.92,-7.5,-37.56,-21.0,2.06,23.94,-65.12,-2.88,-0.4077150675192103,-0.2926114571115268,-0.2435314391027248,-113.64933964888505,47.006364186921566,-28.69473124115229,-0.2812,-0.8370000000000001,0.3988,-0.2478
360888.0,1851.1359850000001,1.0,6.43,3.1,-8.84,-38.25,-21.37,3.25,37.63,-79.06,-6.44,-0.3979601848885417,-0.2840289279141426,-1.5450659610056956,-115.38674111389929,47.80732155074712,-26.5117266696815,-0.2627,-0.8452,0.4052,-0.2293
360923.0,1851.1517800000001,1.0,5.92,2.92,-8.91,-38.25,-21.37,3.25,52.06,-142.56,-4.94,-0.3326407360108401,0.02195787852277875,-1.2771114550439044,-117.74077335444635,48.296621479022534,-23.95177191669858,-0.2384,-0.856,0.4091,-0.2075
360955.0,1851.1568550000002,1.0,4.6,1.8,-8.4,-37.19,-21.0,6.0,82.5,-169.44,2.13,0.18981315660511866,0.053091585327755264,0.06390129908673893,-121.15010938852664,49.45461164689416,-19.459364085641027,-0.1943,-0.871,0.4183,-0.16899999999999998
360992.0,1851.1709449999998,1.0,3.9,2.07,-9.37,-36.06,-21.37,11.88,50.25,-141.06,-3.31,-0.3263775594466272,0.07770500076096831,-0.5460906816526823,-123.04393663031479,50.16211368688296,-16.350341655632345,-0.1656,-0.879,0.4239,-0.1422
361027.0,1851.174431,1.0,3.58,1.61,-9.76,-36.06,-21.37,11.88,65.0,-157.75,-7.06,0.16204519248378954,0.5493118206420785,-0.6975442993880225,-125.52074054609028,50.630692516856975,-11.985198208002224,-0.1255,-0.8891,0.4276,-0.1044
361062.0,1851.2151399999998,1.0,1.78,0.91,-8.44,-32.75,-19.5,16.56,77.56,-185.94,-3.06,-0.04311456180779755,0.05706293982091421,1.1334161765948494,-127.17120439382437,50.960506625011796,-8.154340029708836,-0.0883,-0.8956,0.4302,-0.0711
361099.0,1851.29084,1.0,1.53,0.58,-9.78,-30.5,-18.69,21.75,46.56,-121.81,-11.81,0.2916920123034406,0.3153435699874094,-0.09997274454952533,-128.31613447366578,51.0874785737173,-4.240855681461491,-0.052000000000000005,-0.9,0.4312,-0.037000000000000005
361134.0,1851.3639289999999,1.0,0.75,0.45,-9.8,-26.0,-16.87,26.5,62.5,-151.94,-0.44,0.1213905042736942,0.3430170261646244,-0.025572722519731528,-128.6854111372357,51.2272254279677,-1.306372069959298,-0.0241,-0.9014,0.4323,-0.0114
361168.0,1851.3696280000001,1.0,-0.04,0.13,-9.43,-26.0,-16.87,26.5,59.13,-155.0,-7.69,0.1967443353165804,0.5683772758502661,0.3948680784498695,-128.81789729217328,51.03668173616908,3.1287382797377283,0.0174,-0.9019,0.4308,0.0273
361203.0,1851.4230870000001,1.0,-1.31,-0.81,-8.91,-22.69,-16.5,29.37,59.13,-144.88,-5.81,0.3418747922664905,-0.32869466149540594,0.7769555729489301,-128.44773606463812,50.782858416372434,6.386054856968827,0.0473,-0.9005,0.4288,0.0557
361240.0,1851.472678,1.0,-1.96,-0.25,-8.43,-16.25,-14.5,33.25,39.88,-134.69,-7.56,-0.2216321489621318,0.2518531321340177,1.1546878416002837,-127.45526250130641,50.37729473020999,10.476799088278916,0.0807,-0.8967,0.4256,0.0913
361275.0,1851.4806429999999,1.0,-2.76,-1.12,-8.48,-16.25,-14.5,33.25,42.88,-144.63,-2.38,0.20547188606377328,-0.2507789157140657,0.8245961569488056,-126.3527930632596,49.959762980286655,13.599542044193303,0.1062,-0.8924,0.4223,0.1184
361310.0,1851.578574,1.0,-3.68,-0.94,-7.87,-12.19,-13.06,35.06,26.5,-111.0,-1.88,-0.2520956860941831,-0.2861504631408692,1.0763885103596689,-124.57692406667047,49.47984477339551,17.474100846214462,0.134,-0.8853,0.4185,0.1519
361347.0,1851.687133,1.0,-4.33,-1.34,-7.29,-7.0,-11.19,37.0,21.56,-99.75,-6.13,-0.17716086489245852,-0.6597328267635764,1.24966649965123,-123.14014055583445,48.824609844362676,20.54151049721856,0.1553,-0.8794,0.4133,0.1783
361381.0,1851.721016,1.0,-4.67,-1.6,-7.48,-4.0,-10.06,38.25,12.94,-58.69,-4.44,-0.019307405361964517,-0.6828373912597415,0.8706184243398152,-122.37462983210787,48.42223359833176,22.045646214809647,0.1661,-0.8762,0.4101,0.1912
361416.0,1851.723924,1.0,-4.68,-1.56,-8.07,-4.0,-10.06,38.25,6.56,-38.19,-7.56,0.17833749289099302,-0.1519207154731166,0.3511745579696281,-121.8301142376418,47.90761495262175,23.37808257553645,0.1745,-0.8739,0.406,0.2026
361453.0,1851.7266309999998,1.0,-4.82,-1.95,-8.4,-1.37,-10.5,38.0,10.06,-38.81,-9.13,0.5360615295546938,-0.13827428412392728,-0.0568391523680134,-121.47748834883792,47.49415477267991,24.221263990434842,0.18100000000000002,-0.8724,0.4027,0.2098
361488.0,1851.729145,1.0,-5.15,-2.24,-8.04,0.5,-10.06,38.06,13.06,-53.81,-8.81,0.6037278307295272,-0.3738618179854388,0.02516544767077633,-120.68528037991207,46.8939256305629,25.67656503656709,0.1925,-0.8690000000000001,0.3979,0.2222
361523.0,1851.731457,1.0,-4.96,-2.71,-9.07,0.5,-10.06,38.06,11.63,-70.25,-4.06,1.4638571425057745,0.2887967669287912,-0.7756143462420813,-119.85682289966007,46.44464801216442,27.100727545597238,0.2022,-0.8654,0.3943,0.2343
361555.0,1851.733908,1.0,-5.56,-2.85,-7.35,1.56,-8.19,38.06,3.75,-86.81,-1.19,1.1126539906739832,-0.622127234601668,0.2445603329343253,-118.0517930817869,45.85922505196,29.93842807862379,0.2154,-0.8574,0.3896,0.2583
361592.0,1851.756212,1.0,-6.2,-2.11,-6.18,5.25,-9.0,38.56,5.5,-85.87,13.13,0.10001413256919134,-0.8897274915940676,0.8465784509559793,-116.37984588511999,45.685088838323495,32.126697427860236,0.2249,-0.8498,0.3882,0.2767
361627.0,1851.780695,1.0,-6.09,-2.59,-7.81,5.25,-9.0,38.56,5.81,-68.0,17.19,1.2466289158573292,0.14867768315366606,-0.35288302532554816,-114.87396927454428,45.64778844933024,33.883581162404816,0.233,-0.8428,0.3879,0.2914
361662.0,1851.876003,1.0,-6.65,-3.05,-6.0,7.5,-8.19,38.19,-7.81,-98.0,45.56,1.2202583994395064,-1.1683102275846196,0.4969227939687429,-112.15639729539848,45.87166763185487,37.229102364563495,0.2402,-0.8298,0.3897,0.3192
361697.0,1851.884175,1.0,-7.58,-0.12,-3.71,10.88,-8.19,38.19,-46.31,-91.62,61.69,-1.7818132771946842,-1.214800695493721,1.6467296134128375,-109.11541872598387,46.46958798664575,41.41533197987328,0.23600000000000002,-0.8147,0.3945,0.3536
361732.0,1851.887916,1.0,-7.33,-2.08,-5.26,12.69,-9.25,37.06,3.19,-50.0,42.25,0.8018551523072255,-1.08961245598218,0.6473556488784649,-107.41388301314085,47.168860218257045,43.01216531236248,0.2365,-0.8059999999999999,0.4001,0.3666
361766.0,1851.984434,1.0,-7.4,-2.45,-5.36,12.69,-9.25,37.06,-23.75,-53.25,73.19,1.6632618061191966,-1.2003755847470172,0.5716752507195046,-104.70808777910831,48.58562199629408,45.7597049678229,0.2295,-0.7918,0.4114,0.3888
361803.0,1851.9943059999998,1.0,-7.2,-1.02,-4.99,15.25,-10.5,36.25,-57.94,-55.25,119.44,0.9782728352049436,-0.6499135656729169,1.0658780308284896,-102.08271174423224,50.2633517404334,48.598194686002294,0.2134,-0.7776,0.4247,0.4115
361840.0,1852.0050420000002,1.0,-7.59,0.27,-4.12,15.25,-12.56,36.38,-79.94,-60.38,151.69,0.37514401365078176,-0.9543358728428653,1.2273778857220474,-97.597406347569,53.166798651819754,53.20524321404206,0.1817,-0.7524,0.4475,0.4478
361873.0,1852.103284,1.0,-7.67,3.02,-4.92,15.25,-12.56,36.38,-83.0,-35.19,152.13,-0.6999376163006672,0.6965208468278674,0.25779425476950024,-94.27697557969387,55.4463329445145,56.40640189813039,0.1514,-0.733,0.4652,0.4726
361908.0,1852.116607,1.0,-7.78,3.51,-4.35,15.19,-17.75,34.38,-59.13,-36.19,125.44,-0.5337402942968927,0.18176373997495346,0.24353945786601194,-90.33972471015196,57.94633904000565,59.722324202247286,0.1198,-0.7092,0.4844,0.4979
361945.0,1852.1692510000007,1.0,-7.6,3.46,-2.52,15.19,-20.75,32.5,-38.06,-9.69,106.0,-1.0881026668989282,-1.1660967047534123,1.2312053432226815,-87.92700356866892,59.68268779789295,61.367629313530685,0.1002,-0.6942,0.4976,0.5103
361981.0,1852.2908559999998,1.0,-6.87,3.51,-3.52,12.19,-24.0,32.88,-32.94,52.81,116.69,-0.09816873322034952,-0.5894190023072452,1.3479061133737442,-85.90628216751116,62.503584484279976,61.55426474750001,0.0686,-0.6814,0.5188,0.5117
362016.0,1852.34483,1.0,-6.76,5.63,-3.55,12.19,-24.0,32.88,-30.62,40.94,105.87,-1.3963663859510136,-0.04475217887289329,0.4234118511159899,-84.59806128816622,64.57934727558172,61.30101752415778,0.0416,-0.6729999999999999,0.5342,0.5098
362053.0,1852.3504690000002,1.0,-6.24,5.1,-4.85,8.88,-25.87,30.19,-16.06,56.13,86.81,0.09400019595346376,0.2574401493126586,0.4047890920370119,-83.33396753816719,67.02240272652745,60.39735535491725,0.0122,-0.6648,0.5521,0.503
362088.0,1852.35346,1.0,-6.06,5.21,-4.71,5.88,-27.37,30.87,-22.62,66.31,80.5,0.08471712615520684,-0.1037491815342717,0.5312061229735754,-82.72182782084748,68.56864672938487,59.471426215105645,-0.0104,-0.6608,0.5633,0.496
362123.0,1852.356006,1.0,-5.45,5.98,-4.67,5.88,-27.37,30.87,-23.62,56.81,82.31,-0.3443798474134374,-0.017211762456470936,0.4710779084820569,-81.97585599565384,70.49365903494044,57.998739571431635,-0.0421,-0.6559,0.5771,0.4848
362158.0,1852.370519,1.0,-5.12,6.21,-3.84,2.19,-28.06,30.5,-23.62,76.75,73.31,-0.9359349618373533,-0.6825641840933709,0.9645783037399251,-81.41535708644898,72.14379745445741,56.302404004510144,-0.0733,-0.6522,0.5888,0.4718
362194.0,1852.3884489999998,1.0,-4.14,6.27,-5.41,-0.75,-29.56,29.25,-25.62,104.19,67.56,0.09400576711476673,0.30548761900361754,0.5536266978362859,-81.79381255981484,72.93974254153213,54.20709186156805,-0.1023,-0.6547,0.5944,0.4556
362229.0,1852.39858,1.0,-3.42,7.72,-5.39,-0.75,-29.56,29.25,-34.0,113.12,66.06,-0.8583863782211361,0.7581948392561122,-0.14499375424531635,-81.93032160430613,73.62524665323141,52.28433952334372,-0.1304,-0.6556,0.5992,0.4406
362262.0,1852.491271,1.0,-3.48,6.9,-3.69,-6.25,-29.56,29.25,-36.81,133.81,44.25,-1.418980862948269,-0.6835161797088158,1.3890613344341372,-82.79818739316053,73.39640598031606,49.59342555885964,-0.1724,-0.6613,0.5976,0.4194
362299.0,1852.586007,1.0,-2.55,8.15,-4.45,-10.75,-29.87,25.75,-38.94,189.69,49.25,-1.6414537015837734,-0.15603135610155405,0.3193540753716331,-84.75308505755767,72.42759839996175,45.01445861245965,-0.22399999999999998,-0.674,0.5908,0.3828
362334.0,1852.594646,1.0,-0.89,7.86,-6.09,-15.5,-31.06,24.19,-17.37,192.81,29.62,-0.12320338824818422,0.9258292685912104,-0.13253815047507267,-86.56562406837946,71.18267056189946,41.19490148271794,-0.2598,-0.6856,0.5820000000000001,0.3518
362369.0,1852.605571,1.0,-1.11,8.56,-4.35,-15.5,-31.06,24.19,-28.06,174.25,26.44,-1.9657376341180104,0.06915013674538173,0.343072779286878,-88.58154277869775,69.31924492932319,36.35960237870008,-0.3026,-0.6983,0.5687,0.312
362405.0,1852.649136,1.0,0.62,8.2,-7.08,-21.06,-30.37,21.19,-0.25,177.38,2.19,0.5660328943590573,0.8276570763138316,-0.9982280893877338,-90.6326728543478,67.4489827766823,32.2936788968098,-0.3299,-0.711,0.5552,0.2781
362442.0,1852.6526579999997,1.0,0.5,8.5,-5.7,-23.25,-29.69,17.56,3.06,147.88,-6.0,-0.7606250867566609,0.43154272019706585,-0.4024253919266023,-92.80467578226568,64.86423446267784,28.21004157144473,-0.3585,-0.7242,0.5363,0.2437
362477.0,1852.6558109999999,1.0,0.24,9.05,-4.85,-23.25,-29.69,17.56,20.06,145.38,-23.94,-1.9626179444208518,0.244279533709074,-0.27159678769319306,-94.91906676360666,62.6779190768701,24.842788298368426,-0.3746,-0.7368,0.5201,0.2151
362510.0,1852.7380280000002,1.0,1.68,8.71,-6.32,-26.69,-30.37,13.25,58.31,119.19,-51.38,-0.4532590306161417,0.8117053315596254,-1.045289490518856,-98.85789490415894,59.07590865675504,20.623036118505983,-0.3846,-0.7596,0.493,0.179
362547.0,1852.767727,1.0,1.63,7.01,-6.27,-28.5,-30.75,10.69,80.62,81.31,-39.63,0.2337641999957001,0.43397216616341217,0.2742356962784154,-101.71892470333574,57.29244480095832,18.100426311736804,-0.3793,-0.7756,0.4794,0.1573
362584.0,1852.85702,1.0,1.35,6.82,-6.69,-27.37,-31.87,9.5,65.0,95.69,-43.56,0.0049516803509594975,-0.03814945619406807,0.15835895443893655,-105.42392787292214,54.91622259305462,14.46546520944767,-0.3722,-0.7956,0.4611,0.1259
362616.0,1852.905803,1.0,2.31,7.63,-7.41,-27.37,-31.87,9.5,54.25,71.56,-53.88,0.10690209296812704,0.7299270732974192,-1.0523038358990409,-108.97720765299678,52.15672470466425,11.823900394126868,-0.3656,-0.8140000000000001,0.4396,0.10300000000000001
362653.0,1852.920659,1.0,2.48,5.21,-8.69,-27.75,-31.19,10.0,62.88,30.44,-30.69,2.0844191307056223,-0.4924067832044767,-0.4023329291366036,-111.35968772291412,50.960506625011796,10.338720083250598,-0.3531,-0.8259,0.4302,0.0901
362690.0,1853.0142600000001,1.0,1.55,6.12,-7.15,-27.75,-31.87,10.38,46.63,13.13,-25.56,0.08523881365418817,0.0572981425841328,0.26889076276281365,-112.73350926918677,50.389958349814904,9.694547078719877,-0.3442,-0.8326,0.4257,0.0845
362723.0,1853.0195809999998,1.0,1.76,5.36,-7.78,-27.75,-31.87,10.38,31.0,22.12,-30.31,0.8125235919526455,-0.2722591205855096,0.2347494372184187,-114.74633713830113,49.126813106735106,8.705871826379285,-0.335,-0.8422,0.4157,0.0759
362758.0,1853.022482,1.0,1.93,5.78,-8.09,-26.25,-31.5,11.19,23.69,-4.69,-11.88,0.6892093566699383,0.017165243342931902,-0.29810609884274264,-115.81683895855758,48.62334193420396,8.41859128124216,-0.3276,-0.8472,0.4117,0.0734
362795.0,1853.0254,1.0,1.1,5.3,-7.21,-26.25,-32.69,12.06,19.06,0.56,-14.13,0.06364477017185999,-0.2838489313769288,0.7955746408996252,-116.4886280777146,48.38454346943903,8.303694005010767,-0.3221,-0.8503,0.4098,0.0724
362829.0,1853.0280070000001,1.0,1.5,5.14,-7.86,-26.25,-32.69,12.06,13.38,7.44,-9.75,0.6356443834495117,-0.3406054892119421,0.3235521876547214,-117.03506304367224,48.02049166769566,8.039461810968866,-0.3196,-0.8528,0.4069,0.0701
362864.0,1853.0305850000002,1.0,1.33,5.71,-7.61,-25.56,-31.75,12.06,2.31,-1.25,-9.38,0.07741031016585997,-0.05371673102885932,0.20059866989106645,-117.27684633570152,47.80732155074712,8.142851840335263,-0.319,-0.8539,0.4052,0.071
362899.0,1853.0782149999998,1.0,1.59,5.63,-8.04,-24.75,-32.88,10.88,1.63,-7.44,-6.13,0.4834388204922021,-0.0523416972192825,-0.12462118014473055,-117.60790637777723,47.56928036162765,8.315183354403652,-0.317,-0.8554,0.4033,0.0725
362934.0,1853.1884850000001,1.0,1.2,5.91,-7.43,-24.5,-32.19,11.25,4.06,-2.44,-5.81,-0.18377764797215745,0.12826652174039088,0.23989645057130995,-117.76294265360838,47.50667419847937,8.41859128124216,-0.3153,-0.8561,0.4028,0.0734
362969.0,1853.235648,1.0,1.05,5.66,-7.67,-24.5,-32.19,11.25,8.25,0.56,-6.06,-0.04875927366203692,-0.1691659417417024,0.2183234819163236,-118.14091440496072,47.29392563415834,8.372631359788455,-0.313,-0.8578,0.4011,0.073
363003.0,1853.24045,1.0,1.15,5.62,-7.89,-24.87,-32.19,12.5,6.06,-10.19,-2.25,0.11921862255694105,-0.16732904460109932,0.05386640192562808,-118.31950504112476,47.29392563415834,8.464552559408572,-0.3105,-0.8586,0.4011,0.0738
363038.0,1853.243573,1.0,1.26,5.54,-7.97,-24.56,-32.19,13.69,-3.0,-5.69,-2.88,0.2930132331354751,-0.1307788941245951,0.024158490877232097,-118.31950504112476,47.35648075084825,8.671395302011161,-0.3094,-0.8586,0.4016,0.0756
363073.0,1853.2463559999999,1.0,1.12,5.93,-7.8,-24.56,-32.19,13.69,-0.06,-5.25,-1.69,-0.08024328071570053,0.05135799862738777,-0.05490278705523721,-118.29715573552454,47.36899357064292,8.912747665103913,-0.3094,-0.8585,0.4017,0.0777
363108.0,1853.2718969999999,1.0,1.09,5.93,-7.89,-24.87,-33.69,14.5,4.25,1.12,-0.88,-0.07106297210582901,-0.00444810791338357,-0.12310479396805185,-118.31950504112476,47.35648075084825,8.901253805563371,-0.3089,-0.8586,0.4016,0.0776
363145.0,1853.3258690000002,1.0,1.05,5.86,-7.67,-23.75,-32.88,14.06,4.0,-1.37,-3.63,-0.13746395585327684,0.05909102340120409,0.0984775709691572,-118.47615510912563,47.29392563415834,8.935735653853008,-0.3079,-0.8593,0.4011,0.0779
363177.0,1853.3305,1.0,1.09,5.71,-7.85,-23.75,-32.88,14.06,-1.31,-2.5,-1.94,0.05640691950975929,-0.05135384509289277,0.038903021191343264,-118.56583115924386,47.21887922414317,8.970218312913039,-0.3072,-0.8597,0.4005,0.0782
363212.0,1853.3866170000001,1.0,1.05,5.85,-7.88,-24.19,-32.88,13.25,2.13,-3.88,-1.25,-0.02671583877788985,-0.003495311425165681,-0.06343987024720299,-118.56583115924386,47.2313854664036,9.154139652218912,-0.3066,-0.8597,0.4006,0.0798
363247.0,1853.476829,1.0,1.03,5.82,-7.67,-24.19,-32.19,13.69,2.5,-1.69,-1.56,-0.09289069402556692,0.07660193386454894,0.12431022788439527,-118.56583115924386,47.26890777482772,9.246109154854068,-0.3062,-0.8597,0.4009,0.0806
363282.0,1853.517797,1.0,0.96,5.71,-7.74,-24.19,-32.19,13.69,2.0,1.81,0.06,-0.058290525005355365,-0.05083754354642833,0.14086923697517584,-118.63316578204837,47.25639974151138,9.17713147157167,-0.3054,-0.86,0.4008,0.08
363315.0,1853.522944,1.0,1.08,5.71,-7.81,-24.56,-32.88,12.88,1.44,0.31,-1.94,0.041336762637351636,0.003776893493512736,0.07192468250232409,-118.70056715200869,47.21887922414317,9.119652615329127,-0.3054,-0.8603,0.4005,0.0795
363350.0,1853.5262579999999,1.0,1.05,5.8,-7.83,-23.37,-32.56,14.06,0.94,-1.19,-2.13,-0.012560849958331288,0.031027200162315083,0.006125547813860877,-118.74553859011928,47.14385428992954,9.22311622194562,-0.3051,-0.8605,0.3999,0.0804
363384.0,1853.578287,1.0,0.8,5.79,-7.66,-23.06,-32.56,14.06,2.56,-5.56,0.44,-0.2276431369698688,-0.0597530320801889,0.17418883073760938,-118.79053985855312,47.15635695640368,9.3380846266553,-0.3044,-0.8607,0.4,0.0814
363419.0,1853.6269829999999,1.0,0.91,5.68,-7.69,-23.06,-32.56,14.06,7.0,-5.38,-1.5,-0.08458326975316577,-0.0019108500396676216,0.2035545605528845,-118.92572331092975,47.1938685290374,9.395572354596672,-0.3021,-0.8613,0.4003,0.0819
363456.0,1853.675479,1.0,0.85,5.73,-7.73,-23.06,-32.56,13.25,0.63,2.06,-1.37,-0.14825753279724418,-0.041295247071528866,0.14825394234435052,-118.99341650256764,47.11885074218369,9.326587364176332,-0.3021,-0.8616,0.3997,0.0813
363489.0,1853.680446,1.0,1.02,5.66,-7.84,-23.37,-32.88,13.69,1.0,2.44,-0.37,0.03645640999884725,-0.006420691430365721,0.08346997981670512,-119.06117764081604,47.0813498800656,9.21161989509871,-0.3021,-0.8619,0.3994,0.0803
363524.0,1853.743252,1.0,1.09,5.77,-8.06,-23.37,-32.88,13.69,0.94,-2.75,-1.69,0.09626329986737604,0.004612822627811486,-0.165075632956718,-119.10638959402516,47.043854363744316,9.21161989509871,-0.3019,-0.8621,0.3991,0.0803
363558.0,1853.7468399999998,1.0,0.88,5.75,-7.74,-23.37,-32.56,13.25,1.5,-4.13,0.12,-0.14713904439679024,0.003051797197264783,0.12559423174063689,-119.10638959402516,47.093849573149654,9.303593121383253,-0.3012,-0.8621,0.3995,0.0811
363595.0,1853.80581,1.0,0.96,5.75,-7.71,-23.75,-32.56,14.88,-0.19,0.94,-1.88,-0.08677769318612416,0.07040944484443568,0.14146960116408458,-119.06117764081604,47.05635227559625,9.384074619875275,-0.3018,-0.8619,0.3992,0.0818
363628.0,1853.85672,1.0,1.04,5.83,-8.13,-23.75,-32.56,14.88,-3.5,1.63,-2.0,0.0824717291106043,-0.026564458997669682,-0.2511774365498862,-119.10638959402516,46.981373698987284,9.384074619875275,-0.3022,-0.8621,0.3986,0.0818
363663.0,1853.922099,1.0,1.05,5.8,-7.99,-23.37,-32.88,14.06,5.5,0.88,-1.69,0.04177843211076171,0.04208897779031906,-0.12204996930912235,-119.17426448564116,46.968879343305815,9.3380846266553,-0.3014,-0.8624,0.3985,0.0814
363698.0,1853.928974,1.0,0.9,5.62,-7.8,-23.75,-32.88,13.75,3.75,-1.0,-1.81,-0.021135094257936138,-0.051235815821585984,0.15101287969727473,-119.28754177396172,46.93139982661226,9.349581983346614,-0.3004,-0.8629,0.3982,0.0815
363730.0,1854.0508079999997,1.0,0.74,5.52,-7.81,-23.75,-32.88,13.75,0.81,-1.25,-2.0,-0.06168424843233145,-0.21102304540745154,0.2167717772172768,-119.33290625430892,46.918907837056295,9.372576979838527,-0.2998,-0.8631,0.3981,0.0817
363765.0,1854.053936,1.0,0.99,5.9,-7.93,-23.75,-32.88,13.69,-3.13,-3.44,1.0,-0.09204575300772744,0.11649787426734015,-0.12576943459117373,-119.35560000731121,46.918907837056295,9.384074619875275,-0.2995,-0.8632,0.3981,0.0818
363800.0,1854.1021059999998,1.0,0.89,5.57,-7.72,-22.25,-32.56,13.69,0.5,-3.88,-1.25,-0.009807996329527556,-0.016000095553565075,0.2455283189340029,-119.35560000731121,46.918907837056295,9.522053719499675,-0.2993,-0.8632,0.3981,0.083
363835.0,1854.1494309999998,1.0,0.85,5.7,-7.79,-23.37,-33.25,14.06,2.06,-0.94,-1.12,-0.08490111299815918,-0.008093766772298672,0.1169995268430295,-119.35560000731121,46.8939256305629,9.568049817899787,-0.2993,-0.8632,0.3979,0.0834
363870.0,1854.166354,1.0,0.7,5.86,-7.71,-23.37,-33.25,14.06,1.5,-1.0,0.69,-0.3204227211682941,0.009770476173474927,0.10247905047760142,-119.37830144711693,46.918907837056295,9.591048446078224,-0.2987,-0.8633,0.3981,0.0836
363907.0,1854.1743600000002,1.0,0.86,5.71,-8.0,-22.69,-32.56,14.06,2.0,-0.19,-0.63,-0.013190299603137778,-0.07318288753476354,-0.059360859560637635,-119.44645197451608,46.88143541316104,9.556550648732504,-0.2984,-0.8636,0.3978,0.0833
363941.0,1854.177075,1.0,0.84,5.76,-7.82,-23.06,-32.88,14.5,0.94,1.37,-0.88,-0.13034349967821854,0.025511290980442247,0.058934383193971485,-119.46918424877704,46.88143541316104,9.556550648732504,-0.298,-0.8637,0.3978,0.0833
363974.0,1854.180195,1.0,0.99,5.58,-8.12,-23.06,-32.88,14.5,2.63,0.81,-0.94,0.1770087802458462,-0.08467799338381399,-0.09347108659042468,-119.58296175366009,46.831480443770964,9.430066128049686,-0.2974,-0.8642,0.3974,0.0822
364009.0,1854.182735,1.0,0.86,5.83,-7.95,-23.75,-32.56,14.19,-0.12,-2.06,0.63,-0.13095799654872142,0.027949560940709,-0.0884532751145759,-119.56019073883043,46.88143541316104,9.476059158737444,-0.2972,-0.8641,0.3978,0.0826
