acc_x,acc_y,acc_z,eul_x,eul_y,eul_z
9.04,1.68,-3.1,-91.66402199436024,43.480576858025245,-56.58852015944324
9.0,1.56,-3.14,-91.7133716571954,43.39423340067783,-56.60153456365382
8.89,1.61,-2.94,-91.61469420099051,43.44356934572808,-56.640582553149535
8.98,1.63,-3.04,-91.5982564564804,43.406566594214624,-56.67963771453915
9.1,1.83,-3.16,-91.48326004604112,43.39423340067783,-56.75776958698043
9.13,1.65,-3.09,-91.4340121148478,43.344905905749854,-56.7968463150502
9.13,1.75,-3.04,-91.36838194343346,43.307915821839245,-56.84895982984303
9.13,1.69,-3.12,-91.33558129123824,43.27093047786308,-56.94018936700064
8.95,1.47,-2.87,-91.27000879817416,43.32024532286975,-56.90108617541996
9.11,1.76,-2.98,-91.13897874666814,43.38190073527359,-56.99233821526014
9.02,1.61,-2.99,-91.07352101138804,43.38190073527359,-57.00537744006553
9.05,1.57,-2.96,-90.97540577406772,43.39423340067783,-57.0836297204198
9.03,1.72,-2.85,-90.926380189859,43.344905905749854,-57.14886216134416
9.19,1.6,-3.01,-90.87737591284896,43.307915821839245,-57.18801133423565
9.06,1.65,-3.0,-90.77943113369116,43.38190073527359,-57.13581405595554
9.12,1.64,-2.84,-90.64896993931684,43.41890031609472,-57.109720271622784
9.03,1.63,-2.86,-90.56750793260044,43.480576858025245,-57.109720271622784
9.03,1.39,-2.98,-90.33972471015196,43.61631189309636,-57.12276675948825
9.25,1.83,-2.99,-90.11239605684216,44.0239043163285,-56.87502139751708
10.09,1.6,-3.87,-90.6163781125308,44.86565121405429,-55.92583364179144
9.88,1.45,-4.09,-92.605449400739,47.30643546064212,-52.79549944688719
9.58,1.35,-5.15,-94.7327966552025,49.75757860526172,-49.58080290531658
8.21,1.39,-4.29,-97.52784465140512,52.578118912593965,-45.47378742330781
8.28,0.83,-5.78,-98.69945281813553,53.525866533741606,-44.07334918943469
8.31,0.88,-6.55,-100.11693910211171,54.58071505177939,-42.45844069063149
7.79,0.59,-6.31,-101.12175699059144,55.31691940731037,-41.24387223496928
7.96,0.52,-7.16,-102.31994097048526,56.18546670575561,-39.81467938235785
7.49,0.19,-7.34,-103.44135652414452,56.94018936700064,-38.3555137295299
6.77,0.29,-6.92,-104.82072855146713,58.19536005826746,-36.03410062770514
6.56,0.35,-7.77,-105.4428449688075,59.06273808576779,-34.675036035061034
6.33,0.08,-7.94,-106.6238479083088,59.80162063871753,-32.8547775548023
6.1,-0.05,-8.41,-107.20119776385688,60.609606145201504,-31.41185033184749
5.62,-0.16,-8.68,-108.32875958573808,61.40760741658022,-29.310216034057568
4.84,-0.22,-8.54,-109.17472377788086,62.03501902225592,-27.537057504249983
4.75,-0.38,-9.05,-110.1896107771162,62.66450299518854,-25.32409900412527
4.31,-0.62,-8.91,-111.1972622086614,63.390349920821656,-22.64135196781312
3.65,-1.11,-9.33,-111.82855209706509,63.7003688213593,-20.890980569305803
3.37,-0.92,-9.42,-112.4031992471798,64.20019215099853,-18.62278024163795
2.5,-1.22,-9.03,-112.87847065921488,64.37613024312793,-16.96415115593626
2.41,-1.32,-9.42,-113.3984635573788,64.5115830018242,-14.800508833176536
1.69,-1.4,-9.1,-113.64933964888505,64.60646007520779,-13.34568808643722
1.23,-1.55,-9.04,-114.00619273526416,64.55223852912117,-11.708702081111404
1.21,-1.71,-9.25,-114.17471692174006,64.52513383249247,-10.68394626499923
0.77,-1.36,-8.96,-114.5341088647508,64.32197736057384,-9.25760576115156
0.35,-2.14,-9.46,-114.87396927454428,64.0109096555285,-8.453062112264227
0.44,-1.74,-9.63,-114.9378688809502,63.95686484639014,-7.338875609975954
0.28,-2.23,-9.43,-115.10854164041076,63.76783312990714,-6.523783187455053
0.08,-2.26,-9.55,-115.1512723286105,63.673390007198286,-5.571344453661866
-0.28,-2.63,-9.42,-115.1726470817956,63.59247721166836,-4.825730880475589
-0.4,-2.27,-9.51,-114.9378688809502,63.74084444335865,-3.77074274897392
-0.46,-2.26,-9.7,-114.72508670230464,63.9028359466197,-2.9911793597011727
-0.57,-2.14,-10.07,-114.4705595501544,64.03793803426306,-1.6845565907051554
-1.21,-2.2,-9.19,-114.4705595501544,63.9028359466197,-0.7104722177704716
-1.18,-1.92,-9.37,-113.94309450479722,64.24077819073915,0.3552344019497601
-1.36,-1.95,-9.69,-113.62840124543835,64.4302992386677,1.0198783397289315
-1.78,-1.89,-9.27,-113.29417835148298,64.53868567478604,2.0054546535892377
-1.48,-1.92,-9.7,-113.06525678920109,64.5657923959142,2.6473004867786654
-1.78,-2.07,-9.58,-112.69214234363412,64.64713688163303,3.4726557451993814
-2.39,-2.41,-8.82,-112.34142441987676,64.59290316854059,4.49314033842009
-2.47,-2.3,-8.59,-111.95133120994127,64.71495187215974,5.215716631990905
-2.38,-1.96,-8.48,-111.52245118481588,64.83708299106056,5.97292446733722
-2.4,-2.12,-8.5,-111.0351722213916,64.8778117314165,6.902585349926143
-2.43,-2.02,-8.41,-110.69183416222988,64.86423446267784,7.614481849246593
-2.64,-1.87,-7.72,-110.5307773959204,64.76922217655454,8.188805090876484
-3.05,-1.99,-7.92,-110.51066825702888,64.59290316854059,8.625427825614647
-3.24,-2.26,-8.56,-110.63139954579825,64.4302992386677,8.740349140335567
-3.41,-2.61,-8.24,-110.79266112612925,64.0920067563967,8.855279263547427
-3.33,-2.78,-8.71,-110.85321906669196,63.92984840946279,8.95872400294449
-3.34,-2.64,-8.96,-110.7321495345978,63.83532215478704,9.269102460835224
-3.41,-2.78,-8.77,-110.67168416900331,63.6194442055739,9.76355056625781
-3.6,-2.88,-8.78,-110.4101987714497,63.44422897307763,10.62640189942489
-3.62,-2.66,-8.95,-110.04955295767436,63.34995089580225,11.4092417341199
-3.86,-2.73,-8.67,-109.92969787688708,62.85241532591269,12.561458728935325
-4.2,-2.44,-8.51,-109.19450172299597,62.5706171740576,14.569430825374988
-4.6,-3.03,-7.97,-107.99668693087187,62.35619623181861,16.674558377811383
-5.02,-2.57,-7.79,-107.31714138517356,62.115262460964935,18.239683153744327
-5.07,-2.39,-7.64,-106.06943042494876,62.19553975386646,20.21551264575777
-5.72,-2.32,-6.84,-105.25385814101205,62.182157850572864,21.672178876755066
-5.68,-2.38,-7.62,-104.12837981117885,62.34280299111539,23.31957649574687
-5.96,-1.85,-6.99,-102.9800928228657,62.6779190768701,24.66681067830264
-6.3,-1.95,-6.61,-101.64633756490149,62.89270673851754,26.57059440264536
-6.45,-2.74,-6.61,-100.58214202852676,63.296099194215,27.761276718209416
-6.49,-0.58,-6.04,-99.22859240723112,64.05145371860036,29.653841828798463
-6.76,-1.85,-6.44,-98.17314373529332,64.57934727558172,30.650725683430657
-6.87,-2.34,-7.16,-96.62787827738678,65.54435879722949,32.28174931703743
-7.44,1.16,-4.82,-95.207589729786,66.45982503485911,34.39903434859307
-7.0,-1.02,-6.37,-93.94058643018808,67.66956803559746,35.4802322080149
-6.96,-1.03,-7.01,-92.73822662555116,69.01303790274106,36.66126379400549
-7.05,1.39,-5.65,-90.534939503876,71.11222790088254,39.19372713365675
-6.9,1.46,-6.8,-89.98269667432403,71.87466002619819,39.71719501771099
-7.19,-0.38,-5.75,-88.87005513080322,73.28211333587478,40.13171155486349
-6.71,1.1,-6.67,-87.46620685664602,74.94780449469394,41.19490148271794
-6.42,3.81,-6.43,-85.46867747110112,77.0271439519232,42.87671358451489
-6.22,3.32,-6.88,-84.83066872325854,77.86435168062559,43.24627621237414
-6.1,2.38,-7.01,-83.67188694987544,78.97353558155666,43.8262109221212
-6.22,3.29,-6.31,-82.27982166286779,80.00185346292129,44.878048779944685
-5.92,3.86,-6.17,-81.43047462829705,80.78195924057705,45.287480525770206
-5.78,3.26,-7.22,-80.67668282320093,81.50608810294752,45.57320299258629
-5.89,4.58,-5.67,-79.37500813467463,82.41683612578922,46.36984205375654
-5.69,4.19,-6.43,-78.4400339000036,83.24196162167489,46.656712208804855
-5.37,4.82,-6.34,-77.51124498215967,83.99528064351469,47.006364186921566
-5.24,5.18,-6.32,-76.44252722312795,84.90830040880186,47.26890777482772
-5.19,4.69,-6.69,-75.86024997866475,85.49988365909948,47.30643546064212
-5.03,5.26,-5.88,-74.73137747245855,86.42403683122414,47.58180340274293
-4.86,5.19,-6.24,-74.06960243697172,87.0703867564452,47.58180340274293
-4.67,5.17,-6.45,-73.29639527690128,87.91108432402599,47.456600104689066
-4.71,5.43,-6.2,-72.69768682108878,88.48552943090411,47.4440830843744
-4.6,5.68,-6.02,-71.81805792972114,89.36861523314379,47.35648075084825
-4.2,5.7,-6.25,-71.26724268861088,90.03131672872559,47.1313522186008
-4.08,5.79,-6.37,-70.52172446832354,90.79574936750706,46.9938686467816
-4.12,5.58,-6.02,-69.98930763271481,91.38478587581724,46.8189931753183
-3.85,6.09,-6.25,-69.33317685680693,92.2907466103262,46.30751972941107
-3.62,5.75,-7.01,-68.66575661319368,93.12086388400516,45.93388911170107
-3.5,6.0,-6.15,-68.02862779063561,93.78955612253353,45.69752343772229
-3.29,6.59,-6.43,-67.60060461724801,94.34438108902891,45.33714998751986
-3.1,6.53,-5.77,-67.03614692743177,95.13963050405614,44.7293144859979
-2.88,6.31,-5.94,-66.44612628524789,96.19801883290825,43.66568603094216
-2.49,6.62,-6.48,-66.36395629393388,96.80032957443228,42.49532318150223
-2.19,6.56,-7.11,-66.11767701122476,97.51046175424892,41.13369909947952
-1.89,5.28,-7.59,-66.0083301332499,98.05073954110937,39.86343282424955
-1.52,7.46,-5.91,-65.62614795647175,98.57639627494255,38.270597450084026
-0.55,6.21,-7.38,-65.88539584221961,98.69945281813553,36.37166381418113
-0.61,7.11,-6.48,-65.63978314161311,98.78744465249004,34.65102767354547
0.11,7.09,-6.83,-65.85808871965587,98.4534931114122,32.902567850463264
0.94,6.86,-7.49,-66.28182481526375,97.66701631024893,30.52004779633356
0.98,7.05,-6.31,-66.37764861539371,96.92121959185582,28.576466242296
1.96,7.51,-6.85,-66.69286830197329,95.92384977618164,26.85325924989716
2.06,7.04,-6.23,-67.61439507717935,93.9237947609836,24.25642512530879
3.22,7.7,-6.5,-68.51318055335086,91.27000879817416,22.82836708787642
4.14,7.72,-6.47,-70.10125098879591,87.49792892560957,20.4017767128752
3.61,7.59,-6.14,-71.38007517925647,84.86171562810705,18.704070115126303
2.81,7.85,-4.1,-73.31067854232553,80.16650253253808,16.767216307875252
5.15,7.63,-6.07,-75.54097917727157,74.12703326079642,14.592535930080526
4.69,7.86,-5.25,-76.99785688069619,70.56383173343356,13.126503557539667
4.41,7.96,-4.22,-78.82513609744035,66.04932726333173,11.535926836248436
4.79,8.17,-4.05,-80.0766693058582,62.90613913443401,10.51132121524803
4.31,8.31,-3.34,-81.55147683065383,59.56382572725951,9.694547078719877
4.57,7.87,-3.92,-82.73709614997145,57.17496080016431,9.004701785923347
4.51,8.4,-3.87,-83.70265109878629,54.82584356552154,8.590953131273462
3.89,8.65,-2.71,-84.38134798435583,53.30779365233324,8.326672787534774
4.49,8.23,-3.75,-85.37510597064201,50.80822871779234,7.832701331508732
3.89,8.73,-2.84,-85.89062667972252,49.54293879660048,7.855673444559318
3.71,8.53,-2.88,-86.77043038357205,47.83239125050408,7.752301412421159
3.86,8.43,-3.2,-87.27605051042755,46.60679955433233,7.6374510050387485
3.87,8.6,-3.05,-87.76790692497644,45.70995860569551,7.557060298129735
3.79,8.74,-2.99,-88.1022563085611,45.43651590599992,7.465189762811247
3.55,8.82,-2.76,-88.16604887802973,45.25023432294885,7.729330710703709
3.31,9.14,-2.35,-88.27776872555569,45.12611671542185,7.890132207309978
3.22,8.33,-2.74,-88.66161388971882,44.81606648541226,7.890132207309978
3.38,9.0,-2.86,-88.59755263252764,44.81606648541226,7.982025743589274
3.21,8.83,-2.49,-88.61356466933819,44.85325420187507,8.165828301178744
2.98,8.85,-2.45,-88.70968280040033,44.81606648541226,8.22327089407658
3.11,8.94,-2.55,-88.74173969605336,44.7912774389752,8.41859128124216
3.15,8.8,-2.82,-88.88610446361312,44.7912774389752,8.453062112264227
3.26,8.89,-2.82,-88.90215600126406,44.940044922743645,8.544988083393589
3.26,8.95,-2.68,-88.90215600126406,44.989651826175965,8.69437956401469
3.1,9.01,-2.75,-88.96638422477437,45.03926762413592,8.947229783297066
3.14,8.69,-2.93,-89.09494687724344,45.03926762413592,9.027691221695424
3.24,8.83,-2.77,-89.09494687724344,45.1509357631892,9.073671186517632
3.04,8.78,-2.72,-89.09494687724344,45.20058056579144,9.165635515674056
3.16,8.96,-2.64,-89.19146210713116,45.188168526204606,9.188627520029687
2.98,8.66,-2.72,-89.28805755492941,45.20058056579144,9.246109154854068
2.99,8.81,-2.74,-89.3524992184972,45.08889233071614,9.269102460835224
3.33,8.63,-3.15,-89.40085398971644,45.06407886296696,9.22311622194562
2.97,8.77,-2.58,-89.40085398971644,45.08889233071614,9.269102460835224
3.06,8.87,-2.66,-89.32027391021383,45.08889233071614,9.349581983346614
3.04,8.91,-2.82,-89.30416461407226,45.12611671542185,9.464560757916416
3.22,8.89,-2.89,-89.32027391021383,45.12611671542185,9.430066128049686
3.29,9.14,-2.87,-89.27195273153545,45.11370802914807,9.476059158737444
2.87,8.71,-2.55,-89.4331017243669,45.01445861245965,9.464560757916416
3.2,8.87,-3.03,-89.54603964341463,44.77888374446125,9.269102460835224
3.06,8.77,-2.85,-89.64293153668577,44.69214333160206,9.23461264182475
3.16,8.66,-2.88,-89.7237370153758,44.65497713304196,9.280599254023052
3.11,9.07,-2.99,-89.65908810035471,44.71692355018706,9.418568108565768
3.17,8.7,-2.92,-89.67524692878357,44.82846183777319,9.694547078719877
2.96,8.71,-2.83,-89.70757138501837,44.89044689976561,9.936074868420336
2.84,8.91,-2.7,-89.75607508695732,44.84085774318776,10.177646918437086
