TIME,ELAPSED_SECONDS,PSTATE,acc_x,acc_y,acc_z,mag_x,mag_y,mag_z,gyr_x,gyr_y,gyr_z,lin_x,lin_y,lin_z,eul_x,eul_y,eul_z,qua_w,qua_x,qua_y,qua_z
1786572.0,228.990251,1.0,-1.51,0.48,-9.84,18.75,-18.0,38.5,-2.56,2.56,2.56,0.0675466174885746,-0.001304175529358076,-0.1598707446526717,-141.33038910827102,-37.43472359227642,7.729330710703709,-0.0463,-0.9436,-0.3209,0.0674
1786607.0,229.029144,1.0,-1.7,0.43,-9.66,18.75,-18.0,38.5,0.19,-2.44,-0.5,-0.13172938630326037,0.09088491219149517,-0.009911888029851212,-141.33038910827102,-37.42262477199783,7.729330710703709,-0.0466,-0.9436,-0.3208,0.0674
1786642.0,229.048029,1.0,-1.59,0.5,-9.84,19.19,-18.0,38.38,-0.25,0.81,1.19,0.019868415661807637,0.05272033142851118,-0.17335630324015128,-141.33038910827102,-37.41052638436744,7.763786880218298,-0.0467,-0.9436,-0.3207,0.0677
1786677.0,229.094127,1.0,-1.32,0.56,-10.22,18.75,-18.37,38.38,-0.12,1.37,-1.5,0.3008197760022775,-0.10760262621826963,-0.5085004660473498,-141.29579335128196,-37.43472359227642,7.729330710703709,-0.0466,-0.9435,-0.3209,0.0674
1786714.0,229.129433,1.0,-1.7,0.21,-9.67,18.75,-18.37,39.19,2.0,-4.31,-1.88,-0.24234209825517383,-0.08466596301672358,-0.01053401488531236,-141.26122730722247,-37.49522418973963,7.8556734445593195,-0.0463,-0.9434,-0.3214,0.0685
1786748.0,229.158108,1.0,-1.84,0.16,-9.48,18.75,-18.37,39.19,1.0,-3.94,-1.5,-0.37723473932593654,-0.022644382511198297,0.1558064522376359,-141.1577066587393,-37.54363247388456,8.004999928704901,-0.0463,-0.9431,-0.3218,0.0698
1786785.0,229.198568,1.0,-1.69,0.31,-9.64,19.19,-18.37,39.69,0.12,-4.19,0.94,-0.1330685652936059,-0.022068672014553148,0.015653843803928424,-141.1577066587393,-37.53152975160733,8.119875707408232,-0.0463,-0.9431,-0.3217,0.0708
1786820.0,229.221681,1.0,-1.4,0.35,-9.71,18.5,-18.0,39.19,0.44,-1.44,-0.69,0.13611752307035452,-0.18592406546191212,-0.007294378372813881,-141.1577066587393,-37.50732560971656,8.200293609338797,-0.0467,-0.9431,-0.3215,0.0715
1786855.0,229.317297,1.0,-1.76,0.19,-9.08,18.5,-18.0,39.19,-3.44,-3.31,1.0,-0.29676329864705797,-0.025647195973604292,0.5604954606298698,-141.08884000838947,-37.53152975160733,8.303694005010767,-0.0472,-0.9429,-0.3217,0.0724
1786888.0,229.324277,1.0,-1.78,0.45,-8.83,19.56,-18.75,39.19,-1.12,-2.0,1.37,-0.17946856156563618,0.20513620990277712,0.7919115029166672,-141.1577066587393,-37.45892253150342,8.349651905481078,-0.0482,-0.9431,-0.3211,0.0728
1786925.0,229.33126,1.0,-1.74,-0.12,-7.48,19.56,-18.0,38.88,0.5,2.75,1.56,-0.6457214323686933,-0.07819139887560941,2.1535898318762934,-141.1577066587393,-37.446822845384496,8.303694005010767,-0.048,-0.9431,-0.321,0.0724
1786961.0,229.383306,1.0,-1.14,-1.36,-5.5,19.56,-18.0,38.88,2.88,9.56,2.38,-1.1634269615758557,-1.120256428894821,4.257716477367186,-141.33038910827102,-37.362137156703376,8.016487142063687,-0.0463,-0.9436,-0.3203,0.0699
1786994.0,229.433173,1.0,-1.9,-1.25,-0.69,20.0,-18.75,39.19,-8.0,23.69,18.69,-2.1936407300668592,0.048239749408719335,8.893297234652064,-141.78287468010964,-37.035689974508436,7.453706284964303,-0.0458,-0.9449,-0.3176,0.065
1787031.0,229.439156,1.0,-2.8,-0.42,2.05,19.56,-18.75,39.56,-12.63,64.69,26.37,-2.6191152330681726,1.5302998070929135,11.543692859667441,-143.06373822672285,-36.16667598822457,5.238658808769412,-0.0443,-0.9485,-0.3104,0.0457
1787066.0,229.476093,1.0,-0.4,-2.13,-0.19,17.0,-19.5,40.38,-24.06,145.88,18.44,-1.5651637204079445,-1.5089736602433257,9.727523386205249,-144.05324557319378,-35.612600576556765,1.9137679978932431,-0.038,-0.9512,-0.3058,0.0167
1787101.0,229.517875,1.0,2.38,-1.65,-3.96,17.0,-19.5,40.38,-43.19,167.44,26.56,0.6285039454426321,-2.8781477424908846,5.883673022887125,-144.690009668053,-34.747070547478,-4.607822312445006,-0.0345,-0.9529,-0.2986,-0.0402
1787138.0,229.550074,1.0,6.04,2.9,-8.73,12.5,-20.56,41.25,-80.06,197.19,62.44,4.801721659340991,-1.067529793223801,-0.03755384016885266,-144.841458151918,-33.15356371555689,-10.522828803347641,-0.0371,-0.9533,-0.2853,-0.0917
1787174.0,229.593477,1.0,10.7,6.91,-22.46,5.75,-23.56,41.19,-97.37,227.63,24.25,3.7935419550041716,0.3774925600674892,-15.73069987822184,-141.95828650840244,-31.304732073341743,-20.39013361769746,-0.0472,-0.9454,-0.2698,-0.177
1787209.0,229.611548,1.0,10.79,8.16,-25.71,5.75,-23.56,41.19,-64.12,95.87,34.44,0.9737966451780862,1.8035859359599757,-19.17287031807026,-139.80191665328087,-30.318170931025325,-24.97187636961762,-0.0529,-0.9391,-0.2615,-0.2162
1787244.0,229.653962,1.0,9.41,12.07,-26.02,-2.88,-26.19,38.75,-25.0,-34.06,-1.5,0.9427798307290747,5.310885242266021,-19.894849358353135,-140.61001416599208,-28.48187662578674,-25.39457261600438,-0.0685,-0.9415,-0.246,-0.2198
1787279.0,229.684064,1.0,7.94,8.43,-23.17,-7.69,-28.75,38.06,49.69,-96.44,-42.69,1.12061214536923,2.5207974177561487,-15.948877732863194,-142.02866969644373,-29.66569584162053,-21.800531789289547,-0.0668,-0.9456,-0.256,-0.1891
1787316.0,229.724047,1.0,5.58,3.43,-16.55,-5.88,-28.75,38.5,87.56,-156.81,-50.88,1.060147836574929,-0.5564017092326417,-7.952018410175592,-143.53692935464713,-31.26903222594612,-16.987323268750952,-0.0582,-0.9498,-0.2695,-0.1477
1787351.0,229.755427,1.0,3.34,2.47,-11.9,-5.88,-28.75,38.5,76.25,-171.0,-44.88,1.7997461563756887,-0.35088785708597114,-2.663485984998747,-144.9554604078314,-33.045974096012706,-9.752049739225924,-0.0504,-0.9536,-0.2844,-0.085
1787387.0,229.794144,1.0,1.2,1.85,-7.78,1.69,-25.37,41.0,77.69,-167.44,-49.69,1.2688299832090313,0.34223872801168764,1.8276874655122803,-144.99354106549774,-34.339061261923746,-4.2293886949276756,-0.045,-0.9537,-0.2952,-0.0369
1787424.0,229.840028,1.0,0.23,2.45,-5.59,8.06,-22.5,40.25,89.12,-124.75,-51.81,1.6873452449684847,1.4079011818969671,4.108037863146379,-143.683724321721,-36.02205079852741,1.94815034703792,-0.0352,-0.9502,-0.3092,0.017
1787459.0,229.866534,1.0,-0.53,-1.39,-3.47,8.06,-22.5,40.25,94.37,-88.12,-46.88,-0.9797079975779219,-1.014349945754443,6.304484037766083,-142.16981440543415,-37.31375483691922,5.651654820273722,-0.0183,-0.946,-0.3199,0.0493
1787492.0,229.903435,1.0,-0.49,-3.03,-4.06,13.25,-19.5,40.56,95.56,-43.81,-41.25,-1.6559496711352364,-2.227750920631552,5.540556175165346,-140.17034192327273,-38.74398218156732,8.92424161449454,0.0051,-0.9402,-0.3317,0.0778
1787529.0,229.930747,1.0,0.52,-7.37,-5.39,16.69,-15.75,40.56,80.31,-34.13,-16.31,-3.1065414713665085,-6.105261165996365,3.7473937600265916,-138.91102916961097,-39.23022039326242,11.30560069930953,0.0276,-0.9364,-0.3357,0.0985
1787566.0,229.974168,1.0,2.45,-9.25,-8.02,19.69,-12.0,41.75,40.5,-53.38,39.31,-1.8900434996767561,-8.817403837946065,1.171458911905674,-139.04184146178912,-38.44045190034536,12.976563032466053,0.0354,-0.9368,-0.3292,0.113
1787598.0,230.023917,1.0,0.89,-6.25,-6.18,19.69,-12.0,41.75,-6.69,-57.69,76.37,-1.2394063356272846,-5.774542096940453,3.236601635956589,-140.74624891732873,-35.80522414858304,15.239724647140953,0.0267,-0.9419,-0.3074,0.1326
1787635.0,230.05608,1.0,0.05,-6.11,-3.75,21.19,-9.75,41.75,-18.75,-40.38,101.37,-2.1819785977365775,-5.322937275473112,5.528518613471718,-142.63208125401738,-33.20139097173225,16.50085429879803,0.017,-0.9473,-0.2857,0.1435
1787672.0,230.090441,1.0,-0.54,-3.85,-2.66,21.87,-12.0,39.75,-50.69,-25.69,129.63,-1.537279594324696,-3.348310365093913,6.871468719758935,-146.39227073603635,-28.70655945606141,17.05684380992257,-0.0062,-0.9573,-0.2479,0.1483
1787707.0,230.128527,1.0,-1.4,0.86,-1.61,21.87,-12.0,39.75,-62.88,9.69,142.31,-0.4185930488151889,1.1659479786919458,7.868340125272078,-149.81204156148604,-24.889725700371912,16.55875139620892,-0.0272,-0.9655,-0.2155,0.144
1787742.0,230.155165,1.0,-1.33,1.98,-1.18,21.19,-15.38,39.38,-49.25,48.44,131.19,-0.24255684915236164,2.12448731905551,8.222535166377886,-154.5820007553698,-20.040939097265657,14.407711711634986,-0.048,-0.9755,-0.174,0.1254
1787779.0,230.203366,1.0,-0.28,6.22,-2.88,18.56,-19.5,39.0,-75.12,91.69,131.19,2.0906569766572636,5.531478224754996,6.329136225043007,-158.40779810685115,-16.5471716366683,11.512892133606984,-0.0654,-0.9823,-0.1439,0.1003
1787815.0,230.227312,1.0,-0.75,11.39,-4.76,14.06,-23.25,38.25,-84.37,120.19,93.87,2.3142116930234975,10.124161692816495,3.091147467979006,-162.08197802585826,-12.688278342697656,6.48935022815341,-0.0939,-0.9878,-0.1105,0.0566
1787850.0,230.255271,1.0,-0.74,11.7,-5.98,14.06,-23.25,38.25,-52.31,129.38,55.06,1.4925138355579688,10.036627386834898,1.425927289606598,-163.22171672296716,-10.92566228171013,1.1115555540621913,-0.1096,-0.9893,-0.0952,0.0097
1787887.0,230.305399,1.0,1.34,13.24,-10.69,6.88,-28.37,38.56,-25.12,120.75,-2.19,2.9097905316987625,10.012637574886007,-3.7081384872689416,-162.8334582675195,-10.419264327291232,-2.647300486778665,-0.1159,-0.9888,-0.0908,-0.0231
1787924.0,230.360084,1.0,1.45,9.89,-10.74,2.88,-29.69,36.56,7.5,119.06,-63.0,1.8799719019826,6.81933745506791,-3.047319905117403,-160.66576217664587,-12.526874248925028,-6.799268354310191,-0.1129,-0.9858,-0.1091,-0.0593
1787959.0,230.366081,1.0,2.09,8.54,-11.86,2.88,-29.69,36.56,14.25,122.44,-83.12,1.650535561874801,5.2032801484480915,-3.910525658850208,-157.92374967519896,-15.043205913037665,-10.005090889774307,-0.1089,-0.9815,-0.1309,-0.0872
1787992.0,230.403014,1.0,4.4,3.19,-14.44,0.56,-29.25,38.19,43.0,108.56,-105.87,1.2096109396351378,-0.6872866952988728,-5.55935723588207,-153.71118144535646,-19.564009796752835,-13.611082444309167,-0.0947,-0.9738,-0.1699,-0.1185
1788028.0,230.447614,1.0,4.02,1.36,-14.49,-1.25,-30.25,38.06,20.0,61.69,-99.81,-0.1846330127487379,-2.162925570009696,-5.135162595170691,-150.56941987552764,-22.723163534007305,-15.262847451308845,-0.0901,-0.9672,-0.197,-0.1328
1788065.0,230.480493,1.0,5.32,-3.12,-14.97,-1.19,-28.75,37.69,32.75,42.06,-77.94,-1.43664097543191,-6.473478002218369,-4.963855924392197,-147.23493252348757,-26.54704645350268,-16.5471716366683,-0.0782,-0.9594,-0.2296,-0.1439
1788100.0,230.558285,1.0,4.85,-1.21,-13.31,-1.19,-28.75,37.69,-6.13,12.0,-47.13,-0.7800302690174341,-4.4738829948384655,-3.6662347589486846,-145.22287322309495,-28.647421502753197,-17.03366959473287,-0.0787,-0.9543,-0.2474,-0.1481
1788137.0,230.563271,1.0,3.9,-0.36,-10.87,-0.06,-28.06,38.5,12.75,-2.44,-35.44,-0.43605845714801905,-3.1117817901442395,-1.3119455548565746,-144.35152835071236,-29.748683032968085,-16.929394296591497,-0.0787,-0.952,-0.2567,-0.1472
1788174.0,230.58181,1.0,3.8,-1.22,-10.15,-0.06,-28.37,37.25,4.0,0.31,-22.81,-0.6975430088294607,-3.752675610446619,-0.41008918202829925,-143.683724321721,-30.650725683430657,-16.709303811577854,-0.0779,-0.9502,-0.2643,-0.1453
1788207.0,230.636332,1.0,3.42,1.03,-9.8,-0.06,-28.37,37.25,-5.63,-4.13,-5.94,0.16639256534739344,-1.6855837731433378,-0.485503363505277,-143.46374555627924,-30.828988678187994,-16.686140017359815,-0.0809,-0.9496,-0.2658,-0.1451
1788241.0,230.689187,1.0,3.09,1.47,-9.41,0.56,-28.06,38.88,-3.69,-5.13,1.19,0.25503033897327376,-1.1437542204353914,-0.13738770152946422,-143.53692935464713,-30.78144442214906,-16.51243337847321,-0.0824,-0.9498,-0.2654,-0.1436
1788276.0,230.692179,1.0,2.8,1.46,-9.12,1.0,-27.69,38.5,-3.19,1.56,1.0,0.0991469985984208,-0.996811776410142,0.20755961835033965,-143.53692935464713,-30.745789793742468,-16.51243337847321,-0.0836,-0.9498,-0.2651,-0.1436
1788313.0,230.728021,1.0,2.73,3.12,-9.37,1.37,-28.37,38.88,-6.88,-3.5,5.88,0.7448389565896554,0.39796803324411645,-0.4046690319988677,-143.683724321721,-30.50817000692102,-16.51243337847321,-0.0854,-0.9502,-0.2631,-0.1436
1788348.0,230.769481,1.0,2.64,2.33,-9.34,1.37,-28.37,38.88,-1.37,-0.94,-3.13,0.32508198552995116,-0.2263721853882767,-0.1671746092643147,-143.683724321721,-30.567562314513644,-16.396650200988272,-0.0853,-0.9502,-0.2636,-0.1426
1788385.0,230.795158,1.0,2.5,2.29,-9.21,1.37,-28.37,38.06,-2.38,-8.75,-3.44,0.2542497510539734,-0.22339269209970458,-0.0016960771531451257,-143.64697188895283,-30.63884419055943,-16.19985740781584,-0.0873,-0.9501,-0.2642,-0.1409
1788420.0,230.84397,1.0,2.08,1.99,-8.77,1.37,-28.06,38.88,-12.06,-4.44,1.56,-0.09223140816546782,-0.26284437579130016,0.5805020388266762,-143.64697188895283,-30.591321592108415,-16.095692494623034,-0.0898,-0.9501,-0.2638,-0.14
