TIME,ELAPSED_SECONDS,PSTATE,acc_x,acc_y,acc_z,mag_x,mag_y,mag_z,gyr_x,gyr_y,gyr_z,lin_x,lin_y,lin_z,eul_x,eul_y,eul_z,qua_w,qua_x,qua_y,qua_z
1822504.0,264.977115,1.0,-2.43,1.21,-9.15,23.06,-22.5,35.5,0.37,6.69,-0.81,-0.08388403769940367,-0.040303793252739195,0.2629170263429561,-139.86866179765227,-36.28724251436374,11.294085603048902,-0.1047,-0.9393,-0.3114,0.0984
1822539.0,265.026086,1.0,-2.01,1.1,-10.28,22.25,-22.5,34.19,-1.75,8.44,-0.25,0.27676907015866137,-0.6305670728642717,-0.7030733097937922,-139.93551354464947,-36.33548075823788,11.052294827398207,-0.1042,-0.9395,-0.3118,0.0963
1822576.0,265.044114,1.0,-2.55,1.34,-9.31,22.69,-22.5,35.38,-1.12,-4.0,1.75,-0.11656801011196216,0.09821010813506964,0.06237133641085535,-139.96897956123578,-36.27518399341681,11.075320376717382,-0.1048,-0.9396,-0.3113,0.0965
1822611.0,265.094192,1.0,-2.6,1.56,-9.05,23.37,-22.87,34.56,-1.5,-1.06,2.13,-0.051396342229005576,0.36044571449201124,0.2691693419378396,-139.96897956123578,-36.23901092380315,11.09834637461124,-0.105,-0.9396,-0.311,0.0967
1822644.0,265.116628,1.0,-2.49,1.84,-9.36,23.37,-22.87,34.56,-1.69,4.19,-0.06,0.21840871759877434,0.439570170554837,-0.039891306328597054,-140.00247242955643,-36.23901092380315,10.971708923508501,-0.1053,-0.9397,-0.311,0.0956
1822681.0,265.161211,1.0,-2.1,1.24,-9.93,22.69,-22.87,35.0,2.81,5.38,-5.06,0.21605726967452843,-0.3683703653077278,-0.4095196604052056,-139.93551354464947,-36.38372566673131,10.8450849117299,-0.1042,-0.9395,-0.3122,0.0945
1822717.0,265.193608,1.0,-2.81,1.07,-8.88,23.75,-22.5,35.5,2.38,-0.75,-3.0,-0.5461780440840571,0.1859687598925845,0.4491660879377104,-139.83527593342117,-36.52850049317351,10.902639624835572,-0.1032,-0.9392,-0.3134,0.095
1822752.0,265.233013,1.0,-2.25,0.82,-9.53,23.75,-22.5,35.5,-2.06,8.81,-0.88,-0.2082929160594329,-0.46680895027931846,-0.006326279654333078,-139.83527593342117,-36.612980343917975,10.718474180434587,-0.1024,-0.9392,-0.3141,0.0934
1822785.0,265.274963,1.0,-2.16,1.11,-9.81,23.37,-22.5,35.5,-1.31,5.38,-0.37,0.02024105026555434,-0.34645887156727984,-0.29351616448444595,-139.86866179765227,-36.64919229993541,10.419264327291232,-0.1025,-0.9393,-0.3144,0.0908
1822822.0,265.299694,1.0,-2.08,0.87,-9.93,22.69,-22.19,36.25,-3.0,-4.38,2.0,-0.058234734742068195,-0.6200574456453168,-0.3570273600783551,-139.86866179765227,-36.637121227016124,10.396251161173769,-0.1031,-0.9393,-0.3143,0.0906
1822859.0,265.340715,1.0,-2.71,1.27,-9.08,22.25,-22.5,36.25,-3.19,0.63,3.56,-0.40261716846548734,0.22725811029455195,0.2573226327472611,-139.93551354464947,-36.49230113700159,10.465291924669184,-0.1049,-0.9395,-0.3131,0.0912
1822892.0,265.359836,1.0,-2.36,1.56,-9.79,22.25,-22.5,36.25,-3.19,1.88,3.63,0.09769564369713013,0.06626874477738359,-0.3832157505714111,-140.0359922172176,-36.37166381418113,10.350226089325556,-0.1056,-0.9398,-0.3121,0.0902
1822928.0,265.407867,1.0,-2.16,1.95,-9.5,23.06,-22.87,36.56,1.75,1.81,0.94,0.45473391618272796,0.33590896245309076,-0.11295091104560484,-140.1367137765361,-36.31136080393029,10.315708384533187,-0.1055,-0.9401,-0.3116,0.0899
1822965.0,265.452744,1.0,-2.39,1.29,-8.21,23.06,-22.5,35.5,4.69,2.69,-2.31,-0.25162654832189735,0.29892012151047365,1.1679214569135912,-140.1367137765361,-36.34754136011127,10.315708384533187,-0.1042,-0.9401,-0.3119,0.0899
1822998.0,265.495607,1.0,-2.42,-0.04,-6.32,23.06,-22.5,35.5,7.88,11.81,0.5,-1.289560503602027,-0.2037913385525179,3.166175408686466,-140.23768007093892,-36.40785062374676,10.085614182042528,-0.1013,-0.9404,-0.3124,0.0879
1823033.0,265.506578,1.0,-2.5,-0.61,-3.78,21.19,-22.87,35.75,2.06,19.31,11.5,-1.9966769316903128,0.04656022375774105,5.693061131868015,-140.78037862226373,-36.1305141127441,9.430066128049688,-0.0983,-0.942,-0.3101,0.0822
1823070.0,265.567748,1.0,-2.47,-1.77,0.61,21.56,-23.25,37.06,13.56,49.88,21.87,-3.077551437495516,0.12147062742873405,10.152803197647163,-141.67799864882883,-35.624636497255686,8.349651905481078,-0.0938,-0.9446,-0.3059,0.0728
1823105.0,265.592169,1.0,-1.14,-2.0,1.26,21.56,-23.25,37.06,-8.81,109.12,39.56,-2.110499064306741,-0.7468723755397959,11.176020422572325,-143.64697188895283,-34.579011997804514,4.607822312445006,-0.0854,-0.9501,-0.2972,0.0402
1823139.0,265.616859,1.0,1.22,-1.86,-1.72,20.37,-22.5,37.06,-42.63,158.31,43.13,-0.097342463046721,-2.4695477888335358,8.465658514734194,-144.841458151918,-33.73986021591224,0.022918311958021676,-0.0834,-0.9533,-0.2902,0.0002
1823176.0,265.651765,1.0,2.5,-2.29,-3.45,16.25,-24.0,38.25,-52.0,198.75,69.56,0.3345318824671184,-3.6714518703803436,6.675335646075487,-145.7248595525418,-32.01938920775377,-7.407773121999346,-0.0818,-0.9556,-0.2758,-0.0646
1823211.0,265.697275,1.0,6.45,2.76,-8.61,10.69,-25.75,38.25,-101.44,237.75,97.31,4.23307113904199,-1.7761227901217866,-0.3066430624114602,-145.26123786330908,-29.76053964808933,-14.534774284595127,-0.0847,-0.9544,-0.2568,-0.1265
1823246.0,265.730701,1.0,11.89,8.7,-19.78,10.69,-25.75,38.25,-67.37,199.94,64.31,4.265923244510493,0.42224273493360687,-14.481909239789035,-141.64310130769366,-27.04179488483361,-24.45571546342066,-0.0917,-0.9445,-0.2338,-0.2118
1823283.0,265.771913,1.0,13.17,13.8,-24.32,0.06,-28.06,36.69,-73.12,94.44,70.69,2.9317169006242443,4.598136451386859,-20.61724648268318,-139.93551354464947,-24.983613243143306,-28.76570522000204,-0.0943,-0.9395,-0.2163,-0.2484
1823320.0,265.798002,1.0,9.14,19.99,-21.57,-8.56,-31.75,35.88,-24.44,-17.69,-6.25,2.1620810981881853,11.652086851886743,-18.617967452499613,-140.1367137765361,-22.594607753630356,-29.57087281914313,-0.1125,-0.9401,-0.1959,-0.2552
1823356.0,265.836832,1.0,7.1,13.06,-18.46,-8.56,-31.75,35.88,65.0,-60.81,-83.25,1.469191029357035,6.44425870299785,-12.954242062660759,-140.44035437538835,-25.582550078753677,-26.982869511205863,-0.105,-0.941,-0.2214,-0.2333
1823389.0,265.873674,1.0,4.53,2.12,-11.12,-9.56,-34.06,35.06,142.44,-83.06,-123.5,-0.2437589246512366,-1.1949953236862516,-2.325219920297565,-140.57602612666605,-29.487919662093987,-23.471705166170008,-0.0873,-0.9414,-0.2545,-0.2034
1823426.0,265.9016,1.0,4.46,-3.98,-9.21,-4.56,-32.19,36.69,112.56,-87.87,-95.0,-1.798831728145378,-6.026432268092645,0.8065156381190999,-140.1367137765361,-34.09926566702287,-18.64600495316554,-0.0628,-0.9401,-0.2932,-0.162
1823463.0,265.941842,1.0,3.15,-15.66,-4.73,0.19,-27.19,40.38,127.75,-42.94,-66.62,-8.112238957489813,-14.289798501107716,7.063615568148236,-139.2059212883253,-37.156559865314904,-15.598198868035936,-0.0397,-0.9373,-0.3186,-0.1357
1823496.0,265.976473,1.0,3.85,-16.88,-5.9,0.19,-27.19,40.38,-19.44,8.25,32.88,-8.48337209944351,-15.708055876505032,5.82465572539597,-139.7685838910077,-36.661263794005485,-15.494110041456644,-0.0361,-0.939,-0.3145,-0.1348
1823533.0,266.028951,1.0,3.93,-11.24,-6.3,4.06,-23.69,42.0,-73.44,30.44,132.56,-4.760139181255798,-11.547333498140116,4.759604918191774,-141.92314189948746,-33.356870714029654,-16.97573712493423,-0.0466,-0.9453,-0.287,-0.1476
1823569.0,266.045203,1.0,6.16,2.68,-6.6,2.19,-25.06,40.75,-134.06,-40.69,246.5,4.177025615851808,-0.7322144934650575,1.398063974985,-148.22455825803132,-24.76065802803315,-17.821993257993135,-0.071,-0.9618,-0.2144,-0.1549
1823604.0,266.092103,1.0,9.08,19.69,-12.41,2.19,-25.06,40.75,-132.06,-39.0,215.56,9.205013177551038,13.659943378725224,-8.976967311133988,-152.52794284369597,-17.126370676427076,-17.868391355752117,-0.1005,-0.9714,-0.1489,-0.1553
1823639.0,266.115332,1.0,5.22,29.35,-10.57,-2.38,-28.0,38.69,-78.94,-67.75,62.81,6.346701570871195,24.380917167176293,-9.31626968444123,-155.0021140741398,-11.605033754368794,-16.778799324271784,-0.124,-0.9763,-0.1011,-0.1459
1823676.0,266.15829,1.0,0.84,24.33,-6.2,-6.06,-31.06,35.56,39.63,-67.06,-87.62,4.055957490740322,21.358509925916575,-2.781350737918258,-155.75453926974473,-13.634163660769715,-13.93427040697098,-0.1237,-0.9777,-0.1187,-0.1213
1823713.0,266.209015,1.0,1.37,10.6,-3.48,-4.56,-32.19,35.5,167.56,-38.69,-191.75,3.6993834959890775,8.8744225149398,3.983722319190875,-155.42929332621986,-18.936379383880695,-11.443790822449783,-0.0916,-0.9771,-0.1645,-0.0997
1823746.0,266.219019,1.0,3.31,1.84,-6.25,-4.56,-32.19,35.5,160.38,-24.19,-223.06,2.6895502556721054,-0.2813614270710479,3.017588564899368,-150.34469905459454,-27.784885032921764,-8.567970434690707,-0.0468,-0.9667,-0.2401,-0.0747
1823782.0,266.253507,1.0,2.49,-4.83,-4.9,1.69,-28.06,39.5,119.81,-49.0,-183.31,-1.1572965812914082,-5.427159019451915,5.037414254043112,-145.60838601203167,-33.73986021591224,-6.01882390838285,-0.019,-0.9553,-0.2902,-0.0525
1823819.0,266.296661,1.0,3.39,-11.33,-7.12,7.25,-21.37,41.5,97.12,-14.38,-133.31,-5.096171145911344,-10.578694261945142,2.548849550561509,-139.80191665328087,-39.98534936807033,-3.8166045030746174,0.0085,-0.9391,-0.3419,-0.0333
1823854.0,266.341102,1.0,1.88,-10.68,-6.18,7.25,-21.37,41.5,44.0,-23.75,-62.19,-6.0139845837393855,-8.807190696494768,3.321699617605306,-137.37123052660468,-42.48302850521899,-2.658762714530565,0.0195,-0.9316,-0.3623,-0.0232
1823889.0,266.366702,1.0,3.1,-18.27,-7.45,11.75,-16.5,43.69,79.19,44.19,-11.44,-10.545247440485081,-14.467815886736055,0.9530936588198813,-135.4574981156968,-44.147532698220665,-2.280522559802512,0.0442,-0.9254,-0.3758,-0.0199
1823926.0,266.406169,1.0,3.31,-16.75,-8.99,12.19,-13.19,43.25,-24.12,37.06,81.56,-8.894253367448542,-13.598169831035648,-0.6010747408808008,-137.81479293008655,-41.586888761097505,-3.6216961826700946,0.0494,-0.933,-0.355,-0.0316
1823961.0,266.455867,1.0,3.62,-7.2,-8.25,10.38,-12.75,45.69,-75.12,6.44,199.69,-1.7928027848924235,-7.118830983250189,0.9119884771314037,-142.91931394004666,-36.54056778374004,-4.298191253728037,0.0379,-0.9481,-0.3135,-0.0375
1823995.0,266.478896,1.0,3.97,0.65,-8.5,10.38,-12.75,45.69,-112.81,5.63,241.13,3.041382977114756,-0.9410988143222213,0.9580499633728543,-152.1444912618588,-27.253986698732735,-5.502509177758649,0.0062,-0.9706,-0.2356,-0.048
1824032.0,266.529726,1.0,8.25,16.1,-11.03,7.69,-16.19,43.69,-221.19,38.88,219.75,11.5800731382863,11.765579314609377,-3.4751589695483887,-158.1040290229696,-20.157316215575328,-7.580028689727107,-0.0323,-0.9818,-0.175,-0.0661
1824069.0,266.551668,1.0,5.48,28.91,-13.99,3.19,-22.19,41.56,-171.13,-52.31,35.75,9.706641065686217,22.99754366627069,-11.132134695867771,-158.53049466710758,-14.962299399917931,-8.556479215940191,-0.1097,-0.9825,-0.1302,-0.0746
1824106.0,266.630457,1.0,-0.66,20.45,-5.13,3.19,-22.19,41.56,73.56,-74.25,-106.94,4.188586287436341,18.206146558058176,0.01139745505728662,-157.98368078519854,-16.524012627926176,-6.11062569758793,-0.1136,-0.9816,-0.1437,-0.0533
1824141.0,266.632451,1.0,0.44,4.98,-5.96,0.25,-30.25,37.06,161.88,11.19,-202.19,1.8080517290366007,3.621470473212826,3.1634955868634664,-154.89643727544527,-23.495113294365407,-3.782208130568333,-0.0689,-0.9761,-0.2036,-0.033
1824176.0,266.651602,1.0,2.72,-1.32,-11.24,5.56,-28.06,39.56,123.25,-7.25,-183.69,1.0738457398420265,-3.0016773479231595,-1.387776668033883,-148.8159549371668,-30.935983157745675,-2.2117544130994498,-0.0271,-0.9632,-0.2667,-0.0193
1824212.0,266.677421,1.0,1.25,-3.56,-9.2,9.56,-21.0,42.06,112.06,-53.06,-156.56,-1.0562868057736696,-3.7204126492437433,0.645924706482262,-144.46400874868328,-35.540393572715686,0.16042823504321638,-0.0051,-0.9523,-0.3052,0.0014
1824247.0,266.725119,1.0,1.2,-11.06,-8.82,9.56,-21.0,42.06,140.25,-41.44,-129.81,-5.589897685423054,-8.773559539601354,0.1457133543340028,-138.94369485234358,-40.73006975326216,3.369477361207863,0.0332,-0.9365,-0.348,0.0294
1824282.0,266.77906,1.0,-0.49,-9.06,-7.65,14.06,-15.38,42.88,19.69,-57.0,-58.25,-5.633262722009164,-6.016389418305801,1.267586264898835,-136.62090215577362,-42.82747400563138,5.135420654691241,0.0366,-0.9292,-0.3651,0.0448
1824321.0,266.793867,1.0,-0.07,-9.75,-6.62,16.69,-11.69,44.06,33.13,-21.5,-10.69,-5.8231576308198125,-6.720521633542342,2.0724904348168307,-135.12607315636853,-44.023904316328505,6.833706733841952,0.0412,-0.9243,-0.3748,0.0596
1824356.0,266.843089,1.0,1.44,-8.97,-7.6,16.69,-11.69,44.06,24.56,-13.19,46.38,-3.837091507879304,-7.193652961423429,1.2146429102238034,-135.70001200168377,-43.209298755684706,7.534092210574165,0.0471,-0.9262,-0.3682,0.0657
1824389.0,266.866806,1.0,0.72,-7.09,-6.26,17.37,-10.19,42.88,3.13,-13.06,79.19,-2.9381664094392552,-5.634732766565952,2.7645576404927157,-138.3272359651665,-40.375800512585805,8.384121213370948,0.0447,-0.9346,-0.3451,0.0731
1824425.0,266.907659,1.0,1.29,-7.61,-6.73,18.56,-10.5,42.88,-12.81,6.5,95.06,-2.4009874517150203,-6.6502838614640405,2.3986756602322155,-141.85294621850556,-36.87862290728264,8.29220473923879,0.0393,-0.9451,-0.3163,0.0723
1824462.0,266.94199,1.0,2.44,-6.82,-8.68,17.75,-11.56,42.88,-29.19,21.0,131.5,-0.42394498835710004,-6.8226147245588535,0.8021733929406203,-145.49229376528544,-33.38079627736779,7.671905315233598,0.0326,-0.955,-0.2872,0.0669
1824495.0,266.976926,1.0,2.67,-1.51,-9.05,17.75,-11.56,42.88,-72.69,7.56,173.31,2.744358173574362,-2.654408350018302,1.046848944811087,-151.9546930927713,-27.183245547895737,6.764830589593756,0.0091,-0.9702,-0.235,0.059
1824532.0,267.02826,1.0,1.45,6.57,-7.85,15.56,-13.75,43.69,-118.81,1.19,171.44,4.588882607361471,5.051210132951243,2.0402265883757016,-156.814109146573,-22.267504416511226,6.099150260471114,-0.0206,-0.9796,-0.1931,0.0532
1824569.0,267.046982,1.0,1.74,11.07,-9.31,12.56,-19.5,41.06,-138.56,8.31,122.94,5.485792800252705,8.648368862831342,-0.5548360596878137,-160.80272323312002,-16.96415115593626,4.573417240623147,-0.0672,-0.986,-0.1475,0.0399
1824606.0,267.088069,1.0,0.64,14.53,-9.75,12.56,-19.5,41.06,-97.69,-11.88,61.25,4.824524673865646,11.659431973892648,-2.333144385302875,-161.07959134463852,-14.661854827129085,4.11472114096103,-0.0975,-0.9864,-0.1276,0.0359
1824638.0,267.113263,1.0,-1.13,10.87,-9.66,9.56,-25.75,38.69,13.81,-22.12,-24.19,2.2094102832333453,8.407092027148911,-1.9061084217976596,-160.3946831522595,-14.45391421483677,4.642227799866185,-0.1072,-0.9854,-0.1258,0.0405
1824675.0,267.150377,1.0,-1.74,5.32,-8.52,8.5,-28.5,38.69,36.63,-2.25,-52.44,0.4039278072471858,3.766507348023763,0.3424720259858045,-159.66766312617878,-16.2114321173387,5.284543793645802,-0.0955,-0.9843,-0.141,0.0461
1824712.0,267.225977,1.0,-1.49,1.75,-9.04,10.69,-26.56,37.06,24.87,2.44,-68.62,-0.255550672739035,0.40598271013889253,0.49138983762499144,-158.53049466710758,-18.100426311736804,5.456620099259026,-0.0869,-0.9825,-0.1573,0.0476
1824745.0,267.237945,1.0,-1.27,0.63,-9.39,10.69,-26.56,37.06,10.94,-0.19,-60.5,-0.30647728656269024,-0.6472369930086537,0.3372753665987904,-156.70033876277134,-20.49492914898236,5.754915093896803,-0.0812,-0.9794,-0.1779,0.0502
1824782.0,267.276628,1.0,-1.6,0.68,-8.49,11.38,-25.75,38.69,6.13,-4.38,-48.38,-0.5927250774004021,-0.2783944047634463,1.1652569677385305,-155.4832058886786,-21.9172402806094,6.076199569788739,-0.079,-0.9772,-0.1901,0.053
1824819.0,267.30309,1.0,-1.3,0.96,-9.8,13.25,-25.06,38.25,-0.94,4.63,-50.25,-0.08016428479404647,-0.3190384641656598,-0.12025224318877292,-153.71118144535646,-23.858067126010045,6.133576755953127,-0.0776,-0.9738,-0.2067,0.0535
1824854.0,267.341406,1.0,-2.1,-0.68,-8.61,13.25,-25.06,38.25,11.13,3.88,-43.63,-1.5446225290943012,-1.1761136259341212,1.1328159007387963,-152.52794284369597,-25.2653784326321,6.271288310584378,-0.074,-0.9714,-0.2187,0.0547
1824888.0,267.361877,1.0,-2.21,0.8,-9.1,13.69,-25.5,38.56,-8.0,14.25,-26.44,-1.0165279073936917,0.1470150582444169,0.4643185144371387,-151.57882322936237,-26.417553105892512,5.846705927689754,-0.0743,-0.9694,-0.2285,0.051
