TIME,ELAPSED_SECONDS,PSTATE,acc_x,acc_y,acc_z,mag_x,mag_y,mag_z,gyr_x,gyr_y,gyr_z,lin_x,lin_y,lin_z,eul_x,eul_y,eul_z,qua_w,qua_x,qua_y,qua_z
790032.0,498.721796,1.0,-6.2,-2.5,-7.22,38.5,-5.75,6.56,-0.19,0.37,-0.44,-0.007758777550261886,-0.052707584252613016,-0.03283991116577845,-89.12710972399763,-75.29474135486807,40.497916639737895,-0.1216,-0.7017,-0.6108,0.3461
790067.0,498.77218,1.0,-6.28,-2.63,-7.2,38.5,-5.75,6.56,0.94,0.12,-0.06,-0.13565861100000254,-0.008695348677364656,-0.10177172760994856,-89.12710972399763,-75.28026949834307,40.510130890629796,-0.1215,-0.7017,-0.6107,0.3462
790102.0,498.795914,1.0,-6.35,-2.47,-7.14,39.25,-4.69,5.69,-1.63,-0.06,0.0,-0.012658401460343692,0.11494504723309773,-0.0619683126610493,-89.11102718958544,-75.30921462142838,40.48570286910027,-0.1219,-0.7016,-0.6109,0.34600000000000003
790136.0,498.93637699999994,1.0,-6.21,-2.52,-7.25,39.69,-5.06,6.88,1.25,0.56,0.25,-0.017824547920398004,-0.06865074655896873,-0.06613934042899494,-89.12710972399763,-75.29474135486807,40.497916639737895,-0.1217,-0.7017,-0.6108,0.3461
790173.0,498.994968,1.0,-6.28,-2.52,-7.11,39.69,-5.06,6.88,-3.06,-2.06,0.12,-0.06949391768273594,0.05911121355837245,-0.008266018990523705,-89.07886878573439,-75.30921462142838,40.510130890629796,-0.1223,-0.7014,-0.6109,0.3462
790206.0,499.11059800000004,1.0,-6.34,-2.5,-7.14,39.69,-5.38,6.56,1.81,0.19,0.81,-0.03896569630363257,0.08570551239596069,-0.06332144067076584,-89.07886878573439,-75.28026949834307,40.54677652678586,-0.1224,-0.7014,-0.6107,0.3465
790243.0,499.11688899999996,1.0,-6.36,-2.52,-6.91,39.69,-4.69,6.06,-2.25,-0.06,0.25,-0.1355016698237257,0.23007053662195376,0.08673195272956669,-89.06279291382195,-75.29474135486807,40.5589927006499,-0.1226,-0.7013,-0.6108,0.3466
790276.0,499.12982,1.0,-6.26,-2.6,-7.06,39.69,-4.69,6.06,2.19,2.44,0.31,-0.15610879314770565,0.050184030082189635,0.02072584293508584,-89.09494687724344,-75.26579905121056,40.5589927006499,-0.1222,-0.7015,-0.6106,0.3466
790310.0,499.183708,1.0,-6.25,-2.43,-7.25,39.25,-5.75,6.06,-2.44,0.31,0.44,0.060050494301101535,-0.02517589560010669,-0.068858093886357,-89.12710972399763,-75.28026949834307,40.497916639737895,-0.1222,-0.7017,-0.6107,0.3461
790345.0,499.200662,1.0,-6.3,-2.54,-7.04,40.38,-5.38,6.56,0.06,1.25,1.06,-0.11466556376095127,0.11445222626142293,0.025190369842997384,-89.14319448171844,-75.26579905121056,40.497916639737895,-0.1221,-0.7018,-0.6106,0.3461
790380.0,499.203638,1.0,-6.24,-2.26,-7.21,38.88,-4.69,5.69,0.06,2.0,0.31,0.19403624641866649,0.04032166061098241,0.009200122671648714,-89.19146210713116,-75.26579905121056,40.400219905352074,-0.1221,-0.7021,-0.6106,0.3453
790415.0,499.237933,1.0,-6.19,-2.57,-7.29,38.88,-4.69,5.69,0.19,-0.44,-0.81,-0.06845685143781732,-0.10907620274401396,-0.09529506354616224,-89.2075557704903,-75.28026949834307,40.38800996971994,-0.1218,-0.7022,-0.6107,0.3452
790452.0,499.244647,1.0,-6.38,-2.4,-7.0,39.69,-5.38,5.69,1.81,-0.37,-0.37,-0.004365310219433316,0.24019420540530456,0.039015297178828234,-89.19146210713116,-75.25133001282822,40.43685258518578,-0.1219,-0.7021,-0.6105,0.3456
790484.0,499.260004,1.0,-6.37,-2.44,-7.04,38.88,-6.19,6.56,-1.44,-1.31,-0.25,-0.025884595309659253,0.1964204531955871,0.0059944610428175355,-89.17537067204425,-75.26579905121056,40.461276767806375,-0.122,-0.7020000000000001,-0.6106,0.3458
790519.0,499.33697699999993,1.0,-6.3,-2.63,-7.22,38.88,-6.19,6.56,3.69,0.69,0.0,-0.13179786198095422,-0.009148059047273229,-0.12903546385164688,-89.17537067204425,-75.23686238255408,40.52234562197142,-0.1216,-0.7020000000000001,-0.6104,0.3463
790554.0,499.439795,1.0,-6.18,-2.52,-7.31,38.88,-5.38,6.56,-2.38,-0.69,0.56,-0.0009464763767104144,-0.13204377500697986,-0.09089836035997224,-89.14319448171844,-75.25133001282822,40.497916639737895,-0.1219,-0.7018,-0.6105,0.3461
790591.0,499.49842,1.0,-6.31,-2.46,-7.05,39.25,-6.19,5.25,0.75,-0.44,0.5,-0.033484176546634825,0.12880789533869086,0.031554740309720934,-89.15928146398718,-75.22239615974651,40.53456083395825,-0.1221,-0.7019,-0.6103,0.3464
790626.0,499.501703,1.0,-6.36,-2.36,-7.04,39.25,-6.19,5.25,-0.69,-3.38,0.63,0.054676111879530254,0.1828921926491333,0.03197041606182438,-89.12710972399763,-75.20793134376436,40.57120935574602,-0.1227,-0.7017,-0.6102,0.3467
790659.0,499.54343600000004,1.0,-6.29,-2.41,-7.23,40.0,-6.56,5.69,0.81,-0.56,-0.12,0.07857028385164677,-0.004481416566957774,-0.07459013610645293,-89.11102718958544,-75.17900592971374,40.63229985656115,-0.1228,-0.7016,-0.61,0.3472
790693.0,499.560024,1.0,-6.38,-2.53,-7.06,39.25,-4.69,5.25,2.94,-1.81,-1.75,-0.08123456119795902,0.13327177976229845,-0.03837613398186868,-89.06279291382195,-75.1934679339669,40.705624379147494,-0.1227,-0.7013,-0.6101,0.3478
790728.0,499.59690700000004,1.0,-6.41,-2.63,-7.01,39.25,-4.69,5.25,0.06,-1.63,-0.88,-0.17880809349782267,0.15312378335433308,-0.0467596013852436,-88.99851159744894,-75.1934679339669,40.80341749737214,-0.1227,-0.7009,-0.6101,0.3486
790763.0,499.602929,1.0,-6.36,-2.61,-7.12,39.25,-5.06,6.88,1.06,0.69,-0.19,-0.11715372351887965,0.053075567346330337,-0.08979168321202913,-88.99851159744894,-75.17900592971374,40.827870624577365,-0.1225,-0.7009,-0.61,0.3488
790798.0,499.61804900000004,1.0,-6.28,-2.45,-7.26,40.0,-6.19,6.56,0.94,1.44,0.06,0.08786403515211305,-0.05228511257828528,-0.09981486786933758,-88.99851159744894,-75.16454533036487,40.84009791641019,-0.1221,-0.7009,-0.6099,0.3489
790835.0,499.620848,1.0,-6.21,-2.58,-7.27,38.88,-5.75,5.69,0.94,-3.19,-0.5,-0.018732905747427142,-0.15283572995409456,-0.09535435860799167,-88.9824468050114,-75.13562834382228,40.93793375462537,-0.1221,-0.7008,-0.6097,0.3497
790867.0,499.623475,1.0,-6.36,-2.63,-6.84,38.88,-5.75,5.69,2.63,-6.13,-0.31,-0.19850033274393508,0.17835913198335396,0.10711982385544873,-88.90215600126406,-75.07781120147467,41.12146009512062,-0.1227,-0.7003,-0.6093,0.3512
790904.0,499.662503,1.0,-6.32,-2.56,-6.88,39.25,-6.56,6.06,-3.13,1.88,2.06,-0.13035006449847508,0.13869216838852938,0.12191080149222874,-88.93426569598631,-75.06336041857055,41.07250897869503,-0.1231,-0.7005,-0.6092,0.3508
790939.0,499.673738,1.0,-6.19,-2.52,-6.95,40.0,-6.19,5.69,-1.25,3.94,2.63,-0.0896852443321261,0.019959643970661745,0.16504441951903634,-89.06279291382195,-75.02001646610674,40.92570257127247,-0.1231,-0.7013,-0.6089,0.3496
790974.0,499.681119,1.0,-6.33,-2.52,-6.72,40.0,-6.19,5.69,0.69,0.69,0.44,-0.17206879495134852,0.2633117840859245,0.242197102203626,-89.07886878573439,-75.00557127858174,40.92570257127247,-0.1232,-0.7014,-0.6088,0.3496
791007.0,499.717436,1.0,-6.28,-2.64,-6.88,38.88,-4.69,5.69,-0.69,5.56,1.37,-0.2430890230497081,0.12527193849634832,0.12844692978608307,-89.17537067204425,-75.00557127858174,40.77896631080099,-0.1226,-0.7020000000000001,-0.6088,0.3484
791044.0,499.72392,1.0,-6.13,-2.54,-6.97,40.0,-5.75,5.25,-2.75,7.38,3.56,-0.13769750903594655,0.004009061796642399,0.18425823269864766,-89.32027391021383,-75.00557127858174,40.595644110417574,-0.1222,-0.7029,-0.6088,0.3469
791076.0,499.74223099999995,1.0,-6.21,-2.58,-6.97,40.0,-5.75,5.25,-3.63,4.13,2.06,-0.20284676156169928,0.07514161469916925,0.12395373661011888,-89.4331017243669,-75.02001646610674,40.4124303196771,-0.1223,-0.7036,-0.6089,0.3454
791111.0,499.792805,1.0,-6.13,-2.54,-6.94,38.5,-5.75,6.56,-4.75,8.81,4.13,-0.21009944859009333,0.06821871469560037,0.20751960039257256,-89.5944754215132,-75.02001646610674,40.14391148287503,-0.1223,-0.7046,-0.6089,0.3432
791146.0,499.921257,1.0,-5.97,-2.37,-6.91,38.88,-5.75,6.56,-6.81,9.31,4.44,-0.1006934253938434,0.03463496394072951,0.3729571253429445,-89.7884222482225,-75.04891103546538,39.81467938235785,-0.1224,-0.7058,-0.6091,0.3405
791181.0,499.97211,1.0,-5.87,-2.53,-6.86,38.88,-5.75,6.56,-5.38,8.94,4.75,-0.3179485179660667,-0.006991643207818088,0.43561698027114737,-90.06374156785671,-75.03446305152276,39.41274892746301,-0.1222,-0.7075,-0.609,0.3372
791214.0,499.98829400000005,1.0,-5.63,-2.52,-7.03,38.88,-5.75,7.38,-7.75,11.81,5.63,-0.2928972465483052,-0.2509370475158679,0.4621627587893578,-90.27472743998257,-75.04891103546538,39.03563741685095,-0.1221,-0.7088,-0.6091,0.3341
791248.0,500.04374,1.0,-5.99,-2.62,-6.66,38.88,-6.88,6.06,-9.75,10.63,8.44,-0.5846700820149353,0.26966681845451523,0.4961429943519597,-90.60008571252615,-75.03446305152276,38.56183024539064,-0.1221,-0.7108,-0.609,0.3302
791283.0,500.08513600000003,1.0,-5.99,-1.88,-6.92,39.25,-6.88,6.88,-22.37,13.5,8.94,0.09317422233967264,0.3339349973179553,0.4695891143755677,-90.89370830665364,-75.09226338481456,37.88268575548643,-0.124,-0.7126,-0.6094,0.3246
791318.0,500.08925999999997,1.0,-5.82,-1.7,-7.2,39.25,-6.88,6.88,-15.25,16.0,9.38,0.21977440709698515,0.14957103367062866,0.39751998092427776,-91.36838194343346,-75.13562834382228,36.975271048101675,-0.1259,-0.7155,-0.6097,0.3171
791355.0,500.106697,1.0,-5.68,-2.14,-7.24,38.19,-6.88,6.88,-9.19,16.5,8.31,-0.25618399387375,-0.02432004572687596,0.3624253999251597,-91.74628360102051,-75.09226338481456,36.40785062374676,-0.1258,-0.7178,-0.6094,0.3124
791390.0,500.109682,1.0,-5.78,-2.14,-7.08,37.0,-7.25,8.19,-12.69,19.44,9.94,-0.4339871472034637,0.2334577713185759,0.4326672485184737,-92.3072874649493,-75.04891103546538,35.504295540348124,-0.126,-0.7212,-0.6091,0.3049
791425.0,500.147112,1.0,-5.61,-1.57,-7.68,37.0,-7.25,8.19,-23.5,25.56,11.38,0.15980296683099338,-0.02177257932373033,0.16852834863132848,-92.754835123964,-75.10671696922729,34.57901199780452,-0.1271,-0.7239,-0.6095,0.2972
791459.0,500.15393,1.0,-5.3,-1.3,-8.09,37.75,-8.06,8.56,-16.31,24.31,9.94,0.385726782638328,-0.3094045469080572,0.06069783125280636,-93.38784380135635,-75.15008613528076,33.356870714029654,-0.1276,-0.7277,-0.6098,0.287
791494.0,500.20613399999996,1.0,-5.37,-1.57,-7.75,37.38,-9.19,9.0,-15.44,21.12,7.56,-0.07024183645014881,-0.0462888459396249,0.2485527297712817,-93.77278810820258,-75.1934679339669,32.580097056893266,-0.1275,-0.73,-0.6101,0.2805
791531.0,500.21237599999995,1.0,-5.58,-1.46,-7.42,37.38,-9.19,9.0,-19.56,25.56,10.75,-0.2357453881412255,0.4469705738893066,0.4221392819046113,-94.37809988831016,-75.23686238255408,31.340435037267948,-0.128,-0.7336,-0.6104,0.2701
791564.0,500.22779699999995,1.0,-5.12,-1.06,-8.14,37.75,-9.88,9.38,-19.81,32.38,11.88,0.223444171741606,-0.09401188808902794,0.13510232307607062,-94.91906676360666,-75.26579905121056,30.21133398212997,-0.1279,-0.7368,-0.6106,0.2606
791601.0,500.362496,1.0,-4.88,-1.75,-8.06,36.38,-10.25,11.0,-11.44,31.87,12.06,-0.5783147193416245,-0.2345344459547957,0.24364599084819186,-95.71869958125956,-75.1934679339669,28.91952089539617,-0.1252,-0.7415,-0.6101,0.2497
791635.0,500.45944000000003,1.0,-4.81,-1.62,-7.81,36.38,-10.69,12.25,-22.94,39.0,18.87,-0.6476775192670083,-0.005758562274879586,0.5148751065796571,-96.42132059422951,-75.09226338481456,27.702261187008638,-0.1241,-0.7456,-0.6094,0.2394
791670.0,500.46789299999995,1.0,-4.64,-0.93,-8.21,36.38,-10.69,12.25,-33.5,45.56,24.06,-0.17932701139815746,0.03191149386745795,0.3321883541046429,-97.63220528770944,-74.86119614779109,25.5003013557049,-0.1247,-0.7526,-0.6078,0.2207
791707.0,500.47231100000016,1.0,-4.26,-0.61,-8.94,36.0,-11.38,12.25,-28.31,48.06,24.62,0.08656427578657655,-0.364819715093748,-0.10812247351831417,-98.59396637382844,-74.61607730658687,23.78779915841677,-0.1243,-0.7581,-0.6061,0.2061
791744.0,500.47475,1.0,-4.07,0.35,-9.18,34.06,-12.56,14.0,-33.25,52.0,23.5,0.7609386968055384,-0.1496051156306054,-0.21125350368184925,-99.81398402974048,-74.29945637663062,21.462206102543455,-0.124,-0.765,-0.6039,0.1862
791779.0,500.52324699999997,1.0,-3.77,0.47,-9.33,34.06,-12.56,14.0,-21.56,45.69,19.25,0.7268465785741609,-0.2306934486580097,-0.2383076695952955,-100.65391350970894,-74.12703326079642,19.71519382901285,-0.1225,-0.7697,-0.6027,0.1712
791814.0,500.53875199999993,1.0,-3.68,-0.05,-9.36,33.38,-14.75,15.19,-14.0,41.06,17.75,0.06155505892417324,-0.20581820518032634,-0.2486147822490085,-101.64633756490149,-73.78277317194505,18.100426311736804,-0.1181,-0.7752,-0.6003,0.1573
791848.0,500.541553,1.0,-3.46,0.7,-9.52,32.25,-15.19,15.19,-22.87,43.63,16.75,0.6029931509218927,-0.0355868771431489,-0.3287894494820254,-102.52115080428871,-73.53939139013687,16.2114321173387,-0.1162,-0.78,-0.5986,0.141
791885.0,500.580436,1.0,-3.32,0.18,-9.54,31.87,-16.25,17.19,-6.63,35.13,13.13,0.006702474447391582,-0.13676042140079048,-0.2952137717984797,-103.07215846453477,-73.36782485981517,15.089441590206313,-0.1134,-0.7829999999999999,-0.5974,0.1313
791918.0,500.632926,1.0,-3.22,0.04,-9.68,31.87,-16.25,17.19,-9.75,31.5,14.13,-0.2369305107736327,-0.12102499774532728,-0.3914683010879703,-103.77492816963002,-73.06804274776654,13.841919736512358,-0.1099,-0.7868,-0.5953,0.1205
791955.0,500.639505,1.0,-2.89,0.43,-9.63,30.06,-17.06,17.69,-14.19,31.62,15.19,0.08350784229010355,-0.17349280087634533,-0.25500129033600416,-104.29629314706915,-72.82578699012866,12.803582439206052,-0.1088,-0.7896,-0.5936,0.1115
791992.0,500.663887,1.0,-2.66,0.36,-9.74,30.5,-17.75,18.56,-17.37,27.75,16.19,-0.08634399809885822,-0.2651804245975654,-0.2926085894412349,-105.00878353257923,-72.44180194441707,11.489857897732715,-0.1068,-0.7934,-0.5909,0.1001
792027.0,500.69947199999996,1.0,-2.57,0.87,-9.89,30.5,-17.75,18.56,-13.13,27.0,15.94,0.2869420937224135,-0.14095648895556434,-0.44379855131088775,-105.49962088989868,-72.14379745445741,10.51132121524803,-0.1067,-0.7959999999999999,-0.5888,0.0916
792061.0,500.75160700000004,1.0,-2.39,0.95,-10.06,29.25,-18.56,18.06,-14.94,26.37,14.94,0.2525486949606752,-0.17786941897495268,-0.5723086002867941,-106.12661834568745,-71.7614760712347,9.315090195791667,-0.1054,-0.7993,-0.5861,0.0812
792096.0,500.80355999999995,1.0,-2.34,0.98,-9.94,28.19,-19.56,20.19,-12.0,23.94,15.25,0.17455350344925946,-0.08063402767228234,-0.4501832943465017,-106.56632775318519,-71.4506360226007,8.464552559408572,-0.1047,-0.8016,-0.5839,0.0738
792133.0,500.819488,1.0,-2.36,1.26,-10.04,27.75,-20.0,18.5,-15.19,20.56,12.81,0.2650936245595857,0.10986887324679916,-0.5797090444827848,-107.104699496576,-71.06997715893745,7.384806987935718,-0.1049,-0.8044,-0.5812,0.0644
792166.0,500.853568,1.0,-2.1,1.61,-10.23,27.75,-20.0,18.5,-15.44,22.81,12.19,0.5466008925870349,0.019855789856588424,-0.7458773376491319,-107.4332446849696,-70.84482737383499,6.558216736441544,-0.105,-0.8061,-0.5796,0.0572
792205.0,500.91191200000003,1.0,-2.0,1.34,-10.34,28.19,-21.5,19.75,-4.38,16.37,8.63,0.2006774977637049,-0.06014360769555184,-0.8078359172898573,-107.84087503637959,-70.56383173343356,5.686074397008276,-0.1036,-0.8082,-0.5776,0.0496
792240.0,500.918838,1.0,-1.91,1.34,-10.25,26.0,-21.87,19.25,-6.56,13.44,8.38,0.17215347391126906,-0.06195805023556989,-0.7039505718717738,-108.07470230594728,-70.38144582384912,5.238658808769412,-0.1029,-0.8094,-0.5763,0.0457
792272.0,500.97749100000004,1.0,-1.82,1.21,-10.22,26.0,-21.87,19.25,-5.0,12.56,7.63,-0.0016422011228509061,-0.11177308984145053,-0.6438238686608262,-108.36791454974384,-70.15725143860956,4.6766337060034,-0.1025,-0.8109,-0.5747,0.0408
792307.0,500.99003099999993,1.0,-1.82,1.53,-10.22,26.25,-22.56,19.37,-7.69,7.56,7.88,0.2364771258856543,0.03138308185368799,-0.6835737188301305,-108.58359923261342,-69.97532009784457,4.2867240536107065,-0.1026,-0.812,-0.5734,0.0374
792344.0,501.04244900000003,1.0,-1.72,1.69,-10.03,25.56,-23.37,19.75,-5.69,6.38,5.69,0.3661583099668515,0.06326520556670767,-0.5024394654090028,-108.79985018717657,-69.76565017151245,3.908329853329541,-0.1031,-0.8131,-0.5719,0.0341
792379.0,501.04535400000003,1.0,-1.66,1.56,-10.02,25.56,-23.37,19.75,-1.94,5.06,4.5,0.23265090524667226,-0.006929419224789402,-0.4663936356241134,-108.93776167014931,-69.63997654209203,3.6904861286986015,-0.10300000000000001,-0.8138,-0.5710000000000001,0.0322
792414.0,501.08948200000003,1.0,-1.72,1.61,-9.96,26.0,-23.37,19.87,-0.69,1.56,2.94,0.2309441781032347,0.08642911726066528,-0.4252264063239988,-109.07590597018145,-69.51439870357002,3.5299782811888885,-0.1035,-0.8145,-0.5701,0.0308
792449.0,501.13731500000006,1.0,-1.74,1.5,-9.65,25.19,-23.37,21.5,-1.69,2.69,1.12,0.12737995033265725,0.14693129446240638,-0.1111262398110604,-109.13518228345345,-69.47256064706727,3.4153340784378665,-0.1033,-0.8148,-0.5698,0.0298
792485.0,501.157156,1.0,-1.79,1.51,-9.48,25.56,-23.37,20.69,-3.0,4.0,0.69,0.11619626657180912,0.24085253443940235,0.04534432482063622,-109.15495063272716,-69.44467449288967,3.3121572228147254,-0.1033,-0.8149,-0.5696,0.0289
792518.0,501.20055,1.0,-1.57,1.57,-9.89,25.56,-23.37,20.69,0.12,2.69,0.69,0.202417756589653,-0.007486061908062336,-0.3274938222818964,-109.17472377788086,-69.4307331793357,3.174592245464794,-0.1031,-0.815,-0.5695,0.0277
792555.0,501.258773,1.0,-1.63,1.58,-9.78,24.75,-23.0,19.87,-3.38,3.5,-0.75,0.175530139362952,0.07729877634817772,-0.2315228451621288,-109.15495063272716,-69.45861698196556,3.048495041051397,-0.1036,-0.8149,-0.5697,0.0266
792590.0,501.27608200000003,1.0,-1.6,1.51,-9.69,25.56,-23.0,19.87,-0.19,4.44,-1.31,0.113929344478857,0.05885351895299884,-0.12913161836166154,-109.13518228345345,-69.4865054886989,2.9338644268256844,-0.1034,-0.8148,-0.5699,0.0256
792625.0,501.348863,1.0,-1.5,1.65,-10.31,25.56,-23.0,19.87,-1.81,-1.88,-3.31,0.21567126639912965,-0.1085948073039018,-0.738979098004366,-109.01667267342907,-69.59810663742078,2.8421620551927376,-0.1038,-0.8142,-0.5707,0.0248
792657.0,501.35829800000016,1.0,-1.45,1.54,-10.47,25.19,-23.69,20.25,2.56,-1.0,-4.75,0.13544831084846498,-0.2267737461571561,-0.8716095690094631,-108.898334692695,-69.72374829540703,2.922401528803221,-0.1035,-0.8136,-0.5716,0.0255
792694.0,501.394438,1.0,-1.44,1.54,-10.44,26.0,-23.0,21.06,4.44,-8.13,-4.06,0.176754894563852,-0.2577288722529967,-0.8395292928568967,-108.74081619599785,-69.86346279099202,3.15166519950434,-0.1036,-0.8128,-0.5726,0.0275
792729.0,501.45820199999997,1.0,-1.69,1.53,-10.2,26.0,-23.0,21.06,3.75,-11.31,-5.94,0.14082438744048129,-0.028579836747068432,-0.6440127390244257,-108.58359923261342,-69.97532009784457,3.4726557451993814,-0.1043,-0.812,-0.5734,0.0303
792762.0,501.512006,1.0,-1.66,1.35,-10.48,24.75,-23.37,19.37,7.38,-11.88,-5.06,0.0367654564146081,-0.2336315006229941,-0.8869258576414136,-108.38749898537714,-70.12924881260771,3.977125506843028,-0.1047,-0.8109999999999999,-0.5745,0.0347
792799.0,501.570646,1.0,-1.74,1.21,-10.55,26.25,-21.87,20.25,10.69,-16.75,-6.0,-0.04636740186037328,-0.2800775670802781,-0.9503759189268076,-108.25050517877196,-70.24128817122835,4.504608331312204,-0.1049,-0.8103,-0.5753,0.0393
792836.0,501.59265300000004,1.0,-1.85,1.36,-10.54,25.56,-23.37,19.87,5.94,-21.5,-7.25,0.1589996007005008,-0.24531869013163754,-0.9765887466497816,-107.99668693087187,-70.36742462258441,5.284543793645802,-0.1066,-0.809,-0.5762,0.0461
792868.0,501.630454,1.0,-2.33,1.43,-10.33,25.56,-23.37,19.87,10.94,-24.75,-9.13,0.21090177929368686,0.12439987261652408,-0.8761747720901862,-107.66593345101973,-70.54979476235701,6.294241112432486,-0.1084,-0.8073,-0.5775,0.0549
792905.0,501.63693099999995,1.0,-2.34,1.57,-10.53,27.5,-21.87,19.87,10.88,-25.75,-10.63,0.4448444871157269,0.020087617126279825,-1.0847736842536353,-107.37517302657601,-70.7183188364016,7.086273935339353,-0.1095,-0.8058,-0.5787,0.0618
792942.0,501.695704,1.0,-2.39,1.55,-10.12,27.06,-21.06,19.5,16.81,-31.25,-13.88,0.6021923421082085,-0.0065210537354654105,-0.6893645702530549,-106.87355122081516,-70.9995839667978,8.384121213370948,-0.111,-0.8032,-0.5807,0.0731
792977.0,501.713092,1.0,-2.62,1.04,-9.64,27.06,-21.06,19.5,21.75,-30.06,-14.81,0.2212411304193904,0.06673288270911781,-0.23437579842199696,-106.47054675108936,-71.23904701158034,9.51055493545105,-0.1106,-0.8011,-0.5824,0.0829
793010.0,501.74726799999996,1.0,-2.66,1.06,-9.64,29.0,-20.69,19.5,20.44,-28.75,-17.75,0.4426460294512015,-0.03789127375266377,-0.2398134943837089,-105.78405748823393,-71.64837292642449,10.937173775974523,-0.1104,-0.7975,-0.5853,0.0953
793047.0,501.754899,1.0,-2.78,0.42,-9.42,29.69,-20.0,19.5,24.56,-30.0,-18.06,-0.025830433846097067,-0.15072602480334985,-0.02278612086340992,-105.27273844868162,-71.95960119494845,12.111948910357555,-0.1092,-0.7948,-0.5875,0.1055
793083.0,501.770299,1.0,-3.13,0.15,-9.0,30.5,-18.56,17.87,17.81,-30.81,-17.12,-0.19859680785077005,0.06451424625623214,0.2790166516840866,-104.53939520886965,-72.35660000190678,13.588001782657653,-0.1097,-0.7909,-0.5903,0.1183
793118.0,501.81228600000003,1.0,-3.18,0.0,-9.06,30.5,-18.56,17.87,16.87,-25.12,-14.13,-0.2199981206856999,-0.04565049326299997,0.20740435988016687,-104.05385291977898,-72.59812617311991,14.534774284595127,-0.1098,-0.7883,-0.5920000000000001,0.1265
793153.0,501.828774,1.0,-3.25,-0.06,-8.9,30.06,-17.37,18.19,14.88,-25.44,-12.5,-0.14018588109482655,-0.06744300081015342,0.33290209537516624,-103.45985596974184,-72.86851051764684,15.748572284340513,-0.1099,-0.7851,-0.5939,0.13699999999999998
793188.0,501.870725,1.0,-3.41,0.06,-8.8,31.56,-15.88,17.0,16.0,-25.25,-12.13,0.04523197104069709,0.05054280352524898,0.3691132719227195,-103.03532104245024,-73.03952240082316,16.63981448789728,-0.1102,-0.7828,-0.5951,0.1447
793223.0,501.929519,1.0,-3.55,-0.23,-8.83,31.56,-15.88,17.0,14.38,-22.06,-11.75,-0.11024739685780947,-0.02271320586038239,0.2876358902423295,-102.48453447446366,-73.25355342465495,17.763999776816537,-0.1102,-0.7798,-0.5966,0.1544
793257.0,502.029516,1.0,-3.68,-0.12,-8.85,31.56,-16.25,16.56,12.06,-19.94,-11.19,0.06795326723426143,0.03953238835375683,0.22160333638154306,-102.08271174423224,-73.42499241497191,18.49505809550988,-0.1104,-0.7776,-0.5978,0.1607
793294.0,502.03702699999997,1.0,-3.75,-0.24,-8.67,32.69,-15.56,16.56,12.88,-18.62,-10.25,0.0387775681569188,0.049351488444213,0.3575727577082315,-101.55568290678623,-73.65387577244138,19.377984308584086,-0.1104,-0.7747,-0.5994,0.1683
793329.0,502.085309,1.0,-3.92,-0.5,-8.3,32.69,-15.56,16.56,12.44,-18.19,-9.94,-0.2013776082256213,0.20937639193986524,0.6185049975850081,-101.21199312357183,-73.76844586798647,20.075850034388896,-0.1101,-0.7728,-0.6002,0.1743
793364.0,502.13500899999997,1.0,-3.92,-0.71,-8.31,32.69,-14.75,15.75,12.44,-9.5,-9.0,-0.2961472758369273,0.10102389000967917,0.5964007653342147,-100.81559788103887,-73.96915070870061,20.774468878532232,-0.1091,-0.7706,-0.6016,0.1803
793399.0,502.162187,1.0,-3.86,-0.91,-8.23,33.06,-14.06,15.0,11.13,-7.0,-5.63,-0.4181628299003475,0.01055348757517405,0.6805539851867817,-100.61802099879914,-74.04089516831135,21.182355652510953,-0.1076,-0.7695,-0.6021,0.1838
793436.0,502.20086900000007,1.0,-3.91,-0.94,-8.23,32.69,-14.06,15.38,8.13,-3.75,-3.75,-0.3826203089960947,0.03297189015293078,0.6547586898060533,-100.43876117788851,-74.11267351750108,21.602179804976906,-0.1058,-0.7685,-0.6026,0.1874
793468.0,502.21624699999995,1.0,-3.96,-0.93,-8.57,32.69,-14.06,15.38,-0.06,-2.25,-2.56,-0.28831603662202865,-0.05526720836716514,0.3248137116692469,-100.33136679814685,-74.17012064859728,21.800531789289547,-0.1047,-0.7679,-0.603,0.1891
793505.0,502.218811,1.0,-4.0,-0.67,-8.94,32.69,-12.88,15.75,4.06,-1.12,-2.25,0.030307643337950774,-0.1046466272119091,-0.009695069839816384,-100.2240929390682,-74.24196019139418,21.882225322200526,-0.1046,-0.7673,-0.6035,0.1898
793540.0,502.256868,1.0,-4.02,-0.61,-8.91,34.25,-13.25,15.38,3.25,-1.19,-2.56,0.09895720383439803,-0.061732338937783286,0.013438239288470656,-100.17050104885807,-74.28508028194621,21.975603150496873,-0.1041,-0.767,-0.6038,0.1906
793575.0,502.27279500000003,1.0,-4.12,-0.92,-8.93,34.25,-13.25,15.38,2.0,-0.31,-1.25,-0.18583000439881905,-0.05485016786830999,-0.0689845957386428,-100.11693910211171,-74.29945637663062,22.104021805228786,-0.10300000000000001,-0.7667,-0.6039,0.1917
793610.0,502.3118,1.0,-4.07,-0.78,-8.99,33.19,-12.88,15.38,2.56,-0.69,0.69,-0.01910343292498562,-0.08503271383386135,-0.09212792944303594,-100.13478976112896,-74.28508028194621,22.150726459273766,-0.1025,-0.7668,-0.6038,0.1921
793647.0,502.318174,1.0,-4.09,-0.86,-8.94,33.19,-12.88,16.19,1.63,1.19,1.19,-0.09275254855311532,-0.061026961256617,-0.061428469222704514,-100.20622564478924,-74.22758955699375,22.2091125181558,-0.1016,-0.7672,-0.6034,0.1926
793679.0,502.372984,1.0,-3.99,-0.9,-8.94,33.19,-12.88,16.19,1.75,-1.5,1.69,-0.10030985930874947,-0.16105759514866924,-0.02278021660820073,-100.2240929390682,-74.17012064859728,22.267504416511226,-0.1012,-0.7673,-0.603,0.1931
793714.0,502.38828499999994,1.0,-4.08,-0.75,-9.06,34.25,-12.56,15.38,1.12,-1.81,1.88,0.047352150021367716,-0.1008698153103088,-0.15728913340741354,-100.29559547862137,-74.08395810619946,22.314222150985408,-0.1015,-0.7677,-0.6024,0.1935
793749.0,502.42961299999996,1.0,-3.98,-1.01,-8.9,34.25,-13.25,17.37,5.06,-2.06,3.5,-0.1959779801872644,-0.19730980092792186,0.009040012164216904,-100.3671515088305,-73.9834968931097,22.407668898888765,-0.10099999999999999,-0.7681,-0.6017,0.1943
793784.0,502.49169000000006,1.0,-3.91,-1.03,-8.91,34.25,-13.25,17.37,2.06,-0.25,4.94,-0.18659119649685568,-0.26389072643245226,0.027455482561828504,-100.54627658006508,-73.81143181449299,22.466080778094224,-0.1001,-0.7691,-0.6005,0.1948
793817.0,502.508588,1.0,-3.79,-1.25,-9.15,33.5,-13.25,15.38,3.94,-0.5,7.88,-0.31897736090521944,-0.51258233901542,-0.15751643723695707,-100.72573922895168,-73.62524665323141,22.50113074326324,-0.0991,-0.7701,-0.5992,0.1951
793853.0,502.557391,1.0,-3.84,-1.51,-9.2,33.56,-12.88,15.38,2.44,-3.63,10.75,-0.5666713101749958,-0.5792918809808965,-0.24367360388729864,-101.06765675595229,-73.22499880394925,22.606293449751373,-0.0992,-0.772,-0.5964,0.196
793888.0,502.564503,1.0,-3.89,-1.21,-9.34,32.75,-12.88,15.38,0.0,-4.31,15.88,-0.2796470628327411,-0.5381298042349799,-0.3650761973591781,-101.42891378684288,-72.82578699012866,22.65303861752037,-0.1002,-0.774,-0.5936,0.1964
793923.0,502.61534900000004,1.0,-3.94,-1.19,-9.34,32.75,-12.88,15.38,-1.19,-8.19,19.0,-0.28190210888944417,-0.5183242183417289,-0.3829118750603868,-102.00984028062227,-72.17215447551501,22.73485185773412,-0.1006,-0.7772,-0.589,0.1971
793958.0,502.657271,1.0,-4.03,-0.98,-9.32,33.19,-12.88,15.0,0.0,-7.75,21.69,-0.12952180771770785,-0.4204557771471822,-0.3850201791604899,-102.52115080428871,-71.57772437161505,22.82836708787642,-0.1023,-0.78,-0.5848,0.1979
793995.0,502.66994900000003,1.0,-4.06,-0.77,-8.93,33.19,-14.75,15.88,3.88,-8.63,23.81,-0.038009837968529185,-0.2505374614346366,-0.029873076404362205,-103.27503144100895,-70.67617134909206,23.015443848374385,-0.1046,-0.7841,-0.5784,0.1995
794028.0,502.710875,1.0,-4.18,-0.87,-8.75,33.19,-14.75,15.88,7.63,-7.13,24.62,-0.2008855333158993,-0.15839516574854084,0.07390342084918268,-103.88639399112431,-69.91938190191141,23.237678334824075,-0.1055,-0.7874,-0.573,0.2014
794062.0,502.769399,1.0,-4.17,-1.03,-8.91,33.19,-15.19,15.88,12.63,-6.25,27.06,-0.2982939485287431,-0.33408283533394745,-0.07450931353231205,-104.83951599711521,-68.80458261894461,23.57704958135869,-0.105,-0.7925,-0.565,0.2043
794097.0,502.84283,1.0,-4.25,-1.15,-8.99,33.19,-14.38,15.0,12.63,-6.69,31.44,-0.3934702714709432,-0.3684512893464647,-0.1890753260004825,-105.63224214449237,-67.90425219273371,23.834643460050298,-0.1038,-0.7967,-0.5585,0.2065
794134.0,502.958654,1.0,-4.05,-0.74,-9.47,32.69,-16.25,15.5,6.69,-6.19,34.88,0.14393633135524087,-0.6448798178229244,-0.498417314340097,-106.81586235047912,-66.5420400796265,24.0923596055089,-0.1045,-0.8029,-0.5486,0.2087
794167.0,503.035607,1.0,-4.25,-0.26,-9.05,32.69,-16.25,15.5,3.75,-11.19,36.63,0.4077174114226778,-0.20842722969131755,-0.18449230718120013,-107.68535335119316,-65.44898558136794,24.33847679675364,-0.1069,-0.8074,-0.5406,0.2108
794204.0,503.09499800000003,1.0,-4.53,0.05,-8.7,32.25,-17.37,16.25,11.31,-9.94,36.13,0.4847169134974429,0.18544940454910566,0.011546221472594098,-108.85892668852871,-63.97037455615307,24.690270937756786,-0.1099,-0.8134,-0.5297,0.2138
794241.0,503.14695300000005,1.0,-4.92,0.16,-8.41,33.06,-18.19,15.06,6.19,-9.88,35.0,0.3597504096317651,0.6034311193417468,0.08725955990656152,-109.7303356928047,-62.8792753053861,24.97187636961762,-0.1112,-0.8178,-0.5216,0.2162
794273.0,503.150677,1.0,-4.66,0.49,-8.64,33.06,-18.19,15.06,8.56,-6.88,32.5,0.7697537148399201,0.3825370926923711,0.015508871857445428,-110.87341536801529,-61.48758848560482,25.230149327633608,-0.1127,-0.8235,-0.5112,0.2184
794308.0,503.15349199999997,1.0,-4.96,0.69,-8.36,31.19,-19.19,15.88,9.06,-10.5,29.0,0.7423742866286415,0.7759802949492738,0.12088544574807435,-111.60396041024364,-60.55652194040018,25.46505599443148,-0.1139,-0.8271,-0.5042,0.2204
794345.0,503.19016500000004,1.0,-5.05,0.54,-8.28,31.56,-20.69,14.25,4.69,-7.5,23.31,0.5466701785554895,0.7547789371676793,0.13793961691962942,-112.44441011743349,-59.471426215105645,25.817620461905193,-0.1145,-0.8312,-0.496,0.2234
794380.0,503.205662,1.0,-5.21,1.43,-7.96,31.56,-20.69,14.25,0.5,-5.25,19.44,1.1359087852656449,1.3968493983287464,0.35629958374849835,-112.91993898771477,-58.87843997243265,25.88816308640127,-0.1166,-0.8335,-0.4915,0.22399999999999998
794415.0,503.208341,1.0,-5.11,1.38,-8.26,31.25,-21.87,15.06,4.63,-3.69,9.56,1.1925731826098378,1.1492942425518726,0.13705890481107552,-113.3567321523323,-58.31342248941901,26.00575632582789,-0.1172,-0.8356,-0.4872,0.225
794449.0,503.215867,1.0,-5.21,0.95,-7.88,30.87,-20.69,15.0,5.0,-3.75,4.0,0.6602766598650943,1.1228568420445928,0.4021708945571554,-113.52379683838042,-58.02494481779507,26.111614068361767,-0.1193,-0.8364,-0.485,0.2259
794486.0,503.251641,1.0,-5.19,0.66,-8.02,30.87,-21.06,15.38,0.63,0.06,-2.5,0.4689080867780671,0.9043952303894546,0.2853951208675785,-113.52379683838042,-57.98563819390608,26.19396354392425,-0.1188,-0.8364,-0.4847,0.2266
794519.0,503.26731500000005,1.0,-5.06,0.2,-8.63,30.87,-21.06,15.38,2.63,0.88,-4.63,0.3144830565546121,0.3370386798934361,-0.1887492084056248,-113.41933793772672,-58.11668937344475,26.26455976697084,-0.1176,-0.8359,-0.4857,0.2272
794556.0,503.27103,1.0,-5.24,0.17,-9.14,30.56,-21.5,15.38,-6.5,-4.63,-7.81,0.3592619767365993,0.2359923785323917,-0.721471315284413,-113.19003713661378,-58.31342248941901,26.31162955164407,-0.1181,-0.8348,-0.4872,0.2276
794593.0,503.31798499999996,1.0,-5.25,0.88,-9.66,31.69,-21.5,15.75,-4.81,-7.94,-9.25,1.1156654455821668,0.3339645375619371,-1.1613150939080317,-112.83702493862923,-58.57602690065555,26.39401255557817,-0.1201,-0.8331,-0.4892,0.2283
794626.0,503.434529,1.0,-5.17,0.32,-9.83,31.69,-21.5,15.75,6.75,-15.25,-16.12,0.8260861594784601,-0.11447935374991115,-1.273272207970736,-112.21802358107666,-58.970568079244025,26.97108530932781,-0.1195,-0.8301,-0.4922,0.2332
794660.0,503.49008399999997,1.0,-5.24,0.21,-9.89,31.25,-21.5,14.19,7.0,-16.56,-16.69,0.8737758292452356,-0.1968999300051798,-1.351824188606196,-111.44102705802788,-59.43183945325738,27.737669605365127,-0.1188,-0.8263,-0.4957,0.2397
794697.0,503.493459,1.0,-5.13,-0.36,-9.51,31.69,-20.69,14.5,18.25,-21.94,-16.5,0.4684843241170002,-0.42538256350276415,-0.9862259889440228,-110.85321906669195,-59.68268779789295,28.51734540609927,-0.1169,-0.8234,-0.4976,0.2463
794734.0,503.530845,1.0,-5.15,-0.32,-9.03,31.69,-20.69,14.5,13.06,-29.25,-19.25,0.5859464210885879,-0.2781800856900414,-0.5733828820066318,-109.86983734458828,-60.05293463473585,29.8198276164604,-0.1159,-0.8185,-0.5004,0.2573
794767.0,503.537282,1.0,-5.42,-0.42,-8.27,31.69,-20.0,13.38,20.5,-31.12,-19.37,0.358647808814166,0.141240021921748,-0.08259279231935858,-109.07590597018145,-60.29131575913539,30.95976345993856,-0.1148,-0.8145,-0.5022,0.2669
794804.0,503.552608,1.0,-5.26,-0.86,-8.13,32.38,-18.19,14.19,23.62,-26.56,-20.31,0.2433728067032421,-0.1871854862714792,0.0901778382178886,-108.07470230594728,-60.596333747101795,32.424928041950515,-0.1113,-0.8094,-0.5045,0.2792
794839.0,503.555259,1.0,-5.32,-0.93,-7.66,33.56,-17.37,12.88,20.56,-28.94,-19.56,0.1862816955915868,-0.011146147418211294,0.43605370663182974,-107.31714138517357,-60.80880014298898,33.524381159227765,-0.1091,-0.8055,-0.5061,0.2884
794873.0,503.591833,1.0,-5.3,-1.3,-7.71,33.56,-17.37,12.88,25.06,-25.37,-18.19,0.12920829945083945,-0.2809607234800826,0.3658626235565183,-106.33663306993485,-61.06140467738283,34.93923195845143,-0.1056,-0.8004,-0.508,0.3002
794910.0,503.608192,1.0,-5.42,-1.53,-7.33,34.25,-16.25,12.56,13.81,-28.37,-17.62,-0.09115122358726174,-0.1745100940954789,0.5650355478873497,-105.57537971529776,-61.26106146367894,35.9377135193296,-0.1043,-0.7964,-0.5095,0.3085
794947.0,503.654997,1.0,-5.58,-1.74,-6.58,35.06,-15.56,12.19,17.37,-23.37,-12.5,-0.434885442163982,0.12942124841185842,1.0171946816851405,-104.63307361365904,-61.48758848560482,37.14447095017847,-0.1038,-0.7914,-0.5112,0.3185
794982.0,503.65995599999997,1.0,-5.53,-1.95,-6.29,35.06,-15.56,12.19,14.88,-17.94,-10.75,-0.6047070667155425,0.1060889429237285,1.2293208994201679,-104.16566658300283,-61.54092764747301,37.9069169867096,-0.102,-0.7889,-0.5116,0.3248
795017.0,503.71822199999997,1.0,-5.5,-2.17,-5.86,34.69,-15.19,11.38,11.31,-11.31,-4.81,-0.8540192562669444,0.1618266501168033,1.5275822236596444,-103.71924706500204,-61.54092764747301,38.67110921893018,-0.1002,-0.7865,-0.5116,0.3311
795052.0,503.771646,1.0,-5.46,-2.99,-5.01,35.06,-14.75,10.19,12.63,-1.19,0.12,-1.8618703802296088,0.17709858556553426,2.0378743707123093,-103.70069435268984,-61.394280462247146,38.999166163078655,-0.0976,-0.7864,-0.5105,0.3338
795088.0,503.787039,1.0,-5.68,-2.33,-4.96,36.56,-14.38,11.38,-13.88,10.25,8.44,-1.4135130414878323,0.6755105928948104,2.071110825486646,-103.96078153770134,-61.31433804552232,38.68325358261289,-0.0984,-0.7878,-0.5099,0.3312
795121.0,503.838284,1.0,-5.66,-1.83,-5.41,36.56,-14.38,11.38,-14.44,21.37,12.19,-0.924554803154504,0.7079043482287136,1.850729572436462,-104.61433000481749,-61.22111365086855,37.70100746591034,-0.1006,-0.7913,-0.5092,0.3231
795158.0,503.938123,1.0,-5.34,-1.72,-6.61,34.69,-14.38,11.38,-18.94,32.69,13.44,-0.3910501729244669,0.007060383458712516,1.1456379394356482,-105.31051129197044,-61.15455226396579,36.685408046310336,-0.10099999999999999,-0.795,-0.5087,0.3147
795195.0,504.010258,1.0,-5.18,-1.75,-7.05,35.38,-15.19,11.75,-20.25,34.63,16.75,-0.4234092498940849,-0.229411184089773,0.8979186023363201,-106.39399903423677,-60.99489802105828,35.10745640434998,-0.1019,-0.8007,-0.5075,0.3016
795230.0,504.07472,1.0,-5.18,-1.22,-7.42,35.38,-15.19,11.75,-29.37,36.94,19.81,-0.03166950873866853,-0.08204045080656562,0.6759618327999117,-107.23982794355229,-60.88853462317393,33.751834870470574,-0.1042,-0.8051,-0.5067,0.2903
795265.0,504.13453899999996,1.0,-5.15,-1.05,-7.67,33.56,-15.88,13.5,-27.37,38.81,24.0,-0.09419140555359606,-0.03702223059773524,0.5091418750473018,-108.54434186923865,-60.56979164506137,31.82869013670581,-0.1074,-0.8118,-0.5043,0.2742
795299.0,504.22194,1.0,-4.94,-0.6,-8.08,33.88,-17.06,13.75,-32.88,39.81,24.81,0.2478625514089713,-0.09461263683433828,0.32089159043883875,-109.53146516582777,-60.31782031136974,30.270684516880635,-0.1107,-0.8168,-0.5024,0.2611
795336.0,504.271969,1.0,-4.68,-0.27,-8.67,32.38,-18.19,14.25,-33.75,39.44,26.81,0.4460204593154038,-0.2976825474073074,-0.0349276606619906,-110.83302792899204,-59.94707947928739,28.16278249153404,-0.1155,-0.8233,-0.4996,0.2433
795371.0,504.27817999999996,1.0,-4.47,0.2,-8.72,32.38,-18.19,14.25,-32.56,36.81,28.31,0.5940652807287576,-0.1749312318159829,0.02525002318849978,-112.11534046927383,-59.45822976014184,26.170433719349266,-0.1207,-0.8296,-0.4959,0.2264
795408.0,504.29367300000007,1.0,-4.16,0.49,-9.19,31.69,-20.0,14.56,-30.19,36.19,27.81,0.8347121447666774,-0.3999626848428983,-0.25044130345908044,-113.08603923231148,-59.0363995158976,24.737194611496925,-0.1237,-0.8343,-0.4927,0.2142
795445.0,504.296462,1.0,-4.15,0.55,-9.05,30.19,-21.87,15.06,-27.81,32.38,26.56,0.5259199684389294,-0.24939397888218465,-0.14768125981321312,-114.23801227723101,-58.4972102111192,22.945282804181343,-0.1285,-0.8398,-0.4886,0.1989
795480.0,504.332033,1.0,-4.21,0.89,-8.7,30.19,-21.87,15.06,-33.06,31.56,26.87,0.473631870072355,0.1487526016133759,0.11336647401330956,-115.04449255970869,-58.077365284994315,21.602179804976906,-0.1326,-0.8436,-0.4854,0.1874
795512.0,504.339272,1.0,-4.12,1.27,-8.79,30.87,-23.37,14.25,-31.19,35.25,27.12,0.5128030285523835,0.29945592532360543,0.03430334207304675,-116.1194452258842,-57.540683062151366,19.703563060929827,-0.1379,-0.8486,-0.4813,0.1711
795549.0,504.35519000000005,1.0,-3.92,1.67,-9.09,29.75,-24.87,15.88,-30.37,34.5,23.87,0.7425802201519196,0.2915728214772729,-0.2006952976508689,-116.88163381383896,-57.16191107597382,18.286108128329392,-0.1411,-0.8521,-0.4784,0.1589
795586.0,504.357884,1.0,-3.73,1.75,-9.56,27.87,-26.69,16.25,-17.62,34.19,22.69,0.6745453913264134,0.12163610321828178,-0.580803642420463,-117.85169099664296,-56.65360014298316,16.628233533749974,-0.1426,-0.8565,-0.4745,0.1446
795621.0,504.36045,1.0,-3.79,1.4,-10.22,27.87,-26.69,16.25,-20.12,29.37,18.44,0.22274229622851616,-0.17225543311610214,-1.1793963286494833,-118.49856306250858,-56.31540097731903,15.551935573755918,-0.1431,-0.8594,-0.4719,0.1353
795658.0,504.399875,1.0,-3.46,2.27,-11.19,27.69,-26.69,16.25,-20.62,21.56,17.0,0.9335431459537747,-0.2694761247126769,-2.0843751792203573,-119.15163191547691,-55.92583364179144,14.188281840563285,-0.1462,-0.8623,-0.4689,0.1235
795693.0,504.41682599999996,1.0,-3.27,3.1,-11.28,27.25,-29.37,16.69,-21.69,12.88,11.75,1.5588972492006636,-0.009864349783565318,-2.239554467011088,-119.44645197451608,-55.692430645226345,13.426452603767608,-0.1494,-0.8636,-0.4671,0.1169
795727.0,504.420012,1.0,-3.24,3.23,-10.86,27.25,-29.37,16.69,-0.69,2.25,3.19,1.5659532486282115,0.17629655664849087,-1.8718263538410551,-119.60574054309872,-55.524017936901856,13.080365619179068,-0.1517,-0.8643,-0.4658,0.1139
795762.0,504.469231,1.0,-3.31,2.66,-10.26,25.0,-29.69,15.19,4.19,-3.69,-1.88,1.0491324625386227,0.1573341108597992,-1.246578806715597,-119.60574054309872,-55.524017936901856,13.230321745568984,-0.1509,-0.8643,-0.4658,0.1152
795799.0,504.47279299999997,1.0,-3.22,1.68,-9.26,25.75,-30.06,15.56,12.44,-3.13,-3.06,0.2744276300641681,-0.03773116414597977,-0.13627038764816746,-119.58296175366009,-55.56287082864312,13.4841456448157,-0.1488,-0.8642,-0.4661,0.1174
795834.0,504.511316,1.0,-3.25,1.36,-8.67,25.75,-30.06,15.56,7.94,-1.63,-3.13,-0.0016532308547755337,0.04736602232044762,0.44829791607212144,-119.56019073883043,-55.57582333465725,13.703410648771609,-0.147,-0.8641,-0.4662,0.1193
795869.0,504.56266600000004,1.0,-3.31,1.28,-8.48,26.19,-29.0,16.0,0.19,-2.75,-1.81,-0.0828011391970015,0.1225462007778213,0.6151851330692306,-119.49192425354241,-55.65355458403448,13.865006554805133,-0.1462,-0.8638,-0.4668,0.1207
795904.0,504.61327,1.0,-3.37,1.55,-8.56,26.19,-29.37,16.37,-2.63,0.5,-1.19,0.11103547751584676,0.2748887773738744,0.4822139697187709,-119.42372742198721,-55.70539088046685,13.830376539145913,-0.1467,-0.8635,-0.4672,0.1204
795938.0,504.6711,1.0,-3.2,1.56,-9.02,27.25,-29.37,15.56,-0.37,4.06,-0.75,0.2330726327424235,-0.006573648948008382,0.11234064166992573,-119.42372742198721,-55.744276234982536,13.738036026791262,-0.1464,-0.8635,-0.4675,0.1196
795973.0,504.67857000000004,1.0,-3.23,1.82,-9.36,27.25,-29.37,15.56,-4.5,-0.25,-1.0,0.4386071960956432,0.022307450924207942,-0.25128349079055745,-119.37830144711693,-55.80910067345633,13.634163660769715,-0.1472,-0.8633,-0.46799999999999997,0.1187
796010.0,504.690487,1.0,-3.3,1.84,-9.26,27.25,-29.37,16.37,1.06,-0.25,-1.88,0.41231262035489225,0.11685586791891955,-0.1853239295711244,-119.31022017941788,-55.860974209079195,13.645704477358525,-0.1475,-0.863,-0.4684,0.1188
796045.0,504.73242,1.0,-3.22,1.86,-9.27,26.19,-29.37,17.19,0.37,-0.06,-2.75,0.4642767386169983,0.06258498476111374,-0.17039516526118706,-119.24220793672814,-55.92583364179144,13.588001782657653,-0.1477,-0.8627,-0.4689,0.1183
796080.0,504.79026799999997,1.0,-3.19,1.37,-9.08,26.19,-29.37,17.19,3.31,-3.31,-3.13,0.06990631706452187,-0.14279639612026165,0.08687004898827055,-119.17426448564116,-55.99071256936834,13.657245433015795,-0.1473,-0.8624,-0.4694,0.1189
796112.0,504.805358,1.0,-3.24,1.29,-9.06,27.25,-29.37,16.75,0.81,-1.75,-2.0,-0.00600649097731798,-0.14112325503091314,0.09967579848098927,-119.10638959402516,-56.04262977353804,13.761120312162008,-0.147,-0.8621,-0.4698,0.1198
796149.0,504.84556399999997,1.0,-3.32,1.42,-8.74,26.87,-29.0,16.75,-1.56,-0.5,-0.88,0.03874620929881234,0.09746032896652436,0.3506783304388694,-119.06117764081604,-56.068593069762564,13.772662665221276,-0.1474,-0.8619,-0.47,0.1199
796184.0,504.89915599999995,1.0,-3.33,1.52,-8.87,26.87,-29.0,16.75,-1.37,0.75,-0.25,0.11616734514351955,0.1071862997446572,0.2123174935111134,-119.0385830310132,-56.107543888708584,13.714952301602876,-0.1478,-0.8618,-0.4703,0.1194
796219.0,504.96649400000007,1.0,-3.18,1.4,-9.16,26.5,-29.0,16.0,-0.25,0.56,1.37,0.10607946436866487,-0.16887697607754634,0.011843839886864773,-119.08377982565192,-56.09455949870071,13.657245433015795,-0.1476,-0.862,-0.4702,0.1189
796252.0,504.984934,1.0,-3.24,1.6,-9.08,26.87,-28.56,17.19,-3.31,1.75,1.56,0.2141680865420298,0.008636879150104027,0.03638606113808862,-119.12900695445512,-56.04262977353804,13.541842119876778,-0.1482,-0.8622,-0.4698,0.1179
796289.0,504.988103,1.0,-3.1,1.63,-9.29,26.19,-28.56,16.0,-3.38,3.44,1.19,0.3050776035991152,-0.15423764309106336,-0.11575587787235445,-119.19690467351394,-56.00369069764568,13.414914406298776,-0.1484,-0.8625,-0.4695,0.1168
796321.0,505.033616,1.0,-3.22,1.61,-9.16,26.19,-28.56,16.0,-0.5,0.44,1.63,0.19676088590955632,-0.025104840254635767,-0.03340868380731976,-119.24220793672814,-55.96475865649774,13.322613734970494,-0.1489,-0.8627,-0.4692,0.11599999999999999
796358.0,505.05068700000004,1.0,-3.33,1.91,-9.22,26.87,-29.37,17.56,-2.5,-0.75,1.94,0.366559301776046,0.18037397260067056,-0.17225272065469532,-119.28754177396172,-55.912860196887344,13.2187858542384,-0.1501,-0.8629,-0.4688,0.1151
796393.0,505.16759,1.0,-3.24,1.73,-9.12,27.25,-29.37,16.37,-1.56,2.25,1.19,0.24254158319187924,0.05918629338562732,-0.02201066985212741,-119.33290625430892,-55.860974209079195,13.138038375794716,-0.1502,-0.8631,-0.4684,0.1144
796428.0,505.266388,1.0,-3.34,1.8,-9.01,27.25,-29.37,16.37,2.19,-1.06,0.56,0.2252187060408516,0.20563605232436635,0.03512553610831226,-119.37830144711693,-55.80910067345633,13.080365619179068,-0.1509,-0.8633,-0.46799999999999997,0.1139
796461.0,505.3283,1.0,-3.13,1.77,-9.43,26.5,-29.69,15.56,-1.88,0.94,0.37,0.3291585918917689,-0.12737513605685158,-0.27948554321467434,-119.35560000731121,-55.82206789104122,13.045763563399612,-0.1511,-0.8632,-0.4681,0.1136
796497.0,505.39907300000004,1.0,-3.26,1.63,-9.09,26.5,-29.0,17.19,-2.63,0.5,0.06,0.11330272956997267,0.020098713535995568,0.013828213957623348,-119.35560000731121,-55.82206789104122,13.011162702254634,-0.1516,-0.8632,-0.4681,0.1133
796532.0,505.49632199999996,1.0,-3.11,1.84,-9.34,26.5,-29.0,17.19,-1.06,-0.19,0.12,0.3724361587179975,-0.08456121348807666,-0.2007193200987043,-119.35560000731121,-55.82206789104122,12.965030073382625,-0.1521,-0.8632,-0.4681,0.1129
