,TIME,ELAPSED_SECONDS,PSTATE,acc_x,acc_y,acc_z,mag_x,mag_y,mag_z,gyr_x,gyr_y,gyr_z,lin_x,lin_y,lin_z,eul_x,eul_y,eul_z,qua_w,qua_x,qua_y,qua_z
0,1872128.0,1069.341445,1.0,8.86,3.12,3.79,-21.06,-6.0,-44.56,2.38,0.44,-3.06,0.3138761423754095,-0.7080577644481238,-0.29276760545885416,-49.833378319901584,37.301660334972226,-53.28215172783013,-0.7206,-0.4213,0.3198,-0.4484
1,1872128.0,1069.341445,1.0,8.86,3.12,3.79,-21.06,-6.0,-44.56,2.38,0.44,-3.06,0.3138761423754095,-0.7080577644481238,-0.29276760545885416,-49.833378319901584,37.301660334972226,-53.28215172783013,-0.7206,-0.4213,0.3198,-0.4484
2,1872164.0,1069.40061,1.0,8.68,2.84,3.71,-20.0,-5.56,-44.56,0.06,-4.19,-7.69,0.5006107674721882,-0.5626042954145924,-0.022132491553668032,-50.14946187500939,37.59204770944774,-53.05150365290267,-0.7191,-0.4238,0.3222,-0.4466
3,1872164.0,1069.40061,1.0,8.68,2.84,3.71,-20.0,-5.56,-44.56,0.06,-4.19,-7.69,0.5006107674721882,-0.5626042954145924,-0.022132491553668032,-50.14946187500939,37.59204770944774,-53.05150365290267,-0.7191,-0.4238,0.3222,-0.4466
4,1872199.0,1069.466978,1.0,8.17,2.65,4.14,-20.25,-6.0,-43.75,-1.56,-6.56,-7.13,0.4512247614197864,0.0959378865620919,0.2830901541963477,-50.30132682508742,37.71311628724267,-52.78270669863224,-0.7192,-0.425,0.3232,-0.4445
5,1872199.0,1069.466978,1.0,8.17,2.65,4.14,-20.25,-6.0,-43.75,-1.56,-6.56,-7.13,0.4512247614197864,0.0959378865620919,0.2830901541963477,-50.30132682508742,37.71311628724267,-52.78270669863224,-0.7192,-0.425,0.3232,-0.4445
6,1872232.0,1069.48345,1.0,7.69,2.5,4.21,-20.25,-6.0,-43.75,-6.25,-1.25,-5.5,0.4103443080036091,0.3916258153359625,0.7078343204925002,-50.35196946524382,37.81000260574194,-52.437569453805544,-0.7203,-0.4254,0.324,-0.4418
7,1872232.0,1069.48345,1.0,7.69,2.5,4.21,-20.25,-6.0,-43.75,-6.25,-1.25,-5.5,0.4103443080036091,0.3916258153359625,0.7078343204925002,-50.35196946524382,37.81000260574194,-52.437569453805544,-0.7203,-0.4254,0.324,-0.4418
8,1872267.0,1069.523488,1.0,7.97,2.91,3.85,-20.69,-5.56,-44.19,-9.75,5.38,1.63,0.17476359195574864,-0.16729893677386976,0.4925226252707358,-50.09886116048232,37.83422856646789,-52.37371140576522,-0.7217,-0.4234,0.3242,-0.4413
9,1872267.0,1069.523488,1.0,7.97,2.91,3.85,-20.69,-5.56,-44.19,-9.75,5.38,1.63,0.17476359195574864,-0.16729893677386976,0.4925226252707358,-50.09886116048232,37.83422856646789,-52.37371140576522,-0.7217,-0.4234,0.3242,-0.4413
10,1872304.0,1069.587375,1.0,7.88,3.62,4.3,-21.5,-6.0,-45.06,-8.25,3.63,5.25,-0.5930989603572374,0.03344017686919365,0.14559853663463151,-49.65654846766405,37.943267133561115,-52.47589269472505,-0.7228,-0.4199,0.3251,-0.4421
11,1872304.0,1069.587375,1.0,7.88,3.62,4.3,-21.5,-6.0,-45.06,-8.25,3.63,5.25,-0.5930989603572374,0.03344017686919365,0.14559853663463151,-49.65654846766405,37.943267133561115,-52.47589269472505,-0.7228,-0.4199,0.3251,-0.4421
12,1872338.0,1069.604192,1.0,7.9,3.75,4.43,-21.5,-6.0,-45.06,-5.56,6.06,3.69,-0.7403801469607929,0.07045565707241107,0.031974903692562506,-49.39154002007115,37.96750276694696,-52.578118912593965,-0.7234,-0.4178,0.3253,-0.4429
13,1872338.0,1069.604192,1.0,7.9,3.75,4.43,-21.5,-6.0,-45.06,-5.56,6.06,3.69,-0.7403801469607929,0.07045565707241107,0.031974903692562506,-49.39154002007115,37.96750276694696,-52.578118912593965,-0.7234,-0.4178,0.3253,-0.4429
14,1872373.0,1069.685357,1.0,8.05,3.97,4.22,-20.69,-5.25,-44.56,-0.5,6.44,3.25,-0.8521332395281545,-0.27708466232725826,-0.07104674731889382,-49.21502427217554,37.77366695276425,-52.70596508072085,-0.7244,-0.4164,0.3237,-0.4439
15,1872373.0,1069.685357,1.0,8.05,3.97,4.22,-20.69,-5.25,-44.56,-0.5,6.44,3.25,-0.8521332395281545,-0.27708466232725826,-0.07104674731889382,-49.21502427217554,37.77366695276425,-52.70596508072085,-0.7244,-0.4164,0.3237,-0.4439
16,1872408.0,1069.689866,1.0,8.23,3.71,4.2,-20.25,-5.25,-44.56,3.38,5.56,-2.44,-0.4755220505964117,-0.3005392173826893,-0.13420282851585694,-49.41676675386262,37.41052638436744,-52.64203317675828,-0.7252,-0.418,0.3207,-0.4434
17,1872408.0,1069.689866,1.0,8.23,3.71,4.2,-20.25,-5.25,-44.56,3.38,5.56,-2.44,-0.4755220505964117,-0.3005392173826893,-0.13420282851585694,-49.41676675386262,37.41052638436744,-52.64203317675828,-0.7252,-0.418,0.3207,-0.4434
18,1872443.0,1069.7516699999999,1.0,8.09,3.42,4.56,-20.25,-4.88,-44.19,5.81,-1.06,-4.06,-0.2508265031522672,0.1549780434339949,-0.08532492270222747,-49.618672793409424,37.168649209123814,-52.55255813835036,-0.7255,-0.4196,0.3187,-0.4427
19,1872443.0,1069.7516699999999,1.0,8.09,3.42,4.56,-20.25,-4.88,-44.19,5.81,-1.06,-4.06,-0.2508265031522672,0.1549780434339949,-0.08532492270222747,-49.618672793409424,37.168649209123814,-52.55255813835036,-0.7255,-0.4196,0.3187,-0.4427
20,1872478.0,1069.767666,1.0,7.67,3.14,4.85,-20.25,-4.88,-44.19,9.63,3.44,-0.12,-0.1663438365027563,0.6560804095000652,0.22787720676976694,-49.82074341761586,37.011521124582174,-52.61646535624809,-0.7249,-0.4212,0.3174,-0.4432
21,1872478.0,1069.767666,1.0,7.67,3.14,4.85,-20.25,-4.88,-44.19,9.63,3.44,-0.12,-0.1663438365027563,0.6560804095000652,0.22787720676976694,-49.82074341761586,37.011521124582174,-52.61646535624809,-0.7249,-0.4212,0.3174,-0.4432
22,1872515.0,1069.806398,1.0,8.96,3.11,3.83,-20.0,-5.56,-45.19,10.06,15.19,4.56,0.4959366180720506,-0.781786304980282,-0.3798831219311598,-49.883924403527324,36.504367169981776,-53.077119755232744,-0.7241,-0.4217,0.3132,-0.4468
23,1872515.0,1069.806398,1.0,8.96,3.11,3.83,-20.0,-5.56,-45.19,10.06,15.19,4.56,0.4959366180720506,-0.781786304980282,-0.3798831219311598,-49.883924403527324,36.504367169981776,-53.077119755232744,-0.7241,-0.4217,0.3132,-0.4468
24,1872549.0,1069.861666,1.0,9.41,2.85,3.71,-18.5,-5.56,-44.25,9.44,7.63,0.31,0.94056515170989,-1.0362831453003665,-0.6085386415059872,-49.934480858485706,36.16667598822457,-53.38473671711782,-0.7238,-0.4221,0.3104,-0.4492
25,1872549.0,1069.861666,1.0,9.41,2.85,3.71,-18.5,-5.56,-44.25,9.44,7.63,0.31,0.94056515170989,-1.0362831453003665,-0.6085386415059872,-49.934480858485706,36.16667598822457,-53.38473671711782,-0.7238,-0.4221,0.3104,-0.4492
26,1872584.0,1069.877779,1.0,8.99,2.69,3.72,-18.5,-5.56,-44.25,3.63,-6.63,-2.94,0.9404414079365064,-0.8004451875480758,-0.21180584209310996,-50.17476615256415,36.07025258875129,-53.35908614472047,-0.7231,-0.424,0.3096,-0.449
27,1872584.0,1069.877779,1.0,8.99,2.69,3.72,-18.5,-5.56,-44.25,3.63,-6.63,-2.94,0.9404414079365064,-0.8004451875480758,-0.21180584209310996,-50.17476615256415,36.07025258875129,-53.35908614472047,-0.7231,-0.424,0.3096,-0.449
28,1872619.0,1069.88069,1.0,8.24,2.38,4.28,-18.5,-6.0,-45.5,4.0,-6.31,-1.25,0.8886147808481895,0.11160737860631542,0.26315443682721096,-50.42795316020507,36.17873077462121,-53.23087651093563,-0.7221,-0.426,0.3105,-0.44799999999999995
29,1872619.0,1069.88069,1.0,8.24,2.38,4.28,-18.5,-6.0,-45.5,4.0,-6.31,-1.25,0.8886147808481895,0.11160737860631542,0.26315443682721096,-50.42795316020507,36.17873077462121,-53.23087651093563,-0.7221,-0.426,0.3105,-0.44799999999999995
30,1872656.0,1069.91681,1.0,8.28,2.62,4.0,-18.75,-6.75,-44.69,-2.0,0.81,7.31,0.6854178121403858,-0.2143537281116259,0.2721308772521027,-50.36463176877203,36.23901092380315,-53.320615694584525,-0.7217,-0.4255,0.311,-0.4487
31,1872656.0,1069.91681,1.0,8.28,2.62,4.0,-18.75,-6.75,-44.69,-2.0,0.81,7.31,0.6854178121403858,-0.2143537281116259,0.2721308772521027,-50.36463176877203,36.23901092380315,-53.320615694584525,-0.7217,-0.4255,0.311,-0.4487
32,1872691.0,1069.988062,1.0,8.3,3.4,4.15,-18.75,-6.75,-44.69,-4.19,-2.31,10.13,-0.08305920649503172,-0.2773394627056167,-0.07204849679817649,-50.187419272308674,36.45610555039494,-53.500200054022216,-0.7209,-0.4241,0.3128,-0.4501
33,1872691.0,1069.988062,1.0,8.3,3.4,4.15,-18.75,-6.75,-44.69,-4.19,-2.31,10.13,-0.08305920649503172,-0.2773394627056167,-0.07204849679817649,-50.187419272308674,36.45610555039494,-53.500200054022216,-0.7209,-0.4241,0.3128,-0.4501
34,1872723.0,1070.06144,1.0,7.86,3.73,4.64,-18.75,-6.75,-45.19,-3.19,-5.13,3.25,-0.6474843833108528,0.2673866377176315,-0.0285606413303956,-50.086212613815825,36.769926221818416,-53.55153591306849,-0.72,-0.4233,0.3154,-0.4505
35,1872723.0,1070.06144,1.0,7.86,3.73,4.64,-18.75,-6.75,-45.19,-3.19,-5.13,3.25,-0.6474843833108528,0.2673866377176315,-0.0285606413303956,-50.086212613815825,36.769926221818416,-53.55153591306849,-0.72,-0.4233,0.3154,-0.4505
36,1872760.0,1070.069176,1.0,8.37,3.74,4.48,-19.56,-6.0,-45.19,-0.56,0.63,-0.63,-0.4463723197700331,-0.07123073648104117,-0.3870038068704087,-50.073564719425185,36.80615463747225,-53.525866533741606,-0.7201,-0.4232,0.3157,-0.4503
37,1872760.0,1070.069176,1.0,8.37,3.74,4.48,-19.56,-6.0,-45.19,-0.56,0.63,-0.63,-0.4463723197700331,-0.07123073648104117,-0.3870038068704087,-50.073564719425185,36.80615463747225,-53.525866533741606,-0.7201,-0.4232,0.3157,-0.4503
38,1872795.0,1070.072514,1.0,9.58,4.8,4.39,-18.75,-5.56,-46.0,4.88,1.75,3.0,-0.9329725534745372,-0.8730158128641783,-1.7022989357174743,-50.060917477055426,36.73370161256758,-53.61572206207956,-0.7199,-0.4231,0.3151,-0.451
39,1872795.0,1070.072514,1.0,9.58,4.8,4.39,-18.75,-5.56,-46.0,4.88,1.75,3.0,-0.9329725534745372,-0.8730158128641783,-1.7022989357174743,-50.060917477055426,36.73370161256758,-53.61572206207956,-0.7199,-0.4231,0.3151,-0.451
40,1872830.0,1070.1234980000002,1.0,12.3,5.39,2.49,-18.75,-5.56,-46.0,16.37,13.94,6.88,-0.2849689711767218,-3.783834423736296,-3.3137002140459138,-50.22538255847991,36.27518399341682,-54.18134776958782,-0.7181,-0.4244,0.3113,-0.4554
41,1872830.0,1070.1234980000002,1.0,12.3,5.39,2.49,-18.75,-5.56,-46.0,16.37,13.94,6.88,-0.2849689711767218,-3.783834423736296,-3.3137002140459138,-50.22538255847991,36.27518399341682,-54.18134776958782,-0.7181,-0.4244,0.3113,-0.4554
42,1872867.0,1070.167625,1.0,14.0,5.6,0.95,-20.25,-5.25,-44.25,12.81,-12.44,-9.06,0.3260398141940817,-5.836166268989134,-4.125161128502773,-50.59266598447474,35.973855599658116,-54.219965017577714,-0.7172,-0.4273,0.3088,-0.4557
43,1872867.0,1070.167625,1.0,14.0,5.6,0.95,-20.25,-5.25,-44.25,12.81,-12.44,-9.06,0.3260398141940817,-5.836166268989134,-4.125161128502773,-50.59266598447474,35.973855599658116,-54.219965017577714,-0.7172,-0.4273,0.3088,-0.4557
44,1872904.0,1070.183731,1.0,13.26,5.65,3.27,-20.25,-6.75,-46.0,36.56,-76.25,-8.94,-0.07678846668432149,-2.7889641801074228,-4.707439097613465,-52.91066611549383,37.084032798280944,-53.166798651819754,-0.7072,-0.4455,0.318,-0.4475
45,1872904.0,1070.183731,1.0,13.26,5.65,3.27,-20.25,-6.75,-46.0,36.56,-76.25,-8.94,-0.07678846668432149,-2.7889641801074228,-4.707439097613465,-52.91066611549383,37.084032798280944,-53.166798651819754,-0.7072,-0.4455,0.318,-0.4475
46,1872936.0,1070.186517,1.0,14.1,5.62,3.19,-20.25,-6.75,-46.0,58.81,-82.31,20.37,0.19627777006410385,-2.3616878453926,-5.521572517888481,-55.40750082753502,38.28272700926836,-52.78270669863224,-0.6919,-0.4649,0.3279,-0.4445
47,1872936.0,1070.186517,1.0,14.1,5.62,3.19,-20.25,-6.75,-46.0,58.81,-82.31,20.37,0.19627777006410385,-2.3616878453926,-5.521572517888481,-55.40750082753502,38.28272700926836,-52.78270669863224,-0.6919,-0.4649,0.3279,-0.4445
48,1872971.0,1070.224649,1.0,15.37,7.39,3.63,-24.37,-8.56,-45.19,66.81,-93.06,59.81,-1.5289361525988578,-1.3731904009294054,-7.508158759096114,-58.36591646165882,40.595644110417574,-53.436046525616895,-0.6631,-0.4876,0.3469,-0.4496
49,1872971.0,1070.224649,1.0,15.37,7.39,3.63,-24.37,-8.56,-45.19,66.81,-93.06,59.81,-1.5289361525988578,-1.3731904009294054,-7.508158759096114,-58.36591646165882,40.595644110417574,-53.436046525616895,-0.6631,-0.4876,0.3469,-0.4496
50,1873008.0,1070.279402,1.0,16.0,5.98,2.45,-31.06,-10.88,-44.69,101.94,-115.87,72.31,-0.5686163448786079,-1.3196860558099075,-7.389221718713123,-61.23442867267935,42.58140028916194,-54.45180871588593,-0.6321,-0.5093,0.3631,-0.4575
51,1873008.0,1070.279402,1.0,16.0,5.98,2.45,-31.06,-10.88,-44.69,101.94,-115.87,72.31,-0.5686163448786079,-1.3196860558099075,-7.389221718713123,-61.23442867267935,42.58140028916194,-54.45180871588593,-0.6321,-0.5093,0.3631,-0.4575
52,1873045.0,1070.289731,1.0,13.75,5.91,2.9,-41.5,-14.56,-39.56,84.94,-183.19,30.87,-1.6224254750767404,1.4819481109313282,-5.2788451981805755,-66.2407734880853,45.93388911170107,-53.82124003233572,-0.5869,-0.5464,0.3902,-0.4526
53,1873045.0,1070.289731,1.0,13.75,5.91,2.9,-41.5,-14.56,-39.56,84.94,-183.19,30.87,-1.6224254750767404,1.4819481109313282,-5.2788451981805755,-66.2407734880853,45.93388911170107,-53.82124003233572,-0.5869,-0.5464,0.3902,-0.4526
54,1873080.0,1070.303656,1.0,12.04,3.98,3.77,-41.5,-14.56,-39.56,90.62,-216.19,-23.56,0.040968978134126484,4.451936191076732,-2.6510177469505454,-73.18217678230073,48.93789354543228,-49.833378319901584,-0.5436,-0.5961,0.4142,-0.4213
55,1873080.0,1070.303656,1.0,12.04,3.98,3.77,-41.5,-14.56,-39.56,90.62,-216.19,-23.56,0.040968978134126484,4.451936191076732,-2.6510177469505454,-73.18217678230073,48.93789354543228,-49.833378319901584,-0.5436,-0.5961,0.4142,-0.4213
56,1873117.0,1070.3065119999999,1.0,10.9,2.39,0.34,-51.75,-18.5,-26.25,70.25,-169.69,-67.62,1.415697017501814,1.9662985855313209,-1.0913852278368967,-78.27742390598648,50.0103350226896,-46.23275206665912,-0.5184,-0.6312,0.4227,-0.3926
57,1873117.0,1070.3065119999999,1.0,10.9,2.39,0.34,-51.75,-18.5,-26.25,70.25,-169.69,-67.62,1.415697017501814,1.9662985855313209,-1.0913852278368967,-78.27742390598648,50.0103350226896,-46.23275206665912,-0.5184,-0.6312,0.4227,-0.3926
58,1873154.0,1070.346226,1.0,10.17,2.29,-0.76,-51.06,-29.25,-5.06,76.0,-217.44,-42.63,1.7098537349484269,2.1249647560874965,-0.2835197205978126,-84.98598023915876,51.2272254279677,-41.072508978695026,-0.4836,-0.6755,0.4323,-0.3508
59,1873154.0,1070.346226,1.0,10.17,2.29,-0.76,-51.06,-29.25,-5.06,76.0,-217.44,-42.63,1.7098537349484269,2.1249647560874965,-0.2835197205978126,-84.98598023915876,51.2272254279677,-41.072508978695026,-0.4836,-0.6755,0.4323,-0.3508
60,1873188.0,1070.365987,1.0,7.5,4.99,0.36,-51.06,-29.25,-5.06,99.37,-272.19,15.69,-1.6577594867076957,4.089367787741672,1.944805141392612,-90.22600378836046,54.014083172384005,-36.75785092937251,-0.4387,-0.7085,0.4541,-0.3153
61,1873188.0,1070.365987,1.0,7.5,4.99,0.36,-51.06,-29.25,-5.06,99.37,-272.19,15.69,-1.6577594867076957,4.089367787741672,1.944805141392612,-90.22600378836046,54.014083172384005,-36.75785092937251,-0.4387,-0.7085,0.4541,-0.3153
62,1873221.0,1070.417778,1.0,8.76,6.3,-3.31,-38.75,-28.75,11.88,99.06,-244.56,2.13,-2.4851779223647648,3.4513066275863347,-0.6478262306186071,-96.54176184653713,57.436125785536824,-31.24523405697452,-0.3735,-0.7463,0.4805,-0.2693
63,1873221.0,1070.417778,1.0,8.76,6.3,-3.31,-38.75,-28.75,11.88,99.06,-244.56,2.13,-2.4851779223647648,3.4513066275863347,-0.6478262306186071,-96.54176184653713,57.436125785536824,-31.24523405697452,-0.3735,-0.7463,0.4805,-0.2693
64,1873258.0,1070.467174,1.0,5.86,3.31,-1.79,-21.87,-29.19,11.69,101.87,-292.81,-63.94,-0.5683895406430881,3.3771048600701583,3.7426664830222323,-102.4479327130834,58.510344216731006,-25.65305965168436,-0.3226,-0.7796,0.4887,-0.222
65,1873258.0,1070.467174,1.0,5.86,3.31,-1.79,-21.87,-29.19,11.69,101.87,-292.81,-63.94,-0.5683895406430881,3.3771048600701583,3.7426664830222323,-102.4479327130834,58.510344216731006,-25.65305965168436,-0.3226,-0.7796,0.4887,-0.222
66,1873295.0,1070.5151210000001,1.0,5.06,2.67,-5.45,-18.69,-25.19,8.56,71.87,-290.0,-68.0,0.05322696442991093,1.564087541002333,2.0616001580468275,-109.5910749517882,58.93107948112415,-17.508882729880764,-0.2591,-0.8171,0.4919,-0.1522
67,1873295.0,1070.5151210000001,1.0,5.06,2.67,-5.45,-18.69,-25.19,8.56,71.87,-290.0,-68.0,0.05322696442991093,1.564087541002333,2.0616001580468275,-109.5910749517882,58.93107948112415,-17.508882729880764,-0.2591,-0.8171,0.4919,-0.1522
68,1873330.0,1070.589197,1.0,3.6,2.13,-5.25,-18.69,-25.19,8.56,56.88,-275.06,-65.37,0.2986226115232528,1.658631814946509,3.309022353055747,-115.0871856928756,59.04956837226242,-8.970218312913039,-0.1974,-0.8438,0.4928,-0.0782
69,1873330.0,1070.589197,1.0,3.6,2.13,-5.25,-18.69,-25.19,8.56,56.88,-275.06,-65.37,0.2986226115232528,1.658631814946509,3.309022353055747,-115.0871856928756,59.04956837226242,-8.970218312913039,-0.1974,-0.8438,0.4928,-0.0782
70,1873367.0,1070.5929,1.0,1.39,0.87,-5.54,-21.5,-23.75,12.06,49.44,-281.31,-69.81,0.6170749228567913,0.028808493903893007,4.062175384314047,-118.18551847027427,58.74690084345127,-2.2575997541901875,-0.1512,-0.858,0.4905,-0.0197
71,1873367.0,1070.5929,1.0,1.39,0.87,-5.54,-21.5,-23.75,12.06,49.44,-281.31,-69.81,0.6170749228567913,0.028808493903893007,4.062175384314047,-118.18551847027427,58.74690084345127,-2.2575997541901875,-0.1512,-0.858,0.4905,-0.0197
72,1873403.0,1070.663443,1.0,0.62,-0.86,-6.56,-21.06,-24.56,18.0,4.69,-245.31,-52.44,2.3109983934487044,-0.7332490004905292,3.6196287192254495,-120.38490958888936,57.802305908948476,6.271288310584378,-0.1025,-0.8677,0.4833,0.0547
73,1873403.0,1070.663443,1.0,0.62,-0.86,-6.56,-21.06,-24.56,18.0,4.69,-245.31,-52.44,2.3109983934487044,-0.7332490004905292,3.6196287192254495,-120.38490958888936,57.802305908948476,6.271288310584378,-0.1025,-0.8677,0.4833,0.0547
74,1873438.0,1070.6736230000001,1.0,-2.98,-0.5,-5.3,-21.06,-24.56,18.0,5.81,-211.69,-32.75,0.20292957353535024,-2.9337134987835984,4.461320758948551,-120.45410373713348,57.33162075280612,12.03128766143814,-0.0733,-0.868,0.4797,0.1048
75,1873438.0,1070.6736230000001,1.0,-2.98,-0.5,-5.3,-21.06,-24.56,18.0,5.81,-211.69,-32.75,0.20292957353535024,-2.9337134987835984,4.461320758948551,-120.45410373713348,57.33162075280612,12.03128766143814,-0.0733,-0.868,0.4797,0.1048
76,1873473.0,1070.711191,1.0,-3.27,0.64,-6.35,-16.0,-24.87,24.19,-7.31,-135.81,-17.19,-0.19275364801514672,-1.9989306340920647,2.922456339790756,-119.67412364784863,56.92715416608731,17.49728858817925,-0.0477,-0.8646,0.4766,0.1521
77,1873473.0,1070.711191,1.0,-3.27,0.64,-6.35,-16.0,-24.87,24.19,-7.31,-135.81,-17.19,-0.19275364801514672,-1.9989306340920647,2.922456339790756,-119.67412364784863,56.92715416608731,17.49728858817925,-0.0477,-0.8646,0.4766,0.1521
78,1873508.0,1070.715287,1.0,-4.29,2.46,-5.45,-11.56,-25.0,26.56,5.94,-117.19,-18.12,-2.207234713214203,-1.5773112820487034,2.9657140961704584,-118.92572331092975,56.60153456365382,20.73951961095484,-0.0323,-0.8613,0.4741,0.18
79,1873508.0,1070.715287,1.0,-4.29,2.46,-5.45,-11.56,-25.0,26.56,5.94,-117.19,-18.12,-2.207234713214203,-1.5773112820487034,2.9657140961704584,-118.92572331092975,56.60153456365382,20.73951961095484,-0.0323,-0.8613,0.4741,0.18
80,1873545.0,1070.731666,1.0,-3.56,1.31,-6.02,-7.5,-25.5,28.5,36.69,-69.94,-32.5,-0.6342099543301906,-1.115014934049174,2.8077486983187288,-118.63316578204837,55.97773522242152,23.109005518751957,-0.009000000000000001,-0.86,0.4693,0.2003
81,1873545.0,1070.731666,1.0,-3.56,1.31,-6.02,-7.5,-25.5,28.5,36.69,-69.94,-32.5,-0.6342099543301906,-1.115014934049174,2.8077486983187288,-118.63316578204837,55.97773522242152,23.109005518751957,-0.009000000000000001,-0.86,0.4693,0.2003
82,1873580.0,1070.81369,1.0,-3.33,-1.14,-7.01,-7.5,-25.5,28.5,27.25,-45.31,-39.69,1.7526888796621405,-1.804058203712193,2.3768414096844053,-119.21955248767715,54.800027778247525,24.22126399043484,0.0106,-0.8626,0.4602,0.2098
83,1873580.0,1070.81369,1.0,-3.33,-1.14,-7.01,-7.5,-25.5,28.5,27.25,-45.31,-39.69,1.7526888796621405,-1.804058203712193,2.3768414096844053,-119.21955248767715,54.800027778247525,24.22126399043484,0.0106,-0.8626,0.4602,0.2098
84,1873616.0,1070.874093,1.0,-2.43,-0.57,-7.68,-5.56,-24.56,31.0,16.31,-34.63,-2.63,1.9915781108357629,-0.4684672366227352,1.9947132954016509,-119.19690467351394,54.45180871588593,24.88972570037191,0.0186,-0.8625,0.4575,0.2155
85,1873616.0,1070.874093,1.0,-2.43,-0.57,-7.68,-5.56,-24.56,31.0,16.31,-34.63,-2.63,1.9915781108357629,-0.4684672366227352,1.9947132954016509,-119.19690467351394,54.45180871588593,24.88972570037191,0.0186,-0.8625,0.4575,0.2155
86,1873653.0,1070.9293089999999,1.0,-2.41,-0.37,-7.85,-4.19,-24.0,30.69,35.06,-27.56,9.0,1.8809336579737068,-0.07867503477629001,1.8051877078183625,-118.36422556879907,55.01955829122679,25.34758912480893,0.0312,-0.8588,0.4619,0.2194
87,1873653.0,1070.9293089999999,1.0,-2.41,-0.37,-7.85,-4.19,-24.0,30.69,35.06,-27.56,9.0,1.8809336579737068,-0.07867503477629001,1.8051877078183625,-118.36422556879907,55.01955829122679,25.34758912480893,0.0312,-0.8588,0.4619,0.2194
88,1873686.0,1070.932803,1.0,-2.63,0.06,-7.61,-4.19,-24.0,30.69,10.44,-12.19,10.13,1.3434244118618317,0.01369741201994018,1.867656157546308,-117.87389590745228,55.38161658816516,25.547298987438325,0.0359,-0.8566,0.4647,0.2211
89,1873686.0,1070.932803,1.0,-2.63,0.06,-7.61,-4.19,-24.0,30.69,10.44,-12.19,10.13,1.3434244118618317,0.01369741201994018,1.867656157546308,-117.87389590745228,55.38161658816516,25.547298987438325,0.0359,-0.8566,0.4647,0.2211
90,1873721.0,1070.9779130000002,1.0,-2.73,0.0,-7.17,-4.06,-23.5,32.5,10.13,-12.56,15.88,1.198477427131427,-0.15309668861340275,2.2302383651564943,-117.18882847106602,56.00369069764568,25.71182517460623,0.0399,-0.8535,0.4695,0.2225
91,1873721.0,1070.9779130000002,1.0,-2.73,0.0,-7.17,-4.06,-23.5,32.5,10.13,-12.56,15.88,1.198477427131427,-0.15309668861340275,2.2302383651564943,-117.18882847106602,56.00369069764568,25.71182517460623,0.0399,-0.8535,0.4695,0.2225
92,1873758.0,1071.038041,1.0,-2.61,0.67,-7.65,-3.56,-22.56,33.06,13.38,16.69,16.25,0.8213094534043597,0.4272642008759559,1.7489582657377325,-116.83785829536993,56.57550655085348,25.32409900412527,0.0408,-0.8519,0.4739,0.2192
93,1873758.0,1071.038041,1.0,-2.61,0.67,-7.65,-3.56,-22.56,33.06,13.38,16.69,16.25,0.8213094534043597,0.4272642008759559,1.7489582657377325,-116.83785829536993,56.57550655085348,25.32409900412527,0.0408,-0.8519,0.4739,0.2192
94,1873795.0,1071.041857,1.0,-2.63,0.39,-9.02,-4.25,-22.19,32.5,3.75,22.81,-2.0,1.3802968169034795,0.5372552174943579,0.5203408554301738,-116.96926663704076,56.940189367000634,24.350199497398,0.0394,-0.8525,0.4767,0.2109
95,1873795.0,1071.041857,1.0,-2.63,0.39,-9.02,-4.25,-22.19,32.5,3.75,22.81,-2.0,1.3802968169034795,0.5372552174943579,0.5203408554301738,-116.96926663704076,56.940189367000634,24.350199497398,0.0394,-0.8525,0.4767,0.2109
96,1873827.0,1071.059313,1.0,-2.92,-0.01,-8.54,-4.25,-22.19,32.5,-18.37,11.5,5.81,1.4352681464445085,-0.13564271859805227,0.8971210337362336,-117.14486104081259,56.91411976899951,24.127512270969643,0.0344,-0.8533,0.4765,0.209
97,1873827.0,1071.059313,1.0,-2.92,-0.01,-8.54,-4.25,-22.19,32.5,-18.37,11.5,5.81,1.4352681464445085,-0.13564271859805227,0.8971210337362336,-117.14486104081259,56.91411976899951,24.127512270969643,0.0344,-0.8533,0.4765,0.209
98,1873864.0,1071.186829,1.0,-3.42,1.21,-8.05,-4.56,-22.19,31.56,19.87,19.37,13.63,-0.007504566547041402,-0.08953856638206759,0.9774412853636091,-116.90353178561007,57.46226020036727,23.565343649892732,0.032,-0.8522,0.4807,0.2042
99,1873864.0,1071.186829,1.0,-3.42,1.21,-8.05,-4.56,-22.19,31.56,19.87,19.37,13.63,-0.007504566547041402,-0.08953856638206759,0.9774412853636091,-116.90353178561007,57.46226020036727,23.565343649892732,0.032,-0.8522,0.4807,0.2042
100,1873901.0,1071.190781,1.0,-3.87,-0.16,-7.99,-4.19,-21.5,30.25,11.56,43.81,3.13,0.7728928339219044,-1.2942607420608545,1.0562142509168575,-117.07896160834984,57.78921694693311,22.44271531767953,0.0316,-0.853,0.4832,0.1946
101,1873901.0,1071.190781,1.0,-3.87,-0.16,-7.99,-4.19,-21.5,30.25,11.56,43.81,3.13,0.7728928339219044,-1.2942607420608545,1.0562142509168575,-117.07896160834984,57.78921694693311,22.44271531767953,0.0316,-0.853,0.4832,0.1946
102,1873934.0,1071.211581,1.0,-3.08,-0.1,-8.67,-4.19,-21.5,30.25,-0.56,64.87,16.37,1.0955394303269357,-0.7809326127170668,0.7041647563429763,-117.63003319551184,58.16913315906611,20.378490735265764,0.0215,-0.8555,0.4861,0.1769
103,1873934.0,1071.211581,1.0,-3.08,-0.1,-8.67,-4.19,-21.5,30.25,-0.56,64.87,16.37,1.0955394303269357,-0.7809326127170668,0.7041647563429763,-117.63003319551184,58.16913315906611,20.378490735265764,0.0215,-0.8555,0.4861,0.1769
104,1873969.0,1071.241256,1.0,-2.55,1.87,-9.83,-6.0,-22.56,30.75,4.38,23.0,28.25,-0.09047076567571084,0.708987373110597,-0.4946825325089765,-117.07896160834984,59.20766160334654,19.284990927591146,0.0156,-0.853,0.494,0.1675
105,1873969.0,1071.241256,1.0,-2.55,1.87,-9.83,-6.0,-22.56,30.75,4.38,23.0,28.25,-0.09047076567571084,0.708987373110597,-0.4946825325089765,-117.07896160834984,59.20766160334654,19.284990927591146,0.0156,-0.853,0.494,0.1675
106,1874006.0,1071.25686,1.0,-2.8,2.06,-9.73,-6.38,-21.87,31.19,-9.94,10.44,5.31,-0.40234860609599105,0.4825290116035217,-0.5065348306977207,-116.92543657528313,59.497821729807775,18.982850632783478,0.0122,-0.8523,0.4962,0.1649
107,1874006.0,1071.25686,1.0,-2.8,2.06,-9.73,-6.38,-21.87,31.19,-9.94,10.44,5.31,-0.40234860609599105,0.4825290116035217,-0.5065348306977207,-116.92543657528313,59.497821729807775,18.982850632783478,0.0122,-0.8523,0.4962,0.1649
108,1874042.0,1071.311684,1.0,-3.22,1.21,-9.04,-6.38,-21.87,31.19,-0.88,15.56,-3.44,-0.0866414710774038,-0.5083195399018658,0.1480680905868219,-117.166841303543,59.40545261479044,18.599556301853195,0.0092,-0.8534,0.4955,0.1616
109,1874042.0,1071.311684,1.0,-3.22,1.21,-9.04,-6.38,-21.87,31.19,-0.88,15.56,-3.44,-0.0866414710774038,-0.5083195399018658,0.1480680905868219,-117.166841303543,59.40545261479044,18.599556301853195,0.0092,-0.8534,0.4955,0.1616
110,1874077.0,1071.3232560000001,1.0,-2.82,1.32,-9.6,-8.19,-21.87,30.25,-3.06,11.38,6.69,0.12300695153850275,-0.0883654113856086,-0.2845273764979411,-117.14486104081259,59.56382572725951,18.251289114029838,0.006999999999999999,-0.8533,0.4967,0.1586
111,1874077.0,1071.3232560000001,1.0,-2.82,1.32,-9.6,-8.19,-21.87,30.25,-3.06,11.38,6.69,0.12300695153850275,-0.0883654113856086,-0.2845273764979411,-117.14486104081259,59.56382572725951,18.251289114029838,0.006999999999999999,-0.8533,0.4967,0.1586
112,1874112.0,1071.3357529999998,1.0,-2.08,1.22,-10.39,-7.88,-21.87,30.25,-2.75,-0.44,0.94,0.7637730241878159,0.5909679137327655,-0.8156994431534006,-117.10092120050626,59.616644593421185,18.216471799125177,0.0056,-0.8531,0.4971,0.1583
113,1874112.0,1071.3357529999998,1.0,-2.08,1.22,-10.39,-7.88,-21.87,30.25,-2.75,-0.44,0.94,0.7637730241878159,0.5909679137327655,-0.8156994431534006,-117.10092120050626,59.616644593421185,18.216471799125177,0.0056,-0.8531,0.4971,0.1583
114,1874147.0,1071.377183,1.0,-2.57,0.97,-9.96,-8.56,-21.5,29.5,-3.31,-0.31,-5.25,0.6616446262385194,-0.011889256241024104,-0.5039991082839084,-117.14486104081259,59.52422071985297,18.35575126897081,0.0054,-0.8533,0.4964,0.1595
115,1874147.0,1071.377183,1.0,-2.57,0.97,-9.96,-8.56,-21.5,29.5,-3.31,-0.31,-5.25,0.6616446262385194,-0.011889256241024104,-0.5039991082839084,-117.14486104081259,59.52422071985297,18.35575126897081,0.0054,-0.8533,0.4964,0.1595
116,1874182.0,1071.394246,1.0,-3.36,0.71,-9.04,-8.56,-21.5,29.5,-9.13,0.06,-5.44,0.3075739106119099,-0.9868200440927796,0.191719709556514,-117.3429325945059,59.2603868777191,18.483448143006754,0.0032,-0.8542,0.4944,0.1606
117,1874182.0,1071.394246,1.0,-3.36,0.71,-9.04,-8.56,-21.5,29.5,-9.13,0.06,-5.44,0.3075739106119099,-0.9868200440927796,0.191719709556514,-117.3429325945059,59.2603868777191,18.483448143006754,0.0032,-0.8542,0.4944,0.1606
118,1874216.0,1071.455143,1.0,-3.52,1.22,-9.55,-9.0,-22.19,29.19,-9.69,3.81,-0.63,-0.03441488262070025,-0.8238838759442958,-0.4110469506250887,-117.45321573278471,59.16812669186737,18.483448143006754,0.0004,-0.8547,0.4937,0.1606
119,1874216.0,1071.455143,1.0,-3.52,1.22,-9.55,-9.0,-22.19,29.19,-9.69,3.81,-0.63,-0.03441488262070025,-0.8238838759442958,-0.4110469506250887,-117.45321573278471,59.16812669186737,18.483448143006754,0.0004,-0.8547,0.4937,0.1606
120,1874253.0,1071.546384,1.0,-3.75,1.6,-9.0,-9.0,-21.5,28.69,-13.06,-2.88,-4.44,-0.539262167390789,-0.9202391422682918,-0.016020524651548133,-117.47529333345742,59.02323151633205,18.83183055191492,-0.0022,-0.8548,0.4926,0.1636
121,1874253.0,1071.546384,1.0,-3.75,1.6,-9.0,-9.0,-21.5,28.69,-13.06,-2.88,-4.44,-0.539262167390789,-0.9202391422682918,-0.016020524651548133,-117.47529333345742,59.02323151633205,18.83183055191492,-0.0022,-0.8548,0.4926,0.1636
122,1874288.0,1071.551403,1.0,-3.18,1.54,-9.41,-9.0,-21.5,28.69,-15.81,-6.69,-2.5,-0.042714628252947084,-0.4151348227207201,-0.2361553122371109,-117.54156821615564,58.81265977015818,19.145524872704485,-0.0046,-0.8551,0.491,0.1663
123,1874288.0,1071.551403,1.0,-3.18,1.54,-9.41,-9.0,-21.5,28.69,-15.81,-6.69,-2.5,-0.042714628252947084,-0.4151348227207201,-0.2361553122371109,-117.54156821615564,58.81265977015818,19.145524872704485,-0.0046,-0.8551,0.491,0.1663
124,1874323.0,1071.61286,1.0,-3.04,2.38,-8.93,-7.5,-21.87,30.37,-7.31,0.31,-3.13,-0.764693394206917,0.05162038592992624,0.10801714022987953,-117.60790637777723,58.64173070844467,19.389609385924846,-0.0069,-0.8554,0.4897,0.1684
125,1874323.0,1071.61286,1.0,-3.04,2.38,-8.93,-7.5,-21.87,30.37,-7.31,0.31,-3.13,-0.764693394206917,0.05162038592992624,0.10801714022987953,-117.60790637777723,58.64173070844467,19.389609385924846,-0.0069,-0.8554,0.4897,0.1684
126,1874358.0,1071.633161,1.0,-2.58,2.21,-8.95,-8.19,-22.19,29.5,0.88,12.88,-7.25,-0.4302649289236995,0.32478449322994063,0.2488057282044185,-117.87389590745228,58.484077048449976,19.157145947707967,-0.0078,-0.8566,0.4885,0.1664
127,1874358.0,1071.633161,1.0,-2.58,2.21,-8.95,-8.19,-22.19,29.5,0.88,12.88,-7.25,-0.4302649289236995,0.32478449322994063,0.2488057282044185,-117.87389590745228,58.484077048449976,19.157145947707967,-0.0078,-0.8566,0.4885,0.1664
128,1874395.0,1071.6764150000001,1.0,-1.89,1.52,-10.34,-8.19,-23.37,29.5,-1.5,3.69,-11.63,0.8231125189712858,0.6912559992715748,-0.7594633310495881,-118.43136127193769,58.03804868729153,18.738911537329376,-0.0093,-0.8591,0.4851,0.1628
129,1874395.0,1071.6764150000001,1.0,-1.89,1.52,-10.34,-8.19,-23.37,29.5,-1.5,3.69,-11.63,0.8231125189712858,0.6912559992715748,-0.7594633310495881,-118.43136127193769,58.03804868729153,18.738911537329376,-0.0093,-0.8591,0.4851,0.1628
130,1874429.0,1071.6942060000001,1.0,-2.85,1.2,-8.91,-8.19,-23.37,29.5,5.13,1.06,-12.88,0.20258293335541727,-0.4567934816808394,0.3885344841334106,-118.7680354914018,57.69761729678852,18.75052573300884,-0.0081,-0.8606,0.4825,0.1629
131,1874429.0,1071.6942060000001,1.0,-2.85,1.2,-8.91,-8.19,-23.37,29.5,5.13,1.06,-12.88,0.20258293335541727,-0.4567934816808394,0.3885344841334106,-118.7680354914018,57.69761729678852,18.75052573300884,-0.0081,-0.8606,0.4825,0.1629
132,1874466.0,1071.6978980000001,1.0,-2.81,0.63,-9.14,-8.56,-23.0,29.5,4.81,10.13,-7.19,0.6830522148657283,-0.7057305696507641,0.27418001395611924,-119.19690467351394,57.39693028480898,18.344143604670897,-0.006999999999999999,-0.8625,0.4802,0.1594
133,1874466.0,1071.6978980000001,1.0,-2.81,0.63,-9.14,-8.56,-23.0,29.5,4.81,10.13,-7.19,0.6830522148657283,-0.7057305696507641,0.27418001395611924,-119.19690467351394,57.39693028480898,18.344143604670897,-0.006999999999999999,-0.8625,0.4802,0.1594
134,1874501.0,1071.747392,1.0,-2.61,0.39,-9.67,-8.19,-22.5,30.25,2.13,13.69,-7.13,1.0595816530647126,-0.6518324054579767,-0.1394799627384451,-119.60574054309872,57.148862161344155,17.868391355752113,-0.0081,-0.8643,0.4783,0.1553
135,1874501.0,1071.747392,1.0,-2.61,0.39,-9.67,-8.19,-22.5,30.25,2.13,13.69,-7.13,1.0595816530647126,-0.6518324054579767,-0.1394799627384451,-119.60574054309872,57.148862161344155,17.868391355752113,-0.0081,-0.8643,0.4783,0.1553
136,1874536.0,1071.759734,1.0,-2.62,0.85,-9.48,-8.19,-22.5,30.25,-1.37,9.88,-0.63,0.5961665776706886,-0.480502840544421,-0.035656763757017984,-119.74257704437856,57.09667459203971,17.613238149656624,-0.0095,-0.8649,0.4779,0.1531
137,1874536.0,1071.759734,1.0,-2.62,0.85,-9.48,-8.19,-22.5,30.25,-1.37,9.88,-0.63,0.5961665776706886,-0.480502840544421,-0.035656763757017984,-119.74257704437856,57.09667459203971,17.613238149656624,-0.0095,-0.8649,0.4779,0.1531
138,1874571.0,1071.842749,1.0,-2.75,0.64,-9.29,-8.56,-22.87,30.0,1.81,7.38,0.81,0.617234052145533,-0.7685118210753027,0.1472187690351312,-119.81110097439955,57.12276675948825,17.31180678552449,-0.0105,-0.8652,0.4781,0.1505
139,1874571.0,1071.842749,1.0,-2.75,0.64,-9.29,-8.56,-22.87,30.0,1.81,7.38,0.81,0.617234052145533,-0.7685118210753027,0.1472187690351312,-119.81110097439955,57.12276675948825,17.31180678552449,-0.0105,-0.8652,0.4781,0.1505
140,1874606.0,1071.848083,1.0,-2.26,1.15,-9.93,-8.56,-22.06,30.75,-0.31,10.94,3.13,0.5840229408626311,-0.05750708127484028,-0.4251929493493183,-119.81110097439955,57.24022157573342,17.02208275037734,-0.012,-0.8652,0.479,0.14800000000000002
141,1874606.0,1071.848083,1.0,-2.26,1.15,-9.93,-8.56,-22.06,30.75,-0.31,10.94,3.13,0.5840229408626311,-0.05750708127484028,-0.4251929493493183,-119.81110097439955,57.24022157573342,17.02208275037734,-0.012,-0.8652,0.479,0.14800000000000002
142,1874642.0,1071.89616,1.0,-2.52,1.48,-9.53,-8.56,-22.06,30.75,-4.31,-1.37,3.69,0.0798442624407481,-0.16811672737410532,-0.15964628596964306,-119.74257704437856,57.30550263837881,16.97573712493423,-0.0131,-0.8649,0.4795,0.1476
143,1874642.0,1071.89616,1.0,-2.52,1.48,-9.53,-8.56,-22.06,30.75,-4.31,-1.37,3.69,0.0798442624407481,-0.16811672737410532,-0.15964628596964306,-119.74257704437856,57.30550263837881,16.97573712493423,-0.0131,-0.8649,0.4795,0.1476
144,1874675.0,1071.9131519999999,1.0,-2.98,1.6,-8.79,-9.25,-21.37,30.0,0.88,-0.5,1.56,-0.4295537117213548,-0.56477411064649,0.4151105195585796,-119.60574054309872,57.436125785536824,17.09160645080068,-0.0128,-0.8643,0.4805,0.1486
145,1874675.0,1071.9131519999999,1.0,-2.98,1.6,-8.79,-9.25,-21.37,30.0,0.88,-0.5,1.56,-0.4295537117213548,-0.56477411064649,0.4151105195585796,-119.60574054309872,57.436125785536824,17.09160645080068,-0.0128,-0.8643,0.4805,0.1486
146,1874712.0,1071.915943,1.0,-2.61,1.47,-9.24,-9.0,-22.06,30.0,0.63,7.19,-1.37,-0.04490849246621492,-0.3002026530426307,0.09797029602322382,-119.69693362458544,57.39693028480898,16.871469682269606,-0.0135,-0.8647,0.4802,0.1467
147,1874712.0,1071.915943,1.0,-2.61,1.47,-9.24,-9.0,-22.06,30.0,0.63,7.19,-1.37,-0.04490849246621492,-0.3002026530426307,0.09797029602322382,-119.69693362458544,57.39693028480898,16.871469682269606,-0.0135,-0.8647,0.4802,0.1467
148,1874747.0,1071.948317,1.0,-2.06,1.37,-9.94,-8.56,-22.87,30.75,0.5,9.06,0.81,0.4667946150744893,0.14824033237945067,-0.4248810482446146,-119.81110097439955,57.35774212215939,16.616652750638245,-0.0145,-0.8652,0.4799,0.1445
149,1874747.0,1071.948317,1.0,-2.06,1.37,-9.94,-8.56,-22.87,30.75,0.5,9.06,0.81,0.4667946150744893,0.14824033237945067,-0.4248810482446146,-119.81110097439955,57.35774212215939,16.616652750638245,-0.0145,-0.8652,0.4799,0.1445
150,1874782.0,1071.9600480000001,1.0,-2.15,1.9,-9.85,-8.56,-22.87,30.75,-1.25,-4.56,0.75,-0.0266907427807028,0.3502326185679789,-0.4467213829715959,-119.76541050535587,57.38386674901364,16.686140017359815,-0.0147,-0.865,0.4801,0.1451
151,1874782.0,1071.9600480000001,1.0,-2.15,1.9,-9.85,-8.56,-22.87,30.75,-1.25,-4.56,0.75,-0.0266907427807028,0.3502326185679789,-0.4467213829715959,-119.76541050535587,57.38386674901364,16.686140017359815,-0.0147,-0.865,0.4801,0.1451
152,1874817.0,1072.062093,1.0,-2.42,1.23,-9.3,-9.25,-23.0,30.0,-0.81,3.25,-8.56,0.2412049760194977,-0.2940451120769804,0.12601687857622146,-119.97126580924143,57.17496080016431,16.674558377811383,-0.0146,-0.8659,0.4785,0.145
153,1874817.0,1072.062093,1.0,-2.42,1.23,-9.3,-9.25,-23.0,30.0,-0.81,3.25,-8.56,0.2412049760194977,-0.2940451120769804,0.12601687857622146,-119.97126580924143,57.17496080016431,16.674558377811383,-0.0146,-0.8659,0.4785,0.145
154,1874853.0,1072.066896,1.0,-2.31,1.13,-9.45,-9.0,-22.5,29.5,1.75,3.81,-5.75,0.393362586601385,-0.24952720525525346,0.024088880880947627,-120.24673960552259,56.92715416608731,16.524012627926176,-0.0147,-0.8671,0.4766,0.1437
155,1874853.0,1072.066896,1.0,-2.31,1.13,-9.45,-9.0,-22.5,29.5,1.75,3.81,-5.75,0.393362586601385,-0.24952720525525346,0.024088880880947627,-120.24673960552259,56.92715416608731,16.524012627926176,-0.0147,-0.8671,0.4766,0.1437
156,1874888.0,1072.076114,1.0,-2.43,0.84,-9.33,-9.0,-22.5,29.5,-1.69,7.75,-3.69,0.5201384388670393,-0.5411535386869697,0.1580226959748554,-120.43103091016366,56.7968463150502,16.373495591769153,-0.0153,-0.8679,0.4756,0.1424
157,1874888.0,1072.076114,1.0,-2.43,0.84,-9.33,-9.0,-22.5,29.5,-1.69,7.75,-3.69,0.5201384388670393,-0.5411535386869697,0.1580226959748554,-120.43103091016366,56.7968463150502,16.373495591769153,-0.0153,-0.8679,0.4756,0.1424
158,1874921.0,1072.078745,1.0,-2.32,0.91,-9.59,-9.0,-22.87,28.69,-0.63,7.19,-3.25,0.5360549268245958,-0.4025047927507639,-0.0791597800453232,-120.68528037991206,56.65360014298316,16.072546557241562,-0.0151,-0.8690000000000001,0.4745,0.1398
159,1874921.0,1072.078745,1.0,-2.32,0.91,-9.59,-9.0,-22.87,28.69,-0.63,7.19,-3.25,0.5360549268245958,-0.4025047927507639,-0.0791597800453232,-120.68528037991206,56.65360014298316,16.072546557241562,-0.0151,-0.8690000000000001,0.4745,0.1398
160,1874958.0,1072.1565289999999,1.0,-2.17,1.04,-9.5,-9.69,-22.5,28.25,2.56,11.13,-0.19,0.42709088807687984,-0.2342536959866897,0.018738139994399102,-120.82438029207813,56.61454976379907,15.737004132862339,-0.0146,-0.8696,0.4742,0.1369
161,1874958.0,1072.1565289999999,1.0,-2.17,1.04,-9.5,-9.69,-22.5,28.25,2.56,11.13,-0.19,0.42709088807687984,-0.2342536959866897,0.018738139994399102,-120.82438029207813,56.61454976379907,15.737004132862339,-0.0146,-0.8696,0.4742,0.1369
162,1874993.0,1072.168461,1.0,-2.07,0.96,-9.59,-9.69,-22.5,28.25,1.69,7.38,1.5,0.4920108607036612,-0.21098829927577573,-0.0365206909165412,-120.94052444578816,56.65360014298316,15.28597088065223,-0.0139,-0.8701,0.4745,0.133
163,1874993.0,1072.168461,1.0,-2.07,0.96,-9.59,-9.69,-22.5,28.25,1.69,7.38,1.5,0.4920108607036612,-0.21098829927577573,-0.0365206909165412,-120.94052444578816,56.65360014298316,15.28597088065223,-0.0139,-0.8701,0.4745,0.133
