TIME,ELAPSED_SECONDS,PSTATE,acc_x,acc_y,acc_z,mag_x,mag_y,mag_z,gyr_x,gyr_y,gyr_z,lin_x,lin_y,lin_z,eul_x,eul_y,eul_z,qua_w,qua_x,qua_y,qua_z
995139.0,923.822042,1.0,-1.7,1.19,-9.55,23.69,9.69,39.38,-1.37,-5.25,-2.06,-0.05805923577906725,0.02575572771733881,0.034006254951757235,-49.11421404634533,-129.1104989092044,-2.4639083675369537,-0.1072,-0.4156,-0.903,-0.0215
995176.0,923.900239,1.0,-1.74,1.19,-9.19,24.75,9.0,40.56,0.88,-1.75,-1.56,0.02576782291281178,0.05282741327053941,0.3781641574211658,-49.063824131557034,-129.1104989092044,-2.3951379752687134,-0.1085,-0.4152,-0.903,-0.0209
995211.0,923.907689,1.0,-1.7,1.17,-9.66,24.75,9.0,40.56,-0.31,1.0,-1.81,-0.10293791583480164,0.0046099768655840645,-0.07079311720380588,-49.013444327725786,-129.19057220176188,-2.337829975144579,-0.1081,-0.4148,-0.9033,-0.0204
995244.0,923.968267,1.0,-1.68,0.82,-10.44,24.37,9.25,40.56,-2.0,-5.19,0.06,-0.5645637414325066,0.1602574593444573,-0.7831557266686513,-49.000850954751044,-129.1371769317901,-2.3034454566839293,-0.1094,-0.4147,-0.9031,-0.0201
995278.0,923.985066,1.0,-2.0,1.09,-9.38,24.0,9.25,40.19,-2.75,-29.19,7.75,-0.02266327767560985,0.2049044156176996,0.1562613779648565,-49.20242077437143,-128.76486449761614,-2.0742204847835874,-0.1152,-0.4163,-0.9017,-0.0181
995315.0,923.9908220000001,1.0,-2.21,0.84,-9.27,24.75,9.25,40.19,10.88,-46.06,12.13,-0.1849618430156215,0.3341748917577487,0.2475330816676901,-49.643922599586496,-128.0015563372832,-1.2490727279396536,-0.1256,-0.4198,-0.8988,-0.0109
995350.0,924.0269460000001,1.0,-2.75,0.41,-6.75,24.75,9.25,40.19,21.0,-36.13,6.06,0.3487447022861735,1.0989867131383142,2.598064470440629,-49.947121594647854,-127.42938014555916,-0.3666936147093117,-0.1334,-0.4222,-0.8966,-0.0032
995387.0,924.046858,1.0,-3.66,-0.92,5.24,26.69,9.0,39.0,-0.37,190.25,19.31,2.6303070874823056,3.8097965461960137,14.308486836462786,-50.465953903367264,-127.68873899317936,-1.0313379546174166,-0.1121,-0.4263,-0.8976,-0.009000000000000001
995422.0,924.088527,1.0,4.33,3.65,-0.73,26.69,9.0,39.69,-145.19,536.69,46.63,0.020628257453469082,-5.541705294060997,8.430649669778106,-51.04937993737921,-128.05386288415187,-8.510515201802361,-0.0235,-0.4309,-0.899,-0.0742
995457.0,924.167317,1.0,8.82,4.6,-17.43,26.69,9.0,39.69,-27.69,526.06,24.12,-0.1384011056821406,-0.980623311638488,-10.237713872535766,-49.126813106735106,-123.11607559607694,-21.24064723466595,0.1418,-0.4157,-0.8793,-0.1843
995491.0,924.2104539999999,1.0,8.81,0.93,-9.83,6.75,4.5,47.5,35.06,341.31,-24.69,-1.907776324353439,0.28249233217673303,-3.284968982329797,-45.200580565791434,-118.70056715200869,-26.029278313836883,0.2482,-0.3843,-0.8603,-0.2252
995528.0,924.227156,1.0,9.39,2.38,-9.46,-14.0,4.0,46.75,-40.13,219.06,-1.5,-0.39392878052360025,0.3532122881415565,-3.7228792303679583,-43.38190073527359,-114.70384241769943,-29.83168618976498,0.2969,-0.3696,-0.8420000000000001,-0.2574
995563.0,924.2301199999999,1.0,10.29,4.3,-8.37,-14.0,4.0,46.75,-10.81,57.31,43.25,0.7850184134422324,-1.4842742138722729,-4.03573693826287,-43.8262109221212,-112.34142441987677,-30.73390559555541,0.317,-0.3732,-0.8307,-0.265
995598.0,924.270683,1.0,9.2,4.17,-7.68,-24.75,3.69,44.06,14.19,16.56,-5.88,1.2460613704496746,-1.2901233590113026,-2.7549666467380494,-44.06098716195297,-111.50208718714256,-30.73390559555541,0.3254,-0.3751,-0.8266,-0.265
995633.0,924.329036,1.0,7.9,2.56,-6.97,-27.25,3.25,42.69,13.38,14.0,-18.5,0.40844063136771225,-0.1969222919045357,-1.0256580579163297,-43.08607465863793,-111.88991732477224,-30.674489682178663,0.3298,-0.3672,-0.8285,-0.2645
995670.0,924.345808,1.0,7.38,2.43,-5.99,-28.0,3.69,44.06,5.25,1.81,-3.19,0.22840226118773665,-0.570298282956506,0.015225574741885241,-42.82747400563139,-112.09482025042286,-30.52004779633356,0.3305,-0.3651,-0.8295,-0.2632
995702.0,924.386859,1.0,8.17,2.17,-7.45,-28.0,3.69,44.06,8.88,-13.5,1.5,0.11993369041079036,0.14748320248248326,-1.459412516020846,-42.8397831220635,-112.44441011743349,-30.14012428977767,0.3287,-0.3652,-0.8312,-0.26
995739.0,924.4508900000001,1.0,7.69,2.29,-6.0,-28.25,3.69,43.38,6.75,-25.0,-0.12,-0.1246560668020017,-0.8312092732689971,-0.17702427398555898,-43.049117635330035,-113.02370899765695,-29.606429021936968,0.3231,-0.3669,-0.8340000000000001,-0.2555
995774.0,924.458587,1.0,7.77,1.81,-6.22,-25.5,4.06,43.38,9.56,-1.44,-3.25,-0.4735380081373069,-0.4907205527612744,-0.2865335955731521,-42.901336489189035,-113.41933793772672,-29.23915478171118,0.3223,-0.3657,-0.8359,-0.2524
995809.0,924.4792369999999,1.0,8.14,1.96,-7.5,-25.5,4.06,43.38,1.5,-27.19,7.63,-0.13108488590616574,0.0012765455648422466,-1.43319052925656,-43.12303638792578,-113.64933964888505,-28.93135507220408,0.3193,-0.3675,-0.8370000000000001,-0.2498
995842.0,924.525825,1.0,8.28,2.83,-9.03,-26.25,4.75,43.38,12.0,-71.44,8.63,0.7537163802988405,-0.07243146513811527,-2.7446393879842947,-43.96211035016289,-115.0018244008949,-27.57245336826063,0.3027,-0.3743,-0.8434,-0.2383
995878.0,924.582875,1.0,7.9,3.5,-8.76,-25.87,4.75,43.75,30.37,-147.13,-4.13,0.9751625452548828,-1.175009231814783,-2.402609245158244,-44.69214333160206,-117.40908152683936,-25.45330808515709,0.2769,-0.3802,-0.8545,-0.2203
995913.0,924.6011890000001,1.0,7.17,3.17,-8.18,-25.87,4.75,43.75,40.56,-153.94,-17.25,0.478981754765589,-1.6952035530814884,-1.3856268636333162,-44.977249267005995,-120.47718468766024,-22.86343926833653,0.2467,-0.3825,-0.8681,-0.1982
995948.0,924.6425310000001,1.0,5.92,3.14,-7.37,-21.37,5.56,44.25,54.06,-151.13,-46.06,0.3216855670213401,-2.332067226279973,0.12776159026610934,-44.543508213508154,-125.07180537967443,-19.16876722159467,0.2032,-0.379,-0.8873,-0.1665
995983.0,924.6548429999999,1.0,5.36,2.56,-9.27,-14.0,7.75,47.88,43.31,-139.81,-55.69,-0.004820795520756539,-1.6655688378947224,-1.076454208182728,-43.024482231439535,-129.75442065073912,-15.841123321226055,0.1637,-0.3667,-0.9054,-0.1378
996020.0,924.702285,1.0,4.23,2.04,-8.87,-8.0,9.0,47.5,67.31,-148.63,-73.94,-0.19961457132386573,-1.424010918461431,-0.12631264600938685,-41.35408524581363,-133.64792062272215,-13.011162702254634,0.132,-0.3531,-0.9193,-0.1133
996055.0,924.7662050000001,1.0,3.22,2.63,-9.27,-8.0,9.0,47.5,67.19,-159.81,-75.37,0.2851336417728856,-2.1096407353805957,-0.12744858889834632,-38.780424772104546,-138.7806141249359,-8.72885661442212,0.0889,-0.332,-0.9359999999999999,-0.0761
996089.0,924.7834019999999,1.0,2.19,-1.42,-8.54,-2.38,11.19,47.5,62.56,-133.5,-76.06,-1.8767830292261063,0.9344233143635948,1.1262906450664367,-36.46817032738551,-142.4180463131718,-5.410731896463338,0.06,-0.3129,-0.9467,-0.0472
996126.0,924.787111,1.0,1.27,0.98,-9.66,3.56,15.06,47.56,7.31,-127.0,-58.0,-0.3051413174093356,-0.8611324621449055,0.05707361643081299,-34.18317656247093,-145.53094905314887,-3.40386984812725,0.0196,-0.2939,-0.9551,-0.0297
996161.0,924.8431699999999,1.0,0.78,0.69,-8.87,3.56,15.06,47.56,51.56,-126.37,-53.94,-0.4942729260043098,-0.8712500588645844,0.9320785957265764,-32.67561619029609,-147.27558529764082,-1.1917736982377245,-0.0093,-0.2813,-0.9595,-0.0104
996194.0,924.847042,1.0,0.35,-0.14,-9.57,8.5,16.5,46.38,44.56,-108.5,-55.31,-1.0566239573179304,-0.5452955280579567,0.3033243400059256,-30.54380438300529,-149.0298356031949,1.741858774764144,-0.0413,-0.2634,-0.9637,0.0152
996231.0,924.890842,1.0,-0.41,-1.22,-9.18,13.38,18.25,45.06,11.88,-93.62,-46.0,-1.229276365072072,0.475192582308445,0.6310316759853071,-29.014203146635065,-149.85607839466778,3.2089830530311807,-0.0631,-0.2505,-0.9656,0.027999999999999997
996268.0,924.9556230000001,1.0,-0.76,-0.47,-8.75,16.06,20.37,43.69,7.44,-82.44,-38.88,-0.9241208144328628,-0.25055482343016666,1.0634112979635637,-27.36011828826252,-150.34469905459454,4.309658496908005,-0.0901,-0.2365,-0.9667,0.0376
996302.0,924.971664,1.0,-1.41,-1.62,-9.76,16.06,20.37,43.69,18.5,-63.25,-25.56,-1.2584180041847666,0.6924438291795136,-0.08309244711028008,-26.41755310589251,-150.38950981826167,5.4336758888612415,-0.1044,-0.2285,-0.9668,0.0474
996339.0,925.015082,1.0,-1.97,-0.43,-8.45,19.06,21.06,41.56,-0.81,-68.56,-14.31,-0.3199443435879276,-0.19010014982457268,1.1273759779378525,-25.747087788934113,-149.63651807466178,6.46639524800481,-0.1259,-0.2228,-0.9651,0.0564
996374.0,925.034594,1.0,-2.12,-1.73,-8.85,20.56,22.56,39.56,10.06,-45.81,-11.44,-1.0217160857824803,0.8070074556224197,0.6352468790689869,-25.253635128091673,-149.20198320614296,7.189606746883267,-0.1373,-0.2186,-0.9641,0.0627
996409.0,925.073501,1.0,-2.42,-0.45,-8.34,20.56,22.56,39.56,2.81,-45.0,-1.63,-0.3119162932842564,-0.2740560115109733,1.1209087231406372,-25.0892571067724,-148.26644461114088,7.775272426130343,-0.1521,-0.2172,-0.9619,0.0678
996444.0,925.128824,1.0,-2.58,-1.41,-8.8,22.37,22.5,38.88,10.38,-25.19,-5.06,-0.851504519653437,0.431043188777362,0.5776932971858404,-24.87799095241944,-147.6436957459843,8.349651905481078,-0.1608,-0.2154,-0.9604,0.0728
996481.0,925.1772070000001,1.0,-2.75,-0.52,-8.0,23.06,22.87,38.88,1.56,-4.06,-4.38,-0.13585392610555974,-0.15750980135324774,1.333773606871194,-24.748926188008948,-147.56154217602332,8.430081473298436,-0.1635,-0.2143,-0.9602,0.0735
996515.0,925.1910859999999,1.0,-2.66,-0.98,-8.67,23.06,22.87,38.88,4.25,14.38,-6.81,-0.548082964262658,0.0737285969789423,0.7017574054510369,-24.596436196111345,-147.84997349806363,8.522006076442151,-0.1608,-0.213,-0.9609,0.0743
996550.0,925.2528380000001,1.0,-2.67,-0.3,-8.23,23.87,23.19,38.38,-1.44,19.31,-6.56,-0.04320727226257448,-0.4066716025561995,1.1588438424073129,-24.420541139763646,-148.35037934063973,8.395611151395807,-0.156,-0.2115,-0.9621,0.0732
996585.0,925.259984,1.0,-2.58,-0.61,-8.56,23.5,23.19,37.56,-2.0,22.44,-5.63,-0.21105462724000512,-0.17185416223795075,0.8496403376605617,-24.232984111333426,-149.0298356031949,8.188805090876484,-0.1483,-0.2099,-0.9637,0.0714
996620.0,925.277131,1.0,-2.52,-0.3,-6.83,23.5,24.37,38.38,-11.06,48.88,-8.0,0.4298683063524628,-0.04978342095865496,2.5332714968426577,-24.0923596055089,-149.85607839466778,7.7523014124211596,-0.1394,-0.2087,-0.9656,0.0676
996655.0,925.335406,1.0,-2.12,-0.42,-8.21,23.5,24.37,38.38,-16.56,89.87,-9.13,0.09674641071006733,-0.09376974647823852,1.3180254137280798,-23.869779338261072,-151.9074399210319,6.569694717687418,-0.1135,-0.2068,-0.9701,0.0573
996691.0,925.3765599999999,1.0,-1.43,-0.25,-8.64,21.25,22.0,40.06,-13.06,83.25,-7.75,-0.2080232910267656,-0.3729422287081614,1.0559562901026762,-23.729249451725817,-153.3110465719337,5.6516548202737225,-0.0931,-0.2056,-0.973,0.0493
996728.0,925.395583,1.0,-0.78,-0.75,-9.47,16.75,23.06,41.25,-11.19,78.37,-7.06,-0.6988107855344449,0.002965904784298701,0.30068057603120835,-23.237678334824075,-155.05511767406654,4.504608331312204,-0.0681,-0.2014,-0.9764,0.0393
996761.0,925.4533710000001,1.0,-0.17,-0.3,-8.65,16.75,23.06,41.25,-23.37,74.5,4.13,-0.7336839487326194,-0.3552369913950462,1.1882444314904337,-23.296175790566195,-155.6456486519571,3.495584654482353,-0.0518,-0.2019,-0.9775,0.0305
996796.0,925.491574,1.0,0.05,0.27,-9.6,14.19,22.87,43.75,-27.37,70.75,7.94,-0.43027115240361496,-0.6864403986718189,0.2369547951107389,-23.31957649574687,-156.36226771891504,1.856464464018338,-0.0295,-0.2021,-0.9788,0.0162
996831.0,925.498675,1.0,0.73,-0.28,-8.63,11.56,21.69,44.06,-28.12,75.56,8.38,-0.975331093460342,-0.18322504469322248,1.1983192767339226,-23.34297818708293,-156.58711361479934,0.7219315974960596,-0.0128,-0.2023,-0.9792,0.0063
996868.0,925.561109,1.0,1.1,1.23,-9.51,8.19,20.56,46.56,-32.94,72.44,10.56,-0.3739558263467475,-1.3542638684175297,0.25735021338527275,-23.40148673707778,-156.5307030363511,-1.0657168616283692,0.0098,-0.2028,-0.9791,-0.0093
996902.0,925.577636,1.0,1.39,0.41,-8.36,8.19,20.56,46.56,-49.06,103.19,9.31,-0.6776390155442177,-0.4587315385537043,1.361522958910065,-23.57704958135869,-155.97377873337675,-2.555603608821701,0.0309,-0.2043,-0.9781,-0.0223
996939.0,925.6596800000001,1.0,2.21,1.65,-11.51,5.69,19.5,45.88,-34.44,88.81,10.69,-0.1404062892112305,-1.0877970996301023,-1.9782421736257816,-23.740958889771715,-154.63414056108863,-5.0780679322633615,0.0625,-0.2057,-0.9756,-0.0443
996974.0,925.67027,1.0,3.09,1.09,-9.73,2.19,17.56,47.88,-28.81,94.0,9.63,-0.9719791931207328,-0.8435745248748938,-0.379258819006898,-23.79950985538602,-153.5103719816942,-6.2024314124588535,0.0835,-0.2062,-0.9734,-0.0541
997007.0,925.718025,1.0,3.71,0.99,-12.48,2.19,17.56,47.88,-27.69,59.31,10.13,-0.622884063291277,-0.08388538318454564,-3.235572919663108,-24.05720924110893,-151.6255402012684,-8.004999928704901,0.1085,-0.2084,-0.9695,-0.0698
997042.0,925.730251,1.0,3.76,1.64,-11.03,-2.19,16.5,48.69,-32.94,44.69,10.63,-0.4765955185715173,-0.6838510916567462,-1.9318892786375887,-24.11579445991055,-150.70506138327715,-9.119652615329127,0.1182,-0.2089,-0.9675,-0.0795
997079.0,925.791831,1.0,3.38,1.8,-10.45,-4.75,16.19,47.19,-11.06,22.5,3.44,-0.028689373411706163,-0.5531410671334246,-1.3091096177545951,-23.998630403703213,-149.94434113378782,-10.177646918437086,0.1274,-0.2079,-0.9658,-0.0887
997115.0,925.810335,1.0,3.53,1.63,-10.02,-4.75,16.19,47.19,-10.88,9.56,4.63,-0.2749077061008793,-0.477378026135352,-0.9271627416724328,-24.127512270969643,-149.50552295905456,-10.545844298925708,0.1301,-0.209,-0.9648,-0.0919
997148.0,925.8131529999999,1.0,3.6,2.05,-9.79,-5.56,14.69,47.88,-10.31,2.06,0.31,-0.211389794963037,-0.8454955108197282,-0.788020910215625,-24.15094866150093,-149.33171261025748,-11.029269725697887,0.1306,-0.2092,-0.9644,-0.0961
997183.0,925.858342,1.0,3.53,1.57,-9.72,-6.38,14.69,47.06,-7.56,-0.75,-3.88,-0.3733101248481234,-0.3560423128867813,-0.6402669338192872,-23.81122080455561,-149.46197984083236,-11.248026360967863,0.1313,-0.2063,-0.9647,-0.098
997220.0,925.8776619999999,1.0,3.52,1.19,-9.47,-5.25,14.25,47.88,-13.19,6.63,0.75,-0.5742167818224195,1.6769328179400138e-06,-0.35000668847139416,-23.694122645249475,-149.33171261025748,-11.628070333672753,0.1323,-0.2053,-0.9644,-0.1013
997253.0,925.9651960000001,1.0,3.42,1.83,-9.61,-5.25,14.25,47.88,-15.56,1.37,11.31,-0.18514247987298235,-0.4311521672937576,-0.5459936271507182,-23.96348615709585,-148.90133503664836,-12.054333120262198,0.1326,-0.2076,-0.9634,-0.105
997289.0,925.9710640000001,1.0,3.35,1.57,-9.13,-5.56,12.38,47.88,-1.88,-2.38,2.88,-0.3601611577765021,-0.2679612578804128,-0.034222964564895264,-24.33847679675364,-148.60349534227024,-12.319391311580372,0.1313,-0.2108,-0.9627,-0.1073
997326.0,926.0253150000001,1.0,3.2,1.69,-9.05,-5.56,12.75,47.88,-13.63,2.63,5.94,-0.19408765443646114,-0.3090474635441968,0.0667619283806804,-24.467440757791284,-148.4345315385202,-12.515346343653171,0.1314,-0.2119,-0.9623,-0.109
997359.0,926.042171,1.0,3.34,2.3,-8.77,-5.56,12.75,47.88,-11.56,5.13,3.06,-0.10644223875945956,-0.8961507997008078,0.18666643483714296,-24.725463298356363,-147.97436096195162,-13.034229810442689,0.1318,-0.2141,-0.9612,-0.1135
997394.0,926.08304,1.0,3.46,1.9,-9.29,-6.38,12.69,48.69,-2.81,13.0,-1.56,-0.21955416681370374,-0.3922901950667816,-0.27717885469052383,-24.51434453810049,-147.84997349806363,-13.2187858542384,0.1356,-0.2123,-0.9609,-0.1151
997431.0,926.14178,1.0,3.46,1.89,-9.27,-6.75,12.69,48.38,-1.25,10.5,-4.94,-0.19447287566304344,-0.34935349469198984,-0.25897131397649,-24.13923033811999,-147.93284627196644,-13.334150842815475,0.1381,-0.2091,-0.9611,-0.1161
997464.0,926.1499769999999,1.0,3.65,1.95,-8.91,-6.75,12.69,48.38,-4.06,6.69,-2.75,-0.383789563741317,-0.5365791748744368,0.004717111030887011,-23.998630403703213,-147.84997349806363,-13.4841456448157,0.1401,-0.2079,-0.9609,-0.1174
997498.0,926.1624810000001,1.0,3.72,1.51,-9.55,-6.75,12.25,49.5,-5.19,8.63,2.38,-0.43985619933142855,0.05872433625850704,-0.5434262304555411,-23.904917493763705,-147.6436957459843,-13.668786527863627,0.1432,-0.2071,-0.9604,-0.11900000000000001
997533.0,926.204026,1.0,3.76,2.57,-9.11,-7.06,11.69,46.56,-9.75,0.06,6.69,-0.10282928323085568,-0.9844892329891978,-0.33015457977949403,-23.998630403703213,-147.43869005154224,-13.8765501759761,0.14400000000000002,-0.2079,-0.9599,-0.1208
997568.0,926.2630640000001,1.0,3.75,1.79,-8.82,-7.06,11.19,49.19,8.06,2.69,-2.06,-0.4936794593973274,-0.3785369275961734,0.07669674287614114,-23.998630403703213,-147.43869005154224,-13.85346307502466,0.1442,-0.2079,-0.9599,-0.1206
997603.0,926.2794859999999,1.0,3.95,2.03,-9.68,-7.06,11.19,49.19,-2.19,4.13,0.5,-0.3427915152512755,-0.3936329106872809,-0.8307062086025656,-23.98691540045918,-147.35703857325038,-13.922726077012074,0.1456,-0.2078,-0.9597,-0.1212
997640.0,926.321249,1.0,3.77,1.84,-9.29,-7.5,11.56,47.06,-2.38,-4.94,3.63,-0.36805419465513184,-0.2731405454832161,-0.376302928900822,-23.998630403703213,-147.35703857325038,-13.945814879054648,0.1451,-0.2079,-0.9597,-0.1214
997675.0,926.37764,1.0,3.61,1.74,-8.72,-7.88,11.56,47.88,3.25,-2.31,-1.69,-0.4289322291654011,-0.2942396098487179,0.22398125925875867,-23.940057930305638,-147.4795905833761,-13.968904250085993,0.1438,-0.2074,-0.96,-0.1216
997707.0,926.3855070000001,1.0,3.58,1.84,-9.08,-7.88,11.56,47.88,0.5,1.88,-0.88,-0.2760950589396165,-0.2606216006783181,-0.11828062442700292,-23.904917493763705,-147.4795905833761,-13.991994191085649,0.14400000000000002,-0.2071,-0.96,-0.1218
997742.0,926.444208,1.0,3.67,1.8,-9.39,-7.5,11.19,48.25,-2.81,-0.19,2.25,-0.29693437980299153,-0.15604167572736305,-0.4289975598531246,-23.92834419777812,-147.39783944401512,-14.049721543626418,0.1443,-0.2073,-0.9598,-0.1223
997779.0,926.4601769999999,1.0,3.6,2.06,-8.93,-7.5,11.56,47.5,-2.0,-4.0,4.0,-0.23800657405376,-0.4880903586843902,-0.02460732917547936,-24.03377694135321,-147.35703857325038,-14.130545861300053,0.1437,-0.2082,-0.9597,-0.12300000000000001
997814.0,926.4985849999999,1.0,3.61,2.05,-8.89,-7.5,11.56,47.5,-0.12,0.19,1.5,-0.26502558942023563,-0.4948443910498356,0.011161729086753171,-24.127512270969643,-147.27558529764082,-14.153639819523336,0.1433,-0.209,-0.9595,-0.1232
997847.0,926.5601529999999,1.0,3.54,2.29,-8.93,-7.06,11.19,47.06,-4.63,-0.31,1.0,-0.07329740855729044,-0.6311100231815101,-0.04814211493264331,-24.127512270969643,-147.113267463602,-14.349961892702815,0.1445,-0.209,-0.9591,-0.1249
997881.0,926.564811,1.0,3.54,2.14,-9.11,-7.06,11.88,47.88,-5.19,0.5,3.69,-0.0850874709254219,-0.4257891262556104,-0.18908727857300173,-24.13923033811999,-146.992038514199,-14.442363367873067,0.1453,-0.2091,-0.9588,-0.1257
997916.0,926.58246,1.0,3.56,2.34,-8.9,-7.06,11.88,47.88,-2.31,-2.19,3.19,-0.061678236740819674,-0.6576238830699449,-0.038294216374646695,-24.24470448957822,-146.871240884656,-14.54632631618216,0.1453,-0.21,-0.9585,-0.1266
997949.0,926.628259,1.0,3.57,2.08,-9.17,-7.88,11.88,47.5,0.12,0.81,-0.81,-0.12214607852995275,-0.3445386157909225,-0.24454761410194514,-24.05720924110893,-146.992038514199,-14.54632631618216,0.1457,-0.2084,-0.9588,-0.1266
997984.0,926.692889,1.0,3.6,2.07,-9.03,-6.75,11.19,47.5,-1.88,0.37,1.56,-0.17520144306710272,-0.3728083395877906,-0.12391485786589128,-24.05720924110893,-146.9114591288739,-14.627194705880914,0.1463,-0.2084,-0.9586,-0.1273
998021.0,926.7108900000001,1.0,3.62,2.22,-8.94,-7.88,11.56,47.88,-2.69,-0.12,1.94,-0.1359459661908563,-0.5080391987476252,-0.07665991453836618,-24.03377694135321,-146.79094642726758,-14.788953503219902,0.1472,-0.2082,-0.9583,-0.1287
998053.0,926.749716,1.0,3.49,2.75,-8.79,-7.88,11.56,47.88,-3.81,0.12,2.63,0.1848943046344475,-0.9546356748750926,0.005569201212061614,-24.080642561887807,-146.67085725236174,-14.89295693159816,0.1478,-0.2086,-0.958,-0.1296
998090.0,926.756085,1.0,3.64,1.67,-9.15,-8.25,11.19,48.25,3.56,5.75,-4.25,-0.3240192623217019,0.05261565555911885,-0.17599709936370722,-23.78779915841677,-146.871240884656,-14.823619947246295,0.1487,-0.2061,-0.9585,-0.129
998125.0,926.814741,1.0,3.58,2.05,-8.87,-7.06,10.75,49.5,-3.88,1.75,1.37,-0.1588809478022793,-0.3309472174960569,0.031117749341873942,-23.79950985538602,-146.79094642726758,-14.904513628099544,0.1495,-0.2062,-0.9583,-0.1297
998160.0,926.870952,1.0,3.66,1.74,-9.16,-7.06,10.75,49.5,-3.19,3.19,4.81,-0.2712455222598761,0.019835433297608285,-0.2060835139930628,-23.91663071897709,-146.59103083752737,-14.985414779298193,0.1507,-0.2072,-0.9578,-0.1304
998195.0,926.8780390000001,1.0,3.66,1.74,-8.9,-7.5,11.56,47.5,-2.81,0.19,-2.44,-0.33943074403163065,-0.03717612549685767,0.0333903234284616,-23.975200651636385,-146.47163743677675,-15.147239662385427,0.1505,-0.2077,-0.9575,-0.1318
998230.0,926.940473,1.0,3.76,2.09,-9.22,-7.06,11.19,47.5,-4.0,1.69,1.12,-0.1769236645552142,-0.27586859895367605,-0.36225822719094397,-23.881491803544503,-146.47163743677675,-15.124119969217904,0.1517,-0.2069,-0.9575,-0.1316
998264.0,926.948882,1.0,3.71,2.17,-8.89,-7.06,11.19,47.5,1.56,2.06,-1.06,-0.17043341074278873,-0.4345148208279388,-0.0567798964905446,-23.869779338261072,-146.47163743677675,-15.10100089527667,0.152,-0.2068,-0.9575,-0.1314
998297.0,927.0099449999999,1.0,3.7,1.78,-9.2,-7.06,11.56,48.69,-2.19,0.69,0.94,-0.24777226204983754,0.021662319644932808,-0.2649208630812065,-23.89320452199912,-146.39227073603638,-15.158799741488714,0.1526,-0.207,-0.9573,-0.1319
998334.0,927.02095,1.0,3.77,1.94,-8.96,-7.88,10.75,47.88,2.25,0.63,1.63,-0.28670797346599,-0.20880579108204225,-0.099524775338951,-23.92834419777812,-146.31308564363076,-15.216602467156427,0.1531,-0.2073,-0.9571,-0.1324
998367.0,927.032659,1.0,3.76,2.19,-9.09,-7.88,10.75,47.88,-3.0,-1.12,1.63,-0.1337341406832444,-0.3707073702940722,-0.26342900789389745,-23.998630403703213,-146.19464572787078,-15.29753283007483,0.1533,-0.2079,-0.9568,-0.1331
998402.0,927.069517,1.0,3.71,2.21,-9.04,-8.25,11.56,48.38,-4.75,-3.75,4.75,-0.0926005880326914,-0.37693556560999664,-0.2043012390418859,-24.0923596055089,-146.1159090950019,-15.366907820940328,0.1533,-0.2087,-0.9566,-0.1337
998436.0,927.13525,1.0,3.73,2.26,-8.81,-7.06,11.56,47.5,-0.63,-1.44,-0.06,-0.14960113522884128,-0.4866874694415946,-0.01054689154836197,-24.13923033811999,-146.0373496598969,-15.470980940849387,0.153,-0.2091,-0.9564,-0.1346
998471.0,927.139042,1.0,3.7,1.79,-9.15,-7.88,11.56,49.5,3.38,-0.69,-1.69,-0.24157874055506545,0.045793539546784,-0.22111857849480288,-23.998630403703213,-146.1159090950019,-15.436288478593855,0.1536,-0.2079,-0.9566,-0.1343
998504.0,927.1746820000001,1.0,3.61,2.28,-8.89,-7.88,11.56,49.5,-3.19,-2.31,2.88,-0.019643648510530243,-0.43606411570149817,-0.04586552721794135,-24.080642561887807,-146.07660730478975,-15.459416628401115,0.153,-0.2086,-0.9565,-0.1345
998541.0,927.231833,1.0,3.66,1.87,-8.98,-7.88,11.19,48.69,-0.37,-0.31,1.31,-0.22119289167023887,-0.06814750769791722,-0.06651208830125023,-24.104076904803392,-146.07660730478975,-15.447852474357363,0.153,-0.2088,-0.9565,-0.1344
998576.0,927.248548,1.0,3.63,2.37,-8.74,-7.88,11.19,47.88,-0.06,0.31,-0.06,-0.02262935364840996,-0.5588986109576295,0.06660275909695024,-24.104076904803392,-146.0373496598969,-15.517239777173634,0.1536,-0.2088,-0.9564,-0.135
998612.0,927.293233,1.0,3.69,2.06,-9.11,-7.88,11.19,47.88,1.94,2.63,-2.44,-0.10807893422262133,-0.1814654708964495,-0.2336283440923399,-24.03377694135321,-145.9981360073074,-15.52880488350912,0.1545,-0.2082,-0.9563,-0.1351
998645.0,927.354499,1.0,3.7,1.79,-9.19,-7.06,11.19,47.88,0.88,0.31,-0.88,-0.21151707644738105,0.07802510352676939,-0.25810894443532106,-23.98691540045918,-146.0373496598969,-15.517239777173634,0.1548,-0.2078,-0.9564,-0.135
998682.0,927.3723630000001,1.0,3.77,2.08,-9.08,-7.5,11.88,48.0,1.37,2.0,1.37,-0.16549106199003089,-0.2351648850821009,-0.23839903846794466,-24.04549296367276,-145.95896619488119,-15.52880488350912,0.155,-0.2083,-0.9562,-0.1351
998715.0,927.3754710000001,1.0,3.83,2.16,-9.29,-7.5,11.88,48.0,-0.25,0.0,-0.12,-0.1228935753105922,-0.2505605731574865,-0.46762450325941,-24.04549296367276,-145.91984007134727,-15.563501157916,0.1555,-0.2083,-0.9561,-0.1354
998750.0,927.45693,1.0,3.76,1.88,-9.04,-7.88,11.56,49.19,-0.12,-2.06,-0.5,-0.2557531098930357,-0.06620316018274452,-0.1594830258210873,-24.01034566150753,-145.95896619488119,-15.540370148995088,0.155,-0.20800000000000002,-0.9562,-0.1352
998785.0,927.4629050000001,1.0,3.64,1.95,-8.83,-7.5,10.75,47.88,3.75,-0.25,-1.31,-0.1720592842443669,-0.15416749567690968,0.06151644596483408,-23.98691540045918,-145.9981360073074,-15.52880488350912,0.155,-0.2078,-0.9563,-0.1351
998819.0,927.5141449999999,1.0,3.57,2.02,-8.89,-7.5,10.75,47.88,3.25,1.63,-3.31,-0.05983610319496304,-0.16824158941473,0.0175992590779952,-23.869779338261072,-146.0373496598969,-15.517239777173634,0.1555,-0.2068,-0.9564,-0.135
998852.0,927.522808,1.0,3.58,2.06,-8.89,-7.5,11.56,47.88,0.0,1.75,-1.37,-0.04602155092558835,-0.1968358646509732,0.0060766668098679606,-23.834643460050298,-146.0373496598969,-15.563501157916,0.1559,-0.2065,-0.9564,-0.1354
998887.0,927.5875189999999,1.0,3.68,2.29,-8.97,-7.5,11.56,47.88,-3.44,1.12,2.81,0.00026393366391058715,-0.3961922756851586,-0.14776769321673733,-23.869779338261072,-145.95896619488119,-15.621331474060085,0.1566,-0.2068,-0.9562,-0.1359
998924.0,927.6080460000001,1.0,3.73,1.64,-9.12,-7.5,11.56,48.25,3.56,4.06,-4.94,-0.27875726749876995,0.1995239783243018,-0.1763047012840957,-23.705831329603118,-146.0373496598969,-15.540370148995088,0.1573,-0.2054,-0.9564,-0.1352
998957.0,927.6616119999999,1.0,3.66,2.01,-8.96,-7.5,11.56,48.25,-4.25,0.0,1.06,-0.0955799345734098,-0.13302809431828422,-0.07719884557777235,-23.71754026504909,-145.95896619488119,-15.656031584502133,0.1575,-0.2055,-0.9562,-0.1362
998993.0,927.681358,1.0,3.76,1.96,-9.15,-7.88,10.75,49.06,-1.31,1.37,2.75,-0.15201850838084466,-0.05980343236845843,-0.27675289399301306,-23.79950985538602,-145.91984007134727,-15.679165793853409,0.1577,-0.2062,-0.9561,-0.1364
999028.0,927.744617,1.0,3.79,2.35,-9.12,-7.88,11.56,47.88,-4.56,0.0,1.63,-0.0103968701089448,-0.4056289495752472,-0.3371341588018044,-23.89320452199912,-145.76376947074462,-15.7832777083714,0.1579,-0.207,-0.9557,-0.1373
999063.0,927.7481740000001,1.0,3.72,1.88,-8.92,-7.88,11.56,47.88,-0.81,-0.44,0.25,-0.2096646502516229,-0.03312875598867737,-0.03683227102388287,-23.881491803544503,-145.76376947074462,-15.794846506662765,0.1577,-0.2069,-0.9557,-0.1374
999096.0,927.7970019999999,1.0,3.67,2.29,-9.15,-7.88,11.19,49.88,-4.94,-1.5,1.75,0.06521064580129915,-0.2845068662484409,-0.3101826770156517,-23.96348615709585,-145.68599243347148,-15.898972996932855,0.1575,-0.2076,-0.9555,-0.1383
999133.0,927.8153060000001,1.0,3.64,1.92,-8.91,-7.06,10.38,47.06,-3.75,0.19,4.75,-0.124859816625786,-0.024781428083910262,-0.007008640232720964,-24.05720924110893,-145.6083860120317,-15.933684759016295,0.1577,-0.2084,-0.9553,-0.1386
999165.0,927.8625300000001,1.0,3.74,3.01,-8.73,-7.06,10.38,47.06,-7.0,-3.75,2.81,0.2176446388513249,-1.0523305369510745,-0.0981887797166916,-24.24470448957822,-145.41510886588998,-16.095692494623034,0.157,-0.21,-0.9548,-0.14
999200.0,927.8700359999999,1.0,3.79,1.53,-9.25,-7.5,11.19,47.06,7.75,4.94,-5.5,-0.3367596875689402,0.3784447768392345,-0.2933931911805008,-24.022061174011174,-145.6083860120317,-15.933684759016295,0.1581,-0.2081,-0.9553,-0.1386
999235.0,927.9389279999999,1.0,3.78,1.8,-9.08,-7.5,11.19,48.25,1.69,1.69,-0.69,-0.24881138139082165,0.09934970484098704,-0.18849995048290505,-23.98691540045918,-145.56964642134633,-15.979969398223385,0.1583,-0.2078,-0.9552,-0.139
999270.0,927.959959,1.0,3.76,2.14,-9.01,-7.5,10.38,47.5,-2.0,-1.94,1.25,-0.09803502496849503,-0.20996694265715554,-0.18552709094822886,-24.04549296367276,-145.53094905314887,-16.014684599323402,0.1583,-0.2083,-0.9551,-0.1393
999305.0,928.008181,1.0,3.72,2.04,-9.07,-7.5,10.38,47.5,-1.0,-1.25,1.5,-0.0961925431625476,-0.0865388000068592,-0.20575021327220888,-24.0923596055089,-145.49229376528544,-16.03782888845279,0.1581,-0.2087,-0.955,-0.1395
999340.0,928.033488,1.0,3.65,2.52,-8.81,-8.25,10.75,47.5,-2.25,-1.31,0.12,0.10499109469124512,-0.5582775062623554,-0.040496952089069886,-24.186105170420962,-145.41510886588998,-16.118839093056636,0.1576,-0.2095,-0.9548,-0.1402
999374.0,928.0775869999999,1.0,3.7,1.97,-9.01,-8.25,11.19,48.25,0.94,1.06,-1.69,-0.1281862895663704,-0.03783560889707793,-0.12980493835032547,-24.11579445991055,-145.49229376528544,-16.049401279911372,0.1579,-0.2089,-0.955,-0.1396
999409.0,928.139533,1.0,3.65,2.04,-8.87,-8.25,11.19,48.25,-0.5,0.06,-1.44,-0.08740648339399476,-0.12609767288127094,0.00167883820892456,-24.068925773800892,-145.49229376528544,-16.049401279911372,0.158,-0.2085,-0.955,-0.1396
999444.0,928.1481650000001,1.0,3.69,2.02,-9.07,-6.75,11.19,47.88,-3.06,0.63,3.25,-0.07699271439734234,-0.05272538569337415,-0.19098432796145204,-24.127512270969643,-145.41510886588998,-16.072546557241562,0.1582,-0.209,-0.9548,-0.1398
999479.0,928.1676449999999,1.0,3.72,2.4,-9.01,-6.75,11.19,48.69,-4.81,-0.81,3.13,0.04801702798930968,-0.3979000843040066,-0.2241959208550277,-24.26814601866472,-145.29964361056955,-16.19985740781584,0.158,-0.2102,-0.9545,-0.1409
