TIME,ELAPSED_SECONDS,PSTATE,acc_x,acc_y,acc_z,mag_x,mag_y,mag_z,gyr_x,gyr_y,gyr_z,lin_x,lin_y,lin_z,eul_x,eul_y,eul_z,qua_w,qua_x,qua_y,qua_z
351639.0,260.85858199999996,1.0,2.05,1.32,-9.45,-0.37,-19.5,27.75,0.31,-3.31,0.25,0.023209179133151358,-0.12065061361122895,0.04794594856780243,-143.64697188895283,-33.22530683110648,-13.564921674838883,-0.0404,-0.9501,-0.2859,-0.1181
351672.0,260.861841,1.0,1.87,1.38,-9.48,-0.37,-18.37,28.19,-3.56,-2.13,-1.0,-0.08663982114149034,0.004973574692496263,0.046313489154311334,-143.64697188895283,-33.22530683110648,-13.461068017168213,-0.0414,-0.9501,-0.2859,-0.1172
351707.0,260.865005,1.0,1.64,1.39,-9.31,-1.19,-18.69,28.56,-1.69,-0.88,0.19,-0.2275225724493569,0.12919328673224215,0.25524473304114537,-143.64697188895283,-33.22530683110648,-13.44952940908047,-0.0421,-0.9501,-0.2859,-0.1171
351744.0,260.911703,1.0,1.91,1.49,-9.47,-0.75,-19.06,28.19,-0.25,1.88,0.69,-0.0032648821090361657,0.061653113607467176,0.03192298416332662,-143.64697188895283,-33.2133487153414,-13.495684664619233,-0.0422,-0.9501,-0.2858,-0.1175
351778.0,260.930662,1.0,2.2,1.52,-9.78,-0.75,-19.06,28.19,1.0,1.31,0.0,0.1646751466386926,-0.06968856651736466,-0.33074737801454823,-143.64697188895283,-33.2133487153414,-13.541842119876778,-0.0419,-0.9501,-0.2858,-0.1179
351815.0,260.934318,1.0,2.22,1.49,-9.59,-0.75,-19.87,27.0,2.06,-1.56,-2.19,0.22131892606483272,-0.10150334823493312,-0.14610414160636154,-143.61025532246643,-33.2731430190265,-13.495684664619233,-0.0416,-0.95,-0.2863,-0.1175
351850.0,260.973024,1.0,2.04,1.24,-9.51,-0.75,-19.5,27.5,1.12,-4.31,-1.25,-0.016948639223522938,-0.2081030570041653,0.003808276229587904,-143.61025532246643,-33.32098517464778,-13.380300633180664,-0.0412,-0.95,-0.2867,-0.1165
351883.0,260.998962,1.0,1.69,1.16,-9.33,-0.75,-19.5,27.5,0.0,-3.81,-0.12,-0.2714761550327772,-0.09477877164909164,0.258460764249941,-143.64697188895283,-33.332946647245606,-13.195714475135588,-0.0416,-0.9501,-0.2868,-0.1149
351918.0,261.094946,1.0,1.71,1.35,-9.4,-0.37,-18.69,27.0,-3.19,-1.69,-1.25,-0.16991090674617054,0.032901190883226406,0.15902605441593032,-143.64697188895283,-33.3449084936511,-13.161108413553293,-0.0425,-0.9501,-0.2869,-0.1146
351954.0,261.106945,1.0,1.75,1.37,-9.26,-0.37,-19.06,27.5,-1.56,-0.06,0.25,-0.0920510892085526,0.019285993517318082,0.28414220806674706,-143.64697188895283,-33.3449084936511,-13.138038375794716,-0.043,-0.9501,-0.2869,-0.1144
351989.0,261.158667,1.0,1.81,1.62,-9.31,-0.37,-19.06,27.5,-1.5,0.12,0.19,0.07156535826626675,0.18553712235025888,0.1870317967797579,-143.64697188895283,-33.32098517464778,-13.161108413553293,-0.0435,-0.9501,-0.2867,-0.1146
352022.0,261.226656,1.0,1.91,1.33,-9.55,0.0,-18.37,27.5,2.31,2.69,-2.0,-0.06815924844475561,-0.10042056800038268,-0.022122559499685224,-143.57357451370328,-33.40472333858408,-13.230321745568984,-0.0428,-0.9499,-0.2874,-0.1152
352057.0,261.266402,1.0,1.91,1.26,-9.47,-0.37,-18.69,27.75,-0.81,3.88,-0.25,-0.1002732204302928,-0.1497710159470519,0.06580229951485528,-143.5003197378201,-33.428651899003285,-13.322613734970494,-0.0426,-0.9497,-0.2876,-0.11599999999999999
352094.0,261.279356,1.0,1.98,1.42,-9.54,-0.37,-18.69,27.75,-1.12,3.69,1.06,0.0013813359003737177,-0.04527070811176481,-0.03948369068784352,-143.46374555627918,-33.40472333858408,-13.47260676237266,-0.0424,-0.9496,-0.2874,-0.1173
352126.0,261.28763399999997,1.0,1.98,1.3,-9.55,-0.37,-18.69,27.5,1.06,-0.12,-1.12,-0.06609224482887101,-0.1410564526475412,-0.03147151237928013,-143.46374555627918,-33.416687431310486,-13.4841456448157,-0.0422,-0.9496,-0.2875,-0.1174
352163.0,261.32935,1.0,1.96,1.39,-9.57,-1.19,-19.06,27.75,-0.5,1.37,0.75,-0.047166792915655176,-0.04880126610699531,-0.06016274424889545,-143.46374555627918,-33.416687431310486,-13.541842119876778,-0.042,-0.9496,-0.2875,-0.1179
352198.0,261.348093,1.0,2.01,1.41,-9.55,-0.75,-19.06,28.56,0.31,0.37,0.5,0.007317315469058227,-0.057376728735635485,-0.053743215683336835,-143.42720670361226,-33.416687431310486,-13.553381828311744,-0.0419,-0.9495,-0.2875,-0.11800000000000001
352233.0,261.3513,1.0,1.98,1.52,-9.56,-0.75,-19.06,28.56,-2.56,-3.69,-1.37,0.04387686557294336,0.036604676668524405,-0.07369083006823908,-143.42720670361226,-33.440616741828144,-13.507223821905177,-0.0425,-0.9495,-0.2877,-0.1176
352268.0,261.394829,1.0,1.96,1.4,-9.61,-0.75,-19.06,27.0,1.69,-0.56,0.06,-0.04066687502442064,-0.0594625326024032,-0.10034300557400222,-143.42720670361226,-33.4525819599508,-13.44952940908047,-0.0427,-0.9495,-0.2878,-0.1171
352305.0,261.412019,1.0,1.93,1.31,-9.52,-1.19,-19.5,27.5,1.69,-0.69,0.12,-0.08174667525814032,-0.10673118095480838,0.005970128884108306,-143.46374555627918,-33.4525819599508,-13.414914406298776,-0.0421,-0.9496,-0.2878,-0.1168
352337.0,261.45729,1.0,1.78,1.19,-9.44,-1.19,-19.5,27.5,1.94,-2.88,0.81,-0.2314802274074993,-0.12266096999217613,0.13041771719695205,-143.5003197378201,-33.4525819599508,-13.322613734970494,-0.0419,-0.9497,-0.2878,-0.11599999999999999
352372.0,261.47524,1.0,1.8,1.13,-9.28,-0.37,-18.69,27.75,-0.69,0.12,2.13,-0.20331078775102546,-0.17776853087956768,0.29022403890446924,-143.61025532246643,-33.380796277367786,-13.299539926123945,-0.0417,-0.95,-0.2872,-0.1158
352407.0,261.51870499999995,1.0,1.84,1.46,-8.76,0.0,-19.06,27.5,-4.88,2.19,0.81,0.11436304073386992,0.06662158803947715,0.7381725832049852,-143.57357451370328,-33.332946647245606,-13.380300633180664,-0.0428,-0.9499,-0.2868,-0.1165
352444.0,261.581231,1.0,1.59,1.45,-8.33,-1.5,-18.69,27.75,-2.06,3.75,2.06,-0.014989532302445359,0.2036774602779181,1.2056157130031089,-143.57357451370328,-33.26118341298741,-13.553381828311744,-0.0433,-0.9499,-0.2862,-0.11800000000000001
352477.0,261.58865,1.0,1.36,1.55,-7.23,-1.5,-18.69,27.75,-1.56,12.81,12.31,0.0860040920941508,0.4537212077763448,2.302535104707082,-143.64697188895283,-33.02206936424729,-13.8765501759761,-0.0428,-0.9501,-0.2842,-0.1208
352514.0,261.642364,1.0,0.74,2.61,-5.97,-0.37,-19.06,28.19,-9.06,29.94,25.81,0.3532291912079919,1.7651909742553524,3.5011024454345776,-144.09039985888563,-32.162473260424385,-14.788953503219902,-0.0408,-0.9513,-0.27699999999999997,-0.1287
352548.0,261.663633,1.0,0.3,3.07,-5.14,-1.5,-19.06,28.56,7.0,55.63,12.25,0.3352358181725787,2.4717863518980567,4.355742811578545,-143.94200484154302,-31.757201337874307,-16.095692494623034,-0.0373,-0.9509,-0.2736,-0.14
352583.0,261.702689,1.0,1.18,3.31,-5.0,-1.5,-19.06,28.56,7.5,82.31,3.94,0.9933952664789136,2.3831352526807725,4.267486506116882,-142.6678687639012,-31.697637029521523,-18.91314493847748,-0.027000000000000003,-0.9474,-0.2731,-0.1643
352618.0,261.763191,1.0,3.18,2.45,-5.73,-3.75,-20.19,29.5,20.81,108.0,-12.75,1.6497623093437817,0.812301632463053,3.0563721997486244,-140.91718374591224,-32.09092481112806,-21.648844944741544,-0.0167,-0.9424,-0.2764,-0.1878
352655.0,261.812734,1.0,4.3,1.99,-7.17,-6.75,-20.19,29.06,-0.44,117.62,-24.5,1.2239953216303172,0.25950533513435137,1.3040920064510042,-137.5924585129037,-33.0459740960127,-25.86464777060069,-0.0027,-0.9323,-0.2844,-0.2238
352690.0,261.872002,1.0,5.47,1.21,-8.12,-6.75,-20.19,29.06,3.81,125.0,-39.19,0.7363606420401323,-0.6884848289053127,-0.006767429479980436,-134.588690989807,-33.991407904492696,-29.19178700040293,0.0035,-0.9225,-0.2923,-0.252
352724.0,261.881239,1.0,8.61,0.19,-10.71,-9.19,-20.56,29.56,1.37,133.81,-31.87,0.0678746874573759,-2.2867001653203385,-3.7446855570853774,-130.0792914251156,-35.299808644002006,-34.07529458830543,0.0159,-0.9066,-0.3032,-0.293
352759.0,261.951473,1.0,10.72,1.13,-13.52,-12.5,-21.5,30.37,-40.56,109.81,-40.0,-0.5666909401785799,-1.8114631022008645,-7.380064718284133,-126.93984342653314,-36.01000138130928,-37.56783922201158,0.0165,-0.8947,-0.3091,-0.322
352796.0,261.968797,1.0,10.88,-0.75,-14.24,-15.25,-23.25,29.06,17.19,38.75,-24.19,-2.7674347776369403,-3.1351650584642003,-7.635441182186577,-124.33100356461244,-37.011521124582174,-39.99754361581977,0.0147,-0.8843,-0.3174,-0.342
352831.0,261.971943,1.0,11.29,-0.66,-15.32,-15.25,-23.25,29.06,2.0,7.75,-2.81,-3.2495036703452618,-2.885069191033652,-8.733015629653655,-123.76914279530571,-37.362137156703376,-40.38800996971994,0.0181,-0.882,-0.3203,-0.3452
352868.0,261.974902,1.0,10.39,1.09,-14.22,-15.06,-23.75,29.56,-0.94,-46.44,12.5,-1.86796417076178,-1.4713893974939958,-7.677466308744135,-124.60157138168795,-37.10820677500307,-39.571024584505096,0.013999999999999999,-0.8854,-0.3182,-0.3385
352905.0,262.010375,1.0,8.96,2.02,-12.78,-13.75,-24.56,27.87,6.5,-86.81,26.37,-0.509336268854857,-0.5812163926325248,-5.912547309982601,-127.45526250130641,-36.37166381418113,-36.56470362370221,0.0107,-0.8967,-0.3121,-0.3137
352937.0,262.069408,1.0,7.03,1.2,-11.43,-13.75,-24.56,27.87,46.0,-110.44,34.88,-0.6216696535606011,-0.6075493730982676,-3.6376874920852766,-130.24247093533856,-35.865440443720345,-33.285102998046874,0.0134,-0.9072,-0.3079,-0.2864
352972.0,262.138378,1.0,5.29,1.55,-10.18,-12.25,-23.37,30.25,28.0,-123.37,34.5,0.04670878519906508,0.14379510097363368,-1.7690202293353732,-134.29273249552642,-34.9993031752255,-28.422768181257144,0.0142,-0.9215,-0.3007,-0.2455
353009.0,262.238663,1.0,3.88,1.09,-8.66,-10.25,-21.56,30.69,44.75,-123.94,46.44,0.1162871189924488,0.18347452240503934,0.25725659488862185,-137.3712305266047,-34.17118813606689,-24.608164621444825,0.0181,-0.9316,-0.2938,-0.2131
353046.0,262.334141,1.0,2.57,0.42,-6.99,-7.38,-18.56,30.75,34.5,-106.62,40.94,0.0706259733969386,-0.02691894431653205,2.347716608266391,-141.29579335128196,-32.8547775548023,-19.68030213963965,0.0225,-0.9435,-0.2828,-0.1709
353081.0,262.381201,1.0,0.71,0.09,-4.74,-7.38,-18.56,30.75,38.44,-112.19,45.69,-0.5918817303108971,0.29839177708778103,5.058972845359999,-143.9049982588089,-31.85252256097231,-16.29245975343786,0.0243,-0.9508,-0.2744,-0.1417
353118.0,262.387461,1.0,0.17,-0.53,-2.98,-5.5,-15.56,31.06,7.69,-52.75,41.69,-0.7403847911972035,-0.2120007357443925,6.874571206889602,-146.67085725236174,-30.318170931025325,-13.172643633299911,0.0263,-0.958,-0.2615,-0.1147
353153.0,262.403341,1.0,1.3,0.57,-2.81,-2.06,-14.5,31.06,-28.0,-16.56,38.69,0.8258918631532993,0.14605223374966364,6.772251974790733,-148.0992206918234,-29.12074488446725,-12.492290914481535,0.0217,-0.9615,-0.2514,-0.1088
353187.0,262.406366,1.0,1.39,0.7,-1.85,-2.06,-14.5,31.06,-22.25,11.75,32.56,1.140964855745407,0.13155779011664182,7.6793296795467105,-149.33171261025748,-27.737669605365127,-12.688278342697654,0.0147,-0.9644,-0.2397,-0.1105
353220.0,262.428055,1.0,1.79,0.62,-2.52,-3.56,-14.88,30.0,-34.06,42.31,39.13,1.225178597839029,-0.03468809816936863,6.9020615370258405,-150.03285782765786,-26.158669228245632,-14.361511562916565,0.0092,-0.966,-0.2263,-0.125
353257.0,262.452163,1.0,1.31,0.18,-3.52,-2.38,-15.56,29.69,-39.88,76.37,26.44,0.2399198049569001,-0.13653658420099535,6.056623833642732,-149.7680673850508,-25.15969838503005,-16.489275388774946,0.0044,-0.9654,-0.2178,-0.1434
353294.0,262.470071,1.0,2.48,-0.67,-4.63,-2.38,-15.56,29.69,-42.63,101.75,33.0,0.260086610649509,-1.2627958776106043,4.671097300781492,-148.47668973247264,-23.65899809735879,-20.52986483879688,-0.0009,-0.9624,-0.205,-0.1782
353327.0,262.473139,1.0,4.54,1.14,-6.7,-6.5,-17.37,29.69,-83.75,120.12,39.69,1.4785470708558697,-0.2363046732006,1.7717723618099142,-146.9114591288739,-22.057320868979353,-24.350199497398,-0.0114,-0.9586,-0.1913,-0.2109
353363.0,262.529901,1.0,5.17,2.38,-8.22,-9.06,-20.75,30.37,-85.62,119.75,39.88,0.8583648503342082,0.7464552632621706,-0.12651235262763727,-143.86802831777294,-19.92458285893285,-29.618281737295238,-0.0281,-0.9507,-0.17300000000000001,-0.2556
353398.0,262.58274900000004,1.0,6.81,2.35,-10.49,-15.69,-25.25,30.0,-62.75,125.19,36.5,0.1532624605073718,0.3003106803646101,-2.9143965022913214,-141.226690896529,-18.4137924426918,-33.57225481905068,-0.0353,-0.9433,-0.16,-0.2888
353433.0,262.666989,1.0,8.25,3.61,-12.61,-15.69,-25.25,30.0,-89.12,103.56,27.31,-0.9206757004737608,0.9017845861141468,-5.635041643560432,-137.56078717941855,-16.5471716366683,-38.28272700926836,-0.0524,-0.9322,-0.1439,-0.3279
353470.0,262.678938,1.0,9.04,5.95,-14.3,-21.06,-31.69,30.06,-61.81,59.56,17.0,-1.7076971950103017,2.6625431471316223,-7.845792728410602,-135.54829362030736,-15.447852474357363,-40.68118093937297,-0.0644,-0.9257,-0.1344,-0.3476
353507.0,262.682208,1.0,9.0,6.66,-14.02,-24.75,-38.75,26.75,-9.5,21.44,-1.12,-1.9550383693467863,3.20291400396133,-7.738582026325848,-134.14543141113884,-14.916070477056891,-42.22495842729175,-0.0719,-0.9209999999999999,-0.1298,-0.3602
353542.0,262.727306,1.0,8.51,5.63,-13.48,-24.75,-38.75,26.75,28.25,-12.31,-12.13,-2.050447197646774,2.4633470992116435,-6.793199016134702,-134.1748557862076,-15.343782195666375,-42.11442571308733,-0.0683,-0.9211,-0.1335,-0.3593
353576.0,262.745335,1.0,7.33,4.41,-11.83,-25.69,-42.88,25.37,44.0,-35.44,-20.56,-1.5707125957727746,1.8460746326833053,-4.5895568056847535,-135.2162310052641,-16.489275388774946,-40.73006975326216,-0.0589,-0.9246,-0.1434,-0.348
353611.0,262.74891099999996,1.0,6.67,3.69,-10.06,-24.56,-41.38,26.87,51.56,-47.94,-27.81,-0.4928333432289167,1.4649764121627993,-2.720103745787794,-136.68295663578678,-18.03080801097451,-38.598252513901095,-0.0487,-0.9294,-0.1567,-0.3305
353648.0,262.789183,1.0,6.0,3.47,-8.95,-21.69,-37.69,29.0,49.5,-58.94,-34.81,0.0820475260791983,1.4686221038297695,-1.4174231162803288,-137.87852272532075,-19.354734757827327,-36.70955398535576,-0.0419,-0.9332,-0.1681,-0.3149
353683.0,262.842637,1.0,5.26,3.63,-8.28,-21.69,-37.69,29.0,50.75,-66.69,-41.44,0.5779438358221141,1.8083443182464185,-0.4792029908462681,-139.43670037409964,-21.34558610673021,-33.811713840931375,-0.0338,-0.938,-0.1852,-0.2908
353720.0,262.849527,1.0,4.3,4.02,-7.53,-18.56,-32.75,29.56,59.69,-55.69,-48.88,0.8200087730231468,2.462897039376707,0.6081162154452819,-140.30512782111506,-23.05052764872173,-31.697637029521523,-0.0264,-0.9406,-0.1998,-0.2731
353757.0,262.865383,1.0,4.56,3.95,-6.94,-14.5,-28.69,30.75,83.37,-47.06,-67.12,1.8349355538171803,2.203420854629889,1.069508130331192,-140.50813431460048,-25.970475433904987,-29.168105022171197,-0.0132,-0.9412,-0.2247,-0.2518
353789.0,262.90873,1.0,4.25,0.85,-6.57,-14.5,-28.69,30.75,119.0,-52.44,-66.5,0.7919565176583875,-0.3981988191648821,1.98589923203954,-140.17034192327273,-28.671075748006672,-27.03000922772236,0.0052,-0.9402,-0.2476,-0.2337
353824.0,262.96594300000004,1.0,3.53,-0.53,-6.2,-11.06,-25.5,30.37,91.37,-40.0,-58.5,0.0359039153846244,-1.1670090366444643,2.7484207024176213,-139.30467314730421,-31.82869013670581,-24.479166312304468,0.0287,-0.9376,-0.2742,-0.212
353859.0,262.973707,1.0,3.76,-0.42,-6.51,-7.25,-19.87,33.88,65.75,-18.75,-56.94,0.2682722848820404,-1.0828601706638858,2.3602049534053533,-138.1664535645985,-33.90753998612701,-23.34297818708293,0.0398,-0.9341,-0.2916,-0.2023
353898.0,263.05237400000004,1.0,3.84,-1.77,-6.58,-7.19,-16.56,33.38,77.31,-16.56,-52.38,-0.3635304326122215,-2.078712433931039,2.2752689685034984,-136.311888173766,-36.62505057506963,-21.998949913651906,0.0571,-0.9282,-0.3142,-0.1908
353931.0,263.109637,1.0,3.55,-3.77,-6.51,-7.19,-16.56,33.38,92.94,-1.94,-32.25,-1.7151543585630256,-3.3026232846301187,2.3671322087637146,-135.06606324188033,-38.197829443298346,-21.07744476440248,0.07400000000000001,-0.9241,-0.3272,-0.1829
353968.0,263.152584,1.0,4.25,-5.16,-6.95,-4.0,-13.19,33.5,36.25,16.75,-18.87,-2.2346548077388126,-4.341584086267851,1.4911484810225932,-133.53159111803808,-39.522316021456795,-20.727870288694774,0.0939,-0.9189,-0.3381,-0.1799
354004.0,263.21064900000005,1.0,5.15,-5.52,-7.13,-3.69,-8.69,34.06,16.81,20.12,0.19,-1.9350030275436567,-4.948935886246192,0.8851256416169822,-132.95401941873996,-39.80249219587672,-21.054133663315955,0.1008,-0.9169,-0.3404,-0.1827
354037.0,263.305364,1.0,4.98,-5.22,-7.49,-3.69,-8.69,34.06,-18.31,16.31,30.5,-1.9464093129772841,-4.448721832964097,0.6104951057377299,-133.27085000109963,-38.987009992065246,-21.63717831946884,0.1031,-0.9179999999999999,-0.3337,-0.1877
354072.0,263.389055,1.0,5.38,-4.61,-7.92,-4.25,-8.69,37.5,-38.0,24.19,52.06,-1.361557921504834,-4.12405217376244,0.10813188152062556,-134.7969534952698,-36.769926221818416,-22.711475449834968,0.0974,-0.9232,-0.3154,-0.1969
354109.0,263.39269900000005,1.0,6.68,-4.18,-8.72,-4.88,-9.06,35.19,-71.19,13.63,75.87,-0.35193702011142003,-4.311227713410046,-1.1214173468367843,-136.5279785234642,-34.387038954542724,-23.62387580431868,0.08900000000000001,-0.9289,-0.2956,-0.2047
354144.0,263.435381,1.0,5.31,-1.81,-8.32,-4.88,-9.06,35.19,-100.87,-6.06,87.62,0.15783838931707228,-2.0722752723313347,-0.010445407427896573,-139.9355135446495,-30.377536447956228,-24.33847679675364,0.0654,-0.9395,-0.262,-0.2108
354179.0,263.444431,1.0,4.55,-1.07,-8.1,-6.69,-12.38,35.69,-85.62,2.13,102.56,0.03611488254402412,-1.273209708215763,0.5419302117838463,-142.45363711540872,-27.100727545597238,-24.77239013171025,0.0508,-0.9468,-0.2343,-0.2145
354213.0,263.457983,1.0,4.39,2.35,-8.62,-7.5,-15.06,36.5,-127.69,0.56,98.87,0.9293113025949944,1.6646061137899288,0.03605805330596112,-145.68599243347148,-22.290862814695288,-25.65305965168436,0.0203,-0.9555,-0.1933,-0.222
354250.0,263.461248,1.0,3.62,5.17,-8.65,-10.5,-19.87,34.75,-93.44,1.37,77.44,0.9461148650831164,4.3529225898622,0.0694670609392336,-147.35703857325038,-19.215254308568724,-26.123377437941194,-0.0012,-0.9597,-0.1669,-0.226
354283.0,263.505618,1.0,3.99,5.93,-9.38,-10.5,-19.87,34.75,-66.25,2.06,60.69,0.7402709560669155,4.8347716621696835,-0.923978214894264,-148.5189029496625,-16.188282864682783,-26.700128578583914,-0.0193,-0.9625,-0.1408,-0.2309
354320.0,263.523888,1.0,3.58,5.31,-9.17,-13.06,-22.87,32.0,-30.69,0.19,30.37,0.16664472965572075,4.2839991920774985,-0.5239347102841805,-149.0298356031949,-14.835175731606341,-26.85325924989716,-0.0259,-0.9637,-0.1291,-0.2322
354357.0,263.52704500000004,1.0,3.51,4.53,-8.95,-15.19,-24.87,32.88,-7.25,0.88,11.38,-0.06120679116979294,3.5115140211447056,-0.2237549274203676,-149.33171261025748,-14.003539375629765,-26.9593013980579,-0.0296,-0.9644,-0.1219,-0.2331
354392.0,263.636169,1.0,3.52,3.19,-9.07,-15.19,-24.87,32.88,7.69,2.44,-0.56,-0.4147603534566967,2.233372982695018,-0.17690743056393998,-149.33171261025748,-13.899637842978935,-27.018223861950197,-0.0287,-0.9644,-0.121,-0.2336
354424.0,263.694852,1.0,3.44,2.34,-8.88,-15.38,-26.06,32.56,10.13,1.44,-6.13,-0.5699242435793925,1.478694060755216,0.12924072730373304,-149.20198320614296,-14.222925164993965,-27.041794884833607,-0.0256,-0.9641,-0.1238,-0.2338
354461.0,263.736153,1.0,4.03,1.01,-8.96,-15.25,-25.69,33.38,25.37,4.5,-8.5,-0.3980661566122869,0.14252479518046518,-0.06066118480200624,-149.0298356031949,-14.534774284595127,-27.112514953816074,-0.02,-0.9637,-0.1265,-0.2344
354496.0,263.752278,1.0,4.13,0.92,-8.94,-15.19,-24.56,33.25,8.75,3.06,-12.0,-0.3246667971738922,0.07314413865691355,-0.07849751563136742,-148.73080219796103,-15.077882439571027,-27.15966751179376,-0.0168,-0.963,-0.1312,-0.2348
354531.0,263.755023,1.0,4.42,0.8,-9.0,-15.19,-24.56,33.25,7.81,0.06,-10.44,-0.1344741098546787,-0.1097148026694108,-0.2505006589020517,-148.5189029496625,-15.459416628401115,-27.17145638329649,-0.0157,-0.9625,-0.1345,-0.2349
354568.0,263.757702,1.0,4.25,0.58,-8.8,-14.88,-24.56,34.56,4.63,-1.81,-10.06,-0.21903019933658635,-0.27312826619046104,0.023177880042462462,-148.4345315385202,-15.887402736014533,-27.03000922772236,-0.0142,-0.9623,-0.1382,-0.2337
354603.0,263.798341,1.0,4.34,0.58,-8.86,-15.19,-25.0,33.25,3.31,0.81,-9.56,-0.1630195812849045,-0.29970041320392304,-0.070353810794197,-148.30838490049834,-16.17670848781425,-26.982869511205863,-0.0138,-0.9620000000000001,-0.1407,-0.2333
354635.0,263.81690299999997,1.0,4.42,0.65,-9.05,-15.19,-25.0,33.25,2.31,1.12,-2.06,-0.1554904475220556,-0.2275982674311419,-0.2822261390648304,-148.26644461114088,-16.361918539628213,-26.9593013980579,-0.0124,-0.9619,-0.1423,-0.2331
354672.0,263.820063,1.0,4.25,0.75,-9.04,-14.06,-24.56,33.75,-0.5,-2.75,-5.38,-0.25165550436010714,-0.0945094220419938,-0.207057479064412,-148.26644461114088,-16.51243337847321,-26.85325924989716,-0.0125,-0.9619,-0.1436,-0.2322
354707.0,263.858091,1.0,4.27,0.79,-8.88,-15.19,-25.0,33.25,2.44,-1.63,-2.63,-0.134062713079478,-0.07635136658546593,-0.07705364073014563,-148.30838490049834,-16.651395613206027,-26.74724052277769,-0.0125,-0.9620000000000001,-0.1448,-0.2313
354742.0,263.865134,1.0,4.17,0.86,-8.87,-15.19,-25.0,33.25,0.5,0.0,-1.81,-0.1879344527126221,0.01630221082738076,-0.030514981812887143,-148.30838490049834,-16.686140017359815,-26.700128578583914,-0.0125,-0.9620000000000001,-0.1451,-0.2309
354775.0,263.918254,1.0,4.03,1.01,-8.97,-14.06,-24.19,33.25,1.12,-2.31,-0.44,-0.29426097306478205,0.2032860742136053,-0.0723168109454555,-148.35037934063973,-16.755633464025784,-26.605918469153576,-0.0123,-0.9621,-0.1457,-0.2301
354811.0,263.934544,1.0,4.19,0.63,-8.74,-14.06,-25.0,33.75,3.0,0.06,-0.31,-0.14881936325337922,-0.19629726192503025,0.0968652350280408,-148.35037934063973,-16.848301053200124,-26.558820285317804,-0.011000000000000001,-0.9621,-0.1465,-0.2297
354846.0,263.976181,1.0,4.24,0.92,-8.88,-13.38,-24.56,34.19,-1.69,0.31,1.88,-0.08896295278049954,0.07065639578283582,-0.0759353533762912,-148.39242814751884,-16.767216307875252,-26.558820285317804,-0.0113,-0.9622,-0.1458,-0.2297
354881.0,263.993089,1.0,4.09,1.23,-8.87,-13.38,-24.56,34.19,-3.5,-1.5,0.37,-0.12105581289162733,0.3985739791968021,-0.029222318878096232,-148.4345315385202,-16.732468293463864,-26.5117266696815,-0.0119,-0.9623,-0.1455,-0.2293
354918.0,264.035426,1.0,3.93,0.75,-8.78,-14.06,-24.19,33.75,4.69,1.0,-0.06,-0.3418595576179285,-0.01109545479642543,0.16409800720534662,-148.4345315385202,-16.801965875210325,-26.47640945025204,-0.0113,-0.9623,-0.1461,-0.22899999999999998
354953.0,264.052993,1.0,4.13,1.07,-8.82,-14.06,-24.56,33.25,-2.38,1.94,2.0,-0.10832559929675206,0.24444152646544115,0.012635812514041334,-148.4345315385202,-16.755633464025784,-26.52349964582953,-0.0112,-0.9623,-0.1457,-0.2294
354988.0,264.113144,1.0,4.23,0.79,-8.98,-14.06,-24.56,33.25,3.19,3.0,-1.12,-0.18245565604375646,-0.036564706091760935,-0.1493920326476168,-148.39242814751884,-16.732468293463864,-26.59414349441812,-0.0109,-0.9622,-0.1455,-0.23
355022.0,264.208508,1.0,3.92,0.86,-8.91,-14.06,-23.75,34.56,-2.25,-0.44,0.06,-0.3982044585535013,0.11360624734918988,0.043319275818252116,-148.39242814751884,-16.744050792597328,-26.605918469153576,-0.011000000000000001,-0.9622,-0.1456,-0.2301
355059.0,264.244258,1.0,4.04,1.03,-8.86,-13.69,-24.56,33.75,-1.56,2.88,0.25,-0.2391477056682291,0.2443756821101821,0.02068101880724172,-148.35037934063973,-16.66297690980209,-26.676574330601248,-0.011000000000000001,-0.9621,-0.1449,-0.2307
355092.0,264.304595,1.0,4.24,0.94,-8.95,-13.69,-24.56,33.75,1.44,2.19,-1.56,-0.14087513658460316,0.0965137045768074,-0.1399343032028444,-148.30838490049834,-16.720885966499374,-26.71190613338563,-0.0114,-0.9620000000000001,-0.1454,-0.231
355127.0,264.366946,1.0,4.42,0.91,-9.13,-14.06,-24.19,34.19,2.88,-0.63,1.37,-0.0705165282791129,0.03778035571507976,-0.3774061695211408,-148.30838490049834,-16.720885966499374,-26.688351311037593,-0.0107,-0.9620000000000001,-0.1454,-0.2308
355162.0,264.454905,1.0,4.02,1.03,-8.78,-13.69,-24.19,34.19,-2.44,-1.88,-0.25,-0.21087870753066465,0.2392181032003322,0.10056918075006926,-148.39242814751884,-16.720885966499374,-26.617693729981983,-0.0112,-0.9622,-0.1454,-0.2302
355198.0,264.518757,1.0,4.12,0.85,-8.86,-14.06,-25.0,33.75,1.25,0.69,-2.69,-0.209218896437131,0.03924274146818857,0.000978811314560346,-148.35037934063973,-16.79038251334145,-26.605918469153576,-0.0112,-0.9621,-0.146,-0.2301
355233.0,264.522004,1.0,3.98,0.83,-8.88,-14.06,-25.0,33.75,-0.88,0.69,-1.06,-0.3395492336438781,0.05517147335361128,0.04625234281102841,-148.35037934063973,-16.83671699887327,-26.58236880563043,-0.0114,-0.9621,-0.1464,-0.2299
355268.0,264.56834,1.0,4.05,0.9,-8.76,-13.69,-24.19,34.19,-2.81,1.81,-0.69,-0.20820561759246567,0.07864356482509867,0.11641957908045875,-148.30838490049834,-16.859885280956842,-26.57059440264536,-0.0123,-0.9620000000000001,-0.1466,-0.2298
355303.0,264.587102,1.0,4.2,0.96,-8.93,-14.06,-24.56,33.38,-2.31,1.25,-3.25,-0.1483566273458473,0.08223106390256296,-0.1068624130275868,-148.26644461114088,-16.906223928806188,-26.605918469153576,-0.0132,-0.9619,-0.147,-0.2301
355338.0,264.590931,1.0,4.15,0.99,-8.96,-14.06,-24.56,33.38,2.75,-0.69,3.13,-0.18890129131731265,0.12057374783959213,-0.11473993656990622,-148.30838490049834,-16.883054257264604,-26.558820285317804,-0.0135,-0.9620000000000001,-0.1468,-0.2297
355373.0,264.633559,1.0,4.05,1.03,-8.98,-13.69,-24.56,34.56,-3.44,-0.31,-0.5,-0.2678377811972348,0.18917533812351395,-0.0926568249453279,-148.35037934063973,-16.848301053200124,-26.535272907054928,-0.0135,-0.9621,-0.1465,-0.2295
355409.0,264.640914,1.0,4.25,1.08,-8.89,-13.38,-24.56,34.06,0.25,2.06,-0.81,-0.05555445817728461,0.15198937878014054,-0.10469768489708108,-148.30838490049834,-16.848301053200124,-26.58236880563043,-0.0148,-0.9620000000000001,-0.1465,-0.2299
355442.0,264.659832,1.0,4.38,1.29,-8.97,-13.38,-24.56,34.06,0.25,-1.31,0.5,0.07450901316233388,0.31537348546796884,-0.2533891635232415,-148.30838490049834,-16.83671699887327,-26.59414349441812,-0.015,-0.9620000000000001,-0.1464,-0.23
355477.0,264.6636,1.0,4.13,1.03,-8.96,-13.69,-25.25,34.06,3.69,-3.31,-3.94,-0.1781275012099132,0.13685242770885164,-0.1104535089053531,-148.35037934063973,-16.987323268750952,-26.441094791301843,-0.0146,-0.9621,-0.1477,-0.2287
355512.0,264.678048,1.0,4.09,0.72,-8.87,-14.06,-24.56,33.75,4.69,0.88,-1.63,-0.2487219283274773,-0.14249013512722716,0.016796376796001766,-148.35037934063973,-17.080018727926856,-26.39401255557817,-0.0139,-0.9621,-0.1485,-0.2283
355549.0,264.71653599999996,1.0,4.14,0.76,-8.85,-14.5,-25.0,33.75,0.63,0.37,-0.81,-0.1864042093397732,-0.10822690002198038,0.009035983880972156,-148.30838490049834,-17.137959104392678,-26.405782688920823,-0.0132,-0.9620000000000001,-0.149,-0.2284
355581.0,264.73733500000003,1.0,4.19,1.07,-9.0,-14.5,-25.0,33.75,-1.94,0.69,0.81,-0.12234314331541275,0.1735879380704683,-0.17613014297821472,-148.30838490049834,-17.137959104392678,-26.39401255557817,-0.0135,-0.9620000000000001,-0.149,-0.2283
355618.0,264.740411,1.0,4.06,0.84,-8.77,-13.0,-23.75,35.0,2.25,-0.37,-0.75,-0.18786850685490247,-0.0070863901850583,0.10784825920715946,-148.30838490049834,-17.184314583414665,-26.35870385587789,-0.0128,-0.9620000000000001,-0.1494,-0.228
355653.0,264.788232,1.0,3.97,0.72,-8.75,-14.88,-24.56,33.38,-0.37,-0.19,-0.12,-0.28256627598355,-0.0925657716087887,0.17579396963576244,-148.35037934063973,-17.219083051744406,-26.32339770363258,-0.0125,-0.9621,-0.1497,-0.2277
355688.0,264.85699500000004,1.0,4.25,0.93,-9.0,-14.88,-24.56,33.38,-1.0,1.19,3.31,-0.1003969430048968,0.046317983904121895,-0.1891078551204597,-148.39242814751884,-17.09160645080068,-26.35870385587789,-0.0123,-0.9622,-0.1486,-0.228
355723.0,264.876819,1.0,4.26,1.14,-9.06,-13.0,-24.19,34.06,-0.63,-1.44,1.5,-0.0551935223239539,0.23837077845534416,-0.2666281678593609,-148.4345315385202,-17.033669594732867,-26.32339770363258,-0.0128,-0.9623,-0.1481,-0.2277
355760.0,264.92157599999996,1.0,4.13,0.88,-8.87,-14.06,-24.56,34.56,3.81,-3.81,1.31,-0.12892841075093578,0.028750652531218224,-0.01632057233096873,-148.56117141184754,-16.998909587512788,-26.1821984911941,-0.0122,-0.9626,-0.1478,-0.2265
355794.0,265.001615,1.0,3.84,0.89,-8.8,-14.06,-24.56,34.56,-0.75,-2.38,0.19,-0.32527147283901753,0.11536910189494246,0.17033387612335105,-148.68831050830863,-16.987323268750952,-26.076325639174165,-0.0123,-0.9629,-0.1477,-0.2256
355829.0,265.11242999999996,1.0,3.89,0.85,-8.96,-13.69,-23.75,33.75,0.25,1.75,2.56,-0.3671299219029491,0.07537394109983869,0.00890870981241676,-148.68831050830863,-16.940979741891212,-26.09985097880343,-0.0121,-0.9629,-0.1473,-0.2258
355864.0,265.116191,1.0,4.23,1.07,-8.99,-14.5,-24.19,34.19,-0.44,2.19,1.75,-0.03419132522436333,0.19233122960802407,-0.18433291718071487,-148.73080219796103,-16.871469682269606,-26.13514108768563,-0.0121,-0.963,-0.1467,-0.2261
