TIME,ELAPSED_SECONDS,PSTATE,acc_x,acc_y,acc_z,mag_x,mag_y,mag_z,gyr_x,gyr_y,gyr_z,lin_x,lin_y,lin_z,eul_x,eul_y,eul_z,qua_w,qua_x,qua_y,qua_z
825901.0,735.933066,1.0,1.79,0.24,-9.72,-3.88,-12.38,25.75,-0.19,1.63,1.06,0.035515211552511465,-0.022882563850559853,-0.07961901606567068,-150.7504119288671,-27.301153346475182,-10.235170717586842,0.009000000000000001,-0.9676,-0.23600000000000002,-0.0892
825935.0,735.936705,1.0,1.85,0.23,-9.69,-4.19,-12.0,26.19,0.31,0.94,0.44,0.07929170055698581,-0.056429527780871874,-0.06056989896937815,-150.7504119288671,-27.289361242839874,-10.292697102933527,0.0091,-0.9676,-0.2359,-0.0897
825970.0,736.015618,1.0,1.82,0.15,-9.64,-4.19,-12.0,26.19,0.31,0.12,0.0,0.025387846936084875,-0.11496504352422475,-0.004090975889409876,-150.7504119288671,-27.289361242839874,-10.292697102933527,0.0092,-0.9676,-0.2359,-0.0897
826005.0,736.084744,1.0,1.75,0.4,-9.61,-4.56,-12.38,27.0,-3.13,-1.37,0.44,0.08209654817582332,0.12181341845331245,0.03152741008521432,-150.7504119288671,-27.277569433768978,-10.281191618255797,0.0084,-0.9676,-0.2358,-0.0896
826040.0,736.129925,1.0,1.73,0.37,-9.65,-3.06,-12.0,27.37,-1.0,-1.0,0.12,0.04577471006140678,0.09616335551345534,-0.003597564917781071,-150.79583135983617,-27.277569433768978,-10.258180960550504,0.0079,-0.9677,-0.2358,-0.0894
826075.0,736.152535,1.0,1.73,0.32,-9.55,-3.5,-12.0,25.75,-0.75,0.12,0.56,0.03793698169032307,0.046442668006669074,0.09612973257824108,-150.79583135983617,-27.277569433768978,-10.269686237501055,0.0079,-0.9677,-0.2358,-0.0895
826109.0,736.156272,1.0,1.71,0.36,-9.67,-3.5,-12.0,25.75,0.94,0.81,-0.19,0.019383797131144482,0.101789350864309,-0.01943076480441519,-150.79583135983617,-27.277569433768978,-10.269686237501055,0.0081,-0.9677,-0.2358,-0.0895
826146.0,736.2206980000003,1.0,1.79,0.25,-9.76,-4.56,-11.69,26.56,-0.63,0.5,-0.19,0.020235391946870226,-0.02428877265883904,-0.11923538037970438,-150.79583135983617,-27.277569433768978,-10.292697102933527,0.0082,-0.9677,-0.2358,-0.0897
826181.0,736.2404280000003,1.0,1.82,0.29,-9.61,-4.19,-12.0,25.75,-0.06,0.12,-0.44,0.08926219877394646,-0.014894495655283613,0.02194712184017256,-150.79583135983617,-27.277569433768978,-10.292697102933527,0.008,-0.9677,-0.2358,-0.0897
826216.0,736.244927,1.0,1.92,0.24,-9.78,-4.19,-12.0,25.75,-1.12,-0.19,0.37,0.1241292791840954,-0.09690975408113857,-0.161679871227836,-150.7504119288671,-27.277569433768978,-10.292697102933527,0.0079,-0.9676,-0.2358,-0.0897
826251.0,736.2936480000003,1.0,1.81,0.29,-9.75,-4.19,-12.38,26.19,0.25,-0.94,0.37,0.0582141109879612,-0.0046437481721227905,-0.11399965377191455,-150.79583135983617,-27.277569433768978,-10.281191618255797,0.0079,-0.9677,-0.2358,-0.0896
826286.0,736.315144,1.0,1.89,0.28,-9.68,-3.5,-12.75,25.75,-0.88,-0.06,0.81,0.13819730315059633,-0.0503981114830704,-0.05901072474422975,-150.79583135983617,-27.265777919115557,-10.269686237501055,0.0081,-0.9677,-0.2357,-0.0895
826322.0,736.318175,1.0,1.78,0.2,-9.59,-3.5,-12.75,25.75,0.88,-1.75,0.81,0.027693166284822823,-0.08196176933845631,0.05118920325092978,-150.84131999821054,-27.242195772473625,-10.22366575133618,0.0079,-0.9678,-0.2355,-0.0891
826355.0,736.357402,1.0,1.74,0.37,-9.65,-4.56,-12.0,25.75,-2.06,-0.44,1.31,0.058967043903012224,0.08582389222372648,-0.005391436279042594,-150.84131999821054,-27.195035005738163,-10.22366575133618,0.0076,-0.9678,-0.2351,-0.0891
826390.0,736.420353,1.0,1.68,0.29,-9.58,-2.69,-12.75,27.0,1.25,0.0,1.5,-0.01685263109752564,0.0423558757779437,0.0762429186589415,-150.9325061978301,-27.14787893324093,-10.22366575133618,0.0078,-0.968,-0.2347,-0.0891
826427.0,736.436956,1.0,1.77,0.28,-9.55,-5.38,-12.38,26.56,-0.69,-0.81,1.44,0.06488888858447403,-0.006860297452395303,0.09019270485084796,-150.97820441576042,-27.100727545597238,-10.212160888414617,0.0079,-0.9681,-0.2343,-0.08900000000000001
826460.0,736.439679,1.0,1.71,0.3,-9.63,-5.38,-12.38,26.56,-0.56,-1.06,1.5,0.012555667023430096,0.03644057270329834,0.02148191560376489,-151.0239731545222,-27.041794884833607,-10.177646918437086,0.0076,-0.9682,-0.2338,-0.0887
826497.0,736.479705,1.0,1.69,0.18,-9.78,-3.5,-13.19,27.5,0.12,-0.06,1.94,-0.08246145941906473,-0.05281337698224972,-0.11944242627340353,-151.06981274894218,-26.994654003838164,-10.166142467644526,0.0076,-0.9683,-0.2334,-0.0886
826531.0,736.537918,1.0,1.91,0.26,-9.87,-4.56,-12.0,26.69,-1.69,-0.19,2.13,0.13244017815415146,-0.08012679756356741,-0.24862917541440946,-151.16170585731885,-26.888604025029306,-10.154638119587414,0.0073,-0.9685,-0.2325,-0.0885
826566.0,736.596094,1.0,1.79,-0.03,-9.82,-4.56,-12.0,26.69,2.25,-16.44,7.94,-0.0380237381092719,-0.3027496372556591,-0.17053882513916285,-151.43912137388486,-26.723683975588173,-9.821056182581472,0.0071,-0.9691,-0.2311,-0.0856
826599.0,736.659039,1.0,1.54,-0.19,-9.79,-4.56,-13.19,26.19,-2.0,-11.31,7.88,-0.24318899421203896,-0.3754035444886181,-0.09545741670072694,-151.95469309277132,-26.39401255557817,-9.326587364176332,0.0059,-0.9702,-0.2283,-0.0813
826636.0,736.719487,1.0,1.56,0.07,-9.67,-3.88,-12.38,27.75,-9.75,-10.44,16.31,-0.059887719192839625,-0.20276786106973416,0.013657676118238982,-152.4315896826145,-25.9587156933802,-9.096661717453259,0.0037,-0.9712,-0.2246,-0.0793
826671.0,736.738855,1.0,1.22,0.53,-8.98,-3.88,-12.38,27.75,-11.56,-6.31,17.0,-0.04103945758474185,0.2793442649097283,0.7330629174519316,-152.965699486827,-25.476804175852642,-8.92424161449454,0.0009,-0.9723,-0.2205,-0.0778
826705.0,736.741571,1.0,0.7,1.58,-8.47,-3.5,-13.19,26.69,4.88,1.37,22.69,0.005857742001566191,1.4346678468168932,1.2820389322639227,-153.8627830260387,-24.54952511022461,-8.889760035755181,0.0005,-0.9741,-0.2126,-0.0775
826740.0,736.773141,1.0,0.38,1.47,-7.78,-4.19,-12.75,26.69,11.06,10.38,9.44,-0.2517707987428465,1.5159213157830689,2.0302566181516424,-154.16860854190614,-24.127512270969643,-9.142643881088318,0.0046,-0.9747,-0.209,-0.0797
826775.0,736.785525,1.0,0.42,2.11,-7.42,-4.19,-13.5,26.69,9.75,28.0,5.69,0.03796987634343324,2.1449398309483643,2.384878553094505,-154.0662728728033,-23.96348615709585,-9.706047414595153,0.0087,-0.9745,-0.2076,-0.0846
826810.0,736.802596,1.0,1.29,1.97,-8.11,-4.19,-13.5,26.69,32.38,38.56,-2.5,0.5299024295810282,1.915257387277448,1.5988431945492696,-153.41052586239525,-24.080642561887807,-10.902639624835572,0.02,-0.9732,-0.2086,-0.095
826847.0,736.844598,1.0,1.38,0.56,-8.12,-5.38,-12.0,28.19,37.13,41.88,-18.37,-0.050569798360442175,0.801539215908329,1.5903626644174107,-152.3835367338065,-24.608164621444825,-11.800859775906506,0.0317,-0.9711,-0.2131,-0.1028
826882.0,736.861429,1.0,1.83,0.38,-8.14,-6.5,-12.0,29.0,26.5,49.88,-24.0,0.08265677117071282,0.688500290041962,1.483667649376411,-150.56941987552764,-25.535549170145078,-13.437990937987554,0.0438,-0.9672,-0.221,-0.11699999999999999
826916.0,736.904268,1.0,2.73,0.24,-8.74,-6.5,-12.0,29.0,29.87,56.5,-23.25,0.4996827017115947,0.4711555623066683,0.6728430371986907,-149.07278485727542,-26.25279302590076,-14.858287755594215,0.0535,-0.9638,-0.2271,-0.1293
826949.0,736.92021,1.0,3.08,0.32,-8.86,-8.25,-11.25,29.0,28.87,56.19,-28.12,0.5552433253541393,0.6727862142309523,0.4617335445366102,-146.871240884656,-27.301153346475182,-16.767216307875252,0.0657,-0.9585,-0.23600000000000002,-0.1458
826986.0,736.957807,1.0,3.71,0.11,-9.0,-9.75,-10.25,31.0,26.12,57.13,-37.19,0.7404534941382951,0.4281452359001853,0.10898944293808556,-144.99354106549774,-28.292756752714663,-18.239683153744327,0.0744,-0.9537,-0.2444,-0.1585
827021.0,737.011629,1.0,3.98,0.13,-8.91,-9.75,-10.25,31.0,23.37,51.13,-43.19,0.7198936905851165,0.510084299611802,0.0872381308823389,-142.34696199162144,-29.902844499943303,-20.09912503821932,0.0844,-0.9465,-0.258,-0.1745
827056.0,737.0703269999997,1.0,4.58,-0.28,-9.27,-10.75,-9.06,29.5,25.94,51.25,-50.19,0.6551767397659372,0.1296284920340648,-0.5152509825575571,-140.20399733163396,-31.28093182906108,-21.473869337236096,0.0917,-0.9403,-0.2696,-0.1863
827092.0,737.092091,1.0,4.63,-0.15,-8.9,-12.56,-9.06,31.5,19.37,49.44,-50.81,0.5765653603753846,0.2784543132861013,-0.20631337657476934,-137.3712305266047,-33.177476600322066,-23.26107657942957,0.0997,-0.9316,-0.2855,-0.2016
827127.0,737.14856,1.0,4.74,0.71,-8.77,-12.88,-7.69,32.25,24.56,44.75,-52.06,1.0020067318298755,0.9898631680427378,-0.08783095747927305,-135.30656135192416,-34.57901199780452,-24.51434453810049,0.1053,-0.9249,-0.2972,-0.2123
827162.0,737.266177,1.0,4.84,0.2,-8.41,-12.88,-7.69,32.25,35.88,46.06,-57.88,0.6634324749526811,0.6026817384009326,0.14278265439885374,-132.2130251212284,-36.80615463747225,-26.041039726290627,0.1165,-0.9143,-0.3157,-0.2253
827197.0,737.3162440000001,1.0,5.65,-0.17,-8.48,-12.25,-7.75,30.69,40.19,55.63,-60.81,0.7535236029434957,0.09395801790395564,-0.3562813719358857,-129.7004663573504,-38.54969038931157,-27.348324709600163,0.1262,-0.9052,-0.3301,-0.2364
827234.0,737.337688,1.0,6.31,-0.87,-8.49,-13.69,-7.56,31.0,41.75,48.56,-59.06,0.4261159010020076,-0.4919889349923649,-0.787191235678316,-126.20062569892963,-40.93793375462537,-28.95502437185985,0.1411,-0.8918,-0.3497,-0.25
827269.0,737.340745,1.0,6.49,-1.01,-8.19,-13.69,-7.56,31.0,37.13,45.94,-60.19,0.3180948989994,-0.6498689014549431,-0.6667823908713101,-123.76914279530571,-42.69210790112656,-30.057061369867114,0.1498,-0.882,-0.364,-0.2593
827303.0,737.378338,1.0,7.01,-1.71,-8.3,-14.69,-4.56,31.75,42.0,43.5,-56.06,-0.20928865985608305,-1.1021517660253632,-1.1339011626015836,-120.61584152012749,-44.927644585005865,-31.340435037267948,0.1625,-0.8687,-0.3821,-0.2701
827338.0,737.385165,1.0,7.39,-2.32,-8.25,-14.88,-3.56,32.0,29.75,33.13,-47.5,-0.6413544657406808,-1.543381738285869,-1.3854738940247715,-118.54340107943031,-46.407242416234105,-32.138622347851936,0.1711,-0.8596,-0.39399999999999996,-0.2768
827375.0,737.402409,1.0,7.64,-2.24,-8.51,-15.75,-2.69,31.87,14.31,23.75,-35.13,-0.7889484943505709,-1.345076870077176,-1.7421866724465076,-116.4668582991344,-47.90761495262175,-33.08183396795116,0.1766,-0.8502,-0.406,-0.2847
827410.0,737.4055860000003,1.0,7.39,-2.12,-8.16,-15.75,-2.69,31.87,18.06,19.62,-28.94,-0.8455964858634922,-1.1534459552921632,-1.3130005795512965,-114.9378688809502,-48.95048376737758,-33.69196539056284,0.1829,-0.8431,-0.4143,-0.2898
827447.0,737.447368,1.0,7.53,-2.52,-8.25,-17.5,-2.0,32.38,11.13,14.38,-18.0,-1.2145635124855247,-1.3302926012612517,-1.5012656819092207,-114.06934451880512,-49.56818089392642,-34.02735703924717,0.1864,-0.8390000000000001,-0.4192,-0.2926
827482.0,737.4641,1.0,7.31,-1.39,-7.82,-16.75,-1.75,31.19,-10.19,11.06,-8.81,-0.34292300614612137,-0.7610980723545964,-0.9554935381671914,-113.64933964888505,-49.77021027536523,-34.435022863600715,0.1861,-0.8370000000000001,-0.4208,-0.29600000000000004
827516.0,737.504297,1.0,7.03,-0.46,-7.72,-16.75,-1.75,31.19,-7.38,5.06,-4.44,0.2154170878628533,-0.11607691521469544,-0.6418437492449574,-113.48199585621887,-49.75757860526172,-34.951245408405796,0.1836,-0.8362,-0.4207,-0.3003
827549.0,737.56521,1.0,6.65,-0.59,-7.58,-16.25,-1.5,31.69,5.13,1.75,-0.44,-0.02009394814954013,-0.026632244803606042,-0.2941364523899601,-113.33587511663835,-49.833378319901584,-34.97527349807247,0.1846,-0.8355,-0.4213,-0.3005
827586.0,737.643511,1.0,6.45,0.05,-7.35,-16.19,-2.0,31.69,-5.13,4.38,0.56,0.471423987637109,0.3410839355055033,0.04504556359609602,-113.31502385151421,-49.79547555361781,-35.095437786143385,0.1845,-0.8354,-0.42100000000000004,-0.3015
827621.0,737.702182,1.0,6.41,0.29,-7.32,-16.19,-2.0,31.69,0.69,4.31,-1.94,0.6350547964115272,0.498444502240645,0.10598721420331003,-113.23167638730342,-49.77021027536523,-35.25171097529378,0.1844,-0.835,-0.4208,-0.3028
827654.0,737.776808,1.0,6.42,-0.03,-7.38,-16.5,-2.0,31.69,11.88,7.25,-5.31,0.3538358348640612,0.3836412370696074,0.03888057176379967,-112.87847065921488,-49.985047701010245,-35.33588611084891,0.187,-0.8333,-0.4225,-0.3035
827688.0,737.797824,1.0,6.57,-0.26,-7.32,-17.5,-2.06,31.25,9.13,7.63,-2.0,0.25966015288139155,0.1782488619837963,-0.02776426563916523,-112.58882301862495,-50.12416021166318,-35.39602326525133,0.1899,-0.8319,-0.4236,-0.304
827725.0,737.83863,1.0,6.51,-0.24,-7.25,-17.5,-1.69,32.06,9.19,2.38,-4.88,0.26370659744593683,0.21443255566517985,0.06577337058237909,-112.25913519470078,-50.35196946524382,-35.46820114810156,0.1918,-0.8303,-0.4254,-0.3046
827760.0,737.85446,1.0,6.99,-0.99,-7.58,-17.5,-1.69,32.06,13.0,4.69,-3.19,-0.233410772836375,-0.246200010005716,-0.546200089042971,-111.91038320685793,-50.605340832368576,-35.43211039129503,0.1954,-0.8286,-0.4274,-0.3043
827797.0,737.857598,1.0,7.02,-1.17,-7.58,-17.87,-1.69,30.5,2.44,-2.0,2.19,-0.3450321403114991,-0.34884706450274905,-0.579155628247614,-111.88991732477224,-50.61801634307628,-35.33588611084891,0.1967,-0.8285,-0.4275,-0.3035
827832.0,737.875408,1.0,7.11,-1.38,-7.44,-17.87,-0.88,31.0,-0.63,-4.44,5.31,-0.4028522922521217,-0.6045245109581836,-0.5510698333551236,-112.05379617607242,-50.503960586262394,-35.21564193303898,0.1969,-0.8293,-0.4266,-0.3025
827865.0,737.905199,1.0,7.05,-1.47,-7.32,-17.87,-0.88,31.0,-7.0,-6.63,13.06,-0.3915842784369827,-0.7010627498480524,-0.4305846253105123,-112.56817591001142,-50.09886116048232,-34.93923195845143,0.19699999999999998,-0.8318,-0.4234,-0.3002
827899.0,737.9672469999997,1.0,6.96,-1.56,-7.47,-16.37,-1.25,31.37,-13.06,-9.19,16.06,-0.5051510203133854,-0.6244887050955523,-0.4904824311132607,-113.12762124009943,-49.555559524438046,-34.80711013090355,0.1962,-0.8345,-0.4191,-0.2991
827936.0,737.974558,1.0,7.17,-1.92,-7.59,-17.37,-1.25,30.56,-16.12,-11.31,25.69,-0.6203677160262127,-0.9091390214003792,-0.7523277032002298,-114.15363047105913,-48.64849167574625,-34.44701981345315,0.1954,-0.8394,-0.4119,-0.2961
827971.0,737.9919719999997,1.0,6.88,-1.65,-7.38,-17.37,-1.25,30.56,-26.06,-17.12,30.87,-0.3989195453748321,-0.7903638197660656,-0.3785101965174178,-115.27961518989136,-47.75718944121001,-34.17118813606689,0.1907,-0.8447,-0.4048,-0.2938
828006.0,737.995275,1.0,6.87,-1.11,-7.66,-15.88,-1.25,31.37,-33.56,-16.62,36.94,0.0363040489834664,-0.39873020891976063,-0.5347375392290665,-117.10092120050626,-46.158005222618215,-33.83566809114509,0.1841,-0.8531,-0.392,-0.29100000000000004
828041.0,738.039635,1.0,6.72,-0.8,-7.83,-16.25,-3.19,31.25,-28.56,-20.44,40.13,0.25608529620270315,-0.14193566336702568,-0.5384732273247153,-119.06117764081604,-44.51874337646561,-33.3449084936511,0.1766,-0.8619,-0.3788,-0.2869
828078.0,738.057632,1.0,6.0,-0.08,-7.59,-15.88,-4.19,32.56,-33.13,-22.31,40.0,0.562867207707741,0.5100587097952399,0.1610540817039574,-120.66212588661213,-43.25860308220909,-32.914516343671416,0.1701,-0.8689,-0.3686,-0.2833
828112.0,738.144049,1.0,6.02,-0.1,-7.94,-15.88,-4.19,32.56,-21.31,-16.37,39.25,0.5385075311678269,0.5919273729188007,-0.12580345441220686,-122.51745226375392,-41.64818266123672,-32.36526393220739,0.1644,-0.8768,-0.3555,-0.2787
828147.0,738.205217,1.0,5.84,0.49,-8.26,-15.19,-3.88,31.75,-22.12,-16.25,37.5,0.7939361662650246,1.2157940293167646,-0.2165635686203,-123.86648635871313,-40.461276767806375,-32.01938920775377,0.1605,-0.8824,-0.3458,-0.2758
828184.0,738.254905,1.0,5.62,0.69,-8.49,-15.56,-6.06,30.06,-12.06,-17.75,35.38,0.8269996376790035,1.5493425456292218,-0.2460217481265623,-125.47069041747116,-39.120753020773094,-31.35233671854589,0.1576,-0.8889,-0.3348,-0.2702
828219.0,738.274388,1.0,5.37,0.74,-8.92,-15.56,-6.06,30.06,-0.81,-18.0,27.31,0.6443299517136056,1.8937984317512,-0.4378249213037488,-126.42902677997118,-38.37977954174036,-30.769559206882434,0.1569,-0.8927,-0.3287,-0.2653
828254.0,738.2788879999997,1.0,5.44,0.49,-9.71,-15.19,-5.69,31.75,9.94,-19.19,23.75,0.42879394310238816,2.048882283558084,-1.1357454024007243,-127.45526250130641,-37.70100746591034,-29.8198276164604,0.1595,-0.8967,-0.3231,-0.2573
828289.0,738.326163,1.0,5.43,0.4,-10.46,-14.25,-6.19,31.25,11.81,-29.0,17.06,0.28622712889995217,2.3195094322902463,-1.751656537905898,-128.10621848828742,-37.43472359227642,-28.91952089539617,0.1617,-0.8992,-0.3209,-0.2497
828325.0,738.344796,1.0,5.25,0.02,-11.12,-14.69,-5.06,32.19,32.94,-37.5,13.0,0.056258257692580534,2.4130224818689765,-2.251188011452813,-128.89754271482937,-37.37423381555307,-27.277569433768978,0.1665,-0.9022,-0.3204,-0.2358
828360.0,738.3827719999997,1.0,6.3,-0.22,-11.65,-14.69,-5.06,32.19,36.81,-43.06,14.38,0.8225266463642089,1.9675227785649707,-3.2667276825978977,-129.40467932878911,-37.45892253150342,-25.770597576108926,0.1725,-0.9041,-0.3211,-0.223
828397.0,738.3897,1.0,5.47,0.25,-10.78,-14.25,-3.69,32.06,36.31,-70.31,5.56,1.3664502520376771,2.2202629206154287,-1.9999179294215919,-130.3242488651211,-37.79789028318413,-23.10900551875196,0.1772,-0.9075,-0.3239,-0.2003
828432.0,738.407396,1.0,4.44,-0.79,-9.34,-11.19,-1.37,32.56,63.06,-75.37,3.94,0.7757710655926708,1.2909221978532996,-0.4551724079779724,-130.6800872399157,-38.452587715507434,-20.54151049721856,0.1841,-0.9088,-0.3293,-0.1783
828467.0,738.454975,1.0,4.43,-1.18,-8.95,-11.19,-1.37,32.56,49.81,-70.69,-0.88,1.1574232090957068,0.7703611854197472,-0.1526027409964481,-130.84513444406196,-39.31538744994931,-17.26544349477142,0.1932,-0.9094,-0.3364,-0.1501
828502.0,738.500321,1.0,3.41,-1.79,-7.65,-9.0,0.75,32.06,60.75,-75.75,0.81,0.6880959634315307,0.2611515723387049,1.2735952245181092,-130.73504536519698,-40.22932427895751,-13.830376539145913,0.2023,-0.909,-0.3439,-0.1204
828536.0,738.5753530000003,1.0,2.6,-2.0,-6.81,-6.38,4.19,32.19,50.13,-60.31,-3.94,0.3112736116483482,0.1840101497652824,2.256461326630656,-130.40615307468192,-40.90124166576177,-11.535926836248436,0.2089,-0.9078,-0.3494,-0.1005
828573.0,738.578856,1.0,3.5,-2.19,-7.2,-6.38,4.19,32.19,45.25,-41.44,-6.81,1.0604220838272362,-0.3127488365356413,1.5808495423316329,-129.9166096140095,-41.501098206620334,-9.844059122531188,0.215,-0.9059999999999999,-0.3543,-0.0858
828606.0,738.631521,1.0,3.34,-2.11,-6.9,-4.19,6.06,31.87,45.56,-43.81,-5.25,1.2780081749220014,-0.2994825878977723,1.964794015325288,-129.1104989092044,-42.24952684009253,-7.729330710703709,0.2238,-0.903,-0.3604,-0.0674
828641.0,738.68742,1.0,2.83,-2.57,-5.94,-2.69,8.38,31.19,48.44,-34.0,-8.81,0.7701270335881364,-0.6756487601657652,2.8175296615723364,-128.05386288415187,-43.01216531236248,-5.869654220523909,0.2338,-0.899,-0.3666,-0.0512
828678.0,738.79301,1.0,3.2,-3.78,-6.17,-2.25,10.56,30.69,45.63,-18.87,-7.38,0.3760536311098603,-1.4722974952828016,2.0421008339560984,-127.17120439382437,-43.44356934572808,-4.814261580058959,0.2433,-0.8956,-0.3701,-0.042
828712.0,738.839739,1.0,2.94,-4.02,-6.06,-2.25,10.56,30.69,37.5,-23.31,-8.19,0.16686341990071266,-1.4328577782858996,2.0964829988057567,-126.149991690663,-44.03626472561431,-3.564372225995784,0.2521,-0.8916,-0.3749,-0.0311
828747.0,738.857189,1.0,2.26,-4.2,-5.78,-0.75,12.5,30.87,33.38,-21.94,-2.94,-0.3634595589777314,-1.184756441162918,2.4160986454588027,-125.49571017669872,-44.37020029186166,-2.6014518395409367,0.2579,-0.889,-0.3776,-0.0227
828784.0,738.8600389999997,1.0,2.44,-4.87,-6.01,-0.06,14.0,30.19,32.75,-7.44,-5.38,-0.5386374701153185,-1.4922752151254088,1.8521805420090889,-124.67557399344672,-44.69214333160206,-1.79916139442209,0.266,-0.8857,-0.3802,-0.0157
828819.0,738.863204,1.0,2.23,-5.37,-5.64,-0.06,14.0,30.19,14.38,0.0,-0.75,-1.0298344483460713,-1.7505263910792443,1.9648072087209727,-124.23291484122736,-44.76649060212525,-1.4438918508267422,0.2712,-0.8839,-0.3808,-0.0126
828852.0,738.9046969999997,1.0,1.83,-4.97,-5.47,0.69,15.06,30.5,-0.63,5.56,-1.37,-1.0752266183080097,-1.3126423755850218,2.384281259961518,-124.1105266335135,-44.76649060212525,-1.5470330404085568,0.2729,-0.8834,-0.3808,-0.0135
828889.0,738.921127,1.0,1.71,-5.39,-5.75,0.25,15.06,30.56,1.31,20.69,-2.88,-1.4318149624091214,-1.2807374764249781,1.974133327186468,-123.98838434414272,-44.69214333160206,-2.0054546535892377,0.2749,-0.8829,-0.3802,-0.0175
828923.0,738.923844,1.0,2.09,-5.36,-6.08,0.25,15.06,30.56,-13.44,21.5,2.19,-1.1433919497462195,-1.3199087774887852,1.6204057043315885,-124.1105266335135,-44.506361779453115,-2.6243761106355543,0.2753,-0.8834,-0.3787,-0.0229
828956.0,738.965992,1.0,2.41,-4.84,-6.39,-0.75,15.88,30.56,-25.56,28.31,4.38,-0.648710392349206,-1.0836199477427706,1.5319450121643552,-124.67557399344672,-44.03626472561431,-3.816604503074617,0.2719,-0.8857,-0.3749,-0.0333
828993.0,738.98312,1.0,2.64,-4.48,-6.77,-1.88,14.75,31.19,-33.31,32.06,5.94,-0.3707942108913077,-0.8524397630253555,1.3208525652515846,-125.47069041747116,-43.4312345665289,-5.284543793645802,0.2664,-0.8889,-0.37,-0.0461
829028.0,739.024723,1.0,2.83,-4.03,-6.72,-1.88,13.56,31.56,-35.31,36.31,1.75,-0.10159005300857343,-0.7508458831246765,1.51001755539186,-126.04885559306123,-42.99984891491943,-6.569694717687418,0.2612,-0.8912,-0.3665,-0.0573
829063.0,739.040473,1.0,3.07,-3.6,-7.06,-1.88,13.56,31.56,-45.75,42.44,4.0,0.12705790560731234,-0.4826595835599683,1.3225828140908489,-126.83731618493427,-42.32324429701836,-8.544988083393589,0.2536,-0.8943,-0.361,-0.0745
829100.0,739.094114,1.0,3.38,-3.8,-7.18,-3.38,12.06,31.56,-35.94,46.56,5.13,0.014075615070006988,-0.7193795485849006,1.0374370967721305,-127.37765090836372,-41.709489033737505,-10.13162973120474,0.2489,-0.8964,-0.35600000000000004,-0.0883
829134.0,739.13712,1.0,3.85,-3.71,-7.58,-4.56,11.38,32.75,-55.31,48.5,8.06,0.092842038550059,-0.7614276868529228,0.5624838270251917,-128.2635811405088,-40.75451706328899,-12.446181578242712,0.2393,-0.8998,-0.3482,-0.1084
829169.0,739.200704,1.0,3.99,-2.7,-7.95,-4.56,11.38,32.75,-53.38,44.0,4.88,0.5726498505168677,-0.05849011805576065,0.5286517754478517,-129.00391708769308,-40.05852194281655,-14.269118297459285,0.2291,-0.9026,-0.3425,-0.1242
829204.0,739.257374,1.0,3.69,-2.73,-7.6,-6.0,7.69,33.19,-43.88,45.25,14.69,0.0695395160142851,-0.08459322918948375,0.9287556414661148,-129.75442065073912,-38.93838987087892,-16.327188391573927,0.2214,-0.9054,-0.3333,-0.142
829239.0,739.313192,1.0,4.6,-1.82,-8.08,-7.38,6.19,31.87,-62.38,57.38,8.19,0.9808818249500236,0.2910308520718433,0.38794669813168703,-130.26971625278716,-38.0038595239246,-18.320928845487863,0.2133,-0.9073,-0.3256,-0.1592
829276.0,739.372411,1.0,4.96,-1.93,-8.74,-10.0,4.69,32.69,-46.5,55.19,6.88,0.6342378873457061,0.3744700461967729,-0.39979965140947904,-130.57034285366944,-36.92694357562125,-20.90263293758787,0.204,-0.9084,-0.3167,-0.1814
829310.0,739.377891,1.0,4.93,-2.18,-8.44,-10.0,4.69,32.69,-53.31,59.5,10.88,0.2193885377378153,0.10429895105005182,-0.20493780605350054,-130.70755912152916,-35.973855599658116,-22.75822922439662,0.1987,-0.9089,-0.3088,-0.1973
829347.0,739.393572,1.0,5.5,-1.7,-9.29,-12.25,1.25,34.5,-52.88,56.81,15.0,0.2462106358679241,0.5931873732346764,-1.103510817468294,-130.92785324394194,-34.61501807279963,-25.45330808515709,0.1879,-0.9097,-0.2975,-0.2203
829382.0,739.396951,1.0,6.15,-1.21,-9.32,-14.5,-1.25,33.69,-53.94,46.75,19.06,0.6874571490590579,0.6943041521127776,-1.3823778582442774,-131.1767984012427,-33.4525819599508,-27.218614801739264,0.1805,-0.9106,-0.2878,-0.2353
829415.0,739.437381,1.0,5.66,-0.22,-9.42,-14.5,-1.25,33.69,-53.69,49.69,21.62,0.4755328338636243,1.707336995716484,-1.0413576007981948,-131.56643317341502,-31.816774454596118,-29.357596603435567,0.1697,-0.912,-0.2741,-0.2534
829452.0,739.4543259999997,1.0,6.57,0.42,-9.82,-15.19,-3.56,32.88,-42.13,47.38,12.75,1.0057889542852292,2.0533423766324432,-1.792741090215184,-131.53850453910292,-30.74578979374247,-31.03111257231891,0.1633,-0.9119,-0.2651,-0.2675
829489.0,739.537866,1.0,6.66,0.04,-9.64,-17.25,-5.69,33.5,-27.0,35.5,5.69,0.5723604814355832,1.6726538872284005,-1.7761576239239414,-131.14907903681728,-29.9147053648035,-32.75921457984873,0.158,-0.9105,-0.2581,-0.282
829523.0,739.661381,1.0,6.46,0.39,-9.37,-17.25,-5.69,33.5,-23.19,19.19,4.63,0.5466364038876229,1.8656289473948129,-1.413921165167455,-131.0660093808112,-29.511618949559608,-33.632105380362496,0.1519,-0.9102,-0.2547,-0.2893
829556.0,739.673963,1.0,6.13,-0.01,-8.97,-18.0,-7.5,32.75,-5.75,14.0,-1.25,0.14512634738504776,1.4931557310904555,-0.9538018634677384,-130.79006103529238,-29.2983716924918,-34.29108977492126,0.1497,-0.9092,-0.2529,-0.2948
829591.0,739.720804,1.0,6.34,-0.29,-8.78,-19.37,-9.0,32.5,-6.69,12.88,-3.69,0.11817378987764715,1.1116574412479157,-0.9691725991663418,-130.46082634681812,-29.262840587223426,-34.85514889719688,0.1485,-0.9079999999999999,-0.2526,-0.2995
829628.0,739.737216,1.0,6.26,-0.74,-8.13,-19.69,-9.38,33.0,0.56,6.06,-2.81,0.07603070911425848,0.4968114594148628,-0.4685384510730817,-130.26971625278716,-29.32206069578229,-35.095437786143385,0.1481,-0.9073,-0.2531,-0.3015
829663.0,739.740275,1.0,6.16,-0.7,-7.89,-19.69,-9.38,33.0,-5.63,0.37,-2.31,0.11695763991618907,0.44290874322065255,-0.2172141628687249,-130.24247093533856,-29.33390567781849,-35.20361971980137,0.1466,-0.9072,-0.2532,-0.3024
829700.0,739.778304,1.0,6.09,-1.31,-7.38,-18.87,-10.5,33.38,0.31,-2.44,-2.06,-0.023513525206348085,-0.2714729304507589,0.15292794256718345,-130.26971625278716,-29.369442547321682,-35.16755548021839,0.1456,-0.9073,-0.2535,-0.3021
829734.0,739.7850599999997,1.0,5.77,-1.09,-6.72,-19.19,-10.06,32.25,-12.06,-2.0,4.44,0.1929453023723088,-0.2798028084814457,0.8890335864812879,-130.54294242265092,-29.1444243172648,-35.143514652215984,0.14300000000000002,-0.9083,-0.2516,-0.3019
829769.0,739.801505,1.0,5.85,-0.67,-7.24,-19.19,-10.06,32.25,-10.31,6.56,10.13,0.196835780517504,0.2468018640298573,0.4798421583309427,-130.70755912152916,-28.777535311725245,-35.37196719600466,0.141,-0.9089,-0.2485,-0.3038
829802.0,739.80529,1.0,5.8,-0.9,-7.3,-18.5,-10.88,33.38,-11.38,9.56,-3.5,-0.06326615680080844,0.07873778542015486,0.4402313805622171,-130.57034285366944,-28.61194247203445,-35.805224148583044,0.1384,-0.9084,-0.2471,-0.3074
829839.0,739.8473339999997,1.0,6.01,-0.71,-7.54,-18.75,-11.88,32.25,-17.06,11.0,-8.19,-0.03231514673407171,0.1957001892343609,0.14039647719059722,-130.40615307468192,-28.63559484770936,-36.28724251436374,0.1337,-0.9078,-0.2473,-0.3114
829874.0,739.864208,1.0,6.49,-0.53,-8.01,-18.75,-11.88,32.25,-14.06,15.06,-2.69,0.058277690517088136,0.3415872710168594,-0.5103758237084612,-130.13362905346793,-28.54099280947513,-36.80615463747225,0.1312,-0.9068,-0.2465,-0.3157
829908.0,739.86763,1.0,6.55,-0.68,-8.06,-20.25,-12.69,33.5,-9.38,10.19,-2.69,-0.11411578035407255,0.19182564615853914,-0.5990542294190728,-129.86249210271768,-28.446410631571002,-37.37423381555307,0.1284,-0.9058,-0.2457,-0.3204
829943.0,739.957032,1.0,6.22,-0.46,-7.53,-19.87,-13.75,31.5,-12.44,8.88,1.44,-0.02309802401275582,0.2710923549031947,0.03286488795667175,-129.75442065073912,-28.23367294753045,-37.81000260574194,0.1256,-0.9054,-0.2439,-0.324
829980.0,740.055024,1.0,6.41,-0.26,-7.48,-20.56,-13.0,31.5,-9.44,11.63,1.31,0.16880036183032526,0.3560612711510197,-0.039711094791936574,-129.61963621563214,-28.0210345439132,-38.209956332458226,0.1241,-0.9049,-0.2421,-0.3273
830013.0,740.066993,1.0,6.41,-0.37,-7.55,-20.56,-13.0,31.5,-8.69,7.69,-3.25,-0.002651335177611791,0.2684072254811727,-0.10069326304137503,-129.40467932878911,-27.950176987884003,-38.62253627833281,0.1217,-0.9041,-0.2415,-0.3307
830050.0,740.122366,1.0,6.04,-0.66,-7.1,-20.19,-14.5,31.5,-7.69,10.44,3.5,-0.19554263784634585,-0.013825452209581536,0.4638039703548955,-129.27076347961943,-27.867523616250335,-38.877624971743764,0.1211,-0.9036,-0.2408,-0.3328
830085.0,740.1789809999997,1.0,6.41,-0.08,-7.33,-20.19,-14.88,31.19,-14.44,14.63,1.69,0.11604136262960915,0.4365929553890517,0.07940367879153065,-129.0571819857357,-27.537057504249983,-39.522316021456795,0.1184,-0.9028,-0.23800000000000002,-0.3381
830119.0,740.309261,1.0,6.59,-0.35,-7.3,-20.19,-14.88,31.19,-6.81,12.19,-4.81,0.035896091240408934,0.11984549694709698,-0.033316896666631735,-128.76486449761614,-27.560654449020664,-39.948769456648414,0.1168,-0.9017,-0.2382,-0.3416
830154.0,740.31531,1.0,6.68,-0.07,-7.37,-21.37,-15.25,30.0,-7.88,12.94,0.44,0.10148853857061252,0.3531652251964069,-0.13363039847221006,-128.44773606463812,-27.43088596976693,-40.497916639737895,0.1149,-0.9005,-0.2371,-0.3461
830189.0,740.327971,1.0,6.95,0.13,-7.62,-20.56,-16.37,30.06,-9.38,11.88,-3.88,0.15217718880930808,0.5072679507299719,-0.4939966461755887,-128.1586232989387,-27.43088596976693,-40.92570257127247,0.1129,-0.8994,-0.2371,-0.3496
830224.0,740.331117,1.0,6.86,0.06,-7.44,-20.56,-16.37,30.06,-3.0,9.31,-3.75,0.09746979105566377,0.3854273780872048,-0.3056566298472383,-127.92318817469021,-27.478070348739482,-41.24387223496928,0.1108,-0.8985,-0.2375,-0.3522
830259.0,740.38322,1.0,6.92,-0.16,-7.57,-21.0,-16.69,29.56,-3.44,8.38,-2.0,-0.11201583254599654,0.23474390525640965,-0.4475807245450625,-127.6108060653337,-27.513461750107517,-41.586888761097505,0.1107,-0.8973,-0.2378,-0.355
830291.0,740.40266,1.0,6.91,-0.25,-7.44,-20.56,-16.37,30.5,3.06,2.75,-2.25,-0.11451176254231675,0.10843751089676124,-0.3491034610913992,-127.48115670522915,-27.57245336826063,-41.721751807135746,0.1103,-0.8968,-0.2383,-0.3561
830328.0,740.406546,1.0,7.0,-0.37,-7.48,-21.0,-16.69,29.19,-1.63,4.5,0.0,-0.15564467500060164,0.010422610275963251,-0.4433727367718081,-127.351803991908,-27.59605210118816,-41.819872014974116,0.1113,-0.8963,-0.2385,-0.3569
830361.0,740.448154,1.0,6.84,-0.23,-7.38,-21.0,-16.69,29.19,-0.31,1.56,0.25,-0.13947019788480125,0.1494811390369798,-0.2562076186376672,-127.3259688536123,-27.560654449020664,-41.89348323735908,0.111,-0.8962,-0.2382,-0.3575
830398.0,740.455397,1.0,6.69,-0.21,-7.12,-21.69,-16.69,29.19,-1.0,1.56,2.56,-0.06893406136159935,0.1308618917473986,0.035635556224345784,-127.3259688536123,-27.513461750107517,-41.89348323735908,0.1113,-0.8962,-0.2378,-0.3575
830433.0,740.473717,1.0,6.8,-0.01,-7.13,-21.0,-16.69,29.19,-0.88,2.13,0.25,0.08341635152682372,0.2657544289612035,-0.042178168659734894,-127.3259688536123,-27.466273808985672,-41.96711256530092,0.1108,-0.8962,-0.2374,-0.3581
830468.0,740.477326,1.0,6.94,-0.22,-7.29,-21.0,-16.69,29.19,2.38,-1.44,1.19,-0.025662610918779662,0.10172686298247267,-0.2603800027241672,-127.30014547607834,-27.501664319152926,-41.9548397514564,0.1113,-0.8961,-0.2377,-0.358
830502.0,740.524801,1.0,6.67,-0.23,-7.13,-22.06,-16.69,28.75,1.37,-0.81,0.44,-0.09599996324086926,0.12714572513214306,0.041747646589684,-127.351803991908,-27.48986718541275,-41.89348323735908,0.1114,-0.8963,-0.2376,-0.3575
830539.0,740.529383,1.0,6.71,0.0,-6.96,-21.0,-17.5,29.25,-3.63,0.19,1.06,0.1427243742500863,0.2433027399519653,0.14299988579745815,-127.37765090836372,-27.44268161964677,-41.90575353350423,0.1109,-0.8964,-0.2372,-0.3576
830572.0,740.6401070000003,1.0,6.69,-0.22,-7.01,-21.0,-17.5,29.25,3.19,-1.19,-0.94,-0.009672787231401327,0.07454176962689096,0.11443921185841788,-127.37765090836372,-27.478070348739482,-41.89348323735908,0.1108,-0.8964,-0.2375,-0.3575
830607.0,740.6999860000003,1.0,6.62,-0.17,-7.05,-21.37,-17.5,30.75,-1.75,-0.56,-0.31,-0.048053855518238514,0.14850213641160792,0.1354847164133819,-127.40350962041992,-27.501664319152926,-41.85667536570541,0.1105,-0.8965,-0.2377,-0.3572
830642.0,740.7194440000003,1.0,6.71,-0.23,-6.94,-21.37,-16.69,29.19,3.25,0.12,0.81,0.044095070928102026,0.02847851069156548,0.1506754453965815,-127.40350962041992,-27.501664319152926,-41.85667536570541,0.1107,-0.8965,-0.2377,-0.3572
830679.0,740.7231099999997,1.0,6.79,-0.25,-7.1,-22.5,-16.69,29.56,-2.19,1.63,-1.06,-0.02113563769677773,0.03986698189305304,-0.0205858223751747,-127.351803991908,-27.501664319152926,-41.91802433278389,0.1104,-0.8963,-0.2377,-0.3577
830711.0,740.7663259999997,1.0,7.0,-0.11,-7.3,-22.5,-16.69,29.56,-1.81,0.75,1.44,0.053789963663901236,0.15836672694049905,-0.3064171222734036,-127.351803991908,-27.44268161964677,-41.979385883293695,0.1099,-0.8963,-0.2372,-0.3582
830748.0,740.7827440000003,1.0,6.72,-0.16,-6.97,-20.56,-17.87,29.19,-0.56,-2.06,0.94,0.06122398140445037,0.08570567942548757,0.12399508718733365,-127.45526250130641,-27.407295558849807,-41.89348323735908,0.1097,-0.8967,-0.2369,-0.3575
830783.0,740.824878,1.0,6.75,-0.16,-7.04,-22.06,-17.5,29.56,-2.38,0.63,1.56,0.03882208289461425,0.0976025019729665,0.05274480272191795,-127.48115670522915,-27.3719121623715,-41.89348323735908,0.1094,-0.8968,-0.2366,-0.3575
830820.0,740.841612,1.0,6.74,-0.1,-7.07,-22.06,-17.5,29.56,-0.44,-0.88,0.81,0.04239074990566363,0.15590792225727926,0.03954215048283238,-127.5329807280848,-27.301153346475182,-41.90575353350423,0.1087,-0.897,-0.23600000000000002,-0.3576
830853.0,740.844413,1.0,6.83,-0.14,-7.24,-20.56,-17.06,29.19,0.0,-0.31,1.12,-0.0181649875017999,0.15277628781230898,-0.14636107399722142,-127.55891058236664,-27.277569433768978,-41.89348323735908,0.1087,-0.8971,-0.2358,-0.3575
