TIME,ELAPSED_SECONDS,PSTATE,acc_x,acc_y,acc_z,mag_x,mag_y,mag_z,gyr_x,gyr_y,gyr_z,lin_x,lin_y,lin_z,eul_x,eul_y,eul_z,qua_w,qua_x,qua_y,qua_z
1598631.0,605.203753,1.0,-3.12,0.39,-9.26,16.87,-21.56,31.25,6.13,-4.13,-0.5,0.11384229449877048,-0.2974382533379761,0.0325684361171561,-155.91878451766874,-13.2187858542384,19.06418290551579,-0.0535,-0.978,-0.1151,0.1656
1598668.0,605.252824,1.0,-3.3,1.24,-9.16,15.75,-20.75,31.25,15.19,3.81,1.19,0.12271065714409456,0.5918787992382296,0.010333264530718369,-155.97377873337675,-13.195714475135588,19.05256341690962,-0.0527,-0.9781,-0.1149,0.1655
1598703.0,605.2757809999998,1.0,-2.86,0.0,-9.31,15.75,-20.75,31.25,25.12,2.5,0.0,0.28813076964580203,-0.5681523127337028,0.08811700323970406,-156.25063177900063,-13.06883146764636,19.029325032716933,-0.0446,-0.9786,-0.1138,0.1653
1598738.0,605.315326,1.0,-3.84,1.14,-8.93,16.56,-19.0,30.5,-9.94,-4.06,-1.56,-0.4525368230675551,0.7535886014774169,0.058962343766278735,-156.0841409493743,-13.172643633299911,19.08742247639564,-0.0466,-0.9783,-0.1147,0.1658
1598775.0,605.362829,1.0,-3.15,0.27,-9.28,15.75,-19.25,31.75,28.37,4.19,2.25,0.09004908393412525,-0.15003984717234134,0.004447226809519478,-156.41828103776766,-12.999629346780695,19.05256341690962,-0.0397,-0.9789,-0.1132,0.1655
1598810.0,605.3880839999998,1.0,-3.29,0.22,-9.15,15.38,-19.25,30.87,-3.5,-0.63,-3.81,-0.0868911845317164,-0.1164184981504464,0.08173886131399932,-156.41828103776766,-12.999629346780695,19.05256341690962,-0.0377,-0.9789,-0.1132,0.1655
1598842.0,605.422825,1.0,-3.17,0.39,-9.4,15.38,-19.25,30.87,-6.38,1.75,-1.25,0.12622001608746025,-0.04267283967585223,-0.12024516093994285,-156.41828103776766,-13.114968872872085,18.982850632783478,-0.0399,-0.9789,-0.1142,0.1649
1598879.0,605.4444490000002,1.0,-3.19,0.28,-9.38,16.56,-19.0,32.25,-14.75,-1.06,0.44,0.06219070899794455,-0.1718776899957992,-0.10321833289908433,-156.41828103776766,-13.080365619179068,18.92476206303288,-0.0414,-0.9789,-0.1139,0.1644
1598916.0,605.480816,1.0,-3.47,1.24,-9.06,15.38,-19.69,32.25,4.63,2.06,-0.63,-0.07688269909887735,0.7733652952544394,0.05687589130007886,-156.25063177900063,-13.230321745568984,18.901528010085144,-0.046,-0.9786,-0.1152,0.1642
1598951.0,605.558542,1.0,-3.02,-0.14,-9.39,15.38,-19.69,32.25,15.69,3.0,2.31,0.11670489281252272,-0.6131192821447522,-0.038275835873823986,-156.41828103776766,-13.103434321670447,18.88991127772655,-0.0413,-0.9789,-0.1141,0.1641
1598984.0,605.566334,1.0,-3.14,0.66,-9.45,15.38,-19.69,32.69,-18.19,-2.44,-1.44,0.1976742252155439,0.10916380503432928,-0.17065966565415636,-156.36226771891504,-13.230321745568984,18.83183055191492,-0.0452,-0.9788,-0.1152,0.1636
1599019.0,605.6179599999998,1.0,-3.13,0.61,-9.31,15.75,-19.69,31.37,8.5,-0.81,3.19,0.15570812198710238,0.0610891059881937,-0.032919253878791466,-156.30638493987288,-13.195714475135588,18.86667840059343,-0.0459,-0.9787,-0.1149,0.1639
1599055.0,605.6242,1.0,-3.17,0.0,-9.18,15.38,-20.06,31.37,-4.5,-0.5,-1.0,-0.051147443046993146,-0.4501313634304168,0.10530650052911383,-156.36226771891504,-13.103434321670447,18.92476206303288,-0.0428,-0.9788,-0.1141,0.1644
1599090.0,605.663532,1.0,-3.1,0.56,-9.43,15.38,-20.06,31.37,-10.69,1.12,0.75,0.2047257216917968,-0.02327301589412714,-0.1334730246717264,-156.30638493987288,-13.161108413553293,18.855062255560348,-0.0466,-0.9787,-0.1146,0.1638
1599127.0,605.703325,1.0,-3.56,0.96,-9.17,15.75,-19.25,33.06,-12.06,-3.88,0.19,-0.2054479142074364,0.4518182412692376,-0.06440624699830266,-156.25063177900063,-13.172643633299911,18.86667840059343,-0.0488,-0.9786,-0.1147,0.1639
1599164.0,605.741978,1.0,-3.38,0.78,-9.13,16.87,-20.06,32.56,5.13,1.25,-0.25,-0.09818888871276177,0.2567656643401786,0.043754408232700825,-156.25063177900063,-13.161108413553293,18.843446306043926,-0.0482,-0.9786,-0.1146,0.1637
1599197.0,605.7673639999998,1.0,-3.0,0.37,-9.43,16.87,-20.06,32.56,-2.69,0.63,-0.37,0.2390888795087193,-0.2440851557413189,-0.09006960522485485,-156.36226771891504,-13.103434321670447,18.796984460560502,-0.0474,-0.9788,-0.1141,0.1633
1599232.0,605.814035,1.0,-3.41,1.05,-9.3,16.19,-19.69,31.75,-13.75,-1.0,-1.0,-0.02434210893285127,0.4598360254398189,-0.14365443209856998,-156.25063177900063,-13.195714475135588,18.773754707559725,-0.0505,-0.9786,-0.1149,0.1631
1599268.0,605.838749,1.0,-3.0,0.29,-9.33,16.87,-20.06,33.06,17.56,0.0,1.44,0.18909459461216271,-0.3086368549270743,0.008589654907751765,-156.36226771891504,-13.103434321670447,18.796984460560502,-0.0474,-0.9788,-0.1141,0.1633
1599303.0,605.884712,1.0,-3.34,0.48,-9.25,16.87,-20.06,33.06,-10.88,-2.19,-3.13,-0.09493943576412067,-0.06468301668786247,-0.038922741638192086,-156.25063177900063,-13.207250097467805,18.855062255560348,-0.0486,-0.9786,-0.115,0.1638
1599338.0,605.92488,1.0,-3.02,0.62,-9.5,15.75,-19.0,30.87,10.75,0.75,2.44,0.3096380599277853,-0.03559238110684804,-0.1762181977802033,-156.25063177900063,-13.184178987120148,18.855062255560348,-0.0489,-0.9786,-0.1148,0.1638
1599373.0,605.948742,1.0,-3.12,0.13,-9.32,16.56,-20.06,32.25,4.06,-7.13,1.25,0.08996674391409988,-0.4313619032713776,-0.012694830150104863,-156.19500732541925,-13.057297449093687,19.09904255892851,-0.0467,-0.9785,-0.1137,0.1659
1599410.0,605.990003,1.0,-3.39,0.9,-9.05,16.19,-19.25,31.75,-13.25,-1.06,-1.31,-0.05676167967477853,0.3317165179449581,0.10658081140948994,-155.91878451766874,-13.2187858542384,19.145524872704485,-0.0508,-0.978,-0.1151,0.1663
1599442.0,606.0301469999997,1.0,-3.05,0.34,-9.32,16.19,-19.25,31.75,16.25,-0.06,4.88,0.21903760314074128,-0.2705530927837835,0.0005639534473065313,-156.0841409493743,-13.011162702254634,19.203632237851558,-0.048,-0.9783,-0.1133,0.1668
1599479.0,606.0459400000002,1.0,-3.47,0.55,-9.14,16.19,-19.25,32.25,-14.63,-11.13,-0.5,-0.12022277029813801,0.0026052384212738033,0.015401882510857943,-155.75453926974473,-12.976563032466052,19.54075377357945,-0.0497,-0.9777,-0.113,0.1697
1599516.0,606.09562,1.0,-3.71,0.84,-9.1,16.19,-19.69,33.06,-5.13,0.25,2.69,-0.2823599877149177,0.2710554575858133,-0.048627863979819,-155.591382770185,-13.011162702254634,19.587266633669245,-0.0532,-0.9774,-0.1133,0.1701
1599551.0,606.112886,1.0,-3.73,0.41,-9.58,16.19,-19.69,33.06,3.69,-10.06,6.88,-0.2324184782103278,-0.21179205653666192,-0.4772464296503109,-155.6456486519571,-12.838176201349,19.691932497848974,-0.0529,-0.9775,-0.1118,0.171
1599586.0,606.153055,1.0,-3.92,0.56,-9.46,16.19,-19.69,31.75,-4.63,-6.0,7.5,-0.3419592823966944,-0.0574115330751156,-0.4428069497633711,-155.4292933262199,-12.526874248925028,20.11076285425295,-0.0542,-0.9771,-0.1091,0.1746
1599621.0,606.216151,1.0,-4.9,1.32,-10.33,16.56,-20.06,30.87,-7.13,-19.12,5.75,-0.7310349753359291,0.6772813802735392,-1.6593073432300167,-155.16145880106285,-12.400074265032766,20.378490735265764,-0.0567,-0.9766,-0.10800000000000001,0.1769
1599657.0,606.224995,1.0,-5.15,-1.17,-10.22,16.56,-19.69,30.5,31.25,-40.0,-1.37,-1.2878960128373358,-1.6175854397499674,-1.5099104847597855,-154.3228637180319,-12.111948910357555,21.7305176882842,-0.0518,-0.975,-0.1055,0.1885
1599692.0,606.259499,1.0,-6.31,-0.08,-10.38,16.56,-19.69,30.5,32.94,-58.0,57.0,-1.6060893677067685,-0.4031230921043909,-2.2276704509249914,-153.5103719816942,-10.22366575133618,23.79950985538602,-0.0455,-0.9734,-0.0891,0.2062
1599729.0,606.314535,1.0,-4.59,3.62,-10.62,17.25,-19.0,31.69,-0.56,-32.38,0.12,0.8750404054294767,2.813477365682065,-1.9524124371869245,-152.91671705681662,-9.303593121383253,24.725463298356363,-0.0485,-0.9722,-0.0811,0.2141
1599766.0,606.334561,1.0,-6.11,1.12,-8.86,18.37,-20.06,32.06,31.25,-61.5,-51.06,-1.1698287456213388,1.027686281569492,-0.901359227330346,-150.479330837061,-10.591876570929834,27.065367073658557,-0.0389,-0.9670000000000001,-0.0923,0.23399999999999999
1599799.0,606.375997,1.0,-5.36,1.46,-7.43,18.37,-20.06,32.06,62.88,-46.81,21.69,-0.7878848266372516,1.5766637846689957,0.6984411305203313,-149.07278485727542,-10.154638119587414,28.978694933911964,-0.0261,-0.9638,-0.0885,0.2502
1599834.0,606.434675,1.0,-2.83,2.83,-10.35,20.19,-19.69,29.75,41.13,-5.69,-6.31,3.1544826999456332,2.541413910596672,-0.524407749851628,-148.60349534227024,-9.752049739225924,29.72497078004789,-0.0121,-0.9627,-0.085,0.2565
1599870.0,606.453837,1.0,-3.69,0.34,-7.83,20.69,-17.75,29.69,62.63,-65.62,-87.87,1.0339603233497436,0.6701724829834741,1.232129903062198,-146.59103083752737,-11.397725602729444,31.292831778140112,0.0032,-0.9578,-0.0993,0.2697
1599907.0,606.462765,1.0,-6.66,-1.22,-4.33,23.25,-16.0,29.69,-20.44,-48.88,-74.94,-3.19374686153407,0.2558976618825703,2.435937865403755,-142.81135091208287,-14.812064314477515,33.883581162404816,0.011000000000000001,-0.9478,-0.1289,0.2914
1599940.0,606.511333,1.0,-3.29,2.46,-6.27,23.25,-16.0,29.69,-15.81,18.25,-59.44,1.5426691867592814,2.8790803822175146,3.0598234917108065,-141.95828650840244,-16.651395613206027,33.90753998612701,0.011000000000000001,-0.9454,-0.1448,0.2916
1599979.0,606.553813,1.0,-2.14,-2.37,-7.97,25.25,-14.0,29.69,72.56,8.5,-97.56,2.008316324756765,-1.8007953457524637,1.6555027394953932,-140.98575914579104,-19.470990576087328,33.2731430190265,0.0319,-0.9426,-0.1691,0.2863
1600014.0,606.602313,1.0,-4.01,-2.15,-5.4,26.0,-12.19,30.56,-51.88,-7.75,-105.25,-0.79950560469836,-0.6443444129827295,2.820362640785961,-139.33764146351638,-22.2091125181558,33.29706335021371,0.0392,-0.9377,-0.1926,0.2865
1600049.0,606.621263,1.0,-2.94,-1.07,-5.32,26.0,-12.19,30.56,-66.5,60.5,-124.62,0.07664362369377797,-0.028081030081878167,3.635407239364455,-137.75115489107054,-27.761276718209416,31.06679175207397,0.0248,-0.9328,-0.2399,0.2678
1600083.0,606.667283,1.0,-1.68,-2.35,-7.14,27.06,-10.69,29.25,23.94,76.62,-79.25,1.048619445390905,-1.5256396145170603,2.3301989016937794,-137.27675296577294,-30.94787313807167,28.31639242391693,0.040999999999999995,-0.9313,-0.2668,0.2446
1600118.0,606.72248,1.0,-2.18,-4.29,-7.53,26.25,-8.75,31.37,-14.06,72.19,-62.88,-0.3053036768972106,-2.636878682177589,1.2737102673902319,-137.1824741414482,-32.436861947325646,26.48818157203767,0.0526,-0.9309999999999999,-0.2793,0.2291
1600155.0,606.741618,1.0,-1.24,-2.58,-8.35,25.19,-7.38,32.56,-74.25,78.19,-69.19,0.9707321494974664,-1.6669395422289977,1.1929695057812015,-137.21387841569043,-35.32385988676265,22.75822922439662,0.0453,-0.9311,-0.3034,0.1973
1600190.0,606.791795,1.0,-1.14,-3.08,-8.71,25.19,-7.38,32.56,-45.75,84.87,-34.13,0.4409844383754765,-2.0444579705124317,0.7360477966223815,-137.339715842895,-36.92694357562125,20.05257586733213,0.0418,-0.9315,-0.3167,0.1741
1600227.0,606.848298,1.0,-0.78,-2.17,-8.27,24.0,-7.75,32.25,-49.94,96.44,0.19,0.4982546314868603,-1.4035544298898972,1.3513571437744791,-138.81318085103794,-37.37423381555307,16.095692494623034,0.0375,-0.9361,-0.3204,0.14
1600264.0,606.8600650000002,1.0,0.58,-3.09,-9.37,21.25,-9.38,34.69,-73.87,129.25,-5.13,0.6727184303847085,-2.891624433153292,0.3797014984427971,-140.1031128223946,-37.604152605861614,12.307865676783145,0.0314,-0.94,-0.3223,0.1072
1600296.0,606.8666969999998,1.0,0.31,-2.9,-9.86,21.25,-9.38,34.69,-75.81,104.06,38.38,-0.2050390661340483,-2.4949620537855624,-0.16625445815706108,-142.16981440543415,-37.02360533619834,7.086273935339353,0.021,-0.946,-0.3175,0.0618
1600331.0,606.913816,1.0,0.82,-1.12,-8.16,17.5,-10.5,36.25,-5.38,120.81,48.75,0.4974502892239152,-1.1169767591485744,1.6202401562850532,-144.65224571956077,-35.131494837214326,2.578527672575933,0.0245,-0.9528,-0.3018,0.0225
1600368.0,606.972455,1.0,2.74,-3.74,-13.5,13.38,-13.88,36.25,-64.75,130.31,50.13,0.04094449093160391,-3.863782387290473,-3.9343364715866076,-146.39227073603638,-33.416687431310486,-1.6730962049034406,0.025,-0.9573,-0.2875,-0.0146
1600405.0,606.9900230000002,1.0,1.54,-1.28,-10.06,13.38,-13.88,36.25,-103.5,94.37,67.44,-0.3864908212355179,-1.5279884642696486,-0.3289050463780523,-148.8159549371668,-30.50817000692102,-6.340147475413157,0.0032,-0.9632,-0.2631,-0.0553
1600440.0,607.036402,1.0,3.52,-1.91,-12.45,7.38,-15.0,37.69,2.5,83.44,108.87,0.30002522957622224,-2.7657578881205884,-2.9723001981155117,-150.84131999821054,-27.60785191517117,-9.096661717453259,0.0033,-0.9678,-0.2386,-0.0793
1600477.0,607.057072,1.0,4.05,-0.16,-15.18,4.0,-17.87,38.25,-87.12,21.12,90.37,0.5038755169318219,-1.491544757271373,-5.826069011755214,-153.8627830260387,-23.26107657942957,-11.628070333672753,-0.0123,-0.9741,-0.2016,-0.1013
1600512.0,607.101319,1.0,3.77,-0.84,-13.16,-0.37,-19.75,37.56,-5.13,-15.19,109.87,0.4762984045024652,-2.078503356339481,-3.741673277348896,-156.70033876277134,-20.00603003933895,-11.685663847129462,-0.0178,-0.9794,-0.1737,-0.1018
1600546.0,607.115887,1.0,2.77,2.02,-12.83,-0.37,-19.75,37.56,-56.94,-28.0,116.69,0.5815864878769226,0.8222060992164453,-3.435250705243572,-161.14943788464137,-14.858287755594215,-11.121372822035768,-0.0287,-0.9865,-0.1293,-0.0969
1600581.0,607.1563219999998,1.0,2.27,2.15,-12.83,-2.88,-20.87,36.38,-48.06,-36.31,64.87,0.244025819494176,0.7348787548631218,-3.376092681819703,-163.94405112777469,-11.3631779010396,-10.10862175233956,-0.0443,-0.9902,-0.099,-0.0881
1600620.0,607.21382,1.0,2.35,3.27,-12.97,-4.38,-22.5,35.25,-21.56,-82.31,106.19,0.7815511417097298,1.6644792223747211,-3.6490174576616656,-166.92746455946425,-8.188805090876484,-8.292204739238791,-0.0519,-0.9935,-0.0714,-0.0723
1600655.0,607.228271,1.0,1.61,6.36,-12.54,-3.19,-22.25,35.75,-8.13,-97.56,70.56,1.013691014793977,4.802777409359712,-3.467349385364985,-170.54785856879653,-4.871608567013157,-4.745446786894516,-0.0558,-0.9966,-0.0425,-0.0414
1600690.0,607.268103,1.0,0.38,2.84,-10.91,-3.19,-22.25,35.75,12.31,-108.62,-7.94,0.2518262917948829,1.6424889778195988,-1.3502722223918902,-172.22653193357402,-4.573417240623146,-1.5928739664684124,-0.053,-0.9977,-0.0399,-0.0139
1600727.0,607.328329,1.0,-0.41,2.69,-11.43,-1.69,-21.5,35.75,30.25,-122.87,56.19,0.2739599063933589,1.5612307621739787,-1.835368917564541,-172.93498296022824,-3.2892294003721183,2.7848490011177405,-0.049,-0.9981,-0.0287,0.0243
1600763.0,607.34478,1.0,-1.32,3.29,-9.75,1.19,-22.37,34.88,14.13,-114.31,10.56,-0.13511435896944113,2.447841061832981,-0.2739659656047149,-171.7348937308485,-2.0971425933011094,6.225383461526625,-0.0437,-0.9974,-0.0183,0.0543
1600796.0,607.408766,1.0,-1.26,2.93,-9.93,1.19,-22.37,34.88,38.94,-105.69,-34.25,0.7000127750447126,2.159125167138085,-0.3730140724242528,-168.30883818145554,-3.15166519950434,10.327214181692757,-0.0389,-0.9948,-0.0275,0.09
1600833.0,607.438123,1.0,-2.46,5.29,-7.98,4.88,-21.0,35.69,15.44,-101.87,3.5,-0.09606407938438366,4.852609530402334,1.1950849600028892,-164.87335484809628,-3.025568677774776,14.373061379793725,-0.0302,-0.9913,-0.0264,0.1251
1600870.0,607.4504820000002,1.0,-2.94,2.05,-8.47,8.19,-20.87,35.38,47.38,-57.81,-73.31,-0.2671312727844393,1.8899835183981863,0.8097837020447045,-162.91040944456057,-4.332593112917143,16.419805484293857,-0.016,-0.9889,-0.0378,0.1428
1600905.0,607.46596,1.0,-1.52,0.03,-7.42,8.19,-20.87,35.38,39.31,-63.31,-82.5,0.8778992029002066,0.014787731184466203,2.2835672334372394,-160.59764077497127,-6.661520952908496,18.1816561801528,-0.0035,-0.9857,-0.0581,0.158
1600940.0,607.5116360000002,1.0,-2.66,2.23,-8.12,10.5,-19.37,35.0,18.87,-46.25,-5.69,0.6870778857314733,2.38831078607817,1.3327609537567469,-157.92374967519896,-7.488156943849511,20.716221183013424,0.0016,-0.9815,-0.0653,0.1798
1600974.0,607.5524379999998,1.0,-3.07,1.49,-6.82,14.69,-17.56,34.0,47.44,-36.5,-68.5,0.031007076443932306,1.9875434603920723,2.4441701491438304,-155.6456486519571,-9.418568108565768,22.325902171258928,0.0167,-0.9775,-0.0821,0.1936
1601011.0,607.6042309999998,1.0,-2.68,-3.45,-5.47,15.75,-16.69,34.88,-22.81,-17.31,-63.94,-0.8690282069457606,-2.7593096700720725,3.431949997632879,-153.96433257658236,-11.30560069930953,23.144095168471857,0.0273,-0.9743,-0.0985,0.2006
1601044.0,607.620009,1.0,-2.21,-0.93,-7.85,15.75,-16.69,34.88,5.88,-4.44,-0.12,0.9536738349016232,-0.3882110245529653,1.663475040744883,-153.66083809692267,-11.962154211464537,23.21428107252436,0.0248,-0.9737,-0.1042,0.2012
1601081.0,607.6760889999998,1.0,-2.34,-1.75,-8.34,18.06,-14.88,34.88,19.75,-11.06,-29.5,0.9544191420875654,-0.9994437390649809,1.0783113084928535,-153.06392657993817,-12.111948910357555,23.62387580431868,0.0342,-0.9725,-0.1055,0.2047
1601118.0,607.740995,1.0,-2.77,-2.17,-7.84,17.69,-15.56,33.69,-26.06,-1.25,-31.75,0.2465810747789325,-1.303805315237039,1.316261936223377,-152.33556563307292,-13.680327762024126,23.62387580431868,0.0331,-0.971,-0.1191,0.2047
1601153.0,607.754379,1.0,-3.22,-3.08,-8.46,17.69,-15.56,33.69,-9.44,2.63,-5.69,-0.15270452764252762,-2.113049933191726,0.4825896555429807,-152.1444912618588,-14.280666944469896,23.506817731301986,0.0292,-0.9706,-0.1243,0.2037
1601185.0,607.761814,1.0,-3.25,-0.81,-8.88,18.19,-13.0,34.0,-11.94,-7.44,2.56,0.5310860094271725,0.02725889826055192,0.3308806590411173,-152.09692309623645,-14.24602144035678,23.68241421184977,0.0259,-0.9705,-0.124,0.2052
1601220.0,607.801853,1.0,-3.88,-2.04,-7.56,18.87,-15.19,34.75,-13.63,6.81,-17.56,-0.8620569366413786,-0.9956663969158244,1.1674887985846,-151.9074399210319,-14.696516297153034,23.62387580431868,0.0251,-0.9701,-0.1279,0.2047
1601259.0,607.843775,1.0,-3.37,-1.01,-9.96,18.87,-14.06,34.0,-20.62,17.0,-1.19,0.6107482404877671,-0.28926467546423296,-0.7347878779305894,-152.47972490837182,-15.239724647140953,22.723163534007305,0.0163,-0.9713,-0.1326,0.19699999999999998
1601292.0,607.891383,1.0,-2.82,-1.93,-9.64,18.87,-14.06,34.0,44.0,10.94,12.19,0.741401510111138,-1.1907214611392636,-0.3244608079414117,-152.7702885732456,-14.800508833176535,22.53618284114898,0.0228,-0.9719,-0.1288,0.1954
1601329.0,607.9122160000003,1.0,-3.46,-0.04,-8.95,18.87,-15.19,34.75,-45.06,3.5,-7.19,0.3134137631791514,0.7355451707928508,0.2444094092820919,-153.06392657993817,-14.765843296845908,22.302542365509357,0.0189,-0.9725,-0.1285,0.1934
1601366.0,607.953393,1.0,-2.99,-0.61,-9.9,18.19,-15.19,34.88,-7.5,7.88,-10.0,0.891368117712027,-0.035458505947192166,-0.5145129951804623,-153.1625065187994,-15.10100089527667,22.01062364188303,0.013999999999999999,-0.9727,-0.1314,0.1909
1601398.0,607.9673650000002,1.0,-3.24,-0.75,-9.26,18.19,-15.19,34.88,18.62,-8.25,16.06,0.4449625874947143,0.0029916681223914328,-0.0223733159582995,-153.06392657993817,-14.881400387429185,22.232468575814032,0.0194,-0.9725,-0.1295,0.1928
1601433.0,608.025904,1.0,-3.54,-0.96,-9.14,17.75,-14.88,34.38,11.81,-5.31,8.06,0.1382919671026488,-0.09002879317263338,-0.040459735766877,-153.06392657993817,-14.338412369029564,22.524498571325392,0.0222,-0.9725,-0.1248,0.1953
1601470.0,608.072367,1.0,-3.44,-0.12,-9.8,16.69,-14.5,34.0,-35.19,9.94,-15.63,0.6181592450861106,0.5966921726674619,-0.5446705726995038,-153.21193002249612,-14.604088706058507,22.244146955349766,0.0168,-0.9728,-0.1271,0.1929
1601505.0,608.0865679999997,1.0,-2.63,-1.58,-9.76,16.69,-14.5,34.0,23.56,-1.44,-5.81,0.9772763068122716,-0.9515246120995564,-0.3328979155982168,-153.06392657993817,-14.823619947246295,22.22079043012782,0.02,-0.9725,-0.129,0.1927
1601540.0,608.115739,1.0,-3.94,0.19,-8.74,18.5,-14.88,34.88,-26.94,-8.25,14.31,-0.12478656997540336,0.9954123245779422,0.2703570820977745,-153.06392657993817,-14.54632631618216,22.466080778094224,0.0147,-0.9725,-0.1266,0.1948
1601574.0,608.148835,1.0,-3.36,0.05,-9.19,18.5,-14.5,34.06,2.81,8.94,-12.44,0.4942601172453522,0.7052201791564829,0.059518553496820566,-153.11317220133924,-14.84673166768115,22.232468575814032,0.0141,-0.9726,-0.1292,0.1928
1601611.0,608.193424,1.0,-2.75,-1.79,-9.58,18.5,-14.5,33.56,10.94,-4.56,-7.25,0.7367067653965633,-1.1427773783674118,-0.2280060980090717,-152.91671705681662,-15.205041610922965,22.2091125181558,0.0185,-0.9722,-0.1323,0.1926
1601644.0,608.218015,1.0,-3.67,-0.3,-9.07,18.5,-14.5,33.56,-8.31,-9.13,1.56,0.1468578255431321,0.4814757522780213,0.030637833526133917,-152.62462859250311,-15.239724647140953,22.54786734834884,0.0155,-0.9716,-0.1326,0.1955
1601681.0,608.2617349999998,1.0,-3.67,-1.34,-8.96,18.87,-15.19,33.56,-18.19,9.31,-2.38,-0.17824135354424575,-0.5188724259061284,0.04729031682810536,-152.67309729035,-15.332219618835126,22.431032941974188,0.0152,-0.9717,-0.1334,0.1945
1601718.0,608.318666,1.0,-3.11,-0.12,-9.89,18.5,-14.5,34.75,2.06,-3.5,5.81,0.9666195747359884,0.4456636391185133,-0.5067214428650768,-152.81901206638815,-15.18192036535379,22.372624603038307,0.0132,-0.972,-0.1321,0.19399999999999998
1601753.0,608.3236820000002,1.0,-3.96,-0.7,-8.52,18.5,-14.5,34.75,0.56,-17.69,2.88,-0.3743551801636358,0.1527924689954302,0.39397170630999945,-152.47972490837182,-15.02008899858815,22.86343926833653,0.0146,-0.9713,-0.1307,0.1982
1601785.0,608.363675,1.0,-3.84,-0.69,-8.7,18.5,-15.19,34.38,-12.0,5.63,-0.75,-0.21035502741682727,0.07706561850646271,0.2745195113377381,-152.52794284369597,-15.089441590206313,22.816676842803346,0.0117,-0.9714,-0.1313,0.1978
1601822.0,608.404275,1.0,-3.06,-0.58,-9.43,18.87,-15.19,33.06,17.0,4.63,1.31,0.7388224312307874,-0.0595094942943664,-0.09665753007292288,-152.67309729035,-15.18192036535379,22.524498571325392,0.0103,-0.9717,-0.1321,0.1953
1601859.0,608.4564889999998,1.0,-3.41,-1.47,-9.01,19.25,-16.0,31.87,-14.44,-9.63,8.88,0.1007245637323808,-0.763308198609598,0.0919026972547421,-152.62462859250311,-14.869843995469049,22.79329707445838,0.0138,-0.9716,-0.1294,0.1976
1601892.0,608.480424,1.0,-3.87,0.52,-8.94,19.25,-16.0,31.87,-28.19,2.13,-3.19,0.13424020920750454,1.1241590190147854,0.11700882675732414,-152.62462859250311,-15.02008899858815,22.75822922439662,0.0053,-0.9716,-0.1307,0.1973
1601929.0,608.5163150000002,1.0,-2.83,-2.3,-9.74,17.37,-15.19,34.0,35.56,9.19,-5.44,0.6300062919262157,-1.7390840056251526,-0.4278592160548751,-152.81901206638815,-15.02008899858815,22.466080778094224,0.0129,-0.972,-0.1307,0.1948
1601964.0,608.5367809999998,1.0,-3.63,0.02,-8.84,18.5,-15.56,34.0,-23.87,-7.38,19.37,0.1613391009932672,0.6819734777880233,0.2760790900238081,-152.965699486827,-14.627194705880914,22.582922295565638,0.011000000000000001,-0.9723,-0.1273,0.1958
1601998.0,608.5824,1.0,-3.59,-0.02,-9.13,18.5,-15.56,34.0,13.56,3.25,6.69,0.2951336362110111,0.5702811971733992,0.017213065583019826,-153.21193002249612,-14.084359674365961,22.629665556706637,0.009000000000000001,-0.9728,-0.1226,0.1962
1602033.0,608.631987,1.0,-3.39,-0.32,-9.5,18.19,-16.0,32.75,6.56,9.25,-5.5,0.5053077470198302,0.2983181313835387,-0.2680792952857853,-153.41052586239525,-14.142092768246474,22.34926291674045,0.0126,-0.9732,-0.1231,0.1938
1602070.0,608.6516799999997,1.0,-3.31,-1.73,-8.85,17.75,-16.37,34.0,11.88,-9.31,9.5,0.0546833968187681,-1.0148661022417795,0.25476241059480564,-153.36074062083046,-13.841919736512358,22.59460775363036,0.0165,-0.9731,-0.1205,0.1959
1602105.0,608.6925259999998,1.0,-3.79,0.04,-8.9,17.75,-16.37,34.0,-26.37,-1.12,12.19,0.04640255988683273,0.7175808982835141,0.15996018137026802,-153.4604028099656,-13.576461659580188,22.66472550596455,0.0117,-0.9733,-0.1182,0.1965
1602140.0,608.743792,1.0,-3.31,0.0,-9.49,18.5,-16.37,34.38,8.13,7.06,-3.0,0.6468771364726167,0.5187359810534068,-0.2097696673396996,-153.71118144535646,-13.541842119876778,22.419350802422514,0.0098,-0.9738,-0.1179,0.1944
1602174.0,608.761434,1.0,-3.24,-0.75,-9.46,18.5,-15.56,33.56,8.0,-9.0,6.13,0.5840616875105173,-0.17181018321684705,-0.20239856647850374,-153.56043390061225,-13.311076762780564,22.68809999960854,0.0131,-0.9735,-0.1159,0.1967
1602209.0,608.803058,1.0,-3.68,-0.89,-8.83,17.75,-16.0,34.0,3.38,-7.56,5.56,-0.030074596496677763,-0.16792817182198055,0.200698946212869,-153.4604028099656,-13.022696190101502,22.98036223475966,0.0153,-0.9733,-0.1134,0.1992
