,TIME,ELAPSED_SECONDS,PSTATE,acc_x,acc_y,acc_z,mag_x,mag_y,mag_z,gyr_x,gyr_y,gyr_z,lin_x,lin_y,lin_z,eul_x,eul_y,eul_z,qua_w,qua_x,qua_y,qua_z
0,440950.0,407.997102,1.0,8.48,1.75,4.44,-20.37,14.56,-21.0,0.81,1.06,-0.12,0.07384594024416152,0.0212156401297664,0.07625449551389529,-20.63468349632429,58.30030109286572,-13.957359493385505,-0.8461,-0.1791,0.4871,-0.1215
1,440950.0,407.997102,1.0,8.48,1.75,4.44,-20.37,14.56,-21.0,0.81,1.06,-0.12,0.07384594024416152,0.0212156401297664,0.07625449551389529,-20.63468349632429,58.30030109286572,-13.957359493385505,-0.8461,-0.1791,0.4871,-0.1215
2,440985.0,408.047032,1.0,8.34,1.76,4.58,-21.19,15.69,-20.5,-0.81,-1.44,0.81,-0.11470358236476835,0.07418162592344713,0.1313753178750474,-20.611388956075047,58.33966779766776,-13.945814879054648,-0.846,-0.1789,0.4874,-0.1214
3,440985.0,408.047032,1.0,8.34,1.76,4.58,-21.19,15.69,-20.5,-0.81,-1.44,0.81,-0.11470358236476835,0.07418162592344713,0.1313753178750474,-20.611388956075047,58.33966779766776,-13.945814879054648,-0.846,-0.1789,0.4874,-0.1214
4,441020.0,408.093368,1.0,8.5,1.85,4.26,-21.19,15.69,-20.5,0.88,2.0,-0.06,0.18878496816308385,-0.1526606445887565,0.1236156117831868,-20.599742008899195,58.28718053424962,-13.968904250085991,-0.8463,-0.1788,0.48700000000000004,-0.1216
5,441020.0,408.093368,1.0,8.5,1.85,4.26,-21.19,15.69,-20.5,0.88,2.0,-0.06,0.18878496816308385,-0.1526606445887565,0.1236156117831868,-20.599742008899195,58.28718053424962,-13.968904250085991,-0.8463,-0.1788,0.48700000000000004,-0.1216
6,441057.0,408.10884,1.0,8.5,1.65,4.45,-20.75,15.0,-20.5,-0.75,-2.19,0.44,0.11355510133413392,0.11514073967341365,0.07274801523415242,-20.646331089662237,58.30030109286572,-13.98044914927855,-0.8461,-0.1792,0.4871,-0.1217
7,441057.0,408.10884,1.0,8.5,1.65,4.45,-20.75,15.0,-20.5,-0.75,-2.19,0.44,0.11355510133413392,0.11514073967341365,0.07274801523415242,-20.646331089662237,58.30030109286572,-13.98044914927855,-0.8461,-0.1792,0.4871,-0.1217
8,441092.0,408.111439,1.0,8.34,1.79,4.53,-20.37,16.06,-19.75,0.56,-0.75,0.63,-0.0888673369575233,0.02586136372277137,0.14890524326261456,-20.63468349632429,58.33966779766776,-13.991994191085649,-0.8459,-0.1791,0.4874,-0.1218
9,441092.0,408.111439,1.0,8.34,1.79,4.53,-20.37,16.06,-19.75,0.56,-0.75,0.63,-0.0888673369575233,0.02586136372277137,0.14890524326261456,-20.63468349632429,58.33966779766776,-13.991994191085649,-0.8459,-0.1791,0.4874,-0.1218
10,441126.0,408.11399900000004,1.0,8.44,1.86,4.41,-20.37,16.06,-19.75,-1.5,0.25,-0.06,0.025766206976698708,-0.09505423365082087,0.1045058660859386,-20.599742008899195,58.352791710028974,-13.98044914927855,-0.8459,-0.1788,0.4875,-0.1217
11,441126.0,408.11399900000004,1.0,8.44,1.86,4.41,-20.37,16.06,-19.75,-1.5,0.25,-0.06,0.025766206976698708,-0.09505423365082087,0.1045058660859386,-20.599742008899195,58.352791710028974,-13.98044914927855,-0.8459,-0.1788,0.4875,-0.1217
12,441161.0,408.14845499999996,1.0,8.39,1.76,4.36,-20.75,14.56,-21.0,0.69,-1.37,0.5,0.07308544240660518,-0.020443471973336846,0.1892937841493083,-20.623036118505983,58.37904205289053,-13.991994191085649,-0.8457,-0.179,0.4877,-0.1218
13,441161.0,408.14845499999996,1.0,8.39,1.76,4.36,-20.75,14.56,-21.0,0.69,-1.37,0.5,0.07308544240660518,-0.020443471973336846,0.1892937841493083,-20.623036118505983,58.37904205289053,-13.991994191085649,-0.8457,-0.179,0.4877,-0.1218
14,441198.0,408.155265,1.0,8.42,1.82,4.46,-20.37,15.25,-20.19,-0.19,0.0,0.5,-0.01762807969444577,-0.03372580694549043,0.10618857691541628,-20.623036118505983,58.40529575549325,-14.003539375629765,-0.8456,-0.179,0.4879,-0.1219
15,441198.0,408.155265,1.0,8.42,1.82,4.46,-20.37,15.25,-20.19,-0.19,0.0,0.5,-0.01762807969444577,-0.03372580694549043,0.10618857691541628,-20.623036118505983,58.40529575549325,-14.003539375629765,-0.8456,-0.179,0.4879,-0.1219
16,441231.0,408.210582,1.0,8.37,1.87,4.52,-20.37,15.25,-20.19,0.63,-1.0,0.12,-0.10990657524487728,-0.051927951709895837,0.11286724853763985,-20.623036118505983,58.41842386753149,-14.003539375629765,-0.8456,-0.179,0.488,-0.1219
17,441231.0,408.210582,1.0,8.37,1.87,4.52,-20.37,15.25,-20.19,0.63,-1.0,0.12,-0.10990657524487728,-0.051927951709895837,0.11286724853763985,-20.623036118505983,58.41842386753149,-14.003539375629765,-0.8456,-0.179,0.488,-0.1219
18,441266.0,408.217769,1.0,8.35,1.82,4.41,-20.75,14.56,-21.37,0.37,-0.31,-0.31,-0.015480228339664559,-0.0503991667908974,0.18998632248078984,-20.63468349632429,58.41842386753149,-14.003539375629765,-0.8455,-0.1791,0.488,-0.1219
19,441266.0,408.217769,1.0,8.35,1.82,4.41,-20.75,14.56,-21.37,0.37,-0.31,-0.31,-0.015480228339664559,-0.0503991667908974,0.18998632248078984,-20.63468349632429,58.41842386753149,-14.003539375629765,-0.8455,-0.1791,0.488,-0.1219
20,441300.0,408.27256600000004,1.0,8.43,1.62,4.38,-20.37,14.88,-20.19,1.12,0.5,-0.37,0.1257228329280374,0.11931394492289492,0.17110860618991808,-20.669626923426364,58.40529575549325,-14.01508470303339,-0.8455,-0.1794,0.4879,-0.122
21,441300.0,408.27256600000004,1.0,8.43,1.62,4.38,-20.37,14.88,-20.19,1.12,0.5,-0.37,0.1257228329280374,0.11931394492289492,0.17110860618991808,-20.669626923426364,58.40529575549325,-14.01508470303339,-0.8455,-0.1794,0.4879,-0.122
22,441337.0,408.331948,1.0,8.38,1.82,4.52,-21.19,14.88,-20.19,-1.88,0.31,1.12,-0.0875676090069118,-0.008445741718254185,0.11338117141076688,-20.623036118505983,58.41842386753149,-14.026630173419028,-0.8455,-0.179,0.488,-0.1221
23,441337.0,408.331948,1.0,8.38,1.82,4.52,-21.19,14.88,-20.19,-1.88,0.31,1.12,-0.0875676090069118,-0.008445741718254185,0.11338117141076688,-20.623036118505983,58.41842386753149,-14.026630173419028,-0.8455,-0.179,0.488,-0.1221
24,441370.0,408.391416,1.0,8.43,1.79,4.35,-21.19,14.88,-20.19,2.25,0.56,-0.25,0.08303397231766146,-0.05184760253979948,0.15357188027300772,-20.657978898652157,58.40529575549325,-14.049721543626418,-0.8455,-0.1793,0.4879,-0.1223
25,441370.0,408.391416,1.0,8.43,1.79,4.35,-21.19,14.88,-20.19,2.25,0.56,-0.25,0.08303397231766146,-0.05184760253979948,0.15357188027300772,-20.657978898652157,58.40529575549325,-14.049721543626418,-0.8455,-0.1793,0.4879,-0.1223
26,441407.0,408.459744,1.0,8.46,1.6,4.32,-21.19,15.69,-21.0,1.56,0.31,0.19,0.1929709473499462,0.10984593813753718,0.17624522743962778,-20.69292362085707,58.40529575549325,-14.072813487232235,-0.8454,-0.1796,0.4879,-0.1225
27,441407.0,408.459744,1.0,8.46,1.6,4.32,-21.19,15.69,-21.0,1.56,0.31,0.19,0.1929709473499462,0.10984593813753718,0.17624522743962778,-20.69292362085707,58.40529575549325,-14.072813487232235,-0.8454,-0.1796,0.4879,-0.1225
28,441442.0,408.570026,1.0,8.34,1.84,4.57,-20.37,15.69,-20.19,-4.31,-1.69,0.63,-0.16152142299617378,-0.004646714286959397,0.12161054535864935,-20.623036118505983,58.4578132506004,-14.049721543626418,-0.8453,-0.179,0.4883,-0.1223
29,441442.0,408.570026,1.0,8.34,1.84,4.57,-20.37,15.69,-20.19,-4.31,-1.69,0.63,-0.16152142299617378,-0.004646714286959397,0.12161054535864935,-20.623036118505983,58.4578132506004,-14.049721543626418,-0.8453,-0.179,0.4883,-0.1223
30,441475.0,408.578094,1.0,8.35,1.93,4.46,-20.37,15.69,-20.19,0.63,2.31,-0.44,-0.10047838617348626,-0.13964865036600171,0.14697079474877306,-20.56480245757989,58.444682614751024,-14.01508470303339,-0.8456,-0.1785,0.4882,-0.122
31,441475.0,408.578094,1.0,8.35,1.93,4.46,-20.37,15.69,-20.19,0.63,2.31,-0.44,-0.10047838617348626,-0.13964865036600171,0.14697079474877306,-20.56480245757989,58.444682614751024,-14.01508470303339,-0.8456,-0.1785,0.4882,-0.122
32,441509.0,408.63127000000003,1.0,8.55,1.77,4.13,-20.75,14.88,-21.0,2.06,0.75,-0.19,0.3237091818110477,-0.13589759627652598,0.1542386842231238,-20.623036118505983,58.39216848405749,-14.049721543626418,-0.8456,-0.179,0.4878,-0.1223
33,441509.0,408.63127000000003,1.0,8.55,1.77,4.13,-20.75,14.88,-21.0,2.06,0.75,-0.19,0.3237091818110477,-0.13589759627652598,0.1542386842231238,-20.623036118505983,58.39216848405749,-14.049721543626418,-0.8456,-0.179,0.4878,-0.1223
34,441546.0,408.638074,1.0,8.35,1.65,4.64,-20.37,14.88,-20.5,-0.25,-3.06,-0.12,-0.14164842146888468,0.20433461207659565,0.11578919762527562,-20.657978898652157,58.484077048449976,-14.026630173419028,-0.8452,-0.1793,0.4885,-0.1221
35,441546.0,408.638074,1.0,8.35,1.65,4.64,-20.37,14.88,-20.5,-0.25,-3.06,-0.12,-0.14164842146888468,0.20433461207659565,0.11578919762527562,-20.657978898652157,58.484077048449976,-14.026630173419028,-0.8452,-0.1793,0.4885,-0.1221
36,441581.0,408.654356,1.0,8.4,1.9,4.47,-20.37,14.88,-20.5,-3.06,2.56,-0.63,-0.07782938254098945,-0.10328189493087314,0.1043731828094714,-20.588095276846204,58.484077048449976,-13.991994191085649,-0.8454,-0.1787,0.4885,-0.1218
37,441581.0,408.654356,1.0,8.4,1.9,4.47,-20.37,14.88,-20.5,-3.06,2.56,-0.63,-0.07782938254098945,-0.10328189493087314,0.1043731828094714,-20.588095276846204,58.484077048449976,-13.991994191085649,-0.8454,-0.1787,0.4885,-0.1218
38,441616.0,408.657378,1.0,8.48,1.81,4.26,-20.75,14.88,-20.5,0.06,0.5,-0.19,0.1681170082403582,-0.11751947736954305,0.14787027148464738,-20.56480245757989,58.43155282050608,-13.991994191085649,-0.8456,-0.1785,0.4881,-0.1218
39,441616.0,408.657378,1.0,8.48,1.81,4.26,-20.75,14.88,-20.5,0.06,0.5,-0.19,0.1681170082403582,-0.11751947736954305,0.14787027148464738,-20.56480245757989,58.43155282050608,-13.991994191085649,-0.8456,-0.1785,0.4881,-0.1218
40,441651.0,408.686317,1.0,8.47,1.76,4.39,-19.69,14.56,-21.0,1.44,-0.19,0.63,0.07736450486519275,-0.01620107338662391,0.10591022106519787,-20.588095276846204,58.444682614751024,-14.026630173419028,-0.8455,-0.1787,0.4882,-0.1221
41,441651.0,408.686317,1.0,8.47,1.76,4.39,-19.69,14.56,-21.0,1.44,-0.19,0.63,0.07736450486519275,-0.01620107338662391,0.10591022106519787,-20.588095276846204,58.444682614751024,-14.026630173419028,-0.8455,-0.1787,0.4882,-0.1221
42,441686.0,408.697858,1.0,8.42,1.77,4.45,-19.69,14.56,-21.0,-0.94,-0.75,-0.81,0.0010200379473887524,0.0037463233192858154,0.11996919981956823,-20.588095276846204,58.4578132506004,-14.003539375629765,-0.8455,-0.1787,0.4883,-0.1219
43,441686.0,408.697858,1.0,8.42,1.77,4.45,-19.69,14.56,-21.0,-0.94,-0.75,-0.81,0.0010200379473887524,0.0037463233192858154,0.11996919981956823,-20.588095276846204,58.4578132506004,-14.003539375629765,-0.8455,-0.1787,0.4883,-0.1219
44,441718.0,408.71453199999996,1.0,8.47,1.85,4.39,-21.19,15.69,-20.19,-0.75,-0.44,-0.88,0.04325765907271967,-0.09275083925451356,0.08939596108812786,-20.588095276846204,58.4578132506004,-13.968904250085991,-0.8455,-0.1787,0.4883,-0.1216
45,441718.0,408.71453199999996,1.0,8.47,1.85,4.39,-21.19,15.69,-20.19,-0.75,-0.44,-0.88,0.04325765907271967,-0.09275083925451356,0.08939596108812786,-20.588095276846204,58.4578132506004,-13.968904250085991,-0.8455,-0.1787,0.4883,-0.1216
46,441755.0,408.71763799999997,1.0,8.4,1.9,4.53,-20.75,15.25,-21.0,-1.12,-2.0,-2.25,-0.12258283756329585,-0.06682955844099757,0.07672670852162078,-20.599742008899195,58.4972102111192,-13.8765501759761,-0.8454,-0.1788,0.4886,-0.1208
47,441755.0,408.71763799999997,1.0,8.4,1.9,4.53,-20.75,15.25,-21.0,-1.12,-2.0,-2.25,-0.12258283756329585,-0.06682955844099757,0.07672670852162078,-20.599742008899195,58.4972102111192,-13.8765501759761,-0.8454,-0.1788,0.4886,-0.1208
48,441790.0,408.754141,1.0,8.43,1.68,4.5,-21.56,14.56,-21.37,2.0,0.06,0.31,-0.0010384789265567298,0.12747988218349834,0.1050497298796138,-20.669626923426364,58.4972102111192,-13.899637842978935,-0.8453,-0.1794,0.4886,-0.121
49,441790.0,408.754141,1.0,8.43,1.68,4.5,-21.56,14.56,-21.37,2.0,0.06,0.31,-0.0010384789265567298,0.12747988218349834,0.1050497298796138,-20.669626923426364,58.4972102111192,-13.899637842978935,-0.8453,-0.1794,0.4886,-0.121
50,441823.0,408.760864,1.0,8.44,1.57,4.27,-21.56,14.56,-21.37,0.5,0.12,0.12,0.22229239642709475,0.12634927129410412,0.2219735864670884,-20.646331089662237,58.510344216731006,-13.911181889055527,-0.8452,-0.1792,0.4887,-0.1211
51,441823.0,408.760864,1.0,8.44,1.57,4.27,-21.56,14.56,-21.37,0.5,0.12,0.12,0.22229239642709475,0.12634927129410412,0.2219735864670884,-20.646331089662237,58.510344216731006,-13.911181889055527,-0.8452,-0.1792,0.4887,-0.1211
52,441860.0,408.820648,1.0,8.43,2.2,4.52,-21.56,14.25,-19.37,-7.31,0.31,0.31,-0.2236480178484259,-0.35163510567206424,0.00044613119472991525,-20.52986483879688,58.56288867530428,-13.865006554805131,-0.8453,-0.1782,0.4891,-0.1207
53,441860.0,408.820648,1.0,8.43,2.2,4.52,-21.56,14.25,-19.37,-7.31,0.31,0.31,-0.2236480178484259,-0.35163510567206424,0.00044613119472991525,-20.52986483879688,58.56288867530428,-13.865006554805131,-0.8453,-0.1782,0.4891,-0.1207
54,441896.0,408.839648,1.0,9.05,2.49,4.27,-22.25,14.88,-20.5,3.0,1.63,-3.63,0.1901951267082221,-0.7239380914374852,-0.4780590116124461,-20.599742008899195,58.4578132506004,-13.78420515869276,-0.8457,-0.1788,0.4883,-0.12
55,441896.0,408.839648,1.0,9.05,2.49,4.27,-22.25,14.88,-20.5,3.0,1.63,-3.63,0.1901951267082221,-0.7239380914374852,-0.4780590116124461,-20.599742008899195,58.4578132506004,-13.78420515869276,-0.8457,-0.1788,0.4883,-0.12
56,441929.0,408.929566,1.0,10.16,2.5,3.74,-22.25,14.88,-20.5,7.75,-1.06,-28.44,1.1996811283602065,-0.8875437034882182,-1.2040825534977382,-20.9608980601766,58.326544724242076,-13.334150842815474,-0.8461,-0.1819,0.4873,-0.1161
57,441929.0,408.929566,1.0,10.16,2.5,3.74,-22.25,14.88,-20.5,7.75,-1.06,-28.44,1.1996811283602065,-0.8875437034882182,-1.2040825534977382,-20.9608980601766,58.326544724242076,-13.334150842815474,-0.8461,-0.1819,0.4873,-0.1161
58,441964.0,408.97796800000003,1.0,11.09,2.92,3.0,-21.87,15.25,-21.0,-5.56,-5.81,-47.13,2.2441810183791344,-1.3095473907065598,-1.758955785614539,-21.823871652385925,57.95943792852192,-11.985198208002226,-0.8477,-0.1893,0.4845,-0.1044
59,441964.0,408.97796800000003,1.0,11.09,2.92,3.0,-21.87,15.25,-21.0,-5.56,-5.81,-47.13,2.2441810183791344,-1.3095473907065598,-1.758955785614539,-21.823871652385925,57.95943792852192,-11.985198208002226,-0.8477,-0.1893,0.4845,-0.1044
60,441999.0,409.041434,1.0,12.6,4.65,4.12,-21.19,14.88,-21.0,-39.75,27.06,-112.81,1.9118520034439241,-1.9836161830060577,-3.968943952909761,-22.314222150985408,57.2010626785079,-9.407070184120801,-0.8524,-0.1935,0.4787,-0.08199999999999999
61,441999.0,409.041434,1.0,12.6,4.65,4.12,-21.19,14.88,-21.0,-39.75,27.06,-112.81,1.9118520034439241,-1.9836161830060577,-3.968943952909761,-22.314222150985408,57.2010626785079,-9.407070184120801,-0.8524,-0.1935,0.4787,-0.08199999999999999
62,442036.0,409.045142,1.0,13.8,5.82,1.43,-22.25,13.06,-20.19,-74.19,73.0,-188.88,5.79055518723275,-2.9023973673403867,-3.772851468966657,-23.12070182440919,53.513032931572866,-2.7504615040371316,-0.8698,-0.2004,0.4502,-0.024
63,442036.0,409.045142,1.0,13.8,5.82,1.43,-22.25,13.06,-20.19,-74.19,73.0,-188.88,5.79055518723275,-2.9023973673403867,-3.772851468966657,-23.12070182440919,53.513032931572866,-2.7504615040371316,-0.8698,-0.2004,0.4502,-0.024
64,442071.0,409.08636,1.0,12.71,9.55,5.64,-22.25,13.06,-20.19,-58.25,-61.88,-268.06,1.9841754220404697,-3.5381453495752435,-6.567133172494057,-24.467440757791284,52.96186978619433,4.355527902560735,-0.8688,-0.2119,0.4459,0.038
65,442071.0,409.08636,1.0,12.71,9.55,5.64,-22.25,13.06,-20.19,-58.25,-61.88,-268.06,1.9841754220404697,-3.5381453495752435,-6.567133172494057,-24.467440757791284,52.96186978619433,4.355527902560735,-0.8688,-0.2119,0.4459,0.038
66,442109.0,409.216337,1.0,11.05,8.12,6.54,-23.75,10.88,-22.19,59.56,-45.13,-318.94,1.0448722303905504,0.43027116376777697,-5.343650615756396,-30.603201736078947,51.876216427159775,14.673408500442047,-0.8501,-0.2639,0.4374,0.1277
67,442109.0,409.216337,1.0,11.05,8.12,6.54,-23.75,10.88,-22.19,59.56,-45.13,-318.94,1.0448722303905504,0.43027116376777697,-5.343650615756396,-30.603201736078947,51.876216427159775,14.673408500442047,-0.8501,-0.2639,0.4374,0.1277
68,442144.0,409.299351,1.0,6.55,9.96,7.69,-25.69,3.75,-21.69,39.06,-8.81,-289.0,-2.0062295499592797,-0.9425135711600916,-4.205020534274248,-35.64870955741132,50.02297965952342,21.765523710742034,-0.8318,-0.3061,0.4228,0.1888
69,442144.0,409.299351,1.0,6.55,9.96,7.69,-25.69,3.75,-21.69,39.06,-8.81,-289.0,-2.0062295499592797,-0.9425135711600916,-4.205020534274248,-35.64870955741132,50.02297965952342,21.765523710742034,-0.8318,-0.3061,0.4228,0.1888
70,442179.0,409.33986,1.0,3.18,13.29,8.95,-25.69,3.75,-21.69,66.69,29.25,-230.19,-3.8215848963877206,-2.812878179946821,-5.824159487178847,-41.20714343304567,46.60679955433233,29.1444243172648,-0.8102,-0.3519,0.3956,0.2516
71,442179.0,409.33986,1.0,3.18,13.29,8.95,-25.69,3.75,-21.69,66.69,29.25,-230.19,-3.8215848963877206,-2.812878179946821,-5.824159487178847,-41.20714343304567,46.60679955433233,29.1444243172648,-0.8102,-0.3519,0.3956,0.2516
72,442212.0,409.343411,1.0,0.56,11.37,7.53,-26.19,-2.5,-24.5,163.5,73.5,-238.13,-4.183321861034623,-1.5099915203676266,-3.097269707414787,-50.465953903367264,42.384689535903355,33.356870714029654,-0.778,-0.4263,0.3615,0.287
73,442212.0,409.343411,1.0,0.56,11.37,7.53,-26.19,-2.5,-24.5,163.5,73.5,-238.13,-4.183321861034623,-1.5099915203676266,-3.097269707414787,-50.465953903367264,42.384689535903355,33.356870714029654,-0.778,-0.4263,0.3615,0.287
74,442251.0,409.359506,1.0,0.18,13.16,8.25,-23.19,-9.0,-26.75,192.13,69.75,-170.44,-4.932167009338452,-0.315843976530755,-4.919329464011302,-57.50146795059126,40.02193352838936,34.795101425948374,-0.7498,-0.48100000000000004,0.3422,0.299
75,442251.0,409.359506,1.0,0.18,13.16,8.25,-23.19,-9.0,-26.75,192.13,69.75,-170.44,-4.932167009338452,-0.315843976530755,-4.919329464011302,-57.50146795059126,40.02193352838936,34.795101425948374,-0.7498,-0.48100000000000004,0.3422,0.299
76,442286.0,409.362393,1.0,1.1,10.52,5.18,-20.5,-14.25,-28.0,257.56,89.06,-149.13,-2.801845415849469,2.0271519204514403,-1.4518186950354544,-68.8879335180276,37.180738981785375,34.315074743396394,-0.701,-0.5656,0.3188,0.295
77,442286.0,409.362393,1.0,1.1,10.52,5.18,-20.5,-14.25,-28.0,257.56,89.06,-149.13,-2.801845415849469,2.0271519204514403,-1.4518186950354544,-68.8879335180276,37.180738981785375,34.315074743396394,-0.701,-0.5656,0.3188,0.295
78,442320.0,409.382158,1.0,0.5,9.97,2.74,-20.5,-14.25,-28.0,235.0,56.5,-106.37,-1.7738381142293096,1.5438717282494698,-0.2744441088365708,-76.95393743306516,35.612600576556765,33.3449084936511,-0.6611,-0.6222,0.3058,0.2869
79,442320.0,409.382158,1.0,0.5,9.97,2.74,-20.5,-14.25,-28.0,235.0,56.5,-106.37,-1.7738381142293096,1.5438717282494698,-0.2744441088365708,-76.95393743306516,35.612600576556765,33.3449084936511,-0.6611,-0.6222,0.3058,0.2869
80,442357.0,409.40272799999997,1.0,-0.29,8.16,2.42,-17.75,-21.69,-28.75,332.19,-2.31,-26.12,-2.98300098354995,2.1469538646523074,2.124306982717152,-87.45034897247223,36.85446512108432,30.781444422149058,-0.5932,-0.6912,0.3161,0.2654
81,442357.0,409.40272799999997,1.0,-0.29,8.16,2.42,-17.75,-21.69,-28.75,332.19,-2.31,-26.12,-2.98300098354995,2.1469538646523074,2.124306982717152,-87.45034897247223,36.85446512108432,30.781444422149058,-0.5932,-0.6912,0.3161,0.2654
82,442394.0,409.494426,1.0,0.5,6.73,-0.2,-15.25,-33.06,-23.87,324.0,-14.75,52.81,-1.2487275089288212,1.5595138079677904,3.357503057093345,-94.7327966552025,40.302553807332,27.301153346475182,-0.5333,-0.7357,0.3445,0.23600000000000002
83,442394.0,409.494426,1.0,0.5,6.73,-0.2,-15.25,-33.06,-23.87,324.0,-14.75,52.81,-1.2487275089288212,1.5595138079677904,3.357503057093345,-94.7327966552025,40.302553807332,27.301153346475182,-0.5333,-0.7357,0.3445,0.23600000000000002
84,442427.0,409.50460499999997,1.0,1.01,6.27,-2.15,-15.25,-33.06,-23.87,324.63,-39.38,86.56,-0.7064508560455871,1.3638096982711878,3.280054387056456,-102.1556405634774,46.033473279550854,21.917240280609395,-0.4536,-0.778,0.391,0.1901
85,442427.0,409.50460499999997,1.0,1.01,6.27,-2.15,-15.25,-33.06,-23.87,324.63,-39.38,86.56,-0.7064508560455871,1.3638096982711878,3.280054387056456,-102.1556405634774,46.033473279550854,21.917240280609395,-0.4536,-0.778,0.391,0.1901
86,442464.0,409.50757200000004,1.0,1.37,6.09,-3.32,-15.5,-38.06,-11.69,322.44,-65.87,121.31,-1.112158832001684,1.6407597283615645,3.0200153224748023,-106.81586235047912,53.28215172783013,16.767216307875252,-0.3649,-0.8029,0.4484,0.1458
87,442464.0,409.50757200000004,1.0,1.37,6.09,-3.32,-15.5,-38.06,-11.69,322.44,-65.87,121.31,-1.112158832001684,1.6407597283615645,3.0200153224748023,-106.81586235047912,53.28215172783013,16.767216307875252,-0.3649,-0.8029,0.4484,0.1458
88,442501.0,409.541033,1.0,1.11,5.59,-4.95,-18.0,-37.06,-0.75,318.25,-169.44,99.44,-1.098925657836794,1.2097554165131703,2.437012679835253,-108.44628015323634,58.970568079244025,14.500119080393965,-0.2889,-0.8113,0.4922,0.1262
89,442501.0,409.541033,1.0,1.11,5.59,-4.95,-18.0,-37.06,-0.75,318.25,-169.44,99.44,-1.098925657836794,1.2097554165131703,2.437012679835253,-108.44628015323634,58.970568079244025,14.500119080393965,-0.2889,-0.8113,0.4922,0.1262
90,442535.0,409.59932000000003,1.0,-0.5,4.74,-3.64,-19.06,-32.06,10.38,341.0,-236.06,119.56,-2.8891344136862127,0.6519376101702301,4.591759810159033,-107.84087503637959,67.2424412315755,13.680327762024126,-0.1612,-0.8082,0.5537,0.1191
91,442535.0,409.59932000000003,1.0,-0.5,4.74,-3.64,-19.06,-32.06,10.38,341.0,-236.06,119.56,-2.8891344136862127,0.6519376101702301,4.591759810159033,-107.84087503637959,67.2424412315755,13.680327762024126,-0.1612,-0.8082,0.5537,0.1191
92,442570.0,409.61848599999996,1.0,0.17,3.83,-6.29,-19.06,-32.06,10.38,286.25,-206.75,73.75,-1.7645962365889774,1.4551794998177687,2.8044680011423484,-105.822052873486,71.88881371666841,13.47260676237266,-0.0721,-0.7977,0.5870000000000001,0.1173
93,442570.0,409.61848599999996,1.0,0.17,3.83,-6.29,-19.06,-32.06,10.38,286.25,-206.75,73.75,-1.7645962365889774,1.4551794998177687,2.8044680011423484,-105.822052873486,71.88881371666841,13.47260676237266,-0.0721,-0.7977,0.5870000000000001,0.1173
94,442609.0,409.622664,1.0,-0.3,0.91,-6.06,-19.56,-25.37,23.06,251.0,-164.94,-3.25,-0.1272257598914759,1.122123807689315,3.776197963358229,-103.81206807438305,74.515262135817,12.976563032466052,0.0352,-0.787,0.6054,0.113
95,442609.0,409.622664,1.0,-0.3,0.91,-6.06,-19.56,-25.37,23.06,251.0,-164.94,-3.25,-0.1272257598914759,1.122123807689315,3.776197963358229,-103.81206807438305,74.515262135817,12.976563032466052,0.0352,-0.787,0.6054,0.113
96,442644.0,409.62546000000003,1.0,-1.78,-2.52,-5.25,-14.25,-17.69,30.5,188.19,-111.62,-19.56,2.261705997170804,-0.8039997350971475,4.210260949163259,-103.07215846453477,74.48647019368201,12.204140573704526,0.09699999999999999,-0.7829999999999999,0.6052,0.1063
97,442644.0,409.62546000000003,1.0,-1.78,-2.52,-5.25,-14.25,-17.69,30.5,188.19,-111.62,-19.56,2.261705997170804,-0.8039997350971475,4.210260949163259,-103.07215846453477,74.48647019368201,12.204140573704526,0.09699999999999999,-0.7829999999999999,0.6052,0.1063
98,442679.0,409.66294500000004,1.0,-3.18,-1.81,-4.14,-14.25,-17.69,30.5,120.69,-29.19,-5.94,0.8233073708879157,-1.8739809018531568,4.674549011853794,-101.73708031608216,74.61607730658687,10.799043117568631,0.1487,-0.7757,0.6061,0.0941
99,442679.0,409.66294500000004,1.0,-3.18,-1.81,-4.14,-14.25,-17.69,30.5,120.69,-29.19,-5.94,0.8233073708879157,-1.8739809018531568,4.674549011853794,-101.73708031608216,74.61607730658687,10.799043117568631,0.1487,-0.7757,0.6061,0.0941
100,442714.0,409.67985699999997,1.0,-1.48,-2.49,-6.71,-10.69,-11.69,34.88,75.25,56.38,-10.88,1.3785928603097484,0.33607554049364863,2.6371915158057506,-101.57380680599563,74.81791076036653,7.488156943849511,0.1622,-0.7748,0.6075,0.0653
101,442714.0,409.67985699999997,1.0,-1.48,-2.49,-6.71,-10.69,-11.69,34.88,75.25,56.38,-10.88,1.3785928603097484,0.33607554049364863,2.6371915158057506,-101.57380680599563,74.81791076036653,7.488156943849511,0.1622,-0.7748,0.6075,0.0653
102,442750.0,409.761786,1.0,-0.37,-3.84,-8.7,-10.38,-8.69,35.69,28.19,70.56,-25.12,2.5273342113332675,1.422030140526854,0.7422740113476269,-102.2103749169286,74.65930449968721,5.089538374458754,0.1569,-0.7783,0.6064,0.0444
103,442750.0,409.761786,1.0,-0.37,-3.84,-8.7,-10.38,-8.69,35.69,28.19,70.56,-25.12,2.5273342113332675,1.422030140526854,0.7422740113476269,-102.2103749169286,74.65930449968721,5.089538374458754,0.1569,-0.7783,0.6064,0.0444
104,442785.0,409.771554,1.0,-0.69,-2.46,-8.48,-10.38,-8.69,35.69,17.5,10.81,10.31,0.9929385197213524,1.26649929317641,1.0975655110059233,-101.95522422355891,74.99112748831256,3.873932556571698,0.1577,-0.7769,0.6087,0.0338
105,442785.0,409.771554,1.0,-0.69,-2.46,-8.48,-10.38,-8.69,35.69,17.5,10.81,10.31,0.9929385197213524,1.26649929317641,1.0975655110059233,-101.95522422355891,74.99112748831256,3.873932556571698,0.1577,-0.7769,0.6087,0.0338
106,442820.0,409.774365,1.0,-1.38,-1.1,-7.15,-12.88,-6.88,34.88,31.94,-9.56,13.31,-0.3725759216999552,0.6168593256215114,2.4774227723201783,-101.12175699059144,75.526483262398,3.816604503074617,0.1657,-0.7723,0.6124,0.0333
107,442820.0,409.774365,1.0,-1.38,-1.1,-7.15,-12.88,-6.88,34.88,31.94,-9.56,13.31,-0.3725759216999552,0.6168593256215114,2.4774227723201783,-101.12175699059144,75.526483262398,3.816604503074617,0.1657,-0.7723,0.6124,0.0333
108,442857.0,409.81325899999996,1.0,-1.21,-2.43,-7.79,-12.5,-6.06,35.38,26.12,11.94,-24.62,0.6712814218881266,0.6822758446310108,1.6129340588374728,-101.50133226645922,74.97668509466439,2.8192367490322434,0.1713,-0.7744,0.6086,0.0246
109,442857.0,409.81325899999996,1.0,-1.21,-2.43,-7.79,-12.5,-6.06,35.38,26.12,11.94,-24.62,0.6712814218881266,0.6822758446310108,1.6129340588374728,-101.50133226645922,74.97668509466439,2.8192367490322434,0.1713,-0.7744,0.6086,0.0246
110,442892.0,409.871133,1.0,-1.43,-3.55,-7.71,-13.38,-5.69,36.19,27.19,2.44,-11.38,1.5457531522423715,0.21821554005097865,1.3417501677271435,-101.827911474709,74.44329258880299,2.085681528609333,0.1765,-0.7762,0.6049,0.0182
111,442892.0,409.871133,1.0,-1.43,-3.55,-7.71,-13.38,-5.69,36.19,27.19,2.44,-11.38,1.5457531522423715,0.21821554005097865,1.3417501677271435,-101.827911474709,74.44329258880299,2.085681528609333,0.1765,-0.7762,0.6049,0.0182
112,442927.0,409.887679,1.0,-1.34,-2.66,-8.86,-13.38,-5.69,36.19,10.06,1.12,2.5,0.4239414333556235,0.8506385403644205,0.5078604156115532,-101.64633756490149,74.48647019368201,1.7189378496716434,0.1804,-0.7752,0.6052,0.015
113,442927.0,409.887679,1.0,-1.34,-2.66,-8.86,-13.38,-5.69,36.19,10.06,1.12,2.5,0.4239414333556235,0.8506385403644205,0.5078604156115532,-101.64633756490149,74.48647019368201,1.7189378496716434,0.1804,-0.7752,0.6052,0.015
114,442961.0,409.9405,1.0,-1.74,-4.09,-8.08,-11.88,-5.38,35.75,26.69,-15.56,-27.0,1.6916864942990952,0.004190955625145154,0.7413160711865103,-102.10093856551023,73.72547201814446,1.4553519237055776,0.1874,-0.7777,0.5999,0.0127
115,442961.0,409.9405,1.0,-1.74,-4.09,-8.08,-11.88,-5.38,35.75,26.69,-15.56,-27.0,1.6916864942990952,0.004190955625145154,0.7413160711865103,-102.10093856551023,73.72547201814446,1.4553519237055776,0.1874,-0.7777,0.5999,0.0127
116,442998.0,410.037977,1.0,-2.06,-4.09,-7.82,-13.0,-3.88,38.19,10.0,11.0,2.19,1.535632741058648,-0.3966216555333917,0.8842835343726954,-103.42286086216532,72.18633490403623,1.2261530793833222,0.1916,-0.7849,0.5891,0.0107
117,442998.0,410.037977,1.0,-2.06,-4.09,-7.82,-13.0,-3.88,38.19,10.0,11.0,2.19,1.535632741058648,-0.3966216555333917,0.8842835343726954,-103.42286086216532,72.18633490403623,1.2261530793833222,0.1916,-0.7849,0.5891,0.0107
118,443033.0,410.087444,1.0,-1.4,-2.63,-9.12,-13.0,-3.88,38.19,-3.44,18.94,-11.69,0.08789510152145608,0.8732353607227561,0.2525391331578124,-103.58945826629656,72.17215447551501,0.8250663536663884,0.1888,-0.7858,0.589,0.0072
119,443033.0,410.087444,1.0,-1.4,-2.63,-9.12,-13.0,-3.88,38.19,-3.44,18.94,-11.69,0.08789510152145608,0.8732353607227561,0.2525391331578124,-103.58945826629656,72.17215447551501,0.8250663536663884,0.1888,-0.7858,0.589,0.0072
120,443066.0,410.103241,1.0,-0.98,-3.65,-10.08,-12.25,-4.0,36.88,5.38,-4.38,-18.44,0.9408159836757908,1.264105690904473,-0.8425848122803234,-105.34830046023008,70.32536827305816,0.8479852761926534,0.1896,-0.7952,0.5759,0.0074
121,443066.0,410.103241,1.0,-0.98,-3.65,-10.08,-12.25,-4.0,36.88,5.38,-4.38,-18.44,0.9408159836757908,1.264105690904473,-0.8425848122803234,-105.34830046023008,70.32536827305816,0.8479852761926534,0.1896,-0.7952,0.5759,0.0074
122,443103.0,410.157877,1.0,-1.75,-3.64,-8.27,-13.0,-3.19,36.5,19.69,-21.69,-0.56,1.0074579374360362,0.11237444685702802,0.6591147861847109,-106.24110823664705,69.082580917068,1.3522117780748235,0.1965,-0.7999,0.5670000000000001,0.0118
123,443103.0,410.157877,1.0,-1.75,-3.64,-8.27,-13.0,-3.19,36.5,19.69,-21.69,-0.56,1.0074579374360362,0.11237444685702802,0.6591147861847109,-106.24110823664705,69.082580917068,1.3522117780748235,0.1965,-0.7999,0.5670000000000001,0.0118
124,443138.0,410.160664,1.0,-1.96,-2.97,-8.36,-11.88,-4.0,36.88,4.06,-8.5,-7.44,0.2816813097553509,0.2164258920898716,0.7277780726641137,-107.23982794355229,67.82138560708218,1.7647797695524667,0.2008,-0.8051,0.5579,0.0154
125,443138.0,410.160664,1.0,-1.96,-2.97,-8.36,-11.88,-4.0,36.88,4.06,-8.5,-7.44,0.2816813097553509,0.2164258920898716,0.7277780726641137,-107.23982794355229,67.82138560708218,1.7647797695524667,0.2008,-0.8051,0.5579,0.0154
126,443172.0,410.19435899999996,1.0,-2.05,-3.71,-8.46,-11.88,-4.0,36.88,7.19,1.81,-4.94,0.8540768529948815,-0.03885933839699085,0.3828905229654911,-107.35582470459705,67.61439507717935,1.6272548279067642,0.2026,-0.8057,0.5564,0.0142
127,443172.0,410.19435899999996,1.0,-2.05,-3.71,-8.46,-11.88,-4.0,36.88,7.19,1.81,-4.94,0.8540768529948815,-0.03885933839699085,0.3828905229654911,-107.35582470459705,67.61439507717935,1.6272548279067642,0.2026,-0.8057,0.5564,0.0142
128,443209.0,410.200154,1.0,-1.82,-3.4,-8.68,-11.5,-3.19,38.06,-9.56,3.75,1.69,0.6431535402039736,0.2881750609190503,0.3346856494554213,-108.36791454974384,66.69286830197329,1.8106219718873997,0.2004,-0.8109,0.5497,0.0158
129,443209.0,410.200154,1.0,-1.82,-3.4,-8.68,-11.5,-3.19,38.06,-9.56,3.75,1.69,0.6431535402039736,0.2881750609190503,0.3346856494554213,-108.36791454974384,66.69286830197329,1.8106219718873997,0.2004,-0.8109,0.5497,0.0158
130,443244.0,410.216022,1.0,-1.9,-3.25,-8.89,-12.25,-2.75,37.19,14.63,1.31,0.94,0.4211276786275553,0.3357872253749796,0.16743330892137642,-108.97720765299681,66.0083301332499,1.867925133192117,0.201,-0.8140000000000001,0.5447,0.0163
131,443244.0,410.216022,1.0,-1.9,-3.25,-8.89,-12.25,-2.75,37.19,14.63,1.31,0.94,0.4211276786275553,0.3357872253749796,0.16743330892137642,-108.97720765299681,66.0083301332499,1.867925133192117,0.201,-0.8140000000000001,0.5447,0.0163
132,443277.0,410.218801,1.0,-2.04,-3.64,-8.69,-12.25,-2.75,37.19,-1.81,-3.75,2.25,0.7104271617280816,0.05143895361991824,0.19312061262465008,-108.83922979141936,66.02199478441803,1.7647797695524667,0.2036,-0.8133,0.5448,0.0154
133,443277.0,410.218801,1.0,-2.04,-3.64,-8.69,-12.25,-2.75,37.19,-1.81,-3.75,2.25,0.7104271617280816,0.05143895361991824,0.19312061262465008,-108.83922979141936,66.02199478441803,1.7647797695524667,0.2036,-0.8133,0.5448,0.0154
134,443312.0,410.274579,1.0,-2.15,-3.22,-8.65,-11.5,-2.5,38.06,9.56,-3.75,9.31,0.3015283968462976,0.10916576447432336,0.3350839488254618,-109.29346359122705,65.47622986306104,2.0054546535892377,0.205,-0.8156,0.5408,0.0175
135,443312.0,410.274579,1.0,-2.15,-3.22,-8.65,-11.5,-2.5,38.06,9.56,-3.75,9.31,0.3015283968462976,0.10916576447432336,0.3350839488254618,-109.29346359122705,65.47622986306104,2.0054546535892377,0.205,-0.8156,0.5408,0.0175
136,443348.0,410.418504,1.0,-2.22,-3.09,-8.79,-11.5,-3.19,38.06,-12.25,-0.94,2.88,0.1824486809743683,0.14205820836948102,0.2313102178175637,-109.96962968750276,64.82350878733949,2.4180613422720283,0.2036,-0.8190000000000001,0.536,0.0211
137,443348.0,410.418504,1.0,-2.22,-3.09,-8.79,-11.5,-3.19,38.06,-12.25,-0.94,2.88,0.1824486809743683,0.14205820836948102,0.2313102178175637,-109.96962968750276,64.82350878733949,2.4180613422720283,0.2036,-0.8190000000000001,0.536,0.0211
138,443383.0,410.48135099999996,1.0,-2.52,-3.19,-8.71,-11.5,-3.19,38.06,6.81,-12.25,8.06,0.17824128379209814,-0.13840672474908655,0.19729655539737226,-109.81002132963994,64.9185496744115,2.6358382855186164,0.2049,-0.8182,0.5367,0.023
139,443383.0,410.48135099999996,1.0,-2.52,-3.19,-8.71,-11.5,-3.19,38.06,6.81,-12.25,8.06,0.17824128379209814,-0.13840672474908655,0.19729655539737226,-109.81002132963994,64.9185496744115,2.6358382855186164,0.2049,-0.8182,0.5367,0.023
140,443416.0,410.537208,1.0,-2.35,-3.22,-8.86,-11.5,-2.5,37.25,4.06,-1.63,9.56,0.2512140542962953,0.1018075450428173,0.09495464220091243,-109.98960304245053,64.60646007520779,2.865087475133015,0.2069,-0.8191,0.5344,0.025
141,443416.0,410.537208,1.0,-2.35,-3.22,-8.86,-11.5,-2.5,37.25,4.06,-1.63,9.56,0.2512140542962953,0.1018075450428173,0.09495464220091243,-109.98960304245053,64.60646007520779,2.865087475133015,0.2069,-0.8191,0.5344,0.025
142,443453.0,410.544015,1.0,-2.42,-3.18,-8.94,-11.5,-2.06,37.25,-0.63,-2.88,8.25,0.17670153379036396,0.0927509181163444,0.01621722942521053,-110.24971070475245,64.32197736057384,2.9797163137078666,0.2071,-0.8204,0.5323,0.026000000000000002
143,443453.0,410.544015,1.0,-2.42,-3.18,-8.94,-11.5,-2.06,37.25,-0.63,-2.88,8.25,0.17670153379036396,0.0927509181163444,0.01621722942521053,-110.24971070475245,64.32197736057384,2.9797163137078666,0.2071,-0.8204,0.5323,0.026000000000000002
144,443486.0,410.560273,1.0,-2.62,-2.84,-8.86,-11.5,-2.06,37.25,-10.44,-3.38,2.0,-0.13916677240869507,0.008007878766098209,0.14175639048028366,-110.24971070475245,64.4032127251192,3.254837913384077,0.2055,-0.8204,0.5329,0.0284
145,443486.0,410.560273,1.0,-2.62,-2.84,-8.86,-11.5,-2.06,37.25,-10.44,-3.38,2.0,-0.13916677240869507,0.008007878766098209,0.14175639048028366,-110.24971070475245,64.4032127251192,3.254837913384077,0.2055,-0.8204,0.5329,0.0284
146,443521.0,410.563081,1.0,-2.22,-3.73,-9.6,-11.06,-1.69,38.06,8.0,-1.69,0.12,0.7027550687578703,0.3136546344264197,-0.7009213694287109,-110.77248545181585,63.83532215478704,3.4153340784378665,0.2054,-0.823,0.5287,0.0298
147,443521.0,410.563081,1.0,-2.22,-3.73,-9.6,-11.06,-1.69,38.06,8.0,-1.69,0.12,0.7027550687578703,0.3136546344264197,-0.7009213694287109,-110.77248545181585,63.83532215478704,3.4153340784378665,0.2054,-0.823,0.5287,0.0298
148,443555.0,410.602221,1.0,-2.52,-3.43,-9.25,-11.06,-3.56,38.06,-6.25,-20.0,5.81,0.4323751769506405,0.12554038412818525,-0.3656207061063732,-111.27843287427478,63.148087344627434,4.1720543955147065,0.2074,-0.8255,0.5236,0.0364
149,443555.0,410.602221,1.0,-2.52,-3.43,-9.25,-11.06,-3.56,38.06,-6.25,-20.0,5.81,0.4323751769506405,0.12554038412818525,-0.3656207061063732,-111.27843287427478,63.148087344627434,4.1720543955147065,0.2074,-0.8255,0.5236,0.0364
150,443590.0,410.701886,1.0,-2.9,-2.96,-9.06,-10.5,-2.06,38.06,0.37,-13.81,5.81,-0.07179986797387289,-0.02958668934571373,-0.15573773621928844,-111.60396041024363,62.704754110255,4.7225089042433,0.2087,-0.8271,0.5203,0.0412
151,443590.0,410.701886,1.0,-2.9,-2.96,-9.06,-10.5,-2.06,38.06,0.37,-13.81,5.81,-0.07179986797387289,-0.02958668934571373,-0.15573773621928844,-111.60396041024363,62.704754110255,4.7225089042433,0.2087,-0.8271,0.5203,0.0412
152,443625.0,410.709581,1.0,-3.25,-3.1,-8.64,-10.5,-2.06,38.06,2.5,-16.81,6.56,-0.003704164950879996,-0.4408185540676879,0.07896963510561683,-111.2987386824523,62.785282198587254,5.215716631990905,0.2118,-0.8256,0.5209,0.0455
153,443625.0,410.709581,1.0,-3.25,-3.1,-8.64,-10.5,-2.06,38.06,2.5,-16.81,6.56,-0.003704164950879996,-0.4408185540676879,0.07896963510561683,-111.2987386824523,62.785282198587254,5.215716631990905,0.2118,-0.8256,0.5209,0.0455
154,443662.0,410.761186,1.0,-2.74,-3.39,-9.26,-10.5,-2.75,38.06,0.44,4.25,1.25,0.4078511343265874,0.1231110848402408,-0.4190920812876939,-111.72638448420557,62.36959041979664,5.376316314590642,0.2112,-0.8277,0.5178,0.0469
155,443662.0,410.761186,1.0,-2.74,-3.39,-9.26,-10.5,-2.75,38.06,0.44,4.25,1.25,0.4078511343265874,0.1231110848402408,-0.4190920812876939,-111.72638448420557,62.36959041979664,5.376316314590642,0.2112,-0.8277,0.5178,0.0469
156,443697.0,410.768058,1.0,-2.72,-3.18,-8.96,-10.06,-2.75,38.56,4.94,6.31,2.94,0.24984506673606915,0.07972278535916287,-0.0788758696804912,-112.05379617607242,62.04839058120868,5.261601195679236,0.21100000000000002,-0.8293,0.5154,0.0459
157,443697.0,410.768058,1.0,-2.72,-3.18,-8.96,-10.06,-2.75,38.56,4.94,6.31,2.94,0.24984506673606915,0.07972278535916287,-0.0788758696804912,-112.05379617607242,62.04839058120868,5.261601195679236,0.21100000000000002,-0.8293,0.5154,0.0459
158,443731.0,410.78222400000004,1.0,-2.39,-3.27,-9.08,-10.06,-2.75,38.56,-3.38,4.5,5.06,0.4579662167302619,0.3437501161009362,-0.11925060407691213,-111.97181334084304,62.182157850572864,5.123950007684243,0.2101,-0.8289,0.5164,0.0447
159,443731.0,410.78222400000004,1.0,-2.39,-3.27,-9.08,-10.06,-2.75,38.56,-3.38,4.5,5.06,0.4579662167302619,0.3437501161009362,-0.11925060407691213,-111.97181334084304,62.182157850572864,5.123950007684243,0.2101,-0.8289,0.5164,0.0447
160,443764.0,410.785379,1.0,-2.23,-2.97,-9.49,-10.5,-2.06,37.69,-0.69,-7.69,8.94,0.25607436732683664,0.7827285485747155,-0.3508921208894957,-112.03329231056664,62.101886205747824,5.4451479667522715,0.2102,-0.8292,0.5158,0.0475
161,443764.0,410.785379,1.0,-2.23,-2.97,-9.49,-10.5,-2.06,37.69,-0.69,-7.69,8.94,0.25607436732683664,0.7827285485747155,-0.3508921208894957,-112.03329231056664,62.101886205747824,5.4451479667522715,0.2102,-0.8292,0.5158,0.0475
162,443801.0,410.82479700000005,1.0,-2.64,-2.75,-8.73,-10.06,-2.5,37.25,-1.44,-6.13,1.37,0.018316474807602626,0.25899547309805904,0.2841720739733198,-112.34142441987677,61.701033951542065,5.8467059276897535,0.2106,-0.8307,0.5128,0.051
163,443801.0,410.82479700000005,1.0,-2.64,-2.75,-8.73,-10.06,-2.5,37.25,-1.44,-6.13,1.37,0.018316474807602626,0.25899547309805904,0.2841720739733198,-112.34142441987677,61.701033951542065,5.8467059276897535,0.2106,-0.8307,0.5128,0.051
164,443836.0,410.83213900000004,1.0,-2.87,-2.83,-8.56,-10.06,-2.5,37.25,0.94,-12.69,7.56,0.024170288299773524,0.010936214081268323,0.3452179627032628,-112.19747600626744,61.7677843434822,6.076199569788739,0.2119,-0.83,0.5133,0.053
165,443836.0,410.83213900000004,1.0,-2.87,-2.83,-8.56,-10.06,-2.5,37.25,0.94,-12.69,7.56,0.024170288299773524,0.010936214081268323,0.3452179627032628,-112.19747600626744,61.7677843434822,6.076199569788739,0.2119,-0.83,0.5133,0.053
166,443871.0,410.851515,1.0,-2.83,-3.09,-8.99,-10.75,-2.5,38.06,-3.5,-11.5,2.13,0.2787207692292462,0.19392172934391905,-0.10605947297904984,-112.2796992436405,61.52759147164257,6.6729995322127,0.2133,-0.8304,0.5115,0.0582
167,443871.0,410.851515,1.0,-2.83,-3.09,-8.99,-10.75,-2.5,38.06,-3.5,-11.5,2.13,0.2787207692292462,0.19392172934391905,-0.10605947297904984,-112.2796992436405,61.52759147164257,6.6729995322127,0.2133,-0.8304,0.5115,0.0582
168,443906.0,410.85456800000003,1.0,-3.15,-2.88,-8.66,-10.06,-2.75,38.06,-8.13,-18.19,2.44,0.0679179571735507,-0.048687382829490485,0.15234957532672233,-112.56817591001142,61.07470873985765,7.442222882076424,0.2141,-0.8318,0.5081,0.0649
169,443906.0,410.85456800000003,1.0,-3.15,-2.88,-8.66,-10.06,-2.75,38.06,-8.13,-18.19,2.44,0.0679179571735507,-0.048687382829490485,0.15234957532672233,-112.56817591001142,61.07470873985765,7.442222882076424,0.2141,-0.8318,0.5081,0.0649
170,443942.0,410.896017,1.0,-3.19,-3.15,-8.5,-9.0,-2.5,37.69,9.0,-4.94,3.81,0.3100237687385936,-0.20067560404569407,0.20393087650388075,-112.69214234363413,60.782229218492176,7.717845476549469,0.2161,-0.8324,0.5059,0.0673
171,443942.0,410.896017,1.0,-3.19,-3.15,-8.5,-9.0,-2.5,37.69,9.0,-4.94,3.81,0.3100237687385936,-0.20067560404569407,0.20393087650388075,-112.69214234363413,60.782229218492176,7.717845476549469,0.2161,-0.8324,0.5059,0.0673
172,443975.0,410.957409,1.0,-3.18,-3.23,-8.53,-9.0,-2.5,37.69,5.31,2.25,3.88,0.35488843314317514,-0.19717960407838556,0.15567210116732788,-112.46502386355527,60.9683017245208,7.568544455864769,0.2175,-0.8313,0.5073,0.066
173,443975.0,410.957409,1.0,-3.18,-3.23,-8.53,-9.0,-2.5,37.69,5.31,2.25,3.88,0.35488843314317514,-0.19717960407838556,0.15567210116732788,-112.46502386355527,60.9683017245208,7.568544455864769,0.2175,-0.8313,0.5073,0.066
174,444012.0,410.974812,1.0,-2.83,-3.02,-9.2,-8.19,-3.19,37.69,-7.19,-1.44,1.75,0.28691407763148674,0.4413081035344349,-0.26768508822352466,-112.83702493862923,60.622879441834705,7.706360320042279,0.2162,-0.8331,0.5047,0.0672
175,444012.0,410.974812,1.0,-2.83,-3.02,-9.2,-8.19,-3.19,37.69,-7.19,-1.44,1.75,0.28691407763148674,0.4413081035344349,-0.26768508822352466,-112.83702493862923,60.622879441834705,7.706360320042279,0.2162,-0.8331,0.5047,0.0672
176,444047.0,411.020241,1.0,-2.93,-2.77,-8.85,-9.25,-2.06,36.88,-3.31,-9.06,1.37,0.10400203296859828,0.3374504935822891,0.08782235765962021,-112.9614299666055,60.42387417457696,8.062436803571838,0.2161,-0.8337,0.5032,0.0703
177,444047.0,411.020241,1.0,-2.93,-2.77,-8.85,-9.25,-2.06,36.88,-3.31,-9.06,1.37,0.10400203296859828,0.3374504935822891,0.08782235765962021,-112.9614299666055,60.42387417457696,8.062436803571838,0.2161,-0.8337,0.5032,0.0703
178,444082.0,411.037906,1.0,-2.99,-3.14,-8.81,-9.25,-2.06,36.88,3.44,-4.81,2.56,0.3798336617728816,0.15976758049910633,-0.003854610345264575,-112.83702493862923,60.450396568246546,8.050949266749551,0.2182,-0.8331,0.5034,0.0702
179,444082.0,411.037906,1.0,-2.99,-3.14,-8.81,-9.25,-2.06,36.88,3.44,-4.81,2.56,0.3798336617728816,0.15976758049910633,-0.003854610345264575,-112.83702493862923,60.450396568246546,8.050949266749551,0.2182,-0.8331,0.5034,0.0702
180,444114.0,411.09525299999996,1.0,-3.02,-3.17,-9.0,-8.56,-3.19,38.88,1.81,-6.38,4.0,0.38287755905207055,0.2387349369360632,-0.1916353732357745,-113.04448004610614,60.13236310008998,8.269226458088282,0.2192,-0.8341,0.501,0.0721
181,444114.0,411.09525299999996,1.0,-3.02,-3.17,-9.0,-8.56,-3.19,38.88,1.81,-6.38,4.0,0.38287755905207055,0.2387349369360632,-0.1916353732357745,-113.04448004610614,60.13236310008998,8.269226458088282,0.2192,-0.8341,0.501,0.0721
182,444151.0,411.105585,1.0,-3.2,-2.99,-8.79,-7.5,-1.69,37.25,-0.37,-2.63,3.69,0.1662759295048007,0.08664466523388993,-0.012160774083277206,-113.16922611259191,59.9867685475142,8.372631359788455,0.2195,-0.8347,0.4999,0.073
183,444151.0,411.105585,1.0,-3.2,-2.99,-8.79,-7.5,-1.69,37.25,-0.37,-2.63,3.69,0.1662759295048007,0.08664466523388993,-0.012160774083277206,-113.16922611259191,59.9867685475142,8.372631359788455,0.2195,-0.8347,0.4999,0.073
184,444184.0,411.158846,1.0,-3.23,-2.92,-8.9,-7.5,-1.69,37.25,-3.56,-7.0,1.25,0.11498212953699782,0.15383744015481726,-0.09953055316446324,-113.12762124009942,59.9867685475142,8.590953131273462,0.2192,-0.8345,0.4999,0.0749
185,444184.0,411.158846,1.0,-3.23,-2.92,-8.9,-7.5,-1.69,37.25,-3.56,-7.0,1.25,0.11498212953699782,0.15383744015481726,-0.09953055316446324,-113.12762124009942,59.9867685475142,8.590953131273462,0.2192,-0.8345,0.4999,0.0749
186,444219.0,411.212199,1.0,-3.34,-2.91,-8.62,-7.06,-2.75,37.25,-1.75,-9.81,6.75,0.13501222658588466,0.0020350572731764327,0.1159396257697285,-113.33587511663835,59.629851488997545,9.13114820216436,0.2199,-0.8355,0.4972,0.0796
187,444219.0,411.212199,1.0,-3.34,-2.91,-8.62,-7.06,-2.75,37.25,-1.75,-9.81,6.75,0.13501222658588466,0.0020350572731764327,0.1159396257697285,-113.33587511663835,59.629851488997545,9.13114820216436,0.2199,-0.8355,0.4972,0.0796
188,444254.0,411.215109,1.0,-3.22,-2.63,-8.88,-7.75,-2.5,38.06,3.81,2.94,4.63,-0.06131307374491901,0.33748801888277025,0.0075662395610383015,-113.39846355737878,59.53742151899626,9.22311622194562,0.22,-0.8358,0.4965,0.0804
189,444254.0,411.215109,1.0,-3.22,-2.63,-8.88,-7.75,-2.5,38.06,3.81,2.94,4.63,-0.06131307374491901,0.33748801888277025,0.0075662395610383015,-113.39846355737878,59.53742151899626,9.22311622194562,0.22,-0.8358,0.4965,0.0804
190,444291.0,411.327638,1.0,-3.06,-2.97,-8.77,-7.5,-3.56,38.06,4.75,1.44,-2.06,0.2925867605686513,0.2803042716347046,0.06328187071106939,-113.71219000408917,59.16812669186737,9.165635515674056,0.2208,-0.8373,0.4937,0.0799
191,444291.0,411.327638,1.0,-3.06,-2.97,-8.77,-7.5,-3.56,38.06,4.75,1.44,-2.06,0.2925867605686513,0.2803042716347046,0.06328187071106939,-113.71219000408917,59.16812669186737,9.165635515674056,0.2208,-0.8373,0.4937,0.0799
192,444323.0,411.333252,1.0,-3.38,-2.76,-8.56,-7.5,-3.56,38.06,2.88,-0.69,1.56,-0.028878027938760157,0.03162942021632098,0.1986447106967528,-113.64933964888505,59.20766160334654,9.200123661166053,0.2213,-0.8370000000000001,0.494,0.0802
193,444323.0,411.333252,1.0,-3.38,-2.76,-8.56,-7.5,-3.56,38.06,2.88,-0.69,1.56,-0.028878027938760157,0.03162942021632098,0.1986447106967528,-113.64933964888505,59.20766160334654,9.200123661166053,0.2213,-0.8370000000000001,0.494,0.0802
194,444360.0,411.343317,1.0,-3.24,-3.13,-8.85,-7.75,-2.06,37.69,7.56,-1.94,0.44,0.30167652064687817,0.1426734127615792,-0.11835053270433528,-113.64933964888505,59.11542551802431,9.108157120464725,0.2231,-0.8370000000000001,0.4933,0.0794
195,444360.0,411.343317,1.0,-3.24,-3.13,-8.85,-7.75,-2.06,37.69,7.56,-1.94,0.44,0.30167652064687817,0.1426734127615792,-0.11835053270433528,-113.64933964888505,59.11542551802431,9.108157120464725,0.2231,-0.8370000000000001,0.4933,0.0794
196,444393.0,411.427564,1.0,-3.23,-3.07,-8.77,-8.56,-2.06,38.06,5.25,-6.75,2.0,0.2527422965986151,0.18044329150036176,-0.02565703090900051,-113.54470605704358,59.10225237254154,9.17713147157167,0.2251,-0.8365,0.4932,0.08
197,444393.0,411.427564,1.0,-3.23,-3.07,-8.77,-8.56,-2.06,38.06,5.25,-6.75,2.0,0.2527422965986151,0.18044329150036176,-0.02565703090900051,-113.54470605704358,59.10225237254154,9.17713147157167,0.2251,-0.8365,0.4932,0.08
198,444428.0,411.48171099999996,1.0,-3.27,-3.06,-8.82,-8.56,-2.06,38.06,-1.88,-7.25,-0.37,0.2347278342025185,0.20933187623242852,-0.08020910739318587,-113.50289343995638,59.0363995158976,9.361079434368333,0.2261,-0.8363,0.4927,0.0816
199,444428.0,411.48171099999996,1.0,-3.27,-3.06,-8.82,-8.56,-2.06,38.06,-1.88,-7.25,-0.37,0.2347278342025185,0.20933187623242852,-0.08020910739318587,-113.50289343995638,59.0363995158976,9.361079434368333,0.2261,-0.8363,0.4927,0.0816
200,444463.0,411.545739,1.0,-3.51,-3.0,-8.55,-7.5,-1.37,37.69,3.44,-2.5,0.06,0.08988844629289916,-0.052485013116465584,0.0900783108381642,-113.52379683838042,58.95740435856217,9.476059158737444,0.2271,-0.8364,0.4921,0.0826
201,444463.0,411.545739,1.0,-3.51,-3.0,-8.55,-7.5,-1.37,37.69,3.44,-2.5,0.06,0.08988844629289916,-0.052485013116465584,0.0900783108381642,-113.52379683838042,58.95740435856217,9.476059158737444,0.2271,-0.8364,0.4921,0.0826
202,444499.0,411.594308,1.0,-3.44,-2.95,-8.57,-7.5,-3.19,38.5,4.19,3.25,0.12,0.05588737591996473,0.03185257481260528,0.11248360908785493,-113.79607269247896,58.64173070844467,9.418568108565768,0.2275,-0.8377,0.4897,0.0821
203,444499.0,411.594308,1.0,-3.44,-2.95,-8.57,-7.5,-3.19,38.5,4.19,3.25,0.12,0.05588737591996473,0.03185257481260528,0.11248360908785493,-113.79607269247896,58.64173070844467,9.418568108565768,0.2275,-0.8377,0.4897,0.0821
204,444534.0,411.69349,1.0,-3.4,-2.86,-8.63,-7.5,-3.19,38.5,0.56,-3.75,-0.31,-0.011186146391693573,0.13711934503454692,0.10110657598987237,-113.77509319472591,58.628588254962324,9.418568108565768,0.228,-0.8376,0.4896,0.0821
205,444534.0,411.69349,1.0,-3.4,-2.86,-8.63,-7.5,-3.19,38.5,0.56,-3.75,-0.31,-0.011186146391693573,0.13711934503454692,0.10110657598987237,-113.77509319472591,58.628588254962324,9.418568108565768,0.228,-0.8376,0.4896,0.0821
206,444567.0,411.727988,1.0,-3.5,-3.02,-8.6,-8.19,-2.06,38.88,2.81,-3.81,-1.81,0.0756440029850316,0.0049997705130124795,0.04321551273542923,-113.85904656766621,58.4578132506004,9.522053719499675,0.2291,-0.838,0.4883,0.083
207,444567.0,411.727988,1.0,-3.5,-3.02,-8.6,-8.19,-2.06,38.88,2.81,-3.81,-1.81,0.0756440029850316,0.0049997705130124795,0.04321551273542923,-113.85904656766621,58.4578132506004,9.522053719499675,0.2291,-0.838,0.4883,0.083
208,444602.0,411.73457,1.0,-3.47,-3.06,-8.54,-7.06,-2.5,38.88,-2.75,-0.31,-3.75,0.13539080717058516,-0.020509887616230186,0.09493806678021066,-114.23801227723101,58.05115338810375,9.637046865121436,0.2285,-0.8398,0.4852,0.084
209,444602.0,411.73457,1.0,-3.47,-3.06,-8.54,-7.06,-2.5,38.88,-2.75,-0.31,-3.75,0.13539080717058516,-0.020509887616230186,0.09493806678021066,-114.23801227723101,58.05115338810375,9.637046865121436,0.2285,-0.8398,0.4852,0.084
210,444637.0,411.75056,1.0,-3.44,-3.16,-8.57,-7.06,-2.5,38.88,-2.69,-2.69,-3.69,0.25063803744913704,-0.029796358855574082,0.04958113936451447,-114.38591221182236,57.907047347217045,9.752049739225924,0.2278,-0.8405,0.4841,0.085
211,444637.0,411.75056,1.0,-3.44,-3.16,-8.57,-7.06,-2.5,38.88,-2.69,-2.69,-3.69,0.25063803744913704,-0.029796358855574082,0.04958113936451447,-114.38591221182236,57.907047347217045,9.752049739225924,0.2278,-0.8405,0.4841,0.085
212,444669.0,411.753453,1.0,-3.45,-3.08,-8.81,-7.06,-1.0,37.69,-3.19,-8.44,3.0,0.1741769252815626,0.14094868848762254,-0.14095251849223622,-114.32249031100716,57.89395177277983,9.92457255015729,0.2288,-0.8402,0.484,0.0865
213,444669.0,411.753453,1.0,-3.45,-3.08,-8.81,-7.06,-1.0,37.69,-3.19,-8.44,3.0,0.1741769252815626,0.14094868848762254,-0.14095251849223622,-114.32249031100716,57.89395177277983,9.92457255015729,0.2288,-0.8402,0.484,0.0865
214,444704.0,411.762262,1.0,-3.46,-3.18,-8.56,-6.25,-2.5,39.19,5.19,-0.12,0.75,0.27239005871744026,-0.004652520054168274,0.045329289667352064,-114.51291967073887,57.60605796369463,10.05110359058591,0.2296,-0.8411,0.4818,0.0876
215,444704.0,411.762262,1.0,-3.46,-3.18,-8.56,-6.25,-2.5,39.19,5.19,-0.12,0.75,0.27239005871744026,-0.004652520054168274,0.045329289667352064,-114.51291967073887,57.60605796369463,10.05110359058591,0.2296,-0.8411,0.4818,0.0876
216,444739.0,411.798292,1.0,-3.35,-3.08,-8.64,-7.5,-1.0,38.38,6.19,1.88,2.06,0.1970755882956845,0.17148751419626485,0.04497733364958734,-114.36476553066456,57.72378450652888,9.832557602907887,0.2312,-0.8404,0.4827,0.0857
217,444739.0,411.798292,1.0,-3.35,-3.08,-8.64,-7.5,-1.0,38.38,6.19,1.88,2.06,0.1970755882956845,0.17148751419626485,0.04497733364958734,-114.36476553066456,57.72378450652888,9.832557602907887,0.2312,-0.8404,0.4827,0.0857
