,TIME,ELAPSED_SECONDS,PSTATE,acc_x,acc_y,acc_z,mag_x,mag_y,mag_z,gyr_x,gyr_y,gyr_z,lin_x,lin_y,lin_z,eul_x,eul_y,eul_z,qua_w,qua_x,qua_y,qua_z
0,1179117.0,68.896668,1.0,-0.2,-1.94,-9.77,-18.25,-7.19,37.38,0.31,2.94,-0.37,-0.048373010127641565,-0.03776172805831002,-0.15591664237610914,-126.45446035214495,52.15672470466425,-4.263789782102698,0.0916,-0.8928,0.4396,-0.0372
1,1179117.0,68.896668,1.0,-0.2,-1.94,-9.77,-18.25,-7.19,37.38,0.31,2.94,-0.37,-0.048373010127641565,-0.03776172805831002,-0.15591664237610914,-126.45446035214495,52.15672470466425,-4.263789782102698,0.0916,-0.8928,0.4396,-0.0372
2,1179152.0,68.907562,1.0,-0.12,-1.94,-9.78,-17.5,-6.06,38.19,-1.81,2.38,0.0,-0.004624642423871839,0.011815232133832955,-0.16462068196285884,-126.45446035214495,52.15672470466425,-4.3211257832659316,0.091,-0.8928,0.4396,-0.0377
3,1179152.0,68.907562,1.0,-0.12,-1.94,-9.78,-17.5,-6.06,38.19,-1.81,2.38,0.0,-0.004624642423871839,0.011815232133832955,-0.16462068196285884,-126.45446035214495,52.15672470466425,-4.3211257832659316,0.091,-0.8928,0.4396,-0.0377
4,1179187.0,68.91086800000001,1.0,-0.12,-1.77,-9.78,-17.5,-6.06,38.19,-2.5,1.37,0.88,-0.12858094776529105,0.09304613380845196,-0.13168534133635035,-126.45446035214495,52.19500183844674,-4.332593112917143,0.0899,-0.8928,0.4399,-0.0378
5,1179187.0,68.91086800000001,1.0,-0.12,-1.77,-9.78,-17.5,-6.06,38.19,-2.5,1.37,0.88,-0.12858094776529105,0.09304613380845196,-0.13168534133635035,-126.45446035214495,52.19500183844674,-4.332593112917143,0.0899,-0.8928,0.4399,-0.0378
6,1179222.0,68.960122,1.0,-0.1,-1.75,-9.9,-18.25,-6.75,39.0,1.56,-0.5,-1.63,-0.15086642753178342,0.12862079881480482,-0.245374473266871,-126.47990511760632,52.15672470466425,-4.355527902560735,0.0896,-0.8929,0.4396,-0.038
7,1179222.0,68.960122,1.0,-0.1,-1.75,-9.9,-18.25,-6.75,39.0,1.56,-0.5,-1.63,-0.15086642753178342,0.12862079881480482,-0.245374473266871,-126.47990511760632,52.15672470466425,-4.355527902560735,0.0896,-0.8929,0.4396,-0.038
8,1179258.0,69.040481,1.0,-0.11,-1.93,-9.68,-18.69,-6.75,37.75,-1.25,0.63,-0.69,0.013932100413680204,-0.013593670666762758,-0.06447055993117168,-126.5308282926202,52.10569825761032,-4.355527902560735,0.0897,-0.8931,0.4392,-0.038
9,1179258.0,69.040481,1.0,-0.11,-1.93,-9.68,-18.69,-6.75,37.75,-1.25,0.63,-0.69,0.013932100413680204,-0.013593670666762758,-0.06447055993117168,-126.5308282926202,52.10569825761032,-4.355527902560735,0.0897,-0.8931,0.4392,-0.038
10,1179293.0,69.093176,1.0,-0.07,-1.83,-9.92,-18.69,-6.75,37.75,1.31,1.44,-1.44,-0.08018813171913558,0.10109512896330863,-0.2801507632961222,-126.5308282926202,52.09294338177222,-4.401398006442045,0.0895,-0.8931,0.4391,-0.0384
11,1179293.0,69.093176,1.0,-0.07,-1.83,-9.92,-18.69,-6.75,37.75,1.31,1.44,-1.44,-0.08018813171913558,0.10109512896330863,-0.2801507632961222,-126.5308282926202,52.09294338177222,-4.401398006442045,0.0895,-0.8931,0.4391,-0.0384
12,1179326.0,69.101883,1.0,-0.06,-1.79,-9.84,-18.25,-6.75,38.19,-0.69,-0.44,-4.38,-0.09304968142286574,0.11307302509040207,-0.1939427948189163,-126.6838681332996,51.93993891277072,-4.412865642375664,0.0891,-0.8937,0.4379,-0.0385
13,1179326.0,69.101883,1.0,-0.06,-1.79,-9.84,-18.25,-6.75,38.19,-0.69,-0.44,-4.38,-0.09304968142286574,0.11307302509040207,-0.1939427948189163,-126.6838681332996,51.93993891277072,-4.412865642375664,0.0891,-0.8937,0.4379,-0.0385
14,1179363.0,69.105355,1.0,-0.23,-2.03,-9.58,-17.5,-6.75,37.0,-0.81,-0.94,-4.0,0.03031726264148088,-0.2016824259788489,0.013356117825461313,-126.83731618493427,51.79977218612414,-4.389930414609093,0.0889,-0.8943,0.4368,-0.0383
15,1179363.0,69.105355,1.0,-0.23,-2.03,-9.58,-17.5,-6.75,37.0,-0.81,-0.94,-4.0,0.03031726264148088,-0.2016824259788489,0.013356117825461313,-126.83731618493427,51.79977218612414,-4.389930414609093,0.0889,-0.8943,0.4368,-0.0383
16,1179398.0,69.150706,1.0,-0.16,-2.07,-9.67,-17.5,-6.75,37.0,2.0,1.06,0.88,0.0772031873133015,-0.15302084422201925,-0.08223387479104005,-126.83731618493427,51.79977218612414,-4.447268815934101,0.0895,-0.8943,0.4368,-0.0388
17,1179398.0,69.150706,1.0,-0.16,-2.07,-9.67,-17.5,-6.75,37.0,2.0,1.06,0.88,0.0772031873133015,-0.15302084422201925,-0.08223387479104005,-126.83731618493427,51.79977218612414,-4.447268815934101,0.0895,-0.8943,0.4368,-0.0388
18,1179430.0,69.16920999999999,1.0,-0.12,-1.95,-9.82,-18.25,-7.19,38.19,-1.31,0.75,0.63,-0.013306179254002626,-0.03919134626166998,-0.20572169625518374,-126.83731618493427,51.79977218612414,-4.4702044875913645,0.0891,-0.8943,0.4368,-0.039
19,1179430.0,69.16920999999999,1.0,-0.12,-1.95,-9.82,-18.25,-7.19,38.19,-1.31,0.75,0.63,-0.013306179254002626,-0.03919134626166998,-0.20572169625518374,-126.83731618493427,51.79977218612414,-4.4702044875913645,0.0891,-0.8943,0.4368,-0.039
20,1179465.0,69.172457,1.0,-0.17,-1.83,-9.65,-18.25,-6.06,38.19,1.06,-0.12,2.63,-0.11441285468328966,-0.02388414950912965,-0.01611128418508656,-126.73497195223709,51.88895954474002,-4.481672390551605,0.0893,-0.8939,0.4375,-0.0391
21,1179465.0,69.172457,1.0,-0.17,-1.83,-9.65,-18.25,-6.06,38.19,1.06,-0.12,2.63,-0.11441285468328966,-0.02388414950912965,-0.01611128418508656,-126.73497195223709,51.88895954474002,-4.481672390551605,0.0893,-0.8939,0.4375,-0.0391
22,1179502.0,69.21257800000001,1.0,-0.08,-2.01,-9.71,-17.19,-7.19,37.38,-2.0,2.44,-1.5,0.07570145913356341,-0.06709895468270244,-0.10901271206143548,-126.76054091134182,51.876216427159775,-4.49314033842009,0.0886,-0.894,0.4374,-0.0392
23,1179502.0,69.21257800000001,1.0,-0.08,-2.01,-9.71,-17.19,-7.19,37.38,-2.0,2.44,-1.5,0.07570145913356341,-0.06709895468270244,-0.10901271206143548,-126.76054091134182,51.876216427159775,-4.49314033842009,0.0886,-0.894,0.4374,-0.0392
24,1179535.0,69.220063,1.0,-0.04,-1.73,-9.83,-17.19,-7.19,37.38,-1.56,0.0,2.75,-0.13747283703621854,0.14243952222106115,-0.17253895509983866,-126.6838681332996,51.95268548055449,-4.527544452628878,0.0884,-0.8937,0.43799999999999994,-0.0395
25,1179535.0,69.220063,1.0,-0.04,-1.73,-9.83,-17.19,-7.19,37.38,-1.56,0.0,2.75,-0.13747283703621854,0.14243952222106115,-0.17253895509983866,-126.6838681332996,51.95268548055449,-4.527544452628878,0.0884,-0.8937,0.43799999999999994,-0.0395
26,1179572.0,69.23835,1.0,-0.14,-1.88,-9.82,-17.87,-6.75,38.19,-0.19,0.63,-1.75,-0.08280631409306177,-0.028996448532399133,-0.19228505931100948,-126.70941436503277,51.93993891277072,-4.539012581284228,0.0884,-0.8938,0.4379,-0.0396
27,1179572.0,69.23835,1.0,-0.14,-1.88,-9.82,-17.87,-6.75,38.19,-0.19,0.63,-1.75,-0.08280631409306177,-0.028996448532399133,-0.19228505931100948,-126.70941436503277,51.93993891277072,-4.539012581284228,0.0884,-0.8938,0.4379,-0.0396
28,1179609.0,69.241449,1.0,-0.04,-1.86,-9.78,-18.69,-7.56,38.19,0.06,1.37,0.31,-0.03386789734461832,0.04886230334029251,-0.14855293318231233,-126.73497195223709,51.927193035567214,-4.573417240623146,0.0881,-0.8939,0.4378,-0.0399
29,1179609.0,69.241449,1.0,-0.04,-1.86,-9.78,-18.69,-7.56,38.19,0.06,1.37,0.31,-0.03386789734461832,0.04886230334029251,-0.14855293318231233,-126.73497195223709,51.927193035567214,-4.573417240623146,0.0881,-0.8939,0.4378,-0.0399
30,1179641.0,69.281397,1.0,-0.2,-2.03,-9.7,-18.69,-7.56,38.19,0.31,0.25,-0.56,0.01097723143888829,-0.187459750495522,-0.10373033287997124,-126.70941436503277,51.93993891277072,-4.573417240623146,0.0882,-0.8938,0.4379,-0.0399
31,1179641.0,69.281397,1.0,-0.2,-2.03,-9.7,-18.69,-7.56,38.19,0.31,0.25,-0.56,0.01097723143888829,-0.187459750495522,-0.10373033287997124,-126.70941436503277,51.93993891277072,-4.573417240623146,0.0882,-0.8938,0.4379,-0.0399
32,1179676.0,69.288584,1.0,-0.18,-1.95,-9.74,-18.69,-6.38,37.0,0.81,1.37,1.31,-0.05049976992421645,-0.11896194184621388,-0.1274225701813645,-126.65833324064701,51.97818068894303,-4.6078223124450055,0.0883,-0.8936,0.4382,-0.0402
33,1179676.0,69.288584,1.0,-0.18,-1.95,-9.74,-18.69,-6.38,37.0,0.81,1.37,1.31,-0.05049976992421645,-0.11896194184621388,-0.1274225701813645,-126.65833324064701,51.97818068894303,-4.6078223124450055,0.0883,-0.8936,0.4382,-0.0402
34,1179711.0,69.348599,1.0,0.0,-1.9,-9.86,-17.87,-6.75,37.0,-1.19,2.19,-0.56,-0.00233527318144966,0.051792802390812964,-0.234610481240372,-126.6838681332996,51.97818068894303,-4.6766337060034,0.0877,-0.8937,0.4382,-0.0408
35,1179711.0,69.348599,1.0,0.0,-1.9,-9.86,-17.87,-6.75,37.0,-1.19,2.19,-0.56,-0.00233527318144966,0.051792802390812964,-0.234610481240372,-126.6838681332996,51.97818068894303,-4.6766337060034,0.0877,-0.8937,0.4382,-0.0408
36,1179748.0,69.356042,1.0,0.0,-1.9,-9.84,-17.87,-6.75,37.0,2.31,-0.81,2.88,-0.003525245098171703,0.05464022247376354,-0.2149567583364611,-126.60729740721462,52.016428687631496,-4.6881024349692195,0.08800000000000001,-0.8934,0.4385,-0.0409
37,1179748.0,69.356042,1.0,0.0,-1.9,-9.84,-17.87,-6.75,37.0,2.31,-0.81,2.88,-0.003525245098171703,0.05464022247376354,-0.2149567583364611,-126.60729740721462,52.016428687631496,-4.6881024349692195,0.08800000000000001,-0.8934,0.4385,-0.0409
38,1179781.0,69.374465,1.0,-0.15,-1.77,-9.7,-17.5,-6.75,38.56,-2.06,-0.94,-1.63,-0.16267184459293488,-0.001418945748788869,-0.05331632132025455,-126.6328096707232,52.02917940457078,-4.6192907619204595,0.0878,-0.8935,0.4386,-0.0403
39,1179781.0,69.374465,1.0,-0.15,-1.77,-9.7,-17.5,-6.75,38.56,-2.06,-0.94,-1.63,-0.16267184459293488,-0.001418945748788869,-0.05331632132025455,-126.6328096707232,52.02917940457078,-4.6192907619204595,0.0878,-0.8935,0.4386,-0.0403
40,1179815.0,69.377667,1.0,-0.21,-1.88,-9.6,-18.69,-6.75,39.0,1.25,0.88,0.37,-0.1018173476124094,-0.13069947284603378,0.02344751433494352,-126.65833324064701,52.016428687631496,-4.642227799866185,0.0877,-0.8936,0.4385,-0.0405
41,1179815.0,69.377667,1.0,-0.21,-1.88,-9.6,-18.69,-6.75,39.0,1.25,0.88,0.37,-0.1018173476124094,-0.13069947284603378,0.02344751433494352,-126.65833324064701,52.016428687631496,-4.642227799866185,0.0877,-0.8936,0.4385,-0.0405
42,1179852.0,69.424471,1.0,-0.08,-1.83,-9.71,-17.5,-6.38,36.19,-2.5,2.0,-0.88,-0.07762189681175669,0.0067917420890369895,-0.07430788440446534,-126.6328096707232,52.016428687631496,-4.66516502390792,0.0873,-0.8935,0.4385,-0.0407
43,1179852.0,69.424471,1.0,-0.08,-1.83,-9.71,-17.5,-6.38,36.19,-2.5,2.0,-0.88,-0.07762189681175669,0.0067917420890369895,-0.07430788440446534,-126.6328096707232,52.016428687631496,-4.66516502390792,0.0873,-0.8935,0.4385,-0.0407
44,1179885.0,69.480856,1.0,-0.12,-1.93,-9.63,-17.5,-6.38,36.19,-0.37,0.5,-1.44,-0.015602492369438116,-0.1029047653510594,-0.015028429448806337,-126.6838681332996,51.97818068894303,-4.699571210920838,0.087,-0.8937,0.4382,-0.040999999999999995
45,1179885.0,69.480856,1.0,-0.12,-1.93,-9.63,-17.5,-6.38,36.19,-0.37,0.5,-1.44,-0.015602492369438116,-0.1029047653510594,-0.015028429448806337,-126.6838681332996,51.97818068894303,-4.699571210920838,0.087,-0.8937,0.4382,-0.040999999999999995
46,1179922.0,69.496781,1.0,0.11,-1.95,-9.89,-18.25,-7.88,37.38,1.12,0.0,0.44,0.09632905945166376,0.09073041041445497,-0.27348832766848297,-126.6838681332996,51.965432739188564,-4.745446786894516,0.0868,-0.8937,0.4381,-0.0414
47,1179922.0,69.496781,1.0,0.11,-1.95,-9.89,-18.25,-7.88,37.38,1.12,0.0,0.44,0.09632905945166376,0.09073041041445497,-0.27348832766848297,-126.6838681332996,51.965432739188564,-4.745446786894516,0.0868,-0.8937,0.4381,-0.0414
48,1179959.0,69.515419,1.0,0.13,-2.1,-9.71,-19.0,-6.38,37.38,1.25,-3.06,-0.5,0.25277445471317755,0.014824700565935878,-0.12546383861953458,-126.70941436503277,51.93993891277072,-4.6881024349692195,0.0877,-0.8938,0.4379,-0.0409
49,1179959.0,69.515419,1.0,0.13,-2.1,-9.71,-19.0,-6.38,37.38,1.25,-3.06,-0.5,0.25277445471317755,0.014824700565935878,-0.12546383861953458,-126.70941436503277,51.93993891277072,-4.6881024349692195,0.0877,-0.8938,0.4379,-0.0409
50,1179992.0,69.518578,1.0,0.25,-2.07,-9.58,-19.0,-6.38,37.38,5.5,-5.63,0.37,0.32420592246012464,0.13826840159284015,0.008712851346578177,-126.73497195223709,51.901703351821595,-4.6078223124450055,0.0889,-0.8939,0.4376,-0.0402
51,1179992.0,69.518578,1.0,0.25,-2.07,-9.58,-19.0,-6.38,37.38,5.5,-5.63,0.37,0.32420592246012464,0.13826840159284015,0.008712851346578177,-126.73497195223709,51.901703351821595,-4.6078223124450055,0.0889,-0.8939,0.4376,-0.0402
52,1180026.0,69.564856,1.0,0.13,-2.38,-9.13,-18.69,-6.38,37.75,1.56,-20.81,-2.19,0.6090485715470015,-0.10484798396857008,0.3909043185494703,-126.81171301116377,51.77429627625306,-4.057388916858228,0.0923,-0.8942,0.4366,-0.0354
53,1180026.0,69.564856,1.0,0.13,-2.38,-9.13,-18.69,-6.38,37.75,1.56,-20.81,-2.19,0.6090485715470015,-0.10484798396857008,0.3909043185494703,-126.81171301116377,51.77429627625306,-4.057388916858228,0.0923,-0.8942,0.4366,-0.0354
54,1180063.0,69.58895799999999,1.0,-0.21,-2.19,-7.78,-17.19,-6.75,38.19,-5.63,-19.25,-4.38,0.5182925444351487,-0.3902039014700216,1.7476355594086108,-126.9655039569828,51.634227840640925,-3.4153340784378665,0.0932,-0.8948,0.4355,-0.0298
55,1180063.0,69.58895799999999,1.0,-0.21,-2.19,-7.78,-17.19,-6.75,38.19,-5.63,-19.25,-4.38,0.5182925444351487,-0.3902039014700216,1.7476355594086108,-126.9655039569828,51.634227840640925,-3.4153340784378665,0.0932,-0.8948,0.4355,-0.0298
56,1180098.0,69.63823599999999,1.0,-0.29,-2.58,-7.53,-17.19,-6.75,38.19,-1.75,0.0,-7.44,0.8133592814082004,-0.7227082232572608,1.9163052988235376,-127.24853393391231,51.35433895468569,-3.2892294003721183,0.0932,-0.8959,0.4333,-0.0287
57,1180098.0,69.63823599999999,1.0,-0.29,-2.58,-7.53,-17.19,-6.75,38.19,-1.75,0.0,-7.44,0.8133592814082004,-0.7227082232572608,1.9163052988235376,-127.24853393391231,51.35433895468569,-3.2892294003721183,0.0932,-0.8959,0.4333,-0.0287
58,1180133.0,69.661501,1.0,-0.55,-3.33,-6.97,-17.19,-7.88,37.75,-4.0,1.12,-6.88,1.2947988189629422,-1.485659966017194,2.3174170296761383,-127.53298072808481,51.1001794642751,-3.346549205454908,0.0922,-0.897,0.4313,-0.0292
59,1180133.0,69.661501,1.0,-0.55,-3.33,-6.97,-17.19,-7.88,37.75,-4.0,1.12,-6.88,1.2947988189629422,-1.485659966017194,2.3174170296761383,-127.53298072808481,51.1001794642751,-3.346549205454908,0.0922,-0.897,0.4313,-0.0292
60,1180168.0,69.72746500000001,1.0,-0.61,-3.41,-6.65,-17.19,-6.38,37.75,-15.0,8.75,-3.44,1.3836150607943742,-1.6920888711706676,2.634122926812797,-127.76677999527551,50.998591161570644,-3.369477361207863,0.0875,-0.8979,0.4305,-0.0294
61,1180168.0,69.72746500000001,1.0,-0.61,-3.41,-6.65,-17.19,-6.38,37.75,-15.0,8.75,-3.44,1.3836150607943742,-1.6920888711706676,2.634122926812797,-127.76677999527551,50.998591161570644,-3.369477361207863,0.0875,-0.8979,0.4305,-0.0294
62,1180205.0,69.731024,1.0,-0.67,-3.73,-6.52,-17.19,-7.56,37.75,-35.81,17.81,5.94,1.6574320138519747,-2.054081076767825,2.7422413163575445,-127.7928177632481,51.163694017238186,-3.438262641755622,0.0794,-0.898,0.4318,-0.03
63,1180205.0,69.731024,1.0,-0.67,-3.73,-6.52,-17.19,-7.56,37.75,-35.81,17.81,5.94,1.6574320138519747,-2.054081076767825,2.7422413163575445,-127.7928177632481,51.163694017238186,-3.438262641755622,0.0794,-0.898,0.4318,-0.03
64,1180237.0,69.794185,1.0,-0.63,-4.0,-6.29,-17.19,-7.56,37.75,-35.06,34.44,19.19,2.001955217515897,-2.397620528855672,3.0092540937230408,-127.30014547607834,51.95268548055449,-3.8853982832056495,0.0638,-0.8961,0.43799999999999994,-0.0339
65,1180237.0,69.794185,1.0,-0.63,-4.0,-6.29,-17.19,-7.56,37.75,-35.06,34.44,19.19,2.001955217515897,-2.397620528855672,3.0092540937230408,-127.30014547607834,51.95268548055449,-3.8853982832056495,0.0638,-0.8961,0.43799999999999994,-0.0339
66,1180274.0,69.797753,1.0,0.12,-3.69,-6.24,-16.75,-8.25,38.19,-52.94,72.5,42.06,2.278022755498001,-1.8179849583348808,3.1678516888068184,-126.30202625936262,53.14117252914141,-4.791323123878448,0.0464,-0.8922,0.4473,-0.0418
67,1180274.0,69.797753,1.0,0.12,-3.69,-6.24,-16.75,-8.25,38.19,-52.94,72.5,42.06,2.278022755498001,-1.8179849583348808,3.1678516888068184,-126.30202625936262,53.14117252914141,-4.791323123878448,0.0464,-0.8922,0.4473,-0.0418
68,1180311.0,69.980858,1.0,1.38,-2.84,-6.85,-20.5,-9.69,35.0,-79.81,104.5,62.25,2.3130456907721744,-0.6964259950944103,2.661210162890105,-123.86648635871313,55.640597444132574,-6.776309776380446,0.012,-0.8824,0.4667,-0.0591
69,1180311.0,69.980858,1.0,1.38,-2.84,-6.85,-20.5,-9.69,35.0,-79.81,104.5,62.25,2.3130456907721744,-0.6964259950944103,2.661210162890105,-123.86648635871313,55.640597444132574,-6.776309776380446,0.012,-0.8824,0.4667,-0.0591
70,1180346.0,69.991659,1.0,2.59,-1.97,-7.42,-20.5,-9.69,35.0,-100.12,110.37,73.44,2.2324552911800994,0.34243164300759443,2.0256292480196336,-121.38378152894909,57.8546700143526,-8.292204739238791,-0.0208,-0.872,0.4837,-0.0723
71,1180346.0,69.991659,1.0,2.59,-1.97,-7.42,-20.5,-9.69,35.0,-100.12,110.37,73.44,2.2324552911800994,0.34243164300759443,2.0256292480196336,-121.38378152894909,57.8546700143526,-8.292204739238791,-0.0208,-0.872,0.4837,-0.0723
72,1180381.0,69.99528199999999,1.0,3.48,-0.76,-6.93,-24.25,-10.88,33.0,-111.94,113.69,95.44,1.7337615544158842,1.206187601944699,2.3065111785284738,-117.013124056645,61.40760741658022,-10.028097037556813,-0.0683,-0.8527,0.5106,-0.0874
73,1180381.0,69.99528199999999,1.0,3.48,-0.76,-6.93,-24.25,-10.88,33.0,-111.94,113.69,95.44,1.7337615544158842,1.206187601944699,2.3065111785284738,-117.013124056645,61.40760741658022,-10.028097037556813,-0.0683,-0.8527,0.5106,-0.0874
74,1180416.0,70.045037,1.0,5.85,0.87,-8.91,-29.87,-11.19,31.06,-123.5,129.44,96.75,1.1685414089779973,2.5961231729992065,-0.501703672925677,-111.6651483609591,65.10878208962191,-11.996720388635614,-0.1222,-0.8274,0.5381,-0.1045
75,1180416.0,70.045037,1.0,5.85,0.87,-8.91,-29.87,-11.19,31.06,-123.5,129.44,96.75,1.1685414089779973,2.5961231729992065,-0.501703672925677,-111.6651483609591,65.10878208962191,-11.996720388635614,-0.1222,-0.8274,0.5381,-0.1045
76,1180452.0,70.062241,1.0,5.62,0.35,-8.3,-34.0,-11.25,24.25,-147.81,96.94,85.44,1.7191179311295215,1.7358452899331185,0.07893831285147712,-107.68535335119316,67.53166897221763,-12.676748644427741,-0.1642,-0.8074,0.5558,-0.1104
77,1180452.0,70.062241,1.0,5.62,0.35,-8.3,-34.0,-11.25,24.25,-147.81,96.94,85.44,1.7191179311295215,1.7358452899331185,0.07893831285147712,-107.68535335119316,67.53166897221763,-12.676748644427741,-0.1642,-0.8074,0.5558,-0.1104
78,1180487.0,70.065087,1.0,6.06,2.77,-7.3,-34.0,-11.25,24.25,-166.38,88.12,113.56,-0.2192282464977523,2.3675704400168183,0.21326430007653308,-101.21199312357183,71.57772437161505,-12.561458728935325,-0.2206,-0.7728,0.5848,-0.1094
79,1180487.0,70.065087,1.0,6.06,2.77,-7.3,-34.0,-11.25,24.25,-166.38,88.12,113.56,-0.2192282464977523,2.3675704400168183,0.21326430007653308,-101.21199312357183,71.57772437161505,-12.561458728935325,-0.2206,-0.7728,0.5848,-0.1094
80,1180524.0,70.102475,1.0,6.91,3.58,-8.54,-37.38,-11.06,20.0,-168.69,96.37,104.44,-0.3943693177151729,1.7794986201932392,-1.6027302417999554,-95.99232372540723,74.42890280024764,-12.58451568698019,-0.2646,-0.7431,0.6048,-0.1096
81,1180524.0,70.102475,1.0,6.91,3.58,-8.54,-37.38,-11.06,20.0,-168.69,96.37,104.44,-0.3943693177151729,1.7794986201932392,-1.6027302417999554,-95.99232372540723,74.42890280024764,-12.58451568698019,-0.2646,-0.7431,0.6048,-0.1096
82,1180561.0,70.109739,1.0,5.86,4.43,-5.97,-40.75,-9.06,14.5,-192.56,54.25,94.25,-1.4684836260435676,1.4035295602064746,0.561161337215939,-89.25585014264172,77.76127164487418,-11.213483126166134,-0.3209,-0.7025,0.6277,-0.0977
83,1180561.0,70.109739,1.0,5.86,4.43,-5.97,-40.75,-9.06,14.5,-192.56,54.25,94.25,-1.4684836260435676,1.4035295602064746,0.561161337215939,-89.25585014264172,77.76127164487418,-11.213483126166134,-0.3209,-0.7025,0.6277,-0.0977
84,1180596.0,70.170479,1.0,5.29,5.69,-2.64,-40.75,-9.06,14.5,-167.19,49.88,103.31,-3.551576601951892,2.195264682611513,2.742875045080611,-84.13412960499036,80.37634433071155,-9.878564278366849,-0.3569,-0.67,0.6453,-0.0861
85,1180596.0,70.170479,1.0,5.29,5.69,-2.64,-40.75,-9.06,14.5,-167.19,49.88,103.31,-3.551576601951892,2.195264682611513,2.742875045080611,-84.13412960499036,80.37634433071155,-9.878564278366849,-0.3569,-0.67,0.6453,-0.0861
86,1180631.0,70.183832,1.0,6.78,6.85,-3.01,-41.25,-7.5,9.5,-136.69,100.69,110.19,-4.142215012673018,1.9012354122446016,0.796746632259957,-77.39373685475255,83.05814635391897,-9.798053639345571,-0.4029,-0.6252,0.6629999999999999,-0.0854
87,1180631.0,70.183832,1.0,6.78,6.85,-3.01,-41.25,-7.5,9.5,-136.69,100.69,110.19,-4.142215012673018,1.9012354122446016,0.796746632259957,-77.39373685475255,83.05814635391897,-9.798053639345571,-0.4029,-0.6252,0.6629999999999999,-0.0854
88,1180667.0,70.24552299999999,1.0,9.04,6.9,-4.7,-42.56,-4.06,5.25,-113.81,126.62,96.44,-2.8935752743876897,1.0835893493865778,-2.104464819921276,-71.2954433395492,83.9336186033691,-11.167427069301608,-0.4515,-0.5828,0.6687,-0.0973
89,1180667.0,70.24552299999999,1.0,9.04,6.9,-4.7,-42.56,-4.06,5.25,-113.81,126.62,96.44,-2.8935752743876897,1.0835893493865778,-2.104464819921276,-71.2954433395492,83.9336186033691,-11.167427069301608,-0.4515,-0.5828,0.6687,-0.0973
90,1180704.0,70.26404699999999,1.0,9.13,5.85,-3.35,-41.25,-1.06,3.75,-117.12,106.62,72.31,-2.3499310605009445,1.4657989711127035,-1.1993100847530709,-67.2424412315755,83.99528064351469,-11.685663847129462,-0.4851,-0.5537,0.6691,-0.1018
91,1180704.0,70.26404699999999,1.0,9.13,5.85,-3.35,-41.25,-1.06,3.75,-117.12,106.62,72.31,-2.3499310605009445,1.4657989711127035,-1.1993100847530709,-67.2424412315755,83.99528064351469,-11.685663847129462,-0.4851,-0.5537,0.6691,-0.1018
92,1180737.0,70.267349,1.0,9.7,5.78,-2.44,-41.25,-1.06,3.75,-94.69,112.0,83.44,-2.4482491875306285,1.2525792007000325,-1.4133821417422574,-61.86127398626197,83.91820775613573,-12.965030073382625,-0.5253,-0.514,0.6686,-0.1129
93,1180737.0,70.267349,1.0,9.7,5.78,-2.44,-41.25,-1.06,3.75,-94.69,112.0,83.44,-2.4482491875306285,1.2525792007000325,-1.4133821417422574,-61.86127398626197,83.91820775613573,-12.965030073382625,-0.5253,-0.514,0.6686,-0.1129
94,1180774.0,70.39916,1.0,11.33,5.06,-3.39,-39.88,3.0,1.19,-114.87,127.44,68.75,-0.8089440210426906,0.8165894825668238,-3.005195736964696,-57.802305908948476,83.19598327143912,-13.93427040697098,-0.5577,-0.4833,0.6639,-0.1213
95,1180774.0,70.39916,1.0,11.33,5.06,-3.39,-39.88,3.0,1.19,-114.87,127.44,68.75,-0.8089440210426906,0.8165894825668238,-3.005195736964696,-57.802305908948476,83.19598327143912,-13.93427040697098,-0.5577,-0.4833,0.6639,-0.1213
96,1180811.0,70.404387,1.0,11.5,5.68,-2.73,-38.56,6.06,-1.69,-136.44,94.25,59.69,-1.026722549222709,-0.22911965745971766,-3.2646408692861417,-51.97818068894303,82.34069929138175,-13.818833482803015,-0.6002,-0.4382,0.6583,-0.1203
97,1180811.0,70.404387,1.0,11.5,5.68,-2.73,-38.56,6.06,-1.69,-136.44,94.25,59.69,-1.026722549222709,-0.22911965745971766,-3.2646408692861417,-51.97818068894303,82.34069929138175,-13.818833482803015,-0.6002,-0.4382,0.6583,-0.1203
98,1180848.0,70.534006,1.0,11.14,5.46,-1.16,-38.56,6.06,-1.69,-145.69,80.25,53.19,-1.5471095439500968,0.014622640082199824,-2.5571292861816968,-47.71959673028522,81.88480291681634,-13.114968872872085,-0.6277,-0.4045,0.6553,-0.1142
99,1180848.0,70.534006,1.0,11.14,5.46,-1.16,-38.56,6.06,-1.69,-145.69,80.25,53.19,-1.5471095439500968,0.014622640082199824,-2.5571292861816968,-47.71959673028522,81.88480291681634,-13.114968872872085,-0.6277,-0.4045,0.6553,-0.1142
100,1180880.0,70.62824499999999,1.0,11.18,6.11,-0.5,-38.25,9.25,-4.0,-125.81,74.25,50.25,-1.8411791477936683,-1.0132284169536874,-2.769435540453648,-42.163546289132256,81.17370917960935,-12.00824269100582,-0.6606,-0.3597,0.6506,-0.1046
101,1180880.0,70.62824499999999,1.0,11.18,6.11,-0.5,-38.25,9.25,-4.0,-125.81,74.25,50.25,-1.8411791477936683,-1.0132284169536874,-2.769435540453648,-42.163546289132256,81.17370917960935,-12.00824269100582,-0.6606,-0.3597,0.6506,-0.1046
102,1180917.0,70.748398,1.0,11.18,5.57,0.05,-36.56,12.06,-5.06,-101.12,77.81,47.81,-1.4007877906982853,-1.192538309693748,-2.5479218641053425,-37.62836370499113,79.94203028891886,-11.616551985135152,-0.6878,-0.3225,0.6424,-0.1012
103,1180917.0,70.748398,1.0,11.18,5.57,0.05,-36.56,12.06,-5.06,-101.12,77.81,47.81,-1.4007877906982853,-1.192538309693748,-2.5479218641053425,-37.62836370499113,79.94203028891886,-11.616551985135152,-0.6878,-0.3225,0.6424,-0.1012
104,1180954.0,70.839933,1.0,11.57,5.44,-1.15,-35.75,14.88,-5.56,-94.87,66.56,39.25,0.15561552478153073,-2.256079870202353,-2.8292863494643647,-34.54300944397086,78.88447691741733,-11.37469368630907,-0.7061,-0.2969,0.6353,-0.0991
105,1180954.0,70.839933,1.0,11.57,5.44,-1.15,-35.75,14.88,-5.56,-94.87,66.56,39.25,0.15561552478153073,-2.256079870202353,-2.8292863494643647,-34.54300944397086,78.88447691741733,-11.37469368630907,-0.7061,-0.2969,0.6353,-0.0991
106,1180987.0,70.902378,1.0,10.88,5.18,-0.29,-35.75,14.88,-5.56,-86.69,46.19,27.44,-0.09380877201035187,-2.28600047139948,-2.027888510607637,-31.031112572318907,77.93802615712528,-10.557352206642195,-0.7242,-0.2675,0.6289,-0.092
107,1180987.0,70.902378,1.0,10.88,5.18,-0.29,-35.75,14.88,-5.56,-86.69,46.19,27.44,-0.09380877201035187,-2.28600047139948,-2.027888510607637,-31.031112572318907,77.93802615712528,-10.557352206642195,-0.7242,-0.2675,0.6289,-0.092
108,1181024.0,70.911026,1.0,10.89,4.7,-0.75,-34.06,17.19,-7.0,-69.25,38.69,19.56,0.8317852827946046,-2.398420665845081,-1.8037036359997936,-28.90768703373302,77.23232058732376,-9.970582425862727,-0.7352,-0.2496,0.6241,-0.0869
109,1181024.0,70.911026,1.0,10.89,4.7,-0.75,-34.06,17.19,-7.0,-69.25,38.69,19.56,0.8317852827946046,-2.398420665845081,-1.8037036359997936,-28.90768703373302,77.23232058732376,-9.970582425862727,-0.7352,-0.2496,0.6241,-0.0869
110,1181061.0,70.931031,1.0,10.67,4.66,-0.37,-33.25,18.56,-7.69,-49.56,29.12,15.19,0.7736575070325274,-2.517307558594632,-1.5408614768505338,-26.688351311037593,76.51547548565267,-9.372576979838527,-0.7461,-0.2308,0.6192,-0.0817
111,1181061.0,70.931031,1.0,10.67,4.66,-0.37,-33.25,18.56,-7.69,-49.56,29.12,15.19,0.7736575070325274,-2.517307558594632,-1.5408614768505338,-26.688351311037593,76.51547548565267,-9.372576979838527,-0.7461,-0.2308,0.6192,-0.0817
112,1181095.0,70.935688,1.0,10.65,4.55,-0.53,-33.25,18.56,-7.69,-30.06,19.81,10.31,1.0286220497576697,-2.4166348872051002,-1.485281300742825,-26.42932380663794,76.6030617698578,-8.510515201802361,-0.747,-0.2286,0.6198,-0.0742
113,1181095.0,70.935688,1.0,10.65,4.55,-0.53,-33.25,18.56,-7.69,-30.06,19.81,10.31,1.0286220497576697,-2.4166348872051002,-1.485281300742825,-26.42932380663794,76.6030617698578,-8.510515201802361,-0.747,-0.2286,0.6198,-0.0742
114,1181130.0,70.979783,1.0,10.31,4.02,-0.27,-32.56,20.37,-8.5,-14.75,9.38,5.06,0.9920634833924284,-1.9168192358486391,-1.0501918088318796,-26.00575632582789,76.50088290484744,-8.188805090876484,-0.7489,-0.225,0.6191,-0.0714
115,1181130.0,70.979783,1.0,10.31,4.02,-0.27,-32.56,20.37,-8.5,-14.75,9.38,5.06,0.9920634833924284,-1.9168192358486391,-1.0501918088318796,-26.00575632582789,76.50088290484744,-8.188805090876484,-0.7489,-0.225,0.6191,-0.0714
116,1181165.0,70.983223,1.0,10.14,3.55,0.0,-31.06,20.37,-8.56,-13.19,2.31,-2.25,0.9321137003861304,-1.4286541707627134,-0.8005273488480356,-25.72357910404833,76.44252722312795,-7.970538771598189,-0.7503,-0.2226,0.6187,-0.0695
117,1181165.0,70.983223,1.0,10.14,3.55,0.0,-31.06,20.37,-8.56,-13.19,2.31,-2.25,0.9321137003861304,-1.4286541707627134,-0.8005273488480356,-25.72357910404833,76.44252722312795,-7.970538771598189,-0.7503,-0.2226,0.6187,-0.0695
118,1181202.0,71.001223,1.0,9.97,3.22,0.06,-31.5,20.5,-7.19,-16.5,-5.75,-7.88,1.0271628160553392,-1.0809563261167008,-0.5639512347569102,-24.58470803246293,76.86613864248247,-6.386054856968827,-0.7518,-0.2129,0.6216,-0.0557
119,1181202.0,71.001223,1.0,9.97,3.22,0.06,-31.5,20.5,-7.19,-16.5,-5.75,-7.88,1.0271628160553392,-1.0809563261167008,-0.5639512347569102,-24.58470803246293,76.86613864248247,-6.386054856968827,-0.7518,-0.2129,0.6216,-0.0557
120,1181237.0,71.004263,1.0,9.51,3.31,0.72,-31.5,20.5,-7.19,-13.13,-9.44,-9.94,0.2925165956791236,-0.9428459674839459,-0.2402438246032865,-24.44399042905254,77.07108573183801,-5.8581800447136345,-0.7513,-0.2117,0.623,-0.0511
121,1181237.0,71.004263,1.0,9.51,3.31,0.72,-31.5,20.5,-7.19,-13.13,-9.44,-9.94,0.2925165956791236,-0.9428459674839459,-0.2402438246032865,-24.44399042905254,77.07108573183801,-5.8581800447136345,-0.7513,-0.2117,0.623,-0.0511
122,1181274.0,71.048568,1.0,9.42,2.96,0.71,-31.19,20.19,-8.69,-9.38,-12.31,-14.56,0.3982773452000379,-0.5475722101360427,-0.06976837059301211,-23.869779338261072,77.61414399553195,-4.424333322525307,-0.7504,-0.2068,0.6267,-0.0386
123,1181274.0,71.048568,1.0,9.42,2.96,0.71,-31.19,20.19,-8.69,-9.38,-12.31,-14.56,0.3982773452000379,-0.5475722101360427,-0.06976837059301211,-23.869779338261072,77.61414399553195,-4.424333322525307,-0.7504,-0.2068,0.6267,-0.0386
124,1181308.0,71.066817,1.0,9.26,2.92,1.13,-32.69,20.19,-7.5,-14.38,-15.44,-14.69,-0.02877812969461756,-0.31380782534027185,0.03671671117932007,-23.22597958095469,78.18880666556636,-3.0026424356334624,-0.7491,-0.2013,0.6306,-0.0262
125,1181308.0,71.066817,1.0,9.26,2.92,1.13,-32.69,20.19,-7.5,-14.38,-15.44,-14.69,-0.02877812969461756,-0.31380782534027185,0.03671671117932007,-23.22597958095469,78.18880666556636,-3.0026424356334624,-0.7491,-0.2013,0.6306,-0.0262
126,1181343.0,71.070114,1.0,8.97,3.07,1.66,-32.69,20.19,-7.5,-11.63,-13.13,-13.25,-0.6649157723247249,-0.2502792621508736,0.2078663631712665,-23.190884791431422,78.6324525112941,-2.1659094260652934,-0.7469,-0.201,0.6336,-0.0189
127,1181343.0,71.070114,1.0,8.97,3.07,1.66,-32.69,20.19,-7.5,-11.63,-13.13,-13.25,-0.6649157723247249,-0.2502792621508736,0.2078663631712665,-23.190884791431422,78.6324525112941,-2.1659094260652934,-0.7469,-0.201,0.6336,-0.0189
128,1181378.0,71.073208,1.0,8.82,2.94,1.66,-32.69,20.19,-8.06,-3.13,-10.56,-11.0,-0.6885032795217587,-0.09606004888718787,0.3881397302654275,-22.840057573731933,79.12209358290184,-1.0542572154525014,-0.745,-0.198,0.6369,-0.0092
129,1181378.0,71.073208,1.0,8.82,2.94,1.66,-32.69,20.19,-8.06,-3.13,-10.56,-11.0,-0.6885032795217587,-0.09606004888718787,0.3881397302654275,-22.840057573731933,79.12209358290184,-1.0542572154525014,-0.745,-0.198,0.6369,-0.0092
130,1181415.0,71.11457800000001,1.0,8.86,2.67,1.44,-32.25,19.75,-8.06,3.5,-7.19,-7.75,-0.4051490607208224,0.1395342871026417,0.4515185513607154,-22.65303861752037,79.30057349706065,-0.3896120513439707,-0.7444,-0.1964,0.6381,-0.0034
131,1181415.0,71.11457800000001,1.0,8.86,2.67,1.44,-32.25,19.75,-8.06,3.5,-7.19,-7.75,-0.4051490607208224,0.1395342871026417,0.4515185513607154,-22.65303861752037,79.30057349706065,-0.3896120513439707,-0.7444,-0.1964,0.6381,-0.0034
132,1181448.0,71.117972,1.0,8.92,2.57,1.33,-32.25,19.75,-8.06,2.88,-6.63,-6.69,-0.2797580149952085,0.2550909376890189,0.4366519174732559,-22.840057573731933,79.40479322488903,-0.2406424508273681,-0.7435,-0.198,0.6388,-0.0021
133,1181448.0,71.117972,1.0,8.92,2.57,1.33,-32.25,19.75,-8.06,2.88,-6.63,-6.69,-0.2797580149952085,0.2550909376890189,0.4366519174732559,-22.840057573731933,79.40479322488903,-0.2406424508273681,-0.7435,-0.198,0.6388,-0.0021
134,1181483.0,71.14279,1.0,8.77,2.64,1.57,-33.0,19.0,-8.06,0.94,-2.75,-2.94,-0.5583619794535004,0.2429851454564185,0.5342937666045042,-22.606293449751373,79.55381523993225,0.2406424508273681,-0.7431,-0.196,0.6398,0.0021
135,1181483.0,71.14279,1.0,8.77,2.64,1.57,-33.0,19.0,-8.06,0.94,-2.75,-2.94,-0.5583619794535004,0.2429851454564185,0.5342937666045042,-22.606293449751373,79.55381523993225,0.2406424508273681,-0.7431,-0.196,0.6398,0.0021
136,1181517.0,71.186894,1.0,8.9,2.78,1.47,-33.38,18.69,-6.06,5.13,3.94,0.06,-0.43264316876669306,0.10422925396288596,0.37790373386589415,-22.139049946746336,79.46438269954628,0.7448503787209418,-0.7446,-0.192,0.6392,0.0065
137,1181517.0,71.186894,1.0,8.9,2.78,1.47,-33.38,18.69,-6.06,5.13,3.94,0.06,-0.43264316876669306,0.10422925396288596,0.37790373386589415,-22.139049946746336,79.46438269954628,0.7448503787209418,-0.7446,-0.192,0.6392,0.0065
138,1181552.0,71.256635,1.0,9.06,2.53,1.11,-32.25,18.25,-7.25,8.69,3.19,0.94,0.009003459577345455,0.27903706660294003,0.33888060836517303,-22.057320868979353,79.43458474445285,0.8709042326408071,-0.7449,-0.1913,0.639,0.0076
139,1181552.0,71.256635,1.0,9.06,2.53,1.11,-32.25,18.25,-7.25,8.69,3.19,0.94,0.009003459577345455,0.27903706660294003,0.33888060836517303,-22.057320868979353,79.43458474445285,0.8709042326408071,-0.7449,-0.1913,0.639,0.0076
140,1181585.0,71.26456999999999,1.0,9.02,2.46,1.12,-32.25,18.25,-7.25,3.69,6.69,3.25,0.026254313736979867,0.3211859137290605,0.39588221411598745,-22.104021805228786,79.30057349706065,0.6990128451499703,-0.7457,-0.1917,0.6381,0.0061
141,1181585.0,71.26456999999999,1.0,9.02,2.46,1.12,-32.25,18.25,-7.25,3.69,6.69,3.25,0.026254313736979867,0.3211859137290605,0.39588221411598745,-22.104021805228786,79.30057349706065,0.6990128451499703,-0.7457,-0.1917,0.6381,0.0061
142,1181622.0,71.283078,1.0,9.22,2.65,1.01,-33.38,19.0,-6.75,3.88,10.63,2.63,0.16458264481911453,0.12642223179279632,0.16258809785871794,-21.660511797125544,79.15182427198795,0.8938232239278141,-0.7474,-0.1879,0.6371,0.0078
143,1181622.0,71.283078,1.0,9.22,2.65,1.01,-33.38,19.0,-6.75,3.88,10.63,2.63,0.16458264481911453,0.12642223179279632,0.16258809785871794,-21.660511797125544,79.15182427198795,0.8938232239278141,-0.7474,-0.1879,0.6371,0.0078
144,1181657.0,71.286163,1.0,9.37,2.44,0.84,-33.0,19.75,-6.75,0.44,8.81,3.06,0.4375355172056837,0.2954334455359078,0.10214683134461923,-21.24064723466595,79.06265131180031,1.2261530793833222,-0.7488,-0.1843,0.6365,0.0107
145,1181657.0,71.286163,1.0,9.37,2.44,0.84,-33.0,19.75,-6.75,0.44,8.81,3.06,0.4375355172056837,0.2954334455359078,0.10214683134461923,-21.24064723466595,79.06265131180031,1.2261530793833222,-0.7488,-0.1843,0.6365,0.0107
146,1181691.0,71.315318,1.0,9.41,2.54,0.69,-33.0,19.75,-6.75,-4.94,8.69,1.94,0.6003934985001679,0.1332975679575832,0.05485224751685358,-21.042478443283557,78.88447691741733,1.1344749665222489,-0.7503,-0.1826,0.6353,0.0099
147,1181691.0,71.315318,1.0,9.41,2.54,0.69,-33.0,19.75,-6.75,-4.94,8.69,1.94,0.6003934985001679,0.1332975679575832,0.05485224751685358,-21.042478443283557,78.88447691741733,1.1344749665222489,-0.7503,-0.1826,0.6353,0.0099
148,1181726.0,71.333432,1.0,9.31,2.49,0.75,-33.0,19.37,-5.56,-4.75,5.13,5.19,0.5242890580966638,0.14140759568197048,0.1555451474225702,-20.308637900960072,79.13695813068195,1.638715147453804,-0.7503,-0.1763,0.637,0.0143
149,1181726.0,71.333432,1.0,9.31,2.49,0.75,-33.0,19.37,-5.56,-4.75,5.13,5.19,0.5242890580966638,0.14140759568197048,0.1555451474225702,-20.308637900960072,79.13695813068195,1.638715147453804,-0.7503,-0.1763,0.637,0.0143
150,1181761.0,71.35143000000001,1.0,9.43,2.74,0.81,-32.69,20.5,-6.75,-5.5,7.31,7.69,0.4607665121654397,-0.1079425435222452,-0.035333673455511416,-19.57563811342796,79.18156133822953,1.9366895446536667,-0.7515,-0.17,0.6373,0.0169
151,1181761.0,71.35143000000001,1.0,9.43,2.74,0.81,-32.69,20.5,-6.75,-5.5,7.31,7.69,0.4607665121654397,-0.1079425435222452,-0.035333673455511416,-19.57563811342796,79.18156133822953,1.9366895446536667,-0.7515,-0.17,0.6373,0.0169
152,1181796.0,71.354496,1.0,9.59,2.77,0.68,-32.69,20.5,-6.75,-3.69,5.5,6.69,0.6234319212478858,-0.16655268245119606,-0.17768737628779796,-19.40123466474733,79.10723062788524,1.8106219718873997,-0.7522,-0.1685,0.6368,0.0158
153,1181796.0,71.354496,1.0,9.59,2.77,0.68,-32.69,20.5,-6.75,-3.69,5.5,6.69,0.6234319212478858,-0.16655268245119606,-0.17768737628779796,-19.40123466474733,79.10723062788524,1.8106219718873997,-0.7522,-0.1685,0.6368,0.0158
154,1181829.0,71.451093,1.0,9.5,2.82,0.72,-32.25,20.5,-7.25,-6.5,1.94,4.56,0.5360144506405857,-0.2460761222350936,-0.11166311518093686,-18.86667840059343,79.38989987649909,2.1773706400327653,-0.7515,-0.1639,0.6387,0.019
155,1181829.0,71.451093,1.0,9.5,2.82,0.72,-32.25,20.5,-7.25,-6.5,1.94,4.56,0.5360144506405857,-0.2460761222350936,-0.11166311518093686,-18.86667840059343,79.38989987649909,2.1773706400327653,-0.7515,-0.1639,0.6387,0.019
156,1181865.0,71.504319,1.0,9.36,2.95,0.93,-31.5,19.75,-7.56,-6.56,-1.81,3.06,0.2667646875267523,-0.3599944215792368,-0.041001528050767184,-18.506668239532367,79.6283867646292,2.521217704700676,-0.7509,-0.1608,0.6403,0.022000000000000002
157,1181865.0,71.504319,1.0,9.36,2.95,0.93,-31.5,19.75,-7.56,-6.56,-1.81,3.06,0.2667646875267523,-0.3599944215792368,-0.041001528050767184,-18.506668239532367,79.6283867646292,2.521217704700676,-0.7509,-0.1608,0.6403,0.022000000000000002
158,1181898.0,71.607661,1.0,9.28,2.84,1.05,-31.5,19.75,-7.56,-3.75,-3.0,2.06,0.13364428680993115,-0.2484053924602749,0.04924594125570714,-18.42540124877966,79.77765133500273,2.6014518395409367,-0.7501,-0.1601,0.6413,0.0227
159,1181898.0,71.607661,1.0,9.28,2.84,1.05,-31.5,19.75,-7.56,-3.75,-3.0,2.06,0.13364428680993115,-0.2484053924602749,0.04924594125570714,-18.42540124877966,79.77765133500273,2.6014518395409367,-0.7501,-0.1601,0.6413,0.0227
160,1181933.0,71.61392,1.0,9.25,2.86,1.0,-31.87,20.19,-6.75,-4.38,-2.44,0.75,0.1629109547976887,-0.2855117748134619,0.0786469650883781,-18.03080801097451,79.97193860180572,3.025568677774776,-0.7495,-0.1567,0.6426,0.0264
161,1181933.0,71.61392,1.0,9.25,2.86,1.0,-31.87,20.19,-6.75,-4.38,-2.44,0.75,0.1629109547976887,-0.2855117748134619,0.0786469650883781,-18.03080801097451,79.97193860180572,3.025568677774776,-0.7495,-0.1567,0.6426,0.0264
162,1181968.0,71.617267,1.0,9.16,2.82,1.31,-31.5,19.37,-7.56,-6.13,-2.38,-0.94,-0.1499923381729662,-0.20182568070072995,0.1365482066837025,-17.856791554733764,80.06170285521922,3.2777655386010047,-0.7493,-0.1552,0.6432,0.0286
163,1181968.0,71.617267,1.0,9.16,2.82,1.31,-31.5,19.37,-7.56,-6.13,-2.38,-0.94,-0.1499923381729662,-0.20182568070072995,0.1365482066837025,-17.856791554733764,80.06170285521922,3.2777655386010047,-0.7493,-0.1552,0.6432,0.0286
164,1182003.0,71.66609100000001,1.0,9.2,2.86,1.32,-32.25,20.19,-6.75,-6.13,-3.94,-1.5,-0.16099865937399244,-0.2200750678563166,0.08617437397285244,-17.520477052231193,80.19646011214249,3.7478120989556993,-0.7489,-0.1523,0.6441,0.0327
165,1182003.0,71.66609100000001,1.0,9.2,2.86,1.32,-32.25,20.19,-6.75,-6.13,-3.94,-1.5,-0.16099865937399244,-0.2200750678563166,0.08617437397285244,-17.520477052231193,80.19646011214249,3.7478120989556993,-0.7489,-0.1523,0.6441,0.0327
166,1182035.0,71.686548,1.0,9.1,2.96,1.42,-32.25,20.19,-6.75,-5.0,-1.88,-0.44,-0.28558368027185754,-0.3135762050498045,0.14186278427771448,-17.439320584956548,80.21144137505003,3.919795697049856,-0.7489,-0.1516,0.6442,0.0342
167,1182035.0,71.686548,1.0,9.1,2.96,1.42,-32.25,20.19,-6.75,-5.0,-1.88,-0.44,-0.28558368027185754,-0.3135762050498045,0.14186278427771448,-17.439320584956548,80.21144137505003,3.919795697049856,-0.7489,-0.1516,0.6442,0.0342
168,1182072.0,71.691426,1.0,9.06,2.94,1.47,-31.87,20.5,-8.06,-0.19,0.12,-1.63,-0.3172341993957425,-0.2738483480337515,0.17791853915776734,-17.474100846214462,80.10660713578281,4.091788128472596,-0.7494,-0.1519,0.6435,0.0357
169,1182072.0,71.691426,1.0,9.06,2.94,1.47,-31.87,20.5,-8.06,-0.19,0.12,-1.63,-0.3172341993957425,-0.2738483480337515,0.17791853915776734,-17.474100846214462,80.10660713578281,4.091788128472596,-0.7494,-0.1519,0.6435,0.0357
170,1182107.0,71.741584,1.0,9.07,2.81,1.44,-32.25,20.5,-7.25,-1.75,0.88,-1.25,-0.2577449215710464,-0.14271291466020752,0.20728540751818514,-17.427727524479447,80.0766693058582,4.2523227104813985,-0.7496,-0.1515,0.6433,0.0371
171,1182107.0,71.741584,1.0,9.07,2.81,1.44,-32.25,20.5,-7.25,-1.75,0.88,-1.25,-0.2577449215710464,-0.14271291466020752,0.20728540751818514,-17.427727524479447,80.0766693058582,4.2523227104813985,-0.7496,-0.1515,0.6433,0.0371
172,1182142.0,71.761648,1.0,9.09,2.82,1.39,-32.25,20.5,-7.25,-0.44,2.94,-0.88,-0.1806013977049497,-0.1478099767629133,0.19113465520872808,-17.439320584956548,79.92707858608141,4.332593112917143,-0.7504,-0.1516,0.6423,0.0378
173,1182142.0,71.761648,1.0,9.09,2.82,1.39,-32.25,20.5,-7.25,-0.44,2.94,-0.88,-0.1806013977049497,-0.1478099767629133,0.19113465520872808,-17.439320584956548,79.92707858608141,4.332593112917143,-0.7504,-0.1516,0.6423,0.0378
174,1182177.0,71.76558299999999,1.0,9.22,2.79,1.1,-32.25,19.75,-7.56,0.75,2.69,-0.25,0.14472575940351512,-0.13718088420952612,0.11321222697165825,-17.427727524479447,79.83740266974313,4.3669953627837845,-0.7509,-0.1515,0.6417,0.0381
175,1182177.0,71.76558299999999,1.0,9.22,2.79,1.1,-32.25,19.75,-7.56,0.75,2.69,-0.25,0.14472575940351512,-0.13718088420952612,0.11321222697165825,-17.427727524479447,79.83740266974313,4.3669953627837845,-0.7509,-0.1515,0.6417,0.0381
176,1182214.0,71.815595,1.0,9.13,2.75,1.44,-32.69,20.19,-7.25,3.56,1.19,-0.06,-0.19539539537797693,-0.056817248857094375,0.1655093807735888,-17.450913825320047,79.8224623931032,4.378462866761455,-0.7509,-0.1517,0.6416,0.0382
177,1182214.0,71.815595,1.0,9.13,2.75,1.44,-32.69,20.19,-7.25,3.56,1.19,-0.06,-0.19539539537797693,-0.056817248857094375,0.1655093807735888,-17.450913825320047,79.8224623931032,4.378462866761455,-0.7509,-0.1517,0.6416,0.0382
178,1182246.0,71.836747,1.0,9.23,2.65,1.24,-32.69,20.19,-7.25,2.75,4.88,-1.0,0.048261295373478175,0.030248524346505382,0.12420424109467375,-17.520477052231193,79.70299876376654,4.332593112917143,-0.7515,-0.1523,0.6408,0.0378
179,1182246.0,71.836747,1.0,9.23,2.65,1.24,-32.69,20.19,-7.25,2.75,4.88,-1.0,0.048261295373478175,0.030248524346505382,0.12420424109467375,-17.520477052231193,79.70299876376654,4.332593112917143,-0.7515,-0.1523,0.6408,0.0378
180,1182281.0,71.840983,1.0,9.29,2.64,1.0,-32.69,20.19,-6.75,4.5,4.31,0.37,0.3123778530102549,0.012219516091966476,0.10221952931418876,-17.474100846214462,79.61346922485379,4.401398006442045,-0.7521,-0.1519,0.6402,0.0384
181,1182281.0,71.840983,1.0,9.29,2.64,1.0,-32.69,20.19,-6.75,4.5,4.31,0.37,0.3123778530102549,0.012219516091966476,0.10221952931418876,-17.474100846214462,79.61346922485379,4.401398006442045,-0.7521,-0.1519,0.6402,0.0384
182,1182316.0,71.891622,1.0,9.28,2.63,1.15,-31.19,20.5,-8.06,1.56,3.0,-0.5,0.17204581495069265,0.04537049191856268,0.09448537227560116,-17.532071555357696,79.55381523993225,4.332593112917143,-0.7523,-0.1524,0.6398,0.0378
183,1182316.0,71.891622,1.0,9.28,2.63,1.15,-31.19,20.5,-8.06,1.56,3.0,-0.5,0.17204581495069265,0.04537049191856268,0.09448537227560116,-17.532071555357696,79.55381523993225,4.332593112917143,-0.7523,-0.1524,0.6398,0.0378
184,1182351.0,71.91705300000001,1.0,9.28,2.67,1.16,-31.19,20.5,-8.06,1.44,2.5,-0.12,0.16109157242765387,0.009218145926984002,0.08210042014395214,-17.566856150665245,79.52399794108469,4.298191253728037,-0.7525,-0.1527,0.6396,0.0375
185,1182351.0,71.91705300000001,1.0,9.28,2.67,1.16,-31.19,20.5,-8.06,1.44,2.5,-0.12,0.16109157242765387,0.009218145926984002,0.08210042014395214,-17.566856150665245,79.52399794108469,4.298191253728037,-0.7525,-0.1527,0.6396,0.0375
186,1182384.0,72.084824,1.0,9.37,2.65,1.09,-31.87,19.75,-7.56,3.88,1.81,0.63,0.2521016516263613,0.03737091390504044,0.01162329395977757,-17.613238149656624,79.47928409235018,4.240855681461491,-0.7526,-0.1531,0.6393,0.037000000000000005
187,1182384.0,72.084824,1.0,9.37,2.65,1.09,-31.87,19.75,-7.56,3.88,1.81,0.63,0.2521016516263613,0.03737091390504044,0.01162329395977757,-17.613238149656624,79.47928409235018,4.240855681461491,-0.7526,-0.1531,0.6393,0.037000000000000005
188,1182418.0,72.17075799999999,1.0,9.37,2.55,1.15,-31.19,20.19,-7.56,2.81,1.63,0.94,0.20810477710136327,0.13925349164142364,0.031211346578189136,-17.613238149656624,79.47928409235018,4.206454848857137,-0.7527,-0.1531,0.6393,0.0367
189,1182418.0,72.17075799999999,1.0,9.37,2.55,1.15,-31.19,20.19,-7.56,2.81,1.63,0.94,0.20810477710136327,0.13925349164142364,0.031211346578189136,-17.613238149656624,79.47928409235018,4.206454848857137,-0.7527,-0.1531,0.6393,0.0367
190,1182453.0,72.174763,1.0,9.34,2.51,1.08,-32.25,20.5,-6.75,1.19,0.44,0.12,0.26621142088733896,0.15261570672353408,0.07998870614122744,-17.416134643761747,79.58363899911447,4.378462866761455,-0.7523,-0.1514,0.64,0.0382
191,1182453.0,72.174763,1.0,9.34,2.51,1.08,-32.25,20.5,-6.75,1.19,0.44,0.12,0.26621142088733896,0.15261570672353408,0.07998870614122744,-17.416134643761747,79.58363899911447,4.378462866761455,-0.7523,-0.1514,0.64,0.0382
192,1182488.0,72.220678,1.0,9.29,2.7,1.21,-32.25,20.5,-6.75,-2.13,-0.5,0.37,0.0980598542526442,-0.02140872008956229,0.057387159575187134,-17.381357078894993,79.6283867646292,4.378462866761455,-0.7521,-0.1511,0.6403,0.0382
193,1182488.0,72.220678,1.0,9.29,2.7,1.21,-32.25,20.5,-6.75,-2.13,-0.5,0.37,0.0980598542526442,-0.02140872008956229,0.057387159575187134,-17.381357078894993,79.6283867646292,4.378462866761455,-0.7521,-0.1511,0.6403,0.0382
194,1182525.0,72.22765,1.0,9.29,2.64,1.22,-31.19,20.87,-7.25,0.63,0.06,1.37,0.09379576491944977,0.030672931409192025,0.07256753035952812,-17.288624783675054,79.6731491009361,4.424333322525307,-0.7521,-0.1503,0.6406,0.0386
195,1182525.0,72.22765,1.0,9.29,2.64,1.22,-31.19,20.87,-7.25,0.63,0.06,1.37,0.09379576491944977,0.030672931409192025,0.07256753035952812,-17.288624783675054,79.6731491009361,4.424333322525307,-0.7521,-0.1503,0.6406,0.0386
196,1182560.0,72.23092700000001,1.0,9.28,2.71,1.37,-31.19,19.75,-6.75,-0.44,0.44,1.37,-0.06496445859607439,-0.0189323928878653,0.04269479815588007,-17.126370676427072,79.71792602911492,4.550480755424785,-0.752,-0.1489,0.6409,0.0397
197,1182560.0,72.23092700000001,1.0,9.28,2.71,1.37,-31.19,19.75,-6.75,-0.44,0.44,1.37,-0.06496445859607439,-0.0189323928878653,0.04269479815588007,-17.126370676427072,79.71792602911492,4.550480755424785,-0.752,-0.1489,0.6409,0.0397
198,1182595.0,72.27194,1.0,9.24,2.63,1.29,-31.19,19.75,-6.75,1.5,0.44,1.0,0.014794729153475447,0.027387590245957272,0.1134755439257784,-17.137959104392678,79.71792602911492,4.481672390551605,-0.752,-0.149,0.6409,0.0391
199,1182595.0,72.27194,1.0,9.24,2.63,1.29,-31.19,19.75,-6.75,1.5,0.44,1.0,0.014794729153475447,0.027387590245957272,0.1134755439257784,-17.137959104392678,79.71792602911492,4.481672390551605,-0.752,-0.149,0.6409,0.0391
200,1182627.0,72.289575,1.0,9.21,2.68,1.21,-31.5,20.75,-7.56,-0.5,0.25,1.63,0.07868346583236879,-0.04632179432428973,0.1390617173115416,-17.09160645080068,79.74778543159233,4.49314033842009,-0.752,-0.1486,0.6411,0.0392
201,1182627.0,72.289575,1.0,9.21,2.68,1.21,-31.5,20.75,-7.56,-0.5,0.25,1.63,0.07868346583236879,-0.04632179432428973,0.1390617173115416,-17.09160645080068,79.74778543159233,4.49314033842009,-0.752,-0.1486,0.6411,0.0392
202,1182664.0,72.292621,1.0,9.19,2.76,1.4,-31.87,21.19,-8.06,-2.13,0.69,2.31,-0.11968673548844246,-0.11037338680870824,0.11091935188314216,-16.998909587512788,79.74778543159233,4.4587366294239885,-0.7521,-0.1478,0.6411,0.0389
203,1182664.0,72.292621,1.0,9.19,2.76,1.4,-31.87,21.19,-8.06,-2.13,0.69,2.31,-0.11968673548844246,-0.11037338680870824,0.11091935188314216,-16.998909587512788,79.74778543159233,4.4587366294239885,-0.7521,-0.1478,0.6411,0.0389
204,1182699.0,72.305945,1.0,9.14,2.75,1.48,-31.87,21.19,-8.06,-2.75,1.69,0.44,-0.1936829098970578,-0.10612237502965538,0.15037095618959914,-16.906223928806188,79.70299876376654,4.516076369343336,-0.7525,-0.147,0.6408,0.0394
205,1182699.0,72.305945,1.0,9.14,2.75,1.48,-31.87,21.19,-8.06,-2.75,1.69,0.44,-0.1936829098970578,-0.10612237502965538,0.15037095618959914,-16.906223928806188,79.70299876376654,4.516076369343336,-0.7525,-0.147,0.6408,0.0394
206,1182732.0,72.456532,1.0,9.12,2.69,1.44,-31.5,20.5,-6.75,0.5,3.75,1.25,-0.13166109206112445,-0.06476953850745537,0.19090404538374986,-16.778799324271787,79.6283867646292,4.642227799866185,-0.7531,-0.1459,0.6403,0.0405
207,1182732.0,72.456532,1.0,9.12,2.69,1.44,-31.5,20.5,-6.75,0.5,3.75,1.25,-0.13166109206112445,-0.06476953850745537,0.19090404538374986,-16.778799324271787,79.6283867646292,4.642227799866185,-0.7531,-0.1459,0.6403,0.0405
208,1182767.0,72.498352,1.0,9.31,2.8,1.34,-31.87,20.75,-7.25,-2.38,3.81,2.0,0.006818137287983278,-0.15336942023829736,-0.0060015954628553905,-16.651395613206027,79.52399794108469,4.6766337060034,-0.7538,-0.1448,0.6396,0.0408
209,1182767.0,72.498352,1.0,9.31,2.8,1.34,-31.87,20.75,-7.25,-2.38,3.81,2.0,0.006818137287983278,-0.15336942023829736,-0.0060015954628553905,-16.651395613206027,79.52399794108469,4.6766337060034,-0.7538,-0.1448,0.6396,0.0408
210,1182801.0,72.56555,1.0,9.23,2.76,1.38,-31.87,20.75,-7.25,0.37,1.31,1.44,-0.02780473348839529,-0.13741541034107052,0.07550187134649987,-16.55875139620892,79.46438269954628,4.71104003397371,-0.7543,-0.14400000000000002,0.6392,0.0411
211,1182801.0,72.56555,1.0,9.23,2.76,1.38,-31.87,20.75,-7.25,0.37,1.31,1.44,-0.02780473348839529,-0.13741541034107052,0.07550187134649987,-16.55875139620892,79.46438269954628,4.71104003397371,-0.7543,-0.14400000000000002,0.6392,0.0411
212,1182834.0,72.581222,1.0,9.23,2.74,1.34,-31.19,20.5,-7.25,-1.5,4.0,2.0,0.02719457252943124,-0.13154154202643098,0.08666762975126296,-16.524012627926176,79.38989987649909,4.699571210920838,-0.7548,-0.1437,0.6387,0.040999999999999995
213,1182834.0,72.581222,1.0,9.23,2.74,1.34,-31.19,20.5,-7.25,-1.5,4.0,2.0,0.02719457252943124,-0.13154154202643098,0.08666762975126296,-16.524012627926176,79.38989987649909,4.699571210920838,-0.7548,-0.1437,0.6387,0.040999999999999995
214,1182869.0,72.591475,1.0,9.34,2.76,1.3,-32.25,20.19,-6.75,-1.81,3.5,1.19,0.105154793383876,-0.14159947288482422,-0.01740680249799453,-16.327188391573927,79.31545721761533,4.837200229263812,-0.7555,-0.142,0.6382,0.0422
215,1182869.0,72.591475,1.0,9.34,2.76,1.3,-32.25,20.19,-6.75,-1.81,3.5,1.19,0.105154793383876,-0.14159947288482422,-0.01740680249799453,-16.327188391573927,79.31545721761533,4.837200229263812,-0.7555,-0.142,0.6382,0.0422
216,1182904.0,72.649489,1.0,9.27,2.75,1.44,-30.75,21.19,-7.25,0.56,0.69,0.5,-0.03673952371205455,-0.12860518344584326,0.03162514508590775,-16.257732621833743,79.30057349706065,4.906017344265486,-0.7557,-0.1414,0.6381,0.0428
217,1182904.0,72.649489,1.0,9.27,2.75,1.44,-30.75,21.19,-7.25,0.56,0.69,0.5,-0.03673952371205455,-0.12860518344584326,0.03162514508590775,-16.257732621833743,79.30057349706065,4.906017344265486,-0.7557,-0.1414,0.6381,0.0428
218,1182939.0,72.652658,1.0,9.32,2.65,1.26,-30.75,21.19,-7.25,0.88,2.19,0.06,0.1699782015023933,-0.047962964864884494,0.037243315609416065,-16.29245975343786,79.22617890812475,4.883078110442899,-0.7559999999999999,-0.1417,0.6376,0.0426
219,1182939.0,72.652658,1.0,9.32,2.65,1.26,-30.75,21.19,-7.25,0.88,2.19,0.06,0.1699782015023933,-0.047962964864884494,0.037243315609416065,-16.29245975343786,79.22617890812475,4.883078110442899,-0.7559999999999999,-0.1417,0.6376,0.0426
220,1182976.0,72.655876,1.0,9.33,2.65,1.25,-30.37,20.5,-8.38,0.69,1.5,-0.37,0.18812326076917665,-0.04725427186843123,0.02931515493369297,-16.30403579859025,79.18156133822953,4.871608567013157,-0.7562,-0.1418,0.6373,0.0425
221,1182976.0,72.655876,1.0,9.33,2.65,1.25,-30.37,20.5,-8.38,0.69,1.5,-0.37,0.18812326076917665,-0.04725427186843123,0.02931515493369297,-16.30403579859025,79.18156133822953,4.871608567013157,-0.7562,-0.1418,0.6373,0.0425
