,TIME,ELAPSED_SECONDS,PSTATE,acc_x,acc_y,acc_z,mag_x,mag_y,mag_z,gyr_x,gyr_y,gyr_z,lin_x,lin_y,lin_z,eul_x,eul_y,eul_z,qua_w,qua_x,qua_y,qua_z
0,881596.0,24.67416,1.0,0.2,-1.42,-9.7,-27.06,-7.06,36.5,2.75,0.12,0.94,-0.03468688912269635,-0.03706740974453315,0.0013543478099151685,-115.79527299684044,63.49812368940196,-5.674601147870103,0.0556,-0.8471,0.5262,-0.0495
1,881596.0,24.67416,1.0,0.2,-1.42,-9.7,-27.06,-7.06,36.5,2.75,0.12,0.94,-0.03468688912269635,-0.03706740974453315,0.0013543478099151685,-115.79527299684044,63.49812368940196,-5.674601147870103,0.0556,-0.8471,0.5262,-0.0495
2,881631.0,24.719029000000003,1.0,0.14,-1.25,-9.65,-27.06,-7.06,36.5,0.88,-1.31,1.25,-0.2086178903511023,-0.011225293956986793,0.07726396754137177,-115.75216046951117,63.53855502158924,-5.674601147870103,0.055999999999999994,-0.8469,0.5265,-0.0495
3,881631.0,24.719029000000003,1.0,0.14,-1.25,-9.65,-27.06,-7.06,36.5,0.88,-1.31,1.25,-0.2086178903511023,-0.011225293956986793,0.07726396754137177,-115.75216046951117,63.53855502158924,-5.674601147870103,0.055999999999999994,-0.8469,0.5265,-0.0495
4,881664.0,24.726392,1.0,0.16,-1.58,-9.95,-26.75,-7.5,35.69,0.56,1.31,-2.69,0.04981104395406394,-0.1308101719120056,-0.2683143949159703,-115.81683895855758,63.471174371632316,-5.686074397008276,0.0558,-0.8472,0.526,-0.0496
5,881664.0,24.726392,1.0,0.16,-1.58,-9.95,-26.75,-7.5,35.69,0.56,1.31,-2.69,0.04981104395406394,-0.1308101719120056,-0.2683143949159703,-115.81683895855758,63.471174371632316,-5.686074397008276,0.0558,-0.8472,0.526,-0.0496
6,881698.0,24.777696,1.0,0.11,-1.32,-9.66,-26.75,-7.5,34.88,-2.69,-0.19,1.0,-0.15214134323145434,-0.07712168414063081,0.05775235680386893,-115.83841139442428,63.4577011826531,-5.6516548202737225,0.0554,-0.8473,0.5259,-0.0493
7,881698.0,24.777696,1.0,0.11,-1.32,-9.66,-26.75,-7.5,34.88,-2.69,-0.19,1.0,-0.15214134323145434,-0.07712168414063081,0.05775235680386893,-115.83841139442428,63.4577011826531,-5.6516548202737225,0.0554,-0.8473,0.5259,-0.0493
8,881735.0,24.7844,1.0,0.15,-1.51,-9.7,-26.37,-7.06,36.06,0.69,0.63,0.31,0.025635307350637012,-0.12236417079527827,-0.010527284776042478,-115.81683895855758,63.484648540415236,-5.663127955663872,0.0555,-0.8472,0.5261,-0.0494
9,881735.0,24.7844,1.0,0.15,-1.51,-9.7,-26.37,-7.06,36.06,0.69,0.63,0.31,0.025635307350637012,-0.12236417079527827,-0.010527284776042478,-115.81683895855758,63.484648540415236,-5.663127955663872,0.0555,-0.8472,0.5261,-0.0494
10,881770.0,24.799623999999998,1.0,0.26,-1.31,-9.91,-26.37,-7.06,36.06,-2.31,2.56,1.06,-0.12769963236763668,0.057938252739581975,-0.19195670107403906,-115.77371350268422,63.525076929588316,-5.686074397008276,0.0547,-0.847,0.5264,-0.0496
11,881770.0,24.799623999999998,1.0,0.26,-1.31,-9.91,-26.37,-7.06,36.06,-2.31,2.56,1.06,-0.12769963236763668,0.057938252739581975,-0.19195670107403906,-115.77371350268422,63.525076929588316,-5.686074397008276,0.0547,-0.847,0.5264,-0.0496
12,881807.0,24.802406,1.0,0.22,-1.42,-9.96,-26.37,-7.75,35.25,-0.06,1.12,0.12,-0.05579258552019994,-0.034306176965068665,-0.2562576450906082,-115.77371350268422,63.525076929588316,-5.720494487173099,0.0543,-0.847,0.5264,-0.0499
13,881807.0,24.802406,1.0,0.22,-1.42,-9.96,-26.37,-7.75,35.25,-0.06,1.12,0.12,-0.05579258552019994,-0.034306176965068665,-0.2562576450906082,-115.77371350268422,63.525076929588316,-5.720494487173099,0.0543,-0.847,0.5264,-0.0499
14,881842.0,24.837512,1.0,0.21,-1.3,-9.82,-26.37,-7.5,36.5,0.88,0.63,1.25,-0.14817290874756356,0.003419144994209477,-0.10014227088974792,-115.73061389075428,63.57899519003461,-5.7319679651977244,0.0543,-0.8468,0.5268,-0.05
15,881842.0,24.837512,1.0,0.21,-1.3,-9.82,-26.37,-7.5,36.5,0.88,0.63,1.25,-0.14817290874756356,0.003419144994209477,-0.10014227088974792,-115.73061389075428,63.57899519003461,-5.7319679651977244,0.0543,-0.8468,0.5268,-0.05
16,881879.0,24.843942000000002,1.0,0.25,-1.43,-9.91,-26.37,-7.5,36.5,-0.44,-0.12,-1.44,-0.027137615720382983,-0.016216839033784902,-0.2090626837756666,-115.75216046951117,63.552034095396465,-5.7319679651977244,0.0542,-0.8469,0.5266,-0.05
17,881879.0,24.843942000000002,1.0,0.25,-1.43,-9.91,-26.37,-7.5,36.5,-0.44,-0.12,-1.44,-0.027137615720382983,-0.016216839033784902,-0.2090626837756666,-115.75216046951117,63.552034095396465,-5.7319679651977244,0.0542,-0.8469,0.5266,-0.05
18,881911.0,24.946193,1.0,0.19,-1.28,-9.89,-26.75,-7.06,33.69,-2.0,-1.0,0.37,-0.1726502226101592,-0.007561961090848723,-0.1661497431702763,-115.77371350268422,63.552034095396465,-5.686074397008276,0.0538,-0.847,0.5266,-0.0496
19,881911.0,24.946193,1.0,0.19,-1.28,-9.89,-26.75,-7.06,33.69,-2.0,-1.0,0.37,-0.1726502226101592,-0.007561961090848723,-0.1661497431702763,-115.77371350268422,63.552034095396465,-5.686074397008276,0.0538,-0.847,0.5266,-0.0496
20,881948.0,24.993660000000002,1.0,0.18,-1.36,-9.8,-26.75,-7.75,33.25,1.81,0.69,-1.31,-0.09357755587353317,-0.055289094522578235,-0.08830762280281768,-115.77371350268422,63.53855502158924,-5.686074397008276,0.0538,-0.847,0.5265,-0.0496
21,881948.0,24.993660000000002,1.0,0.18,-1.36,-9.8,-26.75,-7.75,33.25,1.81,0.69,-1.31,-0.09357755587353317,-0.055289094522578235,-0.08830762280281768,-115.77371350268422,63.53855502158924,-5.686074397008276,0.0538,-0.847,0.5265,-0.0496
22,881983.0,25.005402,1.0,0.24,-1.4,-9.77,-26.75,-7.75,33.25,1.12,-0.81,0.31,-0.03881925685620391,-0.013387733630061405,-0.06597952986109767,-115.77371350268422,63.525076929588316,-5.720494487173099,0.0544,-0.847,0.5264,-0.0499
23,881983.0,25.005402,1.0,0.24,-1.4,-9.77,-26.75,-7.75,33.25,1.12,-0.81,0.31,-0.03881925685620391,-0.013387733630061405,-0.06597952986109767,-115.77371350268422,63.525076929588316,-5.720494487173099,0.0544,-0.847,0.5264,-0.0499
24,882016.0,25.05963,1.0,0.21,-1.43,-9.85,-26.75,-7.5,35.69,1.19,1.0,-1.06,-0.036937764721457766,-0.05062034321304077,-0.14862865920338386,-115.79527299684044,63.49812368940196,-5.720494487173099,0.0544,-0.8471,0.5262,-0.0499
25,882016.0,25.05963,1.0,0.21,-1.43,-9.85,-26.75,-7.5,35.69,1.19,1.0,-1.06,-0.036937764721457766,-0.05062034321304077,-0.14862865920338386,-115.79527299684044,63.49812368940196,-5.720494487173099,0.0544,-0.8471,0.5262,-0.0499
26,882051.0,25.121045000000002,1.0,0.23,-1.43,-9.51,-25.56,-7.06,36.06,-0.75,0.69,-0.19,0.02019048116625044,-0.04626930307279797,0.1871203079587396,-115.81683895855758,63.49812368940196,-5.720494487173099,0.0544,-0.8472,0.5262,-0.0499
27,882051.0,25.121045000000002,1.0,0.23,-1.43,-9.51,-25.56,-7.06,36.06,-0.75,0.69,-0.19,0.02019048116625044,-0.04626930307279797,0.1871203079587396,-115.81683895855758,63.49812368940196,-5.720494487173099,0.0544,-0.8472,0.5262,-0.0499
28,882087.0,25.131612,1.0,0.28,-1.63,-9.33,-25.56,-6.0,34.88,1.88,0.31,0.88,0.23849585786070426,-0.10047947171185724,0.3347323693642803,-115.79527299684044,63.49812368940196,-5.7663887448030415,0.0544,-0.8471,0.5262,-0.0503
29,882087.0,25.131612,1.0,0.28,-1.63,-9.33,-25.56,-6.0,34.88,1.88,0.31,0.88,0.23849585786070426,-0.10047947171185724,0.3347323693642803,-115.79527299684044,63.49812368940196,-5.7663887448030415,0.0544,-0.8471,0.5262,-0.0503
30,882120.0,25.221953,1.0,0.47,-1.53,-9.0,-25.56,-6.0,34.88,3.31,-0.37,0.5,0.2761903118526354,0.10483894409845752,0.6702104469006063,-115.77371350268422,63.49812368940196,-5.777862453568277,0.0547,-0.847,0.5262,-0.0504
31,882120.0,25.221953,1.0,0.47,-1.53,-9.0,-25.56,-6.0,34.88,3.31,-0.37,0.5,0.2761903118526354,0.10483894409845752,0.6702104469006063,-115.77371350268422,63.49812368940196,-5.777862453568277,0.0547,-0.847,0.5262,-0.0504
32,882157.0,25.317629,1.0,0.13,-1.83,-8.18,-26.37,-6.25,35.69,1.12,-4.13,-3.81,0.5092125440945485,-0.35268220249252713,1.4463558754502066,-115.90316761296934,63.390349920821656,-5.720494487173099,0.0554,-0.8476,0.5254,-0.0499
33,882157.0,25.317629,1.0,0.13,-1.83,-8.18,-26.37,-6.25,35.69,1.12,-4.13,-3.81,0.5092125440945485,-0.35268220249252713,1.4463558754502066,-115.90316761296934,63.390349920821656,-5.720494487173099,0.0554,-0.8476,0.5254,-0.0499
34,882192.0,25.32295,1.0,-0.03,-2.01,-7.44,-26.0,-7.5,35.69,0.69,-6.75,-6.75,0.7034223284023466,-0.5812769612981123,2.154074347177673,-116.0328557464382,63.242263086553784,-5.594289991509483,0.0569,-0.8482,0.5243,-0.0488
35,882192.0,25.32295,1.0,-0.03,-2.01,-7.44,-26.0,-7.5,35.69,0.69,-6.75,-6.75,0.7034223284023466,-0.5812769612981123,2.154074347177673,-116.0328557464382,63.242263086553784,-5.594289991509483,0.0569,-0.8482,0.5243,-0.0488
36,882227.0,25.332117999999998,1.0,0.41,-2.66,-8.1,-26.0,-7.5,35.69,5.63,9.31,-16.75,1.3298045118263058,-0.4700197607334382,1.38855036974814,-116.4886280777146,62.74501384121864,-5.881128455236522,0.0579,-0.8503,0.5206,-0.0513
37,882227.0,25.332117999999998,1.0,0.41,-2.66,-8.1,-26.0,-7.5,35.69,5.63,9.31,-16.75,1.3298045118263058,-0.4700197607334382,1.38855036974814,-116.4886280777146,62.74501384121864,-5.881128455236522,0.0579,-0.8503,0.5206,-0.0513
38,882262.0,25.334857,1.0,0.68,-3.13,-8.13,-26.37,-6.69,36.5,8.63,4.13,-22.94,1.8205700146877732,-0.4863206183057234,1.2740526769200835,-117.07896160834984,62.12863965657575,-6.145052377433652,0.0579,-0.853,0.516,-0.0536
39,882262.0,25.334857,1.0,0.68,-3.13,-8.13,-26.37,-6.69,36.5,8.63,4.13,-22.94,1.8205700146877732,-0.4863206183057234,1.2740526769200835,-117.07896160834984,62.12863965657575,-6.145052377433652,0.0579,-0.853,0.516,-0.0536
40,882298.0,25.373473999999998,1.0,0.39,-4.36,-7.73,-27.5,-7.75,36.19,0.75,-16.56,-13.63,2.78793304345348,-1.327028342930166,1.4771226951476866,-117.78511905973166,61.38095442802087,-6.0647243159910715,0.0607,-0.8562,0.5104,-0.0529
41,882298.0,25.373473999999998,1.0,0.39,-4.36,-7.73,-27.5,-7.75,36.19,0.75,-16.56,-13.63,2.78793304345348,-1.327028342930166,1.4771226951476866,-117.78511905973166,61.38095442802087,-6.0647243159910715,0.0607,-0.8562,0.5104,-0.0529
42,882333.0,25.389483,1.0,-0.1,-3.26,-6.51,-27.5,-7.75,36.19,-59.0,-28.69,6.19,1.962911632838355,-1.2847638111785489,2.9136056891636164,-118.00727569803878,61.367629313530685,-4.71104003397371,0.0554,-0.8572,0.5103,-0.0411
43,882333.0,25.389483,1.0,-0.1,-3.26,-6.51,-27.5,-7.75,36.19,-59.0,-28.69,6.19,1.962911632838355,-1.2847638111785489,2.9136056891636164,-118.00727569803878,61.367629313530685,-4.71104003397371,0.0554,-0.8572,0.5103,-0.0411
44,882366.0,25.512686,1.0,0.54,-3.07,-7.75,-26.0,-7.06,35.25,-55.25,1.31,31.75,2.2719334028075284,-0.6443453415056457,1.7940263538970989,-117.4973779425748,62.208922599840776,-3.1860558160551733,0.0394,-0.8549,0.5166,-0.0278
45,882366.0,25.512686,1.0,0.54,-3.07,-7.75,-26.0,-7.06,35.25,-55.25,1.31,31.75,2.2719334028075284,-0.6443453415056457,1.7940263538970989,-117.4973779425748,62.208922599840776,-3.1860558160551733,0.0394,-0.8549,0.5166,-0.0278
46,882401.0,25.518407,1.0,0.41,-1.87,-7.47,-26.0,-9.0,35.25,-67.87,5.31,55.75,1.41439155494617,-0.2970000965356774,2.231876902939284,-116.20613978613413,63.673390007198286,-2.2117544130994498,0.0248,-0.8490000000000001,0.5275,-0.0193
47,882401.0,25.518407,1.0,0.41,-1.87,-7.47,-26.0,-9.0,35.25,-67.87,5.31,55.75,1.41439155494617,-0.2970000965356774,2.231876902939284,-116.20613978613413,63.673390007198286,-2.2117544130994498,0.0248,-0.8490000000000001,0.5275,-0.0193
48,882438.0,25.580265,1.0,0.94,-1.45,-7.51,-26.75,-9.25,35.69,-65.94,16.06,61.94,1.5130118324406767,0.2431223103504495,2.254306871069458,-113.77509319472591,66.21341126631584,-1.3636717386286217,0.0052,-0.8376,0.5462,-0.0119
49,882438.0,25.580265,1.0,0.94,-1.45,-7.51,-26.75,-9.25,35.69,-65.94,16.06,61.94,1.5130118324406767,0.2431223103504495,2.254306871069458,-113.77509319472591,66.21341126631584,-1.3636717386286217,0.0052,-0.8376,0.5462,-0.0119
50,882472.0,25.641515,1.0,1.09,-1.65,-7.77,-26.75,-9.25,35.69,-86.44,20.62,78.62,2.0981151818811883,0.13202469527989547,2.06946820276944,-110.83302792899204,69.11040625696496,-0.2291832708413497,-0.022000000000000002,-0.8233,0.5672,-0.002
51,882472.0,25.641515,1.0,1.09,-1.65,-7.77,-26.75,-9.25,35.69,-86.44,20.62,78.62,2.0981151818811883,0.13202469527989547,2.06946820276944,-110.83302792899204,69.11040625696496,-0.2291832708413497,-0.022000000000000002,-0.8233,0.5672,-0.002
52,882509.0,25.699457000000002,1.0,1.19,-0.13,-7.48,-27.5,-10.5,33.38,-121.69,50.69,96.87,1.0029203683060282,0.5004654623038501,2.3148488109748997,-107.8992703852027,71.7614760712347,0.5042044866238587,-0.0518,-0.8085,0.5861,0.0044
53,882509.0,25.699457000000002,1.0,1.19,-0.13,-7.48,-27.5,-10.5,33.38,-121.69,50.69,96.87,1.0029203683060282,0.5004654623038501,2.3148488109748997,-107.8992703852027,71.7614760712347,0.5042044866238587,-0.0518,-0.8085,0.5861,0.0044
54,882546.0,25.706648,1.0,0.93,1.69,-6.48,-29.0,-11.19,31.69,-135.94,37.5,102.12,-0.43637478482867703,0.4554173554354184,3.0751143594842367,-103.40436898100208,75.45402498067408,2.085681528609333,-0.0962,-0.7848,0.6119,0.0182
55,882546.0,25.706648,1.0,0.93,1.69,-6.48,-29.0,-11.19,31.69,-135.94,37.5,102.12,-0.43637478482867703,0.4554173554354184,3.0751143594842367,-103.40436898100208,75.45402498067408,2.085681528609333,-0.0962,-0.7848,0.6119,0.0182
56,882579.0,25.722281,1.0,2.23,1.53,-7.44,-29.0,-11.19,31.69,-129.13,35.63,99.56,0.5057325363313412,1.2384373910934778,2.004220414926035,-99.92080048347364,78.08549020583642,3.1860558160551733,-0.1277,-0.7656,0.6299,0.0278
57,882579.0,25.722281,1.0,2.23,1.53,-7.44,-29.0,-11.19,31.69,-129.13,35.63,99.56,0.5057325363313412,1.2384373910934778,2.004220414926035,-99.92080048347364,78.08549020583642,3.1860558160551733,-0.1277,-0.7656,0.6299,0.0278
58,882614.0,25.725516,1.0,2.0,3.11,-6.63,-32.25,-12.06,29.69,-148.0,22.25,114.44,-0.7278097045206825,0.95976264310279,2.311441617112312,-94.49620014403055,81.88480291681634,5.387788121139308,-0.1708,-0.7343,0.6553,0.047
59,882614.0,25.725516,1.0,2.0,3.11,-6.63,-32.25,-12.06,29.69,-148.0,22.25,114.44,-0.7278097045206825,0.95976264310279,2.311441617112312,-94.49620014403055,81.88480291681634,5.387788121139308,-0.1708,-0.7343,0.6553,0.047
60,882651.0,25.761452,1.0,2.46,3.95,-6.05,-35.25,-12.06,26.87,-101.0,38.06,123.19,-1.4092082841393059,1.2104159561973875,2.403567856399542,-90.19353290614056,84.98598023915876,6.351624225020216,-0.19699999999999998,-0.7083,0.6755,0.0554
61,882651.0,25.761452,1.0,2.46,3.95,-6.05,-35.25,-12.06,26.87,-101.0,38.06,123.19,-1.4092082841393059,1.2104159561973875,2.403567856399542,-90.19353290614056,84.98598023915876,6.351624225020216,-0.19699999999999998,-0.7083,0.6755,0.0554
62,882688.0,25.768135,1.0,4.32,3.88,-7.8,-35.69,-11.0,22.87,-140.0,81.56,135.0,-0.17729833453290333,1.8503961734122905,0.2619446980017752,-84.304040393457,88.43755212986639,6.46639524800481,-0.2451,-0.6711,0.6974,0.0564
63,882688.0,25.768135,1.0,4.32,3.88,-7.8,-35.69,-11.0,22.87,-140.0,81.56,135.0,-0.17729833453290333,1.8503961734122905,0.2619446980017752,-84.304040393457,88.43755212986639,6.46639524800481,-0.2451,-0.6711,0.6974,0.0564
64,882722.0,25.868443,1.0,4.6,5.48,-6.26,-35.69,-11.0,22.87,-113.94,63.31,144.63,-1.9660634335160967,1.652603008733177,0.6534266403896307,-79.36011799864445,91.15534914020606,6.707435672786218,-0.2806,-0.6385,0.7142,0.0585
65,882722.0,25.868443,1.0,4.6,5.48,-6.26,-35.69,-11.0,22.87,-113.94,63.31,144.63,-1.9660634335160967,1.652603008733177,0.6534266403896307,-79.36011799864445,91.15534914020606,6.707435672786218,-0.2806,-0.6385,0.7142,0.0585
66,882759.0,25.883167,1.0,7.39,6.76,-6.69,-38.0,-8.56,19.69,-158.25,109.75,150.69,-2.48538255429562,2.606746847921257,-1.6865455708434551,-72.35660000190678,94.31067299052191,6.546738821065048,-0.3326,-0.5903,0.7332,0.0571
67,882759.0,25.883167,1.0,7.39,6.76,-6.69,-38.0,-8.56,19.69,-158.25,109.75,150.69,-2.48538255429562,2.606746847921257,-1.6865455708434551,-72.35660000190678,94.31067299052191,6.546738821065048,-0.3326,-0.5903,0.7332,0.0571
68,882794.0,25.928913,1.0,8.32,8.43,-6.07,-37.69,-4.19,16.5,-142.56,113.69,144.38,-3.446976112739321,1.4440209045252883,-2.9669696634117186,-65.05440942764349,96.24950691257419,6.236859579751598,-0.3919,-0.5377,0.7446,0.0544
69,882794.0,25.928913,1.0,8.32,8.43,-6.07,-37.69,-4.19,16.5,-142.56,113.69,144.38,-3.446976112739321,1.4440209045252883,-2.9669696634117186,-65.05440942764349,96.24950691257419,6.236859579751598,-0.3919,-0.5377,0.7446,0.0544
70,882829.0,25.945833,1.0,8.9,8.33,-4.84,-37.69,-4.19,16.5,-63.06,94.31,149.88,-3.986804629742809,1.2022072812061126,-2.630575836064743,-60.31782031136974,97.82381585601729,4.71104003397371,-0.4216,-0.5024,0.7537,0.0411
71,882829.0,25.945833,1.0,8.9,8.33,-4.84,-37.69,-4.19,16.5,-63.06,94.31,149.88,-3.986804629742809,1.2022072812061126,-2.630575836064743,-60.31782031136974,97.82381585601729,4.71104003397371,-0.4216,-0.5024,0.7537,0.0411
72,882864.0,25.948476,1.0,10.41,7.92,-5.98,-37.88,-1.37,14.0,-65.94,111.94,139.81,-2.6574159752133952,0.4795282732319146,-4.320030182189017,-54.46469598924939,98.80505247705544,2.269061145645111,-0.4621,-0.4576,0.7593,0.0198
73,882864.0,25.948476,1.0,10.41,7.92,-5.98,-37.88,-1.37,14.0,-65.94,111.94,139.81,-2.6574159752133952,0.4795282732319146,-4.320030182189017,-54.46469598924939,98.80505247705544,2.269061145645111,-0.4621,-0.4576,0.7593,0.0198
74,882900.0,25.956125,1.0,11.14,8.16,-8.04,-37.25,2.19,10.88,-79.81,114.87,97.25,-0.6559320978944186,-1.1593452597992178,-6.116681047602223,-50.541973215859535,98.15564818979229,1.2146932735575866,-0.4966,-0.4269,0.7556,0.0106
75,882900.0,25.956125,1.0,11.14,8.16,-8.04,-37.25,2.19,10.88,-79.81,114.87,97.25,-0.6559320978944186,-1.1593452597992178,-6.116681047602223,-50.541973215859535,98.15564818979229,1.2146932735575866,-0.4966,-0.4269,0.7556,0.0106
76,882937.0,25.991562,1.0,9.25,7.15,-4.69,-35.88,5.5,8.69,-32.5,63.44,86.37,-1.950421916431888,-1.3510035055364955,-2.5647583222537893,-46.80650649596007,98.12066633896302,-0.4583674584234223,-0.5211,-0.3972,0.7554,-0.004
77,882937.0,25.991562,1.0,9.25,7.15,-4.69,-35.88,5.5,8.69,-32.5,63.44,86.37,-1.950421916431888,-1.3510035055364955,-2.5647583222537893,-46.80650649596007,98.12066633896302,-0.4583674584234223,-0.5211,-0.3972,0.7554,-0.004
78,882970.0,26.007926,1.0,9.25,4.58,-5.05,-35.88,5.5,8.69,-24.25,82.37,77.81,0.06920658014527675,-0.3814158807198682,-1.6777364605471785,-44.580659579875785,97.63220528770944,-2.2346770389286066,-0.5379999999999999,-0.3793,0.7526,-0.0195
79,882970.0,26.007926,1.0,9.25,4.58,-5.05,-35.88,5.5,8.69,-24.25,82.37,77.81,0.06920658014527675,-0.3814158807198682,-1.6777364605471785,-44.580659579875785,97.63220528770944,-2.2346770389286066,-0.5379999999999999,-0.3793,0.7526,-0.0195
80,883007.0,26.051182,1.0,9.54,4.24,-4.52,-35.88,9.5,7.19,-43.75,66.31,83.87,0.09894083283710307,-0.5064405587404277,-1.5579146054769826,-41.0847460230468,97.16343265081737,-3.701951248377608,-0.5599,-0.3509,0.7499,-0.0323
81,883007.0,26.051182,1.0,9.54,4.24,-4.52,-35.88,9.5,7.19,-43.75,66.31,83.87,0.09894083283710307,-0.5064405587404277,-1.5579146054769826,-41.0847460230468,97.16343265081737,-3.701951248377608,-0.5599,-0.3509,0.7499,-0.0323
82,883044.0,26.106662,1.0,10.31,4.42,-5.09,-33.75,11.69,5.56,-34.19,72.94,82.75,0.5962795661112381,-1.1629467087774072,-2.442129760922393,-38.40404714248387,96.69682377932163,-5.0321866714644,-0.5759,-0.3289,0.7472,-0.0439
83,883044.0,26.106662,1.0,10.31,4.42,-5.09,-33.75,11.69,5.56,-34.19,72.94,82.75,0.5962795661112381,-1.1629467087774072,-2.442129760922393,-38.40404714248387,96.69682377932163,-5.0321866714644,-0.5759,-0.3289,0.7472,-0.0439
84,883077.0,26.157698,1.0,10.28,4.39,-4.77,-33.75,11.69,5.56,-57.19,56.75,65.56,0.6994053634919126,-1.7070474120528691,-2.2058527063689866,-34.91520624744418,96.06084314103792,-6.00734895779625,-0.5954,-0.3,0.7435,-0.0524
85,883077.0,26.157698,1.0,10.28,4.39,-4.77,-33.75,11.69,5.56,-57.19,56.75,65.56,0.6994053634919126,-1.7070474120528691,-2.2058527063689866,-34.91520624744418,96.06084314103792,-6.00734895779625,-0.5954,-0.3,0.7435,-0.0524
86,883111.0,26.206769,1.0,10.43,5.07,-4.49,-33.0,13.38,2.69,-59.19,23.62,48.81,0.3530999712072591,-2.4343443555778856,-2.3834766592599195,-32.52040941662392,95.92384977618164,-5.938500516393254,-0.6061,-0.28,0.7427,-0.0518
87,883111.0,26.206769,1.0,10.43,5.07,-4.49,-33.0,13.38,2.69,-59.19,23.62,48.81,0.3530999712072591,-2.4343443555778856,-2.3834766592599195,-32.52040941662392,95.92384977618164,-5.938500516393254,-0.6061,-0.28,0.7427,-0.0518
88,883148.0,26.213764,1.0,9.91,4.66,-3.71,-32.25,15.5,-0.25,-22.5,25.69,42.31,0.07208563972249438,-2.2910623735329656,-1.526206518156723,-30.28255562108873,95.99232372540723,-6.168003805570946,-0.6138,-0.2612,0.7431,-0.0538
89,883148.0,26.213764,1.0,9.91,4.66,-3.71,-32.25,15.5,-0.25,-22.5,25.69,42.31,0.07208563972249438,-2.2910623735329656,-1.526206518156723,-30.28255562108873,95.99232372540723,-6.168003805570946,-0.6138,-0.2612,0.7431,-0.0538
90,883185.0,26.315788,1.0,9.96,4.77,-4.05,-32.25,15.5,-0.25,-21.81,36.31,32.06,0.456647497333375,-2.761023174864724,-1.6181136339242954,-29.037876869982465,95.58215802399698,-6.627085616027942,-0.6206,-0.2507,0.7407,-0.0578
91,883185.0,26.315788,1.0,9.96,4.77,-4.05,-32.25,15.5,-0.25,-21.81,36.31,32.06,0.456647497333375,-2.761023174864724,-1.6181136339242954,-29.037876869982465,95.58215802399698,-6.627085616027942,-0.6206,-0.2507,0.7407,-0.0578
92,883218.0,26.321794,1.0,9.8,3.66,-4.44,-31.87,17.37,-0.06,-29.37,28.37,8.06,1.572643680719496,-2.184487688905397,-1.2343646902589462,-27.86752361625034,94.64823708998428,-6.638563994932457,-0.631,-0.2408,0.7352,-0.0579
93,883218.0,26.321794,1.0,9.8,3.66,-4.44,-31.87,17.37,-0.06,-29.37,28.37,8.06,1.572643680719496,-2.184487688905397,-1.2343646902589462,-27.86752361625034,94.64823708998428,-6.638563994932457,-0.631,-0.2408,0.7352,-0.0579
94,883255.0,26.334089000000002,1.0,9.38,3.65,-2.87,-31.56,17.75,-0.06,-38.56,20.75,1.37,0.4396357112147443,-1.7384661239584134,-0.5049093378147127,-26.794357072369408,93.99097726205777,-5.8581800447136345,-0.6395,-0.2317,0.7313,-0.0511
95,883255.0,26.334089000000002,1.0,9.38,3.65,-2.87,-31.56,17.75,-0.06,-38.56,20.75,1.37,0.4396357112147443,-1.7384661239584134,-0.5049093378147127,-26.794357072369408,93.99097726205777,-5.8581800447136345,-0.6395,-0.2317,0.7313,-0.0511
96,883290.0,26.337706,1.0,9.37,3.64,-2.45,-30.75,18.25,-0.19,-27.0,18.69,0.0,0.2122713231877688,-1.6090939811830849,-0.4117039498821669,-26.158669228245632,93.52158145031368,-5.364844561963229,-0.6448,-0.2263,0.7285,-0.0468
97,883290.0,26.337706,1.0,9.37,3.64,-2.45,-30.75,18.25,-0.19,-27.0,18.69,0.0,0.2122713231877688,-1.6090939811830849,-0.4117039498821669,-26.158669228245632,93.52158145031368,-5.364844561963229,-0.6448,-0.2263,0.7285,-0.0468
98,883324.0,26.384677000000003,1.0,9.16,3.1,-2.23,-30.75,18.25,-0.19,-15.63,9.31,-4.81,0.3575812001673341,-1.0992328227648218,-0.049937791251259966,-25.782352883412447,93.10419946060928,-4.848669626539135,-0.6492,-0.2231,0.726,-0.0423
99,883324.0,26.384677000000003,1.0,9.16,3.1,-2.23,-30.75,18.25,-0.19,-15.63,9.31,-4.81,0.3575812001673341,-1.0992328227648218,-0.049937791251259966,-25.782352883412447,93.10419946060928,-4.848669626539135,-0.6492,-0.2231,0.726,-0.0423
100,883361.0,26.404883,1.0,9.25,2.83,-2.61,-31.56,17.19,-1.0,-14.69,14.13,-2.69,0.8947594862432565,-0.9659743635614022,-0.12561051766262746,-25.59430098947942,92.72162065181284,-4.584885551911774,-0.6524,-0.2215,0.7237,-0.04
101,883361.0,26.404883,1.0,9.25,2.83,-2.61,-31.56,17.19,-1.0,-14.69,14.13,-2.69,0.8947594862432565,-0.9659743635614022,-0.12561051766262746,-25.59430098947942,92.72162065181284,-4.584885551911774,-0.6524,-0.2215,0.7237,-0.04
102,883396.0,26.409406,1.0,9.06,2.97,-1.61,-31.87,17.87,-1.0,-13.88,8.31,-2.81,0.030912756056566792,-0.8011542758199797,0.1705825330377433,-24.79585513058625,92.55569944229441,-3.7822081305683333,-0.6562,-0.2147,0.7227,-0.033
103,883396.0,26.409406,1.0,9.06,2.97,-1.61,-31.87,17.87,-1.0,-13.88,8.31,-2.81,0.030912756056566792,-0.8011542758199797,0.1705825330377433,-24.79585513058625,92.55569944229441,-3.7822081305683333,-0.6562,-0.2147,0.7227,-0.033
104,883431.0,26.456805,1.0,9.03,3.05,-1.37,-31.87,17.87,-1.0,-11.13,23.06,-3.88,-0.11212628893569787,-0.813368096419933,0.2125809969619397,-24.631622257728548,92.00993104367019,-3.564372225995784,-0.6603,-0.2133,0.7194,-0.0311
105,883431.0,26.456805,1.0,9.03,3.05,-1.37,-31.87,17.87,-1.0,-11.13,23.06,-3.88,-0.11212628893569787,-0.813368096419933,0.2125809969619397,-24.631622257728548,92.00993104367019,-3.564372225995784,-0.6603,-0.2133,0.7194,-0.0311
106,883464.0,26.515385,1.0,9.17,2.64,-1.55,-31.5,17.19,-1.0,-5.69,21.44,-2.44,0.3497172977829052,-0.4932824823760391,0.15805579129724026,-24.06892577380089,91.33558129123823,-3.1058114852451255,-0.6664,-0.2085,0.7153,-0.0271
107,883464.0,26.515385,1.0,9.17,2.64,-1.55,-31.5,17.19,-1.0,-5.69,21.44,-2.44,0.3497172977829052,-0.4932824823760391,0.15805579129724026,-24.06892577380089,91.33558129123823,-3.1058114852451255,-0.6664,-0.2085,0.7153,-0.0271
108,883501.0,26.567521000000003,1.0,9.24,2.91,-1.34,-31.19,17.25,-0.5,-16.94,4.19,-0.56,0.1308844900524132,-0.6649998341858927,0.050526565418186564,-23.272776070440536,91.30279024652515,-2.3951379752687134,-0.6689,-0.2017,0.7151,-0.0209
109,883501.0,26.567521000000003,1.0,9.24,2.91,-1.34,-31.19,17.25,-0.5,-16.94,4.19,-0.56,0.1308844900524132,-0.6649998341858927,0.050526565418186564,-23.272776070440536,91.30279024652515,-2.3951379752687134,-0.6689,-0.2017,0.7151,-0.0209
110,883535.0,26.618645,1.0,9.08,2.86,-0.95,-31.19,17.25,-0.5,-2.44,6.13,0.12,-0.18906039521750767,-0.5355814827769583,0.25647153872156103,-23.155792207151627,91.2044746461752,-2.1773706400327653,-0.6699,-0.2007,0.7145,-0.019
111,883535.0,26.618645,1.0,9.08,2.86,-0.95,-31.19,17.25,-0.5,-2.44,6.13,0.12,-0.18906039521750767,-0.5355814827769583,0.25647153872156103,-23.155792207151627,91.2044746461752,-2.1773706400327653,-0.6699,-0.2007,0.7145,-0.019
112,883568.0,26.690361,1.0,9.11,2.61,-1.23,-31.19,18.0,-0.88,2.31,9.44,2.19,0.20435178940512164,-0.4082021300749783,0.2615616626838282,-22.711475449834968,91.07352101138805,-1.9366895446536667,-0.6721,-0.1969,0.7137,-0.0169
113,883568.0,26.690361,1.0,9.11,2.61,-1.23,-31.19,18.0,-0.88,2.31,9.44,2.19,0.20435178940512164,-0.4082021300749783,0.2615616626838282,-22.711475449834968,91.07352101138805,-1.9366895446536667,-0.6721,-0.1969,0.7137,-0.0169
114,883603.0,26.790447999999998,1.0,9.08,2.46,-0.87,-30.75,17.25,-1.75,4.0,12.75,4.81,-0.05123010930607359,-0.20586209748290374,0.3615509389673193,-22.38430579933233,90.89370830665364,-1.8450038134157023,-0.6739,-0.1941,0.7126,-0.0161
115,883603.0,26.790447999999998,1.0,9.08,2.46,-0.87,-30.75,17.25,-1.75,4.0,12.75,4.81,-0.05123010930607359,-0.20586209748290374,0.3615509389673193,-22.38430579933233,90.89370830665364,-1.8450038134157023,-0.6739,-0.1941,0.7126,-0.0161
116,883638.0,26.906126,1.0,9.47,2.39,-1.64,-31.5,17.25,-2.56,-5.56,16.06,6.06,0.7867143599799629,-0.319505991028074,-0.06054800335933841,-21.963930115303267,90.46983065734315,-1.8335431812694831,-0.6777,-0.1905,0.71,-0.016
117,883638.0,26.906126,1.0,9.47,2.39,-1.64,-31.5,17.25,-2.56,-5.56,16.06,6.06,0.7867143599799629,-0.319505991028074,-0.06054800335933841,-21.963930115303267,90.46983065734315,-1.8335431812694831,-0.6777,-0.1905,0.71,-0.016
118,883673.0,26.911845,1.0,9.35,2.66,-1.26,-31.5,17.25,-2.56,-7.25,2.0,6.31,0.3768971291971533,-0.532274721052306,0.026039989610479708,-21.683846183764324,90.33972471015196,-1.856464464018338,-0.6792,-0.1881,0.7092,-0.0162
119,883673.0,26.911845,1.0,9.35,2.66,-1.26,-31.5,17.25,-2.56,-7.25,2.0,6.31,0.3768971291971533,-0.532274721052306,0.026039989610479708,-21.683846183764324,90.33972471015196,-1.856464464018338,-0.6792,-0.1881,0.7092,-0.0162
120,883709.0,26.922195000000002,1.0,9.3,2.83,-1.06,-31.19,17.56,-2.56,0.63,4.75,0.63,0.16383284592146075,-0.6707861587182555,0.05238402413747778,-21.24064723466595,90.33972471015196,-1.6157945246366483,-0.6803,-0.1843,0.7092,-0.0141
121,883709.0,26.922195000000002,1.0,9.3,2.83,-1.06,-31.19,17.56,-2.56,0.63,4.75,0.63,0.16383284592146075,-0.6707861587182555,0.05238402413747778,-21.24064723466595,90.33972471015196,-1.6157945246366483,-0.6803,-0.1843,0.7092,-0.0141
122,883744.0,26.925037,1.0,9.35,2.25,-1.37,-30.0,17.56,-1.75,10.88,0.81,0.94,0.623808656039452,-0.2050296031296217,0.11486349685772625,-21.07744476440248,90.40475908773537,-1.5011923619341792,-0.6804,-0.1829,0.7096,-0.0131
123,883744.0,26.925037,1.0,9.35,2.25,-1.37,-30.0,17.56,-1.75,10.88,0.81,0.94,0.623808656039452,-0.2050296031296217,0.11486349685772625,-21.07744476440248,90.40475908773537,-1.5011923619341792,-0.6804,-0.1829,0.7096,-0.0131
124,883777.0,26.927834000000004,1.0,9.34,2.42,-1.44,-30.0,17.56,-1.75,5.63,-1.12,2.13,0.6227673292991308,-0.3993892577758922,0.07945877774417376,-21.20567161915569,90.43729021823671,-1.741858774764144,-0.6797,-0.184,0.7098,-0.0152
125,883777.0,26.927834000000004,1.0,9.34,2.42,-1.44,-30.0,17.56,-1.75,5.63,-1.12,2.13,0.6227673292991308,-0.3993892577758922,0.07945877774417376,-21.20567161915569,90.43729021823671,-1.741858774764144,-0.6797,-0.184,0.7098,-0.0152
126,883812.0,26.930359999999997,1.0,9.31,2.63,-1.36,-30.37,17.56,-1.75,5.38,-2.69,1.75,0.4297837223551379,-0.5558402025304177,0.06247596516002751,-21.065789103644565,90.87737591284895,-1.5011923619341792,-0.6774,-0.1828,0.7125,-0.0131
127,883812.0,26.930359999999997,1.0,9.31,2.63,-1.36,-30.37,17.56,-1.75,5.38,-2.69,1.75,0.4297837223551379,-0.5558402025304177,0.06247596516002751,-21.065789103644565,90.87737591284895,-1.5011923619341792,-0.6774,-0.1828,0.7125,-0.0131
128,883849.0,27.005743,1.0,9.3,2.51,-1.3,-29.69,18.75,-1.5,8.44,-1.75,-1.12,0.35267786406889684,-0.3804444945891248,0.10041590480465246,-21.065789103644565,91.25362166916472,-1.1803139285143014,-0.6749,-0.1828,0.7148,-0.0103
129,883849.0,27.005743,1.0,9.3,2.51,-1.3,-29.69,18.75,-1.5,8.44,-1.75,-1.12,0.35267786406889684,-0.3804444945891248,0.10041590480465246,-21.065789103644565,91.25362166916472,-1.1803139285143014,-0.6749,-0.1828,0.7148,-0.0103
130,883881.0,27.012278000000002,1.0,9.24,2.44,-1.1,-29.69,18.75,-1.5,2.56,-0.69,-1.37,0.15817073431450807,-0.2476765730638988,0.19130609902787651,-21.25230621784773,91.36838194343346,-1.1344749665222489,-0.6738,-0.1844,0.7155,-0.0099
131,883881.0,27.012278000000002,1.0,9.24,2.44,-1.1,-29.69,18.75,-1.5,2.56,-0.69,-1.37,0.15817073431450807,-0.2476765730638988,0.19130609902787651,-21.25230621784773,91.36838194343346,-1.1344749665222489,-0.6738,-0.1844,0.7155,-0.0099
132,883916.0,27.086933000000002,1.0,9.29,2.78,-1.17,-30.75,18.75,-1.75,0.81,0.75,3.75,0.12529040970706773,-0.5703719816426784,0.05675881518196312,-20.9608980601766,91.51610407003919,-0.8823637238721431,-0.6735,-0.1819,0.7164,-0.0077
133,883916.0,27.086933000000002,1.0,9.29,2.78,-1.17,-30.75,18.75,-1.75,0.81,0.75,3.75,0.12529040970706773,-0.5703719816426784,0.05675881518196312,-20.9608980601766,91.51610407003919,-0.8823637238721431,-0.6735,-0.1819,0.7164,-0.0077
134,883951.0,27.090895,1.0,9.31,2.94,-1.12,-30.75,18.37,-3.0,6.56,-1.0,-3.81,0.0301393056855995,-0.6941671654227015,0.00403180031978323,-20.9608980601766,91.54895776302857,-0.8250663536663884,-0.6733,-0.1819,0.7166,-0.0072
135,883951.0,27.090895,1.0,9.31,2.94,-1.12,-30.75,18.37,-3.0,6.56,-1.0,-3.81,0.0301393056855995,-0.6941671654227015,0.00403180031978323,-20.9608980601766,91.54895776302857,-0.8250663536663884,-0.6733,-0.1819,0.7166,-0.0072
136,883988.0,27.130912,1.0,9.2,2.59,-0.97,-30.75,18.37,-3.0,9.5,-0.94,-7.0,-0.025896783037026583,-0.3174785367499433,0.20521590215131447,-21.21732993545333,91.56538823890905,-0.7563097804494618,-0.6726,-0.1841,0.7167,-0.0066
137,883988.0,27.130912,1.0,9.2,2.59,-0.97,-30.75,18.37,-3.0,9.5,-0.94,-7.0,-0.025896783037026583,-0.3174785367499433,0.20521590215131447,-21.21732993545333,91.56538823890905,-0.7563097804494618,-0.6726,-0.1841,0.7167,-0.0066
138,884021.0,27.137662,1.0,9.22,2.73,-1.18,-31.19,18.37,-2.56,4.63,-1.44,-3.0,0.12579213583997298,-0.4731560829147585,0.1312172107258398,-21.43888030792546,91.58182113625664,-0.7792286067117273,-0.672,-0.18600000000000003,0.7168,-0.0068
139,884021.0,27.137662,1.0,9.22,2.73,-1.18,-31.19,18.37,-2.56,4.63,-1.44,-3.0,0.12579213583997298,-0.4731560829147585,0.1312172107258398,-21.43888030792546,91.58182113625664,-0.7792286067117273,-0.672,-0.18600000000000003,0.7168,-0.0068
140,884056.0,27.154971000000003,1.0,9.21,2.45,-1.19,-30.37,18.75,-2.56,4.44,0.94,-2.38,0.2057564180147038,-0.19337027565035525,0.20649519744912048,-21.43888030792546,91.66402199436024,-0.5958787923837214,-0.6715,-0.18600000000000003,0.7173,-0.0052
141,884056.0,27.154971000000003,1.0,9.21,2.45,-1.19,-30.37,18.75,-2.56,4.44,0.94,-2.38,0.2057564180147038,-0.19337027565035525,0.20649519744912048,-21.43888030792546,91.66402199436024,-0.5958787923837214,-0.6715,-0.18600000000000003,0.7173,-0.0052
142,884090.0,27.157958,1.0,9.16,2.73,-1.05,-31.87,18.0,-1.5,-2.75,1.63,-2.5,0.005264026847235828,-0.4013117547761582,0.1993652032689344,-21.21732993545333,91.74628360102051,-0.14896906869365514,-0.6714,-0.1841,0.7178,-0.0013
143,884090.0,27.157958,1.0,9.16,2.73,-1.05,-31.87,18.0,-1.5,-2.75,1.63,-2.5,0.005264026847235828,-0.4013117547761582,0.1993652032689344,-21.21732993545333,91.74628360102051,-0.14896906869365514,-0.6714,-0.1841,0.7178,-0.0013
144,884123.0,27.194381,1.0,9.2,2.75,-1.21,-31.87,18.0,-1.5,1.06,5.06,0.37,0.16790761733986814,-0.4393944672966213,0.13993703570089622,-21.298944377524897,91.6475769685171,-0.12605074034902247,-0.6719,-0.1848,0.7172,-0.0011
145,884123.0,27.194381,1.0,9.2,2.75,-1.21,-31.87,18.0,-1.5,1.06,5.06,0.37,0.16790761733986814,-0.4393944672966213,0.13993703570089622,-21.298944377524897,91.6475769685171,-0.12605074034902247,-0.6719,-0.1848,0.7172,-0.0011
146,884160.0,27.252740999999997,1.0,9.28,2.88,-1.22,-30.37,18.75,-2.56,2.81,6.19,-0.88,0.1701329802944097,-0.525182334193881,0.0293068902964837,-21.287284503296156,91.51610407003919,0.04583662483277591,-0.6728,-0.1847,0.7164,0.0004
147,884160.0,27.252740999999997,1.0,9.28,2.88,-1.22,-30.37,18.75,-2.56,2.81,6.19,-0.88,0.1701329802944097,-0.525182334193881,0.0293068902964837,-21.287284503296156,91.51610407003919,0.04583662483277591,-0.6728,-0.1847,0.7164,0.0004
148,884195.0,27.279659999999996,1.0,9.31,2.41,-1.25,-30.75,18.37,-2.56,7.63,4.69,-3.44,0.3348725274707035,-0.06203870210693885,0.11486422080603907,-21.403893300909647,91.43401211484779,0.14896906869365514,-0.6729999999999999,-0.1857,0.7159,0.0013
149,884195.0,27.279659999999996,1.0,9.31,2.41,-1.25,-30.75,18.37,-2.56,7.63,4.69,-3.44,0.3348725274707035,-0.06203870210693885,0.11486422080603907,-21.403893300909647,91.43401211484779,0.14896906869365514,-0.6729999999999999,-0.1857,0.7159,0.0013
150,884228.0,27.327894,1.0,9.18,2.6,-1.05,-30.75,18.37,-2.56,-0.12,1.69,-0.94,0.10742243667588383,-0.22100740648780404,0.21110331696124265,-21.473869337236096,91.35198041570484,0.12605074034902247,-0.6735,-0.1863,0.7154,0.0011
151,884228.0,27.327894,1.0,9.18,2.6,-1.05,-30.75,18.37,-2.56,-0.12,1.69,-0.94,0.10742243667588383,-0.22100740648780404,0.21110331696124265,-21.473869337236096,91.35198041570484,0.12605074034902247,-0.6735,-0.1863,0.7154,0.0011
152,884262.0,27.331196999999996,1.0,9.22,2.79,-1.13,-30.37,18.75,-2.56,-0.63,4.88,-1.56,0.15544981704735664,-0.4086849715251764,0.11757306004181522,-21.25230621784773,91.30279024652515,0.3323159869732291,-0.6742,-0.1844,0.7151,0.0029
153,884262.0,27.331196999999996,1.0,9.22,2.79,-1.13,-30.37,18.75,-2.56,-0.63,4.88,-1.56,0.15544981704735664,-0.4086849715251764,0.11757306004181522,-21.25230621784773,91.30279024652515,0.3323159869732291,-0.6742,-0.1844,0.7151,0.0029
154,884299.0,27.371828999999998,1.0,9.28,2.55,-1.22,-31.19,17.25,-1.5,3.0,4.25,-2.56,0.32880845472400705,-0.18446986275731025,0.11298423983288508,-21.170698001897183,91.2044746461752,0.4812859628976946,-0.6751,-0.1837,0.7145,0.0042
155,884299.0,27.371828999999998,1.0,9.28,2.55,-1.22,-31.19,17.25,-1.5,3.0,4.25,-2.56,0.32880845472400705,-0.18446986275731025,0.11298423983288508,-21.170698001897183,91.2044746461752,0.4812859628976946,-0.6751,-0.1837,0.7145,0.0042
156,884332.0,27.384978999999998,1.0,9.18,2.6,-0.95,-31.19,17.25,-1.5,0.69,3.19,-0.19,0.0654778199876849,-0.18864137326686725,0.2204606065349584,-21.24064723466595,91.13897874666814,0.4583674584234223,-0.6754,-0.1843,0.7141,0.004
157,884332.0,27.384978999999998,1.0,9.18,2.6,-0.95,-31.19,17.25,-1.5,0.69,3.19,-0.19,0.0654778199876849,-0.18864137326686725,0.2204606065349584,-21.24064723466595,91.13897874666814,0.4583674584234223,-0.6754,-0.1843,0.7141,0.004
158,884367.0,27.43008,1.0,9.2,2.65,-1.04,-31.19,18.37,-2.56,-1.69,5.25,-0.06,0.17133116227331516,-0.2597047532778254,0.18130330110343704,-21.054133663315955,91.0081013523764,0.5958787923837214,-0.6766,-0.1827,0.7133,0.0052
159,884367.0,27.43008,1.0,9.2,2.65,-1.04,-31.19,18.37,-2.56,-1.69,5.25,-0.06,0.17133116227331516,-0.2597047532778254,0.18130330110343704,-21.054133663315955,91.0081013523764,0.5958787923837214,-0.6766,-0.1827,0.7133,0.0052
160,884402.0,27.497213000000002,1.0,9.22,2.36,-1.02,-31.19,18.0,-3.06,1.75,6.31,1.75,0.24277135566305436,0.013177649759303687,0.2379882117238381,-21.042478443283557,90.89370830665364,0.5615008861828721,-0.6773,-0.1826,0.7126,0.0049
161,884402.0,27.497213000000002,1.0,9.22,2.36,-1.02,-31.19,18.0,-3.06,1.75,6.31,1.75,0.24277135566305436,0.013177649759303687,0.2379882117238381,-21.042478443283557,90.89370830665364,0.5615008861828721,-0.6773,-0.1826,0.7126,0.0049
162,884436.0,27.555618,1.0,9.29,2.74,-1.1,-31.19,18.0,-3.06,-5.81,4.63,3.19,0.236890956489258,-0.35736189144096153,0.06817603570357278,-20.92593832998922,90.84471821404394,0.5615008861828721,-0.6779999999999999,-0.1816,0.7123,0.0049
163,884436.0,27.555618,1.0,9.29,2.74,-1.1,-31.19,18.0,-3.06,-5.81,4.63,3.19,0.236890956489258,-0.35736189144096153,0.06817603570357278,-20.92593832998922,90.84471821404394,0.5615008861828721,-0.6779999999999999,-0.1816,0.7123,0.0049
164,884469.0,27.571639,1.0,9.26,2.75,-1.01,-30.75,18.0,-2.56,3.25,1.31,0.94,0.1602651753849925,-0.3653342203105381,0.10247327134192297,-20.69292362085707,90.84471821404394,0.687553479519944,-0.6785,-0.1796,0.7123,0.006
165,884469.0,27.571639,1.0,9.26,2.75,-1.01,-30.75,18.0,-2.56,3.25,1.31,0.94,0.1602651753849925,-0.3653342203105381,0.10247327134192297,-20.69292362085707,90.84471821404394,0.687553479519944,-0.6785,-0.1796,0.7123,0.006
166,884504.0,27.574541999999997,1.0,9.3,2.65,-0.91,-30.0,18.37,-2.56,-0.31,3.81,1.25,0.09532323247666367,-0.24325253689317594,0.09725549340767436,-20.55315637010219,90.84471821404394,0.7792286067117273,-0.6788,-0.1784,0.7123,0.0068
167,884504.0,27.574541999999997,1.0,9.3,2.65,-0.91,-30.0,18.37,-2.56,-0.31,3.81,1.25,0.09532323247666367,-0.24325253689317594,0.09725549340767436,-20.55315637010219,90.84471821404394,0.7792286067117273,-0.6788,-0.1784,0.7123,0.0068
168,884541.0,27.675459000000004,1.0,9.29,2.67,-0.97,-30.37,18.75,-2.25,-0.06,2.81,1.06,0.16482967503462653,-0.27833121505380065,0.09741404072109107,-20.343563363128432,90.82839290633041,0.9854995558041141,-0.6793,-0.1766,0.7122,0.0086
169,884541.0,27.675459000000004,1.0,9.29,2.67,-0.97,-30.37,18.75,-2.25,-0.06,2.81,1.06,0.16482967503462653,-0.27833121505380065,0.09741404072109107,-20.343563363128432,90.82839290633041,0.9854995558041141,-0.6793,-0.1766,0.7122,0.0086
170,884574.0,27.757106,1.0,9.33,2.7,-1.02,-30.37,18.75,-2.25,-1.5,2.13,1.5,0.21050868850917406,-0.3064502653328556,0.04749663882468092,-20.331921330362565,90.81206995793598,1.0084187350403075,-0.6795,-0.1765,0.7121,0.0088
171,884574.0,27.757106,1.0,9.33,2.7,-1.02,-30.37,18.75,-2.25,-1.5,2.13,1.5,0.21050868850917406,-0.3064502653328556,0.04749663882468092,-20.331921330362565,90.81206995793598,1.0084187350403075,-0.6795,-0.1765,0.7121,0.0088
172,884611.0,27.771786,1.0,9.32,2.71,-0.91,-30.37,17.56,-3.75,-1.69,0.63,1.31,0.09965234221797092,-0.2929398948808655,0.0629928001249116,-20.308637900960072,90.82839290633041,1.0313379546174166,-0.6794,-0.1763,0.7122,0.009000000000000001
173,884611.0,27.771786,1.0,9.32,2.71,-0.91,-30.37,17.56,-3.75,-1.69,0.63,1.31,0.09965234221797092,-0.2929398948808655,0.0629928001249116,-20.308637900960072,90.82839290633041,1.0313379546174166,-0.6794,-0.1763,0.7122,0.009000000000000001
174,884645.0,27.826552000000003,1.0,9.35,2.75,-0.89,-30.37,18.37,-1.75,-2.06,2.0,0.63,0.0781930141454408,-0.30953324326166803,0.025281229533627325,-20.05257586733213,90.89370830665364,1.3407518310456548,-0.6795,-0.1741,0.7126,0.0117
175,884645.0,27.826552000000003,1.0,9.35,2.75,-0.89,-30.37,18.37,-1.75,-2.06,2.0,0.63,0.0781930141454408,-0.30953324326166803,0.025281229533627325,-20.05257586733213,90.89370830665364,1.3407518310456548,-0.6795,-0.1741,0.7126,0.0117
176,884678.0,27.840644,1.0,9.37,2.66,-0.99,-30.37,18.37,-1.75,-1.44,0.56,0.94,0.19480605552773206,-0.2357166848268115,0.02099272799093121,-20.05257586733213,90.91004306520378,1.3865917007687605,-0.6794,-0.1741,0.7127,0.0121
177,884678.0,27.840644,1.0,9.37,2.66,-0.99,-30.37,18.37,-1.75,-1.44,0.56,0.94,0.19480605552773206,-0.2357166848268115,0.02099272799093121,-20.05257586733213,90.91004306520378,1.3865917007687605,-0.6794,-0.1741,0.7127,0.0121
178,884713.0,27.843666,1.0,9.35,2.71,-0.99,-30.0,18.75,-3.0,-1.37,-0.06,0.63,0.18097737089300436,-0.2809628946488121,0.027334735470727626,-19.982758376303032,90.95906154292842,1.5011923619341792,-0.6792,-0.1735,0.713,0.0131
179,884713.0,27.843666,1.0,9.35,2.71,-0.99,-30.0,18.75,-3.0,-1.37,-0.06,0.63,0.18097737089300436,-0.2809628946488121,0.027334735470727626,-19.982758376303032,90.95906154292842,1.5011923619341792,-0.6792,-0.1735,0.713,0.0131
180,884750.0,27.886098999999998,1.0,9.38,2.74,-0.95,-30.37,18.75,-3.5,-1.31,1.25,-0.75,0.13761826732826235,-0.2798530439355509,-0.006465890801329977,-19.994394103683586,90.95906154292842,1.5928739664684124,-0.6792,-0.1736,0.713,0.0139
181,884750.0,27.886098999999998,1.0,9.38,2.74,-0.95,-30.37,18.75,-3.5,-1.31,1.25,-0.75,0.13761826732826235,-0.2798530439355509,-0.006465890801329977,-19.994394103683586,90.95906154292842,1.5928739664684124,-0.6792,-0.1736,0.713,0.0139
182,884783.0,27.898058000000002,1.0,9.33,2.65,-0.89,-30.37,18.75,-3.5,-0.63,-1.25,-0.31,0.08804294583083633,-0.18691614145223998,0.06905220610062024,-20.01766618340029,91.02445270227787,1.6272548279067642,-0.6786,-0.1738,0.7134,0.0142
183,884783.0,27.898058000000002,1.0,9.33,2.65,-0.89,-30.37,18.75,-3.5,-0.63,-1.25,-0.31,0.08804294583083633,-0.18691614145223998,0.06905220610062024,-20.01766618340029,91.02445270227787,1.6272548279067642,-0.6786,-0.1738,0.7134,0.0142
184,884817.0,27.929503999999998,1.0,9.31,2.71,-1.03,-30.37,18.75,-3.75,-1.63,-0.88,-0.25,0.20409309329082925,-0.2666443674060837,0.06147956585152236,-20.029302535998788,91.08988187212722,1.707477412974553,-0.6783,-0.1739,0.7138,0.0149
185,884817.0,27.929503999999998,1.0,9.31,2.71,-1.03,-30.37,18.75,-3.75,-1.63,-0.88,-0.25,0.20409309329082925,-0.2666443674060837,0.06147956585152236,-20.029302535998788,91.08988187212722,1.707477412974553,-0.6783,-0.1739,0.7138,0.0149
186,884852.0,27.9692,1.0,9.33,2.7,-0.96,-30.75,18.37,-3.5,-0.56,0.88,-0.19,0.13713083033546775,-0.2323940260629305,0.05023220697669295,-20.040939097265657,91.08988187212722,1.7303983035632713,-0.6782,-0.174,0.7138,0.0151
187,884852.0,27.9692,1.0,9.33,2.7,-0.96,-30.75,18.37,-3.5,-0.56,0.88,-0.19,0.13713083033546775,-0.2323940260629305,0.05023220697669295,-20.040939097265657,91.08988187212722,1.7303983035632713,-0.6782,-0.174,0.7138,0.0151
