TIME,ELAPSED_SECONDS,PSTATE,acc_x,acc_y,acc_z,mag_x,mag_y,mag_z,gyr_x,gyr_y,gyr_z,lin_x,lin_y,lin_z,eul_x,eul_y,eul_z,qua_w,qua_x,qua_y,qua_z
2882670.0,455.23279,1.0,3.98,-1.96,-8.66,-0.69,9.19,53.19,4.56,-13.81,6.63,0.16892765263195098,0.027822308152675612,0.07791476013735199,-91.92747384583168,-81.50608810294752,-9.22311622194562,0.225,-0.7189,-0.6528,-0.0804
2882705.0,455.279774,1.0,3.95,-1.99,-8.67,0.37,9.56,52.75,5.19,-11.38,7.06,0.18319991104402966,-0.020195747235404127,0.07538441301764642,-92.15850909816106,-81.41535708644899,-8.740349140335569,0.2236,-0.7203,-0.6522,-0.0762
2882740.0,455.303607,1.0,3.89,-1.91,-8.69,1.56,10.25,52.69,-0.63,-3.31,1.25,0.2604828560493391,0.014015222843706543,0.0995262109864381,-92.24113894853753,-81.40024126031591,-8.60244460934073,0.2225,-0.7208,-0.6521,-0.075
2882775.0,455.343371,1.0,4.05,-2.08,-8.76,1.56,10.25,52.69,2.5,0.63,0.0,0.13308376149282486,-0.10582172038493282,-0.06439809409424946,-92.2246080237603,-81.41535708644899,-8.60244460934073,0.2228,-0.7207,-0.6522,-0.075
2882809.0,455.391733,1.0,4.16,-2.04,-9.12,2.69,9.88,52.19,4.13,-4.44,1.25,0.26321127103571973,-0.06214251373436197,-0.41922199874839805,-92.2246080237603,-81.41535708644899,-8.522006076442151,0.2228,-0.7207,-0.6522,-0.0743
2882844.0,455.417664,1.0,3.93,-2.01,-8.78,2.25,10.25,52.56,5.56,-7.94,1.69,0.23965447288499497,-0.036564013958688635,-0.017535910624323137,-92.24113894853753,-81.4607148625289,-8.165828301178744,0.2227,-0.7208,-0.6525,-0.0712
2882881.0,455.451552,1.0,3.94,-2.4,-8.56,2.69,10.69,52.56,5.25,-4.81,1.56,-0.1442719998292752,-0.17819515209200187,0.0853007069318732,-92.24113894853753,-81.47583755660963,-7.9131051126258125,0.2231,-0.7208,-0.6526,-0.069
2882914.0,455.479495,1.0,3.77,-2.51,-8.41,2.69,10.69,52.56,-4.25,-1.12,3.75,-0.3074101379763339,-0.10952946315143303,0.26020551507415135,-92.4065848525884,-81.37001475180745,-7.890132207309979,0.2222,-0.7218,-0.6519,-0.0688
2882951.0,455.527365,1.0,3.68,-2.74,-8.12,2.69,10.69,52.19,-35.94,3.38,12.75,-0.6776823337111664,-0.18040015383208166,0.506510084973284,-92.92105929606363,-80.96262485016385,-8.315183354403652,0.2184,-0.7249,-0.6492,-0.0725
2882985.0,455.561457,1.0,1.97,-1.22,-5.39,2.25,9.19,53.38,-84.06,44.44,-11.44,-0.23015539507780713,0.44823349450053274,3.9613514423107166,-93.43797599516577,-80.45136650125512,-11.271055753655437,0.2081,-0.728,-0.6458,-0.0982
2883020.0,455.598324,1.0,1.8,-0.35,-2.03,2.25,9.19,53.38,-173.5,221.19,-103.75,-0.04682620724367448,-0.555732678170076,7.12852220306254,-91.59825645648039,-80.51141416133365,-18.05401336431272,0.2093,-0.7169,-0.6462,-0.1569
2883055.0,455.615336,1.0,5.58,3.25,-5.03,0.37,6.88,52.25,-277.81,286.38,-152.19,2.563103748939848,-0.7349809801974632,2.067780435850562,-86.14135405488716,-79.88223328250282,-33.452581959950805,0.1963,-0.6829,-0.642,-0.2878
2883090.0,455.659396,1.0,9.94,4.67,-6.96,-8.56,-0.88,52.38,-207.75,331.0,-164.88,1.7178833736573216,-0.816724914076735,-3.0555402150931545,-79.46438269954626,-78.70653013539808,-45.709958605695505,0.196,-0.6392,-0.6341,-0.3884
2883129.0,455.704251,1.0,13.38,3.11,-11.05,-21.25,-14.06,46.19,-72.44,140.19,-68.94,-3.34342878317724,2.181105132708362,-7.3649330479282025,-72.7688405556102,-77.05643698119783,-55.84800465854667,0.202,-0.5932,-0.6229,-0.4683
2883164.0,455.732339,1.0,9.3,4.44,-5.25,-21.25,-14.06,46.19,-52.06,8.81,-16.87,0.10913246009880151,0.09867435885503051,-1.7581437066364245,-71.81805792972114,-76.23846628099807,-58.313422489419004,0.194,-0.5865,-0.6173,-0.4872
2883201.0,455.776932,1.0,9.51,4.86,-6.62,-27.0,-20.87,41.69,-3.13,-11.63,6.56,-0.060981504336178105,1.1849646068358903,-2.7023963320220847,-72.15797532584307,-75.86024997866475,-58.53661475812208,0.1905,-0.5889,-0.6147,-0.4889
2883235.0,455.79778,1.0,8.69,4.1,-5.71,-27.69,-22.69,41.69,43.06,-54.31,23.56,0.07341628625103791,0.42096729922634024,-1.3623963595552855,-73.51078365135078,-76.50088290484743,-56.2374309655145,0.191,-0.5984,-0.6191,-0.4713
2883270.0,455.845495,1.0,8.29,4.01,-5.94,-27.69,-22.69,41.69,66.81,-71.69,34.25,0.38651783107252635,0.4575911653590564,-1.1354254106178754,-75.00557127858174,-77.24698728308947,-53.51303293157287,0.1927,-0.6088,-0.6242,-0.4502
2883305.0,455.865569,1.0,7.76,2.68,-5.62,-26.06,-21.87,43.25,78.37,-98.25,47.31,-0.02295028492583917,-0.26146863055799385,-0.13897755383771404,-77.5847366999739,-78.4400339000036,-48.59819468600229,0.1959,-0.6265,-0.6323,-0.4115
2883342.0,455.915402,1.0,7.55,3.44,-6.72,-23.5,-18.06,46.38,84.62,-100.69,49.13,0.9521107709625038,0.29965450087265566,-0.8234107834538698,-79.71792602911492,-79.12209358290185,-44.7912774389752,0.1961,-0.6409,-0.6369,-0.381
2883379.0,455.955757,1.0,7.72,2.17,-7.38,-19.75,-14.0,48.19,150.19,-115.19,66.5,0.600727339943921,-0.2320773187577576,-1.0725488115468398,-82.20376433319545,-80.64661893327633,-37.93114997769715,0.2084,-0.6574,-0.6471,-0.325
2883411.0,455.98783,1.0,6.62,0.79,-6.71,-19.75,-14.0,48.19,137.25,-125.44,77.19,0.42262933229107524,-0.7580115043344904,0.38755221906663806,-85.04815885199483,-81.55147683065383,-30.258813745298948,0.2203,-0.6759,-0.6531,-0.261
2883450.0,456.038906,1.0,5.79,0.11,-7.24,-16.06,-7.25,50.5,114.87,-92.62,63.44,0.3517609304068565,-0.2677126056075849,0.5460671777021435,-86.70737625621076,-81.76349634670956,-25.41806598879087,0.2279,-0.6865,-0.6545,-0.22
2883485.0,456.050303,1.0,5.83,-0.5,-7.59,-11.88,-1.25,53.69,110.25,-70.44,55.06,0.5507638617606903,-0.5634274567768915,0.2554087890615815,-88.08631353433992,-81.77865358515048,-19.98275837630303,0.2411,-0.6952,-0.6546,-0.1735
2883520.0,456.089181,1.0,5.2,-1.65,-7.56,-11.88,-1.25,53.69,95.87,-67.44,53.63,-0.10417998180657317,-0.3908407383961712,0.4925483230479646,-88.95032385550869,-81.5968810686458,-16.234582036054892,0.2496,-0.7006,-0.6534,-0.1412
2883555.0,456.123784,1.0,4.58,-1.91,-7.64,-7.75,4.25,53.69,57.81,-56.81,47.81,0.09850273273763843,-0.18722626267174114,0.6989969796983804,-90.19353290614055,-81.00782923439905,-12.423127669242316,0.2543,-0.7083,-0.6495,-0.1082
2883590.0,456.166553,1.0,3.98,-1.97,-7.67,-4.75,9.19,53.19,51.81,-39.56,36.56,0.253000100208129,0.12476956179770915,0.9482853932713127,-90.9754057740677,-80.58651122616075,-10.166142467644526,0.256,-0.7131,-0.6467,-0.0886
2883627.0,456.189914,1.0,4.46,-2.9,-8.15,-1.75,11.06,54.75,42.38,-19.44,29.5,-0.12365129745566827,-0.23791624708251985,0.07771345914355798,-91.51610407003918,-79.9569836272298,-8.1313637329408,0.2625,-0.7164,-0.6425,-0.0709
2883661.0,456.227825,1.0,4.44,-2.95,-8.16,-1.75,11.06,54.75,25.31,-17.12,34.44,0.029440102633488507,-0.3075656039813817,0.06466679945995502,-92.12547447908048,-79.30057349706065,-7.028869316139516,0.2656,-0.7201,-0.6381,-0.0613
2883698.0,456.266894,1.0,3.83,-3.1,-7.27,-0.25,12.88,53.19,12.0,-4.81,26.94,-0.24398282316217612,-0.28257219200212347,1.032117229629323,-92.97097603348082,-78.3956670621913,-5.835231869336322,0.2686,-0.7252,-0.632,-0.0509
2883733.0,456.294075,1.0,4.46,-3.87,-7.89,0.06,14.06,52.69,1.5,14.75,23.19,-0.6094750306195069,-0.5946880894121405,-0.011470301939811023,-93.53831032521614,-77.65826632282992,-5.789336220308419,0.2711,-0.7286,-0.627,-0.0505
2883768.0,456.352656,1.0,4.73,-4.0,-7.96,0.06,14.06,52.69,-26.31,8.69,45.31,-0.5919149940974968,-0.8326359917059447,-0.2278332425530749,-95.02080781947747,-76.07833252250538,-6.030298919379606,0.2715,-0.7374,-0.6162,-0.0526
2883803.0,456.376813,1.0,4.04,-3.57,-7.11,0.37,14.75,51.06,-15.63,19.25,43.06,-0.5438733143778238,-0.6113275426097506,0.9213204926854601,-96.42132059422951,-74.6881295380252,-6.317194167065647,0.2705,-0.7456,-0.6066,-0.0551
2883840.0,456.413367,1.0,4.13,-3.83,-6.65,0.37,14.38,52.0,-56.44,53.38,41.13,-0.9311174316811948,-0.8712642492567687,1.1856164809614356,-98.26066774517868,-72.58390841157699,-7.844187348567063,0.2705,-0.7562,-0.5919,-0.0684
2883874.0,456.438383,1.0,5.09,-2.98,-8.39,0.37,14.38,52.0,-80.12,57.06,41.31,0.24649443381263803,-0.5716479680356997,-0.43019810352972065,-100.06340703701152,-70.67617134909206,-10.212160888414617,0.2648,-0.7664,-0.5784,-0.089
2883909.0,456.479887,1.0,4.65,-1.62,-8.36,-0.69,12.56,52.5,-90.12,44.13,36.81,0.9958096008512731,0.16759220218451254,0.1569465800694516,-102.6861051412989,-68.08393507833871,-13.011162702254632,0.253,-0.7809,-0.5598,-0.1133
2883944.0,456.520758,1.0,4.36,-0.1,-8.68,-3.69,9.19,53.25,-58.25,61.69,1.12,1.9015838739445874,1.241196060891352,0.36178837535024044,-103.45985596974185,-66.6928683019733,-16.223006993376618,0.248,-0.7851,-0.5497,-0.1411
2883981.0,456.538914,1.0,4.64,-1.13,-8.15,-5.56,5.38,52.75,-26.62,81.31,-32.0,0.7160757637389088,0.7699007716991189,0.419238839178135,-102.55778172371147,-66.55574634912462,-18.796984460560502,0.2521,-0.7802,-0.5487,-0.1633
2884016.0,456.584723,1.0,5.22,-0.43,-8.87,-5.56,5.38,52.75,-45.44,67.75,-33.13,1.1038863585190342,1.2823162824395513,-0.3544178503425979,-101.35655120840237,-66.58316211676657,-22.127373666986443,0.252,-0.7736,-0.5489,-0.1919
2884050.0,456.619533,1.0,5.69,-0.34,-9.08,-8.88,3.75,52.75,-35.56,38.0,-36.81,1.0278832695342963,1.2397183489175962,-0.7926261262063807,-100.474586173471,-66.87128845427674,-23.928344197778113,0.2498,-0.7687,-0.551,-0.2073
2884087.0,456.667902,1.0,5.76,-0.27,-8.79,-12.25,1.56,52.0,-3.88,13.63,-43.06,0.8615425597084876,1.121795946006432,-0.610351405074999,-99.15787486810976,-67.82138560708218,-25.288865851045276,0.2475,-0.7613,-0.5579,-0.2189
2884122.0,456.706569,1.0,5.7,-0.01,-8.02,-12.25,1.56,52.0,-3.13,6.63,-55.19,0.9787609534193851,0.751177233508505,0.045079441943267184,-97.85869361521178,-69.06866999114752,-25.86464777060069,0.2452,-0.7539,-0.5669,-0.2238
2884157.0,456.736575,1.0,5.73,0.19,-7.74,-14.06,0.75,53.5,-3.63,9.63,-72.0,0.9034040569931374,0.5920633216377826,0.2353427678096356,-95.47986946417303,-71.36596675624857,-26.912168656137837,0.2407,-0.7401,-0.5833,-0.2327
2884192.0,456.773562,1.0,6.55,0.37,-8.23,-12.5,-0.25,52.25,9.56,14.19,-81.62,0.960732676517027,0.3454105996296879,-0.6685580763074075,-93.22090422842993,-73.39640598031606,-27.77308072525798,0.239,-0.7267,-0.5976,-0.24
2884229.0,456.799493,1.0,7.18,-0.66,-7.67,-13.0,-1.0,52.25,36.19,0.69,-77.12,-0.1371893673466733,-0.6401132325138348,-0.6999352743433107,-90.16107125343979,-76.44252722312795,-27.867523616250345,0.2405,-0.7081,-0.6187,-0.2408
2884261.0,456.822552,1.0,7.46,-1.48,-7.35,-13.0,-1.0,52.25,22.62,-10.75,-51.75,-1.0205162886729058,-1.1560417218481478,-0.6569351428609149,-88.4215640397331,-78.33653305941664,-27.596052101188157,0.241,-0.6973,-0.6316,-0.2385
2884298.0,456.870423,1.0,7.26,-1.98,-6.76,-13.75,-1.0,52.88,10.13,-13.88,-17.5,-1.6038668119546529,-1.4793688688505866,-0.07083343452856461,-87.37109100921478,-79.73285491812906,-27.14787893324093,0.2387,-0.6907,-0.641,-0.2347
2884335.0,456.91802,1.0,6.84,-2.01,-6.14,-13.0,0.06,52.0,-13.19,2.13,5.88,-1.6720671870892811,-1.5610854175147189,0.6801773165870788,-87.37109100921478,-79.77765133500274,-27.195035005738163,0.2374,-0.6907,-0.6413,-0.2351
2884368.0,456.931124,1.0,6.68,-1.57,-6.18,-13.0,0.06,52.0,-38.06,19.37,29.0,-1.2784998528860698,-1.3414846157826625,0.7597965607213073,-88.29373733057317,-78.54361109463308,-28.127341390125167,0.235,-0.6965,-0.633,-0.243
2884403.0,456.981899,1.0,6.77,-0.94,-6.46,-12.88,-1.37,51.56,-48.88,27.37,39.88,-0.7051477234461472,-1.0588251133953077,0.48840144850910683,-89.98269667432403,-76.18021553240146,-29.76053964808933,0.2318,-0.707,-0.6169,-0.2568
2884442.0,457.023348,1.0,6.56,-0.23,-5.88,-13.0,-2.5,53.25,-83.94,34.5,43.94,-0.07941428736845069,-1.0627220934305281,1.058780823846508,-91.48326004604112,-73.9834968931097,-31.55471850803618,0.2258,-0.7162,-0.6017,-0.2719
2884476.0,457.050276,1.0,6.46,-0.12,-5.21,-13.0,-2.5,53.25,-104.06,53.13,39.25,-0.13611383577224379,-1.1818706954123521,1.5923481621663704,-93.32103704825495,-70.63403485049959,-35.07140174532199,0.2148,-0.7273,-0.5781,-0.3013
2884511.0,457.085191,1.0,7.39,1.27,-5.96,-15.56,-4.38,51.88,-160.25,78.56,38.0,0.8140978453741603,-0.6716416553881437,0.2865269868817002,-94.49620014403054,-67.49032089207272,-38.95054421712167,0.2023,-0.7343,-0.5555,-0.3334
2884546.0,457.110124,1.0,8.2,1.45,-6.71,-18.25,-8.88,50.88,-150.56,78.44,35.75,0.20786995396721863,-0.19443448461455337,-0.8837936443690371,-95.8041294235595,-62.986753750366496,-44.48160022735979,0.1823,-0.742,-0.5224,-0.3785
2884583.0,457.171705,1.0,8.34,2.74,-6.8,-21.56,-14.5,47.38,-142.69,36.88,49.0,0.9233923140292513,0.5448039220137166,-1.2456680971663232,-97.26741602219177,-59.57702913707413,-47.55675792365637,0.1655,-0.7505,-0.4968,-0.4032
2884616.0,457.190569,1.0,8.24,4.33,-7.46,-21.56,-14.5,47.38,-113.75,13.88,47.13,1.4599246019358305,2.0111842227127807,-1.860477246197913,-99.2816642471814,-55.666512497314564,-50.28866780725309,0.1444,-0.762,-0.4669,-0.4249
2884653.0,457.235663,1.0,7.82,4.82,-6.99,-25.0,-19.0,45.19,-67.44,7.56,23.5,1.7558085157112422,2.3403672637056467,-1.3595811245617195,-100.33136679814685,-53.66708406362962,-51.50696474252449,0.1332,-0.7679,-0.4514,-0.4345
2884689.0,457.252779,1.0,7.15,3.96,-6.56,-26.06,-22.0,42.88,-27.37,1.63,4.31,0.9789387423610627,2.0322940666437868,-0.4280536970001716,-100.86955398800988,-52.47589269472505,-52.335404976984144,0.1255,-0.7709,-0.4421,-0.441
2884724.0,457.302723,1.0,7.14,3.09,-6.15,-26.06,-22.0,42.88,-4.5,3.13,-4.25,0.46650744409670564,1.2868308647523377,-0.01560214144511285,-100.85156520381317,-52.335404976984144,-52.57811891259397,0.123,-0.7708,-0.441,-0.4429
2884759.0,457.336744,1.0,7.18,2.89,-6.03,-26.37,-22.0,41.69,-13.63,-3.13,-6.13,0.3320580210315982,1.0431623833345287,0.05642181227719156,-100.81559788103888,-52.32263756575615,-52.7571233277472,0.1197,-0.7706,-0.4409,-0.4443
2884794.0,457.367565,1.0,7.3,2.43,-5.5,-26.06,-23.5,41.69,6.56,-0.12,-11.38,0.2843041648145097,0.3724204646083522,0.360731614823786,-100.6359655604961,-52.57811891259397,-52.7571233277472,0.1188,-0.7696,-0.4429,-0.4443
2884831.0,457.399478,1.0,7.63,1.63,-5.19,-25.75,-23.5,42.19,20.12,8.0,-15.88,-0.12465871705025311,-0.46776236954873285,0.4484686291407254,-99.92080048347366,-53.42321798982236,-52.718753581326524,0.1215,-0.7656,-0.4495,-0.444
2884864.0,457.433727,1.0,8.07,1.86,-5.55,-25.75,-23.5,42.19,5.94,7.0,-10.81,-0.09257731525945978,-0.37836308072049574,-0.15504015879569621,-99.47650902646943,-53.834091110734875,-52.82108707040817,0.1227,-0.7631,-0.4527,-0.4448
2884900.0,457.47143,1.0,8.22,1.76,-5.44,-26.5,-23.06,41.69,0.5,7.06,-4.31,-0.11408133068759607,-0.5678340068982908,-0.18955678010406096,-99.06954993305422,-54.12986845766676,-52.96186978619434,0.1242,-0.7608,-0.455,-0.4459
2884935.0,457.509562,1.0,8.19,2.62,-5.69,-25.75,-23.06,41.69,-8.31,4.13,-1.31,0.3788602748165264,0.08178834239900434,-0.4970568843796972,-98.96366523953266,-54.02694525714765,-53.23087651093563,0.1227,-0.7602,-0.4542,-0.448
2884970.0,457.533531,1.0,8.09,2.15,-5.62,-25.75,-23.06,41.69,2.31,4.06,-0.56,0.010988873591259107,-0.13902996175617344,-0.27479582460230745,-98.80505247705543,-54.065535928953075,-53.34626194049607,0.1238,-0.7593,-0.4545,-0.4489
2885005.0,457.576362,1.0,8.06,2.58,-5.88,-26.06,-23.06,41.19,5.5,-1.75,-0.56,0.21815411901513526,0.2708381919155698,-0.49254683539239075,-98.78744465249004,-54.16847683303728,-53.25651268144825,0.1246,-0.7592,-0.4553,-0.4482
