TIME,ELAPSED_SECONDS,PSTATE,acc_x,acc_y,acc_z,mag_x,mag_y,mag_z,gyr_x,gyr_y,gyr_z,lin_x,lin_y,lin_z,eul_x,eul_y,eul_z,qua_w,qua_x,qua_y,qua_z
2595381.0,167.409766,1.0,0.73,-3.29,-9.31,18.75,8.75,49.06,-1.44,1.25,-0.94,0.1309187125759777,-0.1304831276741033,-0.09279111776467097,-107.78252049803919,-68.4854543216403,8.60244460934073,0.1581,-0.8079,-0.5627,0.075
2595414.0,167.456413,1.0,0.66,-3.18,-9.25,18.75,9.06,49.88,-2.25,0.19,-0.19,0.1736523389173995,-0.037410215933376456,0.004663194207392252,-107.80196748253583,-68.4854543216403,8.533497036933401,0.1579,-0.808,-0.5627,0.0744
2595448.0,167.485499,1.0,0.62,-3.25,-9.08,19.19,8.75,49.5,-0.5,0.25,-0.12,0.043645925837416555,-0.04924261711285671,0.14285311689977398,-107.80196748253583,-68.4854543216403,8.510515201802361,0.1579,-0.808,-0.5627,0.0742
2595485.0,167.527689,1.0,0.7,-3.17,-9.23,18.75,8.0,50.0,-0.69,1.5,0.5,0.1748515629236984,-0.06318311469509585,0.024153650654369585,-107.9382233400721,-68.36074272349704,8.395611151395808,0.158,-0.8087,-0.5618,0.0732
2595520.0,167.55753,1.0,0.58,-3.15,-9.14,18.75,8.0,50.0,-1.0,-2.13,-0.12,0.1166041707342973,0.03406546151020046,0.12244930961261424,-107.95770664544783,-68.37459501300991,8.384121213370948,0.1576,-0.8088,-0.5619,0.0731
2595555.0,167.580472,1.0,0.66,-3.25,-9.14,18.0,8.75,49.5,0.12,1.0,0.81,0.058432966819755405,-0.07180281952258488,0.08404078521113867,-107.99668693087186,-68.33304155520281,8.384121213370948,0.1577,-0.809,-0.5616,0.0731
2595590.0,167.631531,1.0,0.63,-3.22,-9.16,18.37,8.75,49.0,-1.25,0.63,0.0,0.07118957813808391,-0.026906269947817862,0.0770504143745967,-107.99668693087186,-68.33304155520281,8.326672787534774,0.1576,-0.809,-0.5616,0.0726
2595627.0,167.654472,1.0,0.77,-3.11,-9.48,18.37,8.75,49.0,1.19,-1.0,0.12,0.3031002311515024,-0.06728879657717793,-0.19529993327456907,-108.01618391845108,-68.33304155520281,8.2807155569704,0.1573,-0.8091,-0.5616,0.0722
2595659.0,167.705632,1.0,0.56,-3.21,-9.22,18.75,8.75,48.19,0.25,-2.63,0.5,0.06983576924804014,0.04234956701979864,0.02813122262339718,-107.97719450779341,-68.36074272349704,8.349651905481078,0.1571,-0.8089,-0.5618,0.0728
2595696.0,167.734568,1.0,0.43,-3.07,-9.25,17.69,9.5,50.19,1.63,-3.63,-0.31,0.16271519040237503,0.1990528409479862,0.054409142980373915,-107.99668693087186,-68.36074272349704,8.430081473298436,0.1567,-0.809,-0.5618,0.0735
2595731.0,167.774499,1.0,0.24,-2.06,-9.34,17.69,9.5,50.19,-2.0,-5.94,-6.0,1.0173487427616315,0.6908095001520498,0.3185214295125096,-107.89927038520268,-68.4854543216403,8.522006076442151,0.1557,-0.8085,-0.5627,0.0743
2595764.0,167.789166,1.0,0.01,-0.72,-9.76,19.5,9.06,49.38,-12.69,-33.19,-51.75,2.2365415147446477,1.2645726643910389,0.36340701735369585,-106.71980105429783,-69.84948599144745,8.809306149715168,0.1499,-0.8024,-0.5725,0.0768
2595799.0,167.838487,1.0,0.25,-1.7,-9.05,19.87,9.06,48.5,-2.25,-15.31,-95.12,1.1963023217697029,0.5971241768234238,0.6925234114353334,-104.33365022340345,-72.38499549855874,8.832292528579133,0.1469,-0.7898,-0.5905,0.077
2595835.0,167.877009,1.0,0.52,-2.52,-8.64,20.69,8.75,48.19,-76.56,5.06,-117.62,0.1399233617158162,0.1771420260020049,0.7944670149807731,-100.56420761524465,-76.6030617698578,7.534092210574165,0.1407,-0.7692,-0.6198,0.0657
2595870.0,167.902938,1.0,1.61,-1.55,-10.08,20.69,8.75,48.19,-112.31,43.88,-141.31,0.9815955306681254,-0.333551448003362,-0.465945273138491,-97.44096021432263,-80.51141416133365,4.194987989089829,0.1272,-0.7515,-0.6462,0.0366
2595907.0,167.955475,1.0,2.74,-2.75,-9.56,18.0,9.06,49.88,-64.37,76.69,-129.69,-0.9496317923811836,-1.099025638071982,-0.4087326216035283,-92.97097603348082,-85.32834664281017,-0.3896120513439707,0.1219,-0.7252,-0.6777,-0.0034
2595944.0,167.973427,1.0,2.76,-2.03,-8.51,15.25,7.25,50.38,-72.94,68.75,-120.62,-1.0626291431588064,-0.715992302680805,0.7227755883510003,-88.72571015189867,-89.43310172436692,-4.825730880475589,0.1201,-0.6992,-0.7036,-0.0421
2595977.0,168.023499,1.0,2.93,-1.93,-8.34,15.25,7.25,50.38,-71.12,70.62,-97.37,-1.4508497672099359,-0.4966209993675005,0.8895987757457569,-85.85932167442839,-91.94396037414167,-8.23475966058657,0.1182,-0.6811,-0.719,-0.0718
2596012.0,168.04662,1.0,3.32,-1.44,-8.36,11.56,5.0,52.0,-79.81,80.12,-66.12,-1.5515344400976216,-0.31936869555232117,0.8357891428975908,-83.27262296307823,-93.68898731021125,-12.94196455075679,0.1174,-0.6644,-0.7295,-0.1127
2596048.0,168.088046,1.0,4.42,0.41,-9.05,8.56,2.0,52.88,-108.75,99.81,-58.25,-0.37040772205750727,-0.7586738916449629,-0.2379610947899078,-81.68773616772422,-94.175947342697,-17.33498950133432,0.1153,-0.654,-0.7324,-0.1507
2596085.0,168.12651,1.0,5.34,1.07,-9.97,4.06,-1.37,53.19,-94.19,97.81,-45.88,-0.6181175643983465,-0.5140170539630136,-1.5253894080155543,-79.6731491009361,-94.24328884347398,-22.875130477358805,0.1148,-0.6406,-0.7328,-0.1983
2596118.0,168.152442,1.0,5.34,0.98,-8.9,4.06,-1.37,53.19,-58.06,77.12,-12.75,-0.9274720727654122,-0.5374546097408044,-0.5633518368710337,-78.839968934118,-93.8063267588112,-25.8058643261674,0.1172,-0.635,-0.7302,-0.2233
2596155.0,168.191549,1.0,4.74,1.39,-7.5,-0.75,-5.75,53.19,-83.56,67.5,2.38,-0.5804401502404724,-0.2646800006860105,0.848819139282341,-78.5584140845042,-92.3569249514092,-29.428677083635286,0.1187,-0.6331,-0.7215,-0.254
2596192.0,168.218486,1.0,6.19,2.62,-8.97,-2.69,-8.69,53.75,-84.69,67.31,13.81,-0.20618315019758615,-0.3542597305013623,-1.3948404611805874,-78.57321863854627,-90.71418173754832,-32.60397465615993,0.1177,-0.6332,-0.7115,-0.2807
2596225.0,168.273679,1.0,5.55,3.22,-8.12,-2.69,-8.69,53.75,-55.75,26.81,46.63,0.4242937409851031,0.12935863084347787,-0.5330086580983018,-79.52399794108469,-88.2298758601719,-35.383995029265094,0.1182,-0.6396,-0.6961,-0.3039
2596259.0,168.297006,1.0,6.3,2.77,-8.49,-7.88,-11.69,50.69,-17.5,9.56,58.81,-0.164805153593659,-0.10171496101433719,-1.1206320649992758,-80.93249704821434,-86.34544823903026,-36.1305141127441,0.1202,-0.649,-0.6842,-0.3101
2596296.0,168.337343,1.0,6.06,1.95,-7.82,-8.69,-12.75,52.5,1.44,-8.5,80.31,-0.4979767494875853,-0.24556876846675546,-0.26162766487016675,-83.41068938154756,-83.90279877211276,-35.82930943898928,0.1262,-0.6653,-0.6685,-0.3076
2596331.0,168.362794,1.0,6.3,2.25,-8.32,-8.69,-12.75,52.5,-14.31,-14.63,91.06,-0.09581430195319429,-0.08740344217324925,-0.8684649997476601,-85.90628216751115,-81.56660985214896,-35.37196719600466,0.1295,-0.6814,-0.6532,-0.3038
2596366.0,168.402601,1.0,5.88,2.59,-8.32,-8.25,-13.56,51.19,-0.19,-28.87,107.81,0.6439696086167763,0.3358360899595918,-0.6803618367368411,-89.8855183726958,-78.02648613919354,-34.26710635514728,0.1337,-0.7064,-0.6295,-0.2946
2596401.0,168.440541,1.0,5.53,2.99,-8.57,-8.69,-12.75,51.19,16.37,-52.63,110.0,1.3397721383272998,0.7986815517620367,-0.7068184284605561,-93.17087251757091,-75.46851380016189,-32.639793783943,0.1369,-0.7264,-0.612,-0.281
2596438.0,168.479566,1.0,5.07,2.83,-8.57,-9.06,-11.0,51.19,38.06,-72.19,92.31,1.758798576826525,0.9303742011910421,-0.3520768597945487,-97.49308186392096,-72.75460720541858,-29.19178700040293,0.14,-0.7518,-0.5931,-0.252
2596472.0,168.508205,1.0,4.9,1.74,-8.7,-9.06,-11.0,51.19,55.88,-71.25,69.0,1.3075883220342204,0.5722394264035741,-0.2278083719774866,-100.65391350970894,-71.1544897805901,-25.347589124808927,0.1448,-0.7697,-0.5818,-0.2194
2596509.0,168.530593,1.0,4.47,0.6,-8.44,-6.38,-9.5,52.0,68.81,-110.19,68.44,0.7149779602046509,0.15485278290290627,0.2651969066787956,-102.90650718749764,-70.32536827305816,-21.613845749720685,0.1467,-0.7821,-0.5759,-0.1875
2596544.0,168.585422,1.0,3.55,-0.8,-7.61,-3.5,-6.06,54.88,53.94,-68.75,46.25,-0.23166632064239545,-0.16043973172406867,1.3760397131723412,-104.82072855146714,-69.69581964045186,-17.555261104447528,0.1498,-0.7924,-0.5714,-0.1526
2596579.0,168.61074,1.0,2.98,-0.42,-8.07,-3.5,-6.06,54.88,23.12,-44.94,31.56,0.11695564932462421,0.4763846721219158,1.2077501273268467,-105.89809368556763,-69.11040625696496,-15.979969398223387,0.1483,-0.7981,-0.5672,-0.139
2596614.0,168.660669,1.0,3.17,-0.08,-8.88,0.56,-3.5,54.25,6.56,-24.69,14.31,0.599122159797334,0.6049735503447925,0.4159759219040584,-106.50884628399781,-68.87403881539461,-14.823619947246293,0.1467,-0.8013,-0.5655,-0.129
2596648.0,168.677609,1.0,3.2,-0.49,-8.74,1.0,-2.75,53.06,0.44,-1.94,-7.19,0.23104635167580767,0.3831312762342526,0.4971103761223308,-106.33663306993483,-69.082580917068,-14.742733694368157,0.1465,-0.8004,-0.567,-0.1283
2596685.0,168.719733,1.0,3.22,-0.13,-8.98,2.06,-3.06,53.38,-4.25,2.19,-14.38,0.5232525061230713,0.5684340275575255,0.29724467836444113,-105.86006493054606,-69.54229663061771,-14.927627478593793,0.1456,-0.7979,-0.5703,-0.1299
2596718.0,168.765182,1.0,2.93,0.45,-9.16,2.06,-3.06,53.38,-3.0,-16.12,-24.94,0.93999920494204,1.0073567963104517,0.2780281804693576,-105.31051129197046,-70.21327111376787,-14.881400387429185,0.1428,-0.795,-0.5751,-0.1295
2596755.0,168.790697,1.0,2.84,0.78,-9.34,2.06,-2.75,52.88,-7.25,-23.0,-33.75,1.1735401617338819,1.0804429310467163,0.144090993114256,-104.29629314706912,-71.57772437161505,-14.534774284595127,0.136,-0.7896,-0.5848,-0.1265
2596790.0,168.838213,1.0,3.28,1.12,-9.62,2.75,-2.75,53.56,3.38,-26.5,-46.63,1.5867283071147975,0.7260783092672517,-0.2686814371395361,-103.21965750009807,-72.93974254153213,-14.142092768246478,0.1312,-0.7838,-0.5944,-0.1231
2596825.0,168.850561,1.0,4.06,-0.15,-9.64,2.75,-2.75,53.56,12.25,-27.44,-63.56,0.5146736189708891,-0.49853118827517784,-0.6299336230182337,-101.10372013014187,-75.43953757831886,-13.39183842112712,0.126,-0.7722,-0.6118,-0.1166
2596859.0,168.907212,1.0,4.66,-2.52,-9.7,4.0,-3.06,52.75,10.75,-7.56,-59.94,-1.767991426641769,-1.557114503770994,-0.9917573241134576,-99.2816642471814,-77.39373685475255,-13.161108413553293,0.124,-0.762,-0.6252,-0.1146
2596896.0,168.943204,1.0,4.49,-2.95,-9.16,6.19,-1.56,52.38,-1.31,-9.13,-12.19,-2.276207779967102,-1.664553612605896,-0.4313351246804391,-98.0856967948129,-78.69171147031696,-12.930431986971731,0.1224,-0.7552,-0.634,-0.1126
2596931.0,168.971132,1.0,4.07,-1.42,-9.15,6.19,-1.56,52.38,-0.88,-5.06,3.75,-0.8441715417912254,-1.0570714228420464,-0.21701072924660103,-98.1381557250269,-78.72135037210387,-12.826644816909523,0.121,-0.7555,-0.6342,-0.1117
2596964.0,169.014522,1.0,3.55,-0.53,-9.28,5.88,-2.38,52.88,-3.81,-4.88,9.13,-0.04875812952990888,-0.4185201034115632,-0.13438936054199146,-98.54126546565152,-78.38088122929612,-12.711338126294772,0.1195,-0.7578,-0.6319,-0.1107
2597001.0,169.035595,1.0,3.08,0.01,-8.97,5.5,-2.38,52.69,2.38,-2.63,12.63,0.43518464695648795,0.001849924416251647,0.3325795495107773,-98.94602892121195,-77.99699333524984,-12.561458728935325,0.1196,-0.7601,-0.6293,-0.1094
2597036.0,169.075546,1.0,3.1,0.18,-9.24,7.0,-3.06,52.38,0.5,0.56,3.81,0.6134162236997638,0.10259255682395552,0.07869053751321253,-99.22859240723112,-77.70240232798936,-12.538402281482076,0.1197,-0.7617,-0.6273,-0.1092
2597070.0,169.103017,1.0,3.02,-0.14,-9.38,7.0,-3.06,52.38,-1.81,2.44,1.44,0.2795138625507727,0.17082530868499923,-0.04307541315516339,-99.2816642471814,-77.65826632282992,-12.58451568698019,0.1199,-0.762,-0.627,-0.1096
2597107.0,169.147162,1.0,3.03,-0.57,-9.17,5.75,-2.38,53.19,2.0,1.69,2.94,-0.11209100737085342,0.031152768417557986,0.13291415953554697,-99.33476502563386,-77.55533546921926,-12.538402281482076,0.1213,-0.7623,-0.6263,-0.1092
2597142.0,169.195587,1.0,2.97,-0.17,-9.32,5.5,-2.0,51.88,-1.31,-1.19,1.94,0.2614900644116913,0.20364300558239667,0.029004451480080462,-99.44105363347383,-77.46716810896245,-12.549930441445206,0.1208,-0.7629,-0.6257,-0.1093
2597175.0,169.219521,1.0,3.04,-0.48,-9.27,5.5,-2.0,51.88,-3.94,0.69,1.94,-0.02760349942482465,0.06297387691174094,0.039348820162949494,-99.51197737726193,-77.39373685475255,-12.549930441445206,0.1207,-0.7633,-0.6252,-0.1093
2597212.0,169.2467,1.0,3.18,-0.34,-9.5,5.5,-1.56,53.19,5.44,0.44,3.63,0.13808395929516593,0.03390965361715237,-0.21621301191316,-99.58295302275091,-77.32034327545834,-12.538402281482076,0.1208,-0.7637,-0.6247,-0.1092
2597246.0,169.300578,1.0,3.26,-0.42,-9.41,5.75,-2.75,53.19,2.06,0.31,5.56,0.10734242908452485,-0.07547785996115697,-0.16003855215080698,-99.77840482252957,-77.10038770859832,-12.457708722341447,0.1219,-0.7648,-0.6232,-0.1085
2597281.0,169.32155,1.0,3.25,-0.3,-9.37,5.75,-2.75,53.19,1.12,0.94,4.38,0.22997652030913351,-0.052296346384075765,-0.11271368383886582,-99.92080048347366,-76.96857576197083,-12.457708722341447,0.1221,-0.7656,-0.6223,-0.1085
2597314.0,169.352581,1.0,3.09,-0.18,-9.24,4.69,-2.38,54.06,-1.0,-0.94,3.13,0.3223203262151102,0.08030552255462864,0.06766850138548186,-100.06340703701152,-76.80763576279817,-12.457708722341447,0.1222,-0.7664,-0.6212,-0.1085
2597351.0,169.409514,1.0,3.27,-0.23,-9.47,6.19,-2.38,54.06,0.88,0.88,2.13,0.31475756794614096,-0.014063333012249046,-0.20970811540727574,-100.11693910211171,-76.74915654963284,-12.457708722341447,0.1227,-0.7667,-0.6208,-0.1085
