TIME,ELAPSED_SECONDS,PSTATE,acc_x,acc_y,acc_z,mag_x,mag_y,mag_z,gyr_x,gyr_y,gyr_z,lin_x,lin_y,lin_z,eul_x,eul_y,eul_z,qua_w,qua_x,qua_y,qua_z
1923745.0,200.618752,1.0,4.36,-3.18,-8.24,0.5,21.19,48.5,2.69,-0.88,-0.56,0.011860047239830251,-0.04489901500921292,-0.043093317352521865,-76.82225926226535,-93.77278810820258,-2.2002931334350637,0.2841,-0.6213,-0.73,-0.0192
1923778.0,200.675801,1.0,4.26,-3.07,-8.18,0.5,21.19,48.5,2.13,-3.69,0.81,0.10249430705098872,-0.02320291261046445,0.08688371979200049,-76.80763576279817,-93.8063267588112,-2.0742204847835874,0.2837,-0.6212,-0.7302,-0.0181
1923815.0,200.688006,1.0,4.44,-3.14,-8.4,0.56,21.19,48.88,1.81,-0.44,-1.94,0.11134314765008435,-0.0821283618874685,-0.19905125656593192,-76.74915654963284,-93.87343555520518,-2.0742204847835874,0.2838,-0.6208,-0.7306,-0.0181
1923850.0,200.726901,1.0,4.3,-3.0,-8.21,0.19,21.19,46.75,-1.37,-1.94,-1.69,0.16403921044358816,-0.06523034558625371,0.06688942083524374,-76.57386047071425,-94.07501482571973,-2.039837477354927,0.2833,-0.6196,-0.7318,-0.0178
1923885.0,200.763191,1.0,4.32,-3.05,-8.21,0.19,21.19,46.75,2.31,-1.12,-2.06,0.11388206684158142,-0.07492837677841477,0.04189620826488927,-76.51547548565267,-94.14229255211987,-2.0169155746287277,0.2831,-0.6192,-0.7322,-0.0176
1923917.0,200.781143,1.0,4.36,-3.11,-8.37,0.19,20.5,48.0,2.38,-1.44,-2.63,0.11882005789973249,-0.037966264534857325,-0.12929687770611586,-76.38419493533601,-94.27697557969388,-1.9710720103882062,0.2831,-0.6183,-0.733,-0.0172
1923954.0,200.827765,1.0,4.31,-3.05,-8.25,0.19,21.19,47.56,0.12,-1.25,-2.88,0.12362564742832793,-0.05541909458538588,0.012634203440692104,-76.28216959343423,-94.41182940148542,-1.94815034703792,0.2828,-0.6176,-0.7338,-0.017
1923987.0,200.85986,1.0,4.39,-3.16,-8.31,0.19,21.19,47.56,1.12,-0.37,-3.31,0.039797116725297954,-0.07464950819122908,-0.10832068278203444,-76.1656564719778,-94.49620014403054,-1.936689544653667,0.2829,-0.6168,-0.7343,-0.0169
1924022.0,200.910791,1.0,4.39,-3.04,-8.39,0.88,20.5,48.0,0.0,-0.81,-2.94,0.17333844358727823,-0.07092365652256591,-0.13672586632026196,-76.06378359355023,-94.59753382343494,-1.94815034703792,0.2827,-0.6161,-0.7349,-0.017
1924057.0,200.926275,1.0,4.46,-2.83,-8.52,0.56,21.56,47.56,-0.5,-2.94,-3.56,0.3961805613215774,-0.136627905202097,-0.2091012837705275,-75.88930894202932,-94.80049313653744,-1.94815034703792,0.2822,-0.6149,-0.7361,-0.017
1924091.0,200.976425,1.0,4.24,-2.8,-8.31,0.88,21.19,47.69,5.0,-7.5,-7.13,0.33545844315958884,-0.050752549441079264,0.0722475113190324,-75.65699770780402,-95.13963050405616,-1.8450038134157025,0.2806,-0.6133,-0.7381,-0.0161
1924124.0,201.004243,1.0,4.05,-3.21,-7.97,0.88,21.19,47.69,3.0,-5.0,-8.06,-0.15231536738845697,0.0811894633368122,0.3094025935195077,-75.39608386757837,-95.42876285277332,-1.6730962049034406,0.2803,-0.6115,-0.7398,-0.0146
1924161.0,201.033173,1.0,4.05,-3.25,-7.81,0.88,21.19,48.06,-4.88,0.75,-9.44,-0.29648176566410966,0.050069368175686385,0.4327131738314325,-75.13562834382228,-95.75286306642671,-1.8450038134157025,0.2791,-0.6097,-0.7417,-0.0161
1924196.0,201.082085,1.0,4.06,-3.5,-7.6,0.56,21.19,48.06,-7.31,14.88,-10.69,-0.6443190172741511,0.10000275269985792,0.5293415296821529,-74.90449405354882,-95.90673837953938,-2.280522559802512,0.28,-0.6081,-0.7426,-0.0199
1924231.0,201.100863,1.0,4.0,-5.01,-7.02,0.56,21.19,48.06,17.87,53.06,32.75,-2.1233814271830216,0.48908379526921886,0.5528643770292998,-75.13562834382228,-94.93601676687223,-2.830699387947472,0.291,-0.6097,-0.7369,-0.0247
1924265.0,201.150964,1.0,5.48,-4.55,-8.44,-0.56,20.06,49.25,10.31,46.06,65.5,-0.9987152691862522,-0.29275541661415544,-1.18804699796849,-76.54466504445786,-92.75483512396401,-2.991179359701173,0.3026,-0.6194,-0.7239,-0.0261
1924302.0,201.186852,1.0,5.82,-4.24,-9.2,-1.25,20.87,48.5,38.0,16.37,95.44,0.0910323656948,-0.40084178389135416,-1.8690101086483697,-79.01808630319101,-89.41697673415354,-2.085681528609333,0.3162,-0.6362,-0.7035,-0.0182
1924337.0,201.236724,1.0,6.44,-3.71,-11.11,-1.25,20.87,48.5,84.31,-56.94,140.19,2.1177979026989564,-0.7322404259036721,-3.370927774462059,-81.58174459786174,-86.53414601080243,1.0427975798203954,0.3216,-0.6533,-0.6854,0.0091
1924372.0,201.246709,1.0,5.09,-3.72,-10.05,-1.25,21.56,48.38,109.69,-78.12,118.62,2.64347438249833,-0.8373807683969019,-1.7285065502074648,-84.24222829795386,-83.01223334311237,7.3273929502566055,0.327,-0.6707,-0.6627,0.0639
1924407.0,201.297557,1.0,3.06,-3.76,-8.13,2.5,24.56,45.5,121.31,-76.31,90.12,2.2524609440461614,-0.2734468192401107,0.616995679374325,-85.06370833977694,-80.46637592020761,13.657245433015797,0.3342,-0.676,-0.6459,0.1189
1924444.0,201.342438,1.0,2.89,-5.98,-7.44,8.88,28.69,43.88,148.69,-95.5,66.94,0.8340661504144906,-0.6399325043364086,-0.11105739872005316,-84.39681517514323,-78.98838423592355,18.762140123042595,0.3431,-0.6717,-0.636,0.163
1924478.0,201.361386,1.0,1.82,-8.45,-5.19,8.88,28.69,43.88,114.44,-105.75,72.56,-1.7798460657540218,-0.7089352445456956,-0.091862959089406,-83.53353964844825,-77.27632517522541,25.429813082479118,0.3434,-0.6661,-0.6244,0.2201
1924513.0,201.380335,1.0,0.43,-6.35,-5.35,13.69,32.5,39.0,15.69,-63.38,78.69,-0.20624160925636703,0.21149883179392526,1.497460349813819,-84.35041927831398,-75.93290816428274,28.387306821530824,0.3326,-0.6714,-0.6152,0.2452
1924552.0,201.424231,1.0,0.4,-6.99,-5.42,17.87,34.69,34.88,14.63,-24.87,53.56,-0.4111419179526108,-0.1678710848761249,0.9636142304147182,-85.53109770474941,-74.22758955699375,30.63884419055943,0.3243,-0.679,-0.6034,0.2642
1924585.0,201.474226,1.0,-0.44,-6.34,-4.81,17.87,34.69,34.88,-1.44,-7.31,38.75,-0.5318633801967201,0.45476919969866914,1.867153396322209,-86.39259532188493,-73.29639527690126,31.399946914402907,0.3193,-0.6845,-0.5969,0.2706
1924620.0,201.492247,1.0,-0.4,-6.34,-5.14,21.56,33.88,34.06,-11.0,28.31,12.13,-0.3163745277106995,0.4014006438425981,1.6510393740972056,-87.46620685664602,-72.38499549855874,31.102474019884113,0.3187,-0.6913,-0.5905,0.2681
1924655.0,201.545786,1.0,0.09,-7.73,-4.78,22.69,32.75,34.5,-28.12,65.5,-2.94,-1.5208975814356065,-0.16568237248206086,0.8473632037068892,-88.46953482425529,-71.80391056917499,29.57087281914313,0.323,-0.6976,-0.5864,0.2552
1924691.0,201.568854,1.0,0.23,-7.62,-4.41,22.37,32.38,35.25,-110.81,168.94,-33.94,-2.216508970798894,0.036520985209465895,1.2830853583722153,-90.82839290633041,-71.29544333954917,23.893204521999117,0.3321,-0.7122,-0.5828,0.207
1924726.0,201.613814,1.0,1.12,-5.09,-6.0,22.37,32.38,35.25,-144.44,195.25,-59.69,-0.07245239900952594,0.5659067825383697,1.8796707415841647,-93.42126267707391,-71.21085630412054,14.569430825374985,0.3394,-0.7279,-0.5822,0.1268
1924763.0,201.655831,1.0,2.58,-4.36,-7.11,16.37,30.06,39.69,-103.25,188.44,-87.25,0.8770858779349351,0.40854241538311825,1.130134947425029,-93.82310001862528,-71.40829576929691,7.717845476549469,0.3484,-0.7303,-0.5836,0.0673
1924800.0,201.67079,1.0,4.63,-4.5,-8.47,8.06,26.0,44.69,-71.31,130.56,-66.62,1.3160502163008942,0.126929921198068,-0.7612116864188305,-93.43797599516577,-71.45063602260072,0.8479852761926534,0.3593,-0.728,-0.5839,0.0074
1924835.0,201.711048,1.0,4.69,-3.97,-7.97,8.06,26.0,44.69,-51.75,90.75,-59.94,1.142359056608032,0.33299739402423006,-0.18644904490887626,-92.77144614855231,-71.70491441526585,-2.796311555732279,0.3636,-0.724,-0.5857,-0.0244
1924868.0,201.747891,1.0,4.88,-4.4,-7.43,-0.06,23.0,46.06,-21.69,67.62,-50.0,0.24477950410229132,0.34608405364415973,-0.10292157611693398,-91.59825645648039,-72.0729272521427,-6.2024314124588535,0.3701,-0.7169,-0.5883,-0.0541
1924904.0,201.793249,1.0,6.32,-4.61,-7.79,-3.75,21.06,48.75,-11.75,37.75,-26.56,0.4351583200553244,-0.31948893719712357,-1.220006975506914,-90.99175237676185,-72.14379745445741,-7.890132207309979,0.374,-0.7132,-0.5888,-0.0688
1924941.0,201.816632,1.0,6.09,-4.65,-7.4,-7.56,20.37,47.5,-9.81,17.19,-17.87,0.05476567358751705,-0.22608171101376306,-0.8430677324538305,-90.55122255000579,-72.35660000190678,-8.958724002944487,0.3751,-0.7105,-0.5903,-0.0781
1924976.0,201.857826,1.0,6.32,-4.21,-8.0,-7.56,20.37,47.5,-0.37,-10.94,2.88,0.672456454756619,-0.037113320196653476,-1.2030241513053053,-90.58379565299512,-72.45600677848147,-9.073671186517632,0.3734,-0.7107,-0.591,-0.0791
1925013.0,201.894267,1.0,5.4,-4.1,-7.42,-8.0,20.0,47.69,15.06,-32.5,18.69,0.45375113483322416,0.12671210943088912,-0.23349212792633267,-90.9754057740677,-72.47021290272461,-7.740816022621953,0.3708,-0.7131,-0.5911,-0.0675
1925048.0,201.924754,1.0,5.78,-4.14,-7.83,-7.19,19.56,46.38,29.37,-36.25,23.37,0.8408108705672572,-0.09116898529789685,-0.735722849413726,-91.2044746461752,-72.44180194441707,-6.420486066048695,0.3704,-0.7145,-0.5909,-0.056
1925083.0,201.977207,1.0,5.16,-4.92,-7.3,-7.19,19.56,46.38,38.63,-44.0,27.25,0.0946583616269181,-0.1674938832652914,-0.3955549378378418,-91.36838194343346,-72.3991951776014,-4.057388916858228,0.3716,-0.7155,-0.5906,-0.0354
1925117.0,201.994314,1.0,4.63,-5.12,-7.15,-6.06,21.37,48.5,40.69,-58.44,42.56,0.08128826069697626,-0.1742043708798651,-0.12999153805697006,-91.92747384583168,-72.0729272521427,-1.0427975798203954,0.3703,-0.7189,-0.5883,-0.0091
1925154.0,202.042205,1.0,4.49,-5.01,-7.81,-2.69,21.75,47.56,53.94,-102.5,67.12,0.788736709318778,-0.12112512126275343,-0.47048593898475666,-92.62203774366758,-71.66250640989891,2.0742204847835874,0.3663,-0.7231,-0.5854,0.0181
1925189.0,202.060532,1.0,3.68,-6.97,-6.67,-2.69,21.75,47.56,73.62,-124.94,83.5,-0.9046184686529131,-0.8673169195332509,-0.4423317439228285,-93.53831032521614,-70.85889000761452,8.154340029708836,0.3579,-0.7286,-0.5797,0.0711
1925224.0,202.107434,1.0,2.31,-5.93,-6.75,1.0,24.06,46.06,22.87,-101.25,67.94,-0.17671141158384618,-0.07709864776669506,0.5316120553051853,-94.5468548563841,-70.25529850674774,11.674144907935558,0.3449,-0.7346,-0.5754,0.1017
1925259.0,202.131197,1.0,2.15,-6.89,-6.59,8.06,26.37,43.69,17.19,-71.06,57.06,-0.755981985636875,-0.6364440373934901,0.08316655914101823,-95.54805066002703,-69.38891628677108,15.020088998588148,0.3325,-0.7405,-0.5692,0.1307
1925296.0,202.175291,1.0,1.52,-5.82,-7.13,12.56,26.75,42.69,-3.75,-61.19,51.88,0.2498855118675578,-0.06953900151835612,0.4818217678969283,-96.50733558762145,-68.79069483955587,16.628233533749977,0.3215,-0.7461,-0.5649,0.1446
1925328.0,202.224315,1.0,0.89,-6.25,-6.73,12.56,26.75,42.69,11.38,-65.12,54.63,-0.283299391237277,-0.1672727506818854,0.5849765465641248,-97.5452305573509,-67.779967419794,19.459364085641027,0.308,-0.7521,-0.5576,0.169
1925365.0,202.243641,1.0,0.57,-6.33,-7.04,15.56,26.75,41.06,-2.06,-41.13,43.44,-0.1392486648742275,-0.08346025341979335,0.3235574561391168,-98.12066633896303,-67.173649069206,21.007514103633177,0.3,-0.7554,-0.5532,0.1823
1925402.0,202.27772,1.0,0.44,-6.76,-6.92,18.19,25.56,42.0,1.19,-6.31,26.0,-0.489451073042497,-0.29293722982540593,0.13958087712310707,-98.98130473446211,-66.29551072464068,21.893896745024186,0.2948,-0.7603,-0.5468,0.1899
1925437.0,202.31756,1.0,0.37,-6.31,-7.31,18.19,25.56,42.0,-6.31,1.81,23.56,0.04221623961662968,-0.1187901131454967,0.14366874688088238,-99.65398071134052,-65.73525876311373,21.998949913651902,0.2919,-0.7641,-0.5427,0.1908
1925470.0,202.363106,1.0,0.32,-6.13,-7.64,20.87,25.25,40.38,6.69,-13.69,29.37,0.40746496287052514,-0.06969973242169358,0.014918066816100861,-100.40294962921641,-64.90496933686148,22.454397929674286,0.2895,-0.7683,-0.5366,0.1947
1925507.0,202.40394,1.0,-0.11,-6.05,-7.24,20.5,24.5,42.0,-0.75,-13.63,28.06,0.12466906004628187,0.13000726752105973,0.3726818139258672,-101.06765675595227,-64.18666547503379,23.015443848374385,0.2866,-0.772,-0.5313,0.1995
1925543.0,202.428905,1.0,-0.34,-5.97,-6.79,20.87,24.06,40.69,-9.0,16.12,11.13,-0.17062265235239726,0.19825493125310512,0.7627469215311677,-101.7734021529752,-63.457701182653096,23.073918065630977,0.2853,-0.7759,-0.5259,0.2
1925576.0,202.454812,1.0,-0.18,-6.24,-6.78,20.87,24.06,40.69,-18.69,53.5,-7.38,-0.5024470497541946,0.15352701223474297,0.6054339706532499,-102.5211508042887,-63.12118872806756,21.15904057291141,0.2897,-0.78,-0.5234,0.1836
1925615.0,202.485859,1.0,0.36,-5.93,-6.04,21.56,23.75,40.25,-79.56,176.06,-59.44,-0.9794770241315913,-0.022846587581722644,1.3914136520039335,-103.38588087785587,-63.242263086553784,16.466118077182383,0.2982,-0.7847,-0.5243,0.1432
1925650.0,202.529459,1.0,1.4,-4.1,-6.57,18.56,22.56,43.25,-128.0,236.63,-91.81,0.015701313709625686,0.6054011953817469,1.9601130019748112,-104.18431581069761,-63.781328955958514,5.9958740675037845,0.3094,-0.789,-0.5283,0.0523
1925685.0,202.558416,1.0,2.45,-2.0,-6.09,18.56,22.56,43.25,-110.06,289.88,-148.5,1.1695864590532432,0.7914658892780182,3.091275903130291,-102.92489803406494,-64.43029923866771,-3.1975194185389713,0.3212,-0.7822,-0.5331,-0.0279
1925720.0,202.61285,1.0,8.34,-4.56,-9.21,7.38,18.87,47.56,-32.94,271.31,-145.75,0.822325411819417,-0.6333296418472427,-3.387893360110411,-97.84125321339735,-65.28560716576904,-14.696516297153032,0.3527,-0.7538,-0.5394,-0.1279
1925756.0,202.64427,1.0,7.64,-2.19,-7.49,-6.75,15.56,50.25,-56.44,164.5,-92.44,1.6787644923215366,-0.05188608687734164,-0.9843118483853868,-95.44579560430292,-65.31282652906373,-20.168955080859906,0.3616,-0.7399,-0.5396,-0.1751
1925793.0,202.668206,1.0,8.0,-3.66,-6.66,-16.06,12.19,48.0,5.75,123.25,-56.75,-0.29642507304579135,-0.07372287914678344,-1.223213875549872,-91.74628360102051,-65.21757686713724,-25.758842544663857,0.3802,-0.7178,-0.5389,-0.2229
1925828.0,202.709498,1.0,9.17,-2.96,-6.61,-16.06,12.19,48.0,-23.44,61.31,-33.38,0.33264262570218417,-0.21478180769314936,-1.8717838701150313,-90.14484388488701,-64.95929683143846,-28.82485881343364,0.3853,-0.708,-0.537,-0.2489
1925865.0,202.746885,1.0,7.98,-2.31,-5.95,-22.0,9.88,46.06,-19.62,38.88,-22.62,0.35773015844157996,0.17041808337546938,-0.4042259080991695,-89.80459924068859,-64.59290316854059,-30.40128499182162,0.384,-0.7059,-0.5343,-0.2622
1925902.0,202.789118,1.0,8.15,-2.17,-5.76,-23.5,8.38,45.69,-10.63,30.75,-14.81,0.3710168920145187,0.12731232453210328,-0.3989924608087332,-89.30416461407226,-64.24077819073914,-31.852522560972307,0.3849,-0.7028,-0.5317,-0.2744
1925935.0,202.813045,1.0,7.97,-1.91,-5.53,-23.5,8.38,45.69,2.38,2.06,0.0,0.5306466993243903,0.1021871179446634,-0.06542535796917726,-89.17537067204427,-64.20019215099852,-32.12669742786024,0.385,-0.702,-0.5314,-0.2767
1925969.0,202.852712,1.0,7.77,-2.03,-5.62,-25.37,8.06,46.5,5.56,-1.94,-0.5,0.38252930330339785,0.27106488044246024,0.01591993719544149,-89.12710972399763,-64.22724850843994,-32.00746785365764,0.386,-0.7017,-0.5316,-0.2757
1926004.0,202.875828,1.0,8.05,-2.15,-5.64,-25.37,8.38,44.38,8.5,-3.0,1.12,0.3677690195076586,0.12190096861553457,-0.24742808315317255,-89.03064782384702,-64.32197736057384,-31.852522560972307,0.387,-0.7011,-0.5323,-0.2744
1926039.0,202.913981,1.0,7.62,-2.44,-5.29,-25.37,8.38,44.38,12.06,-16.06,8.19,0.04007181028301554,-0.04298376205824894,0.21505750207662366,-89.19146210713116,-64.48448437370011,-31.161951340157955,0.3877,-0.7021,-0.5335,-0.2686
1926074.0,202.955722,1.0,7.81,-2.27,-5.67,-25.0,8.38,45.19,15.88,-26.62,19.0,0.3863745098888183,0.1047360082763551,-0.09979462492364455,-89.5298988974798,-64.53868567478605,-30.306298828005655,0.3883,-0.7042,-0.5339,-0.2614
1926109.0,202.991624,1.0,7.53,-2.6,-5.98,-24.69,9.56,44.88,28.06,-32.13,21.56,0.24867029424173825,0.2972889142413313,-0.14679575442248272,-90.07995743217866,-64.72851792100349,-28.48187662578674,0.39,-0.7076,-0.5353,-0.246
1926146.0,203.040796,1.0,7.24,-2.86,-5.66,-23.19,9.88,47.38,30.81,-48.81,28.37,0.13512560487187875,-0.03353900564766876,0.18306354764201416,-90.74680173049411,-64.94571342127749,-26.499953978465857,0.3907,-0.7117,-0.5369,-0.2292
1926178.0,203.05331,1.0,6.86,-2.9,-5.79,-23.19,9.88,47.38,20.62,-40.13,18.87,0.2188553093592689,0.06783752424989875,0.3757857541384926,-91.38478587581723,-65.2583919435243,-24.467440757791284,0.3903,-0.7156,-0.5392,-0.2119
1926215.0,203.102709,1.0,6.82,-3.5,-5.72,-20.5,11.75,46.75,21.44,-29.31,14.44,-0.2308932314242247,-0.13634552696581248,0.2458499177391591,-91.59825645648039,-65.47622986306104,-23.31957649574687,0.391,-0.7169,-0.5408,-0.2021
1926252.0,203.144323,1.0,6.82,-3.3,-5.93,-19.37,12.56,46.38,8.44,-18.06,5.88,0.08327550977071407,-0.05470401657071999,0.1859757689471948,-91.79566979807731,-65.68069497759913,-22.384305799332335,0.3906,-0.7181,-0.5423,-0.1941
1926287.0,203.170279,1.0,6.8,-3.29,-5.99,-19.37,12.56,46.38,10.19,-13.88,7.81,0.15486805986300878,-0.049822318228018636,0.1672654957569666,-91.91098977027544,-65.76254695121683,-21.858883165817783,0.3906,-0.7188,-0.5429,-0.1896
1926320.0,203.20786,1.0,6.74,-3.44,-6.13,-18.69,14.06,46.06,7.56,-12.38,5.69,0.08500294385132534,0.014804400861981426,0.06854672835352815,-92.05943487025183,-65.85808871965587,-21.263965423591053,0.3905,-0.7197,-0.5436,-0.1845
1926356.0,203.239299,1.0,6.59,-3.32,-5.95,-18.0,14.38,47.25,2.75,-9.25,3.13,0.14050204896107488,-0.05910390766333784,0.3287933909170899,-92.15850909816106,-65.9536821068983,-20.9608980601766,0.3897,-0.7203,-0.5443,-0.1819
