TIME,ELAPSED_SECONDS,PSTATE,acc_x,acc_y,acc_z,mag_x,mag_y,mag_z,gyr_x,gyr_y,gyr_z,lin_x,lin_y,lin_z,eul_x,eul_y,eul_z,qua_w,qua_x,qua_y,qua_z
2735994.0,2647.444386,1.0,3.02,1.68,-9.31,-6.25,-21.5,32.5,2.31,-1.12,-2.56,-0.07773610844045004,0.030108595896053636,-0.12370500724408727,-153.2614432071201,-16.63981448789728,-19.517498563105914,-0.0613,-0.9729,-0.1447,-0.1695
2736029.0,2647.4636149999997,1.0,2.93,1.73,-9.17,-6.56,-22.19,32.88,-0.12,-0.63,-2.69,-0.08863871943871858,0.11166466726466706,0.0267535701035726,-153.2614432071201,-16.709303811577858,-19.470990576087328,-0.0613,-0.9729,-0.1453,-0.1691
2736064.0,2647.517583,1.0,3.03,1.74,-9.26,-6.56,-22.19,32.88,1.75,-0.37,-2.38,-0.02360816658908907,0.08724239803701539,-0.09021472669274287,-153.21193002249612,-16.801965875210325,-19.459364085641027,-0.061,-0.9728,-0.1461,-0.16899999999999998
2736099.0,2647.538209,1.0,3.01,2.08,-9.27,-7.25,-22.19,33.69,5.75,1.81,-4.13,0.05236695884528871,0.4223598259324464,-0.15017026949666246,-153.1625065187994,-16.940979741891212,-19.43611171140661,-0.0604,-0.9727,-0.1473,-0.1688
2736134.0,2647.590322,1.0,3.0,1.66,-9.34,-6.56,-21.75,33.38,9.81,-1.75,-4.06,-0.07887515252766059,0.057329802089923436,-0.14230431711825986,-153.1625065187994,-17.103194349757633,-19.401234664747328,-0.0583,-0.9727,-0.1487,-0.1685
2736171.0,2647.610565,1.0,3.04,2.01,-9.33,-6.56,-21.75,34.56,14.75,-0.5,-1.56,0.08948534021881835,0.4315591984728568,-0.2001651293055957,-153.21193002249612,-17.277034050168414,-19.273367657733324,-0.0551,-0.9728,-0.1502,-0.1674
2736203.0,2647.703424,1.0,2.58,1.71,-9.0,-6.56,-21.75,34.56,19.81,-2.56,-0.25,-0.25417806707885005,0.3784554462104912,0.30019614036076625,-153.36074062083046,-17.404541942676424,-19.12228331882828,-0.051,-0.9731,-0.1513,-0.1661
2736240.0,2647.714956,1.0,2.64,1.95,-9.57,-6.25,-21.5,33.38,29.19,6.88,4.19,-0.3033823813418059,0.711175680523119,-0.2809259368702559,-153.5103719816942,-17.462507245696994,-19.145524872704485,-0.0433,-0.9734,-0.1518,-0.1663
2736275.0,2647.718467,1.0,3.08,1.14,-9.35,-7.38,-20.0,33.38,54.31,-10.31,16.5,0.021280998968024656,0.03477899630740966,-0.10328630355406432,-154.0662728728033,-17.230672895970507,-18.86667840059343,-0.0318,-0.9745,-0.1498,-0.1639
2736310.0,2647.779659,1.0,5.17,-1.13,-9.28,-7.38,-20.0,33.38,86.81,8.31,49.38,1.4852148417410445,-2.24602853652311,-0.5313233355719209,-155.32181611488016,-16.361918539628213,-18.297714844671226,-0.0073,-0.9769,-0.1423,-0.159
2736345.0,2647.78455,1.0,8.32,-4.41,-10.74,-7.0,-19.56,35.38,100.75,15.44,89.06,3.316673584818222,-5.131686113234141,-3.103949287678665,-156.75715530060586,-13.841919736512358,-18.251289114029838,0.0294,-0.9795,-0.1205,-0.1586
2736381.0,2647.829028,1.0,6.56,-2.26,-9.85,-7.75,-17.0,36.19,-11.13,-98.62,87.06,3.0758589915992944,-2.5104011220409554,-1.5687918670332657,-159.9290177639615,-11.30560069930953,-16.03782888845279,0.0331,-0.9847,-0.0985,-0.1395
2736416.0,2647.884859,1.0,4.27,-0.71,-8.61,-7.75,-17.0,36.19,-38.88,-118.56,85.19,2.3486005599258024,-0.7732293921642792,0.4923979249802617,-165.6781993872616,-7.982025743589274,-11.547444362906596,0.0222,-0.9922,-0.0696,-0.1006
2736451.0,2647.898929,1.0,1.61,-0.07,-7.06,-7.38,-14.69,36.19,-18.25,-73.81,104.37,0.4960238249065725,0.08303245463511502,2.5825468738948416,-169.4938307856925,-5.0780679322633615,-8.912747665103913,0.0172,-0.9958,-0.0443,-0.0777
2736488.0,2647.918576,1.0,0.67,0.41,-6.75,-4.75,-13.5,37.06,-35.19,-25.25,104.06,-0.17279106259547666,0.5316892125027638,3.0341357083949,-172.57231796598282,-0.9969591404369118,-7.2010885302066425,0.0093,-0.9979,-0.0087,-0.0628
2736523.0,2647.969358,1.0,0.82,-0.14,-6.65,-4.75,-15.38,36.19,-46.56,7.06,111.56,-0.004553000462482656,-0.11052287699211284,3.1057348413184482,-172.57231796598282,2.2575997541901875,-7.109236280779951,0.001,-0.9979,0.0197,-0.062
2736558.0,2647.9891789999997,1.0,0.02,2.28,-7.01,-4.75,-15.38,36.19,-80.25,26.5,102.19,-1.1939649961941166,1.9008961246417129,2.7852582924262594,-169.36940436804014,6.443440527613203,-7.959051879828772,-0.0222,-0.9957,0.0562,-0.0694
2736594.0,2648.036023,1.0,0.0,1.87,-7.94,-5.5,-16.5,36.25,-74.56,69.0,67.06,-1.5686420941537855,1.1017626471985662,1.8778429617573056,-166.24074892993926,8.659903302137069,-9.637046865121436,-0.0406,-0.9928,0.0755,-0.084
2736631.0,2648.0550129999997,1.0,0.02,3.52,-8.01,-8.06,-17.56,35.0,-81.87,77.5,56.56,-2.303946057674787,2.1923524632059106,1.655801992559315,-161.57402592832648,11.2825706212041,-12.307865676783145,-0.0672,-0.9871,0.0983,-0.1072
2736666.0,2648.100579,1.0,0.4,5.02,-8.57,-8.06,-17.56,35.0,-86.19,82.94,21.31,-2.748806907283038,3.1620062367828305,0.7927120622826784,-158.28578665640208,12.353968967121856,-14.45391421483677,-0.0894,-0.9821,0.1076,-0.1258
2736699.0,2648.164812,1.0,0.92,6.09,-9.76,-10.69,-19.06,32.88,-61.63,105.5,-31.75,-3.3106029155799384,3.3711267587887686,-0.7227143070952717,-154.47803544959174,11.881504040605064,-17.845191938186247,-0.1185,-0.9753,0.1035,-0.1551
2736736.0,2648.230664,1.0,1.17,5.83,-10.03,-13.25,-21.37,30.87,-40.69,86.94,-62.5,-3.447607855728264,2.646896955652473,-1.0130836648957509,-151.86026450485573,9.5450515760222,-20.856024774540764,-0.139,-0.97,0.0832,-0.18100000000000002
2736773.0,2648.237751,1.0,2.33,6.42,-10.09,-15.56,-24.37,28.75,-20.25,77.0,-96.37,-2.6312325531023406,3.0200107039678885,-1.7002848915953273,-150.479330837061,6.856665996646211,-22.606293449751373,-0.1514,-0.9670000000000001,0.0598,-0.196
2736807.0,2648.257202,1.0,4.07,3.97,-9.45,-15.56,-24.37,28.75,41.63,71.12,-99.69,-0.5906775599330917,0.8697370543371363,-1.1716448346500687,-149.50552295905456,2.47537018520181,-24.831054609816945,-0.1501,-0.9648,0.0216,-0.215
2736842.0,2648.306832,1.0,6.85,1.43,-10.2,-16.0,-26.19,27.56,51.81,70.69,-93.31,1.5057492435066058,-1.8840300279569464,-2.3255612605013525,-148.73080219796103,-0.8594447501191841,-26.629469277048536,-0.1401,-0.963,-0.0075,-0.2303
2736879.0,2648.327109,1.0,7.13,1.56,-9.84,-15.56,-25.5,28.37,61.0,38.0,-68.75,1.6257122260956498,-1.8230915408223511,-2.1987444954634903,-147.6436957459843,-4.642227799866185,-27.950176987884003,-0.1325,-0.9604,-0.0405,-0.2415
2736914.0,2648.371736,1.0,9.94,-3.47,-9.33,-15.56,-25.5,28.37,88.62,36.0,-16.12,3.912434010659864,-6.7445400318987225,-1.9022115958319183,-147.6436957459843,-6.317194167065648,-28.76570522000204,-0.1132,-0.9604,-0.0551,-0.2484
2736949.0,2648.3979,1.0,9.93,-3.06,-9.96,-16.0,-25.5,28.37,-5.81,-10.38,22.81,3.521956012149159,-6.180422548310161,-2.706075641235236,-147.84997349806363,-6.133576755953128,-29.19178700040293,-0.1014,-0.9609,-0.0535,-0.252
2736984.0,2648.442024,1.0,7.76,-0.58,-8.25,-15.56,-24.25,28.69,-29.06,-33.31,39.0,2.795204142530934,-3.1137653048365284,-0.7341184458000551,-148.56117141184754,-4.917487034889402,-28.47005431834872,-0.1057,-0.9626,-0.0429,-0.2459
2737020.0,2648.449186,1.0,5.6,2.06,-7.81,-14.75,-24.56,29.19,-34.75,-40.81,72.12,1.3499889230071151,-0.15074429390267785,0.0724573747426831,-149.54912686270868,-2.1659094260652934,-27.277569433768978,-0.1141,-0.9649,-0.0189,-0.2358
2737055.0,2648.488613,1.0,5.03,1.8,-7.83,-14.75,-24.56,29.19,-11.44,-25.75,91.19,0.9046176265182309,-0.1283253115577223,0.3718739261227757,-150.34469905459454,1.4095117183833985,-26.57059440264536,-0.1122,-0.9667,0.0123,-0.2298
2737092.0,2648.511143,1.0,5.15,1.72,-7.77,-15.19,-23.5,29.19,-12.38,-10.81,101.94,1.0089282491845435,0.02791363444342365,0.3814134185125333,-150.29995438645182,4.378462866761455,-26.464637612964076,-0.1088,-0.9666,0.0382,-0.2289
2737129.0,2648.575554,1.0,5.72,1.42,-7.97,-16.25,-23.5,28.75,-37.19,-18.44,110.69,1.4098400217936322,-0.01784956811801508,-0.0049621257348384535,-149.46197984083236,8.636919564056372,-26.346934855604967,-0.1082,-0.9647,0.0753,-0.2279
2737164.0,2648.5978219999997,1.0,4.42,2.92,-7.53,-16.25,-23.5,28.75,-51.94,-25.81,103.19,0.07775307907167539,1.4484188670105065,0.7149099440820521,-148.4345315385202,12.00824269100582,-25.876405289927124,-0.1135,-0.9623,0.1046,-0.2239
2737199.0,2648.649382,1.0,3.74,2.0,-7.04,-19.0,-22.75,28.0,-33.25,-6.19,103.19,-0.16826906248067133,0.6392859157478145,1.6144464478085414,-146.5113892939378,16.257732621833743,-25.559049077875773,-0.1187,-0.9576,0.1414,-0.2212
2737233.0,2648.668839,1.0,3.58,3.49,-6.7,-20.5,-22.37,28.75,-67.69,-0.56,106.62,-0.8590181729786674,2.032772683653785,1.7433738051097745,-144.23939029133862,19.6570420373131,-25.688318141008548,-0.1254,-0.9517,0.1707,-0.2223
2737270.0,2648.714652,1.0,2.73,3.76,-6.31,-21.87,-20.87,28.0,-57.06,32.5,74.81,-1.7951524594109924,1.9082198473577991,2.4213453575617203,-140.78037862226373,23.37808257553645,-26.288094094940124,-0.1412,-0.9420000000000001,0.2026,-0.2274
2737305.0,2648.734422,1.0,3.56,2.46,-6.66,-21.87,-20.87,28.0,-48.06,65.87,71.62,-1.032922809261047,0.6446004411238799,1.9581876829973133,-136.7450958533554,26.13514108768563,-28.47005431834872,-0.1557,-0.9296,0.2261,-0.2459
2737342.0,2648.78302,1.0,3.67,3.88,-7.06,-24.06,-21.25,25.56,-75.19,70.0,51.75,-2.1236918534783853,1.3708608507172897,1.3226902264367038,-133.41553604515124,28.080090858618394,-30.187596092266823,-0.1724,-0.9185,0.2426,-0.2604
2737379.0,2648.845646,1.0,3.97,4.93,-6.49,-26.69,-21.0,23.87,-67.5,85.12,28.81,-2.6449159116412524,2.046018536405291,1.3802552804872177,-129.3510733053071,29.393135398012305,-32.78310312481338,-0.1973,-0.9039,0.2537,-0.2822
2737414.0,2648.853756,1.0,5.77,3.8,-6.73,-26.69,-21.0,23.87,-41.75,124.12,6.88,-1.228789326129291,1.2173053794244368,0.3180228914444587,-126.32740410450675,29.381288812129693,-35.70889932534101,-0.2131,-0.8923,0.2536,-0.3066
2737448.0,2648.8722510000002,1.0,5.45,5.73,-6.49,-29.37,-22.06,20.56,-73.56,126.44,-26.19,-2.8968858549159484,1.9140255558966688,0.18375758061993075,-122.11362560713808,28.387306821530828,-39.38840578330453,-0.2461,-0.8751,0.2452,-0.337
2737483.0,2648.917041,1.0,5.61,5.7,-5.3,-31.19,-22.87,16.56,-45.56,141.75,-57.06,-2.425092386386251,2.015255012094302,0.7452056254137798,-119.19690467351394,26.59414349441812,-42.0775906009399,-0.2723,-0.8625,0.23,-0.359
2737520.0,2648.98028,1.0,6.52,5.4,-4.97,-32.56,-24.69,11.69,-9.63,158.88,-63.19,-1.902387021535124,1.4131437143975512,0.2800950895009606,-115.38674111389929,23.237678334824075,-46.70663424071843,-0.2966,-0.8452,0.2014,-0.3964
2737555.0,2648.998563,1.0,7.82,5.78,-4.72,-32.56,-24.69,11.69,-14.13,165.06,-87.69,-1.5734989297220734,1.0298297860829226,-0.8377265308194488,-111.42068428698192,18.704070115126303,-51.328910831615794,-0.3215,-0.8262,0.1625,-0.4331
2737592.0,2649.050297,1.0,9.67,5.03,-4.88,-33.38,-27.0,6.69,16.5,148.25,-83.69,-0.5426319259035566,-0.4077311765265064,-2.116583868404936,-108.83922979141936,14.916070477056891,-54.593609797684756,-0.3337,-0.8133,0.1298,-0.4586
2737629.0,2649.0710129999998,1.0,9.82,5.29,-4.27,-31.5,-29.56,3.06,19.5,116.56,-85.75,-0.4760422300888055,-0.6948728847651586,-2.107204769518983,-106.05037621061464,10.327214181692757,-57.72378450652888,-0.3474,-0.7989,0.09,-0.4827
2737664.0,2649.122074,1.0,8.5,5.41,-2.41,-31.5,-29.56,3.06,21.44,138.69,-109.37,0.012352066163028974,0.19357694645708934,-0.5513698586535796,-103.81206807438305,6.443440527613203,-59.80162063871753,-0.359,-0.787,0.0562,-0.4985
2737698.0,2649.142495,1.0,10.32,5.36,-4.47,-28.5,-32.19,1.19,28.69,140.63,-93.87,-1.060332757354885,-2.551231794138332,-2.34159311479886,-100.20622564478924,0.93966131468631,-63.20189622403351,-0.3698,-0.7672,0.0082,-0.524
2737733.0,2649.193625,1.0,8.86,6.73,-1.41,-25.87,-34.5,-1.25,50.0,76.25,-79.31,0.1882611449705912,0.3259052885822209,-1.4022278869326836,-98.89313900458244,-2.349291527927613,-64.49803318236535,-0.3709,-0.7598,-0.0205,-0.5336
2737770.0,2649.2128620000008,1.0,8.87,6.67,-1.19,-22.06,-36.0,-1.25,54.31,122.31,-83.75,0.3728543926699494,-0.2892297775814039,-1.3449967724559375,-96.54176184653713,-7.936078336486531,-66.67915125155818,-0.369,-0.7463,-0.0692,-0.5496
2737805.0,2649.263207,1.0,11.21,6.97,-4.39,-22.06,-36.0,-1.25,77.44,82.19,-52.63,-1.8729028302095283,-3.0929563043775423,-3.6262557276452414,-94.81742405266395,-11.605033754368794,-68.44387353354183,-0.3627,-0.7362,-0.1011,-0.5624
2737842.0,2649.283631,1.0,10.37,4.25,-2.55,-19.37,-37.5,-1.75,114.37,-8.38,-32.75,0.4642087680819433,-3.857118178689624,-1.0104221350676903,-96.28384663999226,-15.089441590206313,-67.53166897221763,-0.3453,-0.7448,-0.1313,-0.5558
2737879.0,2649.329205,1.0,10.1,5.85,-2.68,-19.0,-38.5,0.56,66.19,-55.31,10.06,0.39566186675021603,-2.3770983578530047,-1.9239831919590884,-98.59396637382844,-16.16513427708501,-65.96734252761773,-0.3304,-0.7581,-0.1406,-0.5444
2737911.0,2649.3343019999998,1.0,10.52,3.06,-3.1,-19.0,-38.5,0.56,87.87,-83.31,34.88,1.198606242091238,-4.415792136403915,-0.6196687599695636,-102.66776223181776,-16.1419863535435,-63.20189622403351,-0.3099,-0.7808,-0.1404,-0.524
2737946.0,2649.399199,1.0,10.06,4.01,-3.59,-17.37,-38.19,5.19,47.44,-127.12,71.25,1.3322965428516644,-2.8588735099355502,-1.1580035821289982,-108.27006185000631,-13.714952301602876,-59.39226049534915,-0.289,-0.8104,-0.1194,-0.4954
2737983.0,2649.407197,1.0,9.18,2.95,-3.63,-19.25,-37.19,7.5,32.0,-146.75,82.44,1.63014829217142,-2.7529479662866074,0.012994194303688644,-112.77489865498623,-11.017757342406151,-56.04262977353804,-0.2765,-0.8328,-0.096,-0.4698
2738020.0,2649.473196,1.0,9.15,4.45,-5.18,-20.37,-35.25,10.0,4.75,-149.0,117.56,0.9335779287342092,-1.1696570041934022,-1.5122604927780774,-118.36422556879907,-5.8926027489674295,-51.93993891277072,-0.2611,-0.8588,-0.0514,-0.4379
2738055.0,2649.494344,1.0,8.0,4.35,-5.59,-20.37,-35.25,10.0,26.5,-198.69,127.87,0.6075294306742257,-0.2875018937036393,-0.8572540999055054,-123.5991628945627,-1.5470330404085568,-47.68200947327645,-0.2443,-0.8813,-0.0135,-0.4042
2738092.0,2649.544596,1.0,7.64,5.06,-6.16,-23.06,-33.06,13.69,12.13,-202.63,138.13,0.6783392032474149,1.270887003258223,-1.1406557027876492,-130.40615307468192,4.745446786894516,-41.47659109099214,-0.2212,-0.9078,0.0414,-0.3541
2738126.0,2649.603798,1.0,6.36,5.27,-6.68,-22.69,-29.69,17.75,22.75,-184.81,115.37,-0.13089229916220868,2.0357726255375783,-0.6184829499019795,-134.7969534952698,9.085166406176855,-36.90278239165085,-0.2034,-0.9232,0.0792,-0.3165
2738161.0,2649.61152,1.0,5.53,4.06,-7.57,-22.69,-29.69,17.75,35.75,-202.38,102.56,-0.14656225170709472,1.4535626516355322,-0.3044861935316039,-140.33889297208822,13.818833482803015,-30.674489682178663,-0.1753,-0.9407,0.1203,-0.2645
2738196.0,2649.631179,1.0,4.34,4.22,-7.13,-22.69,-26.25,22.0,48.13,-192.5,89.87,-0.2936014861221355,2.442231181421892,0.7827813715326357,-145.22287322309495,18.088822794467358,-24.11579445991055,-0.1444,-0.9543,0.1572,-0.2089
2738233.0,2649.676798,1.0,3.52,2.53,-8.27,-21.19,-24.75,27.75,42.94,-145.38,73.31,-0.3270671870791196,0.8976689401111008,0.5184091800655839,-147.72605283657722,20.459995384570266,-20.25043303206116,-0.1216,-0.9606,0.1776,-0.1758
2738272.0,2649.745293,1.0,2.84,2.83,-8.77,-18.19,-21.06,29.25,49.56,-157.94,57.69,-0.5401788600474935,1.54153858734877,0.3030051422166178,-150.29995438645182,23.05052764872173,-15.054764601110485,-0.0933,-0.9666,0.1998,-0.131
2738305.0,2649.763025,1.0,0.25,1.5,-5.69,-18.19,-21.06,29.25,39.25,-121.5,44.0,-1.342538320015755,0.3972348957189882,4.085776351953542,-151.48561418277666,24.56125248965988,-11.466824127666605,-0.0733,-0.9692,0.2127,-0.0999
2738343.0,2649.7682800000002,1.0,2.17,0.76,-9.63,-15.56,-19.19,32.75,21.69,-64.56,38.63,0.38545104274230196,0.1482979872163654,-0.08540919920804235,-151.48561418277666,26.076325639174165,-8.95872400294449,-0.0599,-0.9692,0.2256,-0.0781
2738378.0,2649.810096,1.0,0.33,0.98,-8.43,-12.19,-17.69,34.0,-0.06,-78.75,30.69,-0.9337639978770615,-0.08258217701729076,1.3653547806448731,-151.48561418277666,26.9593013980579,-6.9025853499261425,-0.0527,-0.9692,0.2331,-0.0602
2738413.0,2649.877888,1.0,-0.56,1.27,-7.63,-12.19,-17.69,34.0,-6.38,-40.5,12.69,-1.5200654168266934,-0.01554095468234584,2.201877839882705,-151.2538864729402,27.74947301162786,-4.733977821845079,-0.049,-0.9687,0.2398,-0.0413
2738446.0,2649.88376,1.0,0.96,0.94,-9.82,-11.06,-17.25,33.56,-0.44,-8.25,9.5,-0.05906923259096965,0.1789692808342036,-0.10304630323143726,-151.1157235364922,27.99741414521811,-4.160587661476331,-0.0484,-0.9684,0.2419,-0.0363
2738483.0,2649.94882,1.0,-0.47,0.74,-8.52,-8.75,-17.19,35.69,-5.19,-29.31,12.44,-1.050844811216753,-0.4555789397900456,1.3185952751317274,-151.1157235364922,28.18641141984425,-3.32362118371626,-0.0463,-0.9684,0.2435,-0.028999999999999998
2738520.0,2649.9566170000007,1.0,-0.54,1.29,-8.6,-8.75,-17.19,35.69,-16.37,-0.19,-2.63,-1.3117119650406726,-0.07051202682809021,1.193280173106361,-151.1157235364922,28.12734139012517,-3.0026424356334624,-0.0504,-0.9684,0.243,-0.0262
2738552.0,2649.976139,1.0,0.63,1.05,-9.66,-9.56,-16.5,35.69,-6.69,32.31,-8.38,-0.28536152075310195,0.04639585983796712,0.073643464162096,-151.16170585731885,27.867523616250335,-3.6790210459755386,-0.0544,-0.9685,0.2408,-0.0321
2738589.0,2650.071129,1.0,0.92,0.77,-10.39,-9.19,-17.56,34.88,-2.44,3.31,0.19,0.01957453040809944,-0.21456438667504807,-0.6501649530213118,-151.34635737161238,27.57245336826063,-4.068855279934243,-0.0565,-0.9689,0.2383,-0.0355
2738624.0,2650.0773329999997,1.0,0.38,0.81,-9.54,-11.38,-16.87,36.06,-1.56,6.38,-8.31,-0.4306228929123784,-0.3340794908195007,0.24029986957337,-151.43912137388486,27.478070348739482,-4.034456312516312,-0.0574,-0.9691,0.2375,-0.0352
2738659.0,2650.087077,1.0,0.71,0.96,-9.62,-11.38,-16.87,36.06,-3.88,16.25,-5.94,-0.27972455901928106,-0.122836607943432,0.1176477118987922,-151.57882322936237,27.183245547895737,-4.527544452628878,-0.0596,-0.9694,0.235,-0.0395
2738696.0,2650.1326280000008,1.0,1.08,0.56,-10.25,-9.56,-17.56,34.5,-2.13,12.0,-5.69,0.1325009989544707,-0.4369101692655015,-0.5051904268718435,-151.7661453802759,26.829697512461113,-4.96336629149859,-0.0607,-0.9698,0.23199999999999998,-0.0433
2738733.0,2650.198758,1.0,0.61,0.84,-9.54,-11.06,-18.37,34.5,-7.19,6.25,-6.31,-0.3850152200325409,-0.35038183697419834,0.22446361855960006,-151.95469309277132,26.57059440264536,-5.112479412053579,-0.0631,-0.9702,0.2298,-0.0446
2738765.0,2650.220382,1.0,0.94,0.87,-9.87,-11.06,-18.37,34.5,-0.31,0.25,-1.56,-0.13564642850432193,-0.2495947654914333,-0.14205355872931058,-152.00202441389632,26.452866060028953,-5.215716631990905,-0.0641,-0.9703,0.2288,-0.0455
2738800.0,2650.223903,1.0,0.64,1.07,-9.51,-10.69,-17.56,33.69,-2.06,2.06,-3.63,-0.4683583701943559,-0.16033550660153262,0.22805234886172165,-152.09692309623645,26.32339770363258,-5.215716631990905,-0.0646,-0.9705,0.2277,-0.0455
2738835.0,2650.26866,1.0,0.91,1.01,-9.55,-10.69,-17.19,34.88,-1.81,5.75,-3.56,-0.20996363732173592,-0.11578784311366876,0.1633513710872947,-152.23986727877062,26.170433719349266,-5.284543793645802,-0.0652,-0.9708,0.2264,-0.0461
2738870.0,2650.335706,1.0,0.92,0.69,-9.65,-10.69,-17.19,34.88,1.81,1.94,-1.31,-0.08865358363960726,-0.4136537460877087,0.0975804709227912,-152.4315896826145,25.923438140144054,-5.4336758888612415,-0.065,-0.9712,0.2243,-0.0474
2738905.0,2650.3565940000008,1.0,0.84,0.87,-9.72,-9.88,-17.56,34.88,-3.31,3.13,-3.56,-0.2486000741253595,-0.31945248575858903,0.0200751082164814,-152.47972490837182,25.817620461905193,-5.491036825631306,-0.066,-0.9713,0.2234,-0.0479
2738939.0,2650.412791,1.0,0.9,0.76,-9.67,-10.25,-18.37,34.06,-0.5,7.56,-0.56,-0.15997317168642788,-0.3850285979023356,0.07409321551947201,-152.67309729035,25.61780363221793,-5.594289991509483,-0.0658,-0.9717,0.2217,-0.0488
2738974.0,2650.433524,1.0,0.93,0.98,-9.64,-10.25,-19.06,35.69,-4.56,-0.75,0.37,-0.22420868453009124,-0.1855270553738867,0.07678822413156716,-152.81901206638815,25.40631916668005,-5.605762844556931,-0.0665,-0.972,0.2199,-0.0489
2739009.0,2650.437079,1.0,0.87,1.03,-9.59,-10.25,-19.06,35.69,-3.75,4.38,-0.75,-0.29181178852922224,-0.18728706274033347,0.12854742582744372,-152.81901206638815,25.38282633662164,-5.617235753841245,-0.068,-0.972,0.2197,-0.049
2739046.0,2650.487371,1.0,1.07,1.01,-9.79,-11.06,-18.37,34.5,-4.25,10.56,-1.56,-0.14582648558172226,-0.1813781153849241,-0.09056863026993513,-152.7702885732456,25.31235434951457,-5.823757869537403,-0.0691,-0.9719,0.2191,-0.0508
2739081.0,2650.5081379999997,1.0,1.25,0.83,-9.9,-11.06,-18.37,33.19,-1.0,4.75,-0.06,0.053441622550866534,-0.3105372816293264,-0.20145224716441312,-152.72165046658662,25.277122006902648,-6.04177399090254,-0.07,-0.9718,0.2188,-0.0527
2739116.0,2650.563266,1.0,0.69,0.9,-9.37,-11.06,-18.37,33.19,-2.25,-1.5,2.38,-0.4306158817023986,-0.3989160343954979,0.386541934806278,-152.67309729035,25.34758912480893,-5.97292446733722,-0.0702,-0.9717,0.2194,-0.0521
2739148.0,2650.584169,1.0,1.12,1.14,-9.91,-11.06,-19.06,33.69,-4.56,4.81,1.75,-0.1990338965779998,-0.12596370145487978,-0.22861873850066594,-152.62462859250311,25.34758912480893,-6.087674884576738,-0.0718,-0.9716,0.2194,-0.0531
2739185.0,2650.634516,1.0,0.94,1.03,-9.66,-11.06,-18.37,32.38,-1.12,-0.31,2.5,-0.3010237769953975,-0.2702079205372329,0.05490798303901201,-152.52794284369597,25.394572616004385,-6.133576755953128,-0.0723,-0.9714,0.2198,-0.0535
2739222.0,2650.706177,1.0,0.65,1.04,-9.41,-11.06,-18.69,33.69,-2.5,4.06,0.88,-0.5605567618078926,-0.3623160284862008,0.34056827563835945,-152.47972490837182,25.394572616004385,-6.236859579751598,-0.0732,-0.9713,0.2198,-0.0544
2739257.0,2650.726282,1.0,1.53,1.4,-10.13,-11.06,-18.69,33.69,-3.38,12.0,-1.06,-0.02150052633100885,0.15800947047848768,-0.5322266669598434,-152.3835367338065,25.35933459116607,-6.523783187455053,-0.0751,-0.9711,0.2195,-0.0569
2739294.0,2650.730059,1.0,0.97,1.0,-9.58,-11.75,-18.37,33.25,2.63,0.63,0.63,-0.33516954005547384,-0.32936410582640835,0.13729217927518178,-152.3835367338065,25.34758912480893,-6.6729995322127,-0.0743,-0.9711,0.2194,-0.0582
2739329.0,2650.775146,1.0,1.08,0.95,-9.59,-11.06,-18.0,34.5,-1.88,5.44,-1.19,-0.2362947147021113,-0.3410449338433062,0.118262458158803,-152.3835367338065,25.253635128091673,-6.8107477456860686,-0.0746,-0.9711,0.2186,-0.0594
